accx,accy,accz,gyrx,gyry,gyrz
17.968792,-2.3959639999999998,-0.3118304,-0.800408,-1.8896680000000001,-6.21421
19.735232999999997,-1.1085538000000001,0.21964405,-0.92231923,-1.1518823999999999,-6.5676913
20.602957,-1.3241372,-0.018751388,-0.73706996,-0.32463124,-7.006833599999999
19.486656,-3.7286818,-0.93204355,-0.46558404,0.62182593,-7.423653
18.09461,-7.2259784,-1.4690151000000002,-0.15468854,1.5901346,-7.372008999999999
16.901838,-10.873486999999999,-1.3849403,-0.008848819,2.270429,-6.901974000000001
16.230974,-13.72071,-0.6137104999999999,-0.048240899999999996,2.7995605,-6.330257
16.971394,-16.224491,0.39481345,-0.13021901,3.0502944,-5.880450700000001
18.575556,-18.817247000000002,1.2523015,-0.12648399999999999,2.8368232000000004,-5.471625
19.424858,-20.999216,1.8502102999999999,0.066723935,2.2725582,-5.093132499999999
19.491581,-22.43144,2.789427,0.45958009999999994,1.5044215,-4.675248000000001
19.527788,-23.461835999999998,4.1370654,0.9019338,0.85763735,-4.356935
18.831497,-23.657576000000002,4.3075805,1.2293227,0.5094965,-4.084384399999999
16.851694000000002,-24.272454999999997,3.5031097,1.3570806999999998,0.6031858,-3.9002
14.170456,-24.738874,2.0684848000000002,1.1963358999999998,1.0439687,-3.7170627
12.444075,-23.809954,0.5094382000000001,0.9865823,1.6263152,-3.4887037000000003
11.95829,-22.15755,-0.9846394,0.8737292999999999,2.207091,-3.1182053
11.868853,-20.92651,-1.5805658,0.7992037,2.291722,-2.2105992000000003
10.698960000000001,-19.247093,-1.3593415,0.5399525,1.6199273,-0.798331
8.982517,-17.536818,-0.30652484,-0.09456194,0.38386770000000003,0.6197664
7.389799000000001,-15.73274,0.95900226,-0.73652893,-0.8862433000000001,1.7168978
6.3139887,-14.206542,1.6012995,-0.9116726999999999,-2.0019975,2.5946937
5.2089977,-12.934080999999999,1.6384957999999998,-0.6705206,-3.0474669999999997,3.3979814
4.251796,-11.794172999999999,1.0086868,0.02628466,-3.9034462,4.1054335
2.7718534,-10.623494,-0.13965857,0.6613401999999999,-4.0285516,4.7138724000000005
1.5989053999999998,-9.744468,-0.64268035,0.80559164,-3.2907486000000006,5.313271
-0.5280268,-9.591182,-1.7322911,0.37014943,-1.9737754,6.06652
-4.401692,-9.780649,-3.9229856,-0.35753068,-0.7840368000000001,6.8719196
-7.028275,-9.977433,-7.1166015,-1.0192025,-0.13405874,7.6150637
-6.9797970000000005,-9.904802,-9.529469,-1.2172276000000002,-0.11756538,8.002055
-4.6849739999999995,-9.797906,-8.2304325,-1.0101616,-0.42364377,8.053682
-1.8327805,-10.297471,-5.6388717,-0.62741095,-0.7238753000000001,7.752927000000001
1.1298525,-11.166949,-3.23675,-0.31759757,-0.859086,7.094972599999999
4.340276,-12.075319,-1.4069862,-0.21006782,-0.7968126,6.2922263
7.0394034,-13.701365,-1.4539412,-0.21432643,-0.6946061,5.665670400000001
9.170548,-15.908379,-2.4746566000000003,-0.21485002,-0.5338439,5.1871184999999995
11.102785,-18.596972,-3.4713626000000004,-0.16002923,-0.28310984,4.628718
13.766842,-21.45965,-3.5070744,-0.09028588,0.027209682000000002,3.9712872999999997
16.59245,-23.599570999999997,-2.4199154,-0.010978121,0.44189993,3.2632944999999998
19.415146,-24.36874,-0.8485050999999999,0.07311184,0.8230449000000001,2.7027645000000002
21.113766000000002,-23.432223999999998,0.4018428,0.09334021,1.148287,2.3455652999999996
21.993404,-21.436352,0.6614892,0.038519416,1.3383359,2.060239
22.06549,-18.906792000000003,0.40199605,0.06885324,1.3585643,1.8228218999999997
21.528814,-16.793104,0.08755117,0.21844539999999998,1.219095,1.647678
19.976759,-15.255010999999998,0.41170690000000004,0.43135813,0.9768781999999999,1.5044738000000002
18.958332000000002,-13.842307,1.1178622999999999,0.6544112,0.61489695,1.4086726999999999
18.657269,-12.009238999999999,1.8718538,0.80239767,0.1757372,1.3213713
18.323744,-10.471463,2.1975898999999997,0.7678052,-0.26446974,1.0940771
17.27359,-9.281065,2.3137849999999998,0.62992424,-0.6440265000000001,0.6985505999999999
15.570844000000001,-8.63262,1.8796206999999998,0.47820276,-0.92137676,0.06880088
13.9959955,-8.041185,1.0068576,0.420188,-1.0986325000000001,-0.86700976
13.097633,-7.372733599999999,0.34299335,0.5351703,-1.1784812,-2.1616077000000002
12.303792999999999,-6.8997636,0.1294018,0.5921379,-1.0528524,-3.5930394999999997
11.783992,-6.371737,-0.06808152,0.41594687,-0.74675655,-4.714117
11.559588,-5.7945423,-0.4515656,0.28230700000000003,-0.52159166,-5.3401318
11.631061,-5.404996400000001,-0.8987546000000001,0.39091885,-0.6227335,-5.7569337
12.442321000000002,-4.919318,-1.5461468,0.6054373000000001,-1.0832037,-6.1301026
13.917667000000002,-4.3210263,-2.1326494,0.578821,-1.4904239,-6.4101057
15.603232,-3.4237275,-2.0217788,0.30255282,-1.5745313,-6.662428
17.42594,-2.6202145,-1.3501766000000002,-0.110514246,-1.2114854,-6.829054400000001
19.748888,-2.7154844,-0.27150247,-0.44586182,-0.3906396,-6.8769464000000005
21.92858,-3.5928636,0.80981475,-0.46078438,0.36472145,-6.6086545
22.218048,-5.716865,0.75571537,-0.3612308,0.95080304,-6.0954924
20.74142,-9.382082,0.5018630000000001,-0.22123794,1.2095132,-5.6185465
19.174882999999998,-12.665384,1.2403688,-0.022689281000000002,1.1110243,-5.2432485
19.194008,-15.509026,2.0714824,0.14870206,0.74319607,-4.9584455
19.979498,-18.033941,2.4070826000000003,0.27007225,0.31627113,-4.6337269999999995
20.709414000000002,-20.062922,2.1864138,0.3419449,0.014433873,-4.2887974
21.041404999999997,-21.494196,2.3654330000000003,0.33503342,-0.11222467,-3.929469
20.184462,-22.172222,2.3823743,0.34355062,-0.25436428,-3.5871751000000005
17.792347,-22.046642000000002,2.9450979999999998,0.40582395,-0.38105774,-3.2736442
14.710435,-21.2153,3.151325,0.50696576,-0.46675340000000004,-3.023975
12.599236999999999,-19.765743,2.5777411,0.5697802,-0.40660936,-2.9047515
11.9941845,-18.492231,1.8351939999999998,0.47183230000000004,-0.12925908,-2.8243616
11.299301,-17.062698,1.4294533999999999,0.37334338,0.29337240000000003,-2.6226015
10.210427000000001,-15.690334,1.2111596000000002,0.5468989000000001,0.5334599,-2.0397138999999997
8.859858500000001,-14.228616,1.3665816000000002,0.7459886,0.47809803,-1.0330778
8.366432000000001,-13.644929000000001,1.5333712,0.67252773,0.060231313,0.22158699999999998
7.3997116,-12.535418,1.621928,0.26422540000000005,-0.47848199999999996,1.6956048
6.679669400000001,-11.553067,1.8813444,-0.26595327,-0.92137676,3.1509650000000002
5.9390754999999995,-10.600731,2.2864914,-0.35112533,-1.3631895,4.364161
5.6486114999999995,-9.908767999999998,2.2922566000000004,-0.0104370685,-1.608059,5.0268974
5.4533305,-9.585129,1.9346396000000001,0.24506168,-1.4041872,5.318070400000001
4.2498135999999995,-9.572535499999999,1.0212706,0.25251424,-0.9272235999999999,5.668882
1.5038748,-10.007189,0.6514526999999999,0.26529005,-0.37466982,6.299679
-2.4112675,-10.742056,0.29668948,0.47822022,-0.12447688,6.865549000000001
-5.5155606,-11.513698,-1.8278868000000001,0.9094038000000001,-0.26820475,7.16524
-7.324342,-12.048053999999999,-4.126176999999999,1.3209001,-0.6397679000000001,7.1077485000000005
-7.353082000000001,-12.481997999999999,-5.665543,1.4364233999999998,-0.9485165999999999,6.809664
-4.5255775,-12.6730175,-4.9872464999999995,1.1537323999999998,-0.8931548,6.592458000000001
0.57310486,-12.886407,-2.706061,0.6549696999999999,-0.47687632,6.442883
6.489953,-13.221642999999998,-1.5503126,0.12103858599999999,0.012845623,6.096348
10.00103,-14.325917,-1.7938603,-0.2696708,0.34608135,5.5320654000000005
11.350517,-16.262032,-1.9980571,-0.30906290000000003,0.47225118,4.9209733
12.693205,-18.44175,-1.6417136000000003,-0.064734265,0.5957507,4.33648
15.232419,-19.870878,-1.3909832,0.218969,0.82091564,3.87121
17.807573,-20.019913,-1.9502879000000002,0.26103145,1.2451702,3.5140285
19.37184,-18.88504,-3.092964,0.109851025,1.6433669999999998,3.2164497000000005
19.28473,-17.430813,-4.461469999999999,-0.027995082,1.8307456999999998,2.9130418
18.224777,-16.618853,-4.9599338,-0.024818582000000002,1.6784831000000002,2.6362152
17.755447,-15.6629925,-4.430011,0.22483331,1.1589508999999998,2.3966687
17.981087,-14.531635000000001,-3.4464724,0.5868146,0.5361128000000001,2.1528637
18.166656,-13.741654,-2.0872936,0.9030159,0.014974925,1.9457978
17.754335,-13.121748,-0.41803720000000005,1.0377029,-0.37147588,1.7200918
17.134995,-12.661477,0.64380085,0.9716771000000001,-0.6110223000000001,1.3777978000000002
16.098804,-11.972091,0.6332376000000001,0.75661767,-0.7127051999999999,0.91999793
15.168867,-11.127071,-0.27944165,0.40210640000000003,-0.6434854,0.32272884
14.431884,-10.009871,-1.0423492,0.049706977,-0.3948982,-0.5385562
13.577307999999999,-8.8400345,-1.2860885,-0.16533504,-0.11541862,-1.6638921000000002
12.813728999999999,-7.9844713,-1.1923603999999999,-0.21964969,0.018692477,-2.8893054
12.435062,-7.251874000000001,-0.9242097,-0.22017328,-0.10157816,-3.8895361000000004
12.4652195,-6.727726,-1.2372851,-0.22495548,-0.43961352,-4.548555
12.500989,-6.1359367,-1.8553721999999997,-0.22708479,-0.90538955,-4.9791975
13.269318,-5.6442347,-2.7981324,-0.25902432,-1.4068401000000001,-5.3454546999999994
14.707466,-5.009924400000001,-3.569525,-0.40327579999999996,-1.7725563999999998,-5.74894
15.909317000000001,-4.200761,-3.8218644,-0.69926614,-1.7336879,-6.103486
17.168266,-3.1577318,-3.656444,-0.9654289,-1.1955156,-6.393071
18.568998,-2.514151,-2.9792776,-1.0506008999999998,-0.4513247,-6.606525
19.466028,-2.9106312,-2.1848528,-0.90048516,0.4456349,-6.677333
19.300179,-4.8992260000000005,-1.8166436999999998,-0.5667084,1.1408519,-6.4920835
18.377317,-8.242834,-1.8825798999999999,-0.30321604,1.4788698,-6.116785500000001
17.392813,-11.589985,-1.6060305000000001,-0.19781561,1.5480721000000002,-5.7883496
17.595104,-14.682787,-1.0379918,-0.14458308,1.3404652,-5.4684134
18.732521,-17.62141,-0.36887947,-0.12754866,0.91354024,-5.1501
19.617332,-19.845692,0.38700834,-0.10464994,0.42593014,-4.8242993
19.534647,-21.12792,1.1230052,-0.057281705999999995,0.2385516,-4.534714
18.417568,-21.542414,2.0471861000000002,-0.055676002,0.23322834,-4.2201014
17.411095,-21.59972,2.5088074000000002,-0.15575318,0.5142962000000001,-3.9097642999999995
15.3843355,-21.480223000000002,2.603091,-0.28246409999999994,0.9114109,-3.4881627999999996
13.333222,-21.054686,1.9365644,-0.22602014,1.1078477,-2.850437
12.688168,-20.437288,0.5004456,-0.042376593,0.97635466,-2.1163688
12.063118,-19.54928,-0.5696572,0.0821701,0.7389375,-1.3822833
11.176152,-18.391539,-1.1683416000000002,0.16680111,0.48022735,-0.68441343
10.020892,-17.033663,-1.2590723999999998,0.23122121,0.22045253,0.05391322
8.911304,-15.646251999999999,-0.665387,0.0842994,-0.098401666,0.983877
7.468520599999999,-14.388998999999998,-0.16255672,-0.18397516,-0.51946235,2.0139353
5.8273435,-12.938353,-0.09080728,-0.4469439,-0.8393811999999999,3.064746
3.9899275000000003,-11.866266,-0.41065347,-0.5943893,-1.0709514999999998,4.0868106
1.5730671999999999,-11.010647,-0.5722621,-0.40435788,-1.2993103000000001,5.0471260000000004
-0.90521896,-10.187338,-0.61080873,-0.023753932000000002,-1.4425146999999998,5.7391486
-2.2348244,-9.398783,-0.95748913,0.26155505,-1.3844999,6.0489445
-3.203193,-9.186293,-1.785816,0.35580283,-1.2093561000000002,6.086766000000001
-3.7087717000000002,-9.115712,-2.3490757999999996,0.289777,-0.9469109,6.110171
-4.14058,-9.651869999999999,-3.0901002999999996,0.20566959999999998,-0.7116231,6.320448000000001
-4.534474400000001,-10.348669000000001,-4.283198400000001,0.31426397,-0.68607146,6.664330499999999
-3.555083,-11.27171,-4.495199700000001,0.6033254,-0.7739139,6.8325453
-1.4517194,-12.723477,-4.004733600000001,0.9200503000000001,-0.7616616999999999,6.702116499999999
0.9642408000000001,-14.250672,-2.7488022,1.0824183,-0.5726949,6.206007
3.8240955000000003,-15.735641500000002,-1.3653749,1.0036341,-0.26607543,5.5054492999999995
7.4516945,-17.142733,-0.9563208000000001,0.62727135,0.12889257,4.9209557
10.728954,-18.224377,-1.3066882,0.028955012999999998,0.55794686,4.354579
12.854737,-19.168879,-1.7828183000000002,-0.38784707,0.9114109,3.7972254999999997
13.90582,-20.595604,-1.9926462,-0.38465312,1.1823733,3.313333
14.257845000000001,-22.078936,-1.6038088,-0.15521213,1.4117968,2.9742506
15.039570000000001,-22.39043,-0.7823389000000001,0.0065798913,1.6976643,2.7017
16.12469,-21.375748,-0.19855593,0.072064646,1.9286935,2.4834464
17.37612,-19.264732000000002,-0.22848345,0.14126694,1.9600921000000002,2.3040613999999997
18.135206,-16.687374,-0.6353158,0.28286552,1.7413150000000002,2.149146
17.844646,-14.490770999999999,-1.2680267,0.50003684,1.3196958,1.9628322
17.02968,-13.194982000000001,-1.7618833999999999,0.8274256999999999,0.7644890999999999,1.7610721999999999
16.474838000000002,-12.501688,-1.3322296,1.1814308,0.10547025,1.5673231
15.958973,-12.193238000000001,0.43103293,1.3278116000000002,-0.5455376000000001,1.3554401000000003
15.205354999999999,-11.852457000000001,2.0791056,1.1585321000000002,-1.0448761999999998,1.0392388000000001
14.5087185,-11.369183,2.4751928,0.78005743,-1.2961163999999998,0.5814564
13.553173999999999,-10.649179,1.6355367,0.26902506,-1.2625886,-0.11482521
12.812628,-9.962742,0.7665276,-0.21804398,-1.0581757,-1.1065388
12.215811,-9.008873,0.045154642,-0.6124884,-0.7659203,-2.3292816000000003
11.748281,-8.027203,-0.47531608,-0.82381284,-0.51572734,-3.5413952000000006
11.671503999999999,-7.0241666,-0.93765557,-0.87545717,-0.46994734,-4.464971
11.667271000000001,-6.2877197,-1.3221931,-0.7849618,-0.7243989000000001,-5.0574580000000005
12.131113000000001,-5.902464,-2.1794226,-0.68382,-1.2008389,-5.4492497
12.975003,-5.314898,-3.5217843,-0.7290589,-1.6075355,-5.789397
14.473447,-4.9208407,-4.497048400000001,-1.0053444999999999,-1.6128588,-6.0891047
16.189035,-4.239298000000001,-4.627561,-1.2768306,-1.0874448,-6.358985
18.017210000000002,-3.5994716,-4.070094999999999,-1.2991881,-0.2756573,-6.5218763
19.501951000000002,-3.6352599999999997,-3.0345645,-1.0255729,0.5755223,-6.546363400000001
20.103403,-4.8153239999999995,-1.9007664,-0.54593897,1.3085432,-6.389336
19.464466,-7.665937,-0.8513877000000001,-0.11955505599999999,1.6774360000000001,-6.0917580000000005
18.443148,-11.459263,-0.06606081,0.18971729999999998,1.7860303,-5.752675
17.971846,-15.394908,0.6908038000000001,0.32651618,1.716287,-5.4018809999999995
18.288673,-18.625866000000002,1.2389324,0.35259143,1.444801,-5.043094
18.720979999999997,-20.844524,1.7898764999999999,0.32171655,1.1211472,-4.730087
18.419455,-22.102342999999998,2.2321047999999997,0.33770376,0.7692888000000001,-4.3904457
17.547123000000003,-22.50538,3.1689557999999995,0.45320964,0.46054003,-4.032723000000001
15.899664000000001,-22.380135,3.9849763,0.63261205,0.22312289999999999,-3.6297612
14.129007000000001,-21.997253,4.1393166,0.7566351,0.115052104,-3.2533984
12.578388,-21.490479,3.5783453,0.79548615,0.017627826,-2.8568246
11.438021,-20.719126,2.39718,0.8252964,-0.030246556,-2.4858027000000003
11.071094500000001,-19.868216,1.0875612,0.90036297,-0.023335052999999998,-2.047149
10.213597,-18.720684,0.15134229,0.8657706000000001,0.06181956,-1.355667
9.298246,-17.335917000000002,-0.28208485,0.5671273,0.11985176,-0.44432592
8.231983,-16.010946,-0.24087584,-0.021066124,0.13528048,0.63627726
6.9701433,-14.649996,0.3553666,-0.6529451000000001,-0.021729348,1.8015288
5.7061777000000005,-13.446458999999999,0.96619445,-1.0819994,-0.35442399999999996,2.875238
4.2088730000000005,-12.13978,1.1919676000000001,-1.1746241000000002,-0.92083573,3.860581
2.7983909,-11.125999,0.8950674999999999,-0.80677843,-1.4472969,4.621805999999999
1.4176165,-10.212209,0.16931795,-0.26593579999999994,-1.6352165,5.077477
-0.32407913,-9.875488,-0.32008561,0.12264428,-1.4829538999999998,5.321282
-2.1999936,-9.965625,-1.1402242,0.19078194,-1.1055438999999998,5.5102487
-4.572868,-10.149692,-2.7198994,-0.046094145999999996,-0.6376210999999999,5.801439299999999
-6.0167345999999995,-10.595635000000001,-4.5516267,-0.38304740000000004,-0.22985986,6.132546
-6.5658970000000005,-11.262373,-5.7427707,-0.5539326,-0.007347836,6.361446
-5.4542885000000005,-12.148371000000001,-5.447489,-0.43256239999999996,0.073548175,6.35984
-2.9698347999999997,-13.013885,-3.9868343,-0.083356924,0.092170835,6.1053885999999995
0.22232558,-14.142789000000002,-2.118246,0.37016687,0.036285397000000004,5.759918
4.1065445,-15.148975,-0.36314294,0.59693754,0.07674213,5.482044
7.792676400000001,-16.315641,0.11259452,0.45481536,0.22366394,5.1551967
10.426767,-17.326320000000003,-0.2752853,-0.007225663,0.45786968,4.766058
11.9614315,-18.764355,-1.0504704,-0.48045424,0.7410843,4.332221499999999
13.1511965,-20.635672,-1.5962718,-0.6816906999999999,0.98913044,3.9782162000000003
14.166243,-21.729976999999998,-1.064826,-0.7439640000000001,1.2952263000000002,3.6673381000000003
14.923595,-21.245178,0.22377166,-0.7423758,1.5943931,3.40224
15.828594,-19.96089,1.3660932,-0.6774321,1.7269508999999998,3.2036915
16.193518,-18.323553,1.9791811999999998,-0.5113466,1.5911993,3.0407999
16.066404000000002,-17.158773,1.7929888999999999,-0.18875736,1.1775911000000001,2.8619385
16.010553,-16.355099,0.69391626,0.25731388,0.60533255,2.6686957000000002
16.334948,-15.526513000000001,-0.61360514,0.7113961999999999,0.064489916,2.4435307999999996
16.402925,-14.590725,-0.91731447,0.9637184999999999,-0.37997562,2.1645923
16.08324,-13.81259,-0.076614454,0.8588415999999999,-0.69778264,1.7946172999999999
15.518421,-13.313428,1.1831281999999999,0.6640105,-0.89846057,1.2851907
14.755560999999998,-12.504111,1.7466658,0.5000543,-1.081057,0.5761331999999999
13.980298999999999,-11.608699,1.7377977,0.34302699999999997,-1.1475888,-0.46029568
13.330532,-10.741672,1.3243479,0.16788322,-0.99801415,-1.8331542
13.065599,-9.725181,0.99067277,0.044383723,-0.75153875,-3.18739
13.086496,-8.631461,0.7597951000000001,-0.10464994,-0.66743135,-4.2169075
13.337725,-7.5081014999999995,0.34347218,-0.17437585,-0.9096481,-4.8583684
14.006079999999999,-6.435126,-0.4482616,-0.12061971,-1.4302624,-5.2230024
14.859287,-5.3275585,-1.8264407,-0.15201817,-2.0083678,-5.53868
16.117882,-4.2461457000000005,-2.9289324,-0.35058429999999996,-2.358638,-5.874569
17.651222,-3.3286203999999997,-2.7620757,-0.70457196,-2.3389506,-6.2019577
19.147753,-2.3921044,-2.1201231,-1.0527128000000001,-1.7709506999999998,-6.4989953
20.814098,-2.3119848,-1.5329211999999999,-1.1373613,-0.93359405,-6.7018027
21.600746,-3.3498330000000003,-0.9269774,-0.9063319999999999,0.020315632,-6.8114614
20.290573000000002,-5.7569823,-0.5578873000000001,-0.53209853,0.73467886,-6.7763279999999995
18.66649,-9.563628999999999,-0.59397274,-0.13444272,1.2111188,-6.590014
17.457264000000002,-13.473197,0.032283418,0.09496336400000001,1.3937153,-6.303623
17.466639999999998,-16.838469,0.84547883,0.101874866,1.4261783000000001,-5.9240837
18.474848,-19.656885,1.3700771,-0.05248205,1.3415298,-5.556238
19.21185,-21.674057,2.0502602999999997,-0.21270327,1.1318111000000002,-5.1442184
19.224127,-22.838444,2.5823667,-0.22493804,0.85020226,-4.7236814
18.569592,-23.2954,3.3563356,-0.06365216,0.548365,-4.3063383
17.37184,-23.392471,4.256278,0.14980161,0.41263074,-3.9656498
15.934313000000001,-23.45564,4.354871299999999,0.34622097,0.31735322,-3.529143
14.571648000000001,-23.188046,3.7714326000000002,0.480908,0.19437732,-3.0271513
13.341335,-22.85302,2.3666875,0.56286865,0.14220943,-2.611955
12.629759,-22.262438,0.9483529,0.7444004,0.14008012,-2.1797068
11.553901,-20.796946,-0.270947,1.013757,0.31946507,-1.7064607
10.229888,-19.127125,-0.7588853,1.0962588,0.46266934,-1.0565002000000001
8.739104,-17.501701,-0.373189,0.7566351,0.44511130000000004,-0.02857104
7.439886,-16.007421,0.62370867,0.15510741,0.28113765,1.3996319
6.284482499999999,-14.487679,1.5241871,-0.44479716,-0.13458234,2.9162357000000005
4.9412107,-13.285769,1.7938987000000002,-0.65027475,-0.7595324000000001,4.251308
3.4549095999999997,-12.207842999999999,1.6776936999999998,-0.36868334,-1.3312498,5.2068233
2.2501187000000002,-10.93363,1.2949375,0.13542010000000002,-1.550568,5.635354
1.10049,-10.858911500000001,0.8864867000000001,0.44258058,-1.3514781999999999,5.723196499999999
-0.6813515,-10.379017999999999,0.9443689000000001,0.37390187,-0.9447641999999999,5.844025599999999
-3.0864133999999996,-10.1683855,0.036832396,0.03375467,-0.45291293,6.2470045
-6.179549,-10.463398,-2.37206,-0.3814417,0.0022165682,6.815004300000001
-9.096214,-11.183307000000001,-4.934746700000001,-0.5523269000000001,0.24867451,7.2371125
-10.26988,-12.175464,-6.311058,-0.47834238,0.3029717,7.3462477
-8.066975,-12.884779,-5.685731,-0.20685643,0.23696335,7.1705804
-3.7239032,-13.782029999999999,-3.4962720000000003,0.30363494,0.062360615,6.8261747
1.9799473,-15.072822,-1.6515776999999998,1.0659249,-0.20697859,6.3864737
7.1255083,-16.215708,-1.1150947,1.5849508999999997,-0.42894956,5.8690534
10.444877,-17.562342,-1.8284998,1.5705694,-0.35442399999999996,5.289342400000001
11.648586,-19.713867,-2.779994,1.2038058999999999,0.03947935,4.698461
12.702073,-22.563244,-3.1313956000000003,0.56182146,0.6984982,4.0101733
14.221434,-24.599876000000002,-2.4293294,-0.09559168,1.3670989,3.2984455
16.165123,-24.748537,-0.913522,-0.44160320000000003,1.8972951,2.7783723
17.431849,-23.477312,0.27595568,-0.5070705,2.2220134999999996,2.5776767999999994
17.997206,-21.932276,1.2699995000000002,-0.4309567,2.3098384999999997,2.4887872000000004
18.121828,-20.335736999999998,2.4988856,-0.17064084,2.1235247000000004,2.4626944
18.052519,-18.786228,2.557946,0.19664624,1.7242979999999999,2.3998802
17.908945000000003,-17.430103,1.1537848999999998,0.48411942,1.2457287000000001,2.282245
17.498491,-16.051168,-0.010036494,0.54637533,0.6713409,2.116683
17.475393,-14.40075,-0.5112194999999999,0.33344516,0.073548175,1.8318976000000002
16.948948,-13.014728,-0.53130203,0.06569419,-0.5434083000000001,1.3442875
16.052854999999997,-12.129399000000001,0.23802195,-0.1195376,-1.0395355,0.5878444
13.952019,-11.788167999999999,1.3420746000000001,-0.28562313,-1.222638,-0.5864305999999999
12.481414,-11.416656,1.6645352,-0.4261745,-0.9676629000000001,-2.0737653000000003
11.597014,-10.642342,1.49312,-0.4565083,-0.5066691,-3.3838093000000002
11.314031,-9.627229,1.2500988000000002,-0.40221113,-0.153205,-4.235530000000001
11.72137,-8.516041,0.44850102,-0.17863445,-0.10369001,-4.68216
12.17556,-7.1843386,-0.9579296999999999,0.18226473,-0.42149702,-4.9557753
12.890344,-5.971742,-2.606414,0.42872268,-0.9900206,-5.2741055
14.393585999999999,-4.6361227,-3.6674955000000002,0.40638247,-1.5266045,-5.629158
16.45802,-3.4780376000000004,-3.1688025,0.11147418,-1.7725389,-5.940576999999999
18.544645000000003,-2.2049737,-2.1053363999999997,-0.25846579999999997,-1.6516924,-6.1689362999999995
20.791937,-2.1242125,-1.0018394,-0.27391198,-1.2684355,-6.2807245
21.230785,-3.7191910000000004,0.083117105,0.04066617,-0.8958077,-6.371761
19.347476999999998,-6.9121084,0.8938896000000001,0.40477675,-0.5370204000000001,-6.397312
16.909270000000003,-10.543662,1.2760425,0.7449414000000001,-0.17343336,-6.2338796
15.307405,-13.742987,1.6993563999999999,0.812538,0.09430013599999999,-5.825595
15.395416,-16.41141,1.9408357,0.5942845999999999,0.26679102,-5.377900599999999
16.470057999999998,-18.984919,1.6481971999999998,0.22006856,0.38070866,-4.979721
17.328007,-21.101986,1.4270303999999998,-0.13444272,0.37110937,-4.6874833
17.26409,-22.408646,1.6551499,-0.31808627,0.19811232,-4.466018
16.313064999999998,-23.032497,2.7220926,-0.27762952,-0.002024582,-4.2514997
15.119728,-22.856976,4.6213937000000005,-0.09292133,-0.25221753,-3.9518093999999997
14.177563000000001,-22.660957,5.180391999999999,0.11147418,-0.45928338,-3.6297437999999995
12.643885000000001,-22.233572,4.8823133,0.15884241,-0.4694063,-3.3412235
11.337857000000001,-22.281092,3.697653,-0.014119713999999998,-0.24794148,-3.1027240000000003
10.352594,-21.842772,1.7412071,-0.34896109999999997,0.20929988,-2.872777
9.767145,-20.495163,0.23984155,-0.6678328,0.84807295,-2.6965861
9.245718,-18.63341,-0.43602243,-0.84084725,1.4645232,-2.4421343999999996
8.451349,-16.712706,-0.3021291,-0.8924741,1.6327381,-1.9710177
7.534457000000001,-15.136889000000002,0.61485976,-0.94623023,1.2020781,-1.0325193000000001
6.283343,-13.939378,1.5125129,-1.0553656999999999,0.44404668,0.26527259999999997
5.25059,-12.801414,2.0214436,-1.124568,-0.3134437,1.7520487
4.57983,-11.606496,1.9431723,-1.0521717,-1.0150311,3.341049
3.9343343,-10.579709,1.197915,-0.5746671,-1.5702553,4.778851
3.2167249,-9.731902999999999,0.38708496,0.16418312,-1.9567236000000001,5.813691599999999
2.1933377,-8.781616,-0.24734977,0.7843335,-1.9828162,6.3417587
0.73863995,-8.436361999999999,-0.48400223,0.96106553,-1.6522333999999999,6.5531006
-1.7150433,-8.626767999999998,-1.0817386,0.74920005,-1.0847745,6.764425
-4.6102360000000004,-9.003079,-2.1233313,0.43034583,-0.40605086,7.173792
-7.4681854,-9.652683,-3.6255875,0.39788270000000003,0.061313417,7.594328999999999
-8.203197,-10.495347,-3.9405879999999995,0.68533844,0.19120082,7.760414599999999
-7.1134509999999995,-11.513361,-3.2742720000000003,0.91795594,0.13849187,7.4942517
-4.594932599999999,-12.81485,-1.6770521,0.7667755,0.063442715,6.9209285000000005
-0.72214866,-14.184342000000001,0.16307387,0.32601005,0.07993608,6.3055606
4.2495737,-16.12988,0.7352115,0.028972466000000002,0.13158037,5.780164
8.766378999999999,-17.850958,0.053381122999999996,0.12159709,0.10655235,5.196735400000001
11.793446000000001,-19.602459,-1.2347376,0.37711328,0.15713198,4.574438
13.508776000000001,-21.790443,-1.8273218,0.54213417,0.29021335,3.9287362
14.696941,-23.974664999999998,-1.2649525,0.67467445,0.56115824,3.3154972000000003
16.20345,-24.677305,0.035166036,0.7705105,1.0131112,2.8108527999999997
17.941275,-23.847197,0.5541619000000001,0.6725452,1.5161501,2.4898517000000004
19.170307,-21.606453,-0.23418166,0.572468,1.9127412,2.2423117
18.943346,-19.12066,-1.1686290000000001,0.6171833000000001,2.0585983,2.047498
18.17586,-17.573938000000002,-0.9955091,0.7683638,1.9558508000000001,1.8329623
17.610751999999998,-16.746520999999998,0.63530624,0.89238685,1.6109040000000001,1.6343961
17.583094,-15.874687,2.4571883999999997,0.88921034,0.97158986,1.4848214
17.165947,-14.862685999999998,2.84955,0.68373275,0.29873055,1.3757035
16.679409,-13.766765,2.7583982999999996,0.22006856,-0.2144137,1.0531142
16.090970000000002,-12.73585,2.7969543999999997,-0.10728539,-0.5673541999999999,0.50321335
14.606909,-11.748405,2.0169330000000003,-0.17596409,-0.7542091,-0.13130112
13.09794,-10.577937,1.0187998999999999,-0.12859586,-0.80957097,-0.9659873999999999
11.992212,-9.278681,0.6036166000000001,0.04548328,-0.84149307,-1.9912461
11.525917,-8.231648,0.2556816,0.18493510000000002,-0.9154950000000001,-3.0196989
11.368407000000001,-7.5387187,-0.5479466,0.053459436,-1.0129018,-3.8714193999999997
11.315141,-7.0451684000000006,-1.7494241000000001,-0.22387338,-1.1869809999999998,-4.4479194
11.379372,-6.7437190000000005,-3.2222218999999996,-0.42350414,-1.5622791,-4.878579
11.785093,-5.9033833,-4.269886,-0.5794842,-2.1244147,-5.358754
13.479460999999999,-5.1798363,-4.277203,-0.76845104,-2.5630333,-5.879892
15.088049,-4.9342294,-2.546693,-1.0660121,-2.540152,-6.4792905
16.022688,-4.4642954,-0.9192872,-1.4194763000000001,-1.8901916,-7.142567999999999
17.271857999999998,-4.7545114,-0.003217807,-1.8096794999999999,-0.67169,-7.740902
17.991621,-5.575665,0.6220135999999999,-1.8783581999999999,0.80229294,-8.039545
17.703626999999997,-7.599406699999999,0.05890694,-1.6010079,2.0085423,-7.854278
16.989447,-10.323023,-0.84670466,-1.2677723,2.6830075,-7.4672865999999996
16.177429999999998,-12.940373,-0.67695576,-0.9494416999999999,2.976851,-7.037167500000001
16.586159,-15.476320999999999,0.29512843,-0.64653975,2.8533516,-6.6150246
17.99302,-18.342928,1.3163704,-0.42722170000000004,2.4035277,-6.156701
19.410856,-20.96087,2.3196557,-0.2829528,1.7759249,-5.5381217000000005
20.967717999999998,-22.976828,3.0205822,-0.16266468,1.138199,-4.864739
21.470617,-24.606848,3.1294419999999996,-0.014678219,0.6143908,-4.1982846
20.28385,-25.818832,2.8659935,0.13435544,0.3067067,-3.6808646
17.498511999999998,-26.634009999999996,2.9395146,0.32173398,0.11665781,-3.1778082999999997
14.785832999999998,-26.241102,2.081337,0.44788638,-0.06485643,-2.6630583
13.386785999999999,-24.703047,0.7126197,0.45961499999999994,-0.21230185,-2.1642606
12.199645,-22.681288000000002,-0.30315380000000003,0.46919686,-0.17610373,-1.747441
11.24386,-20.683498,-0.99366075,0.5234766,0.052237704,-1.3279861000000002
9.480225,-18.583506,-1.2403498,0.6081251,0.22312289999999999,-0.7583805
7.3974032,-16.299372,-1.0918709,0.64591146,0.10868165,0.09384635
5.6618657,-14.162085999999999,-0.4193588,0.6384764,-0.32941344,1.2867963
4.5762485999999996,-12.217496,0.37814978,0.611319,-1.0059903000000001,2.6580665
3.8738184,-10.659597999999999,0.93406427,0.49314278,-1.5127641,3.967046
3.122585,-9.469039,1.1203045,0.39730674,-1.8492112,5.180731
2.0863361,-8.686566000000001,0.5342134,0.40264747,-1.9620467000000001,6.239011
1.1063031,-8.054353,0.053706735,0.3760312,-1.6980308000000002,7.0279174
-0.029439105,-7.5280886,0.0022122425,0.21952751,-1.2200027,7.4048038
-1.614506,-7.087393,-0.39168182,-0.08655088,-0.72546357,7.409062400000001
-3.6353176,-7.327282,-1.2562472,-0.37028906,-0.35444146,7.376581699999999
-5.1934547,-8.383105,-2.5039613,-0.48101273,-0.18036233,7.5378675
-6.551101,-9.363052,-3.6891584,-0.29096383,-0.21975441,7.7369747
-5.508426,-10.727135,-4.4398265,0.009250245,-0.24530603,7.676813
-3.110164,-12.149233,-4.738872,0.24027948,-0.22720696,7.179621000000001
-0.20482875,-13.887135500000001,-4.244201,0.35952038,-0.18835594,6.373157
4.036854,-16.504688,-3.6813629,0.49633673,-0.10051351,5.646523999999999
8.554329,-19.297342,-3.246327,0.6682691,0.06661922,4.982723
12.890822,-21.098309,-2.926222,0.74014175,0.24600416,4.430692700000001
15.991563000000001,-22.582932999999997,-2.5663544999999996,0.6895796,0.50899035,3.8770919999999998
17.359293,-24.224619,-1.6611737000000002,0.5421166999999999,0.8805360999999999,3.3697769999999996
17.8029,-25.378902,-0.4381389,0.41221187,1.2675453,2.914089
18.40672,-24.856018,0.80813885,0.34726816,1.6140803999999997,2.5553017000000002
19.13786,-22.646534,1.3451678999999999,0.25411993,1.9819261000000001,2.3242898
19.66243,-19.469784,1.4790038,0.10028662,2.2672524,2.1938615
19.185389,-16.849041,1.6361973,-0.0045727626,2.3822348,2.1172066000000003
17.97105,-15.418295,2.1586792,0.019896753,2.246483,2.1012367999999997
16.992348,-14.802629999999999,2.3867798,0.22111577,1.8137113,2.0474806
16.314291,-14.383434,2.3018334,0.51921797,1.0311929,1.9186578999999997
15.574732999999998,-13.763643,2.2139854,0.77047557,0.013386675,1.6918872999999999
14.696501000000001,-13.230272,2.1784074,0.8098677,-0.80053014,1.3847268
13.794279000000001,-12.315074000000001,2.2828617,0.74173003,-1.3312498,0.9162804
12.465622,-11.576875,2.0490343999999996,0.58522636,-1.5047879,0.1523847
11.333432,-10.734767999999999,1.5173589,0.48940778,-1.5239516000000002,-0.9431236
10.628934,-9.849794000000001,0.9200341999999999,0.4111472,-1.4792364,-2.2723315
10.285480499999998,-9.043589,0.66381633,0.0752586,-1.3104978999999999,-3.5472596
10.272533000000001,-8.454472,0.48631024,-0.43523276,-1.1774166000000001,-4.564524700000001
10.758977999999999,-7.8670497,0.11348516,-0.80147266,-1.1907159999999999,-5.261871
11.51475,-7.2331038,-0.5478890999999999,-0.9452004999999999,-1.4712602,-5.792066999999999
12.588434,-6.6648064,-1.4732097,-0.94626516,-1.8848683000000002,-6.307899
13.822521,-5.9216557,-1.9609661,-1.0772171999999998,-2.0616004,-6.813608
15.380466,-4.830465,-1.7629178,-1.3481622,-1.8108838,-7.277255
17.390936,-4.0761285,-1.2119641,-1.562698,-1.0028138,-7.535441400000001
19.057684,-4.0917196,-0.6163633000000001,-1.5477929,0.18425441,-7.6562705
19.531457999999997,-5.038473000000001,-0.58188677,-1.2193568000000001,1.3697344,-7.480621000000001
18.91679,-7.643440700000001,-1.3524844999999999,-0.75729835,2.1442766,-7.0116334
17.887848,-11.159001,-1.1885967,-0.48687705,2.4982642999999998,-6.409041
17.156715,-14.750073,-0.029056031,-0.36604790000000004,2.5121047,-5.817636
17.605131,-18.247946,1.3462882999999999,-0.33302626,2.2757522999999997,-5.293287
18.552773000000002,-21.11571,2.461814,-0.24040166,1.7008408,-4.820582
19.365002,-23.28594,2.7346093999999996,-0.015236723999999998,1.15841,-4.432525599999999
19.747711,-24.85894,3.2253439999999998,0.33981562,0.5632701,-4.0593567
18.43856,-25.61315,3.7019913,0.66240484,0.050649453,-3.721321
16.709726,-25.450632000000002,4.0615239999999995,0.8987398000000001,-0.21551326,-3.4216306000000003
13.972437,-24.797897,3.8122968999999998,0.921115,-0.18835594,-3.1597266
11.816218,-23.391983,2.5849812,0.7672642,0.15763813,-2.8706827
10.570008,-21.56331,0.834341,0.511748,0.6255435,-2.5443585
9.917205000000001,-19.372118,-0.29790574,0.21790436,1.0311754000000002,-2.0290675
8.713975,-17.093115,-0.6258635,0.0055152406000000005,1.056727,-1.3615313999999998
8.153157,-15.219145999999999,-0.092837565,-0.07325147,0.63193136,-0.42144465
6.8633337,-13.645494,0.8857493000000001,-0.10093239,-0.049951322,0.6751283
5.903795,-12.236842,1.566143,-0.069533914,-0.6562786999999999,1.8489145
5.137181299999999,-11.048034,1.8562532999999999,0.06140068,-1.0619106000000003,2.9593453
4.5521913,-10.195411,1.60921,0.21738076,-1.4068575,4.1016984
3.882399,-9.624049000000001,0.99493444,0.47661450000000005,-1.8050369,5.166348999999999
2.9832997000000003,-9.422122,0.15635096,0.74649477,-1.9445061999999997,5.9435444
1.4634413999999998,-9.19948,-0.7108576999999999,0.86627674,-1.7842675,6.392827
-0.29883468,-9.262209,-1.5710273000000001,0.88704616,-1.3977993,6.674958999999999
-2.3763123,-9.269956,-2.4114304,0.91950923,-0.9485165999999999,6.978385
-3.8759348,-9.607883000000001,-2.8472228,1.0861359,-0.65573764,7.3371897
-4.740098000000001,-9.844066999999999,-3.1403594,1.497091,-0.7132288,7.581517999999999
-4.0326786,-10.157362,-2.606031,2.014494,-0.9682214,7.5591607000000005
-1.9856455000000002,-11.259461,-2.1812709999999997,2.3019671,-1.060846,7.2445474
-0.16601394,-12.616916,-1.9668941000000002,2.0895605,-0.817041,6.724997999999999
2.7660213,-14.027628,-1.6108476999999999,1.4646105,-0.24638812,6.0734315
6.5878663,-15.786686999999999,-1.5520365,0.83966047,0.38121483,5.389926
9.778791,-17.327442,-1.4511545,0.49631926,0.93430966,4.6468167000000005
11.985949,-19.234135000000002,-1.0661572,0.46277404,1.3782516000000002,3.9047379999999996
13.559282999999999,-21.350065,-0.49947837,0.47661450000000005,1.7466207999999999,3.2829992999999993
15.313189499999998,-23.481928,0.050192043,0.46064475,2.0846562,2.688383
17.33694,-24.106125,0.48295838,0.43298128,2.3779762000000004,2.2412294999999998
18.776423,-23.067644,0.18359697,0.40315359999999995,2.5499085999999997,1.9484506999999998
19.319054,-20.591763,-0.65645176,0.39304814,2.4594132999999996,1.7663953000000001
18.899723,-17.813894,-1.5549766,0.39304814,2.1474705000000003,1.6439605
18.454565,-15.381204,-1.5068531,0.41647047,1.6689013,1.591269
17.949589000000003,-13.742775,-0.1903103,0.50855404,1.0551388000000002,1.5816697
17.27655,-12.826611,1.6190166000000001,0.6986029,0.40357247,1.5561355
16.57002,-12.240212,2.6654456000000004,0.87957615,-0.37521088,1.4331597
15.762629,-11.570573,2.5927482000000004,0.90195125,-1.1044966999999999,1.1659323
14.783648999999999,-11.004814,2.2626066000000002,0.7305425,-1.5921068,0.7560416999999999
13.506563,-10.5806,1.6728001000000001,0.39570105,-1.7470047,0.19442968
12.232474,-9.836530999999999,1.0286161,0.04330162,-1.7730974,-0.6348984000000001
11.162573,-8.936405,0.2537279,-0.16959365,-1.7352936,-1.6234355
10.448296000000001,-8.288688,-0.37618655,-0.46291366,-1.5947597,-2.7306724
10.059105,-7.951776,-1.0276104,-1.0367604,-1.2881403,-3.811293
9.952409,-7.591937,-1.3499371,-1.6372236,-0.99003804,-4.7423387
10.311224000000001,-7.2199735999999985,-1.6714592000000001,-2.0620368,-0.85536844,-5.544021
11.227082000000001,-6.929289,-2.3955903,-2.2914603,-0.87559676,-6.219533
12.387245,-6.7801203999999995,-3.0067534,-2.47458,-0.92083573,-6.661904300000001
13.644862,-6.4290066,-3.3002825,-2.632672,-0.8511098,-6.940825500000001
15.054682999999999,-5.9400525,-3.1721928,-2.681105,-0.52585024,-7.184107000000001
16.461868,-5.820764,-2.2740703,-2.5469763,-0.0063006384,-7.3395456999999995
17.252474,-5.904033999999999,-1.4100507,-2.1652904,0.64205426,-7.3070827000000005
17.62236,-6.7510357,-1.4815416000000001,-1.6303121,1.2350647,-7.006850999999999
17.70492,-9.129655999999999,-1.7514831000000002,-1.0809521999999998,1.6444143,-6.5362754
17.79251,-12.332964,-1.0624797,-0.63753384,1.8802432,-5.949112
18.412973,-16.020954,0.023597252000000003,-0.39796996,1.8988658,-5.3742003
18.96724,-19.761904,1.0130442,-0.27661723,1.7503558000000001,-4.808871
18.760237,-22.555803,1.7503721999999997,-0.19196877,1.4751348,-4.3004913
18.367462,-23.77358,2.4817432999999998,-0.008307766999999999,1.1211472,-3.8006462999999995
17.567293,-23.895178,2.9806087000000003,0.27967155,0.77726495,-3.3832858
16.33468,-23.645615,3.437614,0.64856434,0.50152034,-3.0245159
14.441087,-23.04919,3.7187986000000004,0.9285674999999999,0.3881263,-2.7157671000000003
12.355364,-21.917788,3.4396633999999997,0.9988345,0.5281366,-2.3883784
11.088582,-20.6294,2.5245516,0.8886344,0.83527964,-2.049296
9.830793,-18.790882,1.3817511999999998,0.6395061,1.2845623,-1.5840433999999999
8.64799,-16.769985000000002,0.36098817,0.30787608,1.5986518,-0.92661273
7.656255000000001,-14.742335,-0.051532798,-0.11903145,1.5895934999999999,-0.089273594
6.709444,-13.102422,0.08033983,-0.63910466,1.2228299999999999,0.71877897
5.7637725,-11.646786,0.75042903,-1.1368376,0.48555058,1.6439605
4.978378299999999,-10.401188000000001,1.4664485,-1.4354635,-0.52637386,2.5915172
4.320901999999999,-9.446007,1.7113754,-1.1911348,-1.7044188000000002,3.5566144
3.4957068,-8.854706,1.3094655000000002,-0.40755183,-2.831884,4.431216200000001
2.4877287999999997,-8.818036,0.36082536,0.47183230000000004,-3.4829266000000003,5.133886
1.2142433000000001,-8.731816,-0.58784354,1.0643017,-3.4201124,5.685375
0.06824432,-8.898442999999999,-1.5123597,1.2027239,-2.7312658,6.248051599999999
-1.0319393,-8.917875,-2.3919318,1.1276572,-1.8257889999999999,6.846385499999999
-1.666192,-9.118345,-3.6730022000000004,1.1739781999999999,-1.0560464,7.3622003
-1.9010918999999997,-9.516961,-4.811886,1.4443996000000001,-0.5503372,7.610264
-1.6112785,-10.3174,-4.904723000000001,1.7675123,-0.23094197,7.4724
-0.54481494,-11.153791,-3.6817746,1.8857061000000002,0.06607816,7.0018244
1.2020233,-11.886177,-1.4048697,1.6339073999999998,0.39611992,6.3609047
3.9619824999999995,-13.060628999999999,0.24689008,1.1058406,0.72883207,5.7119913
6.741229,-14.40823,0.2997732,0.6799803000000001,0.9987123,5.132821599999999
9.032805,-16.122736,-0.6172826,0.4798259,1.1898258999999998,4.596778400000001
10.9809675,-18.507236,-1.5809010000000001,0.27913052,1.4006268,4.033577999999999
13.114078,-21.005451,-1.5825961000000002,-0.034924038,1.5603243,3.3420959999999997
15.6129055,-22.664759,-0.84636945,-0.27234116,1.6683776000000001,2.5212328
18.014816,-22.741354,-0.06666415,-0.26436502,1.755138,1.8387916000000002
19.857203,-21.089373000000002,-0.01418325,-0.22708479,1.9473162,1.4454118999999999
20.279512,-18.500992,-0.5702414000000001,-0.24144885,2.2188022000000003,1.3059427
19.56464,-15.799528,-1.3272017,-0.23931955,2.4626071,1.2580333000000001
18.25825,-13.791789000000001,-1.3570718000000002,-0.1781283,2.5365917999999996,1.2894318
17.255682,-12.516455,-0.17259322,0.02469641,2.3220732,1.3889854
16.512943,-11.4326105,0.82781917,0.37016687,1.7184162,1.4363711000000001
15.998382000000001,-10.062045,0.9692494,0.8173201999999999,0.6213023,1.4102784
15.580029000000001,-8.887449,1.1205821000000002,1.1713079,-0.5695009,1.3597162
14.896196,-8.1539135,1.8182142,1.3757384,-1.7267763999999999,1.1941543
13.402826999999998,-8.102725999999999,2.4719846000000003,1.4752744,-2.5486867,0.7299665
11.289933999999999,-8.38344,2.1722784,1.4438585,-2.8664763,-0.056793015
10.047029,-8.338507,1.8484098999999998,1.0036167,-2.557204,-1.1619006
9.497961,-8.433355,1.4784674999999998,0.08749335,-1.833765,-2.6039615
9.087133999999999,-8.325778999999999,1.3468726,-0.97979295,-1.0789276,-4.045516
8.963996,-8.11936,1.1324861000000002,-1.6909797,-0.6589316,-5.210244
9.52921,-7.7727756999999995,0.79153264,-1.9763061000000002,-0.56470126,-6.0182967000000005
10.450489,-7.761580499999999,0.014508861999999999,-2.0029223000000003,-0.74197435,-6.5224175
11.243516,-7.5349645999999995,-0.7570945,-2.0013342,-1.0278244,-6.9003687000000005
12.728927,-6.657661999999999,-1.5504276000000001,-1.965136,-1.1609056999999998,-7.232016000000001
15.076173,-5.865718,-1.4218494,-1.9236146,-1.013984,-7.4891205
17.13599,-4.8597126,-1.6478523999999997,-1.7910568999999998,-0.5540548000000001,-7.59665
18.552698,-3.9667995000000005,-2.6146022999999996,-1.4274698000000001,0.019233529,-7.3927608
19.480452,-4.684131,-3.6614432,-1.0026916,0.54091245,-6.8492656
19.27342,-7.810920200000001,-3.2967489000000003,-0.71788883,1.0008416,-6.124238
19.029383,-12.564149,-1.7356334,-0.595454,1.363364,-5.37633
18.839111,-17.417759,-0.14197616,-0.5837428000000001,1.5166737,-4.744974
18.673786,-20.919586,1.0376756999999999,-0.59705967,1.4479950000000001,-4.126953
18.728327,-22.904936,1.7452198,-0.5560619000000001,1.198343,-3.6372137
18.476658,-23.694101,2.3237739,-0.37985346,0.7825882,-3.1549270000000003
17.374895000000002,-23.916935000000002,2.5235462,-0.07644542,0.30775392,-2.7503595
15.511095000000001,-23.539112,2.8300805,0.22910938,-0.050474923,-2.4426582000000003
12.761593,-22.522774,3.10776,0.29937634,-0.1564164,-2.215905
10.286994,-20.80611,2.3832936,0.10828023,0.011798426,-1.9263023999999997
8.544532,-18.735948999999998,1.2165034,-0.14084807,0.31520647,-1.4791665
7.389924000000001,-16.519053,0.14382447,-0.37507126,0.52228975,-0.8568694
6.5612235,-14.184314,-0.628363,-0.5975833,0.5834984999999999,-0.18668042
5.6796690000000005,-12.324143,-0.8529200000000001,-0.91219634,0.4291241,0.6517234000000001
4.8446865,-10.783944,-0.4815793,-1.1762123,0.0016755160999999998,1.61895
4.253682599999999,-9.509635000000001,0.16368678,-1.265643,-0.61048126,2.6516612
3.9967942,-8.517124,0.7639323,-1.2049578,-1.1534532,3.6045237
3.7466767,-7.7206396999999996,0.6499587,-0.69924873,-1.7544398,4.58135
3.3810724999999997,-7.510151,-0.17081192,0.24827309,-2.2244917999999996,5.378773000000001
2.4001200000000003,-7.901468799999999,-1.0499916,1.0840239999999999,-2.349056,5.9297385
0.98469687,-8.424382000000001,-1.4545350000000001,1.4140656999999999,-2.1164212000000004,6.2523102999999995
-0.384911,-9.010185,-2.0663111,1.2335987,-1.6538391,6.631326
-1.2787431,-9.868995,-2.936115,0.84447753,-0.9884323,7.060921700000001
-1.970495,-10.74376,-3.7237308,0.5825735,-0.37465240000000005,7.3547649999999996
-1.9833663000000001,-11.540235000000001,-3.5327212999999995,0.48942524,0.14859733,7.401086299999999
-0.64260375,-12.459569,-2.7631388,0.39039525,0.52707195,7.003412700000001
0.5251920999999999,-13.064488,-1.6754049,0.25998425,0.76503015,6.2831855
2.686055,-13.604946,0.19634369,0.24240878,0.8725599,5.487891
5.890129,-15.025962,0.85579306,0.34409165,0.91088736,4.783092
9.413387,-16.915589999999998,-0.32763213,0.38615409999999994,0.9417622,4.1869054
12.35137,-18.965754999999998,-2.0649797999999997,0.2637018,0.9529323000000001,3.6109116
14.168272,-21.114964,-2.9318917,-0.0024260078,0.9912771999999999,2.8885548
15.885345999999998,-22.43522,-2.482538,-0.35749578,1.1200999,2.0208645
17.140089,-21.97675,-1.0883945,-0.83287114,1.6013222,1.1904367
17.658820000000002,-20.100262,-0.101676956,-1.2858713,2.38117,0.86039495
17.991516,-16.981804,0.2543217,-1.6984322,3.2898582999999997,0.9759008
17.207693,-14.196264999999999,0.73784506,-1.8102206000000003,3.8322892,1.2873199
16.077065,-12.237876,1.4181814,-1.5994023000000002,3.9371660000000004,1.6354607
14.919573000000002,-11.253342,1.7909968999999997,-1.1639774999999999,3.4937303,1.8329623
14.136420000000001,-10.702809,1.5598223999999998,-0.5108055,2.5110576,1.8984294999999998
13.809401500000002,-10.050676,1.2748836000000001,0.12849113,1.134464,1.8851126
14.086352,-9.158827,0.97022635,0.77366954,-0.57321846,1.7286264999999998
13.945804,-8.515350999999999,0.96009403,1.4018135,-2.1105742000000003,1.3581105
12.473963000000001,-8.873428,1.0316040000000002,1.8963525,-3.0623722,0.58732074
10.055273,-9.694114,1.3476865,1.9671606,-3.0794064999999997,-0.5103168
7.970441,-10.121402,1.7347715,1.416195,-2.3501208,-1.976341
7.0121574,-9.867644,2.41438,0.4665265,-1.3573251,-3.4982681
7.255053500000001,-9.163032000000001,2.734322,-0.30852184,-0.56789523,-4.710364299999999
8.371393,-8.495949000000001,2.478353,-0.6002187,-0.2745752,-5.3715124
9.473751,-7.886317999999999,1.9655917,-0.4655491,-0.5034751000000001,-5.6680093000000005
10.815921000000001,-7.5972905,1.0751498,-0.18769270000000002,-1.1928451999999998,-5.861793
12.912198,-7.144537,0.5295208,0.034278266,-2.0120854,-6.046501
15.32019,-6.093138,0.5524573,0.12424999,-2.6152189,-6.1673480000000005
18.011618,-4.9273148,0.41330624,0.11946779,-2.7530822999999995,-6.1502957
20.07134,-3.8129672999999995,-0.44207498,0.10028662,-2.4640383999999997,-5.968799
20.437535999999998,-3.5631180000000002,-1.9979708999999999,0.09763372,-1.9215901000000002,-5.710071599999999
19.66081,-5.6368413,-2.663626,0.13648474,-1.2545950000000001,-5.3635364
18.089947,-9.678771000000001,-1.7930943,0.1444609,-0.52424455,-4.978656299999999
16.264704000000002,-14.036525,-0.25015578,0.04066617,0.13688618,-4.603899500000001
15.333224,-17.232756,0.89569956,-0.12911946,0.64420104,-4.276528
15.304264000000002,-19.320452,1.689502,-0.32875022,0.9864950000000001,-4.0039773
15.337304000000001,-20.751917000000002,2.2153451,-0.5241049,1.1398046999999998,-3.7660190000000004
14.665557999999999,-21.035695999999998,2.6544225,-0.64866906,1.1014773000000002,-3.51902
13.375476,-20.646973000000003,3.044936,-0.6577273,0.87788314,-3.2730857999999996
11.800991,-19.729229,3.2149246,-0.562956,0.6282313,-3.0899658
10.497425,-18.57865,3.1190702999999997,-0.47300169999999997,0.5079257,-2.9622078
9.243132000000001,-17.372778,2.7225235,-0.521452,0.6378130999999999,-2.8254087
8.390499,-16.271004,1.9170563999999999,-0.7588691999999999,1.0370572,-2.5390177000000005
7.8738875,-15.078682999999998,0.6985418999999999,-1.0612125,1.5614065000000001,-2.0311618
7.3892345,-13.753291,-0.06975746,-1.368373,1.9888549999999998,-1.2555724
6.9423614,-12.46453,-0.7276170999999999,-1.6158956,2.1677162999999995,-0.15365879
6.378699299999999,-11.446102999999999,-1.0404339,-1.7756107,1.9361461,1.0445795
5.7427897,-10.408802,-0.8934203000000002,-1.8751468999999998,1.4080967,2.0277933999999997
5.2355540000000005,-9.537225999999999,-0.515328,-1.9326555,0.5558350000000001,2.9811794999999996
5.0252566,-9.000561,-0.1346116,-1.7292897,-0.576936,3.8717685
4.712344,-8.735914999999999,-0.2654499,-1.0825056,-1.7283471999999998,4.687291
3.8821309999999998,-8.772336,-0.8099871999999999,-0.42880994,-2.540152,5.123274299999999
2.2893453,-9.15605,-1.5311878,0.11786208,-2.9686654,5.419247
0.12641385,-9.723792,-2.1532299999999998,0.42769292,-2.9484369999999998,5.731714
-2.0146058,-10.492579,-2.7876743999999998,0.6411467,-2.5981669999999997,6.120851999999999
-3.6816502,-10.94947,-3.1001081000000004,0.9403136000000001,-2.0424192,6.561076600000001
-3.821299,-11.256119,-3.3792145,1.3390166000000001,-1.4909301000000001,6.864502000000001
-2.7899537,-11.908405,-3.4162480000000004,1.6019853000000002,-0.84735733,6.798494
-1.3595426000000002,-12.652617999999999,-3.0468322999999997,1.468904,-0.1510757,6.3449526
0.74732614,-13.373369,-1.4460787,0.85407686,0.50420815,5.690192
3.7312293,-14.485714999999999,-0.07318596,-0.039671335,1.0540916,4.984328700000001
7.0561914,-15.536261999999999,0.17414466,-0.8882155,1.4368423000000001,4.288588
9.220108999999999,-16.922256,0.008408437,-1.368373,1.6801063000000003,3.6652262
10.765307,-18.855785,-0.24671769,-1.5035836999999999,1.9175234,3.2324545
12.129313,-20.815199,0.051216763,-1.4029653999999998,2.2369187000000004,2.959904
13.241123000000002,-21.759462,0.6828359,-1.0915638,2.6297748,2.7134285
14.434642000000002,-21.260443,0.9343324000000001,-0.6891258000000001,3.007726,2.502104
15.853589999999999,-19.260174,0.36532643,-0.40751693,3.254725,2.3205723999999996
16.508298999999997,-16.61461,-0.723499,-0.2350435,3.3686426,2.1965492
16.156677,-14.329451,-1.6350578000000002,-0.19511035,3.1466715,2.1449049
15.519810000000001,-12.823986,-1.6440504,-0.13336061,2.5371678,2.0948837
14.750715,-12.05832,-0.38030457,0.042289328,1.6662831999999999,1.9548734
13.944482,-11.74015,1.5146295,0.29300588,0.5191133,1.6711526999999997
12.701049000000001,-11.723056,3.037198,0.50113636,-0.62697464,1.2154646999999998
11.870567,-11.342338999999999,4.0710809999999995,0.7252541,-1.6863022,0.57082736
11.658144,-10.899967,4.5400863,0.85248864,-2.229274,-0.15418239
11.516253,-10.304472,3.9226696000000003,0.8130965,-2.4097237999999996,-1.0809521999999998
11.576445,-9.853174000000001,2.5871265,0.6305002,-2.356491,-1.9928343000000002
11.467775999999999,-9.247527,1.187026,0.36381388,-2.2399032,-2.8424258
11.415727,-8.601122,0.10998005,0.0779464,-2.1584659999999998,-3.5344489
11.774185000000001,-7.8072906,-0.41384256,-0.18872245,-2.2015757999999996,-4.1817565000000005
12.7173,-6.73849,-0.63538283,-0.3777067,-2.394295,-4.747086
13.602781,-5.659299,-0.7694198,-0.5682792,-2.673757,-5.2623773
14.988276999999998,-4.9779,-0.79867697,-0.781733,-2.8611357,-5.702078
16.172276999999998,-4.753841,-0.23904668,-1.0399021000000002,-2.7174077000000003,-6.0283847
17.120008,-4.6368694,0.0031220390999999997,-1.325246,-2.2212806,-6.2636724
17.732329999999997,-5.4123707,0.04793192,-1.5142127,-1.3966998,-6.3765254
17.423555,-6.794907000000001,0.09991483,-1.4684328000000002,-0.37411132,-6.369073
16.828844,-8.322569999999999,0.29893044,-1.1501021,0.6351602,-6.2349267
16.328054,-10.212152,0.48407885,-0.69071406,1.4783636,-5.986863
16.114185,-12.396602,1.1059391,-0.25844836,2.0458226,-5.647781
16.20523,-14.895163,1.7719008,0.07209955,2.309856,-5.2996397
16.641023999999998,-17.58791,2.342391,0.3185575,2.2805867,-4.9775743
17.04574,-20.149822,2.9977702999999996,0.46389106,1.9910018,-4.717276
16.900238,-21.62193,3.2992387,0.5357463000000001,1.5246847,-4.492635
16.24577,-22.063297,3.4824717000000005,0.5394638,0.9843656999999999,-4.3143144
15.173597000000001,-21.830732,3.7471360000000002,0.5070007000000001,0.72565556,-4.206243499999999
13.91738,-21.469286,3.9591477,0.4410098,0.8752476999999999,-4.0864614999999995
12.772913,-20.865862,3.9319115,0.29832911,1.4464241000000002,-3.869814
11.74015,-20.325863000000002,3.0878787,0.13065535,2.053275,-3.3635635
10.968653,-19.365826000000002,1.8568759,-0.006126106,1.9398985,-2.2978482000000002
10.271221,-18.11177,0.7447691,-0.3814068,0.9731956,-1.0506008999999998
9.879405,-16.74788,-0.20502986,-0.70666635,-0.12018337,0.28124234
9.218538,-15.517856,-0.98944694,-0.8610406999999999,-0.6791251,1.3533632
8.392567999999999,-14.207978,-1.5291958,-1.0601305,-1.0208780000000002,2.3668932999999996
7.591036999999999,-12.94747,-1.6707984,-1.2975476000000001,-1.2705298999999999,3.3293552
6.149057,-11.7746935,-1.5894148000000001,-1.434364,-1.5265871000000002,4.243348999999999
4.0017357,-11.096368,-1.7380947,-1.199076,-1.7858383999999998,4.963594400000001
0.7840244000000001,-10.888886,-2.6768131,-0.75031704,-1.956706,5.552346
-3.6132428999999995,-10.894824,-4.0987296,-0.46766096,-1.9253076,5.9664779999999995
-7.5515227,-10.903080000000001,-6.5276375,-0.45699700000000004,-1.624535,6.3774505
-9.251472,-10.704946000000001,-8.4441,-0.502777,-1.2992754,6.8171515
-8.586345,-10.701527,-7.201270599999999,-0.3095516,-1.0490999,7.294115
-6.2453995,-10.973842999999999,-5.669546599999999,0.31857494,-1.0490999,7.5219326
-3.4371831,-12.043667999999998,-4.6546726,1.1159983999999998,-1.088492,7.340942
-0.22739169,-13.880384,-3.7555351000000003,1.5924208999999998,-1.0533586000000001,6.756989999999999
2.9551534999999998,-15.580055999999999,-2.2737255000000003,1.5333415000000001,-0.74460983,5.9787300000000005
5.8647504,-16.976421,-0.5839075,1.117063,-0.036599554,5.0327964000000005
9.1357565,-18.458681,0.04643793400000001,0.5059535,0.88270026,4.037348000000001
11.335453,-19.911205,-0.13682383,-0.34362042,1.8893363,3.2356658
12.8813505,-21.561795999999998,-0.3541599,-1.1580783000000001,2.895955,2.7070754
14.333942,-23.52691,0.19799091,-1.5908676000000002,3.6630273,2.2961028
16.104387,-24.791891,1.4406198000000001,-1.622266,4.097422,1.9830953999999998
18.247533999999998,-24.217264,2.4885333,-1.5269885,4.1224327,1.7760296000000002
19.89641,-21.807575,2.3211784,-1.543482,3.8924682,1.6855342
20.232222,-18.496912,0.9210302,-1.6440827,3.4958943999999996,1.6653058999999997
19.709394,-15.315707999999999,-0.19356643,-1.7122378,2.8432459999999997,1.6386896
19.56125,-12.528502,-0.41895658,-1.6808218999999998,2.1522877,1.5944979
18.785595,-10.981619,-0.119422786,-1.3971011999999998,1.3160132,1.5599053999999999
17.153382999999998,-10.680495,0.030425517000000003,-0.8317540999999999,0.40201914,1.5455413999999998
15.696195000000001,-10.689200999999999,1.2281966999999998,-0.15943582,-0.5327268000000001,1.4278888
14.635085,-10.469308,2.6586938,0.41545817,-1.3157862,1.1409566
13.501123999999999,-10.207631,3.3123972000000004,1.0329556,-2.0093975,0.7044498
12.247635,-9.518130000000001,2.7925587000000003,1.5030078000000002,-2.3846784,0.0060562924
11.099260000000001,-8.7003565,1.798189,1.7617179,-2.365532,-1.0415425999999999
10.331325999999999,-7.651667599999999,1.3246733999999998,1.7505304,-2.1025631000000002,-2.1306806000000003
10.086859,-6.653620699999999,1.4124450000000002,1.4029305,-1.7586810000000002,-3.2416522999999997
10.164736999999999,-6.053385,1.9778788,0.9366135,-1.4706843,-4.169487
10.275819,-5.5127163,3.1393442000000005,0.6294529999999999,-1.398288,-4.8444753
10.948694,-4.9831,4.125717,0.5756968000000001,-1.6692504000000001,-5.327303400000001
12.385809,-4.4628496,4.40016,0.6667158000000001,-2.1068217999999996,-5.848441
14.369107999999999,-4.336933599999999,4.5165370000000005,0.75827575,-2.4490982999999997,-6.4036655
16.185377,-3.9685426,4.635203400000001,0.52724653,-2.3793724,-6.971665400000001
18.29786,-3.775637,4.1781306,0.08435176,-1.684679,-7.435312
19.882792000000002,-4.1608257,3.5153682,-0.26270697,-0.5646664,-7.4294477
20.154629,-5.03469,2.3700776,-0.34573227,0.6117554000000001,-6.957284
19.801168,-7.0943165,1.1700462999999999,-0.1945693,1.5624886,-6.3312693
19.126196,-10.163281,1.210288,0.08597492,2.1608224,-5.752081400000001
18.443770999999998,-13.596796,2.1006150000000003,0.34679693,2.2694167999999997,-5.28737
18.851760000000002,-16.737164,3.2536914,0.5826258000000001,2.021353,-4.879608999999999
19.927017000000003,-19.39105,4.1745396,0.7284655,1.5566243,-4.459072
20.753918,-21.749743,4.342526400000001,0.81896085,1.0195166,-4.022565
20.522446,-22.970852,3.5435144999999997,0.9568593000000001,0.5372298000000001,-3.5828643
18.778807,-23.965576000000002,3.1840873,1.0340377,0.11136946,-3.1916137000000004
15.7116995,-24.38569,3.1745389999999998,1.0691538,-0.23994787,-2.8461432
12.958693499999999,-23.392576000000002,3.1665137000000003,1.036167,-0.46139523,-2.5400473999999997
11.390711999999999,-21.810620999999998,2.689359,0.81630796,-0.45446628,-2.2339516
10.560345,-20.011715,1.7392918000000002,0.44368014,-0.12496557,-1.9417137
9.810299,-18.089745999999998,0.869009,0.03911283,0.36315066,-1.5855793
8.693978,-16.252024,0.37582263,-0.15783012,0.6676408,-1.1709065
7.1320205,-14.338041,0.08025364,-0.25258404,0.7671944,-0.55499727
6.0207086,-12.729128,0.14107594,-0.27813566,0.48719120000000005,0.34779176
5.1506844,-11.2595,0.36268327,-0.29197612,-0.14041173,1.5865216999999998
4.5639324,-9.909122,0.1782531,-0.32391566,-0.7115882,2.7858596
3.9620397000000005,-8.8293085,0.059108052,-0.11152654,-1.2955579,3.9378119
3.4159705999999996,-8.143829,-0.39653727,0.32072172,-1.709166,4.859276
2.70268,-7.7084484,-1.0169898000000002,0.58421403,-1.751752,5.386260500000001
1.6542113999999997,-7.598947,-1.2680267,0.48893654,-1.4270334999999998,5.649246700000001
0.30595025,-7.888242999999999,-1.3170216000000001,0.17325884,-0.93462384,5.953196
-0.96949846,-8.567239,-1.2163024,-0.05030039,-0.50611055,6.383856
-2.6731741,-9.318731,-1.6635296000000002,0.06361725,-0.33468434,6.8459144
-4.2068806,-10.081638,-2.1246722,0.50488883,-0.42147955,7.1179237
-4.525702,-11.002832000000001,-2.5237757999999997,0.99464566,-0.56199604,6.9912304999999995
-2.9858282000000003,-11.760175,-2.055719,1.2906187,-0.5747718,6.5637817
-0.19201496,-12.589546,-0.75849265,1.398672,-0.31340876,6.058055400000001
3.7886803,-13.968710999999999,-0.34216017,1.0515958,0.4350233,5.510842299999999
7.483882,-15.099502,-0.7315148,-0.15676548,1.3484937,5.0003333
9.962703999999999,-16.639147,-1.2477717,-1.4444518999999998,2.1123893,4.628247
11.510067,-18.429829,-1.0581126,-1.8899996,2.5212154,4.395612
12.700445,-20.309458,-0.13220783,-1.5636927999999999,2.6260748,4.271589
14.145968,-21.367723,1.1866046000000001,-0.9579065000000001,2.4812822,4.1315783999999995
15.981775,-21.069242000000003,1.7591636999999998,-0.33402112,2.1571047,3.7988836999999998
17.736572,-19.552334,1.4022934,0.21851522,1.8744487,3.4161502999999995
18.260138,-17.8787,0.59857917,0.46338493,1.7711601000000003,3.040835
18.365778,-16.241096,0.27636750000000004,0.52619934,1.6380962,2.6666362
18.114578,-15.046744,-1.5608089,0.61508894,1.3367826,2.3488293
17.062910000000002,-14.398164000000001,-2.8735306,0.8062024999999999,0.7453778,2.029434
16.101648,-14.7028885,-0.8741709000000001,0.89030993,0.07145378,1.7169502
15.325064999999999,-15.031842000000001,2.7357202000000003,0.7412588000000001,-0.72223467,1.21817
14.605406,-14.864305499999999,4.8262410000000004,0.44102725,-1.3072516,0.5910732
14.693292000000001,-13.725508,4.942561,0.18177605,-1.6016363,-0.2441192
15.087339000000002,-12.150412,4.110633999999999,0.073722705,-1.6532631000000002,-1.0942341999999998
14.955572,-10.642054,2.8924925,0.011972958,-1.5798023,-2.0353856
14.740631,-9.243582,1.1755339,-0.16048302,-1.4696021000000001,-2.9770606
14.618382,-8.121802,0.21257639,-0.39044762,-1.5223111,-3.8660614
14.554975,-7.337395,-0.23489992,-0.53204614,-1.7411056,-4.5027227
14.677835,-6.746218700000001,-0.65944934,-0.6459464,-2.0604835,-5.045153599999999
15.173934,-5.721366400000001,-1.6431311000000002,-0.85995865,-2.2707604999999997,-5.501365
15.911529999999999,-4.772908,-2.3133159,-1.2192695,-2.2255042,-5.9570184
16.567455,-4.0783787,-2.0128245,-1.4960963,-1.8885509999999999,-6.393542299999999
17.350693,-4.0639753,-0.672991,-1.61799,-1.2093037,-6.8444133
17.782925,-4.600861,0.39100185,-1.4854497,-0.27347565,-7.168608
17.684618,-5.479705,0.9015989,-1.1239921,0.70544463,-7.1851015
17.33921,-7.081503,0.8201480999999999,-0.63529986,1.5151203000000002,-6.839614
16.904999,-9.590397,1.1622795,-0.18017034,2.0517043999999998,-6.3056827
16.92238,-12.675267,1.9242008000000002,0.13016665,2.303503,-5.7547345000000005
17.609795000000002,-15.781649,2.5680878,0.37821284,2.2593112,-5.351249
18.530518,-18.833788000000002,3.0093389999999998,0.52300537,2.0453165,-5.021731
19.215038,-20.92809,3.3475727999999996,0.5847551,1.6636479,-4.6970124
19.38883,-22.298607,4.207235,0.45167375,1.5076678,-4.415404
18.59384,-22.972843,4.687646,0.27281243,1.540672,-4.0305414
16.6972,-23.404797,4.9479623,0.18233454,1.5502537,-3.492875
14.412702,-23.485672,4.7011395,0.21959732,1.3836447,-2.8519728
12.272861,-22.917835,3.8781185,0.33349752,1.0232516999999999,-2.144521
10.907236,-21.418213,2.522847,0.5118353,0.56918675,-1.5610749
10.057878500000001,-19.321524,1.35802,0.6619510000000001,0.13693853,-1.0063918
10.310112,-17.898525,0.5701648,0.7705454,-0.36610025,-0.40488148
9.164823,-16.397074,0.01340753,0.7162482,-0.77279687,0.28127727
8.089212,-14.958675,-0.30068302,0.45540875,-1.073552,1.1713253000000001
6.429092400000001,-13.591165,-0.7639611,0.23024383,-1.3040576000000001,2.0342336
4.4971440000000005,-12.328913,-0.5880255,0.047106437,-1.5217875,2.9604623
2.4888015,-11.181573,-0.44350192,0.091839224,-1.7948616999999998,3.9516697
1.0141934000000001,-10.059822,-0.40171832,0.3659781,-2.009921,4.8214893
-0.43614694,-8.934002,-0.64281446,0.5799729,-1.9609473000000002,5.296323999999999
-1.0135039000000001,-8.364202,-1.1747582,0.7540346,-1.6825497,5.650835
-2.244813,-8.427982,-1.9905680000000001,0.8679697000000001,-1.2438961000000002,5.9659889999999995
-3.3695513999999998,-8.5978565,-3.0706978,0.97337013,-0.783967,6.267285299999999
-3.9382224000000003,-9.204191999999999,-4.1303806000000005,1.0489603,-0.4848001,6.4706335
-4.133216,-9.757042,-4.6021633,1.0931346000000002,-0.37620570000000003,6.5579350000000005
-2.8915922999999997,-10.816553,-4.253481400000001,1.0851585,-0.3719471,6.464246
-1.1905981,-12.270398,-3.5458605000000003,1.0356435,-0.33042574,6.1687965
0.83478147,-13.520182,-2.3585854,0.9387601999999999,-0.15423475,5.746653599999999
4.181224299999999,-14.64221,-1.5464628,0.6821794,0.29503044,5.276619
7.6112532999999996,-16.148267999999998,-1.2749124,0.6449166000000001,0.31367058,4.729388
9.969781,-17.727242999999998,-0.9683684000000001,0.89458597,0.3525216,4.234343
11.941637,-19.420519,-0.91999596,1.1793888000000001,0.5404412,3.8010303999999997
13.658519,-20.854855999999998,-0.8849448000000001,1.0654712,0.9865299000000001,3.3735642
15.292876999999999,-21.580845,-1.0550002,0.65503955,1.4634935,2.9035296
16.387766,-21.081522,-1.1980202,0.41336378,1.7967292000000001,2.4494474
17.06361,-19.462639000000003,-1.1644918,0.37557740000000006,1.9372631,2.140175
17.233139,-17.225075,-0.8631575999999999,0.2797588,1.8808366,2.0289104
16.851292,-15.288520000000002,-0.44124179999999996,0.18659315,1.654066,2.0299923
16.342707,-13.774799,-0.45344266,0.312763,1.2345935,2.0390332
15.849232999999998,-12.793273,1.0451169,0.65823346,0.6516885,1.9549258000000003
15.7029085,-12.712761,1.8040118000000003,0.9611179,0.10019935,1.8053336
15.329958999999999,-12.389380000000001,1.6586455000000002,1.0100919,-0.40282199999999996,1.5881448999999999
14.750523999999999,-11.450672,0.34473634,0.7631103,-0.7898138000000001,1.2533208999999998
14.235079999999998,-10.468781,-0.11377247,0.40804052,-0.9905093,0.80827945
13.229123000000001,-9.797687,0.43132022,0.02528982,-0.9223716000000001,0.1327672
11.743549,-9.143839999999999,0.46408248,-0.33187437,-0.6035174,-0.7519402
10.411234,-8.541477,-0.27394456,-0.650746,-0.16488126,-1.8426663
9.804323,-8.166047,-0.37112042,-0.9563008,0.14119713,-2.9866424
9.946462,-7.832516,-0.039580945,-1.2373686000000002,0.1662077,-4.148176
10.559771000000001,-7.297182,-0.06351338,-1.3970488,-0.053616515999999996,-5.064841
11.107219,-6.884728,-1.063217,-1.3438163,-0.5135457,-5.606207
11.911978,-6.6276774000000005,-2.4495747000000003,-1.2070173,-1.0932393,-5.895792
13.3804655,-6.714510000000001,-3.2858598,-1.1788128999999998,-1.6990432,-6.116716
15.001195999999998,-6.3307867,-3.1998122,-1.3448983,-1.8731048,-6.305159
16.548004000000002,-5.7810106,-2.4644953999999997,-1.5934856000000002,-1.3562081,-6.4499515999999995
17.704384,-5.5091730000000005,-1.6621698,-1.7558535,-0.5172806999999999,-6.487214
18.195166,-5.3326725999999995,-1.2311752,-1.631813,0.45313984,-6.362108999999999
18.261007,-6.311508,-1.2520527,-1.2416098,1.3495758999999998,-6.0932937
17.884504,-9.343334,-0.8067694000000001,-0.7247305,1.9244874,-5.687661599999999
17.225839999999998,-13.279841000000001,0.14639106,-0.27331856,2.2263246,-5.2942643
16.772139000000003,-17.074347,1.3389333,0.042865288,2.169898,-4.945059
16.517252,-19.811120000000003,2.2387989,0.17062339,1.8717958,-4.642698
16.553242,-21.582426,2.6347616,0.22917919,1.4352715,-4.3403373
16.326569,-22.093845,2.992982,0.32660347,0.9727068999999999,-3.9890025000000002
15.473687,-21.707663,3.124979,0.48684213,0.55215234,-3.6536373999999996
14.042807,-21.189508,3.3704422,0.66142744,0.28865999999999997,-3.3661816
12.454972,-20.378334,3.7152646000000003,0.8008967,0.24020967,-3.1500576000000002
10.914275,-19.281551,3.6088855000000004,0.80995494,0.43664646,-2.9892952
10.451945,-18.480719,2.8427794,0.6795265,0.85344857,-2.8312032000000005
9.874233,-17.52976,1.6186911,0.5054648,1.0807601999999998,-2.4553816000000004
9.58105,-16.260174,0.45530054,0.4176224,0.9737541,-1.8432074
8.959562,-14.905399,-0.29757053,0.36864844,0.56812215,-1.0005275
8.16666,-13.735842000000002,-0.29583713,0.1855285,-0.09459685,0.023649212000000003
7.0184493,-12.466637,0.16858053,-0.12957324,-0.6647261,1.2123406
6.027144,-11.234906,0.75660604,-0.59590775,-1.1012329,2.6027572
5.364094000000001,-10.107026,1.0737324,-0.9019862,-1.3956002,3.8212587999999994
4.7746224,-9.388919,0.96888554,-0.9312728000000001,-1.4823779,4.9088080000000005
4.1341443,-9.129646000000001,0.3817315,-0.60281926,-1.2481374,5.5891204000000005
2.6308925,-9.38756,-0.5740529999999999,-0.31375784,-0.86488044,5.8611298
0.25535598,-9.708353,-1.5086343999999998,-0.30791098,-0.59178877,5.9825
-1.8772168999999999,-9.854285,-2.3831403,-0.51180035,-0.56623715,6.3024187000000005
-3.9418616,-10.055494,-3.6642394,-0.58313197,-0.89043206,6.713374000000001
-4.9479623,-10.129475,-4.8087635,-0.22912683,-1.366331,6.991248
-4.864884,-10.868517,-5.1759386,0.32820916,-1.5893667,6.9534616
-3.2949865,-11.590531,-4.5758843,0.8285776,-1.4520267,6.571252
-0.26787287,-12.371874,-3.2822397000000003,0.9824284,-1.0543883,5.9537544
3.7945127,-13.400185,-1.2980978,0.8429591000000001,-0.6226636999999999,5.346379799999999
8.236083,-14.573659,-0.25321078,0.6454576999999999,-0.27506390000000003,4.863011
11.8024,-15.777281,-0.8623915000000001,0.5491155,0.060283672,4.451532
13.565795999999999,-17.579397,-2.0553169999999996,0.40379938,0.49467868,4.039512
14.4783125,-19.579943,-2.6291493999999997,0.013596115,0.8476017,3.4747062000000004
15.895776000000001,-20.587626,-1.7435821,-0.28661796,0.9189333000000001,2.7784419999999996
17.454325,-20.094343,-0.18262014,-0.18919370000000002,0.8539896,2.1385867999999997
18.687739999999998,-18.448377999999998,0.7866964,-0.022584561,0.89231706,1.7430603999999998
19.380795000000003,-16.229565,0.6114791,-0.091245815,1.0679845,1.5306712
18.916311,-14.088373,-0.23618321,-0.17270033,1.2420461,1.3853376
17.680874,-12.501488,-0.60324305,-0.07847001,1.2921021000000001,1.2645084999999998
16.528631,-11.517344999999999,-0.26093927,0.16849409,1.1196113,1.109593
15.903006,-10.944605000000001,0.38523662,0.48097783,0.7246258000000001,0.9504365
15.407042,-10.017493,0.32271925,0.7247829000000001,0.20614083,0.851424
15.225513000000001,-8.627984,-0.044522575999999994,0.7625867,-0.2841047,0.6864031
14.683515,-7.835868,0.87894976,0.6571688,-0.6173404,0.4314105
13.542294,-7.600086699999999,2.0436714,0.5059884,-0.81110686,-0.039147735
11.828209,-7.391283500000001,1.6518843,0.38674749999999997,-0.9186366,-0.71733034
10.761381,-7.232164999999999,0.88363284,0.21481512,-0.92130697,-1.5344411
10.468455,-7.208011999999999,0.9463896999999999,-0.092327915,-0.76852083,-2.3813796000000003
10.349416,-7.086511,1.0627575,-0.56609756,-0.61894614,-3.2858093
10.442407000000001,-6.8029904000000005,0.93125826,-0.7689048,-0.6817430999999999,-3.9921963
10.553957,-6.8271812999999995,0.37206852,-0.75454074,-1.0389421,-4.6043706
10.803223,-6.624890299999999,-0.35878548,-0.7247130999999999,-1.3684428999999998,-5.0829225
11.726666,-6.459153700000001,-1.280965,-0.8263959000000001,-1.4866191,-5.4693904
12.615509,-5.8351865,-1.4444985000000001,-1.0334618,-1.3567316999999999,-5.778139599999999
14.073491,-5.126704,-1.376168,-1.2719436000000002,-0.8095011999999999,-6.1960235
15.614532999999998,-4.6789309999999995,-1.2548777,-1.2533208999999998,0.14226179,-6.523936
16.178186,-4.6017036,-1.5858043,-0.92432636,1.0924714,-6.449934
16.644817,-5.2984160000000005,-2.223275,-0.65872216,1.7573371,-6.018750700000001
16.981527,-7.284914,-2.2576937999999998,-0.61826545,2.2071607,-5.4864426
17.054865,-9.973526,-1.0793731000000002,-0.5980196,2.3492830000000002,-5.049394599999999
17.617207,-12.956375999999999,-0.28114632,-0.43886304,2.0703619,-4.7017775
17.978855,-15.478677,0.22793758,-0.18334684,1.3953558000000001,-4.420186
18.427347,-17.30957,0.55184436,0.07054621,0.6618114,-4.148159
18.282132999999998,-18.223581,0.8315446,0.2994636,0.084247045,-3.8165288
17.540773,-18.686532999999997,1.3797976,0.46980770000000005,-0.22022565,-3.394386
15.408172,-19.189316,2.2583737,0.61620593,-0.35437164,-2.9679847
12.578063,-18.914892000000002,2.1122892,0.71574205,-0.27398178,-2.6049562
10.613142,-18.078492999999998,0.6137104999999999,0.6380051,0.066147976,-2.3105717
9.866744,-16.781544,-0.93654466,0.37079520000000005,0.61870176,-2.0705016
9.7222595,-15.469607,-1.5411285,0.12964305,1.1073765,-1.7612118000000003
9.3597,-14.168531,-1.5781333,0.16210619,1.3011428999999999,-1.2405975
8.539141,-12.828028,-1.2995822,0.29838148,0.92530376,-0.41390482
7.457699000000001,-11.712435000000001,-0.69390666,0.38837066,-0.07756243,0.76040506
6.3783927,-10.903262,-0.076901756,0.33777356,-0.9809273999999999,1.8292971000000002
5.32798,-10.091857000000001,0.47319004,0.113149695,-1.6213062,2.8183577
4.741668,-9.191877,0.9321202,0.024242622999999998,-1.9636002000000001,3.7738905
4.4618725999999995,-8.52083,0.85129195,0.2350435,-2.0386493000000003,4.5452213
4.1409154,-8.227635000000001,0.13684298,0.41709880000000005,-1.8310423999999998,4.9349008
3.2838967000000006,-8.342739,-0.6583959,0.20575686,-1.2646481,5.190923000000001
1.6179537,-8.840100999999999,-0.7890906,-0.30311134,-0.66418505,5.468815
-0.5372397,-9.667192,-0.8494436,-0.7710341,-0.23513076,5.9292674000000005
-2.8767579,-10.459961,-2.071856,-0.78752744,-0.13931218,6.409966000000001
-3.955518,-10.676062,-3.2912707,-0.25680774,-0.37140608,6.7639537
-2.6532257,-11.013356,-4.006007,0.53368676,-0.600306,6.7719474
-0.52825665,-11.299387,-3.590278,1.2619079,-0.6093643,6.4227419999999995
2.1056142,-11.93703,-2.355655,1.5504283,-0.40334558,5.935655000000001
5.8150949999999995,-12.674089,-1.6714209,1.4125473,-0.054140113,5.510336
9.194730999999999,-13.681312,-2.5521998,1.0484368,0.36957347,5.2750483
11.256636,-14.943966,-3.8203032,0.71733034,0.77679366,5.110551
12.086706,-16.618105,-4.1743193,0.46394342,1.051491,4.910938
12.711477,-18.47232,-3.0774302000000002,0.31169835,1.0977947,4.576096
13.749757,-19.3847,-1.1543212999999999,0.40964620000000007,1.0631846999999999,4.013437000000001
15.065935000000001,-18.822044,0.26430073,0.6374814999999999,1.2207706,3.2569938
16.437696,-17.294353,0.62799907,0.66038024,1.6290554,2.5154731
17.380833,-15.416456,0.07401914,0.3846182,2.1459346000000004,2.0225399
16.9224,-13.738111499999999,-1.0621348999999998,0.15095353,2.456289,1.7537243000000002
15.678756,-12.897134,-1.7722265,0.21642083,2.3067142999999994,1.5737983
14.757734,-12.795629,-1.3742622,0.5256932,1.7078396,1.4108893
14.36024,-12.900523,-0.33039024,0.80995494,0.7491302,1.2544030000000002
14.044186999999999,-12.588819,0.61781895,0.8392241,-0.31232667,1.1016169
14.053495000000002,-11.958875,1.6443473000000002,0.65345126,-1.1837347,0.89985687
14.222353,-11.155294,2.697997,0.48310715,-1.7522581999999998,0.48518407
14.260335000000001,-9.720018,2.7092307,0.41816345,-2.0487547,-0.30264008
13.150785,-8.604033,1.6119012,0.37824777,-2.029591,-1.4183941999999998
11.697208,-8.247114999999999,0.6207590000000001,0.10941469,-1.5537094999999999,-2.6491306
10.801383999999999,-8.162379,0.53065085,-0.37231365,-0.93673563,-3.6701307
10.5652,-7.9869804,0.67303884,-0.80136794,-0.43422046,-4.501623
10.549503999999999,-7.5431337,0.35543358,-0.87591094,-0.2968805,-5.144672
10.95015,-7.244231699999999,-0.72189975,-0.7417475,-0.54068553,-5.754716999999999
11.63673,-7.06573,-1.9089642,-0.6592458000000001,-0.87657416,-6.2694845
12.695369,-6.502326,-1.878232,-0.7449589,-1.1209203,-6.7395363
14.446306,-5.737503500000001,-0.9477974,-0.95628333,-0.9947504,-7.191472
16.339287,-5.276763,0.2112069,-1.1165045,-0.30061552,-7.6285024
17.554937,-5.4076304,0.64330286,-1.0292032,0.6266954,-7.7323146
17.171139,-6.252477,0.31370747,-0.7060729,1.5545299,-7.4278073000000004
16.792901999999998,-8.635742,-0.11807245,-0.32386329999999997,2.1656394,-6.776241000000001
16.10452,-11.950342,0.6990111,0.09079203,2.4195672999999998,-5.979899400000001
16.297464,-15.174000000000001,1.7932857,0.49961796,2.2412294999999998,-5.299046499999999
17.000345000000003,-18.33425,2.3420558,0.8403062,1.753096,-4.8540225
18.03533,-21.106459,2.525337,1.011174,1.0541439,-4.5032287
18.59065,-23.03205,2.6056673999999997,1.0287495,0.35627407,-4.14123
18.527328,-23.77833,3.0105746,0.9835105,-0.18880972,-3.7451800000000004
17.50739,-23.941029999999998,3.5694098,0.902056,-0.45284313,-3.3677699999999997
15.165247,-23.927145,3.9649227,0.8450884,-0.51248103,-3.023364
12.210113,-22.832228,3.612946,0.7711039000000001,-0.31976178,-2.754531
9.840188000000001,-21.205723000000003,2.7616062,0.6188414000000001,0.07040658,-2.5224545
8.30673,-19.021952,2.1044364,0.36173695,0.5484348000000001,-2.2562745
8.065213,-16.796741,1.4247223999999998,0.036494836,1.0392388000000001,-1.8724764999999999
7.762117,-14.633265,0.7525934,-0.18919370000000002,1.2936903999999998,-1.2565671999999999
6.844591599999999,-12.874312,0.1573182,-0.23551473,1.0120815,-0.34363788
5.68484,-11.332369,0.10996089999999999,-0.16791813,0.053895768,0.7524114000000001
4.743325,-10.058214,0.46913904,0.012548917,-1.13689,1.9815595000000001
4.2073307,-9.093685,0.7941184,0.22441444,-1.9790288,3.27244
3.9251980000000004,-8.429457000000001,1.1883190000000001,0.5278399,-2.4799382999999997,4.528728
3.6933529999999997,-7.9986733999999995,1.0011306999999998,1.0628183,-2.781252,5.8041797
3.0099807000000003,-7.7095210000000005,0.39249584,1.6675400000000002,-2.8552365,6.71765
1.9662906999999998,-7.761742999999999,-0.41539398,2.0838183999999997,-2.584274,7.199936999999999
0.44485226,-8.023085,-1.1712434999999999,2.1343806,-1.923126,7.4123434999999995
-1.4783142,-8.32779,-1.4778258,1.8975043999999999,-0.84782857,7.632185000000001
-3.0003848,-8.804905999999999,-2.011723,1.6553050999999999,0.31314698,7.9675503
-3.8285296000000004,-8.983619000000001,-2.3200867,1.5578635,1.1872253000000001,8.244883
-3.3573987,-9.769176,-2.0556328,1.6467880000000001,1.5721053,8.103843
-1.7596041,-11.138612,-1.6329508999999998,1.7830457999999998,1.5353662000000001,7.5805407
0.12327266,-12.735600999999999,-1.0398306000000002,1.7122552,1.2750677,6.88213
2.9800246,-14.704439,-0.3829382,1.3300456,0.95780176,6.0426617
7.1333613,-16.966885,-0.57739526,1.036202,0.95406675,5.2111692000000005
11.145632,-18.917067000000003,-1.2690992,0.789203,1.1435746,4.2987633
13.7784195,-21.227346,-1.7442334,0.29626963,1.5508122,3.4944284
15.513488,-23.471498,-1.5355643,-0.29937634,1.9000177,2.7406557
16.970129999999997,-25.54392,-0.64466274,-0.63156486,2.0554569,1.9953825
18.675213,-26.327045000000002,0.17373285,-0.66987485,2.1534047000000003,1.3470277
20.086164,-24.417046,0.68035555,-0.6496639,2.359947,0.94137824
19.890999,-21.44654,0.42566990000000005,-0.7481354,2.6197217,0.7966032
18.473862,-17.900085,-0.55193055,-0.7534586,2.8369105,0.8705877000000001
17.218573000000003,-15.115889000000001,-0.73822814,-0.57353264,2.8007123,1.0766063999999997
16.910563,-13.251752999999999,0.042999864000000006,-0.22752112,2.4030566,1.2629203000000002
16.114643,-11.726732,0.36137122,0.21589723,1.6290554,1.409842
15.126595000000002,-10.711266,0.10193553,0.644393,0.53724724,1.5242833
14.277285999999998,-9.6100855,0.5416163,0.9552885,-0.73977524,1.5535698999999998
13.439754999999998,-9.050082000000002,1.6705016,1.0942341999999998,-1.9380311000000001,1.409842
12.177609,-8.852953,2.5744755,1.2400739,-2.9164453,1.0569016000000002
10.34388,-8.83427,2.2682092000000003,1.3124702,-3.4966974000000004,0.43727478
8.791902,-8.8293085,1.9730425,1.1868413999999998,-3.6095502,-0.59435445
7.6493883,-8.848825999999999,2.1154113,0.680085,-3.1842136,-1.8841702
7.2316956999999995,-8.775122999999999,2.136212,-0.2679953,-2.2084699,-3.2197833
7.3989066999999995,-8.594992999999999,1.8059846000000002,-1.2953659,-1.1667002,-4.2913632
7.7146254,-8.392509,1.2172216999999999,-2.0970306,-0.3415784,-5.2117276
8.246042,-8.31353,0.32655954,-2.2514224,-0.12334242,-5.896315599999999
9.30203,-8.123958,-0.5688623,-2.078949,-0.40280452,-6.563852000000001
10.81027,-7.6676035,-0.86338747,-1.8793355999999999,-0.8515636000000001,-6.9918413
12.377659,-6.937477,-0.45049298,-1.7185733,-1.2944584,-7.2452283
14.4546,-6.3524394,-0.21101536,-1.6908925,-1.401988,-7.3618164
16.598129999999998,-6.133897,-0.47235686,-1.7105797999999999,-1.0495887,-7.298461
17.708128,-6.731594599999999,-1.2468523999999999,-1.673858,-0.42783254,-7.029103999999999
17.563786999999998,-8.251166,-1.8705418000000003,-1.4566518,0.34189254,-6.647417999999999
17.176251999999998,-11.295011,-1.9391501,-1.1292803,1.103118,-6.240739
16.716832999999998,-14.7642565,-0.32613814,-0.8077733,1.7296561999999998,-5.82926
16.874094,-17.937963,1.3762733,-0.5543689,2.0836613,-5.401252700000001
17.361525,-20.806217,2.287947,-0.34039158,2.0756676,-4.931218
17.603426000000002,-23.183868,2.8214517000000003,-0.13863151,1.8132400000000002,-4.403675
17.32471,-24.369017000000003,3.0735612,0.050858892999999995,1.3394704,-3.870285
16.614794,-24.1929,3.2043517,0.28082347,0.8571835999999999,-3.4156792
15.320610999999998,-23.674221,3.2167826,0.5288871,0.46219808,-3.0270815
13.760539999999999,-22.528662,3.3884275,0.71308917,0.23010421,-2.723115
12.48783,-20.866503,3.4523046,0.7482052,0.23703316,-2.415972
11.505873,-19.30351,2.8998093999999996,0.62524676,0.41270056,-2.091777
10.510335000000001,-17.80291,1.8836334,0.39741147,0.6618289,-1.7223607
9.327341,-16.329596,0.8275988999999999,0.061505403,0.9125454,-1.2485911
8.072224,-14.767512,0.33571497,-0.23710299,0.90935147,-0.59700733
6.4572577,-13.055324,0.09972329,-0.36592573,0.5202303,0.24989624
5.591505000000001,-11.522632000000002,0.25043350000000003,-0.45376816,-0.09459685,1.1420736
4.742387,-10.174572,0.67173636,-0.5554336,-0.6742905,2.1540155
4.0806775,-9.093341,0.92020667,-0.67680377,-1.1443424999999998,3.1702334999999997
3.4939544000000002,-8.24948,0.8304241,-0.66828656,-1.4509621000000001,4.051241
2.4437902,-7.6830506,0.27576417,-0.5218884,-1.6905085,4.8129897
1.3060466,-7.202027,-0.49163494,-0.45429176,-1.6239591,5.307529
0.1943613,-7.188294,-1.2407328000000002,-0.6182479999999999,-1.3562081,5.691868
-1.0177943999999999,-7.516825999999999,-2.1124902000000003,-0.9264556999999999,-1.0666231000000002,6.1709604
-2.3597537999999996,-8.001192,-2.4065077,-1.0968173,-0.8792445,6.932709700000001
-3.1819036,-8.477657,-2.5388498,-0.776881,-0.96973985,7.7615490000000005
-3.3414339999999996,-9.017627000000001,-2.9344485000000002,0.07747517,-1.2651718,8.3385725
-2.2678835,-9.977960000000001,-2.993116,0.9137671,-1.3120163999999999,8.329008
-0.37147477,-11.080959,-2.779601,1.3406922,-1.0511768999999997,7.869078599999999
1.7239113999999998,-11.943571,-2.09575,1.2970589,-0.5028817,7.313872
4.7946763,-13.104558,-1.8185686,1.0894344999999999,0.10075786,6.798039999999999
7.920019,-14.822857999999998,-2.0500686000000004,1.0250318999999999,0.43718752,6.257721
10.184608,-17.256007999999998,-2.4774717999999996,1.0000213,0.6692814,5.517806
11.680333000000001,-20.584139,-2.2937984,0.9387777,0.94928455,4.677238
13.511822,-24.327034,-0.91115654,0.77003926,1.3847268,3.8335109
16.090702,-26.470083000000002,1.0405966999999998,0.55391514,2.0320343999999997,3.0557923
18.858065,-26.49254,2.1259937,0.31278044,2.8172057,2.488857
20.967968,-24.42985,1.6904884999999998,0.008813913,3.4895415,2.1103822999999995
21.043682,-21.216717000000003,0.5769354999999999,-0.25041983,3.8328826,1.8064158
19.34806,-18.686926,-0.036458906,-0.44364524,3.835553,1.6206428999999998
17.858751,-16.91495,0.79556453,-0.5203001,3.4395029999999998,1.5567639
17.36276,-15.632988000000001,1.8509861,-0.39573595,2.6159868,1.5711278999999998
16.84861,-14.200547,2.455273,-0.12904964,1.3176538,1.6360716999999998
16.035797,-12.79696,2.802595,0.16372934,-0.36714745,1.6249015
15.044139000000001,-11.718574,2.9270264999999998,0.5028119000000001,-2.2627497,1.391202
13.753549,-11.092336999999999,3.0443710999999998,0.94891804,-3.950221,0.8642171999999999
12.100583,-10.599169,2.8455852999999998,1.1602426000000001,-4.9307647,-0.06839945
10.96823,-9.960567999999999,2.2736009999999998,0.87598073,-5.041487999999999,-1.1495612
10.394437,-9.313454,1.9017240000000002,0.20525073,-4.39898,-2.1764255
9.747025500000001,-9.146674,1.4725298,-0.5293409,-3.289614,-3.0387928
9.481086999999999,-8.87092,1.4018339,-1.0957351999999998,-2.1184807,-4.0198599999999995
9.346982,-8.355907,1.391261,-1.221905,-1.3939945,-4.9093843
9.776081,-7.745405,1.0688673999999998,-1.0345265,-1.1421958,-5.744594
11.066948,-7.048578,0.8207802,-0.82637846,-1.3705722,-6.431294
13.134284,-6.874682000000001,1.1829176000000001,-0.7550469,-1.8965096000000001,-7.0370803
15.222871,-6.405744,1.9064261999999998,-0.9855524999999999,-2.3064002999999995,-7.4842334
16.891466,-6.353186599999999,1.5534347,-1.4374881000000002,-2.3218465,-7.8345037
17.566574,-7.2780759999999995,0.9494829,-1.7680709,-1.9045032,-7.930322
17.021692,-8.808287,1.3146944,-1.8037279999999998,-1.1102736999999998,-7.667353599999999
16.333933,-10.487561,2.2942486,-1.5785631000000002,-0.17657496,-7.1398277000000006
16.42161,-12.835067,3.4669477999999994,-1.154832,0.8646360999999999,-6.4669685
16.471409,-15.895401999999999,4.671412999999999,-0.6517758000000001,1.6689886000000003,-5.7765336
16.634645000000003,-19.406412,4.997072,-0.23282692,2.1384995,-5.1643596
17.206743,-22.863123,4.5210667,0.058328904,2.2811627,-4.6586504
17.740412,-25.582207,4.056563,0.3015929,2.1571221,-4.193398
17.701714000000003,-26.867003999999998,3.4564133000000004,0.5352925000000001,1.8403973999999999,-3.7409212999999997
16.756329,-27.357459999999996,3.7078235,0.7423583,1.4294246000000002,-3.3086905
15.101254,-27.530437,4.474954599999999,0.9031380999999999,1.0062521999999998,-2.9152932000000003
12.89293,-26.725958000000002,5.246654,0.97551686,0.669805,-2.5756695
10.550299,-25.324742999999998,5.5206847,0.9611528,0.37969637,-2.27755
8.896297,-23.338717000000003,5.2536354,0.8557524,0.15079644,-1.9964821
7.7188296,-21.021637,4.265778,0.65933305,-0.023247786,-1.6946623
6.878532000000001,-18.724543,2.9464387999999997,0.38570032,-0.16006415,-1.2400563999999998
6.0381290000000005,-16.484068,1.9980379000000001,0.022130774,-0.25747097,-0.5895548
4.9839709999999995,-14.503499,1.6154733000000001,-0.46385616,-0.32721433,0.26427776
4.009244,-12.846587,1.4469694,-0.9477661000000001,-0.45284313,1.2730257999999999
3.051324,-11.413399,1.2894499,-1.3177236,-0.5976355999999999,2.2956316
2.2601742999999996,-10.134063000000001,0.9488603999999999,-1.425777,-0.74616313,3.4348080000000003
1.3885604,-9.242279,0.44306140000000005,-1.0568666000000002,-0.9974033000000001,4.577719
0.6896642,-8.690081,-0.2798343,-0.5117654,-1.2220446000000003,5.4358106
-0.33960316,-8.362295,-0.97058064,-0.12157963,-1.2955055,6.1347623
-1.3739748,-8.261835000000001,-1.772418,-0.13861404,-1.1922518,6.6942277
-2.9533913,-8.401714,-2.370116,-0.51124185,-0.90477866,7.3681517
-4.0188017,-8.838215,-3.1380036000000002,-0.7513119,-0.6812020000000001,8.058586
-4.6893405999999995,-9.29567,-3.612745,-0.43565163,-0.59337705,8.791066
-4.2551093,-10.291580999999999,-3.4020745999999997,0.3612308,-0.501276,9.158911999999999
-3.0754478,-11.454559,-2.4693701,1.0292904,-0.24523622,8.856551
-1.6895595,-12.612357000000001,-0.69773746,1.145861,0.08958775,8.18528
0.8244481,-14.094043,0.71008193,0.63856363,0.37491417,7.247846000000001
3.7274752,-16.37655,0.80920184,0.26539478,0.5936912,6.324794
6.9281588,-19.014107,-0.38919187,0.27658233,0.6197838999999999,5.3245629999999995
9.722442,-22.417553,-1.6074382,0.28029987,0.6554409000000001,4.337091
12.2589445,-26.436277,-1.7201381999999998,0.15681784,1.0270040999999999,3.2149662999999995
14.852018,-30.03483,-0.20434034,0.0061610119999999996,1.6679238999999997,2.0768544999999996
17.094255,-31.616152000000003,2.3303149,-0.18704693,2.4706707000000003,1.2128816999999998
19.562044,-30.454332,3.3913292999999998,-0.48727846,3.317068,0.71888363
21.11414,-27.025068,2.4788415,-0.7433357,4.0170846,0.56131536
20.327454,-22.500881,1.1664264,-0.89079857,4.4088764000000005,0.66191614
19.578144,-18.846532999999997,0.090309285,-1.0004401,4.3806543,0.9866521
18.71332,-16.395866,1.7199754,-1.0238625,3.8052192000000002,1.4204886
18.112597,-14.330426999999998,2.9859526,-0.8455421999999999,2.5478492000000004,1.7808641
17.527395000000002,-12.394964,3.2978406000000002,-0.49792498,0.67460465,1.8985168000000001
16.810935999999998,-10.875862,3.4630117,0.03544764,-1.5403752,1.8607304
15.486817000000002,-10.099815,3.5406413,0.7764446,-3.6031449999999996,1.7063560000000002
13.077188,-10.019944,3.0212336,1.6010255,-4.9014606,1.0537425
10.660557,-9.960559,2.234671,1.9869526999999998,-4.8753853,-0.25045475
8.663198,-9.964284,1.8375593000000001,1.3300631,-3.8016937000000004,-2.0837833999999997
7.365550999999999,-9.996319,1.3872674999999999,0.08122762,-2.446393,-3.6663957000000003
6.351951000000001,-9.952802,0.7873475999999999,-1.1601378,-0.9862158000000001,-4.9524764999999995
6.0499849999999995,-9.552760000000001,0.5481477,-1.6823578000000001,0.08372344,-5.834025
6.902072,-8.818524,0.69241273,-1.2697968000000002,0.33019885,-6.478662
8.809925,-8.08201,0.8569709999999999,-0.5117654,-0.31763247,-7.0062055999999995
10.693922,-7.4036474000000005,1.951466,0.07164577,-1.3226454,-7.6055865
13.433119,-6.7383757,3.0400807999999997,0.23027875,-2.0790884,-8.140582
17.530363,-5.730321,3.7745836,-0.06354744,-2.1333857000000003,-8.445613
20.683557999999998,-4.549185,2.5214105,-0.35952038,-1.5717912,-8.431773
21.152542,-4.8789620000000005,-0.051484913,-0.47822022,-0.6322281,-8.094278
20.283964,-7.561128599999999,-1.1099136,-0.33609805,0.3440393,-7.4810224000000005
18.787205,-12.452970500000001,0.097942,-0.053441983,1.1355984,-6.7464304
17.629818,-17.496166,2.5660193,0.1855634,1.6461073,-6.1145515
17.272854000000002,-21.461872,4.882199,0.37507126,1.9010999,-5.494925
17.745468,-24.166286,5.237144,0.5012411,1.8723543000000002,-4.9247955999999995
18.847366,-26.387732,4.701839,0.553409,1.6716589,-4.3983345
18.997989999999998,-27.87865,3.8480759,0.59278363,1.308613,-3.9288235
17.997644,-28.769419,3.5466268,0.6721088000000001,0.81461495,-3.522668
16.485573000000002,-28.908463,3.7559757000000005,0.8307418,0.28283059999999993,-3.1596045
14.259970999999998,-28.005112,4.0119543,1.0596417,-0.19785053,-2.8364916
12.2321005,-26.298640000000002,3.7236636,1.2225333,-0.47785370000000005,-2.5368009999999996
10.695119,-23.895167999999998,2.9657072999999996,1.2358327,-0.54386204,-2.2440221
9.593843,-21.510820000000002,1.9411613,1.1032925,-0.38683477,-1.9528313999999998
8.537599,-19.006197,1.0295163,0.8381943999999999,-0.102573,-1.6132078
7.482608,-16.648951999999998,0.46166912,0.52466345,0.21043435,-1.1820068000000001
6.276112,-14.493835999999998,0.05120719,0.23453735,0.40631264,-0.5799729
5.316095400000001,-12.617223,0.21394587,-0.0044505894,0.3770435,0.17645279
4.613617400000001,-11.323702,0.47853386,-0.1471138,0.16411331,1.0617187
3.8612154000000003,-10.134962,1.0799573999999998,-0.19556414,-0.11641346,2.0294688
3.3075513999999995,-9.1614895,1.443876,-0.17320648,-0.43474406,3.0882728
2.781344,-8.370378,1.2361933999999999,-0.17585938,-0.6865253000000001,4.027295
2.1613417,-7.7067914,0.7996920999999999,-0.36323792,-0.7131415,4.8859444000000005
1.5355643,-7.247679700000001,0.18955374,-0.6432411,-0.66575587,5.5779676
0.7069503,-6.979442999999999,-0.4534235,-0.8375485999999999,-0.543321,6.228469400000001
-0.2590622,-6.8858967,-0.9731185,-0.8119970000000001,-0.38044688,6.9401793000000005
-1.3835135,-6.919846000000001,-1.4350653,-0.46703264,-0.39268163,7.625814999999999
-2.2944686,-7.070547,-1.761079,0.042376593,-0.617323,8.097455
-2.8715672000000003,-7.556253999999999,-1.8834993000000002,0.6502922,-0.86697483,8.210325
-3.0010934,-8.219859,-1.930282,1.0282433000000002,-0.8329059999999999,7.806281599999999
-1.7690566000000003,-9.220741,-1.9077,1.0085385,-0.5577025,6.991823700000001
0.7167281999999999,-10.562405,-2.1812327000000002,0.5651027,-0.11267845,6.235904
3.3017093999999996,-12.743129,-2.4441159,0.016824974,0.16358972,5.5497456
6.1013165,-15.071326999999998,-1.9902519,-0.18437658,0.24928537,4.9743104
8.901814,-18.046104,-1.0083995000000001,-0.051818825,0.3562915,4.4536963
11.461734,-21.081663,0.31644645,0.10040879,0.71720815,3.9389462
14.517625,-23.665602,1.1127867,0.14191271,1.2836024,3.3528472999999996
17.534157,-24.485605,1.5254991000000002,0.21272072,1.8904533,2.8210453999999996
20.248922,-23.491026,1.2600108,0.2616772,2.4797290000000003,2.4574585
21.901756,-20.732982999999997,0.41781694,0.18024015,2.9758560000000003,2.157768
21.65452,-18.075302,-0.445695,0.07911578,3.1776161,1.9490964
20.520357,-16.127304000000002,-1.1981256,0.026947884,2.9401991,1.8905581000000002
18.825254,-15.175331,-0.02474647,0.050893802,2.2790508,1.8617951000000001
17.7572,-14.550004000000001,1.8195359,0.13446017,1.2521864,1.7771641
16.916069,-13.733314000000002,3.2029343,0.1653525,0.119397976,1.5663632
16.421112,-12.657789999999999,3.2868366,0.14351842,-0.83877033,1.2437738999999999
15.904758,-11.464816,3.1180742,0.15364133,-1.4796902,0.81578434
14.732998,-10.499848,2.8835572999999997,0.12702507,-1.760217,0.21638592
13.633723000000002,-9.484467,1.9322834999999998,0.09721484,-1.7857685,-0.6411816
13.007966,-8.770391,0.80703753,0.12754866,-1.669198,-1.6962506000000002
12.290911999999999,-8.350612,0.04645709,0.055152405,-1.4834076999999999,-3.040887
11.640877,-7.9841166,-0.52764374,-0.18863519,-1.3891773,-4.1869926
11.633914,-7.447375,-0.94603527,-0.52932346,-1.3529792,-4.944483
12.066365,-6.8041677,-1.2640523000000001,-0.87639964,-1.351932,-5.479479
13.094406,-6.127193,-1.600859,-1.1574674999999999,-1.3694899999999999,-5.9095974
13.973135999999998,-5.5941863,-1.0810395000000002,-1.3325938,-1.3428738000000002,-6.2199345
15.150557000000001,-4.927516000000001,-0.20943518,-1.3986021,-1.1453723,-6.531877
16.47406,-4.601349400000001,0.3356192,-1.231452,-0.7216413,-6.7533245
17.885378,-4.60291,1.0175741,-0.8636064,-0.15524703,-6.9359210000000004
18.912853,-5.0446596,1.3993056000000001,-0.44947463,0.37013197,-6.959884
19.16751,-6.9119839999999995,1.0424068000000002,-0.010297443,0.82313216,-6.848619500000001
18.545305,-10.100907000000001,0.6487425,0.30855677,1.1691612,-6.6324954
17.734722,-13.836963,0.72196674,0.47570693,1.4102958,-6.3540807
17.65921,-17.058563,1.3878517,0.49326494,1.5188903,-6.027774
17.885176,-19.396166,2.2053854,0.43205625,1.4603343999999998,-5.5955257000000005
17.888145,-20.83599,2.9448872,0.37987092,1.305419,-5.0860987
18.098776,-21.733366,3.760707,0.42458624,1.1159286,-4.533004
17.441309,-22.329887,4.412303400000001,0.5119051,1.0185044,-4.1177726
16.650398000000003,-22.50858,4.412159,0.52946305,1.0632197,-3.8542978999999997
15.686714000000002,-22.511242000000003,4.0141086999999995,0.49645892,1.1771373,-3.6030227999999997
14.917897,-22.265568,3.1572816,0.45121998,1.1606439,-3.2453
14.125914000000002,-21.62375,1.8836143,0.38308233,0.99562305,-2.7156277
13.1223135,-20.549156,0.7267743,0.27075294,0.76937604,-2.0720549
11.547312,-19.149820000000002,-0.12242032,0.1674818,0.5053426,-1.3544803
9.7962885,-17.407618,-0.43770796,0.057281705999999995,0.21575761,-0.5144707000000001
7.974157000000001,-15.621831,-0.2813187,-0.10185742,-0.11798426,0.3957883
6.5373583,-13.934762,0.23829968,-0.28495990000000004,-0.44909066,1.3475861999999998
5.808496,-12.427966,0.20612161,-0.47342056,-0.7759559,2.34197
4.945616200000001,-11.08207,-0.14769351,-0.4451986,-1.1352669,3.3246427000000005
3.477444,-10.250736,-0.6199738,-0.09494591,-1.3854598,4.153465
1.3712933,-9.461866,-0.99548995,0.22230259,-1.4892546,4.7523394
-0.59105176,-8.813507000000001,-1.4187561000000002,0.025359634,-1.3923713,5.218133
-2.0509975,-8.266048,-1.8570769,-0.76194096,-1.3237101,5.8111434
-3.1725087000000003,-8.1218405,-2.0671537,-1.5279485000000002,-1.3295569999999999,6.482397
-4.0583919999999996,-8.061008000000001,-2.4629152000000003,-1.9889423,-1.3247746999999999,7.1398277000000006
-4.2635174000000005,-8.088245,-2.6850110000000003,-2.1486400000000003,-1.0745817,7.456552499999999
-3.863686,-8.52852,-2.7811239,-2.1486400000000003,-0.5997475,7.390021000000001
-2.8199866,-9.141244,-2.5611349999999997,-2.0187526,-0.15524703,7.109476600000001
-0.9627754999999999,-9.918766,-1.5948639,-1.5699935,0.1582839,6.6963919999999995
2.2013439999999997,-11.295919999999999,-1.3415861999999998,-0.72467816,0.23013912,6.174713
5.821194599999999,-12.990699000000001,-2.5320885,-0.0028274334000000004,0.0033684855,5.492813
8.730207,-15.0675535,-4.680578,0.26436502,-0.37084755,4.885421
11.118376,-17.614573,-5.592032,0.2558478,-0.64285713,4.3482957
14.165657999999999,-20.371208,-4.2594857,0.015777776,-0.5140344,3.9027480000000003
17.737242000000002,-22.124512,-1.9209063999999998,-0.44680429,0.04914847,3.4550712
20.516613,-22.241692999999998,-0.39827067,-0.93120295,0.77524036,3.0952191000000004
21.339911999999998,-20.831642000000002,0.8443200000000001,-1.2106825,1.3144947,2.9285927000000003
20.77058,-18.992292000000003,2.050452,-1.2293051000000002,1.5540411,2.8349035
19.93262,-17.230543,3.8470702000000006,-1.0073341999999998,1.471522,2.6368783
19.747358,-15.702823,4.5345225,-0.61447805,1.15745,2.3685862999999996
19.499814999999998,-14.679635999999999,3.197102,-0.18755308,0.7688524,2.1215873
18.872314000000003,-13.7990675,1.7910928,0.15044738,0.33128095,1.8916228
17.88961,-12.792985,1.1679873,0.32878512,-0.10786135,1.582874
17.12966,-11.613669,0.79174334,0.39905208,-0.5134933,1.1021929
16.18601,-10.563352,0.6860729,0.41769218,-0.8408822,0.45753807
14.8625145,-9.902455999999999,1.247111,0.4288623,-0.96012306,-0.37287214
13.346554000000001,-9.279762,1.9636668000000002,0.52202797,-0.88027424,-1.3347753999999998
12.67522,-8.22528,2.4533482,0.7865850000000001,-0.83182395,-2.2780561
12.815884,-6.929835000000001,2.6439743,1.125685,-0.9643816999999999,-3.081344
13.101426,-5.9235706,2.3986452000000003,1.3636257999999999,-1.2853826000000002,-3.7137464999999996
13.147039999999999,-5.061917,1.9185696,1.4802138,-1.7985269,-4.243925
13.749889999999999,-4.51218,1.1902343,1.4690261999999998,-2.3638566,-4.6139
15.014076999999999,-3.8777160000000004,0.5299901,1.2928351999999999,-2.9265332,-5.019532
16.443176,-3.2433195,0.50629705,0.92605424,-3.284797,-5.499689599999999
17.36349,-2.6808642999999996,0.7117579,0.31707397,-3.2070775,-6.015521499999999
18.26614,-2.9456916,1.197915,-0.18383554,-2.6694287999999995,-6.4307356
18.605467,-4.096794999999999,1.8438705000000002,-0.504278,-1.7756456000000003,-6.7219086
17.986221,-5.6717010000000005,2.3622248,-0.6309889,-0.68491954,-6.964125599999999
17.050613000000002,-7.6000295,2.1728146,-0.56231016,0.44573963,-7.013099
16.56958,-9.971409,1.5335915,-0.4324228,1.2484688999999998,-6.834761599999999
16.47975,-12.288853999999999,1.1247576000000001,-0.36267942,1.7579131000000001,-6.5941505000000005
17.117853,-14.494326000000001,1.0584766,-0.37014943,2.0629268,-6.3721795
18.45195,-16.381512,1.264627,-0.36800268,2.0554917,-6.172008
19.682867,-17.93507,1.4768107,-0.31529373,1.8462791,-5.826537
20.292162,-19.359133,1.828356,-0.22001621,1.5593643999999998,-5.367673
20.169176,-20.716778,2.6433327,-0.066706486,1.2756261999999998,-4.8215069999999995
19.636189,-21.561777,3.1092637,0.12437216,1.02011,-4.2348843
18.79188,-21.94851,3.0625956000000003,0.2771583,0.8300786,-3.6690311
17.370268,-22.047256,2.697997,0.33571407,0.78855723,-3.1473522000000003
15.867810999999998,-21.278143,1.7331147,0.30216885,0.906716,-2.6501603
15.002039000000002,-20.23743,0.5982057,0.1685639,1.0765365,-2.1982074000000003
14.003839000000001,-18.912,-0.23047544,0.051452305,1.1760901000000001,-1.7600948
12.475716,-17.86038,-0.51918745,0.054646257000000004,1.094112,-1.2144698999999999
10.243439,-16.40643,-0.26380274,0.100967295,0.8684059999999999,-0.5666210999999999
8.27802,-14.9062805,0.10245268,0.072221726,0.5165301999999999,0.26963592
6.2492304,-13.246362,0.5588066999999999,-0.11620402,0.09388126,1.389125
4.6345615,-11.494591,0.76400894,-0.35416222,-0.40756929999999997,2.8109574
3.5228477,-10.033755000000001,0.6794744,-0.61128414,-0.98513365,4.2812405
2.6935344,-9.023268,0.42930907,-0.9269444,-1.4163172,5.574791
1.6535218999999997,-8.20717,0.069949,-1.3309879999999998,-1.5249116000000003,6.4887853
0.68923324,-7.695089,-0.39823237,-1.6647473999999998,-1.4424099,7.0141990000000005
-0.41479066,-7.5001817,-0.52855355,-1.5795753000000001,-1.3215633999999998,7.231911
-1.7691618000000002,-7.6413535999999995,-0.74904037,-0.91842717,-1.3040053,7.4374065
-3.2562387000000004,-7.5711937,-1.3108733,-0.042219516,-1.4418688999999998,7.7583899999999995
-4.672418599999999,-8.039499000000001,-2.4391648999999997,0.69821894,-1.5414225000000001,8.082583999999999
-5.581296,-8.958155,-3.3845966,0.91275483,-1.4775433999999998,8.270487
-5.459058,-10.058242,-3.953325,0.58058375,-1.0623295,8.195961
-3.4215536,-11.244071,-3.9864607000000003,0.13823007,-0.45067890000000005,7.940986
0.13725479,-13.257095999999999,-3.8417552,-0.05979498,0.017749999,7.5619707
4.763887,-15.850639000000001,-3.3443072,0.2968456,0.09492846,7.148345
9.449722,-18.247503,-1.8653991,1.1315494,-0.064734265,6.5468173
13.199895000000001,-20.583136,0.26040295,1.8400483,-0.07326892,5.7951565
15.503375,-23.170788,1.5108945,1.9012744,0.24717353,4.9083195
17.418573000000002,-25.447855,1.4304206,1.4530739,0.6868918,3.9054186
19.370424,-26.704054,-0.2512667,0.9862158000000001,1.1058232,2.953097
20.730406,-26.084013,-1.86742,0.4805066,1.6487951,2.1471565
21.052044,-24.309276999999998,-2.17745,-0.100234255,2.3205897999999996,1.4934608
20.639082000000002,-22.650614,-0.56093276,-0.51492447,2.926376,1.0388548
19.892082000000002,-21.271496,1.7696311000000002,-0.73741907,3.2947452000000004,0.8429591000000001
19.275822,-20.143587,4.1714080000000004,-0.7826929,3.218614,0.8658404000000001
19.447344,-18.743803,5.175747,-0.6607816999999999,2.634138,0.9244136000000001
19.276848,-16.772370000000002,4.03377,-0.37758452,1.4656751000000001,1.004786
18.777752,-14.004135999999999,1.6873088,-0.07894124,-0.065798916,0.9472949
17.849579000000002,-11.575438499999999,0.56470597,0.2723761,-1.6462818,0.7625867
16.153507,-9.9619,0.58162826,0.68491954,-2.82218,0.4362625
14.268111,-8.568437,0.34538755,0.97930425,-3.4338305,-0.37072540000000004
12.578858,-7.8412976,0.33338779999999996,0.99633867,-3.3752747000000003,-1.7419957
11.255544,-7.969618,0.70628947,0.6167819,-2.7247732000000005,-3.4134974000000002
10.050015,-8.3006115,0.8543181999999999,-0.1412146,-1.7351714,-4.881651000000001
9.395346,-8.289694,0.97515833,-1.0099871,-0.53956854,-6.043185
9.0551,-7.940734,0.99064404,-1.5689288000000001,0.36856118,-6.810257400000001
9.199778,-7.1833906,0.99583465,-1.5907453999999999,0.37014943,-7.2494345000000004
10.387609,-6.5538015,0.9225434000000001,-1.3373586000000002,-0.39159954,-7.579476400000001
11.915204,-6.0920267,1.8000278000000003,-1.079713,-1.2017813999999998,-7.6795535
14.266713000000001,-5.5220633,2.5242739,-0.80822706,-1.4961659999999999,-7.539542999999999
17.734217,-4.926079799999999,2.721403,-0.4004658,-1.34338,-7.3042727
20.63863,-4.8540044,2.5080318,-0.032096606,-0.86854565,-7.024252000000001
22.055605,-6.540087000000001,1.5798858,0.18027505,-0.22390829,-6.677192999999999
21.938270000000003,-10.403755,0.57228124,0.28195795,0.41647047,-6.226828599999999
20.834812,-15.198373000000002,0.33011252,0.29153979999999996,0.8902226000000001,-5.791404
19.772764000000002,-19.79344,0.69323635,0.28195795,1.1941892,-5.316028599999999
19.374023,-23.387710000000002,1.3441718999999999,0.30164525,1.2431631,-4.8300066
19.155375,-25.529097,1.8461019,0.3564835,0.9732829,-4.3636894
18.03465,-26.176285,2.6454682000000003,0.37831756,0.59266144,-3.9841504
16.664092999999998,-25.41491,3.7651025999999996,0.4150393,0.15882497,-3.6296215
15.379547,-23.639418,4.5629363,0.5135282,-0.093479834,-3.3261962
14.50937,-22.04786,3.9634763999999993,0.639157,-0.108926,-3.07068
13.255642000000002,-20.510647,3.0403678,0.6402042,0.1625425,-2.8769134999999997
12.238814,-19.348760000000002,1.8716336,0.40439278,0.63844144,-2.6267204
11.386402,-18.193665,0.8872336999999999,0.010454521999999999,1.206965,-2.298808
10.372983999999999,-16.756126000000002,0.32076555,-0.38023743,1.630696,-1.8016161
9.338622,-15.200164000000001,0.117172234,-0.68153363,1.7781589,-1.1282158000000002
8.326823,-13.676303,0.067870826,-0.86039495,1.6807346,-0.26797786
7.228229,-12.489852,0.10173442,-0.84922487,1.3453696000000002,0.78333867
6.375127,-11.520411,0.6259591999999999,-0.7597941999999999,0.65708154,1.9874588
5.830245,-10.941349,1.1733503,-0.76298815,-0.28724629999999995,3.2346885
5.00889,-10.353409,1.3948426999999999,-0.81939715,-1.2592725,4.3456779999999995
3.9333096,-9.966746,0.72639126,-0.7752229,-1.989623,5.253284
2.1215405,-9.468177,-0.30811459999999996,-0.6038140999999999,-2.3053007,6.0475135
0.39781097,-9.147153,-1.2017169,-0.27642524,-2.3755677000000004,6.731542999999999
-1.2846808,-9.110952000000001,-1.7721403000000002,0.18081611,-2.2664322999999995,7.345323
-2.7473752,-9.039864999999999,-1.9418987,0.5747369000000001,-1.9789765,7.749890299999999
-3.9362016000000004,-8.896125999999999,-1.8246019,0.76318014,-1.4908428,7.930339999999999
-4.6797066,-9.1422205,-1.5018156999999999,0.77543235,-0.97981036,7.8728485
-4.584954,-9.883696,-2.0240006,0.71101224,-0.41022217,7.5848694000000005
-3.2444212,-10.657042,-2.689445,0.30592132,0.26581365,7.067449000000001
-0.5452555,-11.941024,-2.586887,-0.53993505,1.1084936,6.386072599999999
3.059215,-14.118866,-1.7320997,-1.1952188999999998,1.7254498999999999,5.840971
6.2691407,-16.820944,-0.9720459000000001,-1.3075483,1.9889598000000002,5.3730483
9.276181,-19.705036,-0.13661315,-1.1382688,1.9511558999999998,4.9887094
12.620565,-22.559748000000003,0.11534306400000001,-1.0903596000000002,1.764301,4.525045400000001
16.095910999999997,-24.830389999999998,-0.30553845,-0.8907288000000001,1.4475936000000003,3.8506153
18.93079,-26.13202,-0.78007877,-0.41271800000000003,1.2170879,3.0957603
21.159582,-25.732994,-0.70983297,-0.048589967000000005,1.1894069999999999,2.5123317000000003
22.098213,-23.471346,-0.21362026,0.077003926,1.267109,2.0917945
22.356348,-20.562859,-0.5934172,0.12705997,1.4172423,1.7947743999999999
21.432741,-18.219225,-0.34083855,0.06637487,1.606209,1.6462468999999997
20.230803,-16.906923000000003,1.6077831,-0.07733554,1.6280431999999998,1.6441176
19.103403,-15.662494,3.9024627,-0.101298906,1.2516804,1.7356776000000003
17.781984,-14.169077,4.273104,0.10150835,0.4617094,1.8543773999999997
17.066004,-12.310995,4.0822673,0.42675045,-0.51136404,1.7718756999999998
16.751251,-10.859217999999998,4.783203,0.9191601999999999,-1.5233059,1.4833553
15.458545999999998,-9.993532,5.101316000000001,1.4557443,-2.2978306,0.92334896
13.500846,-9.149298,3.8861055,1.757564,-2.691769,-0.09498082
12.027636,-8.416568,2.7859792999999997,1.6665276000000002,-2.6321485,-1.4305940000000001
11.269115,-8.241369,2.0164447,1.0745993,-2.2626972000000003,-2.8289866000000004
10.592742999999999,-8.148742,1.1238288,0.14835298,-1.7042966,-3.9979907999999997
10.106711,-7.902273700000001,0.4942111,-0.7022856,-1.2645957,-4.7810326
10.021142,-7.477226299999999,0.6002838,-1.0717193999999999,-1.1964581,-5.2941947
10.685045,-6.459153700000001,1.0082271,-1.0174222,-1.6175188,-5.7605114
12.643156,-5.578375,1.3234668,-0.80290383,-2.3547982999999997,-6.2140527
14.520881,-4.440765,2.0392566000000003,-0.8252615,-2.9062874,-6.612756
16.717292999999998,-3.1145308,2.0327346,-1.0280688,-2.9675136,-7.113141499999999
19.244604000000002,-2.7796106,1.2430216,-1.2713501,-2.4330587,-7.60981
20.170881,-3.2080290000000002,-0.12650962,-1.4033669,-1.3417916,-8.047381
19.913065,-5.1426305999999995,-1.6433035,-1.2388695,-0.19940387,-8.027153
18.975563,-8.541449,-2.2169062999999998,-0.8699768,0.8077209,-7.505474
17.872477,-12.335856,-1.1943139999999999,-0.60805523,1.5322245,-6.679305
17.937244,-16.028921,0.7233745,-0.48616147,2.0038648,-5.8062916
19.161285,-19.395678,2.430967,-0.40365976,2.0847783,-5.1728244000000005
20.45169,-22.066889,3.3414915,-0.24980898,1.9032639999999998,-4.6506042
21.512928,-23.9211,3.3340980000000005,-0.019320795,1.4731277,-4.2231555
22.141586,-25.318253,3.7305877,0.2340661,0.90833914,-3.864351
21.703323,-26.130325,3.6921656,0.41825070000000003,0.43936917,-3.5912766000000005
19.486101,-26.648394,3.8274953000000003,0.53907984,0.138073,-3.2846572
15.994397,-26.45093,3.8889400000000003,0.5348212,0.072064646,-2.9636737999999996
12.902525,-25.210407,3.0064566000000004,0.45019022,0.13913764,-2.639479
10.711524,-22.837296,1.4282466999999999,0.3474427,0.30414107,-2.2902907999999997
9.161174,-19.80566,0.44957359999999996,0.22980749999999997,0.4633151,-1.7760470000000002
8.568082,-17.700104,0.0871681,-0.020909045,0.40901792,-0.97171205
7.6506333,-15.466926,0.24318385,-0.32272884,0.10026917,0.11262609999999999
6.562938000000001,-13.583198000000001,0.5628481,-0.5862385999999999,-0.30373964,1.3646555
5.599971,-12.122428,0.80403996,-0.7714879,-0.59651864,2.6225492999999998
4.6811050000000005,-11.097125,0.96549535,-0.77094686,-0.89462084,3.8096175000000003
3.5574772000000006,-10.451495,0.8804629,-0.5505641,-1.1299086999999999,4.813583400000001
2.3894613,-9.911507,0.49993804,-0.16249016,-1.2262509,5.5886664
0.9259527,-9.442138,0.11662635,0.1643402,-1.2007166999999999,6.123121299999999
-0.7235852,-9.147689999999999,-0.38328296,0.19786797,-1.0053444999999999,6.500531
-2.9822848,-9.310437,-1.4148008,-0.057107173,-0.8089251999999999,6.92318
-5.2152705,-9.454721000000001,-2.734485,-0.37543777,-0.6268699000000001,7.445941
-6.689179400000001,-9.756352,-3.2238884,-0.5739864,-0.44374996,7.857436999999999
-6.404308,-10.454396000000001,-2.9754183,-0.74539524,-0.15681784,7.927163
-4.614278,-11.235835,-1.9998671000000001,-0.93755597,0.1944995,7.5268545
-1.9072593,-12.284582,-0.9602473,-0.99825853,0.44043383,6.9136157
1.7022582999999998,-13.780719,-0.2692998,-0.8305673000000001,0.56819195,6.274825
5.3799150000000004,-15.568881,-0.37965336,-0.43664646,0.5234766,5.711625
8.979185000000001,-17.587997,-1.2224028,0.022724187000000003,0.43350488,5.180364
11.952544,-19.758589999999998,-2.560455,0.30380946,0.48356092,4.719370400000001
14.164729000000001,-22.346846,-3.3268199999999997,0.3554363,0.6741334,4.0880322
16.449898,-24.428797,-2.8796882999999998,0.2926219,0.85990626,3.2549342999999995
18.579168,-24.926638,-1.7555724,0.23886576,1.0297266999999999,2.4655044
20.537357,-23.567526,-0.94572884,0.14837044,1.2314694,2.0620017
21.195332,-21.041288,-0.026039338,0.02432989,1.3831735,1.9374377
20.424877,-18.713129000000002,1.3689183,-0.047507863,1.5178605,1.9837586999999999
19.001926,-17.212460999999998,2.5972395,-0.09168214,1.5412828,2.0870297
17.954435,-16.066616,3.3841083,-0.060824725999999996,1.3656153999999998,2.1988182000000003
17.21658,-15.31318,3.5569792000000002,0.11801916,0.94240797,2.274391
16.74653,-14.333291000000001,3.1368735,0.36075956,0.29777062,2.2110529999999997
16.784378,-12.725699,2.4022843999999997,0.4938409000000001,-0.33939672,1.9209443
16.259722,-11.196810000000001,2.0600669999999996,0.54759705,-0.8509701999999999,1.4466336000000002
14.451735999999999,-10.450738000000001,1.8046151000000001,0.526304,-1.1485488000000001,0.743423
12.250525999999999,-10.191953999999999,1.3776620000000002,0.51248103,-1.3034468000000001,-0.24453808
10.532572,-9.859494999999999,1.0203896000000001,0.5311037,-1.3864895000000002,-1.4747508999999999
9.713764,-9.406023,0.814268,0.4895823,-1.3976771000000001,-2.791183
9.568667,-8.956392,0.36870706,0.21064378,-1.379037,-3.9660339999999996
9.805347,-8.351894,0.15484738,-0.19071212,-1.3731902,-4.8390474
10.585158,-7.6999345,0.02276407,-0.52394783,-1.4226876,-5.3921423
12.000936,-6.6793914,-0.34303164,-0.70280915,-1.5749327,-5.800951
13.899776999999998,-5.719096700000001,-0.79933774,-0.7555006999999999,-1.8096794999999999,-6.131533599999999
15.333483,-4.3156633,-0.6875764,-0.8598539000000001,-1.9933405,-6.461052
17.079957999999998,-3.168295,-0.41983765,-1.0104933,-1.8639767,-6.8150395999999995
18.880243,-2.875666,0.06475837,-0.9652369000000001,-1.4072415,-7.0732083
19.854109,-3.4617572,0.32993057,-0.7682939000000001,-0.76047486,-7.246764
19.600468,-5.358492,0.012708423,-0.50584877,0.0060562924,-7.249417
18.820992,-8.585281,-0.5333994000000001,-0.23966861,0.74865896,-6.8980646
17.824133,-12.387686,-0.2836267,-0.14545573,1.2751201,-6.285367
17.31437,-15.928059,0.7000166999999999,-0.1566433,1.6940515,-5.5481050000000005
17.748686,-19.039928,1.7745057,-0.18858282,1.9352037,-4.9939456
18.364829999999998,-21.378277,2.6170828,-0.13480923,1.9229688999999999,-4.480784
18.732311,-22.80753,2.8999817,-0.038467057,1.7068447,-4.0799513
18.714029999999998,-23.592924,3.5315336999999998,0.13931218,1.3283527,-3.6993300000000002
17.758799,-23.956267999999998,4.1366057000000005,0.43156755,0.84287184,-3.3469307
16.368084,-23.78058,4.105951,0.75042176,0.29190633,-3.007848
14.397473999999999,-23.417744,3.5361402,0.9452529000000001,-0.055676002,-2.7454028
12.137463,-22.665764000000003,2.5153964,0.95748764,-0.18823376,-2.5111797
10.122302000000001,-20.965822,1.3286575,0.81375974,-0.032253683,-2.2785623
9.268089,-19.159409,0.36524028,0.5848773,0.22643901,-1.955973
8.455362,-17.455510999999998,0.13194925,0.33414328,0.36164966,-1.3879906000000002
7.583069,-15.481827,0.1901092,-0.064018674,0.3286455,-0.46972045
6.502612999999999,-13.870510999999999,0.3223745,-0.44994587,0.018308504,0.6870139000000001
5.384032700000001,-12.367546,0.7619882,-0.6815161999999999,-0.36709509999999995,1.9156035
4.413079,-11.104365,1.1965358,-0.7730760999999999,-0.7375761,3.0489330000000003
3.5452669,-10.007275,1.2426482,-0.58941513,-1.1394906,4.1428704
3.0039474999999998,-9.319497,0.85045874,-0.14440854,-1.4849784,5.143101000000001
2.435593,-9.009084,0.08598056400000001,0.25961772,-1.5882322,5.984175700000001
1.4031459,-9.060597,-0.75084084,0.5199335999999999,-1.5019954,6.649582400000001
-0.5292718000000001,-9.275511,-1.6979104,0.62214005,-1.2571257,7.207999999999999
-2.9020884,-9.732535,-2.734092,0.6109525,-0.8200953000000001,7.7536254
-5.002244,-10.329123,-4.004561,0.63917446,-0.31066862,8.31789
-5.916532,-10.892124,-4.0580473,0.73338735,0.1359437,8.812953
-4.9347944,-11.621474000000001,-3.3786974,0.9159662000000001,0.48567277,9.135017999999999
-2.7865157000000003,-12.376385,-2.347639,1.1278318,0.7779282,9.099344
-0.38040033,-13.605108,-1.2274402,1.3620723,0.9115506,8.604299000000001
2.7050936,-15.368303,-0.665454,1.4504384,0.92910856,7.759489500000001
5.905355999999999,-17.691782,-0.9148628000000001,1.4631968000000002,1.1431034,6.6373477
8.883417,-20.334932000000002,-1.2179973999999998,1.2976522,1.5833278,5.5231814
11.690599,-23.35359,-1.4092462,0.7908785,2.1465456,4.4292617
14.103888000000001,-26.491219,-1.2530006,0.31710887,2.385551,3.3608758
16.237092999999998,-28.954009999999997,-0.62271273,0.00996583,2.4063203,2.2041414
17.685392,-29.934272999999997,0.15689681,-0.2263692,2.4355896,1.259255
18.650822,-29.339525,1.0498958,-0.57770395,2.7267802000000003,0.69766045
19.252897,-27.623362,1.935195,-0.8976403000000001,3.1324122,0.52092844
19.25648,-24.594122,2.5088742,-1.0418916999999999,3.4022925,0.5869368
19.619919,-21.38029,2.626583,-0.92745054,3.3629005,0.80890775
19.080208,-18.42841,3.1489305,-0.5872858,2.8103466,1.0782644
18.043087,-15.761547,2.8206856,-0.18804178,1.7504953999999997,1.3252808999999999
16.899876000000003,-13.201187,2.3343467999999996,0.20053834,0.23921482,1.4397221000000002
15.987082000000001,-10.950322,2.4254222000000003,0.5417502,-1.5488576,1.3337806
14.608835000000001,-9.709895,2.4987805,0.99581504,-3.111765,1.0505835
12.797047000000001,-9.379984,2.1127775,1.4424448,-4.089638,0.41446334
10.437819500000002,-9.534899000000001,1.806339,1.5116645,-4.300439,-0.66240484
8.712653,-9.762865,1.8900881,1.0394832,-3.9139707,-1.9602316999999998
7.4854617,-9.96688,2.2722507000000003,0.17657496,-3.1362520000000003,-3.2420712000000003
6.874242,-9.767930999999999,2.5271277000000003,-0.7459188,-2.134398,-4.5079236
6.8870070000000005,-9.038178,2.2763686,-1.4304893,-1.2880181,-5.550758
7.3209515,-8.344051,1.5683649,-1.6189325,-0.856817,-6.280043599999999
8.705394,-7.2880363,0.92185384,-1.3293475000000001,-1.1261736999999998,-6.889024000000001
10.767961,-6.7511410000000005,0.9492627,-0.9189333000000001,-1.9768298,-7.508127
13.007679,-6.191281299999999,1.9141834999999998,-0.74007195,-2.9903774,-8.241131
15.767273999999999,-5.791995,2.2800748,-1.0488207,-3.4700112,-8.950188
17.839454999999997,-6.0412126,1.5537124,-1.4831983,-3.1500924,-9.297264
18.405367000000002,-7.2159705,0.5254985,-1.7168803,-2.272279,-9.082205
18.175745000000003,-9.321000999999999,0.20139067,-1.7429731,-1.0271610999999998,-8.387528
18.000278,-12.5030775,0.6351720999999999,-1.5976393999999998,0.30361748,-7.4644766
17.585852,-16.951485,1.5657983,-1.3495758999999998,1.5412828,-6.477004
17.212269,-21.386053,3.2217238,-1.1079001,2.2918615,-5.5731152999999996
17.711481,-24.78828,4.2523800000000005,-0.83269656,2.6187096000000003,-4.7389703
19.287066,-27.397703000000003,4.659136,-0.55162877,2.5266085,-4.0544
20.317953,-28.948868,3.9881845,-0.23488641,2.0826664,-3.4746888
20.104101,-29.986829999999998,3.5613942,0.09993755,1.4417467,-3.0818326000000003
18.431913,-30.490944,3.8733969,0.48160616,0.7140491,-2.7959826
15.67345,-29.771189,4.170163,0.81271255,0.16310102,-2.6357439
12.715568,-27.447933000000003,3.9863746,0.9894446,-0.11529645,-2.4643349999999997
10.598564999999999,-24.410648000000002,3.2726054,0.94099426,-0.060999255999999995,-2.2359762
9.024503,-21.36872,2.271293,0.72221726,0.24506168,-1.9256217
7.687379400000001,-18.55947,1.3385023999999999,0.35810664,0.5586101,-1.5231837
6.549099,-15.736082000000001,0.76766723,-0.06562438,0.71350807,-0.8977101000000001
5.7701697,-13.61416,0.44914266,-0.48614399999999997,0.52401763,0.017348573
4.994094400000001,-11.880651,0.5305072,-0.7938281,0.017767452,1.1597188999999999
4.3015566,-10.482782,0.7793797,-1.032851,-0.51614624,2.4793448
3.8172099999999998,-9.356416000000001,1.119385,-1.0642493999999998,-0.9670171000000001,3.8117642
3.312962,-8.599886999999999,1.0809534,-0.65064126,-1.3875541999999998,5.081351799999999
2.3811007,-8.314305000000001,0.55268705,0.06265732,-1.7255721000000002,6.177418
1.2332531999999998,-8.085296000000001,-0.19701406,0.6402391,-1.8054383999999999,6.9365144
-0.20785502,-7.955223599999999,-1.0495031000000001,0.81271255,-1.5882322,7.334170299999999
-1.6100624,-8.15647,-2.077305,0.62053436,-1.1187387,7.584886599999999
-3.3105872000000005,-8.779633500000001,-2.927869,0.29368654,-0.5044175999999999,7.905347
-4.732991999999999,-9.604091,-3.5878549,0.14891149,0.08857546,8.3525
-5.0281777000000005,-10.577679,-3.385995,0.2665467,0.5857674,8.818294
-4.151948,-11.932289,-2.7945599999999997,0.37779397,0.9333671999999998,8.869378999999999
-1.9044534,-13.143555,-1.2654983999999998,0.5050285,1.1713253000000001,8.419049000000001
0.9885276,-14.811384,0.2261563,0.5880711999999999,1.2069825,7.674841000000001
4.5689416,-17.009731,0.46941674,0.32777283,1.0323797,6.654922999999999
8.589917,-19.465492,-0.6913593000000001,0.30965632,0.9232617000000001,5.8329949999999995
12.323387,-21.675465,-2.004301,0.42198572,0.815732,5.0281363
14.969736,-24.209995000000003,-2.6227232999999996,0.42092106,0.87639964,4.212596400000001
16.662867000000002,-26.875171999999996,-2.1673944,0.32777283,1.2250816,3.2097127
17.65021,-28.940822999999998,-0.5447095999999999,0.18030997,1.8691952,2.1982946
18.694538,-29.261206,0.78821903,-0.21998130000000002,2.9556801,1.3678495000000002
20.089651,-27.832058,1.3453882,-0.8417374,4.1874814,0.9632995999999999
20.841267000000002,-24.88361,2.1517169999999997,-1.5135319999999999,5.279272,1.0122735999999999
19.899954,-21.143396,2.0348034,-1.8755133000000002,5.636471,1.2544729
19.257244,-18.611643,1.8197752,-1.8494206999999998,5.114251,1.4775260000000001
18.153554999999997,-16.799001999999998,3.2612283,-1.3783214,3.6769898000000003,1.5520515
17.170460000000002,-14.812839499999999,3.5430639999999998,-0.62135464,1.4028782,1.5030775
16.415229999999998,-12.664647,3.4544115,0.2287603,-1.287477,1.361479
16.119778,-10.665545,3.3982437000000005,1.1528771999999998,-3.7079519999999997,1.0702883
15.245453,-9.443019,3.0206301,1.9322016,-5.2708592,0.39690533
13.484441,-9.295996,1.8997511999999999,2.1445909,-5.6674504,-0.590026
11.161328,-9.666273,0.97780156,1.6628275000000001,-5.2405257,-1.7659241
9.107362,-9.898501,0.6398935,0.74085736,-4.2881865999999995,-2.9572685
8.190028,-9.539822000000001,1.0733111000000002,-0.25830874,-3.0760902999999997,-4.0533175
8.259133,-8.816619000000001,1.7549689999999998,-0.9732305,-1.8304490000000002,-4.980105
8.987067,-7.660804,2.3809092,-1.2079773,-0.8834333000000001,-5.742395
9.786195,-6.6848600000000005,2.516689,-1.0498678999999997,-0.5443333,-6.408325
11.320072999999999,-6.395056200000001,2.7775612,-0.74645984,-0.6880786,-7.006135499999999
13.61209,-5.930026,3.2784953000000003,-0.46218064,-1.1187211000000001,-7.5554953
15.971107,-5.6892934,3.0910580000000003,-0.37116173,-1.4940193000000002,-7.9691033
17.427767000000003,-5.7876472,1.7221206000000002,-0.44195226,-1.5573573,-8.183099
18.254036,-6.5019717,0.27711448,-0.5079606,-1.2911946,-8.098991
18.383074,-8.029922500000001,-0.20361249,-0.4834911,-0.7599338000000001,-7.666760000000001
18.357329999999997,-10.854544,0.40045416,-0.34454545,-0.1919513,-7.0913076
18.046295,-14.735028,1.674294,-0.15821409,0.38028979999999996,-6.428553599999999
17.841503,-18.556547,3.0295367000000004,0.005183628,0.76089376,-5.739201
18.125045999999998,-21.986214,3.5971062000000007,0.10578441,0.92910856,-5.075923400000001
18.603521,-24.915029999999998,3.7405572,0.13985324,0.8806757,-4.504206
18.976001999999998,-27.186465999999996,3.5697834000000004,0.14463544,0.67306876,-3.941547
18.421667000000003,-28.374662,3.2681236,0.20799088,0.35473818,-3.4677773000000003
16.760542,-28.650568,3.2930233,0.37461746,0.052918382,-3.0621278
14.690083999999999,-27.987576,3.6428160000000003,0.48905870000000007,-0.09985029,-2.7704134
12.337944,-26.480782,3.6355379,0.5321858,-0.12061971,-2.4536886000000004
10.364547,-24.142210000000002,3.5319455,0.45020768,0.018308504,-2.1151297000000002
8.742647,-21.490345,2.8242195,0.23727751,0.29831168,-1.7643185000000001
7.533757700000001,-19.037005999999998,2.014807,-0.06932448,0.58683205,-1.3533632
6.496647,-16.945326,1.2150861000000002,-0.38287288,0.7385535,-0.7726049
5.3658943,-14.811335999999999,0.7332960999999999,-0.59845597,0.6161012,0.08868018
4.3470564000000005,-12.821869,0.69233614,-0.7070503,0.21739821,1.2001932
3.7137230000000003,-11.305353,1.0762893999999998,-0.64690626,-0.302675,2.3649037
3.2448137000000004,-10.122933,1.4330542,-0.5031784,-0.7743153,3.4412656000000004
2.4676461,-9.044126,1.1906748,-0.2705435,-1.1219151000000003,4.3941455000000005
1.684589,-8.385644000000001,0.76599133,0.16327555,-1.3518796999999998,5.134060400000001
0.8188840000000001,-8.015682,0.04254975,0.6647261,-1.3992653999999998,5.6983255999999995
-0.16184804,-7.8950334,-0.7454012,0.9883974,-1.2400913,6.189147
-1.5782481000000002,-8.154115,-1.4925452,0.99689716,-0.8818275999999999,6.6474705
-3.310166,-8.787563,-1.862191,0.7115882,-0.33459708,7.141468499999999
-4.8586106,-9.870517999999999,-2.1284359,0.50609314,0.14552556,7.5582705
