accx,accy,accz,gyrx,gyry,gyrz
8.169821,-2.889495,1.5303354,-1.0906563,0.100949846,2.2698705
9.43485,-3.1292120999999997,1.4562396,-1.0230595999999998,0.21645573,2.3161914
11.024734,-2.9560347,1.1935287,-0.90168947,0.18931587,2.2501830000000003
11.687488,-2.1702769,0.78427345,-0.8984955,-0.0039095376000000005,2.0542873999999998
12.65935,-1.9779361,0.38651994,-1.0613697,-0.24982643,1.8839433
14.466581,-2.3268576000000003,0.21580377,-1.2258843000000001,-0.34088024,1.8669089
15.630957999999998,-2.027046,-0.051781796,-1.2647353000000001,-0.29721212,1.9302468000000002
14.8956785,-1.273045,-0.5602049,-1.2876166,-0.33288664,2.0542873999999998
13.113138000000001,-0.56939864,-0.62316287,-1.2578063999999998,-0.45052183,2.0931558999999997
10.792966,-0.14673585,-0.16373466,-1.1465417,-0.54740506,2.0058546
8.707443,0.34261984,0.39194998,-0.98101467,-0.5266531,1.8472041000000001
7.5835094,1.0239426,0.27535236,-0.8223642,-0.38877209999999995,1.6188452
7.2840424,1.7265451,-0.23388478,-0.7233516999999999,-0.20512855,1.2919973999999999
7.094374,2.1754482000000004,-0.7808162,-0.6057165,-0.027855453999999998,0.9837723
6.853958,2.0917854,-0.75161654,-0.42259657,0.07485717,0.6468189999999999
6.897972599999999,1.6820608,-0.064653024,-0.2921681,0.10679669999999998,0.24863960000000002
7.718982700000001,1.4220409,0.48363832,-0.2793923,0.12543681,-0.12716469
9.113395,1.6536463,0.6481965999999999,-0.24743533,0.20050342,-0.29377383
10.8995075,2.0633135,1.1118865,0.039985493,0.41715115,-0.5413139
12.301964,2.6140373,1.7331051,0.40249038,0.3617893,-1.2136496
13.032952,3.2914526,2.2852368,0.6713234,0.12276646,-1.7528865000000002
13.436689999999999,3.9137537000000004,2.5802312,0.79162896,-0.011344640500000001,-1.9881743000000003
13.704151999999999,4.2181809999999995,2.7305584,0.75968945,0.10840239999999998,-2.0313015
13.782739999999999,4.427099,2.7627842,0.70113367,0.36498326,-2.139896
13.777693,4.553943599999999,2.6727526000000004,0.7602131,0.6215641,-2.3017228
13.980758999999999,4.433898999999999,2.4976215,1.0460806,0.81958914,-2.455015
15.348231,3.5035309999999997,2.4037402,1.4495832,0.8515287,-2.6668979999999998
16.241718,3.095128,2.9038315,1.8003769,0.76635665,-2.9229379
15.058418,3.9934042,3.5843785,1.9851025000000002,0.68170816,-3.1246805
15.816394,3.7140964999999997,3.152905,2.0803802,0.66680306,-3.2519150000000003
17.01473,1.6764487000000001,2.7312,2.0489817,0.64285713,-3.2774665
18.030207,0.14237839,2.6902783,1.8967365000000003,0.62475806,-3.199747
17.00181,-0.26063278,2.9211082000000004,1.6822006999999999,0.5912128000000001,-3.0464373
15.279229999999998,-0.031162929,3.2129037,1.4208376,0.48900634,-2.7946560000000003
13.725679999999999,0.02069548,3.3531177000000003,1.108895,0.31333897,-2.4193580000000003
12.461953999999999,0.07379887,3.2939525,0.76181877,0.179734,-1.8582869999999998
11.450433,0.12101252400000001,2.8976447999999997,0.39451423,0.053564154,-1.2769876
10.481585,-0.07399041,2.2333207,-0.040910516,-0.1412495,-0.7766017
9.687611,-0.48735413,1.6456113999999997,-0.41460297,-0.29136527,-0.23043582
8.926053,-0.94085425,1.2335118,-0.5764299,-0.30946434,0.26567402
8.369247999999999,-1.5268207,0.7393582,-0.5546133000000001,-0.2865656,0.7506311999999999
7.874031,-2.0995617,0.25071123,-0.36082938,-0.27698374,1.172233
7.535835700000001,-2.623097,-0.07165367,-0.0063355453,-0.33236304,1.5767828000000002
7.2621307,-3.1925626,-0.39987957,0.3024132,-0.38398990000000005,1.8509392
7.1566424,-3.6826462999999996,-0.6855557,0.38015017,-0.50321335,1.8738378
6.7845545,-3.8952706,-0.63507634,0.34873423,-0.49258426,1.9408933999999998
6.5524898,-3.6538102999999995,-0.6360915,0.35351643,-0.48246136,2.1394596000000003
6.6909795,-3.4795317999999997,-0.6301539,0.25504497,-0.42603487,2.3326849999999997
7.454711,-3.506069,0.08281065,-0.17453292,-0.33714524,2.3278852000000003
7.9183145,-3.4322220999999997,1.0737995,-0.76115555,-0.2163161,2.3076744
7.8500223,-3.3288596,1.70154,-1.1257898000000002,0.042917646,2.3667537999999997
8.557939999999999,-3.2431188,2.034679,-1.2402483999999998,0.29204595,2.4189217
10.227886,-3.172729,1.6276933,-1.3238147,0.36657152,2.3561246
10.861919,-2.1087074,0.96350336,-1.4105752,0.29791024,2.1490414
11.173432,-1.4009622,0.45573149999999996,-1.4334738,0.14247122,1.9249411
12.635542999999998,-1.7440035,0.028069621,-1.3632069,0.036529742000000004,1.7615085
14.494488,-2.2842886,-0.29068482,-1.3318083,-0.06991789,1.7535148999999997
15.137493,-2.053459,-0.8525273000000001,-1.3371142,-0.20671679,1.8227346000000002
14.198630999999999,-1.0883563,-1.2910398,-1.2998688,-0.3557679,1.8770143
12.347847,-0.5779316,-0.9068181999999999,-1.1902099,-0.44148102,1.8818139999999999
10.539257000000001,-0.008207323,-0.07587704,-1.1204665,-0.53197634,1.836034
8.976839,0.80184686,0.18160498,-1.0416824,-0.48193777,1.8035535
8.174513000000001,1.655083,-0.14117171,-0.9772622,-0.2950828,1.6310973999999998
7.697837400000001,2.220603,-0.18499517,-0.9176591999999999,-0.05660103,1.2818745
7.013603,2.3703172,0.10411904,-0.74092716,0.13767157,0.9284104
6.832486599999999,2.0868533,0.26923275,-0.45186573,0.14514159,0.57548743
7.297076700000001,1.6037511999999998,0.33941162,-0.24851742,0.108926,0.13791592
8.281247,1.5427375,0.45793417,-0.29696777,0.108926,-0.23842943
9.6834545,1.7776947,0.9895427,-0.2793923,0.29523990000000006,-0.34913567
11.209518,2.1465167999999997,1.4810914,0.021345377000000002,0.50604075,-0.711658
12.207316,2.5518456,1.9025953999999998,0.26195645,0.27129397,-1.4026163999999999
12.878766,3.140666,2.326647,0.45945793,0.088697635,-1.8455112
13.457492000000002,3.8341608,2.6442425,0.45945793,0.07485717,-2.0371482
13.733235999999998,4.134681,2.9087539000000002,0.26197392,0.31494465,-2.1249732999999997
13.9527,4.2315693,2.9752457000000003,0.10972885,0.67319095,-2.2612486
13.963070000000002,4.371841000000001,2.8058607999999996,0.20765927,1.0133556000000001,-2.3059814
14.384526000000001,4.2197322999999995,2.4718792,0.6223495,1.2135098999999998,-2.3810306
15.773145000000001,3.142878,2.2399385,1.232918,1.192217,-2.577991
15.163504000000001,3.3070724,2.9544832999999997,1.8392453999999998,1.005903,-2.8654466
14.552331,4.1288295,2.9919095,2.2746875,0.8238478000000001,-3.0794415
16.38692,2.950145,2.4773571,2.5158397999999997,0.6721263000000001,-3.188036
17.608885,1.065123,2.4185174,2.5323505,0.5917539,-3.1832361000000002
18.143318,0.048860867,2.3478882000000003,2.36253,0.5379977,-3.0544136
16.898678,-0.20483832,2.7856634,2.0931558999999997,0.48209485,-2.8031732999999996
15.181795999999999,-0.3989123,3.2668786,1.7396918999999997,0.39318776,-2.4725904
13.457060999999998,-0.5858036999999999,3.5856904999999997,1.3452473999999999,0.30056316,-2.071217
12.19162,-0.43488279999999996,3.7090492,0.9550616,0.19942132,-1.5894538999999999
11.046242999999999,-0.26121697,3.2906769999999996,0.59412754,0.010978121,-1.0614046
10.176152,-0.45616248,2.7403939,0.24281020000000003,-0.25621432,-0.52002084
9.363138000000001,-0.9266901,1.8993202,-0.103183866,-0.462233,-0.034540065
8.604627,-1.4204607,1.2144538999999999,-0.45184830000000004,-0.5298295999999999,0.34554029999999997
7.964599000000001,-1.9102186,0.5490670999999999,-0.70790553,-0.44252822,0.689405
7.398600599999999,-2.3508952,0.043114785,-0.78775436,-0.2950828,1.0034771
6.912874700000001,-2.7707138,-0.32194352,-0.6418972,-0.21736329999999998,1.422967
6.640941000000001,-2.9808865,-0.5846449,-0.46568874,-0.24610887,1.6444143
6.5770445,-3.1809077,-0.71627814,-0.49336967,-0.30253538,1.6151277
6.447949400000001,-3.2994684999999997,-0.75551426,-0.5072276,-0.31372294,1.698694
6.507115,-3.3142552000000003,-0.7524018,-0.36028832,-0.28708920000000004,1.9962726999999998
7.171285000000001,-3.2811383999999997,-0.67864126,-0.3533768,-0.24769713,2.1825867000000003
8.239674,-3.041134,-0.26939556,-0.5354321,-0.1508139,2.2640235
8.374592,-2.804855,0.48434702,-0.675966,0.005131268,2.3715534
8.100772000000001,-2.623614,1.3754784,-0.7329161,0.05623451,2.4817533
9.244531,-2.9343624,1.8222363999999998,-0.79468334,0.037611846000000004,2.5142167
10.55681,-3.0029898,1.742749,-0.86121523,-0.0017627826,2.4359734
11.1352215,-2.1593877999999997,1.5707878,-0.9101892,-0.08480555,2.3034332
12.880182000000001,-2.0708218,1.0150362,-0.98630303,-0.15987216,2.1197722000000003
14.290204999999998,-2.8389869,0.67534685,-0.98576194,-0.26951376,1.9792383000000002
14.6944895,-2.9526446,0.5853153,-0.98632044,-0.34299209999999997,1.9781736
14.268197,-2.2212062,0.17647181,-0.96607465,-0.49895470000000003,1.9872144
12.768383,-1.4269059,0.030846896000000002,-0.91446525,-0.59318507,1.8967191000000003
10.727862,-0.7548056,-0.023290794,-0.90538955,-0.59105575,1.7769546999999999
9.073843,0.021854272,-0.23067655,-0.9905616,-0.40687114,1.6028928999999998
7.987373,0.9319574,-0.45579857,-1.1481298999999998,-0.14070845,1.2856094999999998
7.4590974,1.6634529999999998,-0.48129198,-1.2551361,0.06316347,0.97368425
7.147947,2.1281772,-0.49428773,-1.1864573999999999,0.18505725,0.75330156
7.404528,2.4175117000000004,-0.36118928,-0.9730036,0.21167353,0.5323778
7.3176570000000005,2.1985188,-0.14843093,-0.767526,0.19676842,0.25717425
8.353351,2.1330327999999996,-0.05467399,-0.67968357,0.16589354,-0.03452261
9.341304,2.3260818,0.18984103,-0.55618405,0.21486749,-0.12822933
11.396841,2.8514178,0.69670314,-0.19846138,0.39053488,-0.3336895
12.740419000000001,3.1254482000000006,1.0295546,0.2401573,0.32400292,-0.98101467
13.528053,3.7217290000000003,1.3606726999999998,0.6170437,0.14514159,-1.6384279
13.760042000000002,4.291051400000001,1.5043632,0.83901465,0.055169857999999995,-1.9306832999999999
13.584910999999998,4.211496400000001,1.6928251,0.78951716,0.2271197,-2.030743
13.584577,3.9026635,2.056648,0.61650264,0.5140344,-2.1590421
13.60666,3.8561587,2.345791,0.5994857,0.85739297,-2.275089
13.804881,3.8246129,2.4717069,0.8517905000000001,1.0969394,-2.3730369
15.112048000000001,3.1329277,2.458031,1.2947026000000001,1.0980041,-2.54284
15.547657999999998,2.981528,3.0911827,1.7796425,0.97717494,-2.771199
14.276414,4.2489230000000004,3.829679,2.0889323,0.85739297,-2.9612477000000004
15.374213000000001,4.153078,3.5065574999999995,2.260341,0.79724896,-3.0293853
17.059089999999998,2.2261095,3.2166579,2.2991919999999997,0.765833,-3.037379
18.256153,0.44579077,2.8956432,2.2028325,0.7109948,-2.9990516
17.344248,-0.20018399,2.9368331000000003,1.9936372,0.5939005999999999,-2.8893926
15.339917999999999,-0.25083572,3.209073,1.7104401999999999,0.44591418,-2.6205595
13.439449,-0.30516493,3.4664017999999994,1.3974328,0.3069685,-2.1675593999999996
12.027607000000001,-0.18991765,3.373363,1.0705850000000001,0.12650147,-1.5761371000000002
10.796978999999999,-0.11824483400000001,3.0671353,0.661759,-0.1470789,-0.97141534
9.808852,-0.23399013,2.5319927000000004,0.14755014,-0.35096827,-0.47474700000000003
9.033629,-0.5923351,1.8758857,-0.4087212,-0.44785148,0.010175269
8.222493,-1.0580169,1.4057028,-0.75527376,-0.41432372,0.5259899
7.7911152999999995,-1.479722,0.84927124,-0.8308639999999999,-0.32915163,0.98113686
7.3281054,-1.9544346000000001,0.27511293,-0.60515803,-0.23492132,1.3878335
7.033388599999999,-2.5146012000000004,-0.2362694,-0.09944886,-0.22959806,1.6348325000000001
6.847714,-3.172097,-0.49486235,0.29073694,-0.4169766,1.5629772
6.861638,-3.7901936000000003,-0.67686,0.2987131,-0.73263687,1.377728
6.476038,-3.9905595999999997,-0.8326459,0.13795082,-0.85400707,1.4772642
6.527503500000001,-3.671882,-0.9726300999999999,-0.117006876,-0.7746993000000001,1.8232756999999997
7.4099584,-3.4565089999999996,-0.9365254999999999,-0.6110049,-0.49628437,2.1714165000000003
8.208339,-3.4923072,-0.37404135,-1.1896514,-0.13749704,2.3710299
8.325032,-3.4305272000000007,0.7483987,-1.5031823,0.10735519999999998,2.3784997000000003
8.272206,-3.1261666,1.6750792,-1.5138288,0.20795599,2.3188619999999998
9.165962,-2.7730599999999996,2.3032317000000004,-1.374883,0.18826866,2.2177374
10.451350999999999,-1.9433831000000001,1.9729657999999999,-1.1864573999999999,0.1552645,2.0425937
11.560393,-1.1375523,0.64697075,-0.9932145,0.055710907999999996,1.7625905
12.976811999999999,-1.391194,-0.3890865,-0.9463699000000001,-0.14601424,1.5480721000000002
14.383923000000001,-2.4738042,-0.73884106,-1.0118546,-0.274837,1.5044215
15.099685000000001,-2.7029388,-0.7873093000000001,-1.0719987,-0.28654817,1.6428261000000002
14.800495000000002,-2.2347479999999997,-0.84039354,-1.1076558,-0.36267942,1.7647198
13.528514000000001,-1.1547331,-0.5543821999999999,-1.1497182,-0.54154074,1.800918
11.606285,-0.08391198,0.12730450000000001,-1.1529121,-0.6165899,1.8509566000000002
9.3756075,0.82193905,0.42813113,-1.11352,-0.47233847,1.7641788
7.91005,1.6051686,0.55302227,-1.0847745,-0.28708920000000004,1.5304966999999998
7.025258,2.3318662999999997,0.614084,-0.9830916,-0.09384635,1.2851033
6.3078403,2.655725,0.25809494,-0.7313104,-0.008674286,1.0269169
5.6981525,2.2743477999999997,-0.047309425,-0.39859828,0.0019547688000000002,0.7405257
5.8329268,1.6220430000000001,0.23385605,-0.2750988,0.047193702000000004,0.37322122
6.7966027,1.3225379,0.59076446,-0.506128,0.1728225,-0.047298424000000006
8.688348,1.5340608,0.8308263000000001,-0.6445326,0.41823325,-0.24851742
10.737908000000001,1.7296288,1.136949,-0.32246703,0.65725607,-0.5050808
12.1400585,2.2358205,1.9215384999999998,0.32426473,0.45656067,-1.0459409
13.026334,3.1867495,2.519112,0.9311156999999999,0.0051487214,-1.5649669
13.087328999999999,3.8225824999999998,2.7920895,1.156298,-0.16198401,-1.794914
13.351391,3.9984221,3.0400902999999997,0.965202,0.06955137,-1.9029848999999999
13.95471,4.146039,3.1662263999999998,0.6117379,0.4752008,-2.0977986
14.130999999999998,4.491436,3.1363466,0.5302834,0.8536754000000001,-2.246326
14.062651,4.7373400000000006,2.5554943,0.8188038000000001,1.1129091999999998,-2.3831425
14.622453,4.1975050000000005,2.157645,1.2947026000000001,1.1001508,-2.627471
14.255335999999998,3.7731277999999997,3.0583245999999997,1.7556965,0.9159488000000001,-2.9340903999999997
13.909613,4.1841927000000005,3.6959864999999996,2.0410404,0.7860788000000001,-3.1416974
15.787576999999999,3.501635,3.5515206,2.2358716,0.7807556,-3.212488
17.871164,1.6822426,3.1285032999999998,2.2550178,0.7557275999999999,-3.1810894
19.081856,0.39079118,2.7161357,2.1267362000000003,0.66896725,-3.0671717999999997
17.824745,0.20321983,2.649778,1.9201938000000003,0.5369505,-2.8505065
15.542563000000001,0.33474770000000004,2.791639,1.6604189999999999,0.37671188,-2.4832196
13.319624,0.23688231,3.2954845,1.3410236999999998,0.25108308,-2.0190318
11.820021,0.33962232,3.2597632,0.91783375,0.05092871,-1.5335336000000002
10.613458,0.4345859,2.733192,0.40519562,-0.22586305,-1.0129193
9.560814,0.11435665,2.0696437,-0.10634291,-0.33658674,-0.50775117
8.719061,-0.47894567,1.6473353,-0.60674626,-0.3461686,0.029880037999999998
7.976033999999999,-1.0274286,1.2548873,-0.87982047,-0.27909559999999994,0.53558916
7.42962,-1.673432,0.5539704000000001,-0.8989841999999999,-0.18647097,1.0136174
7.09922,-2.1917002,-0.023913287000000002,-0.55457836,-0.19498818,1.4511889
6.9079995,-2.8222275000000003,-0.38192308,-0.06588618,-0.31422907,1.6268563
6.981176400000001,-3.3509629000000003,-0.54458517,0.10070549999999999,-0.6096784000000001,1.5895934999999999
7.2724833,-3.6561854,-0.7685579,0.11189306,-0.7006973000000001,1.6423025000000002
7.2706065,-3.6654942000000004,-1.0484209,0.04907866,-0.60913736,1.8121055
7.196203999999999,-3.4381216,-1.018685,-0.14786429999999998,-0.43240532,2.0128009999999996
7.781136,-3.431753,-0.7155406999999999,-0.50611055,-0.19231783,2.1394944
8.118,-3.5680977999999994,0.12778333,-0.84201664,-0.0022863813,2.1549232000000003
8.128458,-3.433649,1.1673553,-1.0123608,0.13398893,2.1613286
8.245784,-3.3131633000000003,1.9751302,-1.0091668,0.14248867,2.1783454
10.194827,-3.1300547,2.1777563,-0.9772273000000001,0.061575215,2.0958438000000004
11.66569,-2.231262,1.4675499,-1.0086257,-0.06723008,1.9361461
12.443777,-1.9039457999999998,0.49649996,-1.0879510000000001,-0.16730726,1.8312693
13.885317,-2.1275067,0.26413792,-1.1592826,-0.13004448,1.7482265
15.248681,-2.5373172999999998,-0.056675542,-1.2934285,-0.21361084,1.7104401999999999
15.391689999999999,-2.2073869999999998,-0.36196500000000004,-1.4856068,-0.25513223,1.7317331000000002
14.034829,-1.3225091999999998,-0.6037028,-1.5580031,-0.35201547,1.7492912
11.981092,-0.46167870000000005,-0.55059934,-1.5319104,-0.3770435,1.7934828999999999
9.559511,0.17336893,-0.36899436,-1.5271282,-0.3898193,1.7519615000000002
7.582772,0.92594314,-0.41318175,-1.5042294,-0.3003886,1.6758476000000002
6.7751884,1.6657706,-0.59037185,-1.3674131999999999,-0.10981612,1.5315788000000001
6.1996417,2.0185323,-0.60294616,-1.1230844,0.01420698,1.3037435
5.9663982,2.0447726000000004,-0.27207708,-0.7797433000000001,0.042952552000000005,1.0785611000000002
6.2854595,2.014893,-0.12130941,-0.49813443,0.034958944,0.8001636
6.7538996,1.6917716,-0.08121132,-0.44649014,0.060510565,0.41954225
8.319303999999999,1.7263727,0.40416040000000003,-0.49759337,0.15474088,0.13955653
9.748318,1.6138548000000001,1.1215303,-0.34376004,0.43952626,-0.020664698000000002
11.483539,1.6560788,1.5879303,-0.017976891000000002,0.5444031,-0.5876
12.398133999999999,2.0466401999999997,1.9889878,0.3471809,0.3043156,-1.3749006000000001
12.598442,2.6118443,2.589875,0.6521946,0.09299114,-1.7736211
12.936494,3.061188,3.0243077,0.67509335,0.12067206,-1.9029672999999998
13.699564,3.1726906,3.1568794,0.52178365,0.39322270000000004,-1.8694221999999998
14.281260000000001,3.2792232000000006,3.12609,0.37805578,0.6514091999999999,-1.9801457999999998
14.140020999999999,3.739657,2.8247366,0.43661156,0.82227695,-2.1489017
14.684443,3.7749856,2.5283535,0.7017095999999999,0.86592764,-2.337345
16.132898,3.2259665,2.6042976,1.0844428999999998,0.7999193,-2.5513396
15.527816,3.9065616000000003,3.190293,1.4687992,0.77543235,-2.7871509999999997
14.743704999999999,4.8069444,2.9661381,1.7109987000000002,0.7717148,-2.9223619
15.429797,3.5331619,2.6675812999999997,1.8265220000000002,0.7653094,-2.9473898
16.941553,1.2563525,2.5213625,1.8366273999999998,0.7413635000000001,-2.9021334999999997
17.456201999999998,-0.074890636,2.3664577,1.7493435000000002,0.7083593,-2.8089852000000004
15.974248000000001,-0.15532623,2.423775,1.6072038,0.6375688,-2.6322532
14.189178,0.25597847,2.4025432999999996,1.4054613,0.526304,-2.3714137
12.543251,0.5574755,2.4073794,1.1685678,0.39002872,-1.9892040000000002
11.233374000000001,0.6160185,2.3863964,0.9018639999999999,0.20425588,-1.4755013000000001
10.045726,0.5584332,2.2835224,0.5904623,-0.032620203,-0.97563905
9.093839,0.2619927,2.0197964,0.19493583,-0.21945770000000003,-0.51572734
8.257305,-0.26592878,1.3851126,-0.17235126,-0.30410618,0.0027401668
7.507441,-0.8060798,0.84788257,-0.3554712,-0.31634092,0.52496016
7.1338973,-1.2720777,0.47302723,-0.42360887,-0.32220525,0.9550791
6.946326299999999,-1.6835357,0.15863024,-0.38208747,-0.38343138,1.3005495
6.9355135,-2.1049056,-0.08692867,-0.212808,-0.35414475,1.6577486000000001
7.267321000000001,-2.5826062999999997,-0.19892943,-0.19203858,-0.45155159999999994,1.7194984
7.460036,-3.1457992000000004,-0.39401856,-0.30702087,-0.48190287,1.6497549999999999
7.194480400000001,-3.3540370000000004,-0.51137275,-0.33363715,-0.426541,1.7173691000000002
6.950482400000001,-3.08898,-0.56839305,-0.19523253,-0.39618975,1.8924953999999998
7.1210265,-3.0437868,-0.44447875,-0.2947861,-0.45793948,2.0085423
7.843586999999999,-3.2182858,0.087886356,-0.62906903,-0.3296578,2.1208717999999998
8.389475,-3.1495438,0.8446169,-0.86756825,-0.07201228,2.168781
8.617028,-2.766452,1.1866908999999999,-0.8377406,0.05359906,2.1336473999999996
9.752052,-2.6796767999999997,1.2943053999999998,-0.6588792,0.12334242,2.0069542
11.08273,-2.281157,1.1660815,-0.6642024999999999,0.073303826,1.7211040000000002
11.829694,-1.5643331,0.56182337,-0.92610663,-0.07679449,1.4182021999999999
12.660644,-1.5376521,0.5176264,-1.2593423000000001,-0.08796459400000001,1.205813
14.334545,-2.2523212000000004,0.5149928,-1.486113,0.04082325,1.2318883
16.060457,-2.339518,-0.01778413,-1.5521213,0.15847589,1.2877737
16.336748,-1.9417262999999998,-0.65832883,-1.5106,0.007819075,1.2957673
14.400395000000001,-1.0105447,-0.41632295,-1.3711307,-0.37969637,1.4235255
12.050525,-0.0031124623,0.10259633,-1.1613944999999999,-0.64212406,1.5055034999999999
9.58105,1.0491391,0.45793417,-0.9995674999999999,-0.7209081999999999,1.5214733
8.153894000000001,2.1069646,-0.032139762999999995,-1.0070200999999999,-0.5574931,1.4448185
7.187106,2.798314,-0.8725236999999999,-1.1550065,-0.2881364,1.3122607
6.0387129999999996,2.8976064,-1.0963048999999998,-1.2151506,-0.002268928,1.1573627
5.6112237,2.2512295,-0.37099590000000005,-1.0634465,0.11110766,0.9518851
5.3204910000000005,1.5408412,0.512838,-0.7717321999999999,0.12386601400000001,0.6734701999999999
6.0685163,1.4779981000000002,0.59434617,-0.64345056,0.09937905,0.29019588
7.3133287,1.1912782,0.56158394,-0.650362,0.19041543,0.036808994
8.698518,1.1750264,0.8035707,-0.45233697,0.53269196,-0.13617058
10.249606,1.5572846000000002,1.7578706999999998,-0.11484266,0.6114935,-0.76005596
11.542322,2.0395630000000002,2.3225002,0.25298548,0.44699627,-1.4717664
12.378339,2.5497673,2.3639486,0.52019536,0.21170844,-1.8161896
12.735123,2.9042242000000003,2.6139607000000002,0.50850165,0.2585531,-1.8752689999999999
13.295653,3.0374757999999997,2.890759,0.29077184,0.48267079999999996,-1.8284243000000002
14.029007,3.1735528,3.2012009999999997,0.14597934,0.692407,-1.8986913
14.359751000000001,3.5327307999999995,3.1538434,0.31738812,0.9202423000000001,-1.9503356
14.691473,3.3899884,2.8708105,0.753895,0.9857096,-2.0562596
15.592401500000001,3.0919103999999997,3.0595791,1.2436343,0.8334645,-2.2340562000000004
14.521628,4.1081533,3.4105498999999995,1.5891223,0.67057294,-2.4012065
14.746128,4.42414,2.9344006,1.8222633999999998,0.5859245,-2.4901134999999996
15.648388,2.8357308,2.5608093999999997,1.8978709999999999,0.5859419,-2.5268352000000003
17.272451,0.65423954,2.0976367000000002,1.8148108,0.6024353,-2.4874432
17.411507,-0.37828390000000006,1.9228697,1.6647124,0.51406926,-2.3405213
14.953973000000001,-0.3414802,2.0609669999999998,1.4592348,0.3554363,-2.0743587
12.716898,-0.08756074,2.5473444,1.2313996999999999,0.20266764,-1.7027956000000002
10.997794,0.07132806,2.8219786,0.9918531999999999,0.08395033,-1.2907757
9.923669,0.2523297,2.6174276,0.6559471,-0.09489355,-0.92347115
8.851249000000001,0.32530496,2.0270653000000003,0.2700199,-0.2263692,-0.50984555
7.9700484,0.056062627999999996,1.5020742,-0.027000242999999997,-0.27056095,-0.12391838
7.330155,-0.24350946,1.1967847,-0.1680752,-0.30089477,0.2785022
6.9807453,-0.7195821,0.7089231,-0.18563321,-0.30462977,0.68999845
6.657489999999999,-1.333034,0.10784442,-0.11430161400000001,-0.31101766,1.014717
6.637838,-1.9941976000000003,-0.23855826,0.058677968,-0.38927823,1.2441405
7.056431,-2.5920107000000003,-0.47415727,0.15929620000000003,-0.44516367,1.3681636000000001
7.567775,-3.0366714,-0.4678749,0.009162978,-0.59527946,1.3378298
7.803786,-3.144286,-0.52839077,-0.1648638,-0.53298867,1.3788276000000002
7.5236735,-3.0314329,-0.70420176,-0.24684192,-0.4079009,1.4762343999999998
7.683357000000001,-2.992005,-0.44131842,-0.33787829999999996,-0.27321383,1.5523657
8.628559,-3.0741262000000003,0.17118542,-0.5736897,-0.09967575,1.5076503
9.117972,-3.1953304,0.71533,-0.91704834,0.040840704,1.3798921999999998
9.158567999999999,-2.9260495,1.2223165,-1.1113383999999997,0.11058406,1.3825451000000002
9.643702000000001,-2.5060012,1.3494487,-1.1251963,0.18189822,1.4400363
11.911182,-2.3785436,0.9790561,-1.1113559,0.19360937,1.4597236
12.248401,-1.7168150000000002,0.23934355,-1.1501894,0.17126916,1.442183
12.372401,-1.429597,0.012737153000000001,-1.1587241000000001,0.072239175,1.2883322
13.866382999999999,-1.7210096000000001,0.13428599,-1.0549118999999998,-0.028344147000000004,1.2462872
15.251610999999999,-1.9156008000000002,0.17636646,-1.1411486000000002,-0.10658725,1.2020955
15.332792999999999,-1.3595808999999999,-0.1426178,-1.3226803999999999,-0.19655898,1.1861258
13.967065,-0.54439354,-0.49783114,-1.436598,-0.19497073,1.272886
11.48081,-0.07600154,-0.6787658000000001,-1.4956774,-0.16674876,1.3207954
8.919015,0.120361306,-0.21286368,-1.5973603,-0.21837559999999998,1.2957848
7.282424400000001,0.43348458,0.04168784,-1.7144718,-0.21359339999999996,1.2435994
6.30582,0.9182146999999999,0.08963891,-1.7921914,-0.08157669,1.2095481000000001
5.7277923,1.3855245,0.075829156,-1.6724093999999998,0.15582299,1.1398221000000002
5.6406145,1.5337063999999998,0.39680540000000003,-1.3386501,0.22767820000000003,1.0173699
5.4242363,1.5232294,0.43332177,-0.8973436,0.13452998,0.82201517
6.018487,1.5724063999999998,0.24979186,-0.67430794,0.02274164,0.5356241
6.661033,1.3217143,0.49634674,-0.72699946,0.13720033,0.24656266
8.293016,1.4657398000000001,1.1297854999999999,-0.74829245,0.39749873,0.10815805
9.732152000000001,1.6129928,1.3275273,-0.37566468,0.70996505,-0.07333873
10.968824,1.9157923,1.4313973999999998,0.18058921,0.5896595,-0.71212924
11.608718,2.1790874,1.7592019,0.8284379999999999,0.23726006,-1.338144
11.664944,2.4604063,2.4485693,1.252169,-0.117774814,-1.6303993
12.14906,2.7015597999999996,3.0048764,1.3170953,-0.16036086,-1.7246296000000003
12.989329,2.8842757000000003,3.069673,0.88167053,-0.039531708,-1.8348123
13.816038,3.1711967,2.7570574,0.24767968,0.24260077,-2.0716883999999998
14.195355,3.4526398,2.3521595,-0.16166985,0.64769167,-2.2473557
14.712895999999999,3.1997452,2.3329772999999996,-0.21490239,0.7972838000000001,-2.3697906000000004
15.115371,3.0690217,2.9427707,0.013962634,0.82601196,-2.5087363999999996
13.711295999999999,4.2731905,3.1733131,0.39618975,0.7972838000000001,-2.6599166000000003
13.944683,4.447383,2.723979,0.8252440000000001,0.7296698,-2.6854682
15.044599,2.739005,2.1637454,1.0898011,0.5944590999999999,-2.6141367
17.302809,0.9151309000000001,1.3368456,1.1936132,0.46457174,-2.50926
17.532078,0.52865887,0.64409775,1.1371868,0.36503562,-2.3777668
16.025944,0.98945653,0.13019669,1.0360448,0.30860913,-2.1408906
13.932166,1.2127493999999999,0.18703504,0.938097,0.1702045,-1.7863619
12.150966,1.0070683,0.5519784000000001,0.81566215,-0.03260275,-1.3301678
10.761707000000001,0.7207888000000001,0.91668236,0.6282835999999999,-0.21306979999999998,-0.8468163000000001
9.574910000000001,0.40315485,1.2246438,0.34773940000000003,-0.34508649999999996,-0.4220206
8.572085000000001,-0.14907257,1.3543615,-0.015289084,-0.42865285,-0.021170842999999998
7.3640666,-0.7393678000000001,0.9310379999999999,-0.3362726,-0.44195226,0.41105995
6.754589,-1.1325053,0.28480464,-0.45870742,-0.40256020000000003,0.8177566
6.5811625,-1.3857542999999999,-0.15254895,-0.42676792,-0.40203658,1.0716671
6.595508000000001,-1.8901743000000002,-0.32278627,-0.27612853,-0.51328385,1.2345587
6.435193,-2.6065577999999996,-0.4208049,-0.33255503,-0.683628,1.3250539
6.419956,-3.2327947999999997,-0.55251473,-0.65088564,-0.77201146,1.4017088
6.619259,-3.5019605000000005,-0.6212858,-0.960158,-0.6053849,1.6039925
7.181733599999999,-3.3935032,-0.6528892,-1.027231,-0.40735984,1.8994418000000002
7.763324000000001,-3.2416245999999997,-0.7180211,-0.9936858000000001,-0.4254589,2.051687
8.536086,-3.2458384,-0.5862155,-1.1464718999999999,-0.5015902,2.033588
8.66295,-3.3028779999999998,0.06895301,-1.4216753999999998,-0.45046946,1.9457629
8.830142,-2.8876274,0.7907857,-1.4903541,-0.28120744,1.9122176
9.71862,-2.341941,0.97755253,-1.3902769,-0.04059636,1.8845366999999997
11.757532000000001,-2.1968810000000003,0.34252408,-1.3716542999999999,0.07810348,1.8073407
11.851021000000001,-1.9023178,-0.39744705,-1.4275396999999999,0.08183849,1.6327381
11.61139,-1.7599201,-0.09402508,-1.426475,-0.026214845,1.4128964
12.583111,-2.034966,0.35888126,-1.29287,-0.098087505,1.3548642
14.027484,-1.9909128,0.2876777,-1.1677648999999999,-0.09009389599999999,1.3809569
15.091113,-1.2255344,-0.2995242,-1.1337135,-0.17793632,1.3388944
14.664313,-0.35333627,-0.5199249,-1.0171081,-0.25405014,1.2851382
12.823400999999999,0.28646144,0.16360058,-0.82655305,-0.25457373,1.2276472
10.245411,0.9477208,1.1040716999999998,-0.87552696,-0.2929186,1.1584448999999999
8.435596,1.787195,1.2061414,-0.9314124,-0.18113028,1.0658201999999999
7.058768,2.4576290000000003,0.70570534,-0.7930078,-0.014503686000000002,0.93806213
6.424352,2.7498076,0.6775495,-0.55771995,0.07916813,0.7368431
5.9814153,2.423162,0.9625744,-0.35330700000000004,0.07703883,0.517525
5.9562373,2.0197103,1.4866365,-0.17765707,0.08395033,0.32854077
6.8600582999999995,2.0202465,1.4000813,-0.06852163,0.11110766,0.08206538
7.923936,2.082697,1.2969391000000001,-0.052028265,0.13133602,-0.18088593
9.54462,2.321399,1.8805880000000001,0.004921828400000001,0.25483552,-0.27296948
10.841232000000002,2.6451523,1.7168533,0.16303120000000001,0.30700340000000004,-0.63334507
11.586328,2.8209825,1.3657006,0.45793948,0.19360937,-1.2157091
12.036025,3.14374,1.9604682,0.8619658000000001,0.11269591,-1.5276518
12.290041,3.4747046999999998,2.4545738999999998,1.2468457,-0.012374383999999999,-1.5920718999999999
12.906194000000001,3.5618825,2.1726327000000003,1.4480648,-0.07785914,-1.6181471
13.351323,3.5360062000000005,1.8524705000000001,1.2958196000000002,-0.07677703,-1.7884912
13.77095,3.5312464,1.7254532999999999,1.0738313,0.02274164,-1.9418009999999999
14.147482,3.5460423999999997,1.5937914,0.9636485999999999,0.13294172,-2.076488
15.335532,2.9753895,1.408777,0.9077457,0.2926219,-2.2297978
14.970378,3.2087187999999998,1.6559351999999998,0.9162629000000001,0.42411499999999996,-2.406006
13.485714999999999,4.1229973,1.7258938999999998,1.0205988000000001,0.48160616,-2.5236412999999995
13.363926999999999,3.49088,1.9801388999999998,1.1398396000000002,0.47947684,-2.5369582000000004
14.276423000000001,1.5508298999999999,2.0159466,1.19946,0.45924848,-2.475732
15.365872,0.31235713,2.0027115,1.2079773,0.44753733,-2.3708553
15.646979,0.15336299,1.6516927,1.1409042999999999,0.39962804,-2.2228863
15.006751000000001,0.30837318,1.40554,0.9609608000000001,0.31763247,-1.9514003
13.549170499999999,0.24048320000000004,1.6630412,0.6745871999999999,0.20586158,-1.5723846000000001
11.976649,0.26371652,1.9141451,0.30354765,0.08820894,-1.183246
10.806353999999999,0.28221893,2.029584,-0.0360585,-0.017174039,-0.781349
9.705289,0.030042442000000003,1.9468881999999998,-0.25005332,-0.12683308,-0.3634648
8.573013000000001,-0.35998259999999993,1.8057069,-0.26230553,-0.21680479999999996,0.17416641
7.702674000000001,-0.7348188,1.4277295,-0.12334242,-0.22156955,0.6016324000000001
7.141051299999999,-1.1010838,1.0272179,0.053895768,-0.22052234,0.8917411
6.788692,-1.5238041000000002,0.68899375,0.24286257,-0.3498687,1.1584273999999999
6.495794999999999,-2.0851104,0.23970747,0.35412732,-0.42387065,1.523079
6.316038,-2.7337472000000003,-0.17549498,0.20029399,-0.46378633,1.6343437
6.3086543,-3.093682,-0.4433008,-0.05787512,-0.25991443,1.7306860000000002
6.3456491999999995,-3.2521975,-0.47287399999999996,-0.09993755,0.0014486233,1.8877131999999999
6.3659906,-3.3772800000000003,-0.19015707,-0.14943509,-0.013980086999999999,1.995784
6.995694,-3.6522686,0.40868068,-0.43050292,-0.16887806,2.0926669999999996
8.070997,-3.884554,1.0866611000000002,-0.73872805,-0.17474237,2.193809
9.336056,-3.5413212999999995,1.5199829,-0.89043206,-0.123098075,2.3135736000000002
9.370358999999999,-3.1192234,1.4250193000000002,-0.963893,-0.09328785,2.4094095
10.721188,-3.4482057,0.9023938,-0.9628109,-0.036320303,2.4056745
11.565297,-3.2242427000000005,0.39732257,-0.97825706,-0.10447541,2.3497890999999997
10.536442,-2.2730452999999997,0.40938935,-0.87605053,-0.20985839,2.2960154999999998
10.990181,-2.0686765,0.615645,-0.4975759,-0.3429572,2.2252076
12.724416,-2.237305,0.26931897,-0.09194394,-0.40577158,2.1325830000000003
13.896338,-2.2477627,-0.5705286999999999,0.08635889,-0.5553463000000001,1.9489393
13.822358,-2.0999734,-0.68772966,0.027279496,-0.63893014,1.830222
13.431576999999999,-1.8222845,-0.011683704,-0.052010812000000003,-0.60857886,1.7019403999999998
11.482448,-1.2818364,0.49138597,-0.14252359,-0.5127603000000001,1.5188204
9.813871,-0.3921511,0.7826166,-0.3596949,-0.39351937,1.1871903999999998
9.075652,0.4955423,0.5787169,-0.6556853,-0.3035651,0.7352373999999999
8.660938,0.9782228999999999,0.38283285,-0.7924842,-0.1529083,0.3498338
8.67042,1.2722118,1.042512,-0.7887666,-0.032079153,0.103358395
8.5955,1.5363016999999999,1.6397505,-0.67165506,0.03869395,-0.104754664
9.014533,2.0877345000000003,1.2852267,-0.5646489,0.09833185,-0.38156387
9.35088,2.4639688,0.32445264,-0.59232986,0.22715460000000004,-0.68870693
9.996912,2.7803004000000002,0.09338345,-0.55932564,0.40814525,-0.7840019
10.99315,3.1228914,0.13577038,-0.2202431,0.55771995,-1.0203544
11.772117999999999,3.7338532999999994,0.20736659,0.19015363,0.37779397,-1.5111758999999998
12.220236,4.4175224,0.045844175,0.6490180999999999,0.21755528,-1.8539759999999998
12.333711,4.500801999999999,0.40653545,0.9274331,0.043493606,-2.0072856
12.585284,3.9104018,1.2039771000000001,1.0381566999999998,0.17976889999999998,-1.9391481
13.109594,3.1963167,1.6757209,1.1350573999999998,0.48373544,-1.8885683999999998
13.499054999999998,2.9291238999999996,2.109761,1.2612098,0.6636614000000001,-1.9987683999999997
13.780047,2.9039655,2.3581545,1.3218948999999998,0.6737669,-2.2116987999999997
14.68474,2.2995732,2.265901,1.2878261,0.649821,-2.4688032000000004
14.447006,2.1528566000000002,2.8093083,1.2825029,0.6865427,-2.6998498
13.5366535,2.7355,3.005518,1.2825029,0.76906186,-2.8968103
14.593627,1.9914299,3.0591004,1.2702681,0.86966264,-3.0112514
15.733812,0.31385112,3.117059,1.2351172,0.9335416999999999,-2.9814412999999997
16.987560000000002,-1.2309643999999997,3.2614867999999997,1.1792318000000002,0.8861735000000001,-2.8542242
16.563805,-1.8085991000000001,3.5851927000000003,1.1339928,0.7408399,-2.6274362
15.0222845,-1.3278531,3.7596339999999997,1.0898011,0.57529545,-2.3027349999999998
13.568285999999999,-0.5590174,3.1257071,1.047215,0.41718605,-1.9322366000000002
12.225483,0.08481219999999999,2.277307,0.8779355,0.19734438,-1.6048476999999999
10.906892,0.24878629,1.969499,0.56545174,0.005707226700000001,-1.2950343
9.811266999999999,0.056330778,1.875359,0.18697712,-0.035796702,-0.93891734
8.9447565,-0.3956562,1.723854,-0.18350391,0.0051661744,-0.51677454
8.234541,-0.9878380999999999,1.337832,-0.39962804,0.086079635,0.009145525
7.645682300000001,-1.682396,0.89060473,-0.41772709999999996,0.0993965,0.492497
7.377560000000001,-2.3463368,0.51536626,-0.3416133,-0.04272566,0.87523025
7.3844748,-2.946908,0.3948709,-0.24951227,-0.1481261,1.3106723999999998
7.808621400000001,-3.3806894,0.37536293,-0.22980749999999997,-0.19655898,1.5843052
8.450469,-3.600257,0.11911633,-0.24792401,-0.17420131,1.7253627
9.100638,-3.5867057,-0.32953793,-0.06000442,-0.1656841,1.9063534
8.732888,-3.486676,-0.36799840000000006,0.32272884,-0.27481955,2.038911
8.81841,-3.6429120000000004,-0.17054377,0.4834911,-0.5367236999999999,2.103855
9.083046000000001,-4.053910299999999,0.055420984000000006,0.18217747,-0.70439744,2.1682575
8.916553,-4.1804103999999995,0.46533704,-0.40601593,-0.53937656,2.3082678
8.214314,-3.7697568,0.76400894,-0.9351474,-0.23436281,2.4546485000000002
9.049508,-3.5626297,0.5438094,-1.1102912,0.062133722,2.5430145
10.171708,-3.335669,0.34588552,-1.1571183999999999,0.21863739,2.5451438
9.652819000000001,-2.306909,0.51958007,-1.2455018999999998,0.25961772,2.2938862
9.827814,-1.9374073,0.66762793,-1.3546198999999999,0.056269415,1.9414868000000003
11.587036,-1.950604,0.57281756,-1.3343915000000002,-0.10447541,1.7716663000000001
13.765913000000001,-1.7914183000000001,-0.19088492,-1.2769003,-0.19868828,1.7828538
14.632776000000002,-1.4410508999999998,-1.3602992,-1.2529370000000002,-0.284925,1.8126639999999998
13.902803,-0.9203215,-1.7996161,-1.2923465,-0.49359655,1.8414096000000002
12.177866999999999,-0.6161525999999999,-1.4427458999999998,-1.2588012,-0.64957666,1.8856013999999999
10.333135,-0.00932781,-0.49096456,-1.1757585,-0.64317125,1.9015712
8.832583999999999,0.897184,0.35336503,-1.2375083,-0.57451004,1.777007
8.022444,1.8027476999999998,0.15515386,-1.387624,-0.38341394,1.5896284999999999
8.44909,2.647738,-0.22851220000000003,-1.3477083,-0.111927964,1.4059675
7.664242,2.6242175,-0.26412833,-0.9410117,0.081297435,1.1334168
7.252908000000001,1.9854732,0.43387723,-0.40866885,0.06906268,0.7277848000000001
7.4836516,1.6684043000000002,0.6343293000000001,-0.012095132,-0.06667158,0.14383258
8.213011999999999,1.6687203999999998,0.54952675,0.08370599,-0.0033335788,-0.26392868
9.663936999999999,1.7731457999999998,0.7324438,0.10925761,0.44380233,-0.6062052
11.151607499999999,1.8910745,1.3862715,0.14278539,0.60349995,-1.3264502
12.550377000000001,2.4181821,1.7553425,0.32058206,0.5955238,-1.9114672
13.047758,3.1326501,1.8756081000000002,0.43556437,0.43102652,-2.2372503
12.999634,3.5120354,2.4444703999999997,0.36105627,0.4134685,-2.3431742
13.2684355,3.7297065000000003,3.3120809999999996,0.18219492,0.6178815,-2.3543618
14.00678,4.079202700000001,3.8514182999999997,0.10499900599999999,0.8302706,-2.44751
14.5187845,4.613167,3.7169597000000003,0.33869859999999996,1.1182673,-2.4911609
15.620863,4.416881,3.1985097000000002,0.8348259,1.19014,-2.5891087
16.66443,3.946133,2.9575,1.4086726999999999,1.0352245999999998,-2.7168667
15.132169000000001,4.554164,3.1378026,1.918623,0.87179196,-2.9319437
15.193892000000002,4.0237145,2.793727,2.2939386,0.76906186,-3.1203694
16.382872,1.9848793999999998,2.5054746,2.5217563999999997,0.69347167,-3.2220522999999996
17.984833,-0.03541503,1.9716154,2.49514,0.6168168,-3.2044942
18.078436,-1.003544,1.9968696,2.2529232999999995,0.56623715,-3.10707
16.056513,-1.0653143999999999,2.2899582,1.8739077000000002,0.48373544,-2.8712584999999997
14.017888000000001,-0.8699283999999999,2.8891215,1.4847865,0.42624432,-2.4773377999999995
12.506993,-0.75201875,3.1704977000000003,1.0887364,0.3447898,-1.9620293000000002
11.310162,-0.66881543,3.1528285,0.6692814,0.17818066,-1.4371564
10.288172,-0.5706532,2.716471,0.19710003,-0.08051204,-0.9527403
9.821791000000001,-0.6869921999999999,2.2794907,-0.20692624,-0.25192082,-0.39486328
9.293486999999999,-1.0450402,1.837818,-0.45073128,-0.31686452,0.17629571
8.621818,-1.4738322,1.0245556,-0.624793,-0.36796775,0.6117554000000001
8.087968,-1.9312397000000001,0.26863899999999996,-0.71635294,-0.31738812,0.94977325
7.8065915,-2.4292814999999996,-0.430104,-0.62692225,-0.29396582,1.3644633999999998
7.7262034,-3.0843735,-0.8479879000000001,-0.41666245,-0.37062067,1.6966171
7.588039,-3.61942,-0.9834136,-0.21809635,-0.531924,1.9132823
7.332961,-3.8195372000000005,-1.0229083,-0.002513274,-0.58889157,2.1017080000000004
6.9821916,-3.6811714,-1.209589,0.32059953,-0.5590813,2.2348068
6.965499,-3.6761817999999997,-1.1145871,0.37596136,-0.6139021,2.1283417
7.442845299999999,-3.8887389999999997,-0.47801673,-0.097267196,-0.65861744,2.0032365000000003
8.136148,-3.6860459999999997,0.24553017,-0.7674562,-0.4041659,2.0777620999999997
8.508246,-3.2848735000000002,0.82740736,-1.2343143,-0.052831117000000004,2.1985912
8.858115,-3.2084506,1.2448987,-1.2960466,0.19947368,2.2976213
10.047603,-3.4443657,1.2606716999999998,-1.2444197,0.2665467,2.2779164
10.606198,-2.9725642000000003,1.2378693,-1.249743,0.12175417,2.1182363
11.2303295,-2.5017972,1.2174898,-1.3354386999999999,-0.09700539999999999,1.819593
13.229803,-2.4131446,0.9980181999999999,-1.3280035,-0.35679767,1.7061988999999997
15.485992999999999,-1.9827247,0.27358064,-1.3003227,-0.3546509,1.7977589
16.286587,-1.2329181,-1.0548086,-1.2545427,-0.45633379999999996,1.8845366999999997
14.381107,-0.6610008,-1.5662581,-1.1464718999999999,-0.59419733,1.9505451
12.083008999999999,-0.42528683,-1.0753796,-1.1028212,-0.80234534,1.9372456000000002
9.936539999999999,-0.04617936,-0.041888956,-1.140084,-0.85397214,1.9068942999999998
8.405534,0.70796543,0.30153534,-1.1933165000000001,-0.704921,1.8121405
7.7541966,1.5502934,-0.15968367,-1.27423,-0.43130577,1.582717
7.4556684,2.3071964,-0.7630321,-1.3460851999999999,-0.16940166,1.2425523
7.120902,2.4809387000000003,-0.6085773,-1.2241913999999998,0.014224433,0.947644
6.313758999999999,1.7649769,0.050728342999999995,-0.9351474,0.08662069,0.63463664
6.912309,1.4738226,0.6794935999999999,-0.67270225,0.08503244,0.25029767
8.059352,1.4422385,0.8485242000000001,-0.57316613,0.092484996,-0.13402383
9.784097000000001,1.7709144,0.99327767,-0.43528512,0.3485248,-0.33737215
11.171777,2.1902921,1.2133334999999998,-0.1068316,0.6035174,-0.70095915
12.221413,2.6100054,1.8177834,0.29558897,0.5087635,-1.3024693999999999
13.280301999999999,3.1674043999999997,2.4018729,0.72942543,0.34906584,-1.642634
13.703156,3.7574407999999995,2.6338708,1.0163575,0.26282912,-1.7421702000000001
13.549812,4.0060644,3.0007677000000004,1.143051,0.47734755,-1.7544224
13.5520525,4.0145206,3.4497093999999997,1.2393931999999999,0.6823016,-1.9865162
13.700887,4.045291000000001,3.6238256,1.4965152,0.9090722,-2.230845
14.383779999999998,3.8772947999999996,3.5045655,1.8776602,0.99476784,-2.4682619999999997
15.846195999999999,3.176416,3.5239296,2.2433765,0.94155276,-2.7301662
15.517415,3.24784,4.110394,2.448313,0.87713265,-2.984635
14.416474,3.7951066,4.2005024,2.5702066,0.8893674000000001,-3.2066061
15.666507000000001,2.6718237,3.9236752999999998,2.572336,0.9090722,-3.3088126000000004
17.370642,0.5901995,3.7455754,2.4616125,0.92610663,-3.3066833
17.997951999999998,-0.3863284,3.6457562000000006,2.2822275000000003,0.8861735000000001,-3.215647
16.442133,-0.21332337,3.6086462,2.0607626,0.808995,-2.9984756
14.839032000000001,0.26487532,3.5945013,1.8036756999999999,0.7168939999999999,-2.6598992000000004
13.420191,0.28542715,3.415836,1.4890625,0.6162932,-2.1680305
12.20068,0.16063178,2.9857993,1.1126996999999998,0.48321185,-1.5478802
11.057171,-0.04417781,2.3696277,0.6607642,0.34960690000000005,-0.9474171
10.210677,-0.21694339999999998,1.8584656000000002,0.108210415,0.12601277,-0.57744217
9.39568,-0.64804333,1.4209969999999998,-0.36236525,-0.2311514,-0.2750988
8.736078,-1.1355316999999998,0.9096626,-0.59815925,-0.44673450000000003,0.1731192
8.2726755,-1.6027168999999999,0.41100782,-0.6439391999999999,-0.4552517,0.6186669
7.993023399999999,-2.1480587000000004,0.031507692999999996,-0.58327156,-0.35838592,0.97478384
7.8040247,-2.7473848,-0.18712123,-0.46509534,-0.26789057,1.2739681999999999
7.7632184,-3.3266763999999998,-0.37820724,-0.42462116,-0.3088709,1.3735218
7.6262603,-3.7524898,-0.6660189999999999,-0.5017996,-0.40043090000000003,1.4491119
7.185822999999999,-3.7112233999999997,-0.73873574,-0.54120916,-0.42491785,1.6018807
7.413875599999999,-3.26119,-0.6923552,-0.5449267,-0.45738098,1.9212759
8.028783,-2.8513985,-0.8241799999999999,-0.6662969,-0.4722861,2.268352
8.1116705,-3.030322,-0.31521103,-0.9702634,-0.47017425,2.4897994999999997
8.14516,-3.247792,0.70947856,-1.2566545,-0.365821,2.5893357000000004
8.044048,-2.9628725,1.6865427,-1.3013698,-0.18217747,2.624469
9.147814,-2.8213081,1.9086001,-1.1650945,-0.07038913,2.5973291
9.961267,-2.2756982000000003,1.582711,-1.0565002000000001,-0.11564551,2.4530602000000004
10.045122000000001,-1.8434396,1.1236466999999999,-1.0580884,-0.23488641,2.2129903
11.19205,-2.1553178,0.80012304,-1.1810642,-0.26628488,2.013377
13.119717999999999,-3.0219326,0.5932065,-1.2353615,-0.24392721,1.9351163
14.412223000000001,-3.3847787000000005,0.21945253,-1.2513312,-0.14863224,1.9782435
14.295884,-2.9367757,-0.20548955,-1.2252386,-0.27586675,1.9271401999999997
13.346095000000002,-1.8719113999999997,-0.19459113,-1.0570238,-0.50370204,1.9585386999999999
11.960484,-0.9168069,0.36345900000000003,-0.7993783,-0.67031115,1.9345927
10.471606,-0.028069621,0.9437751,-0.6561739999999999,-0.7709294,1.829716
9.28818,0.87143195,0.77071273,-0.73178166,-0.69533914,1.6721476000000002
8.891739,1.7578898999999997,0.24267629,-0.87283915,-0.478674,1.494892
8.278258000000001,2.2929077,-0.031593885,-0.9367181999999998,-0.20347048,1.2345761
8.1613455,2.2187259999999998,0.22233514,-0.95055866,-0.061871924,0.95511395
7.6241918,1.9216247,0.7140371,-0.9463001,0.013177236,0.595262
7.886337299999999,1.724419,0.65613574,-1.0378774,0.12548918,0.15076154
8.452375,1.5849903,0.79753727,-1.1379371999999999,0.34428364,-0.20162043
9.46607,1.8118457,1.1539191,-0.9628109,0.62961006,-0.36503562
10.619501,2.2122998,1.4758625,-0.44964918,0.67591363,-0.73607516
11.9055605,2.7218435000000003,1.5548520000000001,0.2727077,0.44116688,-1.3498377000000001
12.787307,3.1779196,1.576055,0.93972015,0.11006046,-1.7852799
13.326156,3.5970964,2.0127287,1.2037361999999998,0.010506882,-1.9907749
13.934004999999999,3.8653907999999997,2.2748172,1.0967649,0.24687682,-2.119039
14.412260999999999,3.9622314,2.3010479999999998,0.83538437,0.5950002,-2.3724434
14.573093,4.1861752999999995,2.4809387000000003,0.857201,0.9782745,-2.5709922
14.832041,4.057243,2.6257593999999997,1.2367578000000001,1.1768406999999999,-2.7551767999999996
15.523746,3.336071,3.0552502,1.6477130000000002,1.1225435,-2.9462729
14.714687,3.424168,3.779487,1.8883240000000001,1.0336537000000001,-3.2342696
14.264911999999999,3.8089545,4.1018996,2.0772908,0.95326394,-3.4440057
15.911663,2.7029197,3.9026828,2.1683272999999996,0.8611629000000001,-3.4850037000000005
17.846409,0.9606302999999999,3.3757572,2.1193532999999998,0.79676026,-3.4035492
18.770943,0.058763288,2.7884597999999996,1.9703022000000001,0.7546978,-3.208718
17.066664000000003,0.22901976,2.6357098,1.7573720000000002,0.62906903,-2.842478
14.917235999999999,0.37714422,2.5859005,1.4800216999999998,0.4044277,-2.3447626
13.027541000000001,0.29005274,2.9891607999999996,1.1196462,0.14678219,-1.8661933000000002
11.560661,0.08492713,2.7476432,0.6873979,-0.16193165,-1.3264153
10.476586,-0.016050728,1.9490238000000002,0.20828760000000002,-0.3131295,-0.787702
10.009294500000001,-0.27951825,1.4124641000000002,-0.25747097,-0.31206486,-0.24846508
9.001366,-0.83930176,1.0409894,-0.5710019000000001,-0.3099181,0.22317526
8.220894,-1.5183932,0.61964816,-0.7338935000000001,-0.3487866,0.683628
7.823868300000001,-2.1397173,0.31293175,-0.7386756999999999,-0.30353022,1.107359
7.698249000000001,-2.8030262,-0.13410401,-0.48741809999999997,-0.2343279,1.4629524
7.443812400000001,-3.4322317000000004,-0.5803353,-0.08019788,-0.1795071,1.7051518
7.4354043,-3.806838,-0.94605446,0.13377948,-0.36740926,1.6439431
7.248053,-3.6813724000000003,-1.2484612,0.09864601,-0.5500056,1.6061566999999999
6.713849000000001,-3.3912814,-1.172431,0.041154865,-0.5963092,1.7397616000000002
6.761235000000001,-3.0847757000000002,-0.7659434,-0.13343042,-0.5537406,1.981961
7.557805,-3.0889895,-0.33083078,-0.5646140000000001,-0.45364597,2.2369535
8.178152,-3.1028278,0.37603334,-1.1075859,-0.17205456,2.4498837000000004
8.203339999999999,-3.1804576,0.97894114,-1.3205161,0.05256932,2.5323856
8.539045,-3.0158036,1.7465221999999998,-1.2028635,0.11325441,2.540379
10.076975,-2.972909,2.054273,-0.9936683000000001,0.06534512,2.4472134
10.705788,-2.3343656000000004,1.6753282999999999,-0.8834681999999999,-0.03843215,2.2039495
11.419883,-1.7677732,0.6043156999999999,-0.98354536,-0.14383258,1.9841077
12.940469,-2.0941028999999998,-0.04776911,-1.1336612,-0.21144664,1.8068346999999998
14.90177,-2.782206,-0.39327157,-1.2209625,-0.14063863,1.8494206999999998
15.389448999999999,-2.8194025000000003,-0.83670646,-1.2582253,-0.14063863,1.8856362000000002
14.254914000000001,-2.159005,-0.86652863,-1.3631022,-0.32323498,1.9447156000000003
12.671992,-1.3125875,-0.4030878,-1.351391,-0.5143485,2.0043187
10.888886,-0.37995982,0.52173483,-1.2832358999999998,-0.6048264,1.9574915000000002
9.33437,0.49600200000000005,0.60522544,-1.259831,-0.5686456999999999,1.8158754000000001
8.487789999999999,1.4985117000000001,0.27345616,-1.2555549,-0.41905355,1.6343613000000001
7.8555098,2.152301,-0.16270037,-1.2491671,-0.22422245,1.3953558000000001
7.2226360000000005,2.289096,-0.32233614,-1.1043745,-0.027785642000000003,1.1632619
6.737245,1.7641148999999998,0.258162,-0.8313003000000001,0.06482153,0.85131925
7.0094466,1.554718,0.5955146,-0.6471157,0.10580186,0.34241614
7.7913356,1.4494018999999998,0.33857843,-0.6354046,0.21865484,-0.14411184
9.025882000000001,1.4157202,0.233789,-0.5486268,0.48268825,-0.36184165
10.674941,1.8928846000000001,0.9499618000000001,-0.14353588,0.661026,-0.6945363
12.036676,2.5202134,1.5276443000000002,0.504278,0.5130395000000001,-1.3157688
12.8162,3.1006732000000006,1.9943988000000001,1.1249694,0.20109683,-1.8315834
13.446449,3.6396272000000005,2.3009236,1.3714448000000001,0.021170842999999998,-2.107328
13.924782,3.8836440000000003,2.7218914,1.2719086000000002,0.2122844,-2.2436032000000004
14.255087,4.1477437,3.214168,0.9413259,0.50984555,-2.4469516
14.416178,4.666347,3.4032907,0.75661767,0.8452105999999999,-2.6268775
14.859853,4.965555,3.1932428,0.98019433,1.1150908000000002,-2.7929630000000003
15.519943,4.277902,3.2195213,1.3847617,1.1108497,-2.9670248
15.241458999999999,3.8957492999999994,3.7900307,1.6977689999999999,0.9948028,-3.2411811000000004
14.233576999999999,4.368355,4.1030774,1.8888651,0.9090896,-3.5073437999999997
15.612932999999998,3.7736351000000004,3.9140122,2.020882,0.8558571,-3.6138089
17.250519,1.8407005,3.284883,2.0421748,0.8233940000000001,-3.5951687999999993
18.999254,0.39349186,2.7827327,1.9719254000000002,0.7877194000000001,-3.4759278
18.324453,-0.05556463,2.5998924,1.8430852,0.7323576,-3.2140237999999997
16.367414,0.04196557,2.46236,1.6887282,0.597688,-2.8195794
14.478054,-0.062086437,2.823434,1.4731277,0.38474038,-2.2702196
12.993888,-0.17602171,2.987686,1.1776783000000002,0.10101966,-1.5994896
11.708077000000001,-0.19830695,2.368258,0.76941097,-0.18641862,-1.0165845
10.827067999999999,-0.2815581,1.7922037,0.25996679999999994,-0.3791204,-0.5018345000000001
9.925096,-0.700438,1.4324412,-0.27714083,-0.4318119000000001,0.012915436
8.970509,-1.3087951999999998,1.0981534,-0.64709824,-0.38709658,0.4680624
8.374544,-1.9396863999999998,0.66855687,-0.765292,-0.33175218,0.9002931999999999
7.8731117,-2.5920682,0.25129542,-0.6098355,-0.26466173,1.3415997
7.513838000000001,-3.3008761,-0.08938991,-0.21219712,-0.32375857,1.7317855
7.182883,-3.9111008999999997,-0.46148714,0.13114405,-0.5191133,1.9037353
6.8379073,-4.3209114,-0.8055531,0.15083136,-0.6894574,1.8898948
6.415263700000001,-4.198319000000001,-1.0043389,0.056618482000000005,-0.6814638000000001,1.9867781000000002
6.5145464,-3.7805882000000004,-1.0794593000000001,-0.13873622,-0.5404063,2.2204776
6.818303,-3.5150425000000003,-0.92148036,-0.53691566,-0.38177332,2.3466299999999998
7.395392,-3.513089,-0.39692035,-1.0676353,-0.22314034,2.4749117000000003
7.7815576,-3.4134612,0.6567008000000001,-1.4370691999999998,-0.030438542000000002,2.5478492000000004
8.009582,-3.4643717000000005,1.4791954,-1.4173645000000001,0.037140608,2.6069459999999998
9.172742,-3.4965591000000003,1.8918407,-1.2677896999999998,0.006806784000000001,2.5899115000000004
10.606447,-3.0937683999999996,1.7096133000000002,-1.1065038,-0.07143632,2.460024
11.687248,-2.3760154,0.8701295,-1.0772171999999998,-0.20504127,2.2486822999999996
13.338817,-2.0243742,0.15365028,-1.2773889999999999,-0.35943309999999995,2.0336227
14.826429000000001,-2.4879107000000005,-0.26682898,-1.4988190000000001,-0.44619343,1.9814547999999998
15.476168,-2.3668982999999995,-0.65495783,-1.6989733,-0.30885348,2.049069
14.788447,-1.6426523000000002,-1.1090708,-1.858671,-0.24178046,2.0320343999999997
12.89245,-1.0632553999999999,-1.0772376000000001,-1.9342611,-0.2502802,1.9245047999999998
11.110800999999999,-0.44301352,-0.30186096,-1.8985866000000002,-0.36367425,1.8164339
9.286907000000001,0.28639442,0.32463458,-1.7309128,-0.3913552,1.7482963
8.347202000000001,1.1706306,0.1898602,-1.4445218,-0.3279997,1.6391783
7.9542375,2.0439298,-0.053802499999999996,-1.1921821000000001,-0.25347418,1.3634336999999999
7.6014276,2.4526105,-0.66464955,-0.87971574,-0.12945107,1.0679845
7.305504300000001,2.3282366000000003,-0.63132226,-0.5267927,-0.033632495,0.7714879
7.376286500000001,2.0132936999999997,0.11191457,-0.3260973,0.07494444,0.39353684
8.217867,2.2704406,0.7909102,-0.33567917,0.27616346,-0.022200587999999997
9.445279,2.4677804,1.1231105,-0.25902432,0.53115606,-0.27398178
11.032003,2.5486276,1.5116031,0.18065903,0.68924797,-0.54920274
12.24501,2.6319267999999996,2.1095118999999998,0.90355694,0.5290093000000001,-1.1374136000000001
12.715088,2.9432110000000002,2.996353,1.4529166999999998,0.23357742,-1.7181894
13.004547,3.585748,3.5709998999999994,1.6642587,-0.008604473,-2.1105044
13.475639000000001,4.063343,3.7830013999999994,1.5583347,0.17343336,-2.3191759999999997
14.014123999999999,4.1897763999999995,4.069827,1.1425624,0.47525316,-2.4975138
14.502628,4.32299,4.0744524,0.76728165,0.802642,-2.6364419999999997
14.488665,4.603552,3.8575663999999996,0.7938979,1.0171603999999999,-2.7168145
14.923432,4.1448708,3.6470968999999998,1.1846248,1.045906,-2.7663292999999998
15.389441,3.5233552,3.902386,1.599315,0.958081,-2.9334795
14.9769,3.9609482000000003,4.213364,1.9096520000000001,0.894202,-3.0931773
16.010803,3.7027477999999996,3.7514842000000006,2.1199293,0.8047713000000001,-3.1639678
17.326387,2.0478947,2.5514145,2.2247887000000004,0.72811645,-3.1783493
18.902136,0.6028600000000001,2.005077,2.226918,0.65891415,-3.0777485
18.697354999999998,-0.07704541,1.5699356000000002,2.1247115,0.5322207,-2.8509605
16.65399,-0.19966684,1.2814726,1.9261453000000002,0.35123006,-2.5544639
14.334889000000002,-0.37816894,1.3957046999999998,1.6711702000000002,0.16172221,-2.1371207
12.36701,-0.54224837,2.1427817000000005,1.3246176,-0.074612826,-1.6404699
10.737113,-0.48265192,2.1253805,0.875876,-0.31363568,-1.0543708999999999
9.788311,-0.403672,1.9463998,0.29670596,-0.40200168,-0.48265335
8.697196,-0.7345315,1.4598118,-0.38463566,-0.38229692,0.041678462
7.789314699999999,-1.1426471,1.0659177,-0.96221745,-0.35248670000000004,0.5303532
7.1922584,-1.6122364,0.6034921,-1.2613843999999999,-0.27317894,1.0073168
6.529351999999999,-2.1400046,0.21085255,-1.2997118,-0.23165755,1.4353063999999998
6.4035993,-2.623959,-0.28940153,-1.0388724,-0.2316401,1.862755
6.6320825,-3.0851874,-0.60504353,-0.747699,-0.40626028,1.96922
6.8687252999999995,-3.4983212999999997,-0.95402235,-0.42830379999999996,-0.47492155,2.0208645
6.709683,-3.5306144,-1.1944385,-0.014695672,-0.43287656,2.1853442000000003
6.5155616,-3.2773652,-1.2288575000000002,0.42661083,-0.4413763,2.3285484
7.172712299999999,-3.0519369,-1.1701133999999997,0.5474225,-0.5036670999999999,2.2412294999999998
8.075269,-3.1259367,-0.9145754999999999,0.20621064,-0.47066295,2.1299825
8.521978,-3.2689185000000003,0.073004,-0.34313172,-0.23750441,2.1007133
8.782324000000001,-3.3530029999999997,1.1024053999999999,-0.8791747,0.058451075,2.1470168
10.145353,-3.6377214999999996,1.7464743999999999,-1.2858713,0.27403414,2.1890793
11.580418,-3.4739676,1.9191825,-1.4977368,0.3139673,2.0847435
12.118098,-2.7879042999999997,1.9276292000000002,-1.6851153000000003,0.1409528,1.9186578999999997
13.090824000000001,-2.6453056,2.056236,-1.7782811,-0.004886922,1.7483137999999998
14.9815445,-2.8146427000000003,1.5023425,-1.7016262,-0.17788395,1.6556891
16.148977,-2.1826596,0.5095052999999999,-1.5733271,-0.25240952,1.7525723999999998
15.737491,-1.0714723,-0.8745061,-1.5621395,-0.34662238,1.7877058999999997
13.444773999999999,-0.12197979,-1.6195722,-1.7458005,-0.35993925,1.6535598000000002
10.835830999999999,0.3841736,-1.5759689,-1.9028276999999998,-0.31787682,1.5289956
8.538547,0.84137994,-1.4337916000000002,-1.8581299,-0.23537510000000003,1.5577413
7.188111999999999,1.5234113999999999,-1.2293746,-1.6233656,-0.16510814,1.4619226
6.474533999999999,2.2351885,-1.2429832,-1.3172698,-0.16350244,1.1930896
6.0403314,2.3758621,-1.1671254999999998,-0.93718946,-0.09697049,0.8699768
5.91908,2.1976953,-0.47591940000000005,-0.54379225,-0.035220746000000004,0.5622927
6.1651172999999995,1.652095,0.3018514,-0.37985346,0.065903634,0.21521655
7.2024293,1.9881355,0.7857770000000001,-0.48364818,0.23092452,-0.11267845
8.929319,2.5729241000000003,0.8357392,-0.42722170000000004,0.47420597,-0.22924899999999998
11.13638,2.950873,1.0783388999999999,0.060894538,0.61367524,-0.55024993
12.038582,2.8525286,1.8511871,0.7614348000000001,0.36613518,-1.1634889
12.329889,3.0347369,2.848219,1.433247,0.064315386,-1.6313941
13.061567,3.6002762,3.5312273999999997,1.6988686000000002,-0.14753269,-1.9151323
13.913051000000001,3.9254086000000004,3.9653056,1.6254077,-0.03309144,-2.025315
14.191803,4.0763006,4.2939625,1.4098072,0.23944172,-2.147226
14.268235,4.1861467,4.176005,1.2538445,0.5742831,-2.3255465
14.636789000000002,4.046373399999999,3.4768980000000003,1.3342344,0.80105376,-2.5070782000000005
15.824975,3.1792316,3.2454457000000003,1.5343712999999999,0.84255767,-2.7056444
15.491520000000001,3.053306,3.9346980000000005,1.7457131999999997,0.8356462,-2.9451732999999995
14.51095,3.8364496,4.2026095,1.9703546000000003,0.8218056999999999,-3.137875
15.853848000000001,3.0264146,3.9453762,2.1811554,0.7723081999999999,-3.229435
17.397551999999997,1.2055571000000003,3.2388475,2.2455580000000004,0.6807482,-3.218265
18.628643,-0.07553227,2.5468943,2.1577332,0.5652249,-3.129899
17.6126,-0.4461164000000001,2.3095427,1.9575788,0.44919538,-2.9260097000000003
15.558959,-0.11885775,2.3665247000000003,1.6951509999999999,0.29534462,-2.585845
13.581559,0.077217795,2.3759770000000002,1.3581803,0.12233013,-2.1009052
11.856786,0.08079952,2.2958574,0.91739744,-0.12997466,-1.5425045
10.434448,0.17218141,1.9895912,0.3105639,-0.30457740000000005,-0.99794436
9.397663,-0.02237142,1.7426915,-0.38250637,-0.36419785,-0.45017278
8.465505,-0.45545375,1.4412616000000003,-0.9611354,-0.3003188,0.06616543
7.6726117,-1.0720948000000001,0.8928360999999999,-1.2965003000000002,-0.19065976,0.6016848000000001
7.148416,-1.6257683,0.26792073,-1.3949893,-0.08471828,1.1058058000000002
6.9102697,-2.1192324,-0.2775933,-1.188447,-0.05703736,1.5534827
6.916983,-2.6794949,-0.6204717,-0.70083696,-0.086323984,1.8542551999999999
7.1057796,-3.3714093999999997,-0.9833274,-0.27497659999999996,-0.31628856,1.8611667
7.345583,-3.8914301,-1.2986342,0.08698721,-0.52761304,1.8632959999999998
7.228650599999999,-3.7908735,-1.4947289,0.34143877,-0.6936985999999999,2.021929
7.505917999999999,-3.5142477,-1.6110775,0.41650537,-0.70434505,2.1731095000000002
7.7542257,-3.5124089999999994,-1.3323733,0.08379326,-0.60746187,2.3317425
8.160836999999999,-3.5827794,-0.30739632,-0.5496565,-0.40837213,2.4845285
7.922586,-3.5844455,0.82489824,-1.1235033,-0.10494665,2.5989697
8.015021,-3.4898555,1.6359676,-1.3843253999999998,0.089343406,2.6282563
9.453342,-3.5108285,2.1036127000000002,-1.4088298000000001,0.18301523,2.6000345
10.44572,-2.8552961,2.0461805,-1.4008361,0.15800466,2.391363
11.609397999999999,-2.2749226,1.5814948,-1.4668446000000002,-0.022444934,1.9867955000000002
13.274085999999999,-2.3825467000000002,0.8158673000000001,-1.4908079,-0.24548055,1.7903761999999999
15.137110999999999,-2.66286,0.17258364,-1.4540686999999999,-0.28913125,1.8212509999999997
15.940489000000001,-2.3682773,-0.60473704,-1.3731726,-0.30190706,1.8994942
14.575201000000002,-1.6284498,-1.3137752,-1.3018236,-0.40463713,1.9027056
12.667117999999999,-0.8508896999999999,-1.2639373999999999,-1.3396275,-0.5622229000000001,1.8366798
10.799219,-0.027188554,-0.6834201,-1.441834,-0.6090501,1.7791886000000001
9.088524000000001,0.87046474,-0.06423164,-1.4886786,-0.44296455,1.6908401000000002
8.175844,1.7407761999999998,0.09308656,-1.4040301000000002,-0.14166838,1.5199548999999999
7.9453015,2.6487147999999996,-0.40196732,-1.1676776000000002,0.0052185343,1.1946954
7.38276,2.781622,-0.42921332,-0.7625867,-0.0075398222999999995,0.8577421000000001
6.462716,2.083329,0.07012138,-0.3132866,-0.07459537,0.5207887999999999
6.7399845,1.6296278,0.7008786,-0.054593899999999994,-0.08206538,0.1513375
8.035267,1.7905849999999999,1.0522612,0.025778513,0.012671091,-0.08552113
9.951605,2.1751993,0.9968880999999999,0.21635102,0.34379494,-0.26064748
11.4403,2.476955,1.1000208,0.52883476,0.43055528,-0.85898125
12.098878,2.8709447,1.8175343000000002,0.7864628,0.33206636,-1.6180948
12.637449,3.3475153,2.8180616,0.8311956,0.21123719,-2.1014287
13.000726,3.7723904000000004,3.480815,0.6539225000000001,0.36454692,-2.2574089
13.370332999999999,4.0943627000000005,3.7174292,0.47558478,0.7153406999999999,-2.2962773
13.472776000000001,4.1697893,3.9809637,0.59056705,1.0767983,-2.4080656000000005
13.747448,4.0811086,3.9564567000000004,1.0254855999999999,1.2881403,-2.5086665
14.664697,3.588688,3.6879134,1.6988686000000002,1.2615239999999999,-2.6470711
16.351736,2.85046,3.6922324,2.3520231,1.0704103999999999,-2.7977277999999997
15.723432,3.6694492999999997,4.1493910000000005,2.8045173,0.92029464,-2.9936237
16.272585,4.1010475,3.7042036,3.1228304000000002,0.8654564,-3.1341577000000003
18.220382999999998,2.5460227000000004,2.9237322999999997,3.2724226,0.7616616999999999,-3.2512517000000005
19.235352,0.4806215999999999,2.4306319,3.2074787999999996,0.5859943,-3.2949197
18.607294,-0.73615956,2.706128,2.972191,0.3714584,-3.208683
16.417089999999998,-0.9944173000000001,3.3470845000000002,2.6187270000000002,0.20856684,-2.9909532000000003
14.43651,-0.9814599,3.8412763999999995,2.1694443,0.07335619,-2.6252543999999998
12.846473,-1.0310103000000002,3.8505945,1.5748454,-0.072483525,-2.1163514
11.434505,-1.0312018,3.56126,0.8471479,-0.21779963,-1.5541983
10.234637,-1.0420716,2.893728,-0.01574287,-0.3024481,-1.0809697
9.663525,-1.191824,2.3639102000000003,-0.8190132,-0.26783824,-0.5443857
9.138763,-1.431292,1.8613863999999998,-1.3705024,-0.20024163,-0.0019547688000000002
8.59799,-1.7534271000000001,0.92493755,-1.6952208,-0.10494665,0.4755324000000001
8.0873165,-2.1392384,0.09269392,-1.795298,-0.062360615,0.8683886000000001
7.54865,-2.4851335999999997,-0.46730986,-1.6244303,-0.10974629999999999,1.329906
7.2728667,-2.929162,-0.86630833,-1.2539318000000002,-0.24867451,1.7408612
7.421067,-3.4604833,-1.2815969999999999,-0.8099724,-0.43127087,1.9474034
7.4277716,-3.794896,-1.7050546000000002,-0.38304740000000004,-0.53986526,2.0890021
7.218594599999999,-3.4632607,-1.8280113999999998,0.019390607,-0.6394014,2.336001
7.240698299999999,-3.1818366,-1.612198,0.3425034,-0.66069436,2.5079507999999997
7.560371400000001,-3.39855,-0.93781835,0.38721874,-0.6213023,2.5872585999999997
7.778599000000001,-3.4850671,0.15991351,0.10295697,-0.5302834,2.5675714
7.862769,-3.4600046000000004,1.1455393,-0.2904228,-0.33810517,2.579806
8.394828,-3.6547108,1.7837281000000003,-0.67635,-0.11826351,2.6128101000000004
9.63623,-4.1094556,2.0662632,-0.9398598,0.0057595866,2.5531897999999997
10.267496000000001,-3.7165003,2.3879,-1.0165146999999999,0.07389724,2.4264963
11.2553625,-3.11749,2.4359565,-1.142126,0.056339227,2.1970727
13.183461,-3.1387315,1.9524331999999998,-1.315664,-0.15126769,1.8883240000000001
15.083480999999999,-3.2438943,1.1665126000000001,-1.4386573999999999,-0.27689648,1.8478497999999999
15.637154,-2.4367228,0.5539896,-1.491349,-0.31894147,1.9090761000000003
14.310622,-1.2439219,-0.39718848,-1.4987841,-0.38762018,1.9745607
12.178701,-0.21754673,-0.93783754,-1.4700559,-0.5164429,2.0245993
10.1339655,0.3740222,-0.81722724,-1.4338578000000002,-0.5728694000000001,1.9330394
8.836472,0.93844086,-0.6403819000000001,-1.311423,-0.51377255,1.8063285
8.048464,1.6572759999999997,-0.27710490000000004,-1.1921821000000001,-0.33438763,1.5902044
7.683654300000001,2.2412217,-0.3043509,-1.1272383999999998,-0.23005185,1.2782791999999998
7.65795,2.6642292000000003,-0.6672831,-0.9968099,-0.14381513,0.98389447
7.3573437,2.2610650000000003,-0.41116104,-0.82007784,-0.07087782,0.69005084
7.5178413,1.7097473,0.093977205,-0.7684335999999999,0.031311207,0.2833542
8.726482,1.5137196000000002,0.6157695,-0.85468775,0.17716837,-0.09724975
9.978745,1.586695,0.9282128000000001,-0.71947706,0.51253337,-0.33838442
11.362067,2.0165212,1.3148285,-0.24890140000000002,0.66530204,-0.84089965
12.402443,2.5398266,1.9378095000000002,0.3845484,0.51253337,-1.5371813
13.113617000000001,3.116264,2.6255007000000004,0.91102695,0.26659903,-1.9811406999999999
13.427047,3.6746209000000003,2.7648528,1.0675132,0.29108602,-2.1648016
13.866403,3.7747464,2.854396,0.96158916,0.57002455,-2.1871593
14.432955999999999,3.7575176,3.0668766,0.8003033,0.79892445,-2.2771137
14.670001999999998,4.035896299999999,3.1676917,0.9019687,1.0145075000000001,-2.4213824
15.185348499999998,4.075496,3.165355,1.3368871999999998,1.0900978000000001,-2.6108729999999998
16.21903,3.442795,3.4271176,1.8580252,1.013984,-2.8365963
15.641971,3.6808746,4.136577,2.2774975,0.94689345,-3.0053349
15.098267000000002,4.089986,4.416622,2.5527186,0.8894198,-3.1565151
16.248356,2.8434209999999998,4.100692700000001,2.7592432000000002,0.8404284,-3.2262584999999997
17.874325,0.7852216,3.5191510000000004,2.8209932,0.7467391,-3.2422283
18.46574,-0.29525295,2.964242,2.7182455,0.5950350999999999,-3.212959
16.636858,-0.39335775,2.748486,2.4968157000000004,0.41936769999999995,-3.035686
14.640487,-0.10929052,2.6734326,2.1502805,0.28789207,-2.7679176
13.305729000000001,0.025416845,3.1000888,1.6850107,0.17182766,-2.4160592999999997
12.035642999999999,-0.025052927000000003,3.1971595,1.1612023999999999,0.06962118,-1.9561301
10.907534,-0.31344888,2.8828104,0.6278123999999999,-0.057054814,-1.3860183000000001
9.949058,-0.7105129,2.4517393,0.034801867,-0.18268362,-0.85953975
9.431372999999999,-1.1015339,2.021568,-0.5587148000000001,-0.17523105,-0.41451570000000004
8.919456,-1.5740726999999999,1.5010113,-0.97925186,-0.11667526,0.009738937
8.7219715,-1.9280218999999996,0.7606379,-1.1421609,-0.02989749,0.44570473
8.284571000000001,-2.3243005,0.10894576,-1.0005275,-0.08152433,0.9391790999999999
7.8299970000000005,-2.6724558,-0.29430485,-0.6981841,-0.18533652,1.3857913999999998
7.6509203999999995,-2.9112823,-0.62843966,-0.5874604,-0.4318119000000001,1.5433598
7.5118074,-3.174271,-0.91247815,-0.62046456,-0.43394122,1.7972877
7.3881616999999995,-3.3559906,-1.0602866000000002,-0.4799481,-0.32534683,2.1794797999999997
7.091031599999999,-3.3098881,-1.1300919,-0.2409078,-0.36419785,2.4531126
7.7635440000000004,-3.094247,-0.9856353999999999,-0.16692328,-0.44989353,2.5702243
8.191972,-3.1138797,-0.4714183,-0.3159744,-0.42062435,2.613334
8.017933,-3.2526188,0.5082124,-0.55604446,-0.3072303,2.643685
7.815278,-3.6246487999999997,1.3235626,-0.7727096,-0.17736036,2.7080877
9.240345,-4.109571,1.5379874,-0.9403834000000001,-0.074612826,2.7128875
10.310907,-3.6929123,1.2466226,-0.9552885,0.030246556,2.662849
10.839394,-3.0729196,0.88510764,-0.9260193000000001,0.02438225,2.4318197
12.099721,-3.2260047999999997,0.9760394,-1.0468485,-0.12730432,2.1337173
14.256972,-3.4908707000000003,0.68450224,-1.259255,-0.3311937,1.9601793
15.333147,-2.980398,0.14843093,-1.4008536,-0.25188592,2.010218
14.428216,-1.8812008999999998,-0.50690997,-1.3737137,-0.17788395,2.0421574000000002
12.685763,-0.9639056,-0.7854993,-1.2438263999999999,-0.24549802,2.0586507
10.710403999999999,-0.40386352,-0.69961447,-1.1485488000000001,-0.47172758,1.9271576000000001
9.256194,0.23874022,-0.5276055000000001,-1.0953163000000001,-0.6234491,1.7605485
8.481402000000001,1.0183306,-0.15340129,-1.0670943000000002,-0.48610909999999996,1.6806997
8.111142999999998,1.7506881,0.058255713,-1.0963633999999998,-0.29021335,1.5327133
8.4578905,2.4836204,-0.45448652,-1.1027513999999998,-0.09325294,1.2670916
8.324525,2.601645,-0.88324976,-1.0149264,0.036617007,0.8987224
8.153971,1.9895241000000001,-0.41382340000000006,-0.89833844,0.13084733,0.43292892
8.451014500000001,1.7080426,0.46068272,-0.87332785,0.22240731,-0.072221726
8.803135000000001,1.8296872,0.8943014000000001,-0.81903064,0.3714584,-0.3687357
9.891558999999999,2.2177107000000005,0.80045825,-0.43308599999999997,0.6951123,-0.6359630999999999
11.511351,2.6773686000000003,0.80820584,0.10454522,0.6365565,-1.2614367
12.660701,2.9361818,1.3599256000000002,0.6555108000000001,0.4065919,-1.7027258
13.27086,3.2726727,1.9459019,1.0584723999999999,0.21868975,-1.9034212
13.745294,3.8283956,2.1809453999999997,1.1313921999999998,0.31874949999999996,-1.8943803
14.298842,4.3090363,2.4660661,0.9977872999999999,0.5045398,-1.9912636000000001
14.909431,4.6943207000000005,2.709796,0.9977872999999999,0.68924797,-2.1749072
15.154272,4.8742790000000005,2.909664,1.3469927,0.8745146999999999,-2.325023
16.258095,4.1440187,3.0448882999999998,1.825562,0.9298765,-2.539559
16.830433,3.4194372000000004,3.718425,2.1545217,0.8995252,-2.815827
14.899145,4.0003567,4.3574567,2.4073849,0.855351,-3.093701
14.871573999999999,3.4401900000000003,3.9188199999999997,2.5606947,0.78880155,-3.2746912999999997
16.152157,1.3356006,3.5871557999999997,2.5346196,0.7355689999999999,-3.3667924
17.958064999999998,-0.37516183,3.1989505,2.373316,0.73928654,-3.371051
17.395802,-0.701549,2.9509206000000003,2.1316577999999997,0.7414333000000001,-3.21453
15.343481,-0.289775,2.9804362999999996,1.8931586999999999,0.6679724,-2.9515786
13.625843,-0.081354976,3.4779515,1.5971857,0.45343652,-2.6124787
12.2392645,-0.09971371,3.6805199999999996,1.2586267,0.11965977400000001,-2.0460844
11.260475999999999,0.0377805,3.1907240000000003,0.85353583,-0.20769417,-1.3577963
10.407537,0.051417875999999994,2.4558284,0.34463271,-0.33065262,-0.75785685
9.638539,-0.24236983,1.9159935000000001,-0.21109757,-0.3636568,-0.19359192
8.997841000000001,-0.7361883,1.3343365,-0.64708084,-0.39879027,0.32752848
8.672833,-1.2819418,0.6673023,-0.83606505,-0.37484437,0.7714879
8.335049,-1.9600370999999999,0.29724494,-0.8057138,-0.3482281,1.1276224
7.889373299999999,-2.6704257,-0.080971904,-0.56616735,-0.40306634,1.4736339
7.915623700000001,-3.3743591,-0.4735348,-0.27232373,-0.47705084,1.6775233
7.7889800000000005,-3.918025,-1.0382599000000001,-0.16320574,-0.47439793,1.6982752
6.917768,-4.127154,-1.247676,-0.1237962,-0.40837213,1.735538
6.3985330000000005,-3.7253397000000006,-1.1386726999999999,-0.060458205999999994,-0.40304887,1.8734015
6.706139599999999,-3.3319242,-0.84517235,-0.1142318,-0.40039600000000003,2.003289
7.43505,-3.2447467,-0.59474844,-0.41020474,-0.29606020000000005,2.078879
8.205561999999999,-3.2527814,0.29281090000000004,-0.74609333,-0.041067597000000004,2.1262648
8.417534,-2.9645482999999997,1.2429928999999997,-0.86107564,0.091996305,2.1816266
9.023076,-2.8002392999999994,1.7130130000000001,-0.81368995,0.10316641,2.2151544
10.297232000000001,-2.5815240000000004,1.631524,-0.7216064,0.089867,2.1784327
10.677736999999999,-1.6773490000000002,1.4715147,-0.67741466,0.047804568,2.0485453999999996
11.153993,-0.9784145000000001,1.0500969,-0.8083667,-0.08578293,1.8808715
13.028183,-1.3161405000000002,0.47752833,-1.0143853,-0.19385372,1.7584191999999998
14.941216,-1.7836706999999998,-0.018483236,-1.1607661,-0.2332458,1.7573546000000002
15.182945000000002,-1.4894711999999999,-0.39021659999999997,-1.2518023999999999,-0.22844614,1.8297683
13.861892000000001,-0.80060184,-0.31881190000000004,-1.2571257,-0.23856905,1.8308330000000002
11.883975,-0.33430716,-0.025024196000000002,-1.2486086,-0.372174,1.8212509999999997
9.972797,0.080090836,0.41738597,-1.2464793,-0.43392375,1.7440552
8.606121,0.6633375,0.38630924,-1.212934,-0.372174,1.6594242
7.734488000000001,1.450934,0.121251956,-1.0974281000000001,-0.22631684,1.5188727
7.263883,2.0543497,-0.38101324,-0.9089849,-0.12412781,1.2905138999999999
6.540672,2.3066506,-0.751492,-0.6358933000000001,-0.08365363,1.0376505999999999
6.343715,2.1775362,-0.47734633,-0.379836,-0.050649453,0.70495594
6.2539425,1.8735680000000001,-0.03371036,-0.39901718,0.022252947000000002,0.26206118
7.530339,1.9536494,0.49709369999999997,-0.6188588,0.20271999,-0.10470230000000001
9.18614,2.2582014,0.7174081999999999,-0.6507984,0.45184830000000004,-0.20210913
10.848195,2.5216498,0.8983619,-0.33672637,0.5796064000000001,-0.5348038
11.901337,2.8392742,1.3772118999999998,0.14500195,0.3831696,-1.171465
12.596518,3.2522740000000003,2.0153526999999998,0.60227823,0.12712978,-1.6404523999999998
13.319768,3.7206182,2.4003885,0.7800749,0.029181905,-1.7793806
13.961719500000001,3.991977,2.6208656,0.6672219,0.22240731,-1.760217
14.416494,4.269082,2.6941664,0.5458516999999999,0.45930085,-1.8640290000000002
14.374385,4.7215767,2.4760642,0.7076786999999999,0.7563384,-2.014145
14.464654999999999,4.597116000000001,2.008285,1.158026,0.92561793,-2.1807540000000003
15.013637,3.6960633,2.2246252999999996,1.7558361,0.88196725,-2.3947487
14.752851000000001,3.6023638,2.7897334,2.2136185,0.7270518,-2.6795516
14.035395000000001,4.3267435999999995,3.1603557999999996,2.453706,0.6078284,-2.9600785
15.276060000000001,3.6019902000000004,3.0880606,2.5580418,0.5875825,-3.1362867000000003
17.07266,1.4959356000000001,2.871213,2.4882984,0.5790653,-3.1618385
18.123333,0.029008147999999997,2.5340517000000005,2.2721918,0.5508608,-3.0894247999999997
16.932636,-0.15415785,2.7541366000000003,1.9857831999999997,0.5050808,-2.9340029999999997
14.941552,0.12549448,3.3244447999999998,1.6924807000000002,0.4183205,-2.6800752
13.290835999999999,0.20207062,3.728567,1.3938373,0.23040092,-2.2627497
11.920108,0.22621375,3.796639,1.0334792,-0.050108402999999996,-1.7005965
10.702053,0.29455385,3.2042367,0.62250656,-0.29712486,-1.1421958
9.907408,0.15973157,2.3784287,0.10882128,-0.42753586,-0.65137434
9.167914999999999,-0.12157756,1.7659057,-0.5028119000000001,-0.46533969999999997,-0.20530307
8.45159,-0.67814326,1.2270378999999998,-0.9542238999999999,-0.39879027,0.24289747
7.791537,-1.2102785,0.6029079,-1.1219151000000003,-0.2790258,0.71560246
7.407037700000001,-1.6700705000000002,0.069901116,-1.0170382,-0.21195279,1.1143229
7.335078,-2.1941519,-0.25966552,-0.68219686,-0.2508038,1.4869508
7.3699083,-2.8395326,-0.5832754,-0.35747835,-0.435512,1.5998037
7.0989227,-3.3426983,-0.96439403,-0.27017698,-0.4935442,1.5817046000000001
6.8079220000000005,-3.4718127,-1.1640034,-0.25261897,-0.4094368,1.6668767
6.9095225000000005,-3.1786380000000003,-1.1080173,-0.18606955,-0.32052973,1.8766129
7.7089753,-2.8459779999999997,-0.9940438,-0.22493804,-0.20448278,2.0134292
8.334283000000001,-2.8353189999999997,-0.6781815999999999,-0.45544368,-0.12198106,2.0517392
8.319727,-2.8586001,0.5730761,-0.72745323,-0.03148574,2.074097
8.15059,-2.845365,1.51892,-0.92813116,0.015882496,2.1294763
9.2989645,-2.8898685,1.9577291,-1.0133033,0.019600047,2.1667389999999997
10.799698,-2.588381,1.8013781000000002,-1.0596243,0.0132121425,2.1528811
11.622135,-1.7204637999999999,1.4002344999999998,-1.138391,-0.054367005999999996,2.0065002
12.600319,-1.5078394,0.92474604,-1.2187808999999998,-0.13901548,1.9085523999999998
13.97168,-1.9813359,0.72467697,-1.2746663,-0.20608848,1.8228567999999998
14.638782,-2.0636678,0.44597274,-1.3129938,-0.23696335,1.8686367
13.983259,-1.4371147,-0.07097372,-1.3103409,-0.33278194,1.9074878
12.288901,-0.64780396,-0.49685429999999997,-1.3311102,-0.38707912,1.9324983
10.34435,-0.18706377,-0.5722429,-1.318858,-0.4094368,1.9575262999999998
8.605958,0.1810591,-0.47808376,-1.1650247999999999,-0.3748269,1.9250633000000001
7.448103,0.7068641,-0.16680883,-0.8807455,-0.30829495,1.7712125
7.1377954,1.2525984,-0.22259372,-0.5752082,-0.24706881,1.4800392
6.912605999999999,1.7217566000000002,-0.23884557,-0.2829528,-0.19863592,1.2053593
6.526728,1.7861031000000003,-0.034361582,-0.08386307,-0.11772246,0.95834285
6.831366,1.5848562,0.33389536,-0.07960447,-0.03361504,0.6379004
7.8017745,1.5282955,0.61472565,-0.3037222,0.04782202,0.18753563
9.041128,1.7028328999999998,0.86788857,-0.5251521,0.12980014,-0.1749518
10.478444,1.8428553,1.1819408000000002,-0.43519786,0.43641958,-0.41769218
11.618706,2.0096833999999997,1.8105718999999998,-0.091839224,0.48698178,-0.9766338999999999
12.500396,2.6221585,2.4420857000000002,0.39360666,0.3129201,-1.534511
13.049338,3.4574763999999996,2.7677069,0.84875363,0.08880235,-1.8278308999999997
13.419433999999999,4.0313087,2.732627,1.109593,0.10744247,-1.9231084999999999
13.756719,4.225833000000001,2.6021428,1.1229098999999998,0.28576276,-2.0375497
14.087071,4.521929,2.2010183,1.1479205,0.45184830000000004,-2.2542150000000003
14.400098999999999,4.8624225,1.7486578000000002,1.38162,0.6461558000000001,-2.4101775
15.379873000000002,4.608656400000001,1.471553,1.7457306000000001,0.7094938000000001,-2.6092672
16.302847,3.917479,2.1548293,1.9900593,0.67116636,-2.8653245
15.100287,4.248319,3.0628736,2.1210112999999997,0.6232571,-3.1293577999999997
15.135694,4.168343,3.210251,2.1848905,0.6184748999999999,-3.3119369
16.418573000000002,2.2926778999999997,3.1320565,2.125811,0.6126106,-3.3587812999999995
17.895777,0.48016194,3.0710235,1.9751542000000002,0.6227335,-3.2768032999999996
17.758741,-0.16137877,3.0204577,1.7712648000000002,0.5977054,-3.1096532000000003
15.934542,0.0099981865,2.9017150000000003,1.5551581,0.49816933,-2.8238032000000004
14.187417000000002,0.13585658,3.1405222000000004,1.3065535,0.34060100000000004,-2.396337
12.620757000000001,0.09093178,3.1696742,1.0009987,0.16332792,-1.8517768000000001
11.406198,0.16439547,2.7721694,0.6172008000000001,-0.06501351,-1.3306216
10.440663,0.19473478,1.9965439999999999,0.15992452,-0.3072303,-0.8584575999999999
9.63988,-0.06788041,1.6793601999999999,-0.32712707,-0.38015017,-0.34847245
8.912723,-0.575365,1.2697697000000001,-0.67580897,-0.37962657,0.16146041
8.279436,-1.1584202,0.7814196,-0.80143774,-0.32426473,0.6458765000000001
7.834268600000001,-1.7305386000000003,0.42750865,-0.781733,-0.30562459999999997,1.0025346
7.5850134,-2.327097,0.109922595,-0.61138886,-0.38175586,1.30596
7.3195440000000005,-2.9531902999999997,-0.17459477,-0.29784045,-0.41154864,1.5705345
7.0701156,-3.4096017,-0.45469719999999997,-0.13974851,-0.41741294,1.5928921999999999
6.8429637,-3.5418095999999997,-0.6416173000000001,-0.23342033,-0.43870595,1.5966272
6.487654,-3.2041698,-0.783105,-0.30105186,-0.43711769999999994,1.8595785
6.442720400000001,-2.9113683999999997,-0.6656647,-0.26057765,-0.38653806,2.2050664
7.111851700000001,-3.0405786,-0.32473993,-0.3617195,-0.28804913,2.4068264999999998
7.7272186000000005,-3.1053273999999997,0.58106315,-0.6012659,-0.14592698,2.441419
7.9865394,-2.9064267000000004,1.3513162,-0.774804,0.00045378560999999995,2.4281194
8.428614999999999,-2.6138074000000002,1.6874334,-0.77586865,0.022811454,2.3951154
9.871045,-2.6926055,1.7145740000000003,-0.6976256,0.051015973,2.298232
10.65958,-1.9469168999999997,1.6200508999999998,-0.6502399,0.05368633,2.1406639
11.328051,-1.1965933000000002,0.7922604999999999,-0.59168404,0.024940755,1.9468973000000003
12.419472,-1.6046610000000001,0.10841903,-0.59168404,0.04569272,1.7291675
14.220237,-2.5453810000000003,-0.14436078,-0.7668279,-0.07087782,1.605668
15.128808,-2.431216,-0.21275835,-0.9872105999999999,-0.19170697,1.6578358
14.868482,-1.5678861000000002,-0.47077668,-1.113904,-0.22736403,1.6615708999999999
13.440272,-0.5444798000000001,-0.46448472,-1.290095,-0.2582389,1.6141851999999999
11.435713,0.17933528,-0.28538886,-1.4604566,-0.2971074,1.6620945
9.610508,0.92885447,0.119183354,-1.5461521999999999,-0.27581438,1.7254498999999999
8.259967,1.6674944999999999,0.17066827,-1.494508,-0.20874138,1.651989
7.519546000000001,2.2442097999999997,0.06792829,-1.3891076,-0.15231489,1.3815677
7.023217999999999,2.7573543,-0.09356539999999999,-1.1394556999999998,-0.045308746,1.0749483
6.7859817,2.8723526,-0.51500237,-0.74179983,0.055274576,0.7555529999999999
6.5829916,2.5708172,-0.93317366,-0.460732,0.103183866,0.35950290000000007
7.3130608,2.4931972,-0.5915785,-0.39472365,0.15695746,0.007644542
8.745674000000001,2.782254,-0.02422932,-0.25684264,0.30494392,-0.16163494
9.972071000000001,2.7617404,0.18543571,0.1248085,0.43589598,-0.5709845
11.141197,2.5720046,0.64598435,0.47614327,0.29429743,-1.2938823999999998
12.300154,2.8782900000000002,1.3617454,0.72579515,0.10053097,-1.7697813999999998
13.331106,3.6780877,2.0185131999999997,0.75827575,0.0845612,-1.9433194
13.839616,4.2892795,2.4865987,0.5751558000000001,0.28098056,-1.9848408
14.008139000000002,4.561730000000001,3.153518,0.40320596,0.5545958000000001,-2.1120753
14.095671,4.7170463,3.3776824,0.48520154,0.84365726,-2.2355572999999995
14.49782,4.675952400000001,2.974853,0.87112874,1.0443352,-2.3414989
15.309952,3.9390172999999997,2.6422220000000003,1.3981309,1.0480702,-2.5001318
15.285101000000001,4.003335,3.1224507999999997,1.9043811999999998,0.8990190999999998,-2.7183852
14.649306,4.8523190000000005,3.2803053999999996,2.2258883,0.7670024000000001,-2.9020462000000005
16.017134,4.0079894,2.7602656000000003,2.4297776,0.7089701999999999,-3.0361748
17.488789999999998,1.6764776000000001,2.3790703,2.4521353,0.6946061,-3.0681317000000004
18.641417999999998,0.2124806,2.1490548,2.3254417999999997,0.6525437,-2.9999766
17.27722,-0.18759048,2.427299,2.108794,0.5338439,-2.8370849999999996
15.094570000000001,-0.12683523,2.945232,1.8479546000000002,0.3837281,-2.5432415
13.003053,-0.18060899,3.358998,1.5125722,0.20486675,-2.149338
11.4249,-0.14273272,3.488438,1.0888586,0.011623893,-1.637241
10.224898,-0.059730545,3.0558345,0.57995546,-0.18744837,-1.0947927
9.134291000000001,-0.13320379999999998,2.4931683999999996,-0.014102261000000001,-0.29656634,-0.5917539
8.428662,-0.48039177,1.8609171999999998,-0.6103242,-0.34927529999999996,-0.08285078
7.9609119999999995,-0.83629465,1.4915781000000001,-1.0106155,-0.36737436,0.36322048
7.451234299999999,-1.3549841999999999,0.80513173,-1.2182398,-0.30295426,0.79866266
7.273977799999999,-1.7597477,0.27536193,-1.1868238000000002,-0.23481660000000001,1.2330402
7.2974024,-2.3123102,-0.142704,-0.9611179,-0.26090926,1.6620945
7.4014735,-2.8747754,-0.5268105,-0.7141189,-0.38547343,1.8143395
7.367332000000001,-3.1923807,-0.8331726,-0.45699700000000004,-0.40196678,1.8654602999999998
6.8009405,-3.2494680000000002,-0.99864066,-0.18872245,-0.4882035,2.032593
6.8221436,-3.0124228,-1.0776111000000002,0.10246828,-0.54834753,2.2130601000000003
7.555631,-3.031136,-1.0154192,0.118420586,-0.5350481,2.261493
8.282807,-3.1015349999999997,-0.58112067,-0.16367698,-0.37535050000000003,2.2875855
8.331372,-3.0280714,0.52334374,-0.45540875,-0.13686872,2.3514647
8.473769,-3.1352932,1.4235828000000001,-0.6108478,0.08562585,2.4126909
9.8689375,-3.4965591000000003,1.7474512,-0.66566855,0.09892526,2.3658287999999996
10.655739,-3.1749127,1.7446643,-0.70293134,-0.058608155999999995,2.2205126
11.549284,-2.4641889999999997,1.7823011999999998,-0.8237605,-0.19488347,2.0235522
13.052441,-2.3003970000000002,1.332268,-0.9621651,-0.33435273,1.8404323
15.008293,-2.640134,0.63859105,-1.1836125,-0.29708993,1.8973997999999999
16.037214000000002,-2.2471306,0.15526877,-1.2778428,-0.26834437,1.9394448
15.185004000000001,-1.3915292,-0.37875316,-1.2869011000000001,-0.32744122,2.0528388
12.980538000000001,-0.76408553,-0.6074281,-1.2565498,-0.4924621,1.9756429
10.715910000000001,-0.21531536,-0.35242647,-1.1921297,-0.5345071,1.8186156999999998
8.825563,0.5801341999999999,-0.44018835,-1.1112336999999999,-0.5057615,1.67967
7.6000004,1.5872503999999998,-0.91236323,-1.0122037,-0.37374482,1.5103905
6.859808999999999,2.335534,-1.2413743999999998,-0.85997605,-0.20926498,1.3150358
6.656264,2.619113,-1.2082578000000002,-0.67418575,-0.09641199,1.0717543
6.21508,2.2257838,-0.86944,-0.548557,-0.020821778,0.66346943
6.663044,1.74499,-0.28518775,-0.594337,0.12875293,0.12847368
7.6342664000000005,1.6769947,0.17337851,-0.6922848,0.32358405,-0.23401375
9.479832,2.0762327000000003,0.43082222,-0.5070356,0.5865528,-0.4208687
11.443297,2.6682134,0.88651544,0.03005457,0.6722484999999999,-0.86749846
12.263436,3.0850437000000004,1.5259205,0.6246708000000001,0.3986332,-1.5973079
12.702888,3.3893370000000003,2.105911,0.98132885,0.14152876,-2.0508492
13.269729000000002,3.669047,2.544481,0.9201200999999999,0.102136664,-2.2669732999999996
13.737105,3.9591667999999998,2.7467337000000005,0.57836723,0.40715042,-2.2813373
14.209491,4.3547654,2.725923,0.20306906,0.73080426,-2.384085
14.5028,4.9361253,2.6490693,0.24300219,1.070969,-2.5033083
14.53426,4.819327400000001,2.5920587000000004,0.62468827,1.1928627,-2.6156377999999996
15.632634,3.6576983999999997,2.8034666,1.0760827,1.1162078000000002,-2.7854582999999997
15.502245000000002,3.6262004,3.6021050999999997,1.4763913999999998,0.98047364,-3.0095584
14.877406,4.163938,3.7081108,1.801651,0.86549133,-3.1809673
16.206274,3.0654304,3.0366619,2.069943,0.8335518,-3.2187712000000004
17.970715,1.0400125,2.1261373,2.1769493,0.792554,-3.1974607
18.776997,-0.25112304,1.6909096999999997,2.0715313,0.6775717,-3.1144354
17.141077,-0.49222872,1.791179,1.797916,0.5663244000000001,-2.9062874
14.979678,-0.34426707,2.1878405,1.4700036,0.49073422,-2.4948083999999997
13.095353999999999,-0.10645579,2.7743146,1.1644487,0.3874631,-1.9358494
11.512336999999999,-0.01679772,2.6032825,0.87008154,0.21286036,-1.3678668999999999
10.350067,0.11972924,2.2654417000000002,0.5570742,-0.015498524,-0.9031555
9.594198,-0.06114791,1.9013601999999998,0.2515194,-0.25450389999999995,-0.41873938
8.932153999999999,-0.60774416,1.6516831000000003,0.00026179937,-0.34658748,0.04171337
8.27417,-1.1230721000000001,1.2623093,-0.16845918,-0.293896,0.49738392
7.878379300000001,-1.7029095,0.56119126,-0.22755602,-0.21830578,0.93762577
7.658964599999999,-2.2863286,-0.1833288,-0.11789699,-0.22362904,1.3102536
7.4976435,-2.9599707000000004,-0.50480306,0.1296256,-0.23905775,1.6152673
7.227108500000001,-3.5187104,-0.58260506,0.19350465,-0.3071954,1.6637176
6.846880400000001,-3.6978923999999997,-0.55705416,0.0694641,-0.40622538,1.6738231
6.8044457,-3.4791102,-0.5930054,-0.05988224599999999,-0.48075095,1.8851476000000003
7.305983,-3.235505,-0.6330461,-0.25949556,-0.47808059999999997,2.1438751
8.135036999999999,-3.2477057,-0.43824425,-0.6816209,-0.34021702,2.321672
8.586335,-3.1321042,0.25500163,-1.2032998,-0.1182286,2.3780982
8.290661,-2.8885085999999998,0.9856640999999999,-1.4135771000000001,0.07019714,2.4047146
8.19064,-2.7300413,1.3249129,-1.302836,0.15004596,2.393527
9.424535,-2.664038,1.3559801999999999,-1.0835353,0.083514005,2.2977084999999997
10.281755,-1.9610714,1.1362976999999999,-0.9557771999999999,-0.066060714,2.0885133999999996
11.072101,-1.1717701,0.32208717,-1.0265677,-0.23746950000000003,1.9272275
12.591202000000001,-1.4198956,-0.3544855,-1.1639252,-0.3439346,1.8260682000000001
14.401478,-2.159953,-0.79455894,-1.2698492000000001,-0.2912431,1.8990055000000001
15.043582999999998,-1.9727073,-0.92935246,-1.3480923,-0.31038934,1.8729128000000002
14.091304000000001,-1.1622413,-0.9313060999999999,-1.4497577,-0.3657512,1.8857061000000002
12.323378,-0.42329487,-0.44900858,-1.4859733999999998,-0.42165410000000003,1.8537491999999998
10.553075999999999,0.21898326,0.47409979999999996,-1.391743,-0.45678756,1.8335207999999998
8.964763,1.0809437,0.5272511,-1.194259,-0.473822,1.7318553
7.9623394,1.9733107,0.14388195,-1.0015397,-0.40301397,1.4310827
7.411088499999999,2.544701,-0.44757205,-0.7950149000000001,-0.2587625,1.0845476
6.4862375,2.6104267000000005,-0.6632895999999999,-0.5336344,-0.10278243599999999,0.8002858
6.3182597000000005,2.3006172,-0.09538499,-0.35477307,0.028134707000000002,0.45799184
6.9603558,2.315758,0.27676013,-0.41545817,0.16334537,0.02628466
8.060846000000002,2.5466740000000003,0.5059523,-0.55279815,0.3379481,-0.25743607
9.656389,2.628029,0.8024406,-0.39629444,0.59454644,-0.35803685
11.199050999999999,2.6909966,1.3396516,0.15144221,0.64671427,-0.80147266
12.109556,3.1316254,2.0261936,0.70825464,0.39226276,-1.4317459
12.969649,3.9239433,2.5761034,1.0548072,0.13035864,-1.7527293999999998
13.825232000000002,4.5870795,2.9097020000000002,1.0649127,0.106395274,-1.8272549999999999
14.1150255,4.690576,3.2571487,0.81686646,0.27302185,-1.8868754
14.310085999999998,4.7524524,3.3564220000000002,0.549098,0.48541096,-2.0204978
14.396842999999999,4.9419293,2.9927425,0.665686,0.73773324,-2.1381330000000003
14.883248000000002,4.539665,2.6406033,1.0441607,0.89317226,-2.272279
15.507617999999999,3.4842242999999993,2.6786423,1.3443922,0.89264864,-2.4841447
14.478542000000001,3.768215,3.6172366,1.5504109,0.8756142,-2.7731886
14.28421,4.2284474,3.7473949999999996,1.7511063000000002,0.8362222,-3.0468037
15.809460000000001,2.7899632000000003,3.1163312999999997,1.8665947,0.7989594,-3.2049131
17.231098,0.7807109,2.4041327999999997,1.8730000000000002,0.80534726,-3.2607987
17.548597,-0.05938578,2.0382702,1.7734464,0.7808603,-3.2022429
16.066252,-0.05629247,2.1035072999999995,1.6094903,0.68343604,-2.9680197
14.360814000000001,-0.019594146,2.5717654,1.406142,0.51682687,-2.4969202999999998
12.738666,0.07932469,3.265356,1.1942765,0.34222415,-1.8831578000000002
11.474986999999999,0.28690198,3.0289333,0.9068207,0.13461724,-1.2528846000000002
10.447578,0.502926,2.3429849999999997,0.5496390999999999,-0.07403687,-0.70617765
9.793491,0.4239844,1.8850411,0.16369443,-0.26195645,-0.17011724
9.083227,0.063168615,1.5243882,-0.21956243,-0.39397317,0.30576423
8.457393,-0.5485116,1.0812024,-0.44898593,-0.37268016,0.73534214
8.11554,-1.1965741,0.63401335,-0.5229879,-0.2587625,1.0467613000000002
7.691871000000001,-2.1227376000000002,0.053649273,-0.38191295,-0.22308798,1.3507103
7.2133656,-3.184815,-0.3928502,-0.08009316,-0.31784192,1.6211316999999998
6.5759435,-3.9702184000000003,-0.6724834,0.027960173999999997,-0.5238606,1.6802285
6.138244599999999,-4.124099,-0.79275846,-0.11522663400000001,-0.6377782,1.7781763
6.24924,-3.7369466,-0.86007386,-0.27012459999999994,-0.6005154,2.0065353
7.102073700000001,-3.5089612,-0.91218126,-0.47773153,-0.4285656,2.2232003
7.965192999999999,-3.3950355000000005,-0.84595764,-0.8216136999999999,-0.22415264,2.2886677000000004
8.280403999999999,-3.093232,-0.11176134,-1.0872529,-0.01441642,2.2577927000000004
8.086943,-2.6471348,0.9805309000000001,-1.0270914,0.11119492,2.2008426
8.359461,-2.3471507999999996,1.5442121000000002,-0.8466418,0.0819083,2.142287
9.8957815,-2.5401714,1.4894425,-0.7614696999999999,-0.021345377000000002,2.03741
11.161261,-2.0715685,1.083089,-0.8226783999999999,-0.1922131,1.9027405
12.667003,-1.7770052,0.1903103,-0.9754645000000001,-0.2960253,1.8670659
14.256704999999998,-2.0908182,-0.23068613,-1.1394207,-0.335941,1.8814473999999999
15.346670000000001,-2.2618504,-0.21231781,-1.222987,-0.30187213,1.9847186
15.076901000000001,-1.63116,-0.15713625,-1.2315042999999999,-0.32316515,2.0390158
13.630630499999999,-0.6578309,-0.07581958,-1.2043643999999998,-0.36681584,1.9437208
11.79674,0.064116724,0.48322654,-1.1314271999999999,-0.44347072,1.7930814
9.787208999999999,0.7783262,0.7969053,-1.0409318,-0.5057615,1.6434891999999999
8.145026,1.4292713,0.31804574,-1.0175094999999998,-0.44294712,1.5013671
7.1492586,1.883145,-0.24198675,-1.031891,-0.28057912,1.2873723999999998
6.6391406,1.9980763,-0.51376694,-0.95097756,-0.101717785,1.0542138
6.3317633,1.7781161,-0.41845858,-0.7407003000000001,0.022828907000000002,0.82796675
6.429399,1.4758912,0.18859605,-0.5378755999999999,0.08670796,0.45640358
7.215013000000001,1.7015113000000002,0.73807496,-0.49850094,0.16708037,0.04544837400000001
8.615018,2.1037369999999997,1.0765002000000001,-0.48890162,0.29164450000000003,-0.15788248
10.376392999999998,2.5888216,1.2545998999999999,-0.17695893,0.51150364,-0.33993778
11.530064,3.0019457000000003,1.5134419,0.27815312,0.46411794,-0.9372069
12.446928,3.3118800000000004,1.7797251,0.7269121999999999,0.24162339,-1.4945428
13.121834,3.6914759,2.1272674,1.0782295,0.099483766,-1.6840506999999998
13.454360000000001,4.058123999999999,2.5291007000000003,1.1069751,0.11278318,-1.7261131999999997
13.754354000000001,4.2275567,2.957768,0.92333156,0.28845057,-1.8240610000000002
14.087253,4.3988857,3.1346133,0.86264646,0.47104692,-1.9725711
14.437582,4.531228,2.9862877999999995,1.1469082,0.6339385000000001,-2.1205575
14.861979000000002,3.971157,2.7990324,1.586609,0.68930036,-2.2983544
15.342944000000001,3.179021,2.9668756000000003,1.9171918999999997,0.69781756,-2.5118256000000003
14.310182000000001,4.131558999999999,3.5832677000000004,2.1008353,0.6834534999999999,-2.8131218
14.552705,4.0646076,3.2033846,2.2408283,0.69781756,-3.0356338
15.608634,2.0759835,2.902414,2.2211409,0.67811275,-3.186273
17.067614000000003,0.36805585,2.3737266,2.0625079,0.6477789,-3.2469582999999997
16.908495000000002,-0.09292376,2.2741849999999997,1.8415842,0.60252255,-3.1820145
15.573094000000001,0.021634007,2.4910137999999997,1.6004493999999998,0.53864354,-2.9621727000000004
14.074352,0.12368446599999999,3.094276,1.33961,0.4172733,-2.5703814
12.697822,0.117421225,3.4442792,1.011174,0.22991222,-2.0417733
11.478052,0.18275422,3.2574357999999997,0.61086524,0.0026005406,-1.4588858
10.491957000000001,0.3254199,2.355904,0.14880677,-0.15336208,-0.9499827
9.860308999999999,0.23489992,1.9631305000000001,-0.35636133,-0.28857273,-0.41552799999999995
9.181782,-0.2142619,1.4567568000000002,-0.7896741999999999,-0.4024729,0.06782349
8.661436,-0.7135583000000001,0.76259154,-1.0153801,-0.37372735,0.5186944
8.285547,-1.2807926,0.32718202,-1.0680891000000001,-0.28218484,0.8854579
7.921628,-2.0501451,-0.0016567876,-0.9057212,-0.22202334,1.1979416999999999
7.479265700000001,-2.8224669999999996,-0.29615316,-0.6039014,-0.27738518,1.4816624
7.0598974000000005,-3.4021894999999995,-0.64670265,-0.40320596,-0.39662609,1.5859982
6.657959,-3.5611453,-0.94523084,-0.38404223,-0.45305258,1.7409134999999998
6.4447602999999996,-3.3602812000000006,-0.96760225,-0.2807711,-0.49192104,2.09916
7.1360235,-3.159226,-0.897366,-0.15781267,-0.47753954,2.3695812000000003
7.909274000000001,-3.3212937999999994,-0.8982374,-0.20305161,-0.4179191,2.462206
8.443401,-3.1868262,0.0055162404000000005,-0.3936241,-0.26141542,2.4297426
8.262858999999999,-2.966713,1.0863068,-0.55758035,-0.12620476,2.3424412999999995
8.574594,-2.8133592999999997,1.7798015999999999,-0.6688276,-0.060196407,2.2817562000000002
10.081437,-2.9905303,1.8217769,-0.75293505,-0.022392575,2.1523924
10.853271000000001,-2.477836,1.6898658,-0.8461006999999999,-0.06658431,1.9756778000000002
11.838398,-2.1176236,1.2009795,-0.9919579,-0.10756464,1.8202387999999998
13.577489000000002,-2.666183,0.6260646,-1.1282332,-0.244381,1.7323964
14.742766,-3.0040337999999998,0.42689574,-1.2485387,-0.3141069,1.8095748
15.103764000000002,-2.1451187000000003,0.27540982,-1.3379694,-0.38810885,1.8718656000000002
13.873076999999999,-0.9101030999999999,0.030636206000000003,-1.384814,-0.42163664,1.8798592
12.188708,0.046667777,-0.060305152,-1.3895962,-0.43069490000000005,1.8904883000000001
9.961191,0.7810556,-0.039887402,-1.2943013,-0.3939557,1.8617601000000001
8.325606,1.4769926000000002,-0.1930876,-1.0840589,-0.35829863,1.7222735
7.39522,2.1531439999999997,-0.37804443,-0.91263264,-0.31091297,1.37415
6.7656217000000005,2.4163048,-0.48865655,-0.7715576999999999,-0.20231856,1.0435673
6.6396003,2.3898153,-0.5710746,-0.60655427,-0.028780478999999998,0.773687
6.316086,1.8752825,-0.476925,-0.5112593,0.14580481,0.4404513
7.148961999999999,1.7184047999999998,-0.0021643583,-0.59590775,0.2565285,0.038013272
8.546371,2.0252361,0.54343593,-0.689597,0.37948695,-0.19141026
9.909036,2.3119178,1.0790378999999999,-0.42343432,0.57431805,-0.28776988
11.329889,2.473967,1.6156933999999998,0.17701129999999998,0.46094146,-0.7689746000000001
12.334669,3.0251696,2.1879845,0.83390087,0.129294,-1.3657202
13.318331,3.9866235,2.6175137000000004,1.2214338,-0.13205162,-1.644135
13.907966,4.677849,2.6500077,1.20974,-0.109693944,-1.8048799
13.933268,4.71176,2.8295252,0.82698935,0.12718214,-2.0337799
14.049261999999999,4.782484999999999,2.8897342999999998,0.38196529999999995,0.46998227,-2.2882314
14.016528,4.968332299999999,2.586207,0.32873276,0.8149291,-2.5070257000000002
14.358392000000002,4.5565968,2.2563627,0.6002187,0.97197384,-2.6837578
14.7963295,3.526075,2.4665928,0.97549945,0.9208706,-2.9264982
13.512922,4.0957417000000005,3.3753839,1.3199227,0.87509066,-3.235788
14.091504999999998,4.365664,3.4387727,1.4939843000000002,0.8175995,-3.4785285000000004
16.114998,2.916607,3.138243,1.5775682,0.821317,-3.5993576000000003
18.03061,1.1456925,2.4008672000000004,1.5882148,0.86763805,-3.5652888
18.853745,0.7791307,2.1288857000000005,1.5035663000000001,0.8495389999999999,-3.4492419
17.63661,0.7681557,1.9732245,1.3444097,0.7521147,-3.232053
15.828210999999998,0.6048710999999999,2.3918555,1.1761948,0.61477476,-2.820033
13.918328,0.39738959999999995,2.9084666,1.0489777,0.49021062,-2.2275462000000004
12.405633,0.3074155,2.7134829,0.8818275999999999,0.32412508,-1.6212363
11.239886,0.37118748,2.369436,0.63002896,0.08937831,-1.0910403
10.330366999999999,0.09570102400000001,1.8539932000000001,0.27284732,-0.16612044,-0.5400746999999999
9.530388,-0.43517968,1.2875825,-0.11360348,-0.39023817,0.03269002
8.80368,-0.9848979999999999,0.9612528,-0.38456586,-0.3806563,0.5788559
8.109114,-1.4936466999999998,0.4913668,-0.4638736,-0.24755749999999999,1.0595370000000002
7.676941,-2.0681689,0.04931098,-0.38508946,-0.23851669,1.4939146
7.403714,-2.7351456,-0.22869416,-0.16418312,-0.30984829999999997,1.8511137
7.1116023,-3.4443657,-0.27729645,-0.032166417999999995,-0.40353757,1.9405444
6.832466999999999,-3.7861809999999996,-0.25958893,-0.0758171,-0.4871214,1.9810009999999998
6.7388449999999995,-3.6355282999999994,-0.38469076,-0.08381071,-0.51958454,2.2082952999999996
6.9276133,-3.4697347,-0.6722056,-0.15885986,-0.5659056,2.4707406
7.32212,-3.4368095000000003,-0.9066938,-0.45057420000000004,-0.49775046,2.5803995
7.7077875,-3.293301,-0.47689623,-0.8338485000000001,-0.25928609999999996,2.6272439999999997
7.7771235,-2.9916793999999998,0.7084155,-1.1042698999999998,-0.07243116,2.6091452
8.036491999999999,-2.847443,1.3221356000000002,-1.0866944,0.013247048999999999,2.5883756
9.255878,-2.9860293999999996,1.3002717,-1.02388,-0.041015237999999996,2.5261023
10.167533,-2.3724813,1.2913846000000002,-0.92327917,-0.12246975,2.3584110000000003
11.40184,-1.574743,0.6928533,-0.9030507999999999,-0.2757795,2.1832848
13.302778,-1.7650724999999998,0.038556226,-1.0355911,-0.49883255,2.0677613999999997
14.830969,-2.3427455000000004,-0.35809594,-1.2219225,-0.5222549,2.0858605
15.049454,-1.9177843,-0.5422963000000001,-1.3730854,-0.42537165,2.1593212999999998
14.132176999999999,-0.91580135,-0.3971502,-1.4816798,-0.36468655,2.169968
12.369088,-0.14465767,-0.21808304,-1.5311948,-0.3726627,2.026781
10.478253,0.43432733,0.3591973,-1.4401585,-0.4503822,1.910734
8.653067,1.090894,0.56480175,-1.1782544,-0.44931757,1.8106569
7.806831,1.6944628000000002,0.35424608,-0.90624475,-0.35988688,1.5232012
7.628779,2.2911458,0.15270218,-0.68160343,-0.24649285,1.1729311000000002
7.322426299999999,2.352667,-0.32308316,-0.4356691,-0.09159488,0.8359603000000001
7.062282000000001,2.1341052000000005,-0.36465606,-0.2818183,0.042533673,0.42928118
7.874845,2.095185,0.34390312,-0.4031885,0.17667969,-0.028501227
8.819961,2.4250007,0.9432676,-0.5772501999999999,0.35660568,-0.35801938
10.613755000000001,2.7158868,1.2516791,-0.48144907,0.5982814000000001,-0.46289623
12.069123,2.8842566,1.6369156999999999,0.030647982,0.66057223,-0.86212283
12.630372,3.1548586,2.2683911,0.6577099000000001,0.401321,-1.4530215
13.300519,3.7944263999999994,2.9596548,1.1873823000000001,0.129294,-1.7835869
13.8329315,4.5329037,3.1879659,1.3726317,0.030281462000000002,-1.950737
14.211570000000002,4.7893705,3.2445838,1.2038758,0.14208725,-2.0907473999999997
14.53245,4.9801116,3.2626553,0.85734063,0.3901509,-2.2349987000000002
14.676447,5.234271,2.8075943,0.72958255,0.67333055,-2.3558455
14.669934,4.925639,2.295168,0.96221745,0.87989026,-2.5219134999999997
15.000851999999998,3.9262415999999996,2.6103982999999995,1.24435,0.8990540000000001,-2.7534838
14.3495035,3.7726107000000004,3.2978980000000004,1.3843428,0.8687027,-3.0601032000000004
14.075779999999998,4.282719,3.5925379,1.4998486999999998,0.85592693,-3.3246777
15.229957999999998,3.0980203,3.169023,1.6009905,0.86283845,-3.4518948
16.815887,1.2216175,2.6033304,1.6488998,0.877761,-3.4651942000000004
17.91519,0.36549884,2.0509403,1.6073959,0.8825431999999999,-3.3816278
17.1154,0.21651246,1.9522129000000001,1.4950665,0.8000415,-3.151122
15.430467000000002,0.17141527,2.0509975,1.3742199,0.6414085,-2.7135682
13.894846,0.12322477,2.6505822999999995,1.2427442,0.4529653,-2.126928
12.681991,0.28911424,2.8399349999999997,1.0958225000000001,0.22033036,-1.4860082000000001
11.48375,0.45479298,2.1804283,0.8887391,-0.035691983999999996,-0.9308015
10.540253,0.31268275,1.6944723000000002,0.53209853,-0.3337942,-0.41922808
9.632113,-0.1364695,1.5025244,0.09878564,-0.5100027,0.099239424
8.843845,-0.80275667,1.1887976999999998,-0.33930945,-0.48497462,0.6124010999999999
8.441907,-1.4902468999999998,0.8688845,-0.5357288,-0.34869933,1.1213043
8.073899,-2.2628654999999998,0.35356614,-0.44844490000000004,-0.27790877,1.4843502
7.444119000000001,-3.1085167,-0.0112240175,-0.16310102,-0.28110272,1.7755234
6.7772190000000005,-3.7218823,-0.26359203,-0.0012915436,-0.48603928,1.7622241
6.3162775,-4.023427,-0.42607215,-0.15353662,-0.59890974,1.6828988
6.09874,-3.859204,-0.52425355,-0.30949923,-0.58026963,1.9176631000000002
6.7567725,-3.4507246,-0.81242925,-0.42608723,-0.4104491,2.2508988
7.2128773,-3.3133452000000005,-1.0951461,-0.6741334,-0.23851669,2.474999
7.758257400000001,-3.0987767999999996,-0.6868869000000001,-0.9472251,-0.08360127,2.5292962
7.719519,-2.9361722,0.10327628,-0.96532416,0.050527282,2.4734107999999995
7.81137,-2.6416664,1.1404061,-0.79230964,0.06595599,2.4361479999999998
9.548,-2.6173797000000003,1.4855638999999998,-0.6400646,0.02443461,2.3807862
10.675343,-2.0830991,1.1875911,-0.5852438,-0.023457225,2.280709
12.042433,-1.4281701,0.41812340000000003,-0.67680377,-0.023980823999999998,2.1210112999999997
13.509274,-1.7457658,-0.19628625,-0.80295616,-0.11021754,1.9527966
14.650646,-2.5970767,-0.15223293,-0.9706474,-0.14002776,1.9581198
15.031401999999998,-2.4138916,-0.09882306,-1.1244806999999999,-0.2539454,2.021999
13.979169,-1.5165926,-0.14057794,-1.2101939,-0.31943017,2.118341
12.708816,-0.5910135,0.07874051,-1.1553556,-0.40034363,2.0906775
10.871303999999999,0.20726125,0.6523529,-0.995658,-0.46528733,2.0986537999999997
8.941309,0.89372677,0.5977076,-0.74014175,-0.45835838,2.0864015
7.7949266,1.5585966,0.29062736,-0.5000543,-0.45942299999999997,1.8835943
7.3714504000000005,2.0249488,-0.02141374,-0.37070793,-0.42589524,1.5828216
7.308971400000001,2.3629622,-0.40059784,-0.29140016,-0.2992018,1.2235107
6.923628999999999,2.0057952,-0.3600592,-0.29190633,-0.13151056,0.7875449000000001
7.132969,1.720732,-0.34505233,-0.46013859999999995,0.04626868,0.2972645
7.704924,1.4912813,-0.17012239,-0.68477994,0.200102,-0.10995574
9.443038,1.8213457999999998,0.43463379999999996,-0.63048273,0.41516146,-0.26113617
10.742266,2.0682073,1.0682448,-0.23549728,0.60362214,-0.8094139
11.742697999999999,2.3024560000000003,1.620865,0.060999255999999995,0.33639476,-1.7255546999999998
12.942929,2.9977129000000002,1.9931442,0.37294194,0.18840829,-2.1237340000000002
13.775106,3.8829834,1.9355301999999999,0.5922426,0.18147933,-2.2200937
14.288557999999998,4.4716983,1.8840643,0.51241124,0.22778292,-2.263727
14.777291,5.023859,1.9140015,0.34526104,0.3640757,-2.3600867
14.803272,5.3606844,1.7905947,0.38463566,0.63395596,-2.4271595
15.192521,5.141873400000001,1.6857479,0.7184124,0.81814057,-2.5038145
16.420212,4.107425,1.8155519,1.2262509,0.83091635,-2.6443484
16.29916,4.246107,2.7834318,1.7346130000000002,0.73829174,-2.8759186000000003
15.508920000000002,5.335536,2.889246,2.0668015,0.6834709,-3.0627560000000003
16.030819,3.8968506,2.4691593999999997,2.2036004,0.67441267,-3.1984904
17.392889,1.2708518999999998,2.4847026000000003,2.2397985,0.6935764,-3.2448113
18.166954,-0.04444596,2.1808400000000003,2.150909,0.6430142,-3.2048783
17.082075,-0.39456445,2.1698172000000002,1.985888,0.54771924,-3.096825
15.150451,-0.44013090000000005,2.5918189999999997,1.7947743999999999,0.42421973,-2.892953
13.521551,-0.48643476,3.1371129,1.58345,0.24483478,-2.560241
12.271261,-0.42612,3.3131343999999996,1.2869358999999998,-0.013875367,-2.0289803
11.160953999999998,-0.23468922,3.0671926,0.92389005,-0.24808110000000003,-1.474297
10.167964,-0.2647987,2.7151107999999997,0.34313172,-0.43013638,-0.9424952
9.438508,-0.60094464,1.9848027,-0.40423572,-0.45729372,-0.47139597
8.790177,-0.9649781999999999,1.5494412,-1.0669895,-0.25553367,0.04335398
8.291178,-1.3949673,1.0013796,-1.3187708,0.019652408,0.5948431
7.9562100000000004,-1.8486207,0.45963886,-1.2352045,0.114947386,1.0941644
7.961170699999999,-2.3956861000000003,0.07802225,-0.8673588,0.060650192,1.4678568
7.970364,-2.9584575,-0.21334253,-0.48408452,-0.17037904,1.5588757
7.803344999999999,-3.4548235000000003,-0.56099015,-0.2136632,-0.43226570000000003,1.6030674999999999
7.525962400000001,-3.696542,-0.8733569,-0.04544837400000001,-0.57547,1.8159976000000002
7.6753125,-3.5089037000000003,-1.1841339,0.09293878,-0.6207089,2.1566857999999995
8.132826,-3.1987205000000003,-1.4795878999999998,-0.0842994,-0.6287024999999999,2.446271
8.350372,-3.1023014,-1.0826198,-0.56660366,-0.43706536,2.6155505
7.986414999999999,-3.2007985,0.14297216,-1.0179982,-0.12938125,2.6762354
7.450506699999999,-3.1547822999999995,1.4518726999999998,-1.1021056,0.09524262,2.6874056
8.331496000000001,-3.2256696,1.8820723000000001,-0.9823411,0.17615607,2.6400373
9.738598,-2.660456,1.8409591,-0.83967793,0.16392133,2.4510531
10.29069,-1.8129758000000002,1.4740334,-0.7172430999999999,0.039880775,2.174785
11.2216425,-1.8085417000000001,0.78109396,-0.63207096,-0.086795226,1.9357796000000003
13.22016,-2.4874224999999996,0.2705448,-0.62355375,-0.24649285,1.8639069
14.311312,-2.5740638,-0.26264393,-0.7529176,-0.36519268,1.8953054
14.028652,-1.8761156000000003,-0.7365618,-0.85351837,-0.388615,1.9820832
12.857035,-0.92416185,-0.6198779999999999,-0.9573130999999999,-0.34018213,1.9916650000000002
11.378472,-0.09805692,0.05227021,-1.0222569,-0.3859621,1.9559904
9.549005000000001,0.69379175,0.6824528,-0.9679595999999999,-0.44184756,1.9240685000000002
8.316872,1.5417318000000002,0.65922904,-0.8407425,-0.3385764,1.8064158
7.782534599999999,2.2440662000000002,0.39982212,-0.6901031999999999,-0.1852667,1.5407766
7.485136,2.5726178,0.1982399,-0.51867694,-0.044732787,1.1580434
7.057149000000001,2.5129158,-0.031459812000000004,-0.36058503,0.02019346,0.71727794
6.8246910000000005,2.0116465,-0.34882563,-0.35260886,0.0824668,0.28183576
7.966984,2.0012366999999998,-0.16105317,-0.51124185,0.13730505,-0.10567968
9.164085,2.2916915,0.34082898,-0.57138586,0.28794440000000004,-0.23663174
10.559713,2.6373472000000002,0.65015984,-0.23762658,0.5322905,-0.4948183
11.814159,2.896486,0.9552578000000002,0.15894714,0.3523645,-1.2922418
12.914361999999999,3.4366274,1.6447592,0.5794842,0.089919366,-1.8927048
13.665146,4.260511,2.1923513,0.8067959,-0.041015237999999996,-2.080066
14.151906,5.015958,2.4580407,0.73705256,0.10323623,-2.1035056
14.429672,5.506482,2.3623874,0.5454154,0.33320079999999996,-2.150874
14.522941000000001,5.595154,2.0728136999999998,0.5714906,0.6621779000000001,-2.2349813
14.517145999999999,5.325365000000001,1.7310462,0.91273737,0.86180866,-2.3409054
15.802967,4.166725,1.7055622,1.4226876,0.8314574,-2.5549176
16.095125,3.7999334000000005,2.5424314,1.9235972,0.6957057,-2.8764422
15.080855999999999,4.753898,3.1149426,2.1897599999999997,0.56848866,-3.139411
16.23126,4.1286572999999995,2.8189618999999997,2.2914429,0.5259026,-3.2554404999999997
17.538609,1.7653502,2.5980343999999995,2.250986,0.5865876999999999,-3.2740805
18.521275,0.15962622,2.3255074000000002,2.0662776999999997,0.61001,-3.2133956
17.077477,-0.324309,2.3851516,1.8006387,0.5413313,-3.0270815
14.887816,-0.22352268,2.8025088,1.5185063,0.4135732,-2.7178092
13.211128,-0.17161638,3.2071576,1.2374383999999998,0.21289526,-2.2413692000000003
11.840314,-0.030569167999999997,3.3194362999999996,0.94040084,0.0031590459999999996,-1.6457058
10.759772,0.14435121,3.0066671,0.56512016,-0.26405087,-1.0883524
9.77228,0.16930836,2.4607794,0.04024729,-0.50200903,-0.67687356
8.828255,-0.19395906,1.6542497999999999,-0.58522636,-0.5621531,-0.2611187
8.150534,-0.63451135,1.2106137,-1.0637782,-0.43013638,0.23287928
7.725706,-1.1074427,0.7779815,-1.2027239,-0.23265238,0.714084
7.4844947,-1.6440696,0.17710388,-1.1207458000000001,-0.15439183,1.1420736
7.4474616,-2.3152217999999998,-0.25826734,-0.92059135,-0.1810081,1.4848912
7.446858,-2.9927905,-0.54854995,-0.72310734,-0.34124678,1.6653407999999998
7.2469325,-3.5505724,-0.7007445,-0.39891246,-0.38116246,1.9102105
7.153204,-3.6204927000000002,-0.83760667,0.01150172,-0.41364303,2.2338817000000004
7.411749400000001,-3.2170122,-1.0938629,0.3612308,-0.47378707,2.4489237999999998
8.194289,-2.8491576000000003,-1.190081,0.38625879999999996,-0.49082148,2.485663
8.614606,-2.9965444,-0.7288045999999999,0.092415184,-0.38276815,2.3924972999999996
8.461453,-3.1944013,0.61865216,-0.27487192,-0.08785988,2.3493876
8.425798,-3.2868462,1.6604936999999997,-0.58896136,0.15912166,2.3781333
10.15064,-3.4525057999999995,1.7810944,-0.85830057,0.32468359999999996,2.3350062
10.512011,-3.0402242999999998,1.6223398,-1.0222569,0.3922802,2.199272
10.466567999999999,-2.6028993,1.7695831999999998,-1.097847,0.28209758,1.9512082
11.839317,-2.8230414,1.7977773000000001,-1.1590731,0.089919366,1.7553126000000001
14.031908,-2.9350232999999997,1.1295365,-1.1841012,-0.056985,1.6451124
15.318734,-2.2933772,0.3690518,-1.2820491000000003,-0.09264208,1.7451897
14.514589,-1.0546554,-0.43047747,-1.3869083999999998,-0.14268066,1.7835345
12.586424000000001,-0.1534779,-0.5894140999999999,-1.4507874,-0.18367845,1.8404846000000001
10.446409,0.39362592,-0.51016605,-1.4459878000000002,-0.19165461,1.8010925
8.6183605,0.95411813,-0.5623597,-1.3368698,-0.19538961,1.6866338
7.5978937,1.6693907,-0.5811301999999999,-1.1590731,-0.22307053,1.4779623
7.107168700000001,2.2447844,-0.64350396,-1.0009638,-0.19804251,1.2235281
6.6400023,2.4907357999999995,-0.7076303,-0.80400336,-0.07721337,0.9887639000000001
6.571758,2.388848,-0.6251356,-0.5820324,0.05852089,0.7151487
6.808936999999999,2.026146,-0.31135157,-0.46917942,0.13995795,0.31323424
7.9736012999999994,1.9428276000000002,-0.0044340617,-0.47076765,0.14369296,-0.050317843
9.144002,2.096392,0.45368207,-0.24453808,0.3119078,-0.17168804
10.898089,2.3371623,0.9309613999999999,0.21910863,0.37098718,-0.6832615
12.250938,2.7856634,1.3595905000000001,0.6673266,0.103759825,-1.4668446000000002
12.906317999999999,3.4337065000000004,1.8794004,1.0415425999999999,-0.09477138,-1.8320198
13.202682000000001,4.137496499999999,2.1448696,1.096381,-0.114476144,-1.9512432000000002
13.498395,4.460982,2.5024102000000004,0.82754785,0.0739496,-1.992782
13.779675,4.560207,2.8716437999999997,0.4953768,0.3289422,-2.1578028
14.219834,4.7964387,2.8676887000000004,0.50708795,0.6328913,-2.3696509999999997
14.9189415,4.7944083,2.4312255,0.82967716,0.8538150999999999,-2.5671525
16.199179,3.8888059999999998,2.3295486,1.1836648,0.828787,-2.8381147
15.357913,4.3479085,3.1994483,1.488696,0.7308392,-3.090437
14.801079000000001,5.0231023,3.2194542999999998,1.6601048999999999,0.67760664,-3.2506583
16.251516,3.572532,3.023417,1.7655052,0.7036993,-3.3321127999999995
18.066656,1.1626436000000002,2.5550537,1.7878629000000001,0.72179836,-3.2985675000000003
18.806185,0.06315904,2.159618,1.7394300999999999,0.684012,-3.165486
17.302475,0.00031603462000000005,2.0883567,1.6356178999999997,0.5610361,-2.9509678
15.378092,0.24551101,2.4679623,1.5004072,0.37205184,-2.5900512000000004
13.49443,0.3475998,3.1276990000000002,1.333257,0.15912166,-2.1008353
11.960828,0.366083,2.8201206,1.0979691999999999,-0.012269665,-1.5323118
10.636921000000001,0.33384746,2.2540834,0.73705256,-0.1847431,-0.9621825999999999
9.491266,0.028979417,1.7088279999999998,0.21059142,-0.35241687,-0.42559853
8.620869,-0.42040268,1.3279104,-0.41168827,-0.47432813,0.04654793
7.991596,-0.91231537,0.9458725,-0.8854579,-0.42055455,0.5543864000000001
7.3380656,-1.4628763,0.5426219,-1.0323797,-0.23584634,1.0606191
6.982105000000001,-1.9688096000000002,0.18013015,-0.93762577,-0.17835520000000002,1.4667921
6.832592,-2.6192757999999996,-0.16533399999999998,-0.6432585999999999,-0.21188296,1.7372134999999997
6.7911625,-3.2230263,-0.4365779,-0.36590827,-0.36519268,1.7510539
6.777056,-3.6093931000000006,-0.54163545,-0.1471138,-0.43493605,1.8426139
6.771147,-3.6595852,-0.6278459,0.08283333,-0.46952847,2.0864189
7.202707000000001,-3.5144870000000004,-0.87170964,0.20259781,-0.49508008,2.3153188
8.0958395,-3.3776152,-1.0953186000000001,-0.10028662,-0.55311227,2.4116611
8.444311,-3.222691,-0.73594886,-0.6400646,-0.35828119999999997,2.485663
8.349559,-3.1883872,0.6268786,-1.0121514,-0.018116517,2.55593
8.536191,-3.168879,1.5785163999999998,-1.1100992,0.21980676,2.567641
9.933783,-3.144966,1.7673613000000001,-1.0425026,0.25813420000000004,2.460635
10.418024,-2.3580778,1.7820426,-1.0153453000000001,0.104824476,2.1997955
10.9327,-1.7026606,1.564132,-1.1106228,-0.030892327,1.9192686999999997
12.461972,-2.0588698,0.966635,-1.0967823,-0.11287044,1.6941038
14.37155,-2.5489151000000003,0.34412342,-1.0424851000000002,-0.07189011,1.7286962
15.2106695,-2.1715026,-0.5013363000000001,-1.1127696000000002,-0.115540795,1.744125
14.38535,-1.2869313,-1.2347952,-1.1425624,-0.28002062,1.7930988999999997
12.709236,-0.575365,-0.9104861999999999,-1.055261,-0.44450045,1.7824699000000002
10.696736999999999,0.30702287,-0.20789333,-0.9280439,-0.5195671,1.7430603999999998
9.083735,1.2217419,0.027447129,-0.88226396,-0.45675266,1.6733343999999997
7.943588,2.190867,-0.23649924,-0.8694881,-0.31728340000000005,1.5131131000000002
7.6538699999999995,2.8018002999999996,-0.6091615,-0.8221199,-0.16184439,1.2810018
7.1575427,2.9352145,-0.49290866,-0.6767863000000001,-0.048467792999999995,0.98237604
6.8150473,2.362694,0.21861933,-0.52241194,0.0031590459999999996,0.6299766
6.863822,2.0029125,0.08800127,-0.51815337,0.051591933,0.23019147
8.207716,1.812382,0.10222284,-0.65442866,0.16550957,-0.07054621
9.637457000000001,1.9496558999999998,0.40466797,-0.6033254,0.39760345,-0.20788616
11.248783,2.3019865000000004,0.99473333,-0.19662879999999996,0.5338961999999999,-0.6060656
12.152863,2.6969819999999998,1.4064403,0.256895,0.3076492,-1.2996943
12.631827000000001,3.2344801,1.7737875,0.7088479999999999,0.016458455,-1.7148907
13.05607,3.7971466,2.0670004,0.910067,-0.07934267,-1.8682178
13.5853615,4.188626999999999,2.2758993999999997,0.7359879,0.093654364,-1.9618897000000002
14.037463,4.467455999999999,2.386885,0.45759043,0.38004544,-2.1269107000000003
14.063310999999999,4.65066,2.2965662,0.46130797,0.7691666,-2.2914077999999996
14.103207999999999,4.554155000000001,2.1459037999999997,0.7413286,1.0167066999999999,-2.4851744
14.841809,3.7398483999999996,2.222729,1.1251091,1.0337411,-2.7316496
14.924370999999999,3.8282902,3.0853214,1.527041,0.9687974,-3.0238876
14.414454000000001,4.484483200000001,3.3567572,1.8352311999999997,0.9347285,-3.2644987000000003
15.815435,3.4096017,3.103527,1.9928168999999998,0.9416399999999999,-3.3800046000000004
17.555052,1.2956079,2.8212697999999996,2.0247564,0.94485146,-3.3645758999999997
18.635891,0.17677827,2.482155,1.9140153000000002,0.8490154000000001,-3.2618457999999997
17.516123,0.10061393,2.7060034,1.7250485,0.69677037,-3.0361222999999997
15.568,0.21338083,3.1151054,1.4908253,0.5354845,-2.6571066
13.663681,0.31141862,3.535671,1.2289212,0.33904767,-2.1120229
12.177944,0.35035792,3.320461,0.9467886999999999,0.12346459,-1.4859908000000002
10.87546,0.38454708,2.8591366000000003,0.59013075,-0.10861184,-0.98028165
9.875268,0.19046353,2.4456291,0.12594296,-0.3385764,-0.53312826
9.027078999999999,-0.38952705,1.7520958999999998,-0.36219072,-0.43333036,-0.08386307
8.241091,-0.97892207,1.2277371000000001,-0.67785096,-0.38594466,0.4143935
7.68238,-1.5695045,0.544882,-0.75715876,-0.28906143,0.87964594
7.416710000000001,-2.1306383999999996,-0.05656062,-0.5846853,-0.20284216,1.3097475
7.175796000000001,-2.7827425,-0.40864232,-0.29190633,-0.2400875,1.641936
7.070891400000001,-3.4661144999999998,-0.64239305,-0.12315043,-0.451953,1.6829163
6.841297,-3.8583708,-0.762649,-0.07204719,-0.5035973,1.7494657
6.936116999999999,-3.6940712999999996,-0.80992013,0.08443903,-0.5185024,2.0039172
7.6412960000000005,-3.3019394999999996,-1.0094816999999998,0.15894714,-0.5211553,2.2594335
8.09946,-3.2365394,-1.0285491,-0.092816606,-0.49028045,2.386127
8.396811,-3.240389,-0.38949832,-0.5240002,-0.2986433,2.4287127999999996
8.040821000000001,-3.2661700000000002,0.79632103,-0.78909826,-0.041538835,2.471299
8.351685,-3.162099,1.6255289,-0.93443185,0.0015707964,2.5128202
9.981378999999999,-3.170852,1.7802805,-1.0297093000000002,-0.021834067999999998,2.452659
10.401867999999999,-2.4491248,1.4393175,-1.1015645,-0.030892327,2.3265064
11.091053,-1.7603799,0.94992346,-1.1755666,0.03296927,2.1966189999999997
13.040661,-2.0967078000000003,0.47813165,-1.1909952,-0.025569074,1.9629368999999999
14.761153,-2.5514624,-0.006550535600000001,-1.1468208999999998,-0.20655972,1.8149330000000001
15.140243,-2.1725847999999996,-0.6417035,-1.1446916,-0.33644712,1.7574419
13.971144,-1.2538052,-1.0835104,-1.1585321000000002,-0.42907175,1.6967567
12.3179,-0.5923925,-0.8747647,-1.2224111999999998,-0.44237116,1.6461946
10.498467999999999,-0.01622311,-0.7123133,-1.3288587,-0.4237485,1.592962
8.891309,0.6337164000000001,-0.8065108,-1.4108368999999998,-0.32473597,1.5216303999999998
7.908354300000001,1.4923635,-0.6891853,-1.4449232,-0.19378391,1.4066482
7.343122,2.1115327,-0.5358319,-1.4167011999999999,-0.096359625,1.1969119
6.7555084,2.5077537999999997,-0.47719312,-1.2394281999999999,0.024993114,0.9179734
6.783616,2.514831,-0.20737618,-0.90034556,0.08674286,0.58473766
7.067559200000001,2.3196175,-0.12463256,-0.59798473,0.102712624,0.22434463
8.263913,2.4761982000000002,0.13247597,-0.43244022,0.11707669,-0.02263692
9.500374,2.6692953,0.5592471999999999,-0.1455081,0.320425,-0.12377875
11.048552,2.7232895,0.86573374,0.32930872,0.41572,-0.5837079000000001
12.3248625,2.9029505,1.2815683,0.7753974,0.3033906,-1.3544976999999998
13.063157,3.3223762999999997,1.8280494999999999,1.0676353,0.12507029,-1.8085798999999998
13.352013000000001,3.7994642,2.276139,1.0559242,0.14316936,-1.9762537
13.546785999999999,4.147734,2.7866112999999997,0.8477937,0.41678459999999995,-2.040674
13.682547,4.3564224000000005,3.4087687000000004,0.68170816,0.7415031,-2.1599147000000003
13.820979000000001,4.4411097,3.6898190000000004,0.8738689000000001,1.0598338,-2.2759616
14.431137,4.0010366,3.5222251000000004,1.3322272,1.1332946000000002,-2.40372
15.726323,3.1005773999999997,3.4666126000000004,1.8980805,1.0082068000000002,-2.6043978
14.652398999999999,3.7198904,4.188579,2.3973842,0.8660673000000001,-2.8641900000000002
14.452091000000001,4.5084925,4.1041985,2.6901808,0.7548024999999999,-3.0920078999999996
16.642029,3.3203459000000004,3.586294,2.7662945,0.7244687,-3.2325592
18.228226,1.0134944,2.8370142000000005,2.5799806,0.677083,-3.2703457
18.773308,-0.21885876,2.7163272000000003,2.2339866,0.6116156999999999,-3.1814383999999998
17.106207,-0.5725207,2.9990442,1.8389837,0.5695533,-2.955209
15.233722,-0.57185984,3.3358315999999997,1.4642264999999999,0.5232497,-2.5756521
13.32221,-0.5073888,3.661175,1.1150209999999998,0.40933207,-2.1721494
11.718401,-0.43788993,3.4651568,0.72481775,0.21024236,-1.6393005
