accx,accy,accz,gyrx,gyry,gyrz
-0.12048581,5.061151000000001,2.8576137999999998,1.1752523000000001,-1.0288891,-1.2763593
0.28182626,5.036098,2.8910081,1.0480353,-0.9852209000000001,-1.1938401
0.8101979,5.849944,2.5671107999999996,0.90804243,-0.8553334999999999,-1.0490476
0.69835037,6.7077103000000005,1.9282613999999998,0.74406874,-0.57002455,-0.8441110000000001
0.21396501,7.42645,1.6638648999999999,0.60939914,-0.3671998,-0.6119996999999999
-0.33532232,8.020067999999998,2.0985560000000003,0.5146452,-0.42894956,-0.36925929999999996
-1.1452233,8.713314,2.4535012000000003,0.34271285,-0.43427283,-0.23884831
-2.4679527,9.578789,2.8329343999999996,0.13775884,-0.17715092,-0.06531022
-2.0789237000000003,10.305976,2.907193,-0.10494665,0.22420500000000002,0.081611596
-1.4951311,11.4176035,2.6356137000000004,-0.3354523,0.6447421,0.30251792
-1.8715761999999998,12.738206,2.4670715,-0.5457295999999999,1.089225,0.6181781999999999
-2.0286932,13.388020999999998,2.3540652,-0.7123387,1.2744743,0.9636661
-2.1587558,13.427745999999999,2.0523672,-0.8422261000000001,1.1882375,1.2761323
-2.7939184,12.609811,2.5666416,-0.9321978000000001,0.87257737,1.5587883999999999
-2.8748709999999997,12.658114999999999,2.2841259999999997,-0.98330104,0.5776690999999999,1.7621542000000001
-2.1590338,12.146407,1.6451325,-0.9950121999999999,0.2747672,1.8611667
-1.8633496999999999,10.651995,1.4829206,-1.0061997,0.14755014,1.838268
-1.6448932,9.681127,1.166388,-1.0109819,0.13158037,1.7818415
-1.9164435000000002,8.994739,1.017076,-1.0248225,0.10655235,1.753096
-2.445897,9.004611,0.66496557,-1.071126,0.26199138,1.6674002
-2.9902046,9.82521,0.41670603,-1.1089299,0.5766044,1.5747757
-3.1451764,11.043696,0.22488259,-1.1254407,0.47970375,1.5343015
-3.1180357999999995,12.328289999999999,0.08038772,-1.1041301000000001,0.20769417,1.4784161
-2.6548154,12.393432,0.18785864,-1.1009363,-0.013735741000000001,1.4326535
-2.0960758000000004,11.017636999999999,0.5911763000000001,-1.1461927,-0.08506735,1.29849
-1.2137165,9.354338,0.9298313,-1.1105181,-0.045675267,1.1654087
-1.0137433,8.067578,1.1459799,-1.0136349,0.1635199,1.0616139
-0.7576691,7.3380847000000005,1.1073087,-0.9029111999999999,0.37271506,0.8933991
0.12093591,6.899151,0.9857406999999999,-0.806569,0.5393416,0.6767340000000001
-0.097376965,6.9229970000000005,0.9067033000000001,-0.6452656999999999,0.5366713000000001,0.4675388
-0.6993941999999999,7.2463675,0.9607261,-0.49408525,0.44032910000000003,0.27110198
-0.5123017,7.403082400000001,0.86414397,-0.34184018,0.25507987,0.049131017
0.03967671,7.943836699999999,0.6920871,-0.23698081,0.120392814,-0.14355333
0.62239665,8.567746000000001,0.829361,-0.13583897,0.06928957,-0.30965632
0.8816790999999999,9.132989,1.6203382,-0.08367108599999999,0.05651376,-0.33519047
1.2247108,9.719722,2.0402524,0.03663446,-0.017453292,-0.38203509999999996
1.3084791,10.044261,2.2369312999999997,0.18833847,-0.046739917,-0.47839475
1.2732843,10.967445,2.7587812,0.36082938,-0.05311037,-0.56728435
0.9733386999999999,12.012563,3.410885,0.5327443000000001,-0.115942225,-0.66523224
0.7246961,11.983105,3.6980169999999997,0.675425,-0.19950859,-0.7961843000000001
0.16825491,10.732871000000001,3.9012269999999996,0.78241366,-0.27616346,-0.9367181999999998
-0.084946275,10.020251,3.9748727999999995,0.84470445,-0.333131,-1.0383836
-0.85930777,9.801028,3.4417224,0.9005898999999999,-0.32194343,-1.1091917
-1.79342,8.883014999999999,3.2975434999999997,0.958081,-0.23837706,-1.1815878999999998
-1.8528343,8.281257,3.7854242,0.99108523,-0.115942225,-1.2571781000000002
-2.0026443,8.632927,4.295313,1.0097253000000002,-0.13030629,-1.3194689
-2.0296988000000002,9.359519,4.545545,1.0070549000000002,-0.1515993,-1.4355159
-1.7113276000000002,10.3778305,4.225421400000001,1.0150485999999999,-0.06908013,-1.531858
-1.2523015,11.309558,3.5973550000000003,1.0294126000000001,0.013945181000000001,-1.6037133
-0.94706,11.300229,3.2346525,1.0421884,-0.0030717794,-1.6484286
-0.8936405999999999,10.215703999999999,3.2436166,1.0240893,-0.36079445,-1.6388468
-0.6821751,8.744994,3.2387322999999997,1.0155896,-0.77335536,-1.6175537
-0.42515278,7.201403999999999,3.0358286,0.9665983,-0.95541066,-1.5840258999999999
-0.30858386,5.793642500000001,2.5339944,0.88196725,-0.95434606,-1.541981
-0.41491517,5.3732394999999995,2.5665076,0.7744375,-0.75312704,-1.35832
-0.044302307,5.3323279999999995,2.5888503,0.6711489,-0.5077337000000001,-1.1107973
0.15062402,5.858698,2.7296292999999996,0.5737420999999999,-0.2532822,-0.87123346
0.3061705,6.796334,2.6560794999999997,0.48270569999999996,-0.15053464,-0.62158155
-0.2137256,7.6829553,2.5892334,0.44279003,-0.37784633,-0.42835617
-1.2575208999999998,8.522582,2.6089518,0.37358773,-0.5875825,-0.31017992
-1.15978,9.356349,2.8782039,0.24317673,-0.37357026,-0.22446679999999997
-0.93076986,9.86865,2.8391402,0.10103711,-0.011588986,-0.08232718
-1.3446316,10.882872,2.7368982,-0.07035422,0.33012903,0.075206235
-1.5954386,11.392838000000001,2.439088,-0.2508038,0.6468714,0.30518827
-1.8506794999999998,12.231345,2.3867414,-0.41263074,0.8757712999999999,0.57719785
-2.5748682,12.858941,2.2333496,-0.5270894,0.92848027,0.8811644000000001
-3.2461162,12.727481,2.0545986000000003,-0.6101321999999999,0.83372635,1.1457214
-3.2798263999999997,12.275226,2.648102,-0.68465775,0.6495243,1.3895263999999998
-2.5288131000000003,12.269297,2.365615,-0.7362846,0.4813269,1.5561530000000001
-2.0620781999999998,10.888409,2.1978867,-0.7985753999999999,0.3791204,1.6343961
-1.9556797,9.793022,1.6288329,-0.848614,0.31417670000000003,1.6503657999999999
-1.8364484,9.37985,1.1155926,-0.90397584,0.33279938,1.6397194
-2.2005491000000004,9.199997999999999,0.75069714,-0.9497384,0.37699112,1.6360018
-2.6910347999999997,9.573033,0.59307253,-0.99764764,0.40093702,1.6328079
-2.9819207000000003,10.415811999999999,0.5953039000000001,-1.0471627000000001,0.49408525,1.569976
-3.1407807,11.43646,0.6349806,-1.0886841,0.6138672,1.4725692
-2.861205,11.76502,0.756041,-1.0982833,0.43127087,1.4507351000000002
-2.5541918,10.909764,0.96239245,-1.0546151000000001,0.06876597599999999,1.4017786
-1.9330019,9.28818,1.1635053,-1.0051177,-0.13988814,1.3160655
-1.2917773000000001,8.064427,1.274357,-0.9939300999999999,-0.33737215,1.1377453000000002
-0.92578036,7.2671776,1.2935296,-0.91888094,-0.38262853,0.9807005
-0.6323757,6.888003299999999,1.3373148000000001,-0.81719804,-0.21121974,0.8279318000000001
-0.42813113,6.843825999999999,1.1462767,-0.71979123,-0.06588618,0.69697976
-0.01526543,7.215089999999999,1.0458927,-0.61384976,-0.050981067000000005,0.47712067
-0.5349125,7.9598303,1.0260112,-0.50260246,0.044279,0.18540633
-0.91636634,8.512823,1.3349684,-0.39029053,0.12784536,-0.03070034
-0.46117115,8.763199,1.4712657,-0.31894147,0.0006283185,-0.11267845
0.06290047,9.19905,1.2840774,-0.26783824,-0.04246386,-0.15259413
0.22019953,9.735926,1.6649374,-0.17414895,-0.04939282,-0.21382028
0.6377866,10.522086,2.3967972,-0.009128072,-0.0850499,-0.31229177
0.5481477,11.1924715,2.8446755,0.15053464,-0.13350023,-0.31602678
0.42507613,11.504617999999999,3.116159,0.30279717,-0.16543975,-0.3378434
0.54036176,11.911546000000001,3.6440900000000003,0.41512656,-0.14892894,-0.46134287
0.72643906,11.45593,4.2622919999999995,0.52424455,-0.17554522,-0.63275164
-0.09470504,10.44073,4.3523426,0.63390356,-0.28841567,-0.77543235
-0.8812578000000001,9.746824,3.978493,0.72706926,-0.37304667,-0.8850739
-1.3010571000000002,8.994297999999999,3.5577360000000002,0.7765668000000001,-0.32141984,-0.9798278
-1.8543953999999998,8.817758999999999,3.795825,0.8031831,-0.14788175,-1.0740582
-2.4225395,8.880602,4.531573000000001,0.82606435,0.053319807999999996,-1.1421958
-2.5616903,8.848175,4.780828,0.87664396,0.12732176,-1.1752
-1.9439768,9.56883,4.312857599999999,0.9171007,0.10976376,-1.2523785
-1.3920846000000002,10.723935,3.5386589,0.9665983,0.15978489999999998,-1.3742898000000001
-1.2619837999999999,11.119994,3.3673297999999994,1.0027964,0.26199138,-1.482884
-1.0139539,10.365658,3.493236,1.0358006,0.32641149999999997,-1.5494161
-0.5799906,8.918985000000001,3.2868269999999997,1.0421884,0.14861478,-1.5984074
-0.26526797,7.4116054,2.9754372000000004,1.0352595,-0.283616,-1.5685972
-0.02912307,6.2521605000000005,2.7019715,1.0059903000000001,-0.6743429,-1.5707265
0.042789172,5.376467,2.6638846000000003,0.9378527,-0.9138893,-1.5095003999999999
0.07996634,5.1125593,2.8373685,0.87025607,-0.9564753,-1.3742898000000001
0.39041770000000003,5.392614,2.9673545,0.79946554,-0.7845255,-1.1075859
0.6094297,6.0740323,3.0023386000000003,0.6754074999999999,-0.5551020000000001,-0.8371821
0.5005318,6.9200473,2.8723142000000004,0.56843626,-0.46725956,-0.6402042
0.09616072,7.538469999999999,2.776977,0.53649676,-0.77281433,-0.49808207
-0.7427005,8.323519000000001,2.8689241,0.40126866,-1.006514,-0.3543542
-1.2797103,9.375588,3.0674033,0.24956463,-0.71425855,-0.21221459
-1.8537538,10.354367,2.6522105,0.044087015,-0.065903634,-0.05146976
-2.090435,11.157639999999999,2.6133382000000003,-0.17043139999999998,0.5260421999999999,0.18860027
-1.9764806000000001,12.211271,2.7566743,-0.33704054,0.9976825999999999,0.5575104999999999
-2.1694725,13.566151000000001,2.167576,-0.4658633,1.2436169,0.8971341
-3.0178529999999997,14.124995000000002,1.4337916000000002,-0.56168187,1.261716,1.2234409
-3.189115,12.775105,2.0725455000000004,-0.62662554,1.0407921999999998,1.4640520000000001
-2.8843427000000004,11.753002,2.8583894,-0.6974336,0.8512843000000001,1.6312022
-1.8805880000000001,10.962628,2.6210475,-0.7762177,0.81136864,1.7339497
-1.1699506000000002,9.404845,2.1384053,-0.84807295,0.70064497,1.7754710999999999
-1.0331364,8.685331,1.6545657999999999,-0.91992813,0.5313654999999999,1.764301
-1.7644978999999998,8.433652,1.5351716999999998,-0.97104883,0.5036670999999999,1.7222210999999998
-2.4200304,9.047047000000001,1.316811,-1.0333222,0.34077555,1.7344733
-3.1674043999999997,10.321088,0.85957587,-1.0785611000000002,0.1635199,1.7206328000000002
-3.3802488,11.507683,0.82051206,-1.1206236,0.09964084599999999,1.665271
-3.204189,12.432821,1.0818823999999998,-1.1333993999999998,0.32588790000000006,1.5529591
-2.6933045,12.190652,1.2019658000000002,-1.1483045,0.48558549999999995,1.4906683
-2.4455142000000003,10.751594,1.2337322,-1.1514984,0.42861795,1.3916732
-2.2017078,9.592713999999999,1.4763606000000002,-1.0870957,0.18320721,1.2867788999999998
-1.2448891000000002,8.180163,1.4760636,-1.0051177,-0.11646582,1.1026118
-0.8352700000000001,7.4700812999999995,1.4227017,-0.89013535,-0.28042206,0.9066985000000001
-0.9264315999999999,7.1914062,1.2168193999999999,-0.7730238,-0.32780772,0.7395484
-0.36002090000000003,7.2878637,1.0580648000000001,-0.6324724,-0.45928338,0.5489933000000001
0.09131485,7.498543700000001,1.0661284,-0.509514,-0.47738245,0.26631978
0.70300466,7.874596,1.3255259,-0.37749726,-0.30332077,-0.006213371999999999
0.58868635,8.099623,1.0837785,-0.27848473,-0.050981067000000005,-0.25427702
0.38090792,8.288707,1.5783918,-0.21834070000000003,0.13370967,-0.39587557
0.064212486,8.695798,1.8179269,-0.13955653,0.15128514,-0.46986008
0.26566059999999997,9.407777000000001,2.2483087000000004,-0.026703538,0.061313417,-0.54386204
0.7811514,10.554292,2.7367928,0.12606514,-0.09995501,-0.55450857
0.7310743000000001,10.707664999999999,3.0125666,0.2745752,-0.29160962,-0.568349
0.6415311,10.959171000000001,3.5469236000000004,0.4087212,-0.40072759999999996,-0.61093503
1.0723916999999998,11.377955,4.0189449999999995,0.50560445,-0.36559412,-0.70568895
1.3552905000000002,11.2844095,4.458166599999999,0.6259100000000001,-0.32354912,-0.8637809000000001
1.4375361,10.979215,4.316478,0.72493994,-0.31288517,-1.0181552
0.14629531,10.34435,3.975428,0.75686204,-0.24315926,-1.1352669
-1.0057658,9.003232,4.073025,0.77763146,-0.110601515,-1.2097924
-1.6824917000000001,8.0447855,4.2217535999999996,0.78401935,0.060772362999999996,-1.2997642
-2.2487779,8.122071,4.3155003,0.80478877,0.20291197,-1.3987767
-2.0492835,9.2221,4.224004,0.8170235,0.20664698,-1.4482743
-1.5476981,11.095832000000001,3.782724,0.8404458,0.20397663,-1.535052
-1.074422,11.694325,3.5973933,0.8931548,0.26040313,-1.6287413
-0.7463014,10.740993,3.6874824,0.9341176999999999,0.22739895,-1.6835793999999997
-0.5375749,9.258541000000001,3.577828,0.9623571,-0.10369001,-1.7240188000000003
-0.30931172,7.660373,3.3716967,0.9602278000000001,-0.57745963,-1.7181543999999997
-0.05407065,6.366489,2.9193938,0.9112364,-0.89950776,-1.7266891
0.08339483,5.716157,2.6609635,0.8367283000000001,-1.0288715,-1.5957371
0.028759152000000003,5.5994825,2.7718822999999997,0.77016145,-1.0043845999999998,-1.4339101
-0.21769996,5.9579515,3.1523592000000002,0.693524,-0.795172,-1.1858464
0.2496482,6.3910055,3.1120408,0.5652249,-0.43053782,-0.8211949000000001
0.19596061,6.980324,3.0282917,0.43748423,-0.27029914,-0.54545027
-0.08701487,7.4143257,2.9980001,0.43268457,-0.5891708000000001,-0.40917498
-0.9477495000000001,7.9324975,2.9676704,0.37625808,-0.87289155,-0.35274848
-1.1836454,8.834441,3.1406467,0.24052383,-0.62269855,-0.24202481
-1.3203638999999998,9.498871000000001,2.9093955,0.054733526,0.08473573599999999,-0.09936159
-1.7802900000000002,10.018968,2.855277,-0.14913839,0.68680453,0.10662217
-1.4627423000000002,10.371719,2.9924169999999997,-0.29606020000000005,0.96839595,0.38768998
-1.6396354,11.505174,2.5565286,-0.43179446,1.0807253,0.77150536
-2.33608,12.707991999999999,1.9583517,-0.5462357,1.1259643,1.0898358999999997
-2.9230424999999998,12.927693,1.9560723000000002,-0.6378130999999999,0.9609434000000001,1.3501344
-2.8254166,13.063474000000001,2.6772058,-0.69581044,0.7496189,1.4704573
-2.2217906000000003,13.070071,2.4910042000000003,-0.7155151999999999,0.58088046,1.5508298
-1.3844998,12.178556,2.2507124,-0.7389375,0.53030086,1.5817046000000001
-1.3446795,10.796116,1.812947,-0.7937932,0.671882,1.576905
-2.3643796000000004,9.107667999999999,1.9039842,-0.83262676,0.71181506,1.6248143
-3.0277936000000003,9.01575,1.8122096,-0.8890533000000002,0.61919045,1.6886933000000002
-3.631822,9.83993,1.2875538,-0.9673138000000001,0.5750162,1.7014866000000002
-3.7883072,11.007859,0.93956137,-1.0152231,0.5861863,1.7233032
-3.4264092000000006,11.703452,0.997683,-1.0269343,0.6096086,1.7254325000000001
-2.6073142999999996,11.279534,1.3421608,-1.0237403,0.4296826,1.6876286
-1.9384894,9.837966999999999,1.4778737,-1.0540742,0.17257816,1.4731101999999998
-1.1247194,8.576423,1.2838476,-1.0104234,-0.043528512000000005,1.2772145000000001
-0.5706149,7.608744000000001,1.1154393999999999,-0.9076934000000001,-0.29691540000000005,1.1409392
-0.94853485,7.129741,0.9834040000000001,-0.81719804,-0.4832293,0.995082
-0.9655431999999999,7.107619000000001,0.72214866,-0.7389375,-0.48377037,0.8460309000000001
-0.6118526,7.1143417,0.58135045,-0.62023765,-0.40976840000000003,0.65174085
-0.48292008,7.3698315999999995,0.6997294,-0.49834386,-0.32991958,0.35575047
-0.48234546,7.6062354999999995,0.97119355,-0.37643259999999995,-0.20535544,0.09864601
-0.33688334,8.231122000000001,1.1400136,-0.33864623,-0.03874631,-0.031241393
-0.011702858,8.886741,1.4817618000000001,-0.3029717,0.12519246,-0.14034192
-0.24499387,9.427275,1.9888728999999998,-0.17467254,0.10922269999999999,-0.2771583
-0.14545254,9.788789,2.2777479,-0.017645279,-0.009459685,-0.40278709999999995
0.21395545,10.568906,2.3737744999999997,0.1510757,-0.07227408,-0.43420299999999995
0.09577764,11.816688000000001,2.9159558,0.29960322,-0.06642723,-0.45123739999999996
0.40375817,12.659868,3.5259983999999998,0.39009854,-0.028623400000000004,-0.5060582
0.93246496,12.007171000000001,4.270106299999999,0.45875978,0.029373892000000002,-0.5992239
0.89073884,10.959123,4.5534844,0.5183802,0.054925512999999995,-0.70568895
0.13206416,10.359299,4.0018697,0.58705896,0.029373892000000002,-0.83929396
-0.58545893,9.156375,3.7949053999999998,0.64561474,0.027785642000000003,-0.9595995
-0.9881158000000001,8.890149000000001,3.8955674,0.6988473000000001,0.08421214,-1.0671293
-1.3420746000000001,8.817548,4.725033799999999,0.76059705,0.16299629,-1.1528423
-1.7019997,8.571577,5.1033173,0.8175646,0.16458455,-1.2065985000000001
-1.8496835999999999,9.136283,4.733988,0.8739911,0.04907866,-1.2736715
-1.5928049,10.085622,3.8236456,0.9197711,-0.05258677,-1.3247746999999999
-1.2157373,10.448611999999999,3.3192925000000004,0.94106406,-0.12390092,-1.347656
-0.9721511999999999,9.797926,3.2261007,0.96446896,-0.13721779,-1.3588436000000002
-0.65886515,8.510899,3.2513257999999996,1.0022726999999998,-0.15479325,-1.3466088
-0.20350714,7.194930599999999,3.0887213,1.0480528,-0.30223867,-1.3327508999999997
0.08183382,6.1913195,2.8218634,1.074669,-0.52368605,-1.2278913999999999
0.25009832,5.707145,2.7092402,1.0570936000000002,-0.70308846,-1.0985451000000002
0.22940283,5.644302,2.6568646,1.0001434999999999,-0.7797433000000001,-1.0155023
0.33679715,6.047178700000001,2.794407,0.92029464,-0.74141586,-0.8978671999999999
0.26301742,6.617190400000001,2.666068,0.7919955,-0.6019466,-0.70568895
0.15361199,7.284924,2.5665459999999998,0.71003485,-0.56414276,-0.5529029000000001
0.25140077,7.786728999999999,2.6621032000000002,0.6355093,-0.7552563,-0.49647635
0.016740259,8.001585,2.9430294,0.4837878,-0.6296275,-0.56354934
-0.23896047,8.691258,3.1853130000000003,0.37573448,-0.18247417,-0.4906295
-1.2848436,9.523483,3.2548117999999997,0.14735815,0.48558549999999995,-0.23776620000000004
-1.5926325000000001,10.343306,2.9836924,-0.14540339,1.261716,0.13643239999999998
-1.5141985,11.153733,3.0564666000000003,-0.36843899999999996,1.8137287,0.5410172
-1.8877802,12.298909,2.748036,-0.5398478,1.9239287,0.93120295
-2.3455706000000003,12.791042,2.2445834,-0.6346016999999999,1.5997337999999999,1.245275
-2.241193,12.65618,2.8030262,-0.70966834,1.1147941000000001,1.4119016000000002
-1.5279891,12.9197445,2.6294944,-0.76874775,0.7139444,1.4597933
-0.23382732,11.895907000000001,2.5351725,-0.8193448,0.40626028,1.4347653
-0.03982994,10.97573,2.1228812,-0.8794714,0.2625324,1.3570633
-0.86115605,10.633464,0.9000379000000001,-0.9619905999999999,0.29714229999999997,1.3038306999999998
-1.6457455,10.137452,0.24362439,-1.0556624,0.29129544,1.3139536
-2.7644985,10.794058,0.34356794,-1.1168885,0.23378685,1.358128
-3.7972038,11.715825,0.34710178,-1.1818322,0.34346333,1.3320527
-4.127537,12.700464,0.64561087,-1.1967374,0.31150636,1.3778328000000002
-3.705707,12.714609,0.8248694999999999,-1.2217653999999998,0.23858652,1.3964553999999998
-2.9755905,11.324353,1.1521665,-1.1999313,0.11880456,1.3017014
-2.1630847,9.431000000000001,1.3995066999999999,-1.1461751,-0.16011651,1.1601028
-1.1739249,7.9855056,1.4658068000000002,-1.0892076000000002,-0.46884778,0.9902998
-1.0143083000000002,7.1351995,1.1745762,-0.99125975,-0.6913773,0.83379614
-1.1093103000000002,6.7303405,1.0519068,-0.88640034,-0.703612,0.677275
-0.6836691,6.816598399999999,0.90858996,-0.7453254,-0.5433908000000001,0.5122715999999999
-0.12343546,7.0680570000000005,0.65057164,-0.62023765,-0.37411132,0.30305898
-0.43824425,7.924328999999999,0.69900155,-0.47544515,-0.16543975,0.0837409
-0.18496644,8.434754,0.80193305,-0.37536797,-0.058433622000000005,-0.04187045
-0.046342167999999996,8.530426,1.0468982,-0.31255355,-0.07707374,-0.10416125
0.022582112,8.585224,1.4099071,-0.24122195,-0.17767452,-0.13821262
0.26413792,9.104861,1.8779351999999998,-0.08258898,-0.36027086,-0.18826866
0.53656936,9.900158,2.2371805,0.0834791,-0.4811,-0.2723761
0.8033696,10.770958,2.5307765,0.22987731,-0.5008047999999999,-0.38468802
0.87025404,11.57518,3.0548577,0.37679914,-0.44436082,-0.53852135
0.7904791999999999,12.168196,3.3129525,0.49764574,-0.42573816,-0.7365464
0.35177526,11.787651,3.9748727999999995,0.57002455,-0.45235443,-0.93352425
-0.3722026,10.538528999999999,4.2541519999999995,0.6078284,-0.4832293,-1.0602002000000001
-1.3216567,9.627956,3.9628730000000005,0.6434854,-0.45928338,-1.1645535
-2.365912,8.7543125,3.9890367999999996,0.71216416,-0.39859828,-1.2608956
-2.5758066000000004,9.029779,4.4803557000000005,0.778155,-0.34855970000000003,-1.3450031
-2.3143599999999998,9.640483999999999,4.9009404000000005,0.8303404000000001,-0.38102284,-1.4237872
-2.0422828,9.874665,5.1384454,0.85960954,-0.47790605,-1.5185412
-1.6782875,9.687256,4.7710695,0.8825083,-0.5231624,-1.5999782
-1.0524528,9.573455000000001,4.061485299999999,0.9144478000000001,-0.47258279999999997,-1.6319351999999998
-0.59774595,9.514902000000001,3.3112385000000004,0.93732905,-0.42786747,-1.658534
-0.43143514,9.001891,3.1908963,0.90699524,-0.40922734,-1.7059197
-0.048391607,7.976082000000001,3.1043699,0.85960954,-0.5902354999999999,-1.7032493000000002
0.10807426,6.953135499999999,2.9711277000000003,0.80478877,-0.8324348,-1.6095774999999999
0.18722658,6.1599555,2.5764291,0.7009766,-0.85905105,-1.5153472
0.13177685,5.491283999999999,2.4821265,0.6184748999999999,-0.8180706999999999,-1.4764787
0.36302802,5.5608687,2.7230882999999997,0.53489107,-0.61791635,-1.3008288000000001
0.5652519,6.0476575,2.9433837000000005,0.44919538,-0.32086134,-1.0527476999999998
0.65223795,6.776606,3.0227084,0.35177112,0.010210176,-0.7573158
0.6347699,7.6666455000000004,2.8405862,0.32037264,0.058660515,-0.50872856
0.056225434000000005,8.241073,2.8566465,0.32302552,-0.12231267,-0.29258698
-0.6415886,9.191886,3.4576392,0.24637067,-0.048851766,-0.11958996
-0.9292184000000001,9.973564,3.4195137000000004,0.11541862,0.25614452,0.08213519
-0.7947313,10.320724,3.3219642999999994,-0.055431657,0.62079614,0.31689942
-1.0312976,10.639172,3.4163629999999996,-0.22205824,0.894935,0.6437472
-0.98634404,11.311032,3.364792,-0.35246924,0.9763895,1.0019935
-1.3718201,12.181268,2.9382314999999997,-0.45415214,0.9034521999999999,1.3661041
-2.0510262999999997,12.347732,2.663578,-0.551559,0.7453603,1.6791289
-2.466564,11.961077000000001,3.0948792000000003,-0.636731,0.51485467,1.9042938000000003
-2.018159,12.437303,3.1961827,-0.6915518,0.30300662,2.008106
-1.4651845,11.983506,2.7587714,-0.7304203,0.17842501,1.9921188000000003
-1.3551948,10.903961,2.348185,-0.7581011999999999,0.18587756,1.9319747999999999
-1.7789494,9.859045,1.9462081999999998,-0.7948404,0.29714229999999997,1.8819362000000002
-2.5754907000000005,8.896987,1.8771785,-0.82571524,0.40999529999999995,1.8516023000000001
-2.9717693,9.584468,1.8054484,-0.8709541999999999,0.58033943,1.7754710999999999
-3.2718492,10.954689,1.3364049999999998,-0.8890533000000002,0.6165376,1.7685422
-3.245848,12.132646000000001,1.0572603999999999,-0.9178163,0.5116607,1.6854993000000003
-2.8772464,12.426721,1.1056998,-0.9140813,0.31789428,1.6008683000000001
-2.1182556,11.509617,1.4017669,-0.9614495000000001,0.122539565,1.510373
-1.2647131999999999,10.023124000000001,1.7517607,-0.9822189,-0.0073303827000000005,1.3725094999999998
-0.6617191,8.709551,1.9066942999999998,-0.95186764,0.032567844,1.2133353999999998
-0.2883385,7.578194,1.8365252,-0.83795005,0.40573668,1.0067931
0.0044340617,7.183534,1.6357951000000002,-0.7384139000000001,0.43287656,0.74595374
0.21619642,7.156776400000001,1.3955514,-0.6159616,0.3573038,0.5905321
-0.16369636,7.385211999999999,1.3539497999999999,-0.43603559999999997,0.24923302,0.37067303
-0.050038815,7.222013499999999,1.3283415,-0.3157475,0.30194196,0.07841764400000001
0.17608875,7.371747,1.4613056999999998,-0.2390752,0.36953858,-0.21753784
0.65985155,7.97657,1.4763988000000001,-0.14857988,0.38285542,-0.36285394
1.2470343000000002,8.663466,1.8015602,-0.08152433,0.31150636,-0.41928044
1.6489443,9.28776,2.4233724999999997,-0.016039576,0.26574382,-0.44963172
1.9494740000000002,9.567364999999999,2.741543,0.13032374,0.07728318,-0.5177694
1.0998961999999999,9.786817,3.0716171,0.31450832,-0.11859512,-0.6130469
0.8912655,10.573819,3.647844,0.48113492,-0.21706660000000003,-0.6982364000000001
1.3361082,11.14451,3.8501252999999998,0.6461558000000001,-0.21013764,-0.7823264
1.6012708999999998,11.021018,3.7554777,0.76911426,-0.17181021,-0.948953
1.0791241000000003,10.197441,4.0103645,0.84470445,-0.21015509999999998,-1.171465
0.13747507,9.849017,4.0323625,0.8707796999999998,-0.32033774,-1.337027
-0.6291579,9.207984,3.5223017,0.8819847,-0.36718237,-1.4685025
-1.3074351999999998,8.410811,3.5614227999999994,0.9117949000000001,-0.28733355,-1.5946548999999999
-1.6057624,8.624221,4.0675955,0.9245533000000001,-0.18725638,-1.7005965
-1.6718711,9.424037,4.586764,0.92190033,-0.06853908,-1.7681930000000001
-1.6863511999999998,10.105609,4.7004980000000005,0.91285956,0.041626103,-1.8608177
-1.4914056,10.73357,4.3610287,0.9474520000000001,0.0959233,-1.926826
-0.9429228000000001,11.100841,3.8320540000000003,0.9730036,0.11243411,-1.9837936
-0.72708076,11.014697,3.6406806000000005,0.9687450000000001,0.06291912,-1.9747354
-0.87502325,9.968287,3.4090559999999996,0.9618334999999999,-0.17393951,-1.8336778000000002
-0.8319564,8.4110985,3.080016,0.92881185,-0.346954,-1.7692577
-0.66019636,7.13611,2.797711,0.8606742000000001,-0.38475785,-1.6548165000000001
-0.39220855,6.4184046,2.8082263,0.7723081999999999,-0.39325759999999993,-1.5563276000000001
-0.09420705,6.182873000000001,2.9305987,0.700453,-0.4156327,-1.3311626
0.14332649,6.426028,2.9432495,0.6498908,-0.30436796,-1.1043919
-0.074852325,6.6753216,2.6403065,0.5902529000000001,-0.19257963,-0.8781450000000001
-0.25741497,6.982727499999999,2.9061203,0.5178741,-0.16489871,-0.59442425
-0.7241310999999999,7.747847,3.2426395,0.46303585,-0.37250564,-0.36498326
-1.5365222,8.399616,3.1265497000000004,0.36934659999999997,-0.4922701,-0.21167353
-1.5588742,8.846633,2.2865105,0.19793779,-0.18992673,-0.1105317
-1.8300416000000002,9.602128,2.2660832,0.018011797,0.23539256,0.044348817
-2.0391607,10.581394,2.626985,-0.20980603,0.6931924,0.25302038
-2.2778723,11.326680999999999,2.8898493999999997,-0.45254642,1.1020184,0.5878618
-2.061599,12.150602000000001,2.6475367999999997,-0.6308666999999999,1.2904615,1.0105282
-2.9525294,12.3153715,2.1209276000000004,-0.77832955,1.2638453,1.3703802
-3.8075275,11.737909,1.9882983,-0.87788314,1.0168462999999999,1.6227023999999999
-3.3678758,11.4412775,2.6035220000000003,-0.9130166,0.5286951,1.8052813
-2.0528653,11.628542,2.7674866000000002,-0.922581,0.0368439,1.9266515
-1.2189264,10.259519000000001,2.6290348,-0.9188635,-0.29850367,2.0357868999999997
-1.1426376,9.024244,2.2428209999999997,-0.9177988000000001,-0.38156387,2.0911312
-1.5837165000000002,8.940055000000001,1.5343673,-0.91940457,-0.32300809999999996,2.1087067000000004
-2.4359757999999996,8.555105000000001,1.2118875,-0.94813263,-0.19736183,2.0932782
-3.2485201,8.986359,0.75690293,-0.98220146,0.10924016,1.9841601000000002
-3.6760572999999996,10.138161,0.51606536,-0.9923244000000001,0.23539256,1.9362508000000003
-3.7666636,11.041971,0.6868006999999999,-1.0003004999999998,0.20025907,1.8074279999999998
-3.4231627000000002,11.492436,0.8393497,-0.99391264,-0.034470253,1.7179799
-2.9275627,11.202661500000001,0.7622563,-1.0221347,-0.3235317,1.5577587
-2.5097747000000004,10.42195,0.85115784,-1.0295870999999999,-0.48429397,1.3927379
-1.8416965,9.504655,1.1297951000000002,-1.0051003,-0.43584362,1.2442103999999998
-1.3237253,8.651658,1.5275581,-0.94813263,-0.09622,1.0642843000000002
-0.8404127,8.049296,1.6358813,-0.8943764999999999,0.2343279,0.8668003000000001
-0.46530829999999995,7.6781855,1.7806921999999998,-0.82569784,0.39721948,0.71616095
-0.94072014,7.8043119999999995,1.9551816999999998,-0.68783426,0.28117254,0.5298295999999999
-0.69253725,7.906047,1.9354726000000002,-0.51216686,0.18003072,0.2588847
-0.7223210999999999,8.162628,1.9203892,-0.38227946,0.22528710000000002,0.0006981317
-0.15712667,8.569556,1.7880759999999998,-0.26677358,0.14809118,-0.1648289
0.34807859999999996,8.805424,2.1819127000000003,-0.19277161,-0.09730211,-0.32560859999999997
1.1808203000000002,9.415284,2.3348255,-0.11876965,-0.297439,-0.38947022
1.6550924999999999,10.026197999999999,2.7772354999999997,0.00045378560999999995,-0.5252743000000001,-0.55342644
1.5921441,10.5557,2.9233491000000003,0.17186257,-0.61044633,-0.72057664
0.5309286,11.075403999999999,3.30962,0.36561158,-0.61791635,-0.90104365
0.73682994,11.502118,3.921003,0.5173505,-0.6067113000000001,-1.0330429
1.3021585,11.298727,4.199018,0.62594485,-0.59288836,-1.1267322
0.7050349,10.324429499999999,4.0736574999999995,0.6946061,-0.58437115,-1.2028635
-0.5471996,10.229352,3.8637817,0.71589917,-0.5274036,-1.220439
-1.5616516000000003,9.719453,3.2956185,0.73026323,-0.45287803,-1.2688718
-1.9788363999999998,8.474517,3.4659326,0.7563559,-0.39912188,-1.3646904
-1.4448816,8.02863,4.1904563999999995,0.7936187,-0.37302923,-1.4610325000000002
-1.1739823999999999,8.446504,4.629983999999999,0.82288784,-0.26443484,-1.5541983
-0.9024321,8.98767,4.939583,0.8260818000000001,-0.09730211,-1.6468227999999998
-0.9270732,9.698221,4.7801766,0.84365726,0.013945181000000001,-1.7777749
-0.7777708000000001,10.394523,4.292430400000001,0.9282883,0.016615533999999998,-1.9103153000000002
-0.6126188,10.568083,3.8536496,0.99855524,-0.076532684,-2.0252974
-0.56023365,9.805549000000001,3.4076576000000003,1.0065488999999999,-0.43052036,-2.0444613
-0.5554069,8.252804,3.238292,1.039012,-0.67964864,-2.0721421
-0.5160941,6.678577400000001,3.2534137000000003,1.0507231000000001,-0.90322536,-2.0167978
-0.22667345,5.6234913,3.276628,0.9586220999999999,-0.6988298000000001,-1.9103327
0.37591840000000004,5.3945193,3.2952452000000005,0.8921075999999999,-0.63439226,-1.7687167000000001
0.6869921999999999,5.7359614,3.1755352,0.82023495,-0.54497904,-1.506289
0.7426143,6.5759716,2.949647,0.7180284,-0.4273264,-1.262484
0.34010112,7.631297999999999,2.8990812000000004,0.61582196,-0.47151816,-0.99738586
-0.19033903,8.829347,2.7475092,0.5562015,-0.6977477,-0.77433276
-1.0736653999999999,9.214641,3.0952337000000005,0.5019043,-1.0272659,-0.58430135
-1.0397636000000001,8.539017,3.2295673,0.35870007,-0.9458114,-0.40118137
-1.6974412,9.203924,3.2599547,0.20006709,-0.4752357,-0.2186025
-1.6776650000000002,10.671579,2.7609744,0.055274576,0.0070336769999999995,-0.04452335
-2.0502028,11.183326,3.3319242,-0.104929194,0.42757076,0.22268656
-2.3401022,11.930392999999999,3.1733515,-0.2449395,0.71609116,0.56070447
-2.9003837000000003,11.973576,2.9476357,-0.42006585,0.97213095,0.9727418
-3.9266057,11.667864,2.717237,-0.5297248999999999,1.0370747,1.3762444
-3.6236242999999995,11.238603999999999,2.9611104,-0.6207613000000001,0.90453434,1.7068098999999999
-2.9633703,12.109796000000001,2.7671416,-0.6899635999999999,0.65486497,1.9463563000000002
-2.1567830000000003,11.890056,2.1554330000000004,-0.7421314999999999,0.47015680000000004,2.0906076000000002
-1.7089811999999998,10.417688,2.317252,-0.79695225,0.37592646,2.0986013
-1.8525183,9.444609,2.2512872,-0.83582073,0.28756043,2.102319
-2.551319,8.100044,2.1691756,-0.8570962999999999,0.19708258,2.0725262
-3.221111,7.9869323,1.8979506000000002,-0.86828387,0.22155209,2.0437806
-3.7904716,8.703172,1.4733726,-0.9188635,0.23858652,1.9713668999999998
-4.1755548,9.794574,1.2806106000000002,-0.9561263000000001,0.22954570000000005,1.8995116
-3.753457,11.202153,1.0941981,-0.9614495000000001,0.26893779999999995,1.8324386000000001
-3.097101,11.5668,1.039074,-0.98220146,0.48825586,1.6956397
-2.176109,10.899546,1.1311548999999999,-0.99499476,0.43608797,1.5652113
-1.5488952,9.798864,1.513691,-0.9880658000000001,0.14596188,1.3815503
-1.2862129999999998,8.456541,1.5317813999999998,-0.97103137,-0.1499936,1.1893895
-0.92578036,7.692963000000001,1.6385534,-0.89969975,-0.3235317,1.0195864
-0.45779052,7.3152919999999995,1.5608089,-0.79321724,-0.32086134,0.89982194
-0.40530005,7.315061999999999,1.4309856,-0.70113367,-0.23410101,0.7422361999999999
-0.20862116,7.634573,1.6660005,-0.6143559000000001,-0.07546803,0.5074894
0.014681245,8.04696,1.7767179,-0.47010443,0.14969689,0.21471039999999997
0.25428337,8.130786,1.6915418000000002,-0.37589157,0.36421529999999996,-0.009389871999999999
-0.11323616,8.124896000000001,1.4583656999999999,-0.31679472,0.4259825,-0.21645573
-0.047127467,8.562536999999999,1.7702153000000003,-0.23216370000000003,0.24923302,-0.38149408
-0.009710881999999999,9.207478,2.3755367,-0.09269444,-0.023823743999999997,-0.49858820000000004
0.3194152,9.835639,3.2144456000000003,0.06539748599999999,-0.23303635,-0.58536595
0.7029376,10.281316,3.3183252999999997,0.22776547,-0.26975808,-0.6156998
1.0269498,10.594342999999999,3.5540678999999997,0.36404076,-0.19203858,-0.62262875
1.3585083,11.279755,4.071589,0.5098805000000001,-0.19790289,-0.6439218000000001
1.2657281999999999,11.548478999999999,4.6040497,0.6131515999999999,-0.29159215,-0.7509279000000001
1.1577114,10.732077,4.510571,0.6802246,-0.38208747,-0.9084788
0.25560498,9.950647,4.2679996,0.73132783,-0.43851396,-1.0655235
-0.8152543999999999,9.723360000000001,3.9763381,0.7616791,-0.4182856,-1.1938052
-1.4619474,9.258023,4.105711,0.7999891,-0.32937855,-1.3071992000000001
-1.5575430000000001,9.257191,4.5326357,0.8159763000000001,-0.21067870000000002,-1.3950417
-2.0787323,9.292251,4.850442,0.8298168,-0.07918559,-1.4695498
-2.4455047000000003,9.357747,4.74367,0.8505688,-0.0025307273,-1.5478103
-2.4700307999999995,9.995764,4.3752217,0.89369583,-0.01850049,-1.6228595
-1.8638476000000002,10.63445,3.9475597999999996,0.9458636999999999,-0.11431906,-1.7096373
-1.3248554,10.493708999999999,3.7881633999999997,0.9964434000000001,-0.30169759999999995,-1.7601993999999999
-0.8961783999999999,9.545701,3.8012931000000005,1.0613871000000001,-0.6221575,-1.7554172
-0.55361605,8.141914,3.456231,1.085333,-0.9798802,-1.813432
-0.35289577,6.9523115,2.9733686,1.0438116,-1.1630001,-1.8017383000000002
-0.23396139,6.049601999999999,2.625156,0.97619754,-1.0208780000000002,-1.6547990000000001
-0.056761734,5.582043,2.7538395,0.93628186,-0.7536506,-1.4317634
0.15246277,5.6651125,2.9710414000000003,0.86069167,-0.76427966,-1.1288615
0.086219996,6.0656620000000006,3.056074,0.77658427,-0.74459237,-0.8813389000000001
0.28151023,6.8714642999999995,2.9726982000000004,0.67811275,-0.5811597,-0.64763933
-0.022438457000000002,7.472878,2.6837757,0.6200806,-0.50984555,-0.42619196
-0.22005586,8.268213000000001,2.9372833,0.54929,-0.61418134,-0.27394688
0.15338214,9.421941,2.8786445,0.43856633,-0.6876248,-0.094544485
-0.19501251,10.115655,3.0593684,0.23893557,-0.3416133,0.084823005
-0.5608944,9.959083999999999,2.8343804,-0.030927233,0.22261675,0.29614747
-1.3292416,9.953559,2.5359,-0.22736403,0.67244047,0.54049355
-2.137658,10.75732,2.6925576,-0.36896262,0.9407325000000001,0.8758585999999999
-1.6437918999999999,11.849632000000001,2.9113203999999997,-0.49405035,0.98598886,1.2420985
-2.3829873,12.258083000000001,2.8340836,-0.61329126,0.8699418999999999,1.5758578
-2.9745178,12.552703999999999,2.8227925,-0.72616166,0.67882836,1.7935876
-3.1655752999999995,12.666525,2.866865,-0.8113163000000001,0.5904623,1.8723718
-2.737923,11.96987,2.6501992000000003,-0.87893033,0.6085614,1.8723718
-2.3348063999999997,11.133632,2.0048854,-0.9662316999999999,0.6059085,1.8021048
-2.2513634999999996,10.006633,1.8756464,-1.0535331000000001,0.55267596,1.7046806
-2.3448715,8.888742,2.305597,-1.0998367,0.39137262,1.6317607
-2.9834337000000004,9.2375965,2.103967,-1.1173947,0.168337,1.6040796999999998
-3.5100815,10.515995,1.5968846,-1.1051773999999999,-0.04511676,1.605668
-3.9035544,12.051923,1.4132396999999999,-1.063656,-0.279881,1.6349372
-3.4187286,12.436892,1.4081066999999998,-1.0375633,-0.39271653,1.7057626000000001
-2.1425042000000003,11.1398945,1.9082744999999999,-1.0497981,-0.38154644,1.6621119999999998
-1.6108476999999999,9.310849000000001,1.8940625,-1.0183996,-0.20800833,1.5444593
-1.0212994,8.131859,1.5589316999999998,-0.93800974,-0.012636183999999998,1.3938025
-0.7371938,7.2814283,1.6280093,-0.83154464,0.033649947,1.2208054
-0.76716924,6.7950606,1.8939955000000002,-0.72242665,-0.066409774,1.016916
-0.62549955,6.7570405,1.6415412,-0.5701816,-0.2894454,0.7944215
-0.30485848,6.8361163000000005,1.0043293,-0.43497095,-0.24101251,0.46863836
0.036209907,7.2541723,0.74664617,-0.35405749999999997,0.07784168400000001,0.14604916
0.827551,7.8659289999999995,0.89461744,-0.29550170000000003,0.34559265,-0.17971656
1.4312251,7.8962593,1.2842593999999998,-0.21511184,0.34985125,-0.42938590000000004
1.6394918,8.293371,1.8317080000000001,-0.13526301,0.23540999999999998,-0.5539501
1.6267068,9.186878,2.3632686,-0.017610373000000002,0.13000958,-0.6093119
1.4120235,10.131036,2.9876572999999995,0.1452463,0.110845864,-0.6332753000000001
1.0329256,10.672595,3.8818532999999995,0.30176744,0.09327039,-0.63751644
0.7567593,10.933208,4.6604,0.45188320000000004,0.026197392000000003,-0.69129
1.5676466,11.451983,4.7405,0.6051929,-0.12868312,-0.8211774
1.796561,11.373866,4.817651000000001,0.7159166,-0.26282912,-1.0266551
1.4324988,10.461953,4.847291,0.8143881,-0.32299063,-1.2374558
0.32332256,10.151511,4.720236,0.8782671000000001,-0.27721065,-1.3508325
-0.7093254,9.495728999999999,4.440325,0.91446525,-0.18245672,-1.4131233
-1.4636999,9.04878,4.4721584000000005,0.92671746,-0.053616515999999996,-1.474332
-2.193309,9.075211999999999,4.5947123,0.97888535,-0.005183628,-1.5408639
-2.6277034,9.1945095,4.404670200000001,1.0454347,-0.09567895,-1.6042193
-2.4795979999999997,9.548459,4.3545932999999994,1.0954559,-0.3107384,-1.6574519
-1.9335573,10.378749000000001,4.2030597,1.1348479999999999,-0.41826814,-1.7686992
-1.1689929,10.6908,4.0091004,1.1369773,-0.37728783,-1.8288608
-0.8986205,10.059717,3.6909492,1.1162253999999998,-0.36130062,-1.782016
-0.94872636,8.705385,3.2523315,1.0970616000000002,-0.5263215,-1.6803331000000001
-0.74688554,7.538163000000001,2.970218,1.0933266000000001,-0.87872094,-1.6287063
-0.5380059,6.62285,2.8894757999999996,1.0406351,-1.3748482,-1.5823853
-0.45708185,6.107944,3.0235128,0.96237457,-1.7533404,-1.4184291
-0.38211459999999997,5.919501,2.938461,0.8868018,-1.8102904999999998,-1.2118868
-0.30677387,6.1941347,3.007012,0.7973710999999999,-1.5031473999999998,-0.95904094
0.32177112,6.881549000000001,3.049715,0.6477789,-0.83294094,-0.6529451000000001
0.042616792,7.2519029999999995,2.8745646000000002,0.5131093,-0.4629835,-0.39955822
-0.46378562,7.396091499999999,2.707191,0.45720646,-0.6945363,-0.21804398
-1.0168078999999999,7.755394,2.642902,0.3475474,-0.8808502,-0.044505894000000004
-1.1633809,8.293744,2.324703,0.1553692,-0.54974383,0.16788322
-1.3635361000000001,9.609359,2.5532436,-0.08735373,0.12522738,0.4005007
-1.3476962,10.729998,2.7635023999999997,-0.2981546,0.6846926999999999,0.65547585
-0.565271,11.710558,3.0236087000000005,-0.42697734,0.9157219000000001,0.90408057
-0.71891177,12.674387,2.8539267,-0.51106733,0.9226509,1.1952713
-1.0935086,12.592198,2.4402854,-0.5861339,0.85344857,1.4619576
-1.9263843,12.055457,2.7663372,-0.67823493,0.74324846,1.6913986
-2.1737342,12.599496,3.0967276000000004,-0.7623249,0.62135464,1.8228741999999998
-1.8457668,12.760558,2.5601678,-0.8160985,0.5686456999999999,1.8660014
-1.568748,11.864925,1.9341223,-0.8794365,0.57609826,1.7984046999999999
-1.8454316000000002,10.713095,1.729916,-0.9097878,0.42065924,1.7398314
-2.4816954,9.415859,2.2987688,-0.9214815000000001,0.21839304,1.7307906000000002
-3.0382612,8.877028999999999,2.5655882,-0.94013906,0.057072267,1.7110859
-3.228351,9.427093,2.2097907,-0.9624966999999999,-0.009442232,1.6711702000000002
-3.1354275,10.858289,1.57368,-0.9922895,0.010245083,1.6126143999999998
-2.7302232,12.243008999999999,1.1300057,-1.0247526,0.07093018,1.5237247999999999
-2.1207168,11.897737,1.1915846,-1.0284876,0.020891592,1.4215183
-1.6235848999999998,10.618139999999999,1.4180568,-0.9832486999999999,0.012897983,1.3177061
-0.87938076,9.191656,1.4686128999999999,-0.91563463,0.05815437,1.186213
-1.0982778,7.9180174,1.8100547999999999,-0.82672757,0.04059636,1.0275975
-0.9470886999999999,7.099689,1.7834505,-0.73890257,-0.018483037,0.81306165
-0.5081262,6.746036500000001,1.4946905000000001,-0.62233204,-0.14411184,0.5724505
-0.0018866309,6.912989,1.3204023,-0.45835838,-0.2356718,0.3110875
0.36562333,7.439541,1.3821822,-0.2768441,-0.18615682,0.044924773
0.54774547,7.5613484,1.5649652,-0.16666149,0.013962634,-0.25050712
0.5170997,7.7594447,1.9425116000000002,-0.09798279,0.07305948400000001,-0.47088984
0.75267,8.167743,2.2560182,-0.0042935097999999994,-0.046163958,-0.6561391
0.8852609,8.788684,2.3674057,0.124511786,-0.24844761,-0.747699
1.0641268,9.401857000000001,2.6070366000000003,0.288468,-0.4571192,-0.84297657
1.0382121,9.797858,2.9148736,0.4380602,-0.57848936,-0.86107564
1.0812215,10.148494,3.31256,0.56262434,-0.5710368,-0.8307418
1.4247607,10.774827,3.8825238,0.6786713000000001,-0.5534614000000001,-0.8514938
1.953841,11.24344,4.0538335,0.76330227,-0.5492201999999999,-1.0165146999999999
1.8495017,10.559215,4.2285337,0.80695295,-0.64236844,-1.2331798
0.49168283,9.973632,4.1989894,0.8388924999999999,-0.7392517,-1.4045886
-0.5274139,9.722536999999999,4.177279,0.8266403,-0.70146525,-1.5355406999999999
-1.3970168,9.432207,4.110107,0.80430007,-0.49544662,-1.6489173
-1.6572951,9.331918,4.5210857,0.8080176,-0.286234,-1.7378243000000002
-2.2417773999999997,9.744287,4.686152,0.85114473,-0.20053834,-1.8687764
-2.4267819999999998,10.410535000000001,4.653112,0.8862781999999999,-0.22076669999999998,-2.1024585
-2.0598755,11.532764,3.9693851,0.8974483,-0.21650809,-2.2983717999999995
-1.4453125,11.924283,3.4575431000000005,0.87615526,-0.26813492,-2.3787441000000005
-1.2227668,10.927396,3.3888678999999997,0.8346339,-0.13505358,-2.3505222999999997
-0.90895385,9.243706,3.416315,0.7036993,0.12629202,-2.2147706
-0.4208049,7.484064,3.1264155,0.58657026,0.48827332,-2.0055752
-0.16093823,6.2041235,2.7452587999999998,0.5839174,0.5047841,-1.8405543999999998
-0.10610144,5.470234,2.7406043999999996,0.5418549,0.38393754,-1.5871674999999998
0.27617598,5.741094599999999,3.2916827000000004,0.50406855,0.31579986,-1.3077054
0.7705786,6.805786599999999,3.9619633999999997,0.5008746000000001,0.22317526,-0.98084015
1.0684556,7.8665996,4.388600299999999,0.44711843,0.082117744,-0.6731560000000001
0.70849216,8.468836999999999,4.197936,0.35182348,-0.14304718,-0.35164893
0.68381274,8.3366,3.1257071,0.30283207,-0.5848773,-0.10252064
0.21875341,8.073803999999999,2.2556636,0.26878070000000004,-1.0863278,0.08431686
-0.31573772,8.143379,2.3914626,0.1399405,-1.0022204,0.289777
-1.5877961999999999,9.052016,2.7661168999999997,-0.04527384,-0.4012163,0.5293409
-2.3067367,9.894067999999999,2.5903058,-0.26193902,0.22265165,0.77101666
-3.1588523,10.385989,2.4354012000000003,-0.43067744,0.5723807,1.0504788
-3.9938636,10.74081,2.0522714,-0.55152404,0.6937509,1.3794559
-4.768110299999999,11.174803,1.5494506000000001,-0.63615507,0.65915847,1.7488897
-5.078628500000001,11.235529,1.490831,-0.7239800000000001,0.61018455,2.0879898
-4.6306543,10.888427,2.2174044,-0.8081049,0.61550784,2.3387062999999997
-3.5636637,11.225732,2.3960404,-0.8714429,0.58037436,2.4142964
-2.4745414,10.862781,1.767687,-0.9182875,0.50904274,2.361605
-1.9845058999999998,10.260199,1.3679032,-0.96939075,0.47177994,2.212554
-2.29874,9.32804,1.2546096000000002,-1.0194292999999999,0.4339761,2.0714788
-2.8902897999999997,8.626749,1.4923538,-1.020494,0.19444713,2.0384922
-3.4078489999999997,9.245697999999999,1.5475354,-1.0460457,-0.00996583,1.9682078
-3.8595967000000004,10.940947,1.1037749,-1.0934138,-0.07171558,1.8191741999999997
-3.7101028,12.412355,0.5449874,-1.1136422,0.09541715,1.7169676999999999
-2.9941695,12.454847000000001,0.49139553,-1.1168361999999998,0.033143803,1.6621468000000001
-2.2650776,11.1928835,1.2500223,-1.0891553,-0.030717794,1.5572700000000002
-2.016818,9.722968,1.6023242,-1.0630801,0.14227924,1.3847966
-0.8859504,8.516242,1.6854031000000003,-1.0114531999999998,0.36957347,1.2213638999999998
-1.0737038,7.342174000000001,1.8657438999999998,-0.8884773000000001,0.43345252,1.0552784
-1.4439143,6.826166000000001,1.8266513,-0.73462653,0.32218778,0.8338310999999999
-0.6111631,6.8605947,1.1839998,-0.58983403,0.17845991,0.56714475
0.09462842,7.3207889999999995,1.2520717,-0.41629595,0.19284143,0.26158994
0.5294441999999999,7.7592053,1.2763777,-0.2353053,0.32805207,-0.0024260078
0.17530344,7.678089599999999,1.661691,-0.14055136,0.42067669999999996,-0.23345524
1.0757148,8.026513000000001,2.091364,-0.07347836,0.28598964,-0.42615703
1.6959376,8.685752,2.3166583,-0.015463616999999999,0.11351621,-0.5847899999999999
1.7042981,9.560947,2.8215666,0.086725414,-0.044558257000000004,-0.6848672
1.7158668999999998,10.245938,3.4301631,0.24216443,-0.19680333,-0.8302008
1.6396546000000003,10.237185499999999,3.6540209999999997,0.4029267,-0.33574899999999996,-0.905791
1.5687385,10.843091000000001,4.0111593999999995,0.56262434,-0.43634978,-0.9701936
1.8956043999999999,11.396898,4.501616,0.70476395,-0.5438795,-1.0431309000000002
1.6526504000000002,10.927242,4.4664025,0.79204786,-0.63385123,-1.1661068
0.8728780999999999,10.107639,4.1850834,0.877761,-0.6636614000000001,-1.3087525
-0.33194172,9.519433,3.8594532,0.9416399999999999,-0.6679026,-1.4279935
-1.3479738,8.394903999999999,3.463481,0.95762724,-0.5491853,-1.5174241000000002
-1.9504602999999998,7.547319,3.5563086999999998,0.95602155,-0.37086502,-1.5387171999999998
-1.9552392,7.5817190000000005,3.8751974000000002,0.9618684000000001,-0.177116,-1.5578809
-2.1396694,8.250303,3.9785314,0.99274325,-0.023265239,-1.6036608
-1.9695756000000002,9.356693,4.0129886,0.9943489999999999,-0.003036873,-1.5967494
-1.5623124,11.06217,3.6821482000000003,0.96293306,-0.056793015,-1.6473116
-0.9206280000000001,12.172322,3.5790536,0.94589865,-0.106308006,-1.6654106
-0.46581590000000006,11.890956,3.867239,0.9139591,-0.29633945,-1.6536994999999999
-0.31118876,10.791557000000001,3.7359793,0.8676555,-0.62851053,-1.5424347
-0.43569684,9.331756,3.5294172999999995,0.7361624,-0.81962407,-1.4136294
-0.64685583,7.926742,3.314954,0.64886105,-0.7988721,-1.2406149
-0.48168465,7.0400160000000005,3.3157585,0.584982,-0.6146875,-0.98403406
-0.47703034,6.411413700000001,3.2485485,0.5157797000000001,-0.38311723,-0.74183476
-0.53916466,6.1455708,3.0113887999999998,0.43221334,-0.054140113,-0.4772603
-0.35821086,6.563378299999999,2.8864877,0.35768777,0.27481955,-0.21003293
-0.44423935,6.8447065,2.7339964,0.30072020000000005,0.42067669999999996,0.08379326
-0.7190458000000001,7.092095,2.6885927000000005,0.3039142,0.10447541,0.33557445
-0.85898215,7.22911,3.0618775,0.24375269,-0.20212658,0.48569024
0.019124883999999998,7.212312700000001,3.0262616,0.094701566,-0.12707742,0.6448468
0.49414408,8.074233999999999,3.4151849999999997,-0.104353234,0.24288002,0.80827945
0.7782975000000001,9.382149,3.11002,-0.33272958,0.6075142,1.0126923
0.9004496999999999,10.854478,2.8821304,-0.5131965999999999,0.7661472,1.2554326999999998
0.41797975,11.860396000000001,2.6662692999999997,-0.6249675,0.7177143,1.5221366000000003
-0.72155493,12.52404,2.389557,-0.7069456000000001,0.6479884,1.7755234
-1.9785396,12.398221000000001,2.6831243,-0.7708246999999999,0.56813955,2.0118758999999997
-2.3194451000000003,12.927147999999999,3.0346314999999997,-0.82938045,0.63414794,2.124729
-1.8015218999999998,13.141515,2.6919062,-0.86505497,0.53246504,2.103436
-1.6798198,11.977607,2.2172031000000003,-0.8112814,0.28068385,2.075755
-1.5794932,11.091273,1.4774523000000002,-0.79957026,-0.082362086,1.9549083999999999
-2.1363845,9.954400999999999,1.2638896000000002,-0.7899884,-0.24736552,1.8580252
-2.4905443,9.60685,1.4084035,-0.8304450999999999,-0.06637487,1.7036682
-2.4870105,10.684709,1.0541575,-0.9065764000000001,0.2609791,1.553535
-2.2551754,12.719358999999999,0.6706925,-0.9326515999999999,0.44464007,1.4891324
-2.1564958,13.75105,0.5784296,-0.9241344000000001,0.4558102,1.3608332
-1.2342971999999999,13.421932,0.7945494000000001,-0.9044471,0.5223595999999999,1.2687496
-1.4732288999999998,11.571359,1.7125055,-0.9555503000000001,0.5878269,1.1809072
-1.0499724,9.640808999999999,2.145291,-1.0210176,0.70439744,1.1734546000000001
-0.8845809000000001,7.8726144,2.289508,-1.0215585999999999,0.7608239,1.101582
-0.087723546,7.3058586,1.9103047999999998,-0.8506735000000001,0.65064126,0.9030334000000001
0.6659233,6.8600582999999995,1.4514896000000002,-0.685129,0.45739844,0.58309704
0.93914956,6.6111949999999995,1.1123843999999998,-0.49987975,0.26843163,0.272219
0.82808733,6.7823234,1.3744346,-0.27790877,0.111927964,-0.03651229
1.2065053,7.017318700000001,1.3767331,-0.15013322,0.053895768,-0.27178267
1.4905342,7.224158999999999,1.4377468999999998,-0.061243605,0.10979866,-0.44905576
1.3547733999999998,7.6541380000000006,1.2674328000000001,-0.010663961999999999,0.066147976,-0.64175755
1.4673871,7.723216000000001,1.6684808999999998,0.064908795,0.019303342,-0.7695156999999999
2.0621834,7.904178999999999,2.2495632000000003,0.18414968,-0.13292427,-0.8647931999999999
2.6177435,9.098569,2.9884331000000004,0.33053046,-0.28996900000000003,-1.0037389
2.6913318999999998,10.392445,3.3528017999999995,0.49980995,-0.38737583,-1.0745294
2.6328652000000003,10.755338,4.374427,0.6648308,-0.48267079999999996,-1.100622
2.5436287,10.614942999999998,4.6908827,0.7420093000000001,-0.56145495,-1.1506606000000001
2.0460656000000004,9.964447,4.518376,0.81388193,-0.579013,-1.2619254999999998
1.4150403,9.548048,4.328056,0.88681924,-0.6365041,-1.3939247
1.0161183,9.547885,4.1346235,0.94431037,-0.74509853,-1.5557516000000002
0.093402594,9.13498,4.0080085,0.95387477,-0.88830274,-1.7149256000000002
-0.37631103,8.971131,4.3054357,0.9464222,-0.94472927,-1.8011624
-0.5869241999999999,9.163271,4.586150599999999,0.92886424,-0.83294094,-1.8458776000000001
-1.1169908000000002,9.3753,4.843604,0.9043773,-0.5039638,-1.911886
-1.2773832,10.313713,4.373019,0.87615526,-0.22448425,-1.9353083
-1.2307059,11.386019000000001,3.5803945,0.88786644,-0.090338245,-1.9433019
-0.97188306,11.624979,3.5305185,0.91502374,-0.15634659,-1.91508
-0.77958083,10.994145,3.6833165,0.9618684000000001,-0.38046432,-1.7915804
-0.38425022,9.91573,3.460828,0.97783816,-0.46457174,-1.6132601
-0.37410837,8.612097,3.2284276000000003,0.87509066,-0.32616714,-1.5105126
-0.25399607,7.380883,2.9148831000000004,0.7436149999999999,-0.24684192,-1.3534680000000001
0.24401705,6.5421944000000005,2.6578033,0.6392791999999999,-0.30220374,-1.1820766000000003
0.78745294,6.0013440000000005,2.5267062,0.56262434,-0.46244243,-1.0330255
0.75088865,5.8156977,2.9561782,0.48916343,-0.5385562,-0.8552113000000001
0.7739113000000001,6.491571400000001,3.2544575,0.4055796,-0.40866885,-0.6550744000000001
0.23182575,7.157983,3.1106427000000005,0.33426547,-0.23886576,-0.36920694
-0.27540025,7.849639,2.9228702,0.30019662,-0.35917129999999997,-0.14295992
0.11037269,8.146587,2.6484084,0.25120524,-0.5736897,0.033737216
0.321321,8.51586,2.5656552,0.1282468,-0.36342990000000003,0.23869123
-0.33841562,9.314871,2.824143,-0.07295476,0.18858282,0.45162138
-0.8485050999999999,10.016919,3.1484327000000003,-0.27949703,0.68949234,0.6741334
-1.2329371999999998,10.836818,3.2672138,-0.4280071,0.9870709999999999,0.93284357
-1.4535198999999999,11.940861,3.1849298,-0.5307546,1.1009886,1.2096528
-2.0036306,12.814438,2.7701392000000005,-0.6270968000000001,1.1579386999999999,1.5034964
-2.3891356,12.601823,2.5641997,-0.6829997,1.1217406,1.7856289
-2.6383240000000003,12.630381,3.2722702,-0.7548724,1.05095,1.9937593999999996
-2.2653935,12.864658,2.7907963,-0.80756384,0.9519375,2.0464683
-2.1213777,11.566263000000001,2.0857806,-0.8858244000000001,0.8571835999999999,1.9570377
-1.6413977,10.30788,1.2183901000000001,-0.92945766,0.6463827,1.8990228999999998
-1.729782,9.249759,1.2940181,-0.98961914,0.40629518,1.8239564
-1.8621718,9.157698,1.2944108,-1.0588214,0.36583847,1.7275968000000002
-1.9517053,10.239234,1.0335193999999999,-1.1227004999999999,0.6032556,1.5945153
-2.1350724999999997,12.077713000000001,0.6967797,-1.0870434,0.6431887,1.5865391000000002
-2.4168797000000004,13.556785000000001,0.74363905,-1.0375284,0.50265485,1.550341
-2.2905042,12.862169,0.74953836,-1.002936,0.38500217,1.4614340000000001
-1.7419924999999998,11.217016000000001,1.1679778,-0.99653065,0.33444,1.3597685
-1.3253726000000001,9.279437,1.7138939999999998,-0.9592853000000001,0.25139722,1.3203764999999998
-1.4624454,7.8868933000000006,1.8168831,-0.89221233,0.20561723,1.2330751
-1.0949067,6.9822774,1.5313792,-0.8182278000000001,0.10712831,1.0201449
-0.32733527,6.568693,1.1778611,-0.70109874,-0.14624114,0.78431606
0.19891028,6.43096,1.2072427,-0.5185199,-0.357042,0.5293409
0.13593319,6.853009700000001,1.3019379999999998,-0.36095154,-0.25590017,0.1439373
0.9397146000000001,7.2267923,1.2828131999999999,-0.28588492,0.08051204,-0.16533504
1.5455146999999998,7.2512229999999995,1.1519175,-0.19858356,0.32644638,-0.39317033
1.4329777,7.433594,1.1336257,-0.111823246,0.2870543,-0.62845814
1.2040727,8.350113,1.5107604,0.0020769418,0.11245156,-0.79773766
1.4587008999999997,8.988934500000001,1.8446846000000001,0.133029,-0.13772394,-0.8823686
1.6564332,9.834098,2.4503028,0.27356290000000005,-0.25802946,-0.92230177
1.084401,11.201483999999999,3.3417215,0.3911981,-0.22183135,-0.89514446
1.489136,11.906978,4.020985,0.5210855,-0.1707281,-0.8536231
2.1352927999999998,11.536423,4.196154,0.6036047,-0.15636405,-0.9031380999999999
1.647364,10.235586,4.4001884,0.6797185,-0.20905554,-1.0325018
1.0623456,9.828744,4.5228863,0.7819424,-0.36662385,-1.1815354999999998
0.71489906,9.830898,4.248051,0.8655088,-0.5167396,-1.3077054
-0.35844073,9.576769,4.079078,0.9166120000000001,-0.5114164000000001,-1.3918128
-1.004224,9.288115,4.2046394,0.9182176999999999,-0.28516933,-1.4455688999999998
-1.4580879999999998,8.938943,4.1826514999999995,0.91341805,-0.030717794,-1.4801788
-1.9697767,8.703467999999999,4.061332,0.92354095,0.13002703,-1.5142476999999999
-2.1820180000000002,9.578339,3.9796422,0.9363168,0.11938052,-1.519571
-1.6698503,11.164525999999999,3.4097455,0.9496162,0.045378562000000004,-1.5392756
-1.2953111000000002,11.647255,3.4528027000000003,0.98527324,-0.030735249,-1.5366053999999998
-1.0344292,10.71141,3.5989449999999996,0.98262036,-0.04829326,-1.4865668
-0.739387,9.221851,3.4607707999999997,0.96932095,-0.08449139,-1.4322696000000001
-0.17461392,7.889373299999999,2.9680345,0.983144,-0.19521508,-1.3529618
0.21017261,6.851717,2.5705874,0.80854124,-0.28625146,-1.1890055
0.42092937,6.246271,2.4474392000000003,0.56740654,-0.2883633,-0.9579589
0.4557602,6.161009,2.6679833,0.41887903,-0.29583332,-0.78709114
0.16110104,6.471565200000001,2.921175,0.32944834,-0.3155206,-0.6188763
0.49054322,7.091769,2.9710798,0.23523548,-0.2793225,-0.4346917
0.19730137,7.4411119999999995,3.044266,0.17720328,-0.29902726,-0.20153317
0.101830184,7.857904400000001,2.998776,0.16390386,-0.64823276,-0.058346357
-0.19978178,7.766771,3.4610772000000005,0.09309586,-0.95485216,-0.00083775807
-0.121788256,8.054468,3.3355156999999998,0.014852752,-0.7972664,0.06674139
-0.94128513,8.864359,2.4904583,-0.10756464,-0.27134633,0.22804472
-1.5842816000000002,9.663591,2.3639677000000003,-0.26619762,0.31525883,0.47769663
-1.8383256000000001,10.287837,2.765073,-0.41259584,0.7256904000000001,0.80560905
-2.1365664,11.494342,2.8131583,-0.49775046,0.7916988,1.1340625
-2.5813036,12.865625999999999,2.3680952,-0.54300684,0.68097514,1.4321473999999998
-2.9338164,12.512567500000001,2.3197612999999997,-0.56642914,0.49146727,1.6498772000000002
-2.77148,12.394514,2.5591334999999997,-0.6026273,0.36316812,1.8106395
-1.5845977,12.36088,2.2926778999999997,-0.6249849000000001,0.39777797,1.8638720000000002
-0.8680609,11.380809,2.2616875,-0.6808704000000001,0.5883505,1.8111805
-0.85277635,10.860146499999999,1.5258247,-0.7128274,0.56438714,1.8159627
-1.3728257,10.362326,1.0528836000000001,-0.755937,0.46219808,1.7637948
-1.9720657,10.374564,1.2542936000000002,-0.82194537,0.4387583,1.637625
-2.4897207999999997,10.854792999999999,1.5242828000000002,-0.8948826999999999,0.44142866,1.5652287
-2.6779912,12.010943,1.5977466,-0.9491798,0.40629518,1.4805977
-2.899043,12.733025999999999,1.501672,-0.99548346,0.24392721,1.4050075
-2.3284854999999998,12.118127000000001,1.8140292000000002,-0.9960245000000001,0.14597934,1.3230294
-1.2785995,11.036044,1.9090407,-1.0588214,0.3498687,1.1899481
-0.86546564,9.53828,1.9585145,-1.0540392,0.78372264,1.1761075
-1.290561,8.300247,2.1992943,-1.1168536,0.9620429,1.0770950000000001
-0.6060969,7.2893669999999995,1.8078425,-1.0976899,0.8066039,0.90888023
-0.16930836,6.794553,1.5321263,-0.9619382,0.46591565,0.70020866
-0.15545073,6.587569,1.5119863000000002,-0.8107751999999999,0.15343189,0.45214498
0.26803568,6.816809700000001,1.3842219999999998,-0.63617253,-0.02167699,0.14817846
0.48061207,7.0292325,1.4186219,-0.49138000000000004,0.08370599,-0.17971656
1.3167822,7.169877499999999,1.8859128,-0.33700562,0.2748021,-0.38306487
2.3192632,7.6146335999999994,2.0192986,-0.19273672,0.31632346,-0.51614624
2.5816677,8.509615,2.3603669999999997,-0.026651177999999998,0.20081758,-0.65242153
1.9445226999999998,9.254433,2.6926055,0.15323989999999998,-0.07490953,-0.7242767
1.5104061000000002,9.251339,3.403396,0.33796555,-0.33894295,-0.7908086999999999
0.9883073,9.243084,3.5185955,0.44975388,-0.35971236,-0.76899207
1.1480389,10.186744000000001,3.9978569999999998,0.559954,-0.23408356,-0.7391818
1.6918004,11.05649,4.3650794,0.6664190999999999,-0.11377801,-0.7881558000000001
1.7667102,11.046512,4.620981,0.76701987,-0.06426302,-0.9851162
0.8559174999999999,10.33507,4.7995887,0.8772199,-0.25644124,-1.1591953000000002
-0.10875422,10.251952000000001,4.2752685999999995,0.9847322000000001,-0.5343150999999999,-1.2885417
-1.0872357,10.045658,4.016417,1.0544755,-0.68069583,-1.3832957000000001
-2.2849784,9.59641,4.2626657,1.0906737,-0.64770913,-1.4652911
-2.7335942,9.368492,4.7977886,1.1220896,-0.5226039000000001,-1.5105301000000002
-3.0405116000000003,9.026571,4.673673,1.1236778,-0.46244243,-1.5419285
-3.1774025000000004,9.2608385,4.3136044,1.1348653999999998,-0.533774,-1.5621569
-2.7387178,10.395921000000001,3.4484453,1.1029258999999998,-0.57848936,-1.5440578
-1.9657067,10.943666,3.4559631,1.0672513000000001,-0.6232047,-1.5307585
-1.6528706999999998,10.09247,3.8892083,1.0331825000000001,-0.75735074,-1.5201118999999998
-1.2840582,8.908882,3.4171864999999997,0.9815556999999999,-0.8893674000000001,-1.4594268999999997
-0.7898566999999999,7.7075963000000005,2.8282993,0.85751516,-0.99850285,-1.404065
-0.26221300000000003,6.6855020000000005,2.4354299999999998,0.7196516,-1.1166791,-1.3896834999999998
0.07830955,6.104697,2.2923522000000003,0.6110572,-1.1427543,-1.2683133
0.2496482,5.8457212,2.2734861,0.5163032999999999,-1.0272484,-1.0915812
0.11892479,6.035524,2.5530617,0.4140968,-0.7078532,-0.8791921999999999
0.22651063,6.431458,2.4706054,0.31560788,-0.36023596,-0.6034476
0.54081184,7.293131,2.8337482999999994,0.22033036,-0.12655382,-0.35910149999999996
0.29461129999999996,8.358081,3.0396307,0.23415338,-0.3325725,-0.20580922
-0.16334201,9.297624,3.2427356,0.27089256,-0.68443084,-0.080704026
-0.47478935,10.083889,3.4486656000000004,0.22937118,-0.6450388000000001,0.0044505894
-0.58974934,10.277858,3.7944553,0.15271631,-0.19734438,0.15723671
-1.0694228000000001,9.596036999999999,4.249114,0.006318091999999999,0.38711402,0.39995965
-0.82779044,9.857867,4.037103,-0.17198475,0.8507781999999999,0.6948854
-0.76302254,10.802217,3.3557322,-0.28696704,1.0935186000000001,0.9935111999999999
-1.2063999,12.154088,2.6924810000000003,-0.35456362,1.0823485000000002,1.3145121000000002
-1.8017803,12.400921,2.4004266,-0.4051433,0.9391441999999999,1.5801338
-1.993623,12.069946,2.8105342,-0.4328242,0.6107081999999999,1.7723119999999999
-1.4023318,12.396419999999999,2.6260755000000002,-0.4706106,0.47869146,1.863331
-0.6319256,11.730574,2.4217157000000005,-0.54674184,0.63146013,1.8340617
-0.5686515999999999,11.254586999999999,1.9931442,-0.6031683000000001,0.6884102,1.835109
-1.5251256000000002,10.065291,1.3416818000000001,-0.6297845999999999,0.49837875,1.8574841
-2.137438,9.229485,1.3177974,-0.6878168,0.4509931,1.8106220000000002
-2.5152907000000004,9.575954,1.4965198,-0.7900058000000001,0.64530057,1.7446311999999997
-3.2118504,10.867367999999999,1.5410903,-0.8773072000000001,0.7070503,1.7451546999999998
-3.0979629,12.182186,1.5226356,-0.95130914,0.6852337,1.6552005
-2.757105,12.749048,1.4579252,-0.9864426,0.47869146,1.5343539
-1.893986,12.057736,1.3842889999999999,-1.0173174999999999,0.21624629,1.394361
-0.9612337,10.484161,1.4265898000000001,-0.99921846,0.112975165,1.2655382
-1.3367211,8.926628,1.8043182,-0.9374687,0.14917329,1.1122111000000001
-0.84296966,7.8558455,1.7743620999999998,-0.87626,0.23593360000000002,0.921115
-0.08099106,7.14425,1.4323168,-0.7719242,0.35890952,0.71937233
0.03479254,6.917136,1.1420438,-0.6526833000000001,0.20825268,0.5745624
-0.011913547,6.9294615,1.0797179,-0.4583758,-0.031799898,0.3270398
0.40215886,7.0368075,1.0026245999999999,-0.3614926,-0.0339292,-0.06260496
0.4097437,7.4790363,1.2113223999999998,-0.24809855,0.078906335,-0.2898992
0.7080708,7.6844396999999995,1.548541,-0.13206907,0.06665412,-0.47090727
1.2187061000000001,8.03767,1.8451060000000001,-0.036774087999999996,-0.05735152,-0.6316520999999999
1.7768807,8.682046000000001,2.1474265999999997,0.09203121,-0.17552777,-0.74131113
2.0141366,9.354251,2.4374986,0.23095942,-0.22504276,-0.8153130999999999
1.6965984,9.9972,2.8590598,0.35871753,-0.25218263,-0.78230894
1.2291545,10.751402,3.5072086000000002,0.46731192,-0.32616714,-0.7833736
1.8698811999999998,11.752647,3.7254543,0.55569535,-0.39482838,-0.84297657
1.9174874,11.821333000000001,3.8161948,0.61638045,-0.37781143,-0.9792693000000001
1.0830412,10.869273,4.2408495,0.6813066999999999,-0.34533083,-1.1118096000000002
0.5845683,10.280855,4.269446,0.7473325,-0.37994072,-1.2528846000000002
-0.118177794,9.638836,4.2207384,0.7638259,-0.43210859999999995,-1.3636082
-0.8726099,9.706946,4.3250775,0.7494618000000001,-0.39165187,-1.4413278
-1.8184537,9.189952,4.5301456,0.7435975,-0.27612853,-1.467403
-2.3210732999999997,8.592416,4.470942,0.7701963000000001,-0.11910127,-1.4642264999999999
-2.1626155,9.397405000000001,4.063353,0.7553086999999999,-0.07119198,-1.4626209
-1.5419425,10.741653,3.3907258999999996,0.76489055,-0.10791371,-1.4711379999999998
-0.94646627,11.336909,3.1464024,0.7845953,-0.2851868,-1.4642091
-0.6606082,10.545482000000002,3.1898427000000003,0.78511894,-0.41666245,-1.4535625
-0.58529615,9.066746,3.139775,0.73136276,-0.45020768,-1.4397221000000002
-0.46455175,7.537694,2.8964095000000003,0.6775892,-0.42997932,-1.3886364
-0.10977894,6.2151559999999995,2.7537055,0.59774035,-0.32405528,-1.3263456
0.3260711,5.624181,2.7244002999999997,0.5290791,-0.19734438,-1.2512789
0.6954198,5.837926,2.6769950000000002,0.48329914,-0.101525806,-1.0750879
0.83549017,6.4442525,2.8100650000000003,0.45666540000000005,0.0368439,-0.8302181999999999
0.7825592,7.0900836,3.02833,0.37044615,0.28811896,-0.5656437
0.54771674,7.6584,3.2615828999999996,0.31826079999999995,0.27319640000000006,-0.377218
0.67104685,8.022243,2.9977033,0.37468728,-0.159558,-0.22869049
0.53772813,8.020288,3.0440454,0.34061846,-0.45713663,-0.16002923
0.11308293,8.676194,3.2906098,0.24853489,-0.33894295,-0.11955505599999999
-0.0074220253,9.513456,3.4603395,0.0744732,0.10180505,0.0060562924
-0.4402937,9.943081,3.5457935,-0.09958848,0.5516113,0.20727529999999997
-0.9851085999999999,10.487829,3.4645917,-0.26300368,0.8986875,0.48727846
-1.4698387,11.550491000000001,2.9926562000000003,-0.37320375,0.9950471,0.8444601
-2.0864508,12.410891000000001,2.1839716,-0.45411720000000005,0.95033175,1.2053767
-2.7514644,12.152097,2.5670056,-0.50148547,0.79915136,1.4726216
-2.611059,12.744392999999999,3.0402627,-0.5632526,0.6069732,1.6237845
-1.6904023000000001,12.7525625,2.578402,-0.6068859000000001,0.44888124,1.6546593999999997
-1.1904738000000001,11.777174,2.4137576000000003,-0.6606595000000001,0.43929937,1.6323017
-1.4358411,10.515122999999999,1.6781534,-0.68888146,0.42120029999999997,1.6291076999999998
-2.083367,9.156624,1.6022668,-0.7032455,0.36690313,1.6445539
-2.6041157000000004,8.867357,1.4298267,-0.7468961999999999,0.32377604,1.6461421000000003
-3.2180752999999997,9.456379,1.4672912,-0.8288743000000001,0.38287288,1.6115323000000001
-3.3080206,10.536336,1.1540244,-0.8576199000000001,0.37222636,1.5849335
-3.1002614,11.4455,0.8900493,-0.88901836,0.3003537,1.506673
-2.2744055,11.590417,0.72686046,-0.8954236999999999,0.09061749,1.4156541
-1.5152903,10.900464999999999,0.8888425999999999,-0.89435905,-0.12494812,1.2980014
-1.0779366000000001,9.800664999999999,1.1049337,-0.8890358,-0.25377086,1.1723726
-1.1468129999999999,8.782171,1.2607867,-0.8347386,-0.20427333,1.0829419
-1.0094912,7.997266000000001,1.1282437,-0.7463550999999999,-0.18350391,0.9685007
-0.78016496,7.6146054,0.92945784,-0.6388429,-0.17819811,0.82262605
-0.268888,7.3743043,1.0669808,-0.4828628,-0.08449139,0.59321994
-0.25525063,7.4460917,1.1961527,-0.36894515,0.10445795,0.34567990000000004
0.1485267,7.553667999999999,1.3742143999999998,-0.2992018,0.33229324,0.037454765
0.3229778,7.6371965,1.5925847,-0.18580775,0.41535345,-0.24198989999999998
0.63798773,7.687819999999999,1.7050546000000002,-0.07777187,0.18217747,-0.5071054
0.96942186,7.833808400000001,1.965381,0.029757863,0.035796702,-0.687555
1.4734875,8.614194,2.174864,0.1436755,-0.08609709,-0.77325064
1.5738524,9.591076,2.5203185,0.28419197,-0.091420345,-0.72162384
1.6402197,10.4914875,3.020065,0.4130147,-0.17126916,-0.6369928
1.8953363,11.613956,3.6056771,0.5375789000000001,-0.3527834,-0.64549255
1.7830865000000002,12.505873,3.615302,0.61264545,-0.5002462999999999,-0.7652745
1.2509416000000002,11.739298,3.995597,0.7031408,-0.5508084,-0.97288144
0.7806917,10.916248,4.3079160000000005,0.7766017,-0.57051325,-1.1490898
0.18099207,10.376603999999999,4.106458,0.8133409,-0.5486791999999999,-1.3412507
-0.47971183,9.816965,3.8792101999999997,0.83196354,-0.47788859999999994,-1.4791142
-1.5050048,9.463063,3.6984766000000002,0.80588835,-0.30487412,-1.5781266999999999
-2.7190757000000003,9.08498,3.8708207999999997,0.78991854,-0.20214403,-1.6249714
-3.2162652,9.2932,3.6231647000000002,0.7893775,-0.16168729999999998,-1.6808741999999999
-2.6095650000000004,10.577688,3.1511526,0.78670716,-0.12175417,-1.7718931
-1.6752133000000002,11.669263,2.6818984,0.80161226,-0.106325455,-1.8267314
-0.97049445,11.285941000000001,2.9779847000000004,0.8335691999999999,-0.21650809,-1.8134146
-0.44573329999999994,9.961267,3.0818357000000005,0.81386447,-0.33042574,-1.8224728
0.08780974,8.321566,2.9787412,0.76434946,-0.3022212,-1.8070439999999999
0.22679794,6.9925246,2.5887547000000004,0.6472379,-0.06426302,-1.6680984
0.4549079000000001,6.2769455999999995,2.2898338,0.56793016,0.12575097,-1.425358
0.3884257,5.987659,2.479761,0.51736796,0.24020967,-1.1485488000000001
0.51959926,6.097045400000001,2.6060502999999997,0.48010516,0.21146409,-0.9047438
0.8644696,6.406041,2.739848,0.4082325,0.168337,-0.64603364
0.60074353,6.9648476,2.9731963,0.3390302,0.021956242999999997,-0.38039452
0.11294886,7.544005,3.2447847999999997,0.29592058,-0.22237240000000003,-0.15097098
0.456354,8.4869175,3.1702678,0.27888617,-0.57157785,0.01829105
0.32205844,9.619472,2.9574616000000002,0.14580481,-0.6263986999999999,0.11252138
-0.5475826,10.260649,2.734686,0.0026179939,-0.30965632,0.25092600000000004
-1.4070052,10.143984,2.7501621,-0.177308,0.25670302,0.43669882
-1.917315,9.969982,2.517168,-0.41737804,0.8433255999999999,0.7246956
-2.6045659,10.823792999999998,2.1038425,-0.64149576,1.3187008999999998,1.0829419
-3.0409715,11.601181,1.5723488,-0.80012876,1.470405,1.4156541
-3.4994035000000006,12.088439,1.4114201000000002,-0.8624021000000001,1.3032548000000002,1.7132151999999998
-3.5515301,11.85014,1.6578792000000002,-0.8767835999999999,0.89123493,1.9591494999999999
-3.0124707,12.054921,1.9283859,-0.90231776,0.52075386,2.0949013
-2.2970831,11.429076,1.7781928,-0.9103288,0.36316812,2.134817
-1.8138664,9.855147,1.9187611,-0.9640850000000001,0.33815753,2.0693495
-1.6394345000000001,9.54844,1.4571302,-1.0023949,0.29237756,1.9730074
-2.2730452999999997,9.844775,0.74315065,-1.0652268,0.19549432,1.8479023
-3.0682270000000003,10.551985,0.29053158,-1.1248473,0.28225464,1.7371786
-3.4707402999999997,11.598835000000001,0.32720116,-1.1738212,0.43504077,1.6259139
-3.6051219,12.803185000000001,0.58530575,-1.1743448,0.18697712,1.5588408999999999
-3.4605407999999995,13.252701,0.67625666,-1.1216533000000002,-0.1600816,1.4609104
-2.8073354,11.659561,0.8725046000000001,-1.0774616000000001,-0.35437164,1.35551
-1.9782810000000002,9.591401,0.9154757,-1.0412635000000001,-0.43956116,1.1984652
-1.2446305,7.86908,1.0750540000000002,-0.9688671999999998,-0.272411,1.0563257
-1.2015541,6.836470599999999,1.0998006,-0.8538849000000001,-0.07278023,0.87959355
-0.7317351,6.505027,0.9717107,-0.73731434,0.036320303,0.69275606
-0.28018862,6.6497226,0.92972594,-0.5935865,-0.159558,0.49844858
-0.46475288,6.923025999999999,0.9688472,-0.41153118,-0.3416133,0.2551846
-0.6115556999999999,7.1401414999999995,1.1413256,-0.24279276,-0.24153611,-0.10999065
0.05478891,7.351903999999999,1.2257930000000001,-0.11555825,-0.00572468,-0.34686673
0.73385155,7.877345,0.9487742,-0.028780478999999998,0.06454228,-0.52944565
1.1475121000000001,8.517124,1.1152288000000001,0.038257618,0.10498156,-0.67957884
1.5225303,8.991971000000001,1.6480248,0.16390386,0.17526597,-0.789744
1.4934934,9.29161,2.0771616,0.32358405,0.13798574,-0.88718575
1.2368829,10.237674,2.3813496,0.49075168,0.018762288999999998,-0.9308190000000001
0.6173496999999999,11.468169,3.20779,0.6616194000000001,-0.12655382,-0.9430712
1.1822472,12.187857000000001,3.8716252,0.8096059,-0.18456857,-0.96275854
1.6006771,11.615488000000001,4.098634,0.9054245000000001,-0.11749557,-1.0186614
0.8809799999999999,10.330847,4.622485,0.95387477,-0.06480408,-1.0947752
0.20376572,9.681051,4.315491000000001,0.96293306,-0.07171558,-1.1810119
-0.35738727,8.929778,4.204927,0.9698446,-0.10791371,-1.2858888000000002
-0.7342920999999999,8.803125,4.215471,0.9613273999999999,-0.09567895,-1.399789
-1.0660518,9.093533,4.4605703000000005,0.9751678,-0.21066125,-1.4775260000000001
-1.4378618,9.336649000000001,4.646274,1.0055015999999999,-0.39165187,-1.5744091
-1.6634433999999998,10.379143,4.5946264,1.0177538000000002,-0.53112113,-1.7325009999999998
-1.2942575,11.497838,4.009426,1.0262711,-0.6280044,-1.7953154999999998
-1.01676,11.536969000000001,3.5500267,1.0236007,-0.83986986,-1.7969037
-1.0906258999999998,10.331353,3.1307251,1.0214889,-1.1459483,-1.735154
-1.3096378999999998,8.528127,2.9506526,1.0007194,-1.2199502,-1.6739453000000002
-1.1866813,7.0011535,2.9325523,0.94535756,-1.0570412,-1.5568336999999999
-0.88703257,5.9566493,2.7679174,0.85912085,-0.579554,-1.3849013000000001
-0.83778864,5.464363,2.8189330000000004,0.7766017,-0.30860913,-1.1980463
-0.37001908,5.727917,2.6749747000000004,0.6701541,-0.031782445,-0.8573581
0.12265974,6.4221205999999995,2.4040369999999998,0.54557246,0.09807005,-0.6439043000000001
-0.17568652,7.294242,2.3544102000000002,0.46359435,0.089029245,-0.39158207
-0.6381697,7.8419585000000005,2.2988744,0.36618754,-0.02008874,-0.14723597
-0.3128264,8.418778999999999,2.668606,0.3315951,-0.30487412,0.03960152
0.005544971,8.656151,2.6820805,0.24907593,-0.3416133,0.13753195
0.09812396,9.615133,2.8239992000000003,0.1436755,-0.09567895,0.22963297
0.2176042,10.366060000000001,2.7933342,0.021764256000000003,0.25350907,0.37707838
-1.2529433,10.656946000000001,3.0501077000000003,-0.16187929,0.55641097,0.5782974
-1.4217057,11.048935,2.5824528,-0.35882223,0.817774,0.79335684
-2.0450506,11.56139,2.3570437,-0.4988151,0.97588336,1.0414379999999999
-2.9296312,11.818307,1.8058889,-0.5781403,0.9993056999999999,1.3150358
-3.4773004000000003,11.612395,1.8683392,-0.63563144,0.91678655,1.5732223
-2.7139425,11.94155,2.2138035,-0.67502356,0.8007396,1.7861525000000003
-1.6667379,12.057315,1.9935464,-0.7229328,0.7241022,1.9064580000000002
-1.4402846,10.980642,1.9120287,-0.7665835,0.67191684,1.9564966000000001
-1.7526035,10.254022,1.3252576999999999,-0.81981605,0.6681993,1.9277511000000003
-2.0935186999999997,9.758316,0.7859494,-0.8730485999999998,0.71130896,1.8665249
-2.1968045,9.721196,0.6982642,-0.9236281999999999,0.7746644,1.7579305
-2.3249614,10.2484665,0.73061454,-0.9704729,0.75763,1.6264548
-2.3186312,11.173250999999999,0.74728787,-0.9784665000000001,0.43449970000000004,1.5540587
-2.2258317,12.227139999999999,0.7618636999999999,-1.0088003,0.09009389599999999,1.4598283
-2.0147398,12.552886,0.8063288000000001,-1.0098649,0.0011868239,1.35551
-1.7102741000000001,11.501841,0.9143744,-1.0327636999999998,0.035255652,1.228258
-1.2110351000000001,10.1208935,1.0618669,-1.0322226,0.2742785,1.0632546
-0.8861228000000001,8.647934,1.2399476,-0.9017941999999999,0.43237042,0.9519898000000001
-0.58085245,7.690798299999999,1.138261,-0.79480547,0.54257053,0.76089376
-0.3662458,7.2024674,1.1759073999999998,-0.692599,0.45259878,0.55913365
-0.46100834,7.128649,1.0258676,-0.5270371,0.26310837,0.27914795
-0.72654444,7.2329698,0.812774,-0.40620792,0.114039816,0.023614304
-0.015447388999999999,7.453245599999999,0.6364267,-0.27632052,-0.041905355,-0.23986060000000003
0.65146226,8.034988,0.50328994,-0.14589207,-0.2505769,-0.48525390000000007
0.8738836,8.734105,0.45461103,-0.06551966,-0.40282199999999996,-0.6460161999999999
1.2027416000000002,8.849544,1.218936,-0.0069638634999999996,-0.38259363,-0.73227036
1.2518898,9.164966,1.6605129,0.08777261,-0.39856339,-0.7950847
1.2638512,9.75212,1.9858561999999997,0.24162339,-0.38313466,-0.8866447000000001
1.0704955,10.22916,2.5995667,0.40610322,-0.38100538,-0.8930326
1.1805713,10.724242,3.1855907,0.5365317,-0.52473325,-0.8871683000000001
0.8002284000000001,11.468599000000001,3.2744443,0.6227684,-0.68017226,-0.91219634
0.4643602,11.497378,3.6316786,0.66374874,-0.7461806,-1.0106678
0.040672697,11.107669,3.758983,0.6802595,-0.74138093,-1.1421609
-0.33503499999999997,10.865041,3.3556652000000002,0.6951646,-0.7190233,-1.2432853000000001
-0.86268836,10.618189,3.0955687000000003,0.70581114,-0.7025299,-1.3151579
-1.3665433,10.469308,3.2601080000000002,0.7148694,-0.6886720000000001,-1.3694551000000001
-1.9031988000000002,9.6424265,4.152101,0.7531793999999999,-0.69561845,-1.404065
-2.889179,9.254480000000001,4.2162275000000005,0.7808603,-0.6354569,-1.4375927
-3.3370671,9.554464,3.984756,0.80002403,-0.57316613,-1.4418514
-2.8736837000000004,10.495011,3.2983097999999997,0.7963064999999999,-0.46404815,-1.4343989
-1.8851178,11.239139999999999,2.872611,0.7744899000000001,-0.2314132,-1.4333341999999998
-1.08578,10.577995,2.7510335,0.77236056,-0.10471976,-1.3683903999999998
-0.5333324,9.080585000000001,2.6141522,0.8346339,-0.20799088,-1.1889881000000002
-0.16257587,7.440862700000001,2.5103972000000003,0.80908227,-0.18882717,-1.1283205
0.26555526,6.5754356,2.580413,0.7223045,-0.10845476,-1.1017041
0.6990111,6.011582,2.6658573,0.6243565999999999,-0.045099307000000005,-0.9851162
1.2710433,5.666405,2.5358427000000003,0.54717815,-0.10365511,-0.82381284
1.4853818,6.1618322999999995,2.3024367999999997,0.48596948,-0.120148465,-0.57309633
1.4633552,7.1760545,2.1062176,0.37896335,0.06667158,-0.30002209999999996
1.0749391000000001,7.747369,2.2806687,0.26715755,0.10712831,-0.09506808
-0.11545798,7.6411614000000005,2.7948856,0.23043582,-0.22821926,0.054506633
-0.33824322,7.9471793,2.7874446,0.21074851,-0.50715774,0.15456636
-0.11539095,8.507325999999999,2.1982603,0.12503539,-0.42572072,0.30044097
-0.45858538,9.624001,2.0714345,-0.048485245999999996,-0.105260804,0.45799184
-0.9477208,10.555222,2.1524353,-0.25822145,0.27586675,0.66081655
-1.2819802,11.002784,2.373985,-0.4269599,0.6256133,0.9083565999999998
-1.6901819,12.013635,1.8316505,-0.5323603,0.86303043,1.1856893999999998
-2.175027,12.703165,1.1209269,-0.60103905,0.99398243,1.497091
-2.7157332999999997,12.316261,1.5207396,-0.6569245,0.9870535,1.7845468999999998
-2.2834172,12.482314,2.7834032000000004,-0.6659826999999999,0.75017744,1.9756603
-1.5127620000000002,12.524787,2.558511,-0.68301713,0.5388354999999999,2.0097291
-1.5699643,11.50412,1.7352216,-0.71335095,0.43343505,1.9389212
-1.4336767,10.848252,1.0085143,-0.75061375,0.32377604,1.8675896
-1.6293403999999998,10.492953,1.0799094,-0.8208806999999999,0.41748276,1.7339846
-1.7627932000000002,10.354826,1.3246161,-0.8943416,0.5808979000000001,1.5849335
-1.9609661,10.5423975,1.281894,-0.93375117,0.33122858,1.4949617
-2.063275,11.274641,0.9158108,-0.9358629999999999,-0.13346533,1.4273652000000001
-1.9167022,12.059239,0.76398015,-0.9273631999999999,-0.44008476,1.3517749
-1.7138175,12.23958,0.9891118,-0.9268221999999999,-0.49544662,1.2431805
-0.8080909000000001,11.421539,1.2017839,-0.92947507,-0.11430161400000001,1.122334
-0.5831509,9.876897,1.2997833,-0.9023351999999999,0.27586675,1.0286447
-0.36513492,8.718188,1.223236,-0.8544259,0.62348396,0.8774643
0.18752345,7.764722,1.0179476,-0.77616537,0.75975925,0.6533640000000001
0.044101197,7.1575427,0.87057966,-0.66811204,0.68575734,0.41807616
-0.53953815,6.8091383,0.89633167,-0.57016414,0.45153412,0.15669566
-0.4611041,6.7224107,0.8718725,-0.45570546,0.1699427,-0.07909832
0.30410190000000004,6.998462,0.749682,-0.32155946,0.041643556,-0.32131509999999996
1.1874761999999999,7.727755499999999,0.8812099,-0.21563543,0.17366026,-0.57629025
1.6884198000000001,7.839938,1.1862503,-0.12140510000000002,0.3983016,-0.74504614
1.7755303,7.7128057,1.4313878,-0.010681415,0.5095662999999999,-0.78230894
2.148346,8.476422,1.9951361,0.16920967,0.43182936,-0.8392765
2.3439522,10.031255,2.6906613999999998,0.3614053,0.29450685,-0.8999440999999999
1.9328198,11.123901,3.0769515,0.51736796,-0.012636183999999998,-0.8871683000000001
1.4277103,11.340452,3.5806437000000004,0.6712013000000001,-0.49438196,-0.9185841999999999
1.2428299999999999,11.13865,3.9424362,0.7782074000000001,-0.8643569,-1.0463248
1.5501498,10.913594999999999,3.9701129999999996,0.8351575000000001,-0.95165825,-1.2278566
1.5373266,10.853597,3.8786737999999996,0.86976737,-0.8808502,-1.3806427
0.46152547,10.803251,3.6119212999999997,0.86390305,-0.74724525,-1.4716616000000002
-0.84115964,10.160934,3.7984202000000007,0.8388924999999999,-0.54068553,-1.5009308000000001
-1.5853636999999998,9.226918,4.083694,0.79843575,-0.30435053,-1.4610151000000002
-2.9571742999999997,8.460189999999999,4.2457332999999995,0.77979565,-0.21437879,-1.4104354
-3.8434217000000004,8.255600999999999,3.871922,0.7643669,-0.27293459999999997,-1.4162998
-2.9684942000000003,9.993694,3.3844721,0.7489208,-0.35332444,-1.4785906
-1.7427776999999998,11.898263,2.9048562,0.7350803000000001,-0.41188025,-1.4881723999999998
-0.622502,11.876035,2.9774580000000004,0.7223045,-0.4927937,-1.4626209
-0.21085255,10.399349,3.0399947,0.73136276,-0.8100421999999999,-1.3779723999999998
-0.10453085,8.451014500000001,2.9712810000000003,0.711658,-1.0570587,-1.3108993999999998
0.033413477000000004,7.168900999999999,2.6819081000000002,0.6429967,-1.161377,-1.2145398
0.21976857,6.334368,2.4295782999999997,0.56899476,-1.0996447,-1.0330255
0.23648009,6.195313,2.5470377999999996,0.51682687,-0.9383414000000001,-0.8658753
0.3495247,6.1869807,2.5248866000000003,0.4529653,-0.7972664,-0.69127256
0.47937664,6.556186,2.7368982,0.35234708,-0.5002287999999999,-0.4719545
0.37370613,7.246712,2.9376279999999997,0.23256512,-0.08822639,-0.17704620000000001
0.039580945,7.7070694,2.6475367999999997,0.16336282,0.05974262,0.09868091
-0.40952340000000004,7.9895179999999995,2.425805,0.13461724,-0.07065093,0.27808330000000003
-0.26328558,8.256317999999998,2.340045,0.06489134,-0.052028265,0.36271432
-0.08164228,9.294692999999999,2.6131754000000003,-0.038362335,0.18111281,0.50218356
-0.17602171,10.105609,2.9497139999999997,-0.17837265,0.57396895,0.73853606
-0.08476432,10.271115,3.0490541,-0.34604642,1.0030233,1.076554
-0.18152836,10.942048,3.0796232000000003,-0.44080037,1.265992,1.3842381000000001
-0.25368962,12.049721,2.9165304,-0.5036148,1.3996145,1.6940688999999998
-0.8065874,12.432601,2.7652167999999997,-0.55525905,1.4209075,1.9873716000000001
-1.4952556000000001,12.354339,2.902893,-0.57972854,1.3485112,2.1853967
-1.2796625,12.969889,2.8684645,-0.59198076,1.1786907,2.2210536
-1.001485,12.431633999999999,2.5836596000000003,-0.59730405,0.85770714,2.1885905
-1.3078375,11.272208000000001,2.1995244,-0.6106209,0.49305552,2.0890543000000004
-2.0128534,9.822596,1.7332776,-0.64893085,0.27214918,1.9431973000000002
-2.1648083,9.092326,1.641139,-0.69684017,0.26843163,1.7856289
-2.0936434,9.97526,1.6042972,-0.71548027,0.26895523,1.6791464
-2.095683,11.710644,1.2874676,-0.7463550999999999,0.2790607,1.6126143999999998
-1.9728605,13.479107,0.81807,-0.7405083,0.18537141,1.6221963
-1.9009673999999999,14.007335000000001,0.7052456,-0.7176096,0.03473205,1.6083558
-1.6335447,12.775689999999999,0.90330356,-0.6760881999999999,0.09274679400000001,1.5274423000000001
-1.8013207999999998,10.787593,1.4018625,-0.65479517,0.21198769,1.4805977
-1.3369701,8.947773,1.6841964,-0.6521248000000001,0.28386036,1.3975549999999999
-0.7625341,7.5050273,1.4606928999999997,-0.625526,0.28651324,1.232534
-0.04774996,6.6330113,1.2793177,-0.5036148,0.3578623,0.95253086
0.15374607,6.638652,0.90479755,-0.41153118,0.4866675999999999,0.5868146
0.82113457,6.742617599999999,0.61363393,-0.33700562,0.5995206,0.33929202
0.91628975,6.820966,0.53536266,-0.25874507,0.62189573,0.04225442
1.5526494,7.2030997,0.5534819999999999,-0.18901916,0.5239304,-0.29735175
2.1625099999999997,7.3599676999999994,0.6457641,-0.110758595,0.25937337,-0.570967
2.1041105,7.572304700000001,1.1113597,-0.057002455,-0.0014486233,-0.7594102
2.3817039,8.415916000000001,1.4101848999999997,0.020176006,-0.14357078,-0.8333947
2.644482,8.675505000000001,2.5885246,0.11705923,-0.29955086,-0.8467116
3.4050910000000005,9.300832000000002,3.2859077000000005,0.26928684,-0.36768850000000003,-0.88823295
3.3019297,10.526385000000001,3.4894629,0.45987680000000003,-0.49597022,-0.89036226
2.927869,11.475706,3.584139,0.5988225,-0.7174176,-0.88662726
2.736534,10.899652,3.8408550000000004,0.6717423,-0.8829795,-0.976599
2.2470732000000004,9.976562,3.9655449999999997,0.7276451999999999,-0.9537701,-1.1645011
1.7769861,9.926389,3.8337394999999996,0.7286924,-0.94898784,-1.3896834999999998
1.2756306,9.667652,3.4919336000000003,0.68877673,-0.9287595,-1.5893142
0.33233434,9.550078,3.5467224,0.63182664,-0.8403934999999999,-1.7266368000000003
0.00029688101000000005,9.408332000000001,3.7396760000000002,0.62543875,-0.63385123,-1.7984919999999998
-0.27729645,9.081974,4.249325,0.63182664,-0.4677657,-1.8453541
-0.5530893,9.575944999999999,4.1435685,0.60466933,-0.4411494000000001,-1.91508
-0.34525344,10.782881,3.441004,0.5897642,-0.5577373999999999,-1.9715238999999998
0.33643323,11.300116000000001,3.0237906000000003,0.6158394,-0.7424456,-1.9427782999999998
0.6834967,10.992258999999999,2.9327629,0.5982814000000001,-0.9761451999999999,-1.8570651999999999
0.74331343,9.752981,2.824047,0.5530425,-1.0730108999999999,-1.8937868999999998
0.6490585,8.06823,2.8751202,0.47958156,-0.7238055,-1.8746232
0.85119617,6.5443682999999995,2.9504799999999998,0.42846087,-0.19947368,-1.7553998
1.1898799,5.706302,3.0184752999999995,0.3949331,0.09541715,-1.5541806999999999
1.2343354,5.689092,2.8238842,0.35979962,0.14065608,-1.3832957000000001
1.1882518999999998,6.146299,2.5756438,0.34117696,0.31101766,-1.2124104
0.74315065,6.7928866999999995,2.6266307999999996,0.3326423,0.4675039000000001,-1.012256
0.95374465,7.8011136,2.5097651,0.3039142,0.49307296,-0.8200953000000001
1.082706,8.195314,2.244363,0.31082568,0.28386036,-0.6460161999999999
1.6364177,8.608984,2.439883,0.28687978,-0.11801916,-0.46237263
2.232756,9.133496000000001,2.6429784,0.18732620000000003,-0.2287603,-0.32503265
1.4403135,9.799975,2.8177263999999997,0.079796456,0.12470377,-0.055134952
0.61071295,10.597465,2.7600358,-0.12885766,0.77733475,0.29138273
-0.13232274,10.878217999999999,2.864576,-0.32742378,1.2888906999999998,0.68582714
-0.5589312,11.52742,2.5517497000000002,-0.4461236,1.4608406,1.0930648
-1.5668997,12.150957,2.223907,-0.508938,1.3772568,1.5418239
-2.1471487999999996,12.248037,2.2303425999999997,-0.5642999,1.2335288999999998,1.8782536
-2.433208,12.491087,2.5975077,-0.6350904,0.99132955,2.0954422999999998
-2.5472105,13.042461999999999,2.1965747,-0.7234739,0.80340993,2.110871
-1.7658865000000001,12.12352,2.0382125,-0.77723,0.7714704000000001,1.9964297999999998
-1.7693726000000003,11.602866,1.4017669,-0.8847598,0.8332202,1.8324735
-2.2519095,10.276076,0.6033866999999999,-0.88849473,0.69746846,1.8058573
-2.7912847999999997,9.33077,0.7307295,-0.9337337,0.47869146,1.7850878000000001
-3.3748379,9.418109,1.0333279,-0.9720610999999999,0.24179791,1.786676
-3.5404975,10.479161999999999,0.8401733,-1.0119942,0.21731095,1.7627301
-3.054733,11.841186,0.43750682,-1.0476513,0.29822442,1.7190794999999999
-2.2970355,12.309358,0.20887972,-1.0492396000000002,0.27056095,1.6312546
-1.2509991000000003,11.402223,0.7114323,-1.0151708000000002,0.07093018,1.4018135
-1.028233,10.330999,1.1805808999999998,-0.9832486999999999,0.009704031,1.1878188
-0.35224453,8.636192,1.1875145,-0.9880309000000002,0.10234611,0.9860761
-1.1139071000000003,7.806678,1.1850245000000001,-0.92628115,0.24925047,0.82796675
-0.7438114,7.369238,0.94022214,-0.8469559000000001,0.19710003,0.62622416
-0.34187287,7.220127000000001,0.6937727,-0.7144156,0.07199483,0.43778095
0.15715539999999997,7.419066,0.48767015,-0.5403365,-0.06372197,0.11358603
0.2885109,7.707175,0.6415503,-0.37850955,-0.085014984,-0.3031986
0.44661438,7.446197,0.8071333,-0.22574088,-0.06372197,-0.613012
0.6452661,7.280480000000001,1.3205171999999998,-0.09904744,-0.06798057,-0.8834333000000001
1.0352241,7.685684700000001,1.2895842,-0.027174776,-0.09459685,-1.0298141
1.3042079,8.407478,1.4446709,0.044121925,-0.040840704,-1.0804112
1.1697206,9.41516,2.0371976000000003,0.18200293,-0.044558257000000004,-1.0559068
0.8199758,10.456024000000001,2.4131734000000002,0.35128242,-0.21331415,-1.0165321
1.0491105,11.635100999999999,2.9716353,0.49872783,-0.5151514,-1.0064091999999998
2.0408560000000002,12.706,3.2672617,0.61850977,-0.699336,-0.96754074
2.1567066,12.582718,3.6578612,0.72658056,-0.6599264,-0.99256873
1.7632433999999997,11.182588,4.1160254,0.82931066,-0.5625196,-1.0910403
1.3294045,10.40023,4.011131,0.8708495,-0.49968776,-1.195376
0.2547239,8.925305999999999,3.5853745999999997,0.8436746999999999,-0.40175733,-1.312505
-0.93225425,6.7171054,3.9548379999999996,0.7798130999999999,-0.2670703,-1.3864895000000002
-1.7799547999999998,5.798919000000001,4.2990093,0.7047465,-0.106308006,-1.4700559
-1.55716,7.4373,4.3699449999999995,0.6632251,-0.003577925,-1.5861028
-1.2290491000000001,10.497693,3.9824097000000003,0.6222273,-0.07012733,-1.6574519
-1.1590042999999999,12.41793,3.6171792000000003,0.60840434,-0.21916099,-1.7660289
-0.49547526,12.420515,3.4103873,0.59774035,-0.45659557,-1.8442894
-0.28603049999999997,11.671072,3.4056942,0.5940228,-0.7908785,-1.8842051
-0.55703497,10.332101,3.250311,0.5306848000000001,-0.87552696,-1.8863343999999997
-0.7107906,8.582714999999999,3.1367779,0.4487067,-0.62905157,-1.780934
-0.63442516,7.262734399999999,3.0713107999999996,0.37950438,-0.2255489,-1.5829089
-0.54721874,6.524908,2.9855025,0.33478907,0.097022854,-1.3428388999999998
-0.71475536,6.591696700000001,3.1902163,0.32040754,0.1699427,-1.0740058000000001
-0.7244184,6.7222669999999995,3.1290205,0.31295500000000004,0.13267992,-0.80039054
-0.3872669,7.1414633,2.9811356,0.28633872,0.19868828,-0.53583354
-0.49216170000000004,7.349921000000001,2.872027,0.26665140000000004,0.097022854,-0.28829348
-0.1825914,7.3704925,2.8411226000000003,0.29113838,-0.28942794,-0.08600982
0.30821040000000005,7.3929024000000005,2.433093,0.24801129,-0.6093643,0.021502456
0.33834857,7.784325599999999,2.2323155,0.1436755,-0.5364444,0.12262683
0.021337125,8.504644,2.4883897,0.030281462000000002,-0.20266764,0.268484
-0.79597634,9.177435000000001,2.6776464,-0.13524556,0.35412732,0.5123065
-1.5298374,10.33575,2.767266,-0.26300368,0.8321555,0.8620356
-2.0044831999999997,11.586749000000001,2.693927,-0.357234,1.0812838,1.186213
-2.8036678,12.197366,2.4126467999999996,-0.4456,1.1158762,1.5077375
-3.7032843,11.598577,2.674649,-0.50628513,0.9263684000000001,1.7675123
-3.574476,11.643931,2.9275436000000004,-0.5382071999999999,0.6490355999999999,1.9250982
-2.7221978,11.84356,2.6663744,-0.5627116,0.46111599999999997,1.9809835999999998
-2.1700566,11.161145,2.471764,-0.59039253,0.41427135,1.9820483
-1.8536675999999999,10.960378,2.4280367000000003,-0.6531895000000001,0.5202127999999999,1.9261628
-2.1044075,10.141206,2.2387509999999997,-0.7181506,0.69055694,1.887818
-2.785893,9.554953,2.178331,-0.7868119,0.7608239,1.8628074000000001
-3.1555386000000003,9.876379,1.9307225,-0.82833326,0.8066039,1.8255446
-3.383007,10.724788,1.7119308000000002,-0.8863655,0.8550368,1.7611245
-3.2421607999999997,11.758068,1.6953534,-0.9401216,0.79702204,1.6791638
-2.6340625,11.894691,1.6825299999999999,-0.9726021999999999,0.6788458,1.571634
-1.9216055,10.936561,1.7507552,-0.9944188,0.46005133,1.4263005
-1.2607291,9.751842,1.7294468,-0.98642516,0.24872687,1.3118593
-0.7820708000000001,8.518906,1.7655323,-0.95822066,0.051225413,1.1239396000000001
-0.59206694,7.623138000000001,1.7669686999999998,-0.8528201999999999,-0.0072954763,0.9216559999999999
-0.51777965,7.1293006,1.5943755,-0.71708596,-0.024870941,0.7412064
-0.027791892999999998,7.23137,1.5130493999999999,-0.57121134,-0.16060519,0.5468989000000001
-0.27026707,7.300984,1.3965187,-0.40460223,-0.16488126,0.31426397
-0.115122795,7.5081880000000005,1.4808712,-0.2880317,0.09861110000000001,0.0044505894
-0.017238252,7.647521,1.5526015,-0.18580775,0.36957347,-0.20099212
-0.09499235,7.667699300000001,1.6127628999999999,-0.08787732599999999,0.23062779999999997,-0.35058429999999996
0.14785632,8.331076,1.9400886000000002,-0.04103269,-0.026476644,-0.47088984
0.6955826,9.372361,2.2290306,0.055309486,-0.24260077,-0.49272390000000005
0.93184245,10.086186999999999,2.9756095,0.22352432,-0.44380233,-0.61620593
0.7883915,10.491553999999999,3.2456085999999997,0.41036183,-0.5912651999999999,-0.7514166
0.61530024,10.959842,3.6454306000000005,0.58657026,-0.6684435999999999,-0.82967716
1.2962973,11.789816,4.0170107,0.7334921,-0.6280044,-0.8887565999999999
1.6511563999999999,11.537322999999999,3.8882604,0.8410218,-0.56623715,-1.0175793
0.35918772,10.038332,4.2892504,0.88360786,-0.5454852,-1.1693008
-0.5613541,9.60549,3.9798336,0.89477795,-0.5561316999999999,-1.2912121
-1.3044665000000002,8.674184,3.4332757000000007,0.8953190000000001,-0.5034228000000001,-1.3880778999999999
-1.9603244,7.9282455,3.601885,0.85966194,-0.37140608,-1.484961
-1.4824418,8.621329,3.9871407,0.8575325999999999,-0.23460716,-1.5179652
-1.3826513999999999,9.657262,4.4810066,0.8862781999999999,-0.14676474,-1.5248941
-1.3530879,10.5864315,4.6807027,0.91500634,-0.16753416,-1.5738682
-1.1367478000000002,11.09383,4.2285624,0.88467246,-0.27239352,-1.6414647
-0.7190075,11.068576,3.6322339,0.80002403,-0.20320868,-1.6755335
-0.60681516,10.342128,3.229079,0.74998546,-0.21118484,-1.6180598999999998
-0.5748095,9.082691,3.198529,0.72977453,-0.3527834,-1.506795
-0.21559308,7.5810960000000005,2.816491,0.6813241999999999,-0.63917446,-1.4402457
-0.09014648,6.568224000000001,2.6985620999999997,0.5924345999999999,-0.77438515,-1.2981235
-0.023702597000000002,5.9519470000000005,2.8114536,0.49288097,-0.7717148,-1.0505835
0.08567411,5.986931299999999,2.9394286,0.38481018,-0.6753726,-0.7695331
0.3173179,6.94805,3.025361,0.30124384,-0.55293775,-0.5214694999999999
0.37245159999999994,7.930496000000001,2.699539,0.21713641,-0.36768850000000003,-0.31545082
0.055918977,8.204278,2.7245727000000004,0.1356819,-0.20001473,-0.13074261
-0.5833233,8.27663,2.8517816000000002,0.136764,-0.2878397,0.0773879
-0.6371737,8.5149975,3.0495424,0.15325736,-0.4805415,0.26902506
-0.92091537,8.684526,2.8771122000000005,0.0782082,-0.42144465,0.40955895
-1.1804947000000001,8.99944,2.8962752999999997,0.0042062434,-0.23408356,0.56180406
-1.4105678999999998,9.53058,2.6066152999999996,-0.12992232,0.12096877,0.7119198
-1.5608375,10.170684,2.515875,-0.25075147,0.49307296,0.90516263
-1.2508841999999998,11.582966,2.5399990000000003,-0.33220598,0.7954338000000001,1.1191574
-1.2043504999999999,12.51726,2.533008,-0.3854385,0.9647133,1.398096
-1.6299341999999999,12.03388,2.6300116,-0.43654174,1.0174048,1.6977865
-2.0201986,11.475332,3.1218474,-0.4706106,0.8651597,1.9426561999999998
-1.2559408,11.973517,2.6753478,-0.49509755,0.7421838000000001,2.0336925999999997
-0.763463,11.259872999999999,2.4249814,-0.5286253000000001,0.61231387,1.9948240000000002
-0.41623676,10.932949,2.0572705,-0.5387482,0.40629518,1.9479794999999998
-0.5298081,10.614032,1.6178386999999999,-0.5653645,0.28333676,1.8750596000000002
-0.92575157,10.1307,1.8809711,-0.62125,0.37861428,1.7451721000000002
-1.2125673000000001,10.250017,1.8787203999999997,-0.6585302,0.531924,1.6152673
-1.5856415000000001,11.042077,1.4901031999999999,-0.6995104999999999,0.45687485,1.5194662
-1.6287563,12.462213,1.0212132,-0.7766890000000001,0.24181537,1.4710158000000002
-1.4752783999999999,13.389535,0.7743423,-0.90765846,0.23914501,1.440141
-0.98687077,12.709197999999999,0.9958826,-0.9981538000000001,0.43130577,1.4364233999999998
-0.96293837,10.800464,1.4255556,-0.96460855,0.6069732,1.344846
-1.0941215,9.134875,1.8315738000000001,-0.90924674,0.7241022,1.0861533
-0.50389326,7.9719253,1.5784493999999998,-0.8283507,0.6681993,0.76195836
0.09018479,7.274322,1.4920857,-0.73197365,0.43345252,0.43778095
-0.16441461,7.008613599999999,1.4180857,-0.5744228,0.12629202,0.22856832
-0.4840597,7.0029535,1.265077,-0.38437387,0.01823869,-0.015219271000000001
-0.47903190000000007,6.845041999999999,0.8231457,-0.23904029999999998,-0.008901179,-0.32396802
-0.19230227,6.5131,0.5571595,-0.124599054,0.065065876,-0.58161354
0.5020545,6.496676,0.6288323,-0.03890339,0.14864969,-0.79934335
1.3287628,7.328172,1.3480313999999998,0.006876597,0.14226179,-0.84936446
2.1835504,8.338832,1.7940901999999999,0.020699605,0.13000958,-0.8051902
2.2423037999999997,9.299577000000001,2.4096875,0.1399405,0.043249257,-0.8600110000000001
2.05479,10.184236,2.878587,0.29326767,-0.07065093,-0.93666583
1.8158296000000003,10.952630000000001,3.4318774,0.44177774,-0.27132890000000004,-0.97979295
2.5790055,11.764571,3.4541147000000003,0.60466933,-0.5103517,-1.043672
2.5462238999999998,11.405134,3.7663667000000003,0.75372046,-0.6567324999999999,-1.138426
2.1764922,10.234274000000001,4.3401513,0.8255931000000001,-0.6716376000000001,-1.2518023999999999
1.3543041,9.766408,4.3761983,0.84421575,-0.59393555,-1.351356
0.101236425,10.009583000000001,3.7695366999999997,0.8580561999999999,-0.55452603,-1.4125648000000002
-0.76004416,9.291791,3.6782506,0.8223816999999999,-0.36184165,-1.4881723999999998
-0.929975,9.325464,4.0143194,0.79363614,-0.05681047,-1.5435169
-1.6546998,9.645205,4.4194474,0.7893775,0.07838274,-1.5589629999999999
-2.0641084,9.768189,4.724698,0.8026944,0.030473447999999997,-1.5680038
-1.8095376,10.446361999999999,4.5594606,0.8820196,-0.15369369,-1.6164541000000001
-1.0561016,11.436221000000002,3.9831182999999997,1.072051,-0.34906584,-1.5674801999999999
-0.6416651999999999,11.579365,3.4525826,1.1790397,-0.57903045,-1.4216229999999999
-0.53931785,10.5529995,3.3237267,1.0023252,-0.6168168,-1.3678495000000002
-0.6461376,8.733731,3.230439,0.81068796,-0.65301496,-1.2560611000000002
-0.18184441,7.1584716,2.8293908,0.76649624,-0.802066,-1.1613246000000002
0.13114479,5.8331947,2.7207804,0.6568371999999999,-0.8643394,-1.0803937
-0.2731784,5.391541,2.735902,0.5285555000000001,-0.68921304,-0.93401295
0.11844595,5.552326,2.8675737,0.39121556,-0.36182420000000004,-0.7641924
0.5292048,5.9590144,2.9612252999999997,0.28314477,-0.15315264,-0.5432861
0.9379812,6.457449400000001,3.0716457000000004,0.20224875,-0.046163958,-0.28775242
1.1945055,7.478634,1.8770349999999998,0.13463470000000002,-0.06852163,-0.06632251
0.6414641,7.9765034,1.1179295,0.12025318,-0.35171875,0.10454522
-0.17999607,8.1902,2.148413,0.09311332,-0.4411494000000001,0.23230332
-0.72108567,9.187510000000001,3.0153246,-0.022392575,-0.10259046,0.40104175
-0.97818464,10.266136,3.3014317,-0.16186184,0.34667474,0.6384588999999999
-0.9129283000000001,10.733599,3.246327,-0.28269097,0.75656533,0.93762577
-1.2773545,11.352864,3.0944195,-0.41472512,1.1031004,1.2468982
-1.9446951000000001,12.276844,2.8802917000000003,-0.51958454,1.2377875,1.5301127
-2.4510112,12.879980999999999,2.5294263,-0.6031683000000001,1.2191473999999998,1.7595363000000002
-2.4765813,12.531903,2.7111080000000003,-0.63615507,0.9971764000000001,1.9053933999999997
-2.0367954,12.864333,3.0054893,-0.6606595000000001,0.7938281,1.9714017
-0.97371227,12.672988,2.452084,-0.7293206999999999,0.7459188,1.9570203000000002
-0.82680404,10.856862,1.7892921999999998,-0.7687128000000001,0.6783222,1.9272275
-0.9349837,9.857598,1.2769715,-0.82246894,0.54949945,1.8548311999999998
-1.2494763999999998,9.448306,1.044504,-0.8490851999999999,0.464851,1.7962754
-1.6578313999999998,9.902063,0.82461095,-0.88050115,0.5101074000000001,1.6844871
-2.3685741,11.151799,0.87553084,-0.9071174000000001,0.50211376,1.5673754
-2.6895409,12.452636,1.0608037000000001,-0.9268221999999999,0.38978437,1.5114726
-2.7033505,13.225225,1.4831121999999999,-0.93479836,0.17687167,1.3991606
-2.1154592,12.944549,1.4528208,-0.9523738000000002,0.11458086,1.2649971000000002
-1.5816385,11.201053,1.6425851999999999,-0.99016017,0.13747959,1.122875
-1.2626349,9.413034,1.7437642,-0.9465094999999999,0.32805207,1.0403733
-0.96962297,7.8430696,1.7831248,-0.88901836,0.35519195,0.8875871999999999
-0.5746563,6.9921994000000005,1.8304726000000002,-0.8107578000000001,0.3514744,0.68797386
0.07433517,6.453369599999999,1.5868768999999998,-0.6819351,0.41003019999999996,0.48462558
0.11415554,6.4901447,1.4069958,-0.5632351999999999,0.47336819999999996,0.24933773
0.21667525,6.6756473,1.381148,-0.46794020000000003,0.54949945,0.02576106
0.8307689,7.158500699999999,1.3842317,-0.34445820000000005,0.53351223,-0.21856758
1.4098305,7.4169206999999995,1.3032119,-0.20071286,0.42599997,-0.41924554
1.587825,7.7250834,1.6900669999999998,-0.11021754,0.27640778,-0.61620593
2.0167990000000002,8.109095,1.9868714,-0.028239427,0.18380062,-0.7657807
2.2778914,8.713830999999999,2.3260818,0.12397074,0.041119955,-0.82754785
2.601147,9.614836,3.0281192999999997,0.3363773,-0.17392206,-0.9111142
2.5356607,10.275780000000001,3.4437910000000005,0.52162653,-0.40388665,-0.92284286
2.1686103,10.95919,3.5901916,0.6669601,-0.5523967,-0.89675015
2.0855987000000002,11.230989,3.8554597000000004,0.7606494,-0.5976531,-0.92708397
1.4478695,10.663428999999999,4.2590933,0.82079345,-0.6402391,-1.021838
0.7781347,10.163950999999999,4.317416000000001,0.8341103000000001,-0.73712236,-1.1421435
0.31413844,10.00264,3.9551828,0.80215335,-0.7887666,-1.2496907
-0.6973639,9.890486,3.7299461000000003,0.7877893,-0.87020373,-1.3769076999999998
-1.3372382999999999,9.199643,3.93534,0.78565997,-0.9010786,-1.509448
-1.5870875,9.413331,4.2498517,0.79204786,-0.82496476,-1.605284
-2.3143599999999998,9.647695,4.2050032999999996,0.82398736,-0.7467041999999999,-1.6308182
-2.5234501,9.768429,4.052933,0.83569854,-0.6721786,-1.6963028999999998
-1.9799569,10.463207,3.421611,0.82344633,-0.5273861,-1.7415593999999996
-1.6019317,10.963835000000001,3.115929,0.7845953,-0.28729865,-1.73196
-1.2705263,10.539142,2.939007,0.7696901999999999,-0.31977922,-1.6776803
-1.1432216999999998,9.177464,2.8883362,0.7590437,-0.45924848,-1.5749327
-0.8481412,7.8890667,3.0329366,0.7036818,-0.63439226,-1.4929546
-0.34540668,7.0962415,3.0705732999999995,0.6147922,-0.79194313,-1.3380391999999999
0.098928414,6.591544,3.14668,0.49820423,-0.6636614000000001,-1.2241216000000001
0.6153769,6.6058035,3.2374587000000004,0.41196752,-0.49970523,-1.0282258
1.1960378999999999,6.903642,3.1569848,0.35979962,-0.33255503,-0.78230894
1.4168694,7.2568927,3.0347846,0.30976105,-0.022200587999999997,-0.45492005
1.2808691,7.405831,3.0635629,0.25918138,0.16194909999999998,-0.15522958
0.50677586,7.364641000000001,3.3011922999999994,0.23577653,-0.0371057,0.035342917
0.49862602,7.72289,2.9465249,0.24109977,-0.5247158000000001,0.08751081
-0.03124912,8.395719,2.7397997000000003,0.16392133,-0.7429691999999999,0.047054075
-0.24420857,9.651860000000001,2.291136,0.089919366,-0.58168334,0.06993534400000001
-0.051302955,10.088132,2.3451494999999998,-0.0074874623999999996,-0.14517649,0.21526891
-0.30866048,10.566616999999999,2.8717492,-0.19167206,0.48827332,0.48727846
-0.48125368,11.520305,3.0227947,-0.39980257,0.9428791999999999,0.8540594000000001
-1.2799401000000001,12.063329,2.5351912999999997,-0.51426125,1.0291158999999999,1.1606789
-2.2882439999999997,11.972522,2.1015919999999997,-0.5557826,0.8965755999999999,1.3927728000000001
-2.5402482,12.026036999999999,2.547919,-0.55152404,0.6570292,1.6195433000000001
-1.6650428,12.791252,3.1205354,-0.5419421999999999,0.5260597,1.8079866000000002
-0.67165977,12.1210575,2.8358457,-0.5690821,0.59847337,1.8697363
-0.6291962,10.044566,3.0648560000000002,-0.62285566,0.74485415,1.8643956000000002
-0.5547653,9.788780000000001,2.7165952,-0.6941873000000001,0.8369552,1.8298032
-1.439825,10.176362,1.7168245,-0.75539595,0.8097979000000001,1.8037279999999998
-2.4496706,9.993628,1.4381681999999998,-0.81981605,0.7283608,1.7664651999999998
-2.604269,10.308235,1.7103697,-0.8789129000000001,0.7123735999999999,1.6706291000000002
-2.3656243999999997,11.324391,1.9561968999999997,-0.9443802,0.6511649,1.581216
-2.104781,12.457194,1.8801283,-0.95982635,0.39884263,1.4939146
-1.4552341999999998,12.530141,1.3976583,-0.97631973,0.10232865,1.3789148
-0.85888636,11.173059,1.2949471000000001,-0.9678025,-0.07916813,1.2357280000000002
-0.74780494,9.480799000000001,1.4650886,-0.94596845,-0.10365511,1.1175518
-0.6725696,8.259201,1.5697153,-0.897012,-0.08929104,1.010022
-0.75524616,7.4886800000000004,1.5057805,-0.81290454,-0.19202112,0.82796675
-0.5754895000000001,7.121581599999999,1.264512,-0.6808704000000001,-0.47734755,0.61770695
-0.38964197,7.244317999999999,1.1519654,-0.5115909000000001,-0.5955238,0.4276755
-0.40456262,7.327914,1.1584872,-0.38276815,-0.39430478,0.13487904
-0.27562052,7.5569243,1.4256035,-0.30826005,-0.10206685,-0.11210250000000001
0.09495404,7.705317,1.1882998,-0.25288075,0.26310837,-0.40540507
0.54062986,7.9012485,1.2340864,-0.14854497,0.38074356,-0.71788883
0.9489945,8.479458000000001,1.546434,0.020176006,0.22797489999999998,-0.9329483000000001
1.172048,9.029875,1.8496453000000002,0.21872467,0.024609142999999997,-1.0580535
1.0202748,9.250813,2.3958395,0.41942006,0.026738444,-1.0809348
0.99734783,9.761343,3.5204725,0.60254,0.117774814,-0.9654113999999999
1.7887464,10.57811,4.258414,0.7318864,0.17366026,-0.8605520000000001
2.4661042999999996,11.285271,4.2189665000000005,0.81920516,0.17900097,-0.85309947
2.3058653,11.170847,4.2021112,0.88945466,0.20772909,-0.93240726
2.0435564999999998,10.804955999999999,4.4743699999999995,0.9458812,0.18697712,-1.0639003999999999
1.2817406999999998,10.621215,4.646973,0.9714328000000001,0.11723377,-1.2070872
0.36085406,9.979444500000001,5.047935,0.9900728999999999,0.045919612,-1.3007765
-0.16511372,9.244271000000001,5.2123685,1.0177538000000002,0.061348322999999996,-1.3183519
-1.0994654,8.216153,5.380729,1.0326589,0.10499900599999999,-1.3311278
-1.8270727,8.058662,4.8751307,1.0342472,-0.039252456,-1.3481622
-1.8384788,9.163242,4.2939243,1.011907,-0.22767820000000003,-1.4194937
-1.3687843000000002,10.680475999999999,3.5778184,0.99113756,-0.25642377,-1.4844375
-0.9967924000000001,10.814399,3.388332,0.9325818000000001,-0.24790657,-1.5312821
-0.8866111999999999,9.752282000000001,3.3496127,0.8782846,-0.3314904,-1.5781266999999999
-1.0206673000000002,8.276593,3.3271744,0.8128173000000001,-0.5518731,-1.552034
-0.9958826,7.137048200000001,3.1523783,0.7510675,-0.7158293000000001,-1.5328703000000001
-0.80115736,6.5547495,2.8959785,0.676542,-0.847305,-1.5387347
-0.5116313,6.4609255999999995,2.6937257999999997,0.5977578,-0.7429691999999999,-1.4237523
-0.6177806,6.936787599999999,2.9474251000000002,0.49713957,-0.39962804,-1.2182747
-0.24915978,7.205091499999999,3.1918347000000002,0.4018446,-0.09567895,-0.9840515
-0.090213515,7.3028803,3.0643485,0.30976105,0.12096877,-0.7184124
-0.11818737,7.403867699999999,2.9698729999999998,0.29487340000000006,0.11831587,-0.45970228
-0.41291359999999994,8.023679,3.1670692000000003,0.30976105,0.012897983,-0.24092525
-0.7224264,8.37125,3.4956205000000002,0.21500711,0.023020892999999997,-0.11369075
-0.2718281,8.514069000000001,3.4525154000000002,0.059044488,0.25298548,0.020437805
-0.123674884,8.863717999999999,3.2506267999999996,-0.1847431,0.65542346,0.272219
-0.28372246,9.852637,2.8528542999999997,-0.37425095,0.97056013,0.5964139
-0.78814244,10.643539,2.3809855,-0.51584953,1.0993829,0.93816686
-1.4369903,11.169113000000001,2.5232875,-0.60208625,0.97268945,1.267144
-2.1295178,11.676530999999999,2.3330443,-0.6760881999999999,0.6394536999999999,1.5726987
-2.3428702,11.6243,2.8274086,-0.72719145,0.33231068,1.8101158
-2.14373,12.337877,2.737894,-0.75913095,0.20081758,1.9155163
-1.7520480999999999,12.440808,2.2087374,-0.7836179,0.15769049999999998,1.9165808999999998
-2.0047033,11.97279,1.6573622,-0.80916953,0.10499900599999999,1.9112401999999997
-2.8366501,10.709896,1.0117705,-0.847497,0.025691247,1.9128459999999998
-3.4597557,9.5356655,0.9936128000000001,-0.89062405,0.052290063,1.8841003
-3.7027671000000004,9.109467500000001,1.1588607,-0.94331557,0.17952457,1.8457729999999999
-3.9498007000000004,9.898893,1.0570976,-0.9880309000000002,0.20614083,1.8122451000000002
-3.953306,11.517892,0.7409863,-1.0220996999999998,0.038990654,1.7818938000000002
-3.1370265,12.519683,0.5437135999999999,-1.0322052,-0.18350391,1.7201442
-2.2065825,12.164153,0.726985,-1.0492396000000002,-0.31764993,1.5945153
-1.6312653999999998,10.960339,1.2058349,-1.0407224,-0.27878144,1.5029553
-1.5189773000000002,9.629538,1.5572654,-0.9976127,-0.0136833815,1.3970313
-1.165373,8.56834,1.5201648,-0.9161582,0.17580701,1.218711
-0.6177902,7.852924300000001,1.3489603000000001,-0.8629256999999999,0.25937337,0.99511695
-0.54799443,7.550095599999999,1.1140507,-0.7394261999999999,0.23116885,0.77953386
-0.4933971,7.4914570000000005,1.1734749,-0.57868135,0.12362167,0.60491365
-0.55290735,7.215846000000001,1.3461638999999999,-0.45251152,0.062412973,0.3110875
0.023022644,7.3011756,1.2797295,-0.36147514,0.1699427,-0.014678219
0.6348560999999999,7.878446,1.3764265,-0.26939157,0.28279570000000004,-0.29309314
1.0284532,8.214324000000001,1.8497027,-0.17729054,0.19549432,-0.4900361
1.5140548,8.104909,2.0885675,-0.03249803,0.11831587,-0.6082298
1.7749845000000002,8.652319,2.3309371,0.1303761,0.004921828400000001,-0.66411525
1.6281433,9.707052000000001,2.6999795,0.31295500000000004,-0.046163958,-0.6694385
1.3269144,10.7270775,3.4583287000000005,0.46148249999999996,-0.06319837,-0.6651799
1.3567941000000001,11.655654,3.6777716000000003,0.60254,-0.10578441,-0.74556977
1.9657639999999998,11.527621,3.7437174,0.7063522,-0.13505358,-0.9398598
2.006523,10.757991,4.0127489999999995,0.7963064999999999,-0.08449139,-1.1634365
1.3385694,10.2671995,4.2505794,0.8655088,0.005986479,-1.351356
0.3322673,9.745799,4.0500317,0.95919806,0.04059636,-1.5147712
-0.6218795,9.010856,4.126991,1.0198832,-0.001972222,-1.6100662000000001
-1.4265037,8.821905000000001,4.2515182000000005,1.0129716,0.025150195,-1.6659517
-2.1664653,8.782057,4.816301,1.0023252,0.08477064,-1.7000206000000002
-2.1500983,9.284945,4.571489,1.0385233,0.08744099999999999,-1.6744689
-1.6566248,10.3186655,3.973532,1.047564,-0.07810348,-1.6755335
-0.7179061999999999,11.223261,3.7245063999999997,1.0672513000000001,-0.16913986,-1.6542404999999998
0.09926360000000001,10.9592285,3.7673147000000005,1.0433055,-0.46722463,-1.6542404999999998
0.41967484,9.667107000000001,3.4034152,1.0188184999999998,-0.7190233,-1.6217774
0.25458983,8.219111999999999,2.8683686,0.95281017,-0.70837677,-1.5733271
0.13125972,7.0457716,2.1080277,0.8857546000000001,-0.624793,-1.4753792
0.11216356,6.099229,1.944877,0.7771602,-0.51248103,-1.3300456
0.17161638,5.7616559999999994,2.3847876,0.6616369000000001,-0.38524652,-1.2038932
0.14139198,5.8627105,2.6570754,0.5365491,-0.26122344,-1.0244908000000001
0.15034628,6.2039800000000005,2.6487916,0.43647194,-0.2378011,-0.7641924
0.16539145,6.882515400000001,2.3850653,0.33691835,-0.25322983,-0.49218285
-0.5349221,7.664213,2.530432,0.29272664,-0.33681363,-0.23134339
-0.18814595,8.585137,3.020927,0.22458896,-0.39802232,-0.022671826000000003
-0.16434757,8.902723,2.9809248,0.08937831,-0.14837044,0.13913764
-0.7957273,9.494504,3.051343,-0.035691983999999996,0.20507619,0.3451563
-0.9637524,10.38304,2.9057562000000003,-0.22202334,0.58515656,0.6081251
-1.0694706,11.462297,2.8291707,-0.39660862,0.8859290999999999,0.8854579
-1.6261035,12.166193,2.5900282999999997,-0.5201081,0.9684308,1.2133703000000002
-2.2125776000000004,12.697887,2.3417783,-0.60369194,0.93701494,1.5189252
-2.4593142999999995,12.815999,2.098604,-0.7053574,0.761365,1.7888229
-2.2793472,12.53921,2.3265991,-0.8006523,0.56599283,1.937874
-1.6185857,12.726245,2.0683796,-0.8538849000000001,0.41587704,1.9825892
-1.1166652,12.423761,1.843564,-0.8858244000000001,0.40097195,1.9719427999999999
-1.7627358,11.135605,1.7996543999999999,-0.907641,0.37009707,1.9836539
-2.4257574,9.407623,1.4320487,-0.9454449,0.4169417,1.945309
-2.7387083,8.864253999999999,1.6205393,-1.0087829,0.57770395,1.8580252
-2.9260592,9.636786,1.5107509,-1.0827848,0.5361826,1.8479023
-3.1066492,11.054699000000001,1.0435846,-1.1269591,0.28918362,1.8143744
-2.8513312,12.238355,0.4857165,-1.1482695,0.16407839999999999,1.7334610000000001
-2.1680547999999997,12.38805,0.48847460000000004,-1.1668922,0.053895768,1.5902566999999999
-1.5023041000000001,11.498394000000001,0.88351786,-1.182862,0.024626596,1.4555871
-1.0016286,9.935228,1.2944491000000002,-1.1509223999999998,0.18645352,1.3214412
-0.9278202,8.634507000000001,1.4770309,-1.0726794,0.32431707,1.1164871
-0.46681187,7.660344,1.3394601000000002,-0.9598089,0.3498687,0.94933695
-0.37186740000000007,7.1482149999999995,1.1363264,-0.7937234000000001,0.16196655,0.7321482
-0.6040091999999999,6.8633622999999995,0.95733595,-0.57972854,-0.041364305,0.46120325
-0.42120713,6.9102507,1.1022617000000001,-0.41099012,0.0027925267,0.14126694
0.41954073,6.9286857,1.0733972,-0.28588492,0.15344934,-0.13391912
0.68768173,7.347077400000001,1.0147489,-0.17570229,0.25031513,-0.35538393
0.9241139000000002,7.778732300000001,1.4257183999999998,-0.09426523,0.32909927,-0.5267927
1.3677883,7.8367777,1.6841197,0.001012291,0.2870543,-0.58267814
1.7148519,8.873505,1.9706674,0.14580481,0.10606366,-0.60343015
1.7058113000000001,9.956,2.6679356,0.32147220000000004,-0.06319837,-0.6108826999999999
1.4037110000000002,10.517805000000001,3.2645897999999995,0.4950103,-0.18563321,-0.6327168000000001
1.7763634999999998,11.14838,3.9377532,0.6429967,-0.2942276,-0.7189535
2.28403,11.403075,4.011369999999999,0.7872482,-0.4108156,-0.9004677
1.917545,11.015808999999999,4.3405538,0.8953190000000001,-0.49864057,-1.0926459
1.4177889,10.421145,4.507008,1.0049781,-0.6019116999999999,-1.2523435
0.42442492,9.816083,4.2405047,1.0534284,-0.6482153,-1.3896834999999998
-1.0010731,9.166872,4.1047344,1.0592926999999999,-0.6152111,-1.4998661
-1.7476715,8.599052,4.119482499999999,1.0544931,-0.5646489,-1.5845146
-2.3837342,8.689324000000001,4.1680274,1.0592926999999999,-0.48692942,-1.6675400000000002
-2.4596686,9.184569,4.0646553,1.0960143999999998,-0.3442662,-1.7394125
-1.9790088,10.221200999999999,3.8880496,1.1039906000000002,-0.33468434,-1.7612467
-1.1876965,11.3215,3.4922879,1.0821565,-0.29263934,-1.8410953999999997
-0.76530176,11.207268,3.3050327000000004,1.0912148000000002,-0.20053834,-1.8709056
-0.44207498,10.294378,3.0972352,1.0656806,-0.36342990000000003,-1.771352
-0.13109691,8.968392,2.6947508,1.0326589,-0.6333101999999999,-1.6643633999999998
0.16422309,7.600096000000001,2.421783,0.9650449000000001,-0.671114,-1.5685448999999998
0.31342018,6.6866508,2.3640444,0.835175,-0.5247158000000001,-1.4966722
0.6726845,6.31645,2.3933399,0.67387164,-0.35491269999999997,-1.2848066999999999
1.0119429,6.316008999999999,2.3913286,0.54717815,-0.18243927,-1.071353
0.8449424999999999,6.825208,2.4260926,0.47106436,-0.05094616,-0.8365886999999999
1.1654686,7.112196400000001,2.5933707000000004,0.33372440000000003,0.07572984,-0.57841957
0.7696975,7.4647765,2.5447778999999997,0.22724187,-0.038187806,-0.33941418
-0.26697266,7.739171000000001,2.6968095,0.17029178,-0.38685223,-0.17917550000000002
-0.19325039,8.157897,2.9483924,0.08937831,-0.5944590999999999,-0.060999255999999995
0.0026719290000000004,8.80756,2.7473943,-0.03249803,-0.44486699,0.059288833
-0.6357564,9.961182,2.5749447,-0.15601498,-0.0946143,0.23708552
-1.2635735000000001,10.909563,2.3893560000000003,-0.34924040000000006,0.48720866,0.5000543
-1.45623,11.575678,2.3857837,-0.51052624,0.94235563,0.8189259
-2.0190398999999997,12.585322,2.078263,-0.62711424,1.1781671,1.1819719
-2.6901443,13.173882999999998,1.5499678999999997,-0.7165449,1.1611327,1.5290481000000002
-3.0970723999999996,12.950084,1.7945977,-0.78948224,1.0040879,1.7925403999999998
-2.4725018,12.876438,2.10752,-0.8310036,0.7453778,1.9245571
-1.5292531999999999,12.323703,2.1278515,-0.872525,0.49146727,1.945309
-0.9448669,11.020539,2.0701416,-0.92254615,0.40310124,1.9032639999999998
-0.9374832000000001,10.206099,1.7498933,-0.96195567,0.36583847,1.8638720000000002
-1.3265219,9.833416999999999,1.3534997,-0.98696625,0.45207518,1.8452493000000003
-2.0345926,9.7602415,1.2379267,-1.0423281,0.6309365,1.7973400000000002
-2.651655,10.517392,1.0775632,-1.091302,0.7219554,1.7254673999999999
-2.8532752999999995,11.646106,0.811462,-1.1120714,0.39458403,1.7281377
-2.488725,12.311914,0.69244146,-1.1142007,0.062412973,1.6956571
-2.1643488,12.20859,0.7530339,-1.1109893,-0.033911746,1.6003797
-1.6169288999999998,10.939835,1.0115885,-1.1072718000000001,0.019285886999999998,1.5056257
-1.0604781,9.178727,1.2847191,-1.0961016000000001,0.17526597,1.3363287
-0.8783943000000001,7.965911,1.4119661000000001,-1.0359402,0.28333676,1.1324569
-0.5141595999999999,7.318538,1.4042758999999998,-0.9470331,0.2998301,0.95307195
-0.15959749,6.9591208,1.3189082,-0.80436987,0.18058921,0.78857464
-0.41848729999999995,6.939335000000001,1.207281,-0.66650635,-0.027541295,0.55913365
-0.7866964,7.1315603,1.3610463,-0.52970743,0.040055305,0.22591542
0.07748595,7.632264999999999,1.061273,-0.4333478,0.30728266,-0.02480113
0.63174367,8.296119000000001,0.9271976999999999,-0.3375292,0.45420447,-0.15149458
0.9987652,8.692024,1.1060542,-0.27630308,0.41374776,-0.28616420000000004
1.3519291000000002,8.3255205,1.8175055,-0.16877334,0.2955715,-0.35856044
1.537202,9.002533,2.312339,-0.027174776,0.17580701,-0.44479716
1.5490581,10.158311,3.1217995,0.13622294,0.07358308,-0.5262517
1.1541393,10.815489999999999,3.3544395,0.29804987,-0.10206685,-0.5603205
1.3119076,11.049278999999999,3.7865542999999997,0.4620061,-0.32882002,-0.63856363
1.9162519,11.188661,4.131578,0.63235027,-0.4895823,-0.7748389
1.5401323999999998,10.288592999999999,4.4824532999999995,0.7867246,-0.5151514,-0.95743525
0.76310873,9.714521000000001,4.5635977,0.8958425999999999,-0.51302207,-1.1309733
0.21702002,9.513696000000001,4.254104,0.9613273999999999,-0.52312756,-1.2560786
-0.6358617,9.09902,4.175641000000001,1.0055015999999999,-0.5199335999999999,-1.3470975
-0.8431421,8.889183000000001,4.2700586,1.0278593,-0.5257979,-1.3923538999999998
-1.5132025,8.718332,4.410847,1.0092367,-0.5161986,-1.442916
-1.9863830000000002,8.757023,4.4915414,0.94694585,-0.40814525,-1.5318232
-1.7114807,9.777460000000001,4.384492400000001,0.9091594999999999,-0.24364796,-1.6132601
-0.88354665,10.8883705,4.1512012,0.89797187,-0.17126916,-1.6782039
-0.31111217,10.994576,4.143961,0.9102241,-0.17446311,-1.738889
-0.24784777,10.103043,3.9543593,0.89212507,-0.19840904,-1.8032917000000002
-0.29008147,8.626347,3.5949129999999996,0.8718966999999999,-0.469895,-1.7963802
-0.21734563,7.0850463,3.0913357999999995,0.84634507,-0.7046591999999999,-1.8059619999999998
-0.19747375,6.0521684,2.6430838,0.78618354,-0.8371995000000001,-1.7649816000000003
0.036066253,5.5240073,2.4555414,0.74520326,-0.8744622999999999,-1.6127192
0.39077204,5.575521,2.7118356,0.6850592,-0.7616093,-1.375843
0.75241137,5.9350247000000005,2.8049703,0.58709383,-0.51089275,-1.1698419
0.5913391,6.1736026,2.8595867000000004,0.49820423,-0.22502529999999998,-0.91537285
0.6734028000000001,7.042544400000001,2.7941866,0.42102578,-0.18722147,-0.71469486
0.6053978,8.140333,2.7635217,0.36831683,-0.5390973000000001,-0.5656437
-0.43560106,9.146128,3.1261091,0.28900906,-0.81910044,-0.5065469
-0.087407514,10.567680000000001,3.1769812,0.16655678,-0.649821,-0.41233402
-0.31530678,10.971150999999999,3.1701338,0.0042062434,-0.18509217,-0.22228514
-0.8110885,11.290566,3.3790996,-0.17198475,0.26841420000000005,0.06513569
-0.9692398999999999,11.841617,3.2555206,-0.36308083,0.74111915,0.42498767
-1.4092271,12.753069,2.9899077000000003,-0.45783478,1.0594671999999998,0.8322253000000001
-2.0372167,12.938697,2.7723706000000004,-0.52277845,1.0701138000000001,1.2133703000000002
-2.8086572,12.381864,2.8640779999999997,-0.58081067,0.8907113000000001,1.4864446000000002
-2.8033326,12.31879,3.2671373,-0.63297856,0.6538178000000001,1.7004393
-1.8772361000000002,12.045573,3.1134772,-0.6569245,0.45685738,1.8063808999999997
-1.3436548000000001,10.229169,2.7496831000000004,-0.6979221999999999,0.3652974,1.8377968
-1.2029235,8.857224,2.3224905,-0.7580663000000001,0.46645668,1.846314
-1.5968368,8.643527,1.8272258999999997,-0.8288743000000001,0.6011263000000001,1.8553548
-1.8245063000000001,8.98268,1.4621198,-0.88743013,0.61123174,1.8931586999999999
-2.415108,9.92478,1.4246936000000001,-0.9374687,0.5266006999999999,1.8766478
-2.8742104,11.111902,1.1618965,-0.9720610999999999,0.52234215,1.8111631000000001
-2.9138775000000003,12.209375,1.1935573999999998,-0.9891129999999999,0.45420447,1.7462194
-2.5556474,12.275895,1.4498711000000002,-1.0189058000000002,0.37116173,1.6812931
-1.9136950000000001,11.085460000000001,1.6929783,-1.0066535,0.16461946,1.5971857
-1.4010006000000002,9.505278,1.7532451,-0.98110193,-0.04881686,1.5189252
-0.7451139,8.326018,1.6724743999999998,-0.93745124,-0.18189822,1.3496456000000001
-0.810466,7.365982000000001,1.6527462,-0.86346674,-0.106325455,1.2043121
-0.63948166,6.9405035999999996,1.5935518999999998,-0.7751007,0.058677968,1.0094809999999999
-0.3459813,6.9232073000000005,1.3936553,-0.6633124,0.029932396,0.7832514
0.08221689,7.272618,1.3998992000000001,-0.52490777,-0.13824753,0.5522222
-0.15842910000000002,7.566577400000001,1.3378799,-0.37585667,-0.06585127,0.24507913
0.021691468,7.6862974,1.4449486,-0.3008075,0.24499187,-0.016283922
0.109568246,7.9437985,1.5605981000000002,-0.27312657,0.41800636,-0.1940806
0.5406203,8.434485,1.5178089,-0.20018926,0.44355798,-0.29522243
1.0624988000000002,9.243975,1.9416976000000001,-0.060196407,0.2790607,-0.38732347
1.3012103000000002,9.9281225,2.6201377,0.12716469,0.052831117000000004,-0.51560515
1.585335,10.428099000000001,3.0724502,0.29804987,-0.06852163,-0.5310339
1.0459691999999998,10.928688000000001,3.6558406000000003,0.45987680000000003,-0.1531701,-0.56403804
1.1872942,11.295729,4.2487984,0.59454644,-0.2356718,-0.6550744000000001
1.9591944,10.992135000000001,4.3792057,0.69781756,-0.33522537,-0.839259
1.7418008999999999,10.046175999999999,4.2873645,0.80695295,-0.45924848,-1.0394132999999999
