accx,accy,accz,gyrx,gyry,gyrz
3.6555437999999993,8.017386,-0.016232686,-1.1705573999999999,-0.007347836,-1.3529444
2.5748873,7.0640535,0.5158451000000001,-1.0933614999999999,0.7022331999999999,-1.2917181
0.9516377,6.718311999999999,0.7459853,-0.98422605,1.1190352,-1.1139215
-0.421255,7.3128977,0.6901909,-0.9219527,1.1547098,-0.8994030999999999
-1.1322659,7.837716,1.0261166,-0.91502374,0.8310559999999999,-0.68380255
-1.7254245,7.4322057,2.6909966,-0.80431753,0.29234266,-0.52199304
-2.720809,6.860202,4.4639606,-0.47001716,-0.23518312,-0.22814944
-2.1543124,7.380242,4.6981993,-0.094701566,-0.44224897,0.09443977
-0.979851,8.875977,4.052148000000001,0.19697785,-0.378911,0.25837854
-0.5711512,10.062188,3.848411,0.37212166,-0.2857453,0.30150563
-1.026174,10.391563,4.0374284,0.57121134,-0.1468171,0.45108035
-0.9535722,10.39209,3.1330905,0.68458796,-0.0041538836,0.6352824
-0.6362448,9.694908,1.9943221999999998,0.6553188,0.12732176,0.71193725
-1.0739336000000002,9.333862,1.1240106,0.53981286,0.31628856,0.82053167
-2.112117,10.225368,1.5900564,0.5030737,0.8140215999999999,1.0792418
-3.9063220000000003,11.74129,2.9247375,0.7798829,1.5555421,1.5945328
-3.7084172,14.037730999999999,2.8715672000000003,1.0982136,2.3689353,2.0619144
-1.6416658,15.878430999999999,2.267472,1.1887089,2.3865107999999995,1.9485203999999998
-1.0986513,15.695908,1.7543273999999998,1.1152303999999997,1.6178329,1.5359596000000002
-1.4027245000000002,13.806029999999998,1.1944002,0.88315403,0.5861863,1.3203764999999998
0.42547837,11.181641,1.0897832,0.7112217,-0.12658873,1.1569613
1.8332881,8.6179285,1.0384706,0.5877222,0.11454595599999999,0.95094264
1.8165671,6.519507,1.3761966,0.52541393,0.99820614,0.93549645
0.8599973,5.0019374,1.3034226,0.58026963,1.9212584,1.1489677
0.47020206,4.768435500000001,0.32911655,0.6569245,2.3407310000000003,1.4108717
0.43622354,5.188264,-0.66797274,0.52436674,2.2763107000000002,1.4374881000000002
0.04459919,5.727256,-0.12193191,0.45568800000000004,1.7775306,1.324635
-0.32193393,6.196242,-0.15635096,0.42961279999999996,1.1227703000000002,1.2314869
0.23076274,6.6702747,-0.30249299999999996,0.42481315,0.57819265,1.2123232
0.86184555,7.32235,-0.37121618,0.47005206,0.34929276,1.1995299
1.1113405,8.672355,-1.0956441000000001,0.47699848,0.43713516,1.1564202
0.87033063,11.971210000000001,-1.3677404,0.33807027,0.65591216,1.0478258
1.2913748999999999,14.562884,-2.0217788,0.20177752,0.4648161,0.75771725
2.0892093000000003,13.7802105,-0.7794563,0.048467792999999995,-0.5529727,-0.02851868
1.2805436000000001,12.616601,0.19176598,-0.10321877,-1.3999112,-0.5592384
-0.06912539,11.714034,0.815082,-0.31669,-1.4802834999999999,-0.62207025
-0.8105139,11.290633999999999,1.9212223999999998,-0.35873497,-1.1976274,-0.61194736
-0.3975907,11.540453999999999,1.8763933000000002,-0.40186206,-1.0821041,-0.7961319
1.4565365,13.200575,2.7503729999999997,-0.4465774,-1.5361865,-1.2257098
1.7845901000000002,14.240176000000002,4.201125,-0.46945867,-1.6788497,-1.5536222
-0.15182112,12.947211,4.758562,-0.47212902,-1.0751926,-1.5137066000000001
-2.0171723000000004,12.391881,3.2194542999999998,-0.5264262,-0.48589966,-1.2821363000000001
-1.6535316000000002,13.028977000000001,2.1377634999999997,-0.60840434,-0.89153165,-1.3247223999999997
-1.3904566,12.755061,1.2227378999999998,-0.67226595,-1.6612741999999998,-1.4040476
-0.0044915224,11.381058,0.83427393,-0.7760781,-2.119615,-1.3646555
1.4993066000000002,9.710011,0.73705024,-0.8633795,-2.055736,-1.3800842
2.0334911,8.379878,0.652736,-0.91237086,-1.7693449,-1.4157587
1.8777053,7.3103886,0.48733497,-0.9772970999999999,-1.4733721000000002,-1.3476211
1.7007451,6.5845337,0.31566113,-1.0592753000000001,-1.281735,-1.2384856000000002
1.6427193,6.199249,0.15010688,-1.0896266000000001,-1.0656108,-1.1165918
2.0822852,5.75364,0.14168885,-1.1072018999999997,-0.76005596,-1.0085210999999998
2.3411367000000003,5.956372,0.26275885,-1.0688571000000002,-0.5620309,-0.9627411
2.35147,6.3838989999999995,0.694759,-0.99965477,-0.3879518,-0.9196314
1.8084267,6.8543983,1.5106168,-0.8303753,-0.1366942,-0.82220715
0.9475388000000001,7.1073027,1.8585517,-0.58178806,0.12625712,-0.64708084
0.70457524,7.363194999999999,1.3709295,-0.401321,0.27530822,-0.48418924
0.7579851,7.576173299999999,1.3068701999999999,-0.3315951,0.27689648,-0.38570032
0.27336997,7.8871899999999995,2.5889173,-0.16283922,0.24656266,-0.25528932
-0.47416687,8.808316,3.5325870000000004,0.20870647,0.38762018,0.033213615
-0.8273787,10.009247,3.5195627,0.5786639,0.6032206999999999,0.28766516
-0.7504769,10.786549,3.2492764,0.89435905,0.6745523,0.48729593
-0.27946079999999995,11.116106,2.9910857999999996,1.0870608,0.5090077999999999,0.6352824
0.20895635,11.191811,2.6922224,1.1844503,0.32267648,0.7151312
0.25440785,11.022292,2.2831203999999996,1.2121487,0.37857938,0.7646461999999999
0.08046433,10.045544,1.240206,1.1722155,0.5845806,0.83917177
-0.36909014,10.072656,-0.025340231,0.9832486999999999,0.894394,0.9365786
-1.2346611,12.03525,0.17613663,0.88210684,1.5731176000000002,1.2591678
-2.1077784999999998,14.146734,0.9659454,0.99548346,2.3620238,1.620608
-1.7078799,15.018692999999999,0.7528902,1.0439337,2.934806,1.8638895
-0.699059,14.518554,0.9489179,1.0194292999999999,2.8107655,1.7670063000000003
-0.33991918,13.405307999999998,0.7392911999999999,0.86933106,2.2715285,1.5210719
-0.36114138,12.269623,0.25952187,0.62816143,1.74505,1.4199301000000002
0.5127231,10.45635,-0.23970747,0.3146305,1.2723451000000001,1.2304223
0.57309526,8.684192,0.32999763,0.12992232,0.91090477,0.86524695
-0.274998,6.9830437000000005,0.10283575,0.036774087999999996,0.5643522,0.63580596
-1.0762702,5.733299,0.049569555,-0.039880775,0.32854077,0.63580596
-1.0421002000000001,5.1922765,0.15160085,-0.07819075,0.088453285,0.8109498
-0.46804726,5.328344,0.35923558,0.013875367,0.0027576203000000002,0.9349728999999999
0.48662627,5.471431,-0.17245914,0.08787732599999999,0.13316862,0.98874646
1.1858289,6.4902115,-0.43766963,0.119816855,0.30351275,0.92964965
1.6836889,7.354853599999999,-0.46955085,0.18476056,0.3391873,0.8929279
2.1179683,7.956544999999999,-0.94172573,0.14002776,0.47439793,0.70500827
1.4632212,9.322552,-0.67564374,0.022933627,0.5409299,0.50965357
0.017075447,11.698462,-0.8914569999999999,-0.11067133,0.50953144,0.44364524
-0.10536403,13.564570000000002,-1.6205968000000002,-0.25546384,0.07195993,0.28288296
1.6156264999999999,13.882147,-0.9013690999999999,-0.44123667,-1.0288715,-0.3649309
2.0408560000000002,13.015551,-0.3805823,-0.63873816,-1.8055431,-1.0564303
1.0364212,12.030192999999999,0.3763302,-0.7893775,-1.7065306,-1.2555201
-0.21654119,11.067722999999999,1.9568290000000002,-0.7931125,-0.94743454,-1.1405377
-1.4070628,10.767673,3.1688025,-0.5796413,-0.30384436,-1.0894344999999999
-0.23550326,12.340338000000001,2.5817156000000003,-0.40503857,-0.5300914000000001,-1.3529444
0.94480944,13.999951000000001,2.8809524,-0.36351717,-1.4973178999999999,-1.8857933
-0.09549992,12.9468565,3.7976446000000004,-0.32679546,-1.9827987,-1.9991700000000001
-1.0388058,12.146494,3.2044282,-0.23736478,-1.6980133999999998,-1.6616756000000001
-0.40688979999999997,12.323502000000001,1.9244881,-0.21498966,-1.2854524999999999,-1.4082887
0.81797427,12.464224,0.99166876,-0.25811675,-1.2583126,-1.4987841
1.0867473,10.600595,0.30025205,-0.39332740000000005,-1.250319,-1.6052492
0.5553781999999999,8.793424,0.12849201,-0.5737944,-1.2992928999999998,-1.5105126
0.7692762,6.723081,0.40480202,-0.68558276,-1.0171603999999999,-1.3225931
0.694874,6.028571,0.62316287,-0.67067766,-0.8654564,-1.2139986999999999
1.1106893,6.1943269999999995,0.34480333,-0.6823714,-0.6977651999999999,-1.1714126
1.6023339,6.5479693,0.14531846,-0.74626786,-0.54925513,-1.1155271999999998
1.8707813999999998,7.094594,0.36188838,-0.79843575,-0.36400586,-1.0888934
1.8066741999999998,7.3904505,0.59858876,-0.76276124,-0.1510757,-1.0415252000000002
1.6855276000000001,7.959064,0.6153194000000001,-0.71750486,0.09325294,-0.9323898000000002
1.3315976,8.077998,0.63071895,-0.68558276,0.28701940000000004,-0.8206189
0.6458024,7.6931734,0.9224859000000001,-0.6184923000000001,0.407866,-0.672615
-0.1346499,7.158807,1.7517224999999998,-0.48541096,0.4648161,-0.48097783
-1.2066681000000001,6.8843255,2.900518,-0.23736478,0.52496016,-0.18980455
-2.0227939999999998,7.469162,3.6499029999999997,0.14269812,0.64793605,0.19504054
-2.6406702999999996,8.515448,3.7421949999999997,0.5706878000000001,0.869907,0.5554336
-3.0722682,9.702703,3.5700612,0.9571559999999999,0.9822364,0.91580915
-2.8711267000000005,11.056768,2.6077838,1.1945732,0.8858768,1.2453273999999999
-1.8117115000000001,12.373934,1.2860885,1.1573103999999999,0.44298202,1.4060895
-0.40231207,12.735161,0.1968321,0.9033999,-0.115942225,1.242657
-0.05305551,13.556726000000001,-0.49257349999999994,0.5898515000000001,-0.023317598,1.1388623
-0.84651315,14.331375,0.461966,0.4908564,0.91409874,1.2825902
-2.0810783,14.142626000000002,1.9388628,0.6771703,2.1517642,1.5599403
-2.6930459,14.136219,1.0749104,0.8448614999999999,3.2840116000000004,1.9368268
-1.8927984,14.196247,0.0750247,0.78733546,3.5480449999999997,2.0502032999999997
-1.6755965,12.905944,-0.05545929,0.6941873000000001,2.7900136000000004,1.8670833999999998
-1.5885049,11.201503,-0.35330755,0.58346355,1.7338798999999998,1.7329375
-0.36880282,9.9780655,-0.61412233,0.3588397,0.9577494000000001,1.6270133
0.27911603,8.577955000000001,-0.2983367,0.16238543,0.7900581999999999,1.4007664
-0.18896955,6.975123399999999,0.08862377,0.15336208,1.1073416,1.314006
-0.8037814,5.7917557,-0.11539095,0.20392427,1.3889331,1.4209948000000001
-1.0808191999999999,5.7871494000000006,-0.22534227,0.15814428,1.4916631,1.5269362
-0.82848954,5.9516597,-0.55081004,0.14749777,1.4032971,1.5684576000000001
-0.31583354,6.1495357,-0.80825377,0.14482743,1.2004898000000002,1.4843502
-0.032053575,6.5437174,-0.8243428,0.12407546,0.9588141,1.3390166000000001
0.33620337,7.0368075,-0.535219,0.13683382,0.6601708000000001,1.2437216
1.1393527,7.414210300000001,-0.80446136,0.15495034,0.44565237,1.1447091
1.9651703,8.454166,-0.8512440999999998,0.044750242999999995,0.22792254,0.8253313
1.6101197,9.92477,-0.352302,-0.083514005,0.035220746000000004,0.44525096
0.54584926,10.807387,-1.0704666,-0.26928684,-0.20696114,0.16311847
-0.08042602,11.6567745,-1.0342568,-0.43910740000000004,-0.8074241999999999,-0.079080865
0.36887947,11.700655000000001,-0.10267294,-0.47902307,-1.4824128,-0.42455134
1.8658781000000002,11.009517,-0.43675986,-0.61955696,-2.0477423999999997,-0.9276075999999999
2.5742266,10.045591,-0.19536684,-0.86763805,-2.1116214,-1.3790195
1.6110106000000002,9.587466000000001,1.5135281,-0.93469363,-1.7709332999999998,-1.608443
1.9653139,13.421741500000001,2.7999232000000003,-0.67970103,-1.673509,-1.8054035
4.877314599999999,17.863014,3.839428,-0.35554102,-1.7448580000000002,-2.4106662
2.1313088,15.934121,4.7497225,-0.20542525,-1.6815026000000002,-2.8711363999999997
-2.111475,11.92436,3.9750452000000003,-0.16973327,-1.0613347,-2.4644225
-2.4105779999999997,10.440318,2.0864127,-0.29859093,-0.79358375,-2.0593314
-1.5956780000000002,9.979321,1.0923306000000002,-0.46359435,-1.4020405,-2.1737726000000004
-1.7724273999999998,9.881455,0.05862921,-0.62967986,-2.5832617,-2.2610915
-0.97488064,9.615314999999999,-0.39044642,-0.83569854,-3.3205411,-2.0790188
1.0858375,9.073095,-0.020781672,-0.9203296000000001,-3.247604,-1.9118686000000003
2.5787659,8.538508,0.32175198,-0.8479333,-2.633824,-1.8288258000000002
2.6437254,7.7430015,0.08470686,-0.83035785,-1.8470471000000002,-1.6414473000000003
3.3027629999999997,7.4621716000000005,0.22267033,-0.825052,-1.0150311,-1.4519393
2.8838353,7.079099,0.41042364,-0.7760781,-0.41989129999999997,-1.3774138999999999
1.8494537,7.3356330000000005,0.2537758,-0.71272266,-0.055780724000000004,-1.259255
1.084832,7.40291,0.100728855,-0.74253285,0.15713198,-1.1101865
0.30930212,7.6589556,0.6035495,-0.7755545,0.107617,-0.94731236
-0.18871099,7.798891499999999,0.9674299000000001,-0.77501345,-0.056845374000000004,-0.7578045
-0.37660795,7.744649000000001,1.5532431999999998,-0.711658,-0.20003219,-0.605542
-0.31936735,7.7308580000000005,2.440697,-0.54717815,-0.31662017,-0.4245688
-0.40026262,7.6375227,3.7417924,-0.27035149999999997,-0.19151498,-0.19406316
-1.2306868,7.8713307,4.317732,0.14590952,0.13158037,0.13702579999999998
-1.5094005,8.619394,3.9522428999999994,0.5313131,0.42702970000000007,0.47558478
-1.2755348999999998,9.414336,3.3002730000000002,0.81718063,0.60376173,0.7465470999999999
-0.85974824,10.380367999999999,1.6409667000000001,0.8970294,0.6490007,0.93286103
-1.0649024999999999,12.540206,0.47386998,0.7426376,1.0141759,1.0835004
-3.7867745999999998,14.192943,1.8433534,0.73570865,1.9260406000000003,1.4098246
-5.042600599999999,14.114460999999999,3.0444572,0.9784665000000001,2.771391,1.7978811000000001
-4.820189,14.51888,2.3029444,1.112054,3.2270439,2.0922484
-4.1195498,15.174555999999999,0.6566241999999999,0.96514964,3.1594474,2.2774975
-3.354478,14.280781,0.3471401,0.7836354,2.3870517999999996,2.2902907999999997
-1.357273,12.333032000000001,0.25011745,0.67875856,1.3026963,2.1023712000000003
0.114078924,10.240172,-0.6095829,0.48179814,0.49410272,1.8777298999999998
0.45921746,8.193772000000001,-0.79843754,0.20657717,0.3194825,1.6530886000000002
0.010898406000000001,6.4656377,0.5275095999999999,0.11344639999999999,0.71874404,1.4784858
-0.9745454,4.9635916,1.144687,0.26567402,1.2191125,1.5450351999999998
-0.6915316,4.2695704,0.40770382,0.55312973,1.3873447,1.8846589
0.010572795,4.818168,-0.51766473,0.6942047,1.3330476,2.1912782
0.49485275,6.0214176,-1.2212249,0.6739589,1.0839018,2.2455754
0.78414893,6.319074,-1.461957,0.5259899,0.7618537,2.1508217
1.524551,6.649445500000001,-1.3374393,0.44720572,0.42861795,2.041686
2.5982451,7.1505035999999995,-0.71870106,0.45039967,0.34398693,1.875077
3.6331818,8.191541,-1.1427716,0.35671040000000004,0.51326644,1.5774983999999999
3.928636,10.364768,-0.9893511999999999,0.104911745,0.810304,1.1942241000000002
3.5932847999999997,12.693512,-0.76759064,-0.06274459,0.8880235000000001,0.74761176
2.9978185,12.949643,-1.396557,-0.22830652,0.50474924,0.15353662
2.359984,12.636289999999999,-1.4980712,-0.39332740000000005,-0.41510909999999995,-0.41392228
1.7217566000000002,11.490636,-0.65357876,-0.54927254,-1.0661343,-0.84189445
0.23757185,10.387493,0.5626661000000001,-0.6797185,-1.0985975000000001,-1.0383313
-1.6237188999999999,9.63378,2.329434,-0.6387206999999999,-0.7690968,-1.0814409
-1.0554311,10.76683,2.4523041,-0.46785295,-0.83882266,-1.2592376
1.7215171999999999,15.645007000000001,2.2812335,-0.3219958,-1.6767028999999998,-1.9017631000000002
3.6707995,17.131039,2.9666936,-0.31295500000000004,-2.2239508999999997,-2.5064847
0.80821544,14.505778,4.289681400000001,-0.20221385,-1.8193661,-2.5565233
-1.2579231000000002,13.778630999999999,2.7373004,-0.11917108,-0.93996453,-2.1445036
-0.54912454,12.449160000000001,1.3161693,-0.22565362,-0.6227159999999999,-2.1008527000000004
-0.56791425,10.868258,0.37855202,-0.33475414,-1.1007268,-2.3505046000000003
-1.4200681,9.035746000000001,-0.75969934,-0.55354863,-2.0131326,-2.3302763
-0.89990383,8.139299000000001,-0.9355870000000001,-0.7931125,-2.7780929,-2.0774305
0.94084466,7.5353093,-0.7548918000000001,-0.96129245,-2.9005277,-1.9826591
2.0514669999999997,6.857865299999999,-0.40426576,-1.0379646999999999,-2.5071306,-1.9682951000000002
2.3738127,6.630378,-0.29835585,-1.0518053,-1.8401356,-1.8682178
2.8195745999999997,6.710612299999999,-0.34959176,-1.1124903,-1.0852981000000002,-1.5796975
3.2556546,7.366049,-0.029113494,-1.0704453,-0.32726669999999997,-1.4530040000000002
2.1411439999999997,7.858134,-0.053314082,-0.9660921,0.18109536,-1.3593148000000002
0.9223996999999999,8.041807,-0.052796938,-0.8921075999999999,0.45471063,-1.2512615
-0.5414439,7.4757895,0.44842440000000006,-0.84686863,0.31789428,-1.0654712
-1.583592,7.0265702999999995,1.7787386000000003,-0.75900877,-0.01691224,-0.7402116
-2.1448312,7.025315299999999,3.1210430000000002,-0.5290617,-0.1606401,-0.37664205
-2.865486,7.332252499999999,3.6959481,-0.15858062,-0.032899458,0.0028797933
-3.0083911,8.206289,3.4669862,0.18582520000000002,0.063442715,0.3313333
-2.6140084,9.009066,3.5919156,0.4993736,0.09431759,0.6017545999999999
-2.1650958,9.779807,2.973359,0.70539224,-0.045657814000000005,0.8381071
-1.2792603,10.963261,1.6073617,0.7165623999999999,-0.18353882,0.99886936
-0.42369708,12.093879,0.67104685,0.57868135,-0.052045718,1.0169685
-0.7901057,13.052154,0.7983034999999999,0.47808059999999997,0.6894574,1.0611427
-2.9265093999999996,13.750475,2.3679612,0.60049796,1.7759249,1.3576393
-4.3545547,14.935566,2.5184033,0.74370223,2.941194,1.8330146
-4.4852114,15.148507,2.1305330000000002,0.80812234,3.3542786,2.1540155
-3.7485538,14.124804000000001,1.2742228999999998,0.8746543,2.8150241,2.2024484
-2.815313,12.416043,0.83341205,0.8768011,1.8824074,2.1476276000000003
-1.2704496,10.641939,-0.08391198,0.7703185,1.0152405999999998,2.1087592
0.20316239,8.510631,-0.50405604,0.49511499999999997,0.50155526,1.9565141
0.6576105999999999,6.589484700000001,-0.08151778,0.27101472,0.5084668,1.7845817
0.5468930999999999,5.52146,0.57042336,0.1836959,0.8954761,1.6653407999999998
0.19523279999999998,4.500534,0.652985,0.26515043,1.3761572,1.8319674
0.33232477,4.2662949999999995,0.0789895,0.37693876,1.5475659,2.1343107000000003
0.6636344,5.3135095,-0.14320199,0.45198792,1.6183566,2.3456526
1.0970328,6.159381,-1.0267773999999998,0.44507640000000004,1.431519,2.357364
1.3276709999999998,7.019311,-1.2322574,0.40622538,1.2191299,2.2519633999999997
1.4076469999999999,7.713725,-1.4883507,0.34074062,1.0141759,2.2024484
2.0048854,8.984894,-0.6953719,0.20924753,1.1696149,2.0709727
2.1012375,10.919350999999999,0.043478699999999995,0.06286676,1.3165368,1.8431375
2.503406,12.52563,0.26573724,-0.09255481,1.1855847,1.46571
3.6992235,13.417901,-0.16091909,-0.1340762,0.53030086,0.780616
4.241788,13.498845000000001,-1.1107658999999999,-0.2714336,-0.4933522,-0.080145516
3.4018542999999997,12.321634,-0.78925335,-0.48328167,-1.4382211,-0.8078255999999999
2.0544548,10.423521000000001,0.08997410000000002,-0.6413736,-1.7996788000000001,-1.2320802
1.1086878,9.252419999999999,0.7242746999999999,-0.7797782,-1.8550407,-1.4450104
-0.15598702,8.823256,2.0343437,-0.8335518,-1.6655328,-1.5701157
-0.12375150000000001,9.846192,2.7751957999999997,-0.74466217,-1.5963305,-1.6579580000000003
2.4862156000000004,13.307031,3.5732597999999998,-0.5673891,-1.9061438999999998,-2.1599321
2.49947,15.364932999999999,4.0670589999999995,-0.41725585,-2.1424963,-2.6480658
0.53383994,14.284514999999999,4.007185,-0.34435347,-2.0615828,-2.5889863999999996
0.35703292,13.702122,2.6347709999999998,-0.36617008,-1.8449178,-2.3116536
1.5419711999999999,12.484939,1.7498741000000002,-0.40662682,-1.9322191000000002,-2.288755
1.2376681999999999,10.841185000000001,0.8269476999999998,-0.42739624,-2.1749593999999997,-2.3749917000000003
0.6676854,8.9362135,-0.17370412,-0.54182,-2.4842494,-2.2663972
1.4950353,8.128985,-0.48857996,-0.69303536,-2.458174,-2.1498267999999996
2.109234,6.359382599999999,-0.6863026999999999,-0.84526294,-2.1526017000000004,-2.0736953999999996
2.1801887000000004,6.0732083,-0.3459334,-0.9543809000000001,-1.7214183,-1.9571075
2.2340105,6.5200434000000005,-0.104731955,-1.0150834,-1.4036287,-1.8309551
2.3718686,6.4480543,-0.38279456,-1.053917,-1.0693283000000002,-1.7628175
2.7736442,7.3128686,-0.27562052,-1.1103436000000002,-0.64346796,-1.6457058
2.5041816000000003,7.7102775999999995,-0.20263565,-1.1321776000000001,-0.04246386,-1.5935378999999998
1.7307396000000002,8.265186,0.23458388,-1.1295247,0.36580357,-1.5429583999999998
0.38358942,8.443641,1.0266336,-1.0033549000000002,0.4754626,-1.4327756999999999
-1.0955579,8.3323765,1.8894081999999999,-0.7915068000000001,0.38231438,-1.1538372
-2.3897102,7.948625,2.6505153,-0.54449034,0.18748327,-0.73755866
-2.8152652000000002,8.06891,3.4851627,-0.21978931,0.017139133,-0.27869418
-2.378017,8.464489,3.9163299,0.13686872,-0.011065387,0.064647
-2.0165691000000003,9.192375,4.345629,0.47596875,0.2955366,0.32707470000000005
-2.5080125,9.6933565,4.360454,0.7463725999999999,0.5361477,0.6411467
-2.6178105,10.288881,3.4291767999999996,0.9305572,0.46642178,0.8934690000000001
-2.308288,10.479267,1.7090961,0.9364215,0.3014009,1.0371968
-2.0161189999999998,10.655548,1.0105447,0.8587020000000001,0.5185897,1.1335389999999999
-2.8162804,10.97211,1.5931593000000002,0.85976666,1.255328,1.3677796
-4.378229,12.180483,2.0538228,0.9534559000000001,2.3327546000000003,1.8527193
-4.8221807,14.389467999999999,1.7126970000000001,0.9449386999999999,3.1807404,2.3179717
-4.1017656,15.579070000000002,1.0432303,0.90448195,3.1748936000000003,2.5021562999999998
-3.0195386,14.777913,0.9771120000000001,0.87786573,2.2087142,2.3115838
-1.9950308,13.014382000000001,0.85369575,0.8230449000000001,1.032275,2.0038998
-1.1971678999999997,10.694228,0.67046267,0.7437196999999999,0.37432078,1.9325682000000002
-0.051025227,8.073717,0.22195207,0.61702627,0.21781708,1.9570551
1.0869197,6.48503,0.29261932,0.50204396,0.47333329999999996,1.9336328999999999
1.4348738,5.2943654,0.14540467,0.35831609999999997,1.0370747,1.8074805
0.16384001,4.107416000000001,-0.28496748,0.27262044,1.3793511,1.9165984
0.31928116,4.369638,-0.5489999999999999,0.36576864,1.5028507,2.2727327
1.1799583,5.8947735,-1.1690791,0.46104616,1.4331247999999999,2.3850447999999997
1.6723497999999999,6.8181405,-2.0737426,0.30295426,1.2313646999999999,2.2157652000000003
2.182698,6.719231599999999,-2.3524182000000002,0.018168878,1.1318285,1.9134044999999997
3.3244257000000004,6.074358,-1.1333194,-0.11437143,0.93113315,1.3629799999999999
2.7283362999999996,7.571873700000001,0.049023673,0.0032637657,0.633572,0.7039611
1.5127045,10.486977,-0.9383450999999999,-0.05794493,0.49675559999999996,0.41011748
1.2833591999999998,12.774503,-1.0841328000000001,-0.16386896,0.42383575,0.30791098
2.5123029,14.028088,-1.001121,-0.19847885,0.14222687,-0.007731808299999999
4.0704875,14.068454000000001,-1.0618285,-0.31663764,-0.56574845,-0.7247829000000001
3.0397167,12.699947,-0.0013599064999999999,-0.47261772,-1.048559,-1.3300281999999999
0.8230499,11.274535,1.2306293,-0.5828178,-1.0714576,-1.4540686999999999
-0.8440040000000001,10.514711,2.3813496,-0.51731557,-0.9181478999999999,-1.2762545
-1.333417,9.924838000000001,2.4181437000000003,-0.42257910000000004,-0.76003855,-1.1043222
0.21764252,11.30363,1.3570813999999998,-0.39596283,-1.0017141999999999,-1.1841709999999999
2.7990708,14.264117,1.9120476999999998,-0.29375637,-1.5675848999999997,-1.6973327
2.5965787999999996,14.340654999999998,3.1699517000000004,-0.11969468,-1.7693275000000002,-2.1748374
0.49328217,12.486777,3.9665217000000004,0.10175269999999999,-1.3519843999999999,-2.13651
-0.05076665,11.55932,2.7906241,0.10759955,-0.60992277,-1.879388
-0.17598339999999998,10.958269999999999,1.9981625,0.040544,-0.31342623,-1.9256916000000002
-1.3788208,10.093647,1.1748252000000001,-0.03556981,-0.70734704,-2.0390856
-2.569371,8.693164,0.24532905,-0.24319418,-1.7177006999999997,-1.9054806
-1.6208936999999999,7.985764,-0.5149257,-0.57267743,-2.701438,-1.7282076000000002
0.6710946999999999,7.647156699999999,-0.2813283,-0.81754714,-2.795651,-1.8011273999999997
1.5039896000000001,6.8271046,-0.3969012,-1.0480353,-2.411853,-1.8820409
2.0437002,7.0827,-0.6037315,-1.2929225,-1.9231783,-1.8048624
3.0937683999999996,8.059342,-0.73450273,-1.4760423999999999,-1.3163273000000002,-1.7750522000000002
3.3085568,8.846547,-0.60841453,-1.5287338,-0.8276526,-1.8740647000000001
2.3188896,9.010721,-0.18773414,-1.4542084,-0.49174652,-1.8698061999999998
0.43971908,8.55659,-0.15763424,-1.3461375,-0.17074557,-1.6611171000000002
-0.36382288,7.85098,0.5194077,-1.2705648,-0.19631463,-1.3247049
-1.2054614,7.3522487000000005,2.1165605,-1.0331477,-0.5391322,-0.9914691999999999
-1.5996237,7.050838000000001,3.7890155,-0.51253337,-0.76003855,-0.52834606
-2.110891,7.6837979999999995,4.0229387,0.06661922,-0.39433968,0.021537364
-1.9807805,9.236322,4.1090727,0.51963687,0.18055432,0.46975538
-1.987714,10.173423,4.5181074,0.8912,0.4169068,0.7364417
-1.496874,10.995994999999999,3.5766213,1.0721906,0.2343279,0.8689994000000001
-1.2004431,11.001894,2.3369517,1.0045766,0.15393804,0.8924216999999999
-1.5978903,10.176679,1.8398004000000001,0.87257737,0.3839026,0.9632122999999999
-2.3765134999999997,10.013967999999998,1.9295063000000001,0.8060105,0.9215513000000001,1.1804011
-3.8749675999999997,10.828764,2.31911,0.8533961999999999,1.7274919999999998,1.5535525
-4.7747183,12.764944999999999,2.3258137999999997,0.94921476,2.6005056,2.0092404
-4.0837129999999995,14.697056,2.0676231,1.0940073000000001,3.0066786,2.2988255
-2.9334908,14.572605,1.1158895,1.16588,2.6574732999999995,2.2509162
-1.7916193999999999,13.163867000000002,0.5088541,1.0556973,1.7562375,2.0134990000000004
-0.5223094,11.471435000000001,0.34477463,0.8571136999999999,1.0163052,1.8399435000000002
1.0671913999999998,9.257583,-0.10002017,0.56806976,0.7884699000000001,1.6413949
1.2932616000000001,7.14538,0.04825753,0.23431045,1.0136523000000002,1.4997963
0.9827145,6.125833,0.6973448,0.028309241000000002,1.4863573,1.4071891
-0.017937358,4.716252,0.5101948000000001,-0.07122689,1.8509915000000001,1.4635983
-0.98663133,4.6284995,-0.036209907,0.08951793599999999,1.8100111,1.7414895000000001
-0.6200886999999999,5.372521400000001,-0.80107117,0.29927159999999997,1.3442352,2.069402
0.42238507,6.5240846,-1.6383235,0.4408527,0.89121747,2.2855086
1.909261,7.107972999999999,-1.9742779,0.39666098,0.6484771,2.210983
2.437259,7.409508,-1.3255354,0.42701226,0.5271069,1.9059694
3.1171644,7.954352,-1.4258908000000001,0.46109852,0.42224750000000005,1.6025438
2.6519902,9.735244999999999,-0.881229,0.38762018,0.63783056,1.2884718000000002
1.7356334,11.39707,-0.49049529999999997,0.308836,0.8880235000000001,1.1553905
1.5424308999999998,12.300154,-1.1462193,0.07834783,0.5963092,0.7747691
2.1203432,12.676953,-0.7751659000000001,-0.14786429999999998,-0.25539404,0.097668625
2.0467455,11.569395,0.40900627,-0.36027086,-1.0890156000000002,-0.6699272
0.009528923,10.200046,1.2226901000000001,-0.49122292,-1.2811938999999999,-0.90256214
-0.97007304,10.524632,1.9160701,-0.47951177,-1.0943389,-0.8509178
1.1772864,13.696001999999998,2.4933887,-0.34110716,-1.2561659,-1.1479553999999998
3.74411,16.250635,3.6208184,-0.15479325,-1.4850656999999998,-1.9507022
1.0953857,14.613709,4.211496400000001,-0.01160644,-1.2992928999999998,-2.3568752
-2.1278322,13.211682999999999,3.6118162000000003,0.09325294,-0.98255056,-2.022575
-1.9817287000000001,13.682135,2.317616,0.037891097,-0.9985203000000001,-1.7085028000000002
-0.5076474,13.238719,1.219501,-0.11220722,-1.6037656,-1.9219564999999998
-0.35066438,11.080758,0.21100578,-0.37836993,-2.3394394,-2.158309
-0.057901375,9.019608999999999,-0.57671535,-0.7238404,-2.7658408,-2.1284987999999996
0.7297048,7.323796000000001,-1.2201905,-1.0741105,-2.8302433,-1.9943528000000001
1.4281701,6.57828,-1.3408488,-1.3450729,-2.7221901,-1.8415842
2.6181169,6.975784299999999,-0.855477,-1.4376799999999998,-2.2654548,-1.8218793999999998
3.4267156,6.787580999999999,-0.7002560999999999,-1.4052343,-1.3621073000000001,-1.9060043000000002
2.9862973999999998,7.120279300000001,-0.72737765,-1.3716892,-0.83562875,-1.8538188999999998
2.9712810000000003,7.8164940000000005,-0.34461182,-1.2982283000000001,-0.16222836,-1.7415068999999999
2.2025316000000004,7.7804656,-0.17567694,-1.1395953,0.42544144,-1.7026385
1.0264518,7.880667999999999,0.047740385,-0.9969321,0.637307,-1.6227896000000002
-0.81452656,7.9954944,0.515893,-0.8281761999999999,0.56065214,-1.4135944999999999
-2.1942475,7.552375,1.027419,-0.7110470999999999,0.28117254,-1.0276499
-2.403204,7.2588077,2.2130852,-0.5417851,-0.15318754,-0.65289277
-2.65041,7.5879436,3.4546702000000007,-0.16596335,-0.4055098,-0.24300219
-2.47797,8.519049,3.8072980000000003,0.20664698,-0.24740042,0.14664257
-1.9585816000000003,9.832833,3.5550062999999996,0.5414884,0.1795071,0.42664573
-2.002491,10.887814500000001,3.097666,0.75441855,0.38924333,0.6353173000000001
-1.7981220000000002,11.576989999999999,2.441875,0.83692026,0.27851963,0.7774395000000001
-1.3986351000000001,11.6537,1.7753963,0.8278620000000001,0.22741639999999996,0.85782933
-1.3446028,11.327457,1.3784665,0.81349796,0.5798158,0.9802642
-2.3608553,11.379334,1.5265621,0.8044397,1.4176959999999998,1.2325864
-3.6099677000000003,11.374048,1.9269493999999998,0.8704655000000001,2.4711592000000002,1.6227896000000002
-5.052206,12.035575,1.4819149999999999,0.88748246,3.2584774,2.0880246
-4.354066400000001,14.060035999999998,0.6335249,0.7198087,3.5240989999999996,2.4335124
-2.5115366000000003,15.056139000000002,0.53193414,0.5542468,2.7027297000000003,2.1774554
-1.5427278,13.35547,0.53128296,0.46322784,1.4091789,1.7484009999999999
-0.73384196,10.918842,0.08034941,0.37540287,0.6538003000000001,1.5972207
-0.08323202,8.673283999999999,-0.49197015,0.18537141,0.5138075,1.7010328000000001
0.46547112,7.419478,0.19905393,0.009162978,0.75974184,1.6919745
0.1537269,6.090571400000001,0.806281,-0.022218041,1.1589858999999998,1.5535873
-0.86383754,4.96454,0.35982937,0.06983062599999999,1.509256,1.4141006
-1.4132686,4.7728314,-0.7855472,0.18324211,1.350082,1.4716091999999998
-0.92029285,5.9765120000000005,-2.032955,0.22476350000000003,0.48825586,1.2501619
-1.1907418,7.3895693,-0.9591651,0.19973548,-0.48003536,1.0217855
0.20949264,7.676193700000001,-0.34412342,0.31417670000000003,-1.0836924,0.9632298
2.1650862999999996,7.576967999999999,-0.4649061,0.32909927,-1.1001858,0.76574576
2.7200718,7.649703999999999,-0.62972295,0.25350907,-0.5918237,0.51874673
1.6715453999999998,8.310877,0.06360915,0.2902308,0.09698795,0.41760492
0.7858153,9.932326,-0.8109065,0.31100023,0.55745816,0.40641737
-0.13723564,11.981945,-0.91528416,0.2897072,0.40041342,0.24459045
0.6429293,13.138411999999999,-0.9428654000000001,0.15927875,-0.45926595,-0.14718361
2.0471573,12.958521000000001,-0.93933153,-0.15210545,-1.5265871000000002,-0.8083143
1.7677348999999998,12.084445,-0.13334745,-0.47630036,-1.9444538,-1.2389743
0.36063382,10.811727000000001,1.4868758999999998,-0.5811597,-1.7634633000000002,-1.3076531
-0.76010156,9.818897999999999,2.2685732999999995,-0.50345767,-1.3397322,-1.1564726
-0.17553329999999998,11.439285,1.7754346999999997,-0.47095963,-1.3184391000000002,-1.0308439
2.3249902999999996,14.720769,2.7136742999999997,-0.40762165,-1.7687863999999998,-1.3113706
1.891429,14.801480999999999,3.6684725,-0.36182420000000004,-1.8262776,-1.6760047999999999
-1.2712157,13.455298,3.8320922999999993,-0.35119516,-1.1310606,-1.3992129999999998
-1.8937178,13.081123,2.6424993999999997,-0.33681363,-0.6897715999999999,-1.0170033
-1.1389697,12.023154,1.748361,-0.32936108,-0.88992596,-1.127186
-2.0742693,10.274792999999999,0.9081398,-0.38685223,-1.4286393,-1.28636
-1.8960066000000002,8.501723,0.31587183,-0.5407029999999999,-2.0030096,-1.3411808
-0.73823774,7.2081275,-0.02234269,-0.74405134,-2.3910837000000003,-1.3587563
0.42660844,6.653803,0.09752062,-0.90427256,-2.3468918999999997,-1.3491743999999999
1.1550491000000003,6.1193595,0.066070385,-1.0400068,-2.0306907,-1.3379868000000001
1.7475470000000002,6.041241,-0.0024995466,-1.1358253999999999,-1.5691732,-1.2916658
2.3237642999999997,6.5509379999999995,0.0761835,-1.1608534,-0.9883974,-1.339575
2.0485363000000003,7.3157034,-0.8475187,-1.267842,-0.44701374,-1.3321226000000002
1.8632252,9.000283,-0.6746765,-1.3152453000000002,-0.23090705,-1.3065883999999999
1.6279039,9.487533,0.12525506,-1.2561483,-0.14786429999999998,-1.2884718000000002
0.29404625,8.54573,1.376168,-1.0059555,-0.18299778,-1.1868063999999998
-0.83342165,7.671530000000001,2.5176945,-0.6860191,-0.3554712,-0.85250604
-1.2963069999999999,7.7642527,3.3986267999999997,-0.272411,-0.43106142,-0.45272094
-1.5630498,8.018948,3.5631564,0.12950343,-0.26708773,0.012514011
-1.5427278,8.8681135,3.5622656000000004,0.5383119000000001,0.03417355,0.32552135
-1.2050401000000002,10.2257595,3.182756,0.8592953999999999,0.31524137,0.5081003
-1.1559302,11.271078,2.972459,1.0701138000000001,0.47760934,0.665145
-1.429348,12.03432,2.6359873,1.2127769,0.69905674,0.8509178
-1.6150041000000002,12.472373,1.7509085,1.2388695,1.0956479,0.9999863999999999
-2.5528321,12.289428,1.1974169,1.1989365,1.5928223999999997,1.1719187
-4.2501197,12.050994000000001,1.361592,1.1094883999999998,2.2183135,1.4923787
-5.0126157,12.486078,1.3515268999999999,1.0056937,2.6920831,1.8288083
-3.9342002999999997,13.861652,0.9859418,0.8880584,2.6084993,1.9847709999999998
-2.8302624,14.537420000000001,0.6740826999999999,0.803951,1.9308578,1.826138
-1.6440599999999999,13.203582,0.44066718,0.72781974,1.0833957,1.5674278999999998
-0.21442470000000002,11.167314,0.22486342,0.55108774,0.5180661,1.3294871000000001
0.6142850999999999,8.561206,-0.36720349999999996,0.14545573,0.37592646,1.1383735000000001
0.5625608,6.748594000000001,0.21118775,-0.15528195,0.6671172,1.1277270000000001
0.36765364,5.032267,0.1822562,-0.30380946,1.1728263,1.2389917
0.13508086,4.3589606,0.30272287,-0.20053834,1.3798921999999998,1.2869011000000001
-0.094676316,4.8652864000000005,-0.47978845,0.049113564000000005,0.9742601999999999,1.2757136
0.034198776,5.6955285,-1.4295588,0.13695599,0.43928190000000006,1.3129761999999998
0.6431304,6.3004665,-1.4091027,0.10660471,-0.10740756,1.3262931
1.4083940000000001,6.5526423,-0.7530339,0.1513375,-0.15849335,1.3097998
1.2095795,6.6331067,-0.47106397,0.18484782,0.16140805,1.3273578000000001
1.1393527,7.363185400000001,-0.37342843,0.24553291,0.5478763000000001,1.3592973
1.0433068,9.531824,-0.8076983,0.22373375,0.82042694,1.2326039
0.4000998,13.200287,-1.6719476000000002,0.08583529,0.9167690999999999,1.0494839
0.63839954,15.833947,-1.506269,-0.15156439,0.31684709999999994,0.5501627
1.7523258000000002,14.959988000000001,-0.29418036,-0.27825785,-1.042171,-0.46071455
1.7515022,13.049031,0.032292992,-0.49225265,-2.0519836,-1.215011
0.3907337,11.369000999999999,1.0767108,-0.68760735,-2.1733537,-1.3821611
-1.0004603,10.581394,2.3568041,-0.6141465,-1.6671209999999999,-1.2027762
0.0878672,11.892344,2.2760717999999995,-0.4794594,-1.3759303,-1.1692308999999999
1.8399345,13.563335,3.5981019999999995,-0.22715460000000004,-1.4717488,-1.5956323000000001
0.5631067,13.353985999999999,4.457294999999999,0.006544985,-1.5984423,-1.8708359
-1.038011,12.402262,4.2805066,0.09171705,-1.5803432,-1.7111381999999997
-1.6445293,11.932424000000001,3.3805650000000003,0.024085544,-1.4254453,-1.4231589
-1.2531157,11.036503999999999,2.0132171999999997,-0.13505358,-1.6133473999999999,-1.3310579
-0.98128754,9.676013000000001,0.7739401,-0.34051374,-1.983846,-1.4226178999999999
-0.8556398000000001,8.339933,-0.17807116,-0.58700657,-2.4363224999999997,-1.4471048
-0.315958,7.4448757,-0.29349083,-0.7669326,-2.637018,-1.431135
0.5142362,6.898959599999999,-0.26723123,-0.86114544,-2.573139,-1.4093183999999999
1.3795868999999998,6.7706776,-0.2845269,-0.9154252,-2.2420151,-1.4194239
2.0236464,6.795712,-0.34998440000000003,-0.96495765,-1.8135018,-1.3763143
3.0660052,7.3469334,-0.495753,-0.9979618,-1.3919001,-1.3928076
3.3127230000000005,7.904839999999999,-0.48691356,-1.0288191999999998,-0.8781973,-1.4875616000000003
2.7871478,7.7340089999999995,-0.40450516,-1.0304074,-0.39858085,-1.5540935
1.1577976,7.6796317,0.36947322,-0.9133133,-0.0062482785,-1.4534928
-0.39848134,7.298877,0.8730696,-0.75893897,0.1747249,-1.1915886
-1.2771246,7.4937363,2.010344,-0.526304,-0.050963614000000004,-0.82747805
-1.4783908000000001,8.171064999999999,2.9500778,-0.17922786,-0.40283945,-0.49050733
-1.5738428999999998,8.656888,3.278093,0.24450317,-0.5103692,-0.16952384
-1.2879465,9.789077,3.1484137000000003,0.62404245,-0.28731609999999996,0.08119272
-0.79997945,10.835027,2.9069054,0.8795586999999999,0.07464773,0.27654743
-1.1568303,11.577622,2.5955539,1.0307391,0.2231578,0.44317399999999996
-1.6154063,11.858749000000001,1.8793718000000001,1.0461679,0.10391690599999999,0.5773026
-1.6515968999999997,11.675334,1.1867005,0.95834285,0.07677703,0.6725975000000001
-2.4016237,12.279477,1.4286106,0.9120218000000001,0.8193623,0.86529934
-3.6336417,12.915367999999999,2.92672,1.0062346,1.8829484,1.2576145
-4.348713,13.317402,3.1415374,1.1494563999999998,2.6260748,1.6478177
-5.178122,13.862936,1.6459658,0.9663364,2.903425,2.0428029999999997
-3.3150307999999997,14.433971,1.7006303,0.7145378000000001,2.2837982000000006,1.9326205
-2.311056,13.726284,1.3037865,0.49309042,1.1100119,1.5216653
-1.0391315,11.536097,0.5051190999999999,0.20776399999999998,0.21570525,1.2459208000000002
0.59324485,8.993436,0.22916341,-0.104684845,-0.06534512,1.0143504
1.075983,7.1273756,0.6051105,-0.31869712,0.052290063,0.96165895
0.7204344,5.307591,0.4574745,-0.4842416,0.26947883,1.0878113999999999
0.57348794,4.302467,0.7821281999999999,-0.38522908,0.5313829000000001,1.2752073999999998
0.57775915,4.192859599999999,-0.09046251,-0.07862708,0.5931327,1.5184540000000002
0.94051903,4.7558419999999995,-0.8152448,0.10555751599999999,0.70225066,1.8336080000000001
1.9938528999999998,5.5892925,-1.0183785,0.14014994,0.65540606,1.9161096999999998
1.7242944,6.490164,-0.60044664,0.16144295,0.66392326,1.876194
1.9771796000000001,6.909388000000001,-0.5270020999999999,0.17263052,0.6559471,1.815509
2.0748057,7.2570553,-0.39786842,0.20457004,0.61761963,1.6270658000000002
1.6591339,9.228681,-0.9106873,0.20511109,0.7155675,1.4652388
0.35173696,13.710473,-0.48029602,0.21095794,0.80019855,1.495049
1.0395145000000001,15.693207000000001,-1.2251514,0.10185742,0.47335073,1.3129938
2.7611659,13.927828,-0.29963914,-0.087126836,-0.54124403,0.41069344
1.9978943,12.471779,-0.16451038,-0.31976178,-1.5185935,-0.3696782
1.4487602,10.795686,0.48246995,-0.6439391999999999,-1.9359366999999998,-0.82960737
0.6037123000000001,9.840974000000001,1.9972047,-0.82864743,-1.8491589,-1.1128045
-0.36998078,10.2845335,3.815467,-0.72644097,-1.5622441999999999,-1.2432154
1.2201235000000001,13.057286,4.039947,-0.5055346,-1.4073287,-1.5205657
2.9165685000000003,15.795304999999999,4.4433413,-0.30750957,-1.3178982,-2.0502206999999997
1.2145115,14.899414000000002,5.312044,-0.1712168,-1.1571358,-2.4255016
-1.2408477,13.191104000000001,4.021425700000001,-0.165911,-0.92664766,-2.2775326000000002
-1.4169843,11.841567999999999,2.371141,-0.30482176,-1.0331128,-2.1242054
-1.2346036,10.45703,1.3105572,-0.48103019999999996,-1.5766083,-2.1769142
-1.3659303999999999,8.765460000000001,0.29281090000000004,-0.65510935,-2.0546365,-2.207248
-1.2515258999999999,7.498142,-0.56997323,-0.8211774,-2.422482,-1.9911238999999998
-0.21532492,6.92655,-0.77575004,-0.9627934000000001,-2.6806512000000002,-1.8106744
1.123053,6.6707344,-0.5284099,-0.95319414,-2.632742,-1.8133273
2.3258042000000003,6.817049000000001,-0.32204887,-0.8951968000000001,-2.273431,-1.7994868000000002
2.6173029999999997,6.8807344,-0.44410527,-0.8967676,-1.8885509999999999,-1.7372134999999997
3.1098192000000004,7.381506,-0.3744244,-0.9441533000000001,-1.4280982,-1.6201018999999999
3.462303,7.279340299999999,-0.36264494,-0.9574701999999999,-0.8270940999999999,-1.6174488999999999
2.7268426,7.7663884,-0.08562623,-0.9473647,-0.29637435,-1.6020028999999998
1.1377821000000001,8.022855,0.30479145,-0.93191856,0.12414527,-1.4534752
-0.26837084,8.095945,1.0362966,-0.8850739,0.3136531,-1.1851833
-1.1712531000000002,7.803124400000001,2.6863806,-0.6923720999999999,0.22369885,-0.89133966
-2.4329877,7.8985476,3.885703,-0.3011042,0.057072267,-0.5133886
-3.4467025000000002,8.473942,4.2904860000000005,0.16146041,0.023544492,0.004537856
-3.7400496,9.282577999999999,4.559125,0.68368036,0.0996583,0.45701447
-3.5811799,10.058836,4.022479,1.087183,0.18589501,0.85041165
-2.9697967,10.830381,2.7897813,1.224523,-0.08025024,1.1187037
-1.7752430000000001,11.6910305,1.0980864,1.1148639999999999,-0.48108256,1.1815181000000001
-0.34076193,12.118568,0.63810265,0.88331115,-0.5093045,1.0186264999999999
-0.9447136999999999,12.034464999999999,1.3902555,0.74275976,0.22102849,0.9893398999999999
-2.530805,12.204462,2.6261422999999997,0.8156796,1.3032548000000002,1.2672136999999999
-3.7021349999999997,12.751921000000001,3.2374682,1.0286273000000001,2.4269849999999997,1.6547467
-4.232211599999999,14.138594,1.4047548,1.0227629,3.3819767999999995,1.9784005
-3.4135952000000005,14.898763,1.0238277,0.9045867,3.2446368,1.8724764999999999
-3.0106032000000003,13.008196,0.8404031,0.762482,2.0346699,1.4098945
-2.4234686,10.720766000000001,0.7132518,0.59266144,0.82681483,1.0452428
-1.3291363,7.953653,-0.23552242,0.34779176,0.4030838,1.032467
0.055794474000000004,5.9819417,-0.11548671,0.084823005,0.54735273,1.1155097
0.61879575,5.2171855,0.20209935,-0.07007497,0.9779952,1.135197
0.24358608,4.532204599999999,0.5993835999999999,-0.028012535,1.2031776,1.3332222
-0.11277647,4.714442,-0.0015897499,0.23441517,1.1163999,1.7457831000000001
0.55890244,6.0700959999999995,-0.45793417,0.38453093,1.0759604999999999,2.0582669
1.1928008999999997,7.250111599999999,-0.815331,0.38505453,0.9407325000000001,2.1109583
1.0865749,8.055397,-0.67634284,0.38186058,0.83374375,1.9794827000000002
1.0864886999999999,8.513676,-1.6951904999999998,0.28124234,0.83374375,1.9523253
2.453827,9.654005999999999,-1.3870186000000002,0.06990044,0.9902474,1.6723221999999998
1.8427596000000002,11.354099,-1.4627709,-0.09667379,1.1680441000000001,1.2390093
1.3933871,12.056683,-0.8836424,-0.16641714,0.8917584999999999,0.8365712
0.8740081000000001,11.740456,-1.309092,-0.34688420000000003,0.42757076,0.47832492
1.6875387,11.583416,0.21655075,-0.44804347,-0.37994072,-0.14662512
1.5316473999999998,11.684442,0.9108309000000001,-0.6013183000000001,-1.0261837,-0.8796285
-0.68912786,10.614683,2.4813123,-0.6566976,-1.2119739999999999,-1.2730257999999999
-2.9532287,10.016517,3.0031717,-0.57311374,-0.94687605,-1.151638
-0.62247324,13.370142000000001,2.8552005,-0.43257985,-1.0368303,-1.2038058999999999
2.4434454,16.66982,4.0226417,-0.27820548,-1.3381264,-1.9384150000000002
-0.38920140000000003,13.755503,5.8909807,-0.13395402,-1.3748657,-2.5543242000000004
-4.354105000000001,11.83203,5.0906954,-0.00991347,-1.0528,-2.1513452999999996
-3.0350242,12.544535,3.365903,-0.08230973,-1.1331898999999999,-1.6903688000000001
-0.88300073,11.954794999999999,1.9945712,-0.21485002,-1.6963727,-1.8580425999999999
-0.57326764,10.10696,0.84090114,-0.40491638,-2.421941,-2.0539384
-0.6001401999999999,8.647934,-0.08281065,-0.64976865,-2.9074218,-1.9772835
0.71338594,7.603668700000001,-0.5075516,-0.8738689000000001,-2.8802645,-1.8963525
2.06543,6.910728999999999,-0.12354081,-0.93935364,-2.3085644,-1.9139279999999999
1.8929611000000002,6.054572,-0.34432453,-0.9521295,-1.7064956000000002,-1.8984994
1.7996256000000002,6.187507599999999,-0.33712274,-0.98832756,-1.3376028999999998,-1.7707412
1.9362004000000002,6.456741,-0.13420936,-0.9521295,-1.049065,-1.646177
1.7066733,7.0323644,0.0004405331,-0.83128285,-0.8499928,-1.4832855
0.9266230999999999,7.879557000000001,-0.0047884034,-0.7365464,-0.55347884,-1.2432154
0.52728945,8.65278,0.5593047,-0.7056541000000001,-0.31606168,-0.996199
0.0049416320000000005,8.891376,1.1290097,-0.6923372,-0.31606168,-0.79126245
-0.116923235,8.607663,1.8870428,-0.6625444,-0.37514105,-0.59430206
-0.47377420000000003,8.540338,2.9101331000000004,-0.5757667,-0.29103366,-0.35369098
-1.6601873999999999,8.982346000000001,4.122413,-0.35964254,-0.08183849,-0.0066147977
-2.724209,9.415687,4.4602637000000005,-0.019495327,0.037384953,0.35854298
-2.3230652999999997,9.9327,4.389271,0.32918656,0.09700539999999999,0.588525
-1.6852403000000002,10.320034,4.224186,0.6182305,0.1747249,0.72213
-1.1194713,10.491553999999999,3.6373959000000005,0.8402014999999999,0.39563122,0.8669225
0.23860614,11.049826,1.8546156999999999,0.8668178,0.8316145,0.81955427
-0.12133814400000001,10.953377,0.14980042,0.69753826,1.1169409,0.6263114000000001
-2.143002,11.071421,0.86772573,0.5921379,1.7440202,0.6917787
-5.250829,11.491048,3.1137457000000004,0.81784385,2.6633549,1.1964407
-6.734764599999999,11.888247,2.5576777,1.1116873999999999,3.379865,1.9682951000000002
-5.902923,12.663556,0.7827316,1.143627,3.3106627,2.4111898
-3.9913928999999997,13.770912,0.31310412,1.1899481,2.6021287,2.4324827
-2.806445,14.223367999999999,0.24016716,1.2022003,1.5241786,2.360104
0.033930626,13.078854,0.14187083,1.0919827,0.73738414,2.203583
2.1075296000000003,10.439007,-0.02387498,0.7816632,0.65914106,1.8187203
1.7683381999999999,7.878025,0.5784391999999999,0.45320964,1.2223413,1.5323293
0.6496427,5.5582347,0.5041519,0.12901473,2.0698035,1.501978
0.043488282999999996,4.407955,-0.39021659999999997,-0.28935814,2.4759765,1.5855618
-0.49708417,4.2752685999999995,-0.4626268,-0.4432089,2.0442517,1.8447956
0.8653985999999999,4.940675,-0.6314371999999999,-0.42193335,1.5034091,1.9635129
1.6252893999999998,5.9128737000000005,-0.8726961,-0.42458624,1.2133006000000002,1.7724167000000002
1.2385205,6.817011,-0.5840703,-0.3569722,1.1967896999999998,1.68618
1.1196723999999998,7.142727000000001,-0.5963381999999999,-0.16798794,1.3405175,1.7229018
1.0092806,7.8646173,-1.0787985,0.00019198621,1.4602995,1.682445
0.9300229,9.828657000000002,-1.3959919,0.07154105,1.5156614,1.555228
0.93836427,11.862782000000001,-1.2696548,0.059829887000000005,1.0887364,1.2512615
1.4785535,13.100938000000001,-0.83406323,0.024678955,0.013962634,0.581055
2.2921894,13.278319,0.008513781,-0.08602728,-1.1821464,-0.27862436
2.0208786,13.350317,0.85648257,-0.33889058,-1.8166783,-0.8056265
1.2956653999999999,13.005696,1.7709240000000002,-0.557144,-1.7347002,-1.0308089
-0.37501818,11.409549,3.3760736000000002,-0.5693613000000001,-1.3125749,-1.176125
-0.8060894000000001,10.967934,3.667869,-0.43523276,-1.1432954,-1.316659
1.300425,12.523858,3.9903584000000003,-0.30534536,-1.5058002000000001,-1.8431375
1.5356985,13.425582,4.076818,-0.23771384,-1.8656522,-2.3392472
-0.08451532,13.063195,4.188407,-0.19779816,-1.9013268,-2.3344650000000002
-0.5834095,13.0787,3.1014009,-0.13817772,-1.5483863000000002,-2.0028175999999998
0.28436413,12.256158000000001,2.086748,-0.1903456,-1.3594195,-1.9751368000000002
0.28397146,10.610325999999999,1.4123588,-0.2558129,-1.5052767,-2.1502805
-0.1905593,8.871494,0.7744189,-0.33035590000000004,-1.7160776000000002,-2.2333232999999995
-0.6189682,7.1477455999999995,0.08308837599999999,-0.4602433,-2.0908346,-2.1050240000000002
-0.16373466,6.292316400000001,-0.46014643,-0.6374989999999999,-2.5454404,-1.9086047
1.3340299999999998,6.621241,-0.4945559,-0.8163603,-2.6987502999999995,-1.8292794999999997
2.6898475,7.1021314,-0.21220288,-0.93240726,-2.2963123,-1.8495078999999999
2.776709,7.044527,0.0027198129999999997,-1.011715,-1.7267240000000001,-1.8441846000000002
2.5195525,7.627734700000001,0.17209521,-1.0553656999999999,-0.8867145000000001,-1.6930043000000001
2.2068217,8.458331,0.34104925,-1.0836052,-0.13133602,-1.6147611000000002
1.0571933,8.842965,0.60939133,-1.0393959000000002,0.19175932,-1.6014442
-0.6904591,8.654876,0.63846654,-1.0005449,0.28598964,-1.4183244
-1.3829292,8.384982,1.1235989,-0.98457515,0.050160762000000005,-1.1984826000000002
-2.1729677000000005,8.025708999999999,2.139516,-0.9042027,-0.41294490000000006,-0.8993158000000001
-2.7245631,7.9059796,3.9340181000000003,-0.58639574,-0.76586795,-0.5165651
-2.8962847999999997,8.183094,4.626948400000001,-0.088121675,-0.738187,-0.05396558
-2.1258310000000002,9.178392,4.460848,0.34196237,-0.5556081,0.30213395
-1.3795677,9.64349,4.1385407,0.67306876,-0.33361968,0.49057713
-0.7730206999999999,9.964601,3.496808,0.8338310999999999,-0.24418901,0.61672956
-0.43811974,9.927452,2.4762654,0.84873617,-0.0993965,0.70457196
-0.20647596,9.684498,1.6266207000000001,0.7747341999999999,0.23860396,0.7578045
-1.574542,10.54847,1.4869716999999998,0.7263013,1.0221870000000002,0.948377
-2.8210306,11.53852,2.1580377,0.7896393,2.019765,1.3145993999999999
-3.6399046999999998,12.81054,3.2576847,1.0393086999999999,2.9555929,1.7340894
-4.0996585,14.00472,2.67598,1.3475338,3.6891372000000002,2.2073177999999998
-3.7258089,14.903714,1.715752,1.4524107,3.7407815,2.4788213
-2.7804344,14.158705,1.5131834,1.4992378,2.7458568,2.377662
-1.7176769,12.204099000000001,0.40677488,1.3704151000000002,1.5241786,2.2030592
-0.46274173,9.816083,-0.35755965,1.1015995,0.8049982,2.112564
0.1989773,7.518961999999999,-0.75171226,0.7619758000000001,0.73898983,2.0422971000000003
-0.03729209,6.5712695000000005,-0.2306574,0.4463156,1.272921,1.9486252
-0.45739785,5.4562707,0.7935916999999999,0.35421458,1.7051691999999998,1.8181968000000002
-1.2131325000000002,4.4804129999999995,0.6103203,0.50007176,1.5758054,1.8927221999999997
-0.8294568000000001,4.7193065,-0.40481162,0.65125215,1.1004475,2.0992646
0.27902025,5.9918733,-1.5985318000000002,0.5889788,0.6713933000000001,2.1732664
1.6655216,7.6277924,-1.9752356,0.4447099,0.4089481,1.9571424
2.1874,8.411013,-1.3698568000000002,0.34569737,0.21039943,1.6398765
2.1574342,8.226592,-0.47231853,0.42659336,0.28066638,1.4530215
2.6773784,8.164064999999999,-1.0190872,0.5117829,0.46005133,1.421082
3.1944587,9.411808,-1.5981488000000001,0.36805505,0.7230201,1.1873999
2.7685017999999997,11.267669,-1.7102548999999998,0.18919370000000002,0.81564474,0.8738514000000001
3.726939,12.538636,-2.3184204,-0.06257005,0.37329102,0.33035590000000004
4.667985,12.540714,-2.0117998,-0.37720054,-0.5524142,-0.4622679
3.3157968999999996,11.800186,-0.72443753,-0.6539923000000001,-1.235379,-1.0307914
1.3506361999999998,10.626176,0.9726013000000001,-0.7285179,-1.3067106000000002,-1.171849
-0.14869907,9.960961,1.6577741000000001,-0.6672916999999999,-0.96017545,-1.0685779
0.45555909999999994,11.894259,1.6765254,-0.6087534000000001,-0.8169712,-1.1106403
3.2369895,14.807946,2.1322284,-0.50865877,-1.123067,-1.7973400000000002
2.7627747000000005,15.074814000000002,2.9399743,-0.36973056,-1.4051995000000002,-2.5095916000000003
-0.47326663,13.664446,3.5677434999999997,-0.17542304,-1.3317386,-2.3807688
-1.2895936000000001,13.270514000000002,1.9459019,-0.10569714,-1.2715771,-1.8745185000000002
-0.18915151,12.380837,0.8774844999999999,-0.13123131,-1.3865593999999999,-1.6583942999999999
0.43468168,10.575658,-0.23538834,-0.23237313,-1.5388044,-1.6850107
0.54105127,8.432138,-0.68455976,-0.41975167,-1.5483863000000002,-1.7840232
0.26147556,6.814875,-0.6755861999999999,-0.60074234,-1.546257,-1.8340617
-0.25009832,6.095944,-0.5333131999999999,-0.77855647,-1.7879328,-1.7286788
-0.28110799999999997,6.347383,-0.48045883,-0.91322607,-2.1142569,-1.5859982
0.6410715,6.750921000000001,-0.34373075,-0.9276075999999999,-2.2670257,-1.5859982
1.1656792999999999,7.1933217,-0.5115451,-1.0021156999999998,-2.3037647999999997,-1.5572525
1.5620633,7.697205,-0.830041,-1.233686,-1.9087793999999998,-1.2405276
2.7845522999999996,8.052102,-0.081345394,-1.3821961,-1.0394832,-1.1308687
1.9999533,8.529228,0.81236225,-1.3534503999999998,-0.14358823,-1.2139114
0.06669289,9.386467999999999,0.8081196999999999,-1.2107873,0.21731095,-1.0994527
-0.62758726,9.735227,1.110651,-0.99201024,0.10021680599999999,-0.9046216
-1.0961996,8.985133,1.3881006999999999,-0.782274,-0.32777283,-0.6858446
-1.3321722,8.683731,2.6259892000000002,-0.45488515,-0.7078532,-0.37709585
-1.5269643,8.769156,3.2772312000000006,-0.05618215,-0.6838898,-0.027890362000000002
-1.1794412,9.629201,3.250311,0.33718017,-0.2878397,0.27180013
-1.1027406000000002,10.324947,2.8544822,0.61770695,0.027279496,0.45809656
-1.0676703,10.885938000000001,2.2475998,0.78379244,0.08210029,0.5874604
-0.6904303,11.2148905,1.2681129,0.81362015,-0.003577925,0.6406929
-0.06594589,11.253036,0.65076315,0.7593404,0.13587388,0.5997126
-0.6116994,11.212439999999999,0.8886318999999999,0.74441785,0.78902847,0.65879196
-2.081787,11.698328,1.6655598999999999,0.8764344999999999,1.8829658999999999,0.9606292
-3.7752922,12.803289999999999,1.4475535,0.9983458000000001,2.9497461,1.4487803
-4.3784204,13.589795,0.85828304,1.0148216,3.5491445,1.9193386000000001
-3.268248,12.99475,0.61872876,0.9759707000000001,3.3814532999999996,2.0801008000000003
-1.0038888000000001,11.994242,0.7137594,0.9706474,2.501528,1.802768
0.007173028299999999,10.73426,-0.34665167,0.7199309,1.5885812,1.4093708
-0.082322225,8.651303,-0.8192671,0.27597147,1.107359,1.2651193
0.09143935,6.866158500000001,-0.32130188,-0.10461503,1.0690316,1.311964
-0.08048348,5.8916135,0.49362692,-0.2611187,1.2383286,1.4354635
-0.3690518,4.9701614,0.49684474,-0.23821999,1.5486655,1.6324239
-0.25997198,4.9799489999999995,0.07890331,-0.010402163,1.742432,1.8655825000000001
0.2745862,6.047006,-0.8667488999999999,0.29408798,1.5933808999999999,2.1109931
1.2084013999999998,7.782792999999999,-2.1281673999999997,0.37604862,1.2803736000000001,2.1344154
1.2243086,9.223921,-2.2097526000000003,0.33505085,0.9199805,2.1136459999999997
2.1417092999999996,9.057074,-1.6252129,0.34573227,0.6873630000000001,1.9188150000000002
2.5110099999999997,8.790369,-0.86292773,0.45376816,0.6602057,1.6042018999999998
2.7975192000000004,9.026782,-1.0737995,0.5155179,0.7187614999999999,1.3407096
2.9751978,10.273060000000001,-1.8984679,0.2594781,0.7528478,1.0575124
2.8047017999999997,12.016795,-1.0015711999999999,-0.00827286,0.84758425,0.83287114
3.2864727999999994,12.977942,-0.31020236,-0.15732397,0.73260194,0.36868334
3.6340919,13.009805,-0.25363216,-0.28667033,0.062412973,-0.40849432
1.7954789,12.28101,-0.22785139,-0.49268898,-0.5167396,-0.90994483
-1.2482984,10.967694,1.2270763,-0.5586799,-0.6833488,-0.97115356
-3.3320199999999995,9.787908999999999,2.2998319,-0.401129,-0.5811423000000001,-0.7646113
-0.24949497,11.25338,2.0098078,-0.21214478,-1.210892,-1.1771722
1.8194495,13.772301,2.1024635,-0.17489944,-2.1669482999999996,-2.061897
1.2790112,13.741098999999998,2.332872,-0.29092893,-2.81745,-2.4771109
1.101304,13.169851999999999,2.6995485,-0.39259437,-2.8302259999999997,-2.3764927000000005
1.805209,13.06288,2.208718,-0.4474326,-2.5065720000000002,-2.321672
1.9271218,11.897764,1.533668,-0.5251521,-2.1754656000000003,-2.4047146
1.5541433,10.271221,0.88583547,-0.644393,-2.1046576,-2.4536886000000004
1.2169344,8.450737,-0.10734643,-0.8200603999999999,-2.276084,-2.354676
0.85027677,7.381544,-0.8661264000000001,-1.0154151,-2.5236065,-2.1119356
1.4326041,7.346799400000001,-0.5340889,-1.1091218,-2.403842,-1.9650139
2.4006947999999997,7.335355,-0.11705731,-1.0516306999999998,-1.9455011000000002,-1.9564966000000001
2.5961478,7.1261399999999995,-0.14540467,-1.0111564,-1.5137764,-1.8787771
2.7943687,7.3519707,-0.1506719,-0.982952,-0.9314124,-1.6615883000000002
2.9343145,7.27347,-0.24799141,-0.99040455,-0.25216517,-1.5929096999999999
2.019308,7.2572565,-0.0006703764699999999,-0.9387601999999999,0.17420131,-1.5913213
0.70416343,7.379619,0.18182525,-0.86264646,0.31101766,-1.4875093000000001
-0.40642053,7.0229115,0.66405576,-0.7742804,0.33709288,-1.2389219999999999
-1.2358677,7.020268400000001,1.4299802,-0.65664524,0.29503044,-0.90355694
-1.7657621,7.3310266,2.6943579,-0.46603779999999995,0.17633061,-0.5687154999999999
-2.2481556,8.010759,3.6126205999999996,-0.1184555,0.17526597,-0.24932028
-2.7230022000000003,9.254461000000001,3.549471,0.22436208,0.32644638,0.110514246
-2.6576405,10.233144,3.3568144,0.5293584,0.44195226,0.40914008
-2.497976,11.354626,2.428506,0.6986553000000001,0.39406043,0.68010247
-1.9250627,12.857332000000001,1.3328042,0.6832090999999999,0.66926396,0.9042027
-2.3947475,13.637794,1.4738322,0.6922674,1.4869158000000002,1.1746241000000002
-2.969471,13.314731,1.9197571,0.7710515,2.5265560000000002,1.4477158
-4.1037669999999995,13.447742000000002,1.5399218000000001,0.75188786,3.605571,1.7713696
-4.9978385,13.58177,1.0527209,0.6007249,4.1033040000000005,2.166896
-5.2445273,13.422632,0.71907455,0.42345178,3.5012352,2.41016
-3.3044772000000004,12.240136,0.63131267,0.41654027,2.1810682,2.3202057000000003
-1.6372606,10.805261999999999,-0.2102109,0.36969563,0.9082868000000001,2.1083403
-0.18875886,8.947122,-0.67615134,0.19401079999999998,0.2327571,1.9869526999999998
0.01571554,6.8447065,-0.29344293,-0.027960173999999997,0.30143583,1.9071038
-0.17259322,5.8412394999999995,0.7997878,-0.125367,0.8875174000000001,1.9273322
-0.5352094000000001,5.098586599999999,0.9677075999999999,-0.08223991,1.4219722,2.023692
-0.21509507,4.626029,0.6826539,0.22010347,1.6780293000000002,2.2073352
0.08600930000000001,5.1481752,-0.85266143,0.5767614999999999,1.3277593,2.4974613
0.70123297,6.5648919999999995,-1.8004205000000002,0.5788908,0.7789229999999999,2.5725105
1.1673744,7.6496949999999995,-1.7202914,0.5198114,0.31421164,2.4490285
1.8066262999999998,8.046289,-1.1134187,0.5054299,0.18325958,2.1791308
2.699836,8.613131,-1.2759947,0.4271867999999999,0.38180822,1.9140328000000002
3.3344047,10.509138,-0.060669072000000004,0.30422834,0.69109803,1.4881723999999998
2.299085,12.471741999999999,-0.18391299,0.20891590000000002,0.93542665,1.0979691999999999
1.7512053,12.865961,-1.0844966999999999,-0.05508259,0.7405956,0.6918135999999999
2.6783360000000003,12.54553,-1.0760596000000002,-0.28558823,-0.31019735,0.014172073
2.5505335,11.898492999999998,-0.116607204,-0.45593235,-1.3913416,-0.66613984
1.1423216,10.735322,0.6996432,-0.56826174,-1.7283123,-0.8961044
-0.36385164,10.3558035,1.7142771,-0.55709165,-1.4472444,-0.8524537
0.39359716,11.360611,2.1262232999999995,-0.43463933,-1.3178806,-1.0440909
2.4470656,13.913098000000002,2.8065693,-0.26162484,-1.6750797,-1.7616479999999999
2.7229927000000003,15.310104999999998,3.2169642000000005,-0.1306728,-1.9316607,-2.4281194
0.121874444,13.745054000000001,3.4075332,-0.06627015,-1.8826866000000002,-2.5031862
-0.75870335,12.731024,1.9393417000000002,-0.14559537,-1.909303,-2.2945147
0.46094128,11.681128,1.134957,-0.3260275,-2.201541,-2.3280423
0.8315158000000001,10.426202,0.21650288,-0.47668433,-2.533712,-2.4275959
0.7465025,9.070098,-0.8227530999999999,-0.71359533,-2.6359183999999996,-2.283868
1.0958741,7.793347,-1.3621763,-0.9770877,-2.4373697999999995,-2.0086646
1.256659,6.957300999999999,-1.257224,-1.1229274,-2.2808661,-1.8100984
1.6260173,6.6327333,-0.95773816,-1.1798948999999999,-2.0588777,-1.6850107
2.459525,6.518626,-0.7113364999999999,-1.1192098999999998,-1.7075429,-1.6386896
2.9568295,6.530319,-1.0124408,-1.0819471,-1.3067106000000002,-1.5513883
3.0829465,7.0339155,-0.81721765,-1.1192098999999998,-0.79141957,-1.3602922
2.6422122000000003,7.865114999999999,-0.15479949999999998,-1.0542661,0.028885199,-1.2618033000000002
1.1749306000000002,7.9385314,0.37002864,-0.9925164000000001,0.5819626,-1.2032473999999997
-0.33145326,8.303246000000001,1.2580572,-0.8067261,0.44835764,-1.1058232
-1.2309165000000002,8.013517,1.6606375,-0.64863414,0.04485496,-0.9163153
-1.8108017,8.312802,2.7109642000000003,-0.45539132,-0.32616714,-0.57936203
-2.0860105,9.048675,3.5650141000000004,-0.15730652,-0.31497958,-0.17852972
-1.8879333999999999,10.274735,3.596771,0.14290756,-0.05787512,0.17386970000000002
-1.7472404,11.705224000000001,3.712564,0.39364156,0.15929620000000003,0.37135372
-2.008716,12.158991,3.3345006,0.6225415,0.14119713,0.55447364
-1.8535240000000002,11.99473,2.1236281000000004,0.72635365,-0.08555604,0.70354223
-0.44358809999999993,11.424432000000001,0.7436678000000001,0.6869616,-0.0977908,0.75516903
0.108993635,10.963242,0.34143229999999997,0.5852786999999999,0.49307296,0.73706996
-1.3461254999999999,10.645607,1.0291429,0.60393625,1.4326186,0.90476125
-2.8361714,10.943638,1.4710071000000002,0.74553484,2.5553017000000002,1.3045288000000002
-3.227566,12.678225999999999,0.47948199999999996,0.7502996,3.6050475,1.7772337999999999
-2.5382657,13.987252,-0.21193475,0.6800501,3.7407815,2.0135863
-2.2980697,13.643760999999998,0.15897499,0.67685616,2.9747741000000003,1.9055331000000002
-1.475489,12.023786999999999,0.24289654,0.68109727,1.8270805,1.6835271
-0.72619015,10.019035,-0.3451194,0.51609385,1.0807601999999998,1.5882496000000002
-0.12979446,8.173822999999999,-0.6816867,0.17858209,1.0450857,1.5898553
0.059222974000000005,6.691449,0.47442544,0.043388885,1.2947551000000002,1.5153297
-0.37343803,4.948585,0.96687436,0.11791444599999999,1.612021,1.4716791
-0.91987145,4.340371599999999,0.42804495,0.3356268,1.6242558,1.609019
-0.87473595,4.8841524000000005,-0.5925266,0.4314454000000001,1.3660866000000003,1.8192788
-0.5560390000000001,5.4857,-1.3909162,0.31379274,0.96577793,1.9640714
0.34834677,6.1813593000000004,-1.0883658,0.15196581,0.761365,1.9678063000000001
1.6311697,6.8638414999999995,-0.6567774000000001,0.10992084,0.5446998000000001,1.7985269
2.70993,7.875037,-0.36020285,0.19350465,0.34402186,1.5217177
3.0934904,9.625246,-0.6482349000000001,0.23130849,0.29131290000000004,1.2214861000000001
2.4581077000000002,11.722126,-1.1884433,0.08332202,0.58622116,0.9558645
1.7823778000000001,13.395442999999998,-0.60745686,-0.029513517000000003,0.69907415,0.6673441
2.5584917000000003,13.504418,-0.8762011999999999,-0.113638386,0.09754645,0.07698647
2.7992527000000003,13.163885999999998,-1.4258429,-0.34573227,-0.9047960999999999,-0.69273865
1.7667484,12.471119,-0.7262763000000001,-0.5991192,-1.4866365,-1.1196636
0.12565728,11.211051,1.0220081,-0.6736446999999999,-1.4184989,-1.2261287
-1.1559685,9.648852999999999,2.4259584,-0.55440384,-1.1017566,-1.1947303
-0.6760172,10.671714,2.1578077999999996,-0.39416516,-1.0299014000000002,-1.2431631
1.1853788,14.305814999999999,2.6276650000000004,-0.21689206,-1.4195635,-1.6072737
1.273227,15.471801000000001,3.0164737999999995,-0.12428489,-1.7096721999999998,-1.9218868000000002
-0.060908493,13.728697,3.630778,-0.030578168,-1.5813905000000001,-1.8808889
-0.26353458,13.286527,2.5105214,0.01303761,-1.29287,-1.6637002
0.56649685,12.747419,1.5766488,-0.02581342,-1.3599431999999998,-1.7062862
0.17266983,10.966421,0.8169590999999999,-0.09073967,-1.6425991999999998,-1.8340443
-0.22314917,8.764789,-0.11661678,-0.24352579,-1.9774406000000002,-1.7510016
0.16875291,7.130555,-0.7571901999999999,-0.46975538,-2.1451144,-1.6008857
0.9746029,6.4490504,-0.6294356,-0.6310587,-2.1648192,-1.5487178999999998
1.5889454,5.953767,-0.61009043,-0.72261864,-1.8975917000000002,-1.5284896000000001
1.8206468,6.1191483,-0.62629443,-0.8120493000000001,-1.5664854,-1.4119190000000001
2.3536344,6.2628580000000005,-0.61259,-0.8988096999999999,-1.0511943000000001,-1.2660444
2.6688838,6.745424000000001,-0.52458876,-0.9179908000000001,-0.48212975,-1.2452923999999999
2.0475214,7.164111999999999,-0.5104917,-0.8945685,0.023020892999999997,-1.274038
0.26652253,7.0862145000000005,-0.3817315,-0.8642171999999999,0.124162726,-1.1462799
-0.3318172,7.3683186,0.08868123,-0.82534873,-0.036041047,-0.92003286
-0.75522697,7.548037,1.2784655,-0.66565114,-0.3719471,-0.691674
-0.9224189,8.026781,2.345925,-0.36648422,-0.49064696,-0.33075735
-1.0765383999999998,8.6127,3.0778804,0.007731808299999999,-0.22235495,0.052499502999999996
-1.3467385,10.134158,3.2517664,0.4096113,0.25033256,0.38360593
-1.7233942999999998,11.530064,3.0744808,0.71359533,0.5686631999999999,0.6476568
-1.8155806,12.538358,2.3429081000000003,0.883922,0.48562040000000006,0.8547226000000001
-1.4693025,12.669752,1.1115416,0.85997605,0.13693853,0.94095933
-0.6837744,11.935765,0.41078752,0.73008865,-0.091402896,0.913802
-0.5017672000000001,11.61593,0.19647777,0.60552454,0.23116885,0.92071354
-1.2297768999999998,11.930411999999999,0.51051086,0.5570742,1.1217406,1.1171503
-2.0904636,12.660701,0.73844844,0.59646624,2.0852497,1.3902246
-2.4617183,13.7478895,0.25640944,0.65291023,2.8864080000000003,1.7176135
-1.9835769,14.611153,-0.19512744,0.65928066,3.054082,1.8900868999999998
-1.4717828000000002,14.383023000000001,-0.12761095,0.6369229999999999,2.569142,1.9140328000000002
-0.5402085,12.488434,0.27435637,0.55813885,1.6604539,1.7660463
0.71469796,9.918028,0.26642677,0.39046505,0.97481877,1.5116121999999999
1.200788,7.6620774,-0.079956755,0.13547246,0.7608239,1.273654
0.80572546,5.5138370000000005,-0.037081394,-0.16580628,0.98281235,1.1592128000000002
-0.102902785,4.129538,0.2122795,-0.26054275,1.4155841999999998,1.2741951
-0.6997773,3.4317434,0.060506262000000005,-0.20943952,1.5358896999999998,1.6010429
-0.258411,4.331848,-0.07638461,-0.03324852,1.5241786,1.8868929
0.48912582,6.0842123,-0.6134328,0.107808985,1.4911745,2.0034810000000003
1.2412596000000002,7.696956,-1.0833283999999999,0.17859954,1.2638801000000002,1.8863693
1.2970828,8.433527,-1.1322753,0.17486453,0.94554955,1.7096198
1.8618845000000002,8.892677,-1.3543041,0.14133677,0.7395309,1.5510043
1.7090098999999999,10.508171,-1.6110775,0.00827286,0.8369552,1.4147290000000001
1.3578572,12.399159,-0.7531680000000001,-0.036442474,0.7171732,1.1304671999999998
1.1041005,12.880805,-0.028663384,-0.011414453,0.15823156,0.5156225999999999
2.2133439,12.687391,-0.89650404,-0.10458013,-0.9654812,-0.26581365
3.3720129,13.037175,-0.6647453000000001,-0.4356691,-2.0146859,-0.9945584000000001
2.6189310000000003,13.006768,0.99168795,-0.5980545,-2.335687,-1.3581454
1.2475132,11.370227,2.3796162999999995,-0.57409114,-1.884275,-1.4348003
0.22280441,9.57131,2.2736106,-0.5171236,-1.2784886,-1.4550287
0.43863690000000005,10.09089,1.9975975,-0.51340604,-1.1443424999999998,-1.6769995999999998
1.2540541,11.795494,2.5182787999999996,-0.41704643,-1.5010006,-2.0826316000000005
1.35304,13.107516,2.8721992999999997,-0.29354692,-2.0083156000000004,-2.3663697
1.1304655000000001,13.212276999999998,3.1144445,-0.21582742,-2.2451916,-2.374346
0.97948706,12.871744999999999,2.5887737,-0.17804104,-2.107328,-2.2109308
1.4848456,11.821294,1.4670231000000002,-0.23924974,-2.0200267,-2.1193707
1.2688598999999998,10.258934,0.55121225,-0.3803247,-2.0397138999999997,-2.07572
1.0158311,8.66317,-0.35391090000000003,-0.5905845000000001,-2.0785825,-1.9271926
0.9598546,7.304288000000001,-0.42685740000000005,-0.8014028,-1.8864042,-1.7962580000000001
1.563634,6.298139,0.01858858,-0.8631351,-1.5478452,-1.718521
1.5740345,6.174091000000001,0.19475393,-0.8461006999999999,-1.2854176000000002,-1.6424072
1.8354526000000002,6.075871,-0.16026787,-0.8791049000000001,-0.90373147,-1.460352
2.3813305000000002,6.9654603,-0.17639521,-0.890275,-0.43209115,-1.3544104
2.4990964,7.713390400000001,-0.43766963,-0.9089151,0.13535029,-1.3661215
1.637835,8.51925,0.2003468,-0.8317191999999999,0.30250046,-1.3464341999999998
0.41274120000000003,8.870508000000001,0.8703019000000001,-0.6294529999999999,0.31634092,-1.2080296
-1.0603536,8.223326,1.408461,-0.43303365,0.2258456,-0.9370673
-2.1165317999999997,7.732946000000001,2.3939526,-0.27757716,0.060301125,-0.50003684
-2.173916,7.886424000000001,3.7950013,-0.04865978,-0.16006415,-0.056059975
-1.9575185000000002,9.039538,3.787579,0.23184954,-0.23726006,0.26810002
-1.5809296,10.489869,3.239623,0.41921064,-0.0067718774,0.47036624
-1.3001665,11.565546000000001,3.2877273999999996,0.5863608,0.22797489999999998,0.6354046
-1.0088495000000002,12.20657,2.3580778,0.6986901999999999,0.27269024,0.7620979999999999
-0.91635674,11.668314,1.0434792,0.6827204000000001,0.21146409,0.83555895
-0.8773504000000001,10.85985,0.2871797,0.60074234,0.51382494,0.9377654000000001
-1.4356878999999998,10.695052,0.12558067,0.5310164,1.2921021000000001,1.1150385
-2.6850492999999998,11.063338,0.66094327,0.5900958000000001,2.2364473,1.4381511999999999
-2.9712617000000003,12.739423,0.38968986,0.72211254,3.2313549999999998,1.8586884
-2.4657310000000003,14.682001000000001,-1.0563886999999998,0.6933844,3.7706093999999997,2.167437
-2.385573,14.825652999999999,-0.8030823,0.6284233,3.4921943999999994,2.26165
-1.8515797999999999,13.392054000000002,-0.12448891,0.66833895,2.6399326000000003,2.2169347000000004
-0.89278823,11.010858,-0.23742819,0.6273586,1.5971159,2.117922
0.17469053,8.811342,-0.08100063,0.46181409999999995,0.97429514,1.9412075
0.40936059999999996,6.868332400000001,-0.008676587,0.27228883,0.90509284,1.7910743000000002
-0.0443885,5.1787925,0.22668302,0.05030039,1.2415226000000001,1.7154841
-0.6754713000000001,4.2209010000000005,0.20182163,-0.062517695,1.452847,1.8256842
-0.48530468,4.3408694,0.31154308,-0.0050440015999999996,1.3032721999999999,1.9874936
0.63990307,5.1389146,-0.47343904,0.081716314,1.0269866,2.0370088
1.7906042000000002,6.4161444,-1.3097816999999998,0.070005156,0.77040577,1.8927572
2.3701255,7.129971,-1.3210343,0.05297074,0.48242646,1.6207302
2.8869762000000003,7.3164797,-1.307464,0.051923542999999996,0.39992476,1.2853652
3.6736822,8.194059,-1.3230742,-0.08328711,0.63573617,1.0250667
3.3124642,10.867138,-0.5917413,-0.20359266,1.1377103000000002,0.8249124
2.3765326,13.477096,-0.49244899999999997,-0.23712043,1.1190877000000001,0.49645892
1.8077947,14.1000185,-0.730107,-0.28874728,0.44409904,-0.027314402
2.6247826,13.600982,-0.8002859,-0.42664573,-0.9351474,-0.7811045999999999
1.6462244,12.591528,0.031057585,-0.6645865,-1.7272476000000003,-1.3123653999999998
0.2441607,10.806393,1.8408825,-0.6800151999999999,-1.7357648999999997,-1.4454467
-0.9177358,9.537868,3.031356,-0.5187293,-1.2651892,-1.4071194
-1.7516459,9.471041,3.0124228,-0.35796702,-0.7850315999999999,-1.3453696000000002
0.12447933,12.088266,2.6087031,-0.28982937,-1.0043497,-1.5689461999999998
2.4077337000000005,15.902689,2.949599,-0.20891590000000002,-1.6740150000000003,-2.1502457
2.0092523,15.590726,3.8176792,-0.18390535,-2.1898296000000004,-2.5244792
0.33024663,13.691730499999998,3.9193082,-0.0657291,-1.9199494,-2.3072903
0.1727656,12.418753,2.8142211,-0.027384216,-1.5026063,-2.0054529999999997
0.42504743,10.569192999999999,1.5896925,-0.023125613,-1.3780421,-2.008106
-0.34955344,8.579564,0.30143000000000003,-0.116291285,-1.6330173000000001,-2.0262225
-0.5633078,7.261000999999999,-0.7682323,-0.3414562,-2.049296,-1.8766303
0.16601394,6.3151765,-0.97987014,-0.6204122,-2.321323,-1.7392903999999998
1.2591298999999998,5.7113585,-0.7055425000000001,-0.79180354,-2.2255042,-1.7041568999999999
1.8625740000000002,5.9212823,-0.49366522,-0.8801694999999999,-2.0333259999999997,-1.6913811
2.5727806,6.0059505,-0.7156651999999999,-0.9765292,-1.5739379,-1.6344136
3.1551172999999997,6.7499056,-0.72233063,-1.0398671999999998,-0.9335416999999999,-1.5620173000000002
2.9062927000000003,7.6431727,-0.7119207,-1.0532013999999998,-0.21809635,-1.5481943
1.5336968999999998,8.253695,-0.50638324,-1.0164623,0.2151991,-1.4875093000000001
-0.056982002999999996,8.412268,0.25874615,-0.9211673,0.33176965,-1.3027836000000002
-1.413891,8.274083000000001,1.2479632999999999,-0.73326516,0.11671016,-0.9982934000000001
-2.3731709999999997,8.021782,2.780913,-0.45272094,-0.11749557,-0.54208183
-2.8206377000000002,8.485375999999999,4.400054,0.020490166,-0.019547688,0.054087754
-2.7029197,10.01552,4.813696,0.5251521,0.35466835,0.45919612
-3.1064286,11.586269,4.403157,0.8892453000000001,0.49146727,0.7312057
-3.0240874,12.353439,3.5308344,0.98666954,0.12629202,0.89411473
-1.8754548,12.389371,2.3502345,0.8897863000000001,-0.37620570000000003,0.91060805
-0.17405845,11.757982,1.184785,0.6800326,-0.49597022,0.82276565
0.08184339,11.291926,0.5741392,0.4655142,0.07892379,0.8307593000000001
-1.4215142,11.360717,1.0869963,0.32977995,1.2936903999999998,1.1065038
-2.8554783,12.009718,1.9486407,0.38086575,2.5217563999999997,1.5525924999999998
-3.3003782999999998,13.119535999999998,1.2675573999999998,0.45860273,3.3117273000000003,1.9603539
-3.01136,13.6205845,0.52195513,0.47722536,3.3484665999999996,2.2131996
-2.1140513,12.938965,0.7330471,0.545363,2.5430493,2.109946
-1.2312325000000002,11.217008,0.7118249,0.6358758000000001,1.3612870000000001,1.8629470000000001
-0.5466729,8.993712,-0.12394303,0.5597270999999999,0.59793234,1.7756281999999999
0.22864625,7.276275999999999,-0.18852903,0.40854666,0.42706463,1.7751044999999999
0.6806045000000001,5.6684546,0.28307125,0.27387705,0.90935147,1.7522058
0.2892004,4.572044,0.8644409,0.32283354,1.5140731,1.869841
0.048238378,4.3130207,0.59555286,0.5091649,1.8366623,2.1077993
0.14466724,5.354728,-0.06549578,0.6337116,1.8100460999999999,2.3340287
0.58167607,6.60226,-0.8653985999999999,0.6262765,1.5917926000000002,2.3697033
0.8859408000000001,7.2350383,-1.3227963,0.58473766,1.2255528,2.3015656000000004
2.0215778,7.600967999999999,-1.927543,0.499042,0.913069,2.0716012
2.668041,8.250152,-1.3609791,0.36491343,0.76562357,1.6803506999999998
3.0219902999999997,9.574547,-1.2386451,0.21156882,0.78531086,1.2805655
2.9850237,11.635093,-0.7400956,-0.01569051,0.8928405999999999,0.8589638
2.6715841,12.885249,-0.51037675,-0.17592919,0.8044746,0.3692244
2.5164687999999997,13.102267999999999,-0.9472898999999999,-0.3611959,-0.001972222,-0.25677285
3.2706134,13.075205,-1.2938553,-0.61189497,-1.2486783000000001,-0.9594424000000001
2.7355862,12.415975999999999,0.203239,-0.92383766,-2.0349317,-1.5295542
0.7418865,10.666474000000001,2.4950932999999997,-0.93235487,-1.9098264999999999,-1.6019504
-1.4116405,9.829127,3.549203,-0.6912202,-1.2114155,-1.3065186000000002
1.1038226999999998,12.952009,2.7696986,-0.47083747,-0.86966264,-1.3544278
3.0645493999999998,15.991898,3.5844263999999995,-0.20734511,-1.0384185,-2.040063
0.6860633,14.11991,4.6238165,0.017278758999999998,-0.93034774,-2.357329
-1.6782491000000002,12.516321000000001,3.2642450000000003,0.15407766,-0.7067711,-2.0512505
-0.7186245,11.846950999999999,2.0231673999999997,0.12004375,-0.8638158000000001,-1.8473612000000001
-0.025196577999999997,10.992987,1.1596651000000002,0.08595747,-1.2949993999999998,-1.9682078
-0.3591973,9.580303,0.2704969,-0.07213446,-1.7506700000000002,-2.0251580000000002
-0.26164794,7.9964614,-0.22581153,-0.32126275,-2.1142395,-1.9133695
0.5934268,6.9428115,-0.34943855,-0.55335665,-2.3841372000000005,-1.7909346999999998
1.3684393999999998,6.453110700000001,-0.32298740000000004,-0.7210479000000001,-2.3612385,-1.7334435000000001
1.8206276000000001,6.4074965,-0.1559966,-0.76735145,-2.2680902,-1.6647823
2.2322004,6.875448,0.025857377999999997,-0.6997374,-2.0200267,-1.6504008000000001
2.3851805,7.6819973,-0.4663905,-0.75988144,-1.6191768999999998,-1.4497053999999998
3.0707552000000002,7.6775537,-0.7687495,-0.9536478999999999,-0.93088883,-1.2239993999999998
3.0686674,8.165492,-0.32061234,-1.0191325999999998,-0.09087929,-1.1936656
1.432403,8.109372,-0.12223837,-1.0558718,0.48774973,-1.1713079
-0.054214302,8.054899,0.982226,-1.0244733,0.46326274,-1.0925236999999999
-1.6124374,7.9567747,2.2651063999999996,-0.79822636,0.017174039,-0.81412625
-2.4768302,8.040227999999999,2.866664,-0.47190213,-0.33414328,-0.40530035
-2.0127669999999998,8.687505,3.124347,-0.046582837,-0.43209115,-0.0044505894
-1.1099424,9.993675999999999,2.9153717,0.31164598,-0.28571040000000003,0.18662806
-0.9150256,11.046857000000001,2.765686,0.56983256,0.04431391,0.37135372
-0.7442328,11.618333,2.1874,0.64915776,0.13906783,0.5166698000000001
-0.47024035,11.634307000000002,1.2866343999999998,0.6039014,0.11512191599999999,0.5491504
-1.2412404,11.619261999999999,1.450235,0.5150117000000001,0.5314004,0.6497512
-3.1472166,11.846998,2.408251,0.5905845000000001,1.4608406,1.0218554
-4.3291473,12.185855,2.3365014,0.7082196999999999,2.3514123,1.4833728000000002
-4.4033584999999995,13.272639999999999,1.5989149,0.714084,2.9705155,1.802768
-3.8422627,13.840842000000002,1.1530379,0.6443581,2.8986428,1.8522830000000001
-3.0290484,13.808117999999999,0.6866762,0.53044045,1.9340692,1.671816
-1.4372776000000003,12.801231,0.48268062,0.41865212,0.8167268,1.4115176
0.22178927,10.460497,0.48794788,0.29037043,0.18645352,1.220404
0.88691765,7.6839889999999995,0.23389435,0.14289011,0.348263,1.1693008
0.6661914000000001,5.884412,0.5752404999999999,0.020996312000000003,1.025922,1.2933413
0.17696981,4.507228400000001,0.7561368,-0.06096435,1.763725,1.4870903
0.1673547,3.5227804,0.7911496,0.13917255,2.1688335,1.7623113000000001
0.17776470000000003,4.1118307000000005,0.018952502,0.47399652,2.1768095,2.0455083999999997
0.29868147,5.642683,-1.2727864,0.5847201999999999,1.7131628,2.202012
0.41815212,6.9919114,-1.7977102999999999,0.530423,1.1025768999999999,2.250445
1.0015329,7.706571,-1.5999205,0.47720793,0.7528478,2.1764605
1.8501048999999998,8.697550999999999,-1.5881985,0.4149170999999999,0.556952,1.9880172999999999
2.3917787,10.990439,-1.0062925999999999,0.33505085,0.7320784,1.7165313000000002
2.5970767,12.581002999999999,-0.64657813,0.22275637,1.0403035,1.3896834999999998
1.9058803,12.703922,-0.020350713,0.13065535,0.95300215,0.9334893
1.6831523999999998,11.954689,-0.83609354,-0.017837266,0.41587704,0.48207740000000004
2.2292507,11.294435499999999,-0.62697434,-0.2376964,-0.62001073,-0.066217795
0.8578041,10.500049,0.88799983,-0.3255388,-1.277965,-0.41381755
-0.44355938,10.432926,1.7262577000000001,-0.33033848,-1.4020056,-0.45694464
1.2650003,13.175235,2.39424,-0.17596409,-1.5867136999999998,-0.71459013
3.9747195,15.776976000000001,3.9431927000000004,-0.06574655,-1.7575815,-1.549259
1.3279967,14.994597,4.696198000000001,0.041748274,-1.2428315,-1.9298804
-1.4943361000000002,14.347282,3.4885721,0.06356489,-0.5050285,-1.7398490000000002
-0.8395029,14.594029,2.0609767,-0.09238028,-0.7062475,-1.9117813000000001
-0.87918913,13.266339000000002,1.1629213,-0.30796334,-1.6740150000000003,-2.4771109
-1.0104393,10.642888000000001,0.42399395,-0.6284233,-2.627401,-2.6378732000000005
0.18503347,8.350017999999999,0.060563724000000006,-0.9100321,-3.0224042,-2.5958283
1.5055124,7.1958494,-0.26907954,-1.1133803999999998,-2.8280966,-2.5250201
1.6510607,6.0597725,-0.6121303000000001,-1.2634961999999998,-2.4277877999999995,-2.361605
1.3027043,5.9501753,-0.7129358,-1.3284573999999998,-2.308547,-2.181679
2.23515,6.642186,-0.32770875,-1.2342271,-1.9263374,-2.1183236
2.7172081,7.033963000000001,-0.5363778,-1.0915638,-1.5632913999999998,-2.1311169
2.4885237,7.511280999999999,-0.8565879000000001,-1.1879233999999999,-1.2476312,-1.8303441999999999
3.0661007999999996,8.093474,-0.17363709,-1.2320802,-0.5119574,-1.6094203999999999
2.0985467,7.873044999999999,-0.1881651,-1.2278391000000002,0.33602825,-1.5120136999999998
-0.0020494366,8.189319,0.79654133,-1.1112511,0.64051837,-1.3299583000000001
-1.1775833,7.908402400000001,1.7770052,-0.8706575000000001,0.42120029999999997,-1.0856297
-1.6897126,7.815996000000001,2.7960062000000003,-0.5714732,0.15343189,-0.77740455
-2.5717845,8.132931,3.6766699999999997,-0.27605873,0.09061749,-0.38774234
-3.5767841000000002,8.740492999999999,4.3052244,0.08061676,0.053895768,0.033841934
-3.4321265,9.4811535,3.9906268,0.41702896,-0.13294172,0.31756267
-2.4706342,9.946587,3.4490773999999997,0.6081251,-0.32457888,0.45544368
-1.6799346999999998,10.125893,2.9927616,0.6948854,-0.42252675,0.59437186
-0.9272743,10.059517,2.2424476,0.6895796,-0.15049975,0.7572635
-0.8932767,10.143802,1.5865991000000002,0.657099,0.51008993,0.91856676
-2.02243,11.106299,1.4692641000000002,0.6523168,1.5491891000000002,1.1900527
-3.0770855,12.067849,2.1401289,0.7582408,2.7607617,1.5781093000000002
-3.6753294000000003,13.6185255,2.1949563,0.89877474,3.7838912000000002,1.911345
-4.7670565,14.489211,1.6886497,1.0393261,4.2443614,2.321253
-5.100856299999999,14.381691,0.7746583,1.105317,3.8344709999999997,2.7236736
-3.5560023999999997,13.858156,0.032340877000000004,1.0169336,2.699553,2.985054
-1.2918346,12.156684,-0.10550768,0.84182465,1.3980086999999999,2.9595025
0.8817653,9.556016,0.28484297,0.6517932,0.51595426,2.5283189999999998
1.0926658,7.321803999999999,0.34238043,0.3904127,0.28438395,2.1083055
0.36135209999999995,5.171648,0.42634985,0.1306379,0.64371234,1.9677714
-0.64277613,3.4096208,0.65118456,0.04972443,1.1605916,2.1578205
-0.39893144,3.0701807,-0.01823424,0.15671311,1.4224957,2.487862
0.5080017,4.928780000000001,-0.5503791,0.30044097,1.4155841999999998,2.5895276000000003
1.5217353999999998,7.386073599999999,-1.5277208999999998,0.32599258,1.2026540000000001,2.4495347
2.174893,8.406253,-1.7130418,0.25733134,0.70759135,2.0620017
2.7947612,8.033983000000001,-1.3645896,0.18704693,0.2726728,1.5775682
2.8314692999999997,8.469412,-0.88382435,0.049706977,0.29290116,1.1618308000000002
2.063984,9.676463,0.0042999859999999996,0.048642326,0.53298867,0.98084015
2.3715045,10.64442,-0.39762902,0.06941175,0.5686456999999999,0.81955427
3.331915,11.708182,-1.2201809,-0.02851868,0.2327571,0.46715483
4.4813614,12.201273,-1.2803999,-0.2441192,-0.5476145,-0.14554301
3.6465224999999997,11.648480000000001,-0.40117243,-0.45759043,-1.2066333,-0.7481354
1.8101313,11.198217,0.56029105,-0.5757492,-1.3604841,-1.0329207
0.34385526,11.103100999999999,1.1330416,-0.6327168000000001,-1.1731056,-1.0787182
0.51449484,11.8977165,1.7867258000000001,-0.5853311,-1.2694478,-1.2309458
2.4625895,14.469960999999998,2.5263138,-0.35749578,-1.7150129,-1.737196
3.465061,16.500006,2.962997,-0.16161749,-1.969988,-2.2759093999999997
1.2731408000000002,14.511381,3.3304305,-0.08229227,-1.5979012,-2.3552346
-0.16950947,12.696126,2.3990765,-0.002443461,-1.0149962,-2.0134642
0.6608093,12.143189,1.6711335999999999,-0.01733112,-0.93408275,-2.0379511999999997
0.50338566,10.533041,0.718816,-0.11156145,-1.2886115,-2.4100554
-0.590889,8.281706,-0.23637474,-0.34950218,-1.8108313999999999,-2.6272439999999997
-1.1903110000000001,6.883684,-0.6318585999999999,-0.61994094,-2.2303037999999997,-2.447318
-0.4344327,6.310905,-0.6105789,-0.8563109,-2.6912978,-2.1838257000000003
0.30923507,6.561779,-0.48284346,-1.0042624,-3.0021758,-1.9868479
1.230227,7.1657589999999995,-0.25180298,-1.0633593000000001,-2.9840767,-1.9250982
2.0461419999999997,7.722775500000001,-0.18885463,-0.9829694,-2.5912206,-1.9192513
2.3216097,7.902129700000001,-0.60612565,-1.0676353,-2.2036877,-1.6754463
3.3933212999999998,8.154603,0.059290014,-1.1746415000000001,-1.4674728000000001,-1.4199301000000002
2.9915264,7.690740600000001,0.011511322,-1.1762472,-0.24527112,-1.3789498
1.5432066999999998,8.196933,0.66836536,-1.1394906,0.4339761,-1.3730854
-0.40339425,8.298418,0.99067277,-0.9680643,0.5665164,-1.249586
-1.6789004,8.450277,1.24306,-0.77965605,0.3503923,-0.94828975
-2.8496172000000004,8.531986,1.4664198,-0.65774477,-0.008901179,-0.5367935
-3.1526082000000004,8.939519,3.2828144999999997,-0.39690533,-0.46617743,-0.14660765
-2.457035,10.1090765,4.094037,0.03160791,-0.47256535,0.15892968
-2.0156495999999997,10.885938000000001,3.9201891000000004,0.37920767,-0.21970205,0.40432298
-1.7352791,11.218042,3.1170877999999997,0.61716586,-0.1579523,0.5869193
-1.3476962,10.976389999999999,1.9307321,0.7071201,-0.17924531,0.6875201
-0.51150686,10.24817,1.0333662000000001,0.7342774999999999,-0.054157566,0.7338411
-0.3040349,10.067598,0.4334367,0.69169146,0.37700856,0.7498109000000001
-1.5745898,10.267774000000001,1.1688589,0.72308993,1.3916209,0.98776907
-1.9114157999999999,11.414098,1.2229966,0.82049674,2.6750486,1.3555973
-1.4578295000000001,12.953425,0.37796783,0.73267174,3.6870081,1.5424347
-2.318229,13.391269,0.4422282,0.73640674,4.1048922999999995,1.7101258999999998
-3.2667637000000003,13.462673,0.28643270000000004,0.9615716999999999,3.9036732000000005,2.0103574
-3.7798986000000006,13.104471,-0.13091494,1.1489502,3.33035,2.352634
-2.9389498,11.847697,-0.5050425000000001,1.1004999,2.3886576,2.5384067999999997
-1.1109958,9.66793,-0.96653926,0.83116066,1.378845,2.35691
-0.23308033,7.80979,-0.46137226,0.45265114,0.8555603999999999,2.0172689999999998
-0.29559773,6.0654035,-0.027581203999999998,0.21259856,0.91891587,1.6909622
-1.2642151000000001,4.279003599999999,-0.20480002,0.08005825400000001,1.1526154,1.6025962
-1.30597,4.216840299999999,-0.30289525,0.15241960000000002,0.99077106,1.9139979
0.041323923,5.5139135999999995,-0.6945388000000001,0.32862803,0.5787686,2.1961303
1.4272124,7.3029284,-1.1180348,0.35365605,0.43291146,2.1503502999999995
1.5975358,8.308292,-1.2798253000000002,0.33714524,0.57290435,1.9954348999999998
2.2721932000000002,8.466510000000001,-1.5538847,0.33023375,0.7405956,1.7921041000000002
3.3640928,8.848835000000001,-1.6637115000000002,0.33714524,0.76293576,1.4338403999999998
3.1880615000000003,9.662347,-1.9472139,0.16947147,0.69533914,1.0271436999999999
1.6872035,10.869389,-1.5974306,-0.12222540400000001,0.8161858000000001,0.8381769
1.5088928999999998,11.784883,-0.9693261000000001,-0.26862362,0.62667793,0.5970248
2.7220732999999995,11.883313000000001,-0.61049265,-0.32930872,-0.27773425,-0.08485791
2.3318088,11.754821000000002,-0.85835963,-0.5837428000000001,-1.1837521,-0.685321
0.6692176999999999,11.091944,0.9880200000000001,-0.72853535,-1.5441277,-0.93603754
-0.40440938,10.070644,2.0609193,-0.6891607,-1.3828418,-1.0057809000000002
0.3118304,10.626138000000001,1.5806712,-0.6311285,-1.3844299999999998,-1.27142
2.3935218,13.614695999999999,1.7581197,-0.59386575,-1.8848159,-1.8548486000000002
3.2205939999999997,15.512253,2.675051,-0.53691566,-2.227651,-2.3669457
1.399545,14.059451000000001,4.0696354,-0.3649658,-1.9609473000000002,-2.4297602000000005
-0.07273584599999999,13.635879000000001,3.1965177000000002,-0.23507840000000002,-1.3280035,-2.1699853
0.19045396,13.207787,1.9745269,-0.24040166,-1.1613944999999999,-2.1321814
-0.08807789,11.617577,0.90959555,-0.32185617,-1.5292226,-2.2338642999999996
-0.27067888,9.669549,-0.28980374,-0.5214694999999999,-1.9710526000000002,-2.1577332
0.09036675,7.6271605,-0.94472325,-0.7945437,-2.3074822,-2.0017705
0.7099383,6.9648285,-0.8349252,-0.97342247,-2.48582,-1.8841178
1.4511448,6.642531,-0.6299431999999999,-1.0825405000000001,-2.3623207,-1.8548486000000002
2.2514212000000002,6.4796867,-0.6826061,-1.1022278,-1.9369838,-1.7851053
2.5245135,5.8767977,-1.1751987,-1.1677126,-1.5212463999999999,-1.6051792999999999
3.2473707000000003,6.479265,-1.1261462,-1.209775,-0.85105747,-1.3581803
3.39109,7.490471,-0.8299931,-1.1661242,0.008115780999999999,-1.2703553
1.8903947,8.312209,0.053093817,-0.98778653,0.55641097,-1.218711
0.26334304,8.492875,0.7171496,-0.75410444,0.61761963,-1.0286796
-1.0920912,8.176677999999999,1.4108264,-0.5273338000000001,0.22476350000000003,-0.8194670000000001
-1.5429768999999998,7.9815024999999995,2.4173967999999997,-0.33993778,-0.23834217,-0.54637533
-1.6044503,8.353829,3.5677722000000003,-0.08550368,-0.25857052,-0.2578724
-2.231032,9.889145,3.9204767,0.20247565,0.07358308,0.13390166
-2.3125691,11.555941,3.879057,0.43083453,0.33335790000000004,0.48258352
-1.9357982,11.945725,3.7541752,0.74171257,0.31951743,0.73223543
-0.9485826999999999,12.352960000000001,2.1985476000000004,0.8939751,0.11032226,0.8770279000000001
-0.47575662,12.235855,0.5598409000000001,0.7975979999999999,0.11723377,0.8972563
-0.8366969000000001,11.125109,0.49567637,0.6831393,0.6016499,0.9574004
-1.9829352999999998,9.879511,1.2928688999999998,0.7289542,1.4379419,1.1607661
-3.3466915999999998,10.014878999999999,0.97325253,0.8705353000000001,2.4663947,1.5589455
-3.8508723,11.830957000000001,-0.5972958,0.82901394,3.372936,2.1162815
-2.816328,14.640620000000002,-0.8972606,0.7369129,3.3963582999999997,2.402149
-1.6537517,15.88706,-0.10459788,0.84391904,2.2736928,2.2685266
-0.31557494,14.188239999999999,-0.34646013,0.89929837,1.0722256000000001,2.0231333
0.90798664,11.333480999999999,-0.6048903,0.7204195,0.7304725999999999,1.9187801
1.6398845000000002,8.411375999999999,0.09911037,0.5601809,1.1643091,1.9076098999999997
1.1981256,5.944764599999999,0.48840755,0.50162506,2.025088,1.8767351000000003
0.115946405,4.352601,0.260221,0.49790752,2.6085167,1.9012221
-0.70079243,4.1952543,-0.7026599,0.5479460999999999,2.4147502999999997,1.9693598
-0.75131005,5.1294336,-1.2563621999999999,0.5074894,1.6120036,2.105635
0.08645941,6.106871,-1.3391440000000001,0.42498767,0.92956233,2.0886006
0.46015596,6.325577,-1.3622816,0.3286106,0.5223247,1.9187801
0.7154545,6.459077400000001,-1.0010828,0.38664278,0.5106135,1.8325433999999998
2.1592062000000003,6.944142299999999,-1.2771055,0.48993137,0.60857886,1.7356776000000003
3.6764019999999995,8.224485000000001,-1.8312960999999999,0.41380012,0.65701175,1.3566619
2.936661,10.466186,-1.3845379999999998,0.22800982,0.81564474,0.8908684000000001
0.90300673,13.2590885,-0.66385466,0.014032447,0.7948753000000001,0.693908
2.4632695,13.512376000000001,-1.2425716,-0.14086552,0.15236725,0.31011009999999994
4.240026,12.353641,-1.4972668,-0.51829296,-0.8962964,-0.53681093
2.3650596,11.559407,-0.49081135,-0.77911496,-1.3482493999999998,-0.93232
0.7892151,11.2825985,-0.0145759005,-0.87228066,-1.3583548,-0.97864103
0.34668043,11.450873,0.5262168,-0.8387353999999999,-1.3248271,-1.0861708
1.3984531999999998,12.526626,0.7524496999999999,-0.7594102,-1.6181296,-1.4028957
3.5609248,14.499935999999998,1.3567846000000001,-0.6566976,-2.4022536,-2.0789664
3.2308220000000003,14.706373999999999,2.7636652,-0.5933421,-2.8744175,-2.5330312000000004
1.262271,13.420765,3.7432383999999996,-0.44854963,-2.4789084999999997,-2.3664047999999998
0.48890558,12.681378,1.8531984000000001,-0.40116394,-1.592578,-1.9847361000000001
1.120017,11.721964,0.87142235,-0.46186647,-1.1236081,-1.9549258000000003
0.7990792,10.127243,-0.22554338,-0.56990236,-1.2854176000000002,-2.1753085
0.52307564,8.708554,-1.1098561000000002,-0.7801796,-1.7245947,-2.2093773
0.38506424,7.5702167000000005,-1.2182657,-1.0319782,-2.1334207000000003,-2.078949
0.5376994,6.9978976,-0.8688271000000001,-1.1714475,-2.3474154,-1.9054109000000001
1.0739048,6.7597604,-0.6035687,-1.2017988000000002,-2.3809607,-1.8032218
2.3301423,7.5842276,-0.30670682,-1.1096978000000002,-2.092423,-1.7803231
3.0399754,7.9107202999999995,-0.5332653,-1.0836226,-1.6186707,-1.7632887
3.3134124,8.013565,-0.50509036,-1.1203443000000002,-1.0016968000000002,-1.6664054
3.4255949999999995,8.169553,-0.2319311,-1.0979866000000003,-0.20268509,-1.6690758
2.063007,7.812941,-0.004003105,-1.0410365,0.35623914,-1.6578883000000002
0.59217227,8.030401,0.42602426,-0.88772684,0.68734556,-1.5125722
-1.4314166000000001,7.6719413,0.06703765,-0.82171845,0.7688001,-1.1899829
-2.3875937,7.728722599999999,1.5329498,-0.72694707,0.42332962,-0.79126245
-2.5384189999999998,7.7650570000000005,3.0444,-0.4469439,-0.13241813,-0.47080258
-2.4798183,7.9153647,3.98331,-0.028012535,-0.20587903,-0.13650220000000002
-2.9389114,8.446361,4.136596,0.39783034,0.07623598,0.27337092
-2.9908175,9.147546,3.5501413,0.7113613,0.28916615,0.6284233
-2.6689029,9.734163,2.8103523,0.8763822,0.11243411,0.86638147
-1.8911512,10.311501,1.4357262,0.8891754000000001,-0.28571040000000003,1.0154326
-0.5079251,11.241427,-0.013809755,0.6746396,-0.36503562,1.0495014
0.12962209,11.987279,0.14064498,0.50162506,0.33335790000000004,0.9813636999999998
-0.9797935,12.366942,1.2248927,0.47448522,1.5172496000000002,1.092611
-2.5580418,12.504914999999999,2.3627226,0.65334654,2.8507335,1.4253231000000002
-4.5213923,13.098084,1.4663049,0.92320937,3.8243480000000005,1.9544544999999998
-4.315759,14.62546,0.69212544,1.0547198999999998,3.9164489999999996,2.5118080000000003
-2.3230077999999996,14.698569,-0.07614519,1.0435497999999999,2.8171882999999998,2.478263
-0.8416385000000001,12.8318,-0.33941162,0.9546601999999998,1.3751274,2.200389
0.5956199000000001,10.475636999999999,-0.785959,0.71455526,0.6564707,2.0098164
1.0869963,8.627496,-0.6145437,0.34353316,0.8555603999999999,1.8714118000000002
0.79220307,7.316872,0.3127689,0.10503391,1.3564874,1.6680635
-0.5213135,5.513923,0.6175221,0.08267625,1.8542028999999998,1.6435765
-1.034726,4.6884312999999995,-0.063800685,0.23226842,1.8983946,1.8905755000000002
-0.58269125,5.2816089999999996,-0.6621786999999999,0.31585222,1.5592946,2.1530032
0.14172716,6.331457,-1.1241543,0.24930283,1.1946603999999998,2.1620615
0.3475519,7.1394134000000005,-1.0487082,0.18702948,0.8992285,2.0555964
1.0474633,7.337892999999999,-1.7914853,0.20406389,0.72408473,1.970948
2.2851985,8.107955,-1.5884954,0.21416935,0.65488243,1.6504880000000002
2.5399034,9.189865,-1.0049422,0.19874065,0.3525216,1.1442553
1.6521044999999999,9.966018,-0.93227345,0.14283775,0.08422959,0.8514763000000001
1.9242008000000002,10.873669,-0.81204623,0.014014994,0.031520646,0.7465995
3.1748648,12.125903,-0.5664298000000001,-0.13821262,-0.08344419,0.3606723
3.5094209000000003,12.190586,-0.41577706,-0.33410838,-0.6333276,-0.32014576
1.977601,10.8711605,0.8689133,-0.46186647,-1.1747113,-0.7369653
-0.050642155,9.445260000000001,1.4012593,-0.46612507,-1.2124977,-0.6757565999999999
0.49666279999999996,9.645951,1.2749986999999998,-0.41235150000000004,-1.1991982,-0.65339893
3.290658,12.233164,1.079172,-0.35700709999999997,-1.5696968,-1.183054
4.7785779999999995,14.716679000000001,2.0609669999999998,-0.24734806,-1.9950161,-1.8915879
3.2441144,14.3028555,2.9841905,-0.039723694,-1.7858207999999998,-2.1236818
0.7681748,12.960369,2.8224572999999995,0.14604916,-0.93408275,-1.9102105
-0.45260948,12.597388,1.2576742,0.06618288,-0.5066342,-1.7100562
0.10172484,12.436489,0.25141034,-0.108926,-0.7461806,-1.8953054
0.08444828,11.50842,-0.30232066,-0.33410838,-1.3961587,-2.1428453999999997
0.09314402,10.027904,-0.21689552,-0.6178291,-2.0918992,-2.1875607999999995
0.5966063,8.321977,-0.08240842,-0.8062723,-2.4033184,-2.1204702999999996
0.89650404,7.2075047,-0.22893356,-0.868022,-2.498596,-1.9575788
1.2814056,6.577522999999999,-0.44313800000000003,-0.87866855,-2.5603456,-1.7877756
1.9267961,7.0120516,-0.30692708,-0.7743502,-2.5316,-1.7419957
2.1705928,7.596735000000001,-0.50955313,-0.71525335,-2.3985187999999997,-1.616908
2.9917657,7.854810700000001,-0.3811186,-0.8477937,-1.9625529,-1.2629027
3.7977593,7.755222,0.25243503,-0.88931507,-0.92132443,-1.13408
2.8305497,7.741536,0.35133475,-0.8408822,0.069848076,-1.1745368
1.2390186,7.6074324,0.17876068,-0.8057486999999999,0.570234,-1.1670842
-0.089619756,7.3125625,0.19101898,-0.75251615,0.5127427999999999,-1.0302854
-0.84100646,7.517152,0.8227626,-0.6471157,0.27426103,-0.77157515
-1.2772205,8.141674,2.0615323,-0.38892916,0.09433505,-0.41277036
-1.8053143,9.4179945,2.6596610000000003,-0.013107423,0.11723377,-0.0736878
-2.0240101999999998,10.60843,2.6799736000000003,0.40634754,0.20080014,0.24089034
-1.8187984000000001,11.515737,2.3731422,0.71933746,0.23434536,0.48682470000000005
-1.2840295,12.174478,1.8326752,0.8806408000000001,0.04803146,0.66675067
-0.27447128,12.406438,0.7867634,0.8614771000000001,-0.27721065,0.68697906
0.2751225,12.257968,-0.040864237000000005,0.72733104,-0.27827528,0.6369405
0.34031183,11.641672,-0.5068142,0.5873381999999999,0.24605651,0.6459986999999999
-0.49416324,11.082654,-0.25433126,0.47659707,1.0935186000000001,0.7636339
-1.3404657,10.660346,0.35523248,0.49897218,1.9319224,1.0090446
-2.370662,10.784394,0.22547634,0.6000966,2.6180985,1.3438686000000002
-2.9990442,11.73358,-0.33152032,0.69378585,3.0567347999999996,1.7409834
-2.8723047000000004,12.919007,-0.86515915,0.74649477,3.0812218,2.084342
-2.0357897,13.188556,-1.2218089,0.7076263,2.5110924,2.2514923
-0.23109794,12.4770565,-0.7540299,0.5873381999999999,1.6396843999999997,2.1950657000000002
1.0270264,10.447597,0.3037763,0.47448522,1.0424154,1.8490542
0.6674171999999999,7.9413276,0.54834884,0.49151963,0.75495964,1.6371886999999998
0.077275254,5.908736,-0.17024688,0.44252822,0.7102443,1.6691281999999998
-0.10416693,5.3281903,-0.39202657,0.30466467,0.81510365,1.7904984
0.30083624,5.3885913,-0.40226418,0.18915878,0.9290212999999999,1.8841877
0.94852525,5.766769999999999,-0.31312326,0.0832173,1.1350399,1.7857162
0.9856065999999999,6.4554095,-0.38217205,0.15985471,1.2601277,1.7260783
1.5787556999999999,6.937525,-1.1894681,0.24237387,1.1467512,1.7196903000000001
2.5723877,7.802397,-1.8631008000000002,0.19128808,1.0338981,1.5046309
2.471161,9.017713,-2.051898,0.09492846,0.7602829000000001,1.2379446000000003
1.9541953,9.992507000000002,-1.3632298,0.06777114,0.5026374,1.0963286
2.0888836,10.867071000000001,-1.1335396,0.016685348,0.231675,0.8871334000000001
2.7827616,11.362958,-0.82593256,-0.005654866999999999,-0.17074557,0.54166293
3.4894245,11.194033000000001,-0.70998615,-0.07913323,-0.8505164000000001,0.026895522999999998
2.8185307999999996,10.665968,-0.56831646,-0.18985692,-1.3184391000000002,-0.25521950000000004
1.7846762999999999,10.997766,0.08449617,-0.26757643,-1.3370619,-0.28023008
3.153968,13.3193655,0.9791902,-0.21647319,-1.2880878,-0.45376816
5.611616000000001,15.262538000000001,2.2253819,-0.030159289,-1.4589729999999999,-1.1074636999999998
3.7661655,13.916441,3.0313275,0.17317156,-1.3359972,-1.5759101
-0.73024106,11.345576,2.06724,0.2626197,-0.766409,-1.246933
-1.4473716,10.789614,-0.12576263,0.037437312,-0.49759337,-0.9275378000000001
-0.34163340000000003,10.834702,-0.87821233,-0.07326892,-1.0288541,-1.2213813999999998
-0.6003221,10.449636,-1.648494,-0.22977260000000002,-2.1866531000000005,-1.5775158
-0.7245045999999999,9.37327,-1.1596651000000002,-0.47729520000000003,-3.0846949,-1.5130957
0.20884143,7.982556,-0.5574564000000001,-0.56459653,-3.275791,-1.3613917
0.68793076,6.986721000000001,-0.66325134,-0.60081214,-3.0745720000000003,-1.2799371000000002
1.0796605,7.4712977,-1.350751,-0.6401868000000001,-2.9382968,-1.1580434
1.8245828000000002,9.201329,-1.5657121999999999,-0.57578415,-3.0096283,-0.97918206
2.2679793999999998,10.130519,-1.1003273,-0.40543997,-2.85206,-0.8482299999999999
1.8951256,9.368329,-1.3317028,-0.3644422,-2.7072675,-0.7497411
1.2357528,8.466156,-1.7915044999999998,-0.47197193,-2.6497762000000002,-0.6459464
0.19560628,7.5251775,-1.9631879,-0.5427799,-2.5347939999999998,-0.42556363
0.30430305,7.6146720000000006,-2.3297114,-0.58590704,-2.3532797999999997,-0.21795672
0.33663434,8.165443,-2.5857186000000003,-0.6338163,-2.2936593999999997,-0.0715585
0.6292058,8.524929,-2.3021305,-0.6098704,-2.346351,-0.06197664
0.8273212,8.321211,-2.2871330000000003,-0.50977576,-2.449622,-0.10297442
1.275669,8.5657835,-2.4005415,-0.44217917,-2.4144886000000003,-0.08594001
2.0914214,8.548794000000001,-2.30893,-0.38575268,-2.2755604,-0.11203268
2.7220926,8.562853,-2.1139650000000003,-0.30377457,-1.8981328000000002,-0.13278465
3.0026162,9.000455,-2.1010172000000003,-0.23244295,-1.3663485,-0.054524086
3.6447315000000002,9.453812,-1.8564545,-0.13182472,-0.81431824,0.0040142573
4.128705,9.583616000000001,-2.3763313,-0.08283333,-0.28625146,0.00029670597999999996
4.255818,10.185126,-2.9464579,-0.14461797,0.30407125,-0.0082205
3.0496192000000004,12.5144825,-1.2691758999999998,-0.027488936000000002,1.3639398999999999,0.055641095999999994
1.6703196,14.759573000000001,0.20185994,0.34032175,2.5371852,0.21746802
1.7330573,15.668623,-0.10671435,0.6139545,3.0258597999999997,0.26165977
2.3747606,16.529272,-1.2234275,0.67355746,2.9082072,0.16423549
2.4204996,16.777779000000002,-2.4901037,0.5862561,2.8863907,0.059376102
2.362062,15.522298999999999,-3.2649152000000004,0.44785148,3.2164322999999997,0.08864527
1.4823747999999999,12.395261,-3.119961,0.30305898,3.573614,0.14561282
0.31623575,9.253791,-3.1846042000000003,0.13325588,3.9265544,0.2999872
-0.44939166,7.073831599999999,-3.4264855000000005,-0.03070034,4.380096,0.42029274
-1.8350886000000002,5.712699400000001,-3.1930704,-0.12864822,4.6664867,0.62629396
-2.5124655,5.788366000000001,-3.156573,-0.090844385,4.5419225999999995,0.7923795
-2.9755905,5.45538,-3.6195827000000005,-0.07592182,3.881839,0.8871509
-3.4635480000000003,5.784123,-3.5873377,-0.031206487,2.9087481,1.0601479
-2.927333,6.0647717000000005,-3.1588619,-0.035482544,1.8898773999999998,1.2422031999999998
-2.1059494,6.291943,-2.2537866,-0.09721484,1.1611152,1.2310157
-1.7241987,6.3489923,-1.6085969999999998,-0.1557881,0.8284205,1.1793888000000001
-1.4147146000000002,6.1470838,-0.9553630999999999,-0.1664346,0.72460836,1.2485911
-0.5752596,6.3016825,-0.84476054,-0.039723694,0.683628,1.3582501
-0.015868768000000002,7.521787,-1.306899,0.098663464,0.7001214,1.4636506
0.10936713,9.985344,-2.3012013,0.19074704,0.7187614999999999,1.5956671999999998
3.027918,13.479365,-3.4220996,-0.12650147,0.51221925,1.2991533000000002
5.193675,15.436414000000001,-1.0148636999999998,-0.28886944,0.14172074,0.4516912
4.937208,13.375151,-1.7159243000000002,-0.40756929999999997,-0.39112827,-0.38456586
2.3000808,11.852285,0.11323616,-0.59337705,-0.21865484,-0.43355724
0.13199714,10.068394,1.3392208,-0.6354046,0.16194909999999998,-0.46602038
-1.3575028,9.917233,2.0842004000000003,-0.571543,0.26841420000000005,-0.583673
1.3447273000000002,12.483607000000001,3.4170046000000003,-0.5055346,-0.4709771,-1.2128816999999998
1.0938629,14.031028,5.415215,-0.37086502,-0.8595746999999999,-1.8500664
-1.0531709999999999,12.769408,5.4669394,-0.36658895,-0.47842965,-1.9778246
-2.0903680000000002,12.699917999999998,4.4442515,-0.3165329,0.005969026,-1.9378914
-1.2175281999999998,13.20837,2.9817867000000002,-0.26544714,-0.163293,-2.1550977000000002
-1.0071832,12.87798,1.8154848999999997,-0.26970574,-0.75630355,-2.4116611
-1.1069448,11.504043,0.88703257,-0.33997267,-1.6314465,-2.4739517999999996
-0.44647074,9.723227,0.44112685,-0.4155629,-2.162166,-2.3871915
-0.011951854,7.9499083,0.42528683,-0.42675045,-2.3995832999999998,-2.2280176
0.43815807,6.6908455,0.028107927999999997,-0.47411868,-2.5816386000000002,-2.0491561999999997
1.5438675,5.715523999999999,-0.27517040000000004,-0.6151762,-2.559281,-1.8958465
2.4970182999999997,5.643133,-0.40183324,-0.7030185999999999,-2.1211860000000002,-1.7292372999999999
3.5564716,6.418394999999999,-0.56369084,-0.7296349,-1.3540963,-1.4950141000000001
3.8989382000000004,7.174982000000001,-0.42902178,-0.7147123000000001,-0.31819096,-1.3459456
3.255626,7.8548303,-0.21467371,-0.6385985,0.45738098,-1.274614
1.8351077,7.8885117,0.11951855,-0.5390623999999999,0.8465196,-1.2533208999999998
0.25993368,7.6852727,0.5304976,-0.48317695,0.8097804,-1.1713428
-0.8997601000000001,7.8105183,1.3618124,-0.44057345,0.47122145,-0.9339257
-1.2081813,8.558946,2.1950613999999997,-0.31281537,0.22689279999999998,-0.5820673000000001
-1.3344513999999998,9.352949,2.7115004000000003,-0.098837994,0.3530452,-0.25148448
-1.7089142,9.986493,3.089861,0.19552924,0.5537406,0.05883505
-1.729782,10.534756,2.9640887000000005,0.49843112,0.6751108,0.34363788
-1.5413487,10.876647,2.3126743,0.7225314,0.8033925000000001,0.5948955
-1.5072074,11.186753999999999,1.6770713,0.82740825,0.8874999,0.8152782
-1.9364400000000002,11.333624,1.085215,0.8577421000000001,1.1148117,1.0676005
-3.2833986000000004,11.531644,0.9643366,0.8747765,1.5843226000000001,1.3901896
-4.68144,11.981935499999999,1.2587658000000002,0.94450235,2.3609767,1.9129156999999999
-4.6401544,12.885105000000001,0.8850693000000001,0.99667025,3.104103,2.4298124
-4.201824,14.367882,0.09866026,0.97433007,3.503347,2.7923348
-3.4766394999999997,15.844404999999998,-1.0089933,0.8226085999999999,3.3180977999999994,2.9488385
-2.4652712,15.65376,-1.0327628,0.6272539,2.2614405,2.7933996
-1.3438079,13.622213,-0.61562586,0.48883182,0.8922996,2.461752
-0.04684974,10.647186999999999,-0.3666576,0.28708920000000004,0.023544492,2.0518615000000002
0.64946073,8.081053,-0.062402472,0.06405358,-0.08237954,1.748977
0.3511815,5.710114,0.032819718,-0.13288938,0.42278856,1.5940616
0.04738604,4.2398534,0.19139248,-0.1626996,0.94553214,1.6829686000000001
0.26343882,4.7109175,0.23008278,0.032096606,0.95192003,1.7872869999999998
0.78905225,5.1544194,-0.5923255000000001,0.21895155,0.7884874,1.830414
1.0082271,5.394405,-0.89974105,0.3083822,0.68682194,1.8538363999999998
0.80870384,5.3762183,-1.3391346000000002,0.3302163,0.6522121,1.8171146
0.94674397,6.103289599999999,-1.6228378,0.26366690000000004,0.76347685,1.7314015999999999
2.3836863,7.515944999999999,-1.1164450000000001,0.28283059999999993,0.87632984,1.474297
3.5931987999999997,8.683032,-1.191144,0.16465436,0.7145029,0.93184876
2.7570286,9.849936999999999,-0.7257208,0.017732546000000002,0.4259825,0.41603413
1.5691885,11.339514,-1.067517,-0.18186331,0.40575415,0.20310396
2.1050012000000002,12.813174,-1.554603,-0.38788196,0.015550883500000001,-0.13226105
3.4877772000000005,13.467776999999998,-1.5119672,-0.5986828000000001,-1.1550065,-0.8136376000000001
3.6610985,12.868231,-0.6696678,-0.6950425,-1.9763933,-1.4742447
2.7267083999999997,11.873517,-0.3123284,-0.8137423,-2.0610244,-1.7393428
1.8109741000000001,11.009439,0.46647668,-0.9207485000000001,-1.694261,-1.8436786
0.8679843,9.849497,2.04461,-0.8089427,-1.2657303,-2.0055056
0.8453639000000001,10.871716000000001,2.148911,-0.53319806,-1.2071744,-2.1673324000000003
1.9446279999999998,14.145365,2.6307201,-0.32559118,-1.5100763000000001,-2.3951502000000002
1.5721287,14.483751999999999,4.052158,-0.14193018,-1.7357823000000001,-2.5378307999999996
-0.5321066,12.494227,4.363576,0.13323843,-1.4616258999999998,-2.3041313
-1.3035375,11.582007,2.180093,0.17371263,-1.0703756000000002,-1.9315035
-1.0378098,10.993255,1.0368521000000002,0.038501963,-1.4392684,-1.9655723999999999
-1.2701911,9.986072,0.17935443,-0.124913216,-2.2153987999999996,-2.0491561999999997
-1.0287023000000002,8.73741,-0.5922489000000001,-0.43737950000000003,-2.8313081,-1.963443
-0.022984337,7.7311068,-0.26148513,-0.68436104,-2.9111569999999998,-1.8101333
0.85410756,7.051900999999999,-0.10387005,-0.7940550000000001,-2.5858972000000002,-1.6546942999999998
1.4842038999999998,6.724077,-0.23723666,-0.9313775,-2.0280201,-1.4822209
2.0399268,7.0099735,-0.19057846,-1.012832,-1.3365382,-1.3693853999999999
2.2983284,7.547979400000001,-0.37058409999999997,-1.0202845,-0.6578146,-1.426859
1.66307,8.337625,-0.27045858,-0.9350951,-0.29263934,-1.4550809999999998
1.2098572,8.625302,-0.7085113000000001,-0.9074315999999999,-0.12761848,-1.384814
0.5635568,8.781778,0.07332003,-0.81002474,-0.14358823,-1.2187284999999999
-0.08769482,8.239989999999999,0.68590045,-0.63861597,-0.07332128,-0.96427697
-0.77207255,7.4524217,1.2057200000000001,-0.45228463,-0.04405211,-0.6571165
-1.3109691,7.118402499999999,1.8679656999999998,-0.21645573,-0.08450884,-0.28342402
-1.770541,7.252917999999999,2.5055417999999996,0.07841764400000001,0.005969026,0.12751375
-1.9346682000000002,8.091387,2.8835285,0.44200462,0.33655185,0.47139597
-2.2959247000000005,9.222713,2.7800032999999997,0.76298815,0.62666047,0.7593753000000001
-2.6321375,10.381451,2.4064026000000003,0.9876295,0.64475954,1.0510896
-2.1620312000000004,11.352097500000001,1.2833591999999998,1.0749308000000002,0.37274995,1.2571083
-0.977361,12.294934,-0.2619544,0.9477138,0.10817551,1.2805306
0.023147142000000002,12.752054,-0.59595513,0.7454301,0.29874802,1.141585
-0.91236323,12.587889,0.51855534,0.6836455,1.1116177,1.1964058000000002
-2.2684488,12.941398,1.231903,0.77255255,2.3966513,1.5232536
-3.8079777000000004,14.007497,0.5947005999999999,0.77257,3.6066182,2.0358918000000004
-3.7147286,15.080635999999998,-0.022792801,0.71616095,3.7822855000000004,2.3473108
-2.6363418,15.151169,-0.18224663,0.65865237,2.7964189999999998,2.1705787
-1.2946981000000002,13.434192000000001,-0.5557516,0.511748,1.3783040000000002,1.8048799
-0.07856812,11.189981,-0.5341847,0.14229669,0.6154904,1.5003723
0.88733906,8.893511,0.29157546,-0.23724261,0.59419733,1.1900353000000001
-0.011405977,6.29563,0.57341135,-0.43526766,0.96256655,1.0100919
-0.9246310999999999,4.0004907,0.57839125,-0.26117107,1.1834729,1.2565671999999999
-0.3996976,3.6352792000000003,-0.21440555,0.038501963,1.0637083,1.4513983999999998
-0.21855229999999998,4.401682,-0.98804873,0.23120376,0.6995978,1.7191668000000002
0.5820975,5.749034,-1.3813778,0.2674019,0.53829443,1.8527718
0.98706234,6.6409984,-1.149169,0.23333307,0.55213493,1.7303369
1.0518493999999998,7.233008,-0.9850608000000001,0.26312584,0.5361651,1.5189948999999998
1.2379746,8.15467,-1.412512,0.22586305,0.5164778,1.2645434
1.8696511999999998,9.682803,-1.4069287,0.05445427,0.34985125,0.97815233
1.6963494,10.864753,-0.66713953,-0.09775589400000001,0.18750072,0.5847726
1.2836465,11.210466,-0.5829115,-0.20263273,-0.04351106,0.18181095
1.3792325,11.890171,-1.1663593,-0.37884116,-0.5188864000000001,-0.24083798
2.5571509999999997,12.239092,-0.6877105,-0.53000414,-1.2715945,-0.7752927
2.2337232000000005,11.713239999999999,0.14180377,-0.6838549,-1.5936427,-1.2474741000000003
0.29683313,10.829818,1.2088324,-0.7482576,-1.2598833999999999,-1.3118768
-1.0091847,10.074169,2.7028525,-0.5955063,-0.75736815,-1.2655731000000001
-0.7489254,11.580504,2.4296935,-0.34369025,-0.6705904,-1.3725618
0.67004126,15.570403,2.7449427,-0.15311773,-1.1220024,-1.6749227
0.97678643,16.906260999999997,3.91814,-0.02804744,-1.4962358,-1.9618547999999998
-0.77499354,14.741847,4.8159175,0.1534668,-1.3557019,-1.9533376
-1.7536283,12.663507000000001,3.0320075,0.19607028,-1.0331128,-1.7164439999999999
-1.3916823999999999,11.038074499999999,1.3882731000000001,0.08319984400000001,-1.1012503999999999,-1.6871749
-1.2120215,9.542167999999998,-0.14964719,-0.11213741,-1.6309055000000001,-1.7749999
-1.2235136999999998,8.217647999999999,-1.0947822,-0.39535198,-2.301112,-1.7345606
-0.58523864,7.3526506,-1.182774,-0.6450213,-2.7014205000000002,-1.5876386999999998
0.5855355,6.8991413,-0.67236847,-0.74082243,-2.647647,-1.5136368
1.170688,6.678424400000001,-0.26986483,-0.69876003,-2.4171588,-1.426859
1.7655705000000002,7.1327386,-0.27120559999999994,-0.6561739999999999,-1.9322016,-1.2783489
2.2111986,7.0968065000000005,-0.55226576,-0.67214376,-1.351967,-1.1425972
2.7595952,7.67922,-0.19751208,-0.7168591,-0.7552389,-1.1697546
2.087217,7.5040119999999995,0.032120607999999995,-0.6817255999999999,-0.48055896,-1.2581205
1.0248716,7.585654700000001,0.041410115,-0.5901656,-0.3453483,-1.1080048
0.34600046,7.568224400000001,0.46863148,-0.5071229,-0.13187708,-0.8466243
-0.7062512,7.102064,1.2628839,-0.35594246,0.04590216,-0.51392967
-1.3494966,7.0899779999999994,2.0319686000000003,-0.12278391400000001,-0.01850049,-0.15301302
-1.0681108,8.231878,1.7847816000000003,0.15826645,-0.11164871,0.13655455
-0.6130976,9.808200999999999,1.7916098999999999,0.4121944,0.08955284,0.33990288
-0.8007072,11.0697155,2.2310417,0.65865237,0.51167816,0.56560886
-0.9882403000000001,11.77952,2.3253922,0.92959726,0.82894415,0.7668279
-0.8645367,12.073921,1.1160235,1.0254159,0.7884874,0.86903435
-0.50117344,11.862503,-0.22851220000000003,0.878494,0.64210665,0.8631875
-0.4556549,11.741836,-0.62593055,0.63683575,0.92317444,0.91109675
-1.4325083,12.159691,-0.24179521,0.5308943,1.6939816000000003,1.1346735000000001
-3.1694825,13.503279000000001,0.22651063,0.5878444,2.6074522,1.5812857
-3.4605696000000004,14.977886999999999,0.42061335,0.7182728,3.4804657,2.0811481
-1.9483438999999998,15.57298,-0.6554175,0.723055,3.7162771,2.141292
-1.2324392,14.936065,-0.8854045,0.5308943,3.2542188,1.9028102999999998
-1.1380023000000001,12.672414,-0.4305349,0.30731758,2.4834116,1.6089666999999999
-0.50216943,9.791681,-0.44701660000000004,0.045937065,1.6529839,1.3933661
-0.21954829999999997,7.393324000000001,-0.50877744,-0.24947736,1.0440036,1.1719363
-0.84228975,5.7137720000000005,-0.26619694,-0.455496,0.88591164,1.1016693000000002
-1.3317316000000001,4.5663743,-0.22655852,-0.53215086,0.88111204,1.275731
-0.77168953,4.0334926,-0.40724415,-0.5576850999999999,0.9662841000000001,1.4892021
-0.14888105,4.963525,-0.2700947,-0.46188393,0.8699418999999999,1.639318
0.48060247,6.1228642,-0.71577054,-0.35859534,0.6697875,1.6872272000000001
0.99437904,6.8691273,-1.0132644,-0.25691247,0.4552517,1.547758
1.2998313,7.2264285,-1.1105936,-0.09351474,0.24712117,1.3907132
2.080006,7.665898299999999,-1.1138496,0.06829473400000001,0.14385004,1.2400739
2.8939673999999997,8.651553,-1.0851861999999999,0.22053981,0.19069467,1.0899581
2.8608603,10.431307,-1.0280702,0.19500564,0.5601285,0.94462454
1.9572504000000002,12.768412,-0.86359817,0.10770427,1.0115404000000001,0.8743576
2.3759097999999996,14.682432,-0.51933104,0.06190683,0.7911577,0.5145056
3.4561355000000002,14.501535999999998,-0.009950303,-0.07113962,-0.37781143,-0.45750317
1.1904833000000001,12.620124,0.7100245,-0.27769932,-1.2305968,-1.0419965
-0.38794687,10.621982000000001,1.2558163,-0.42408009999999996,-1.3780596,-1.0893822
-1.0837113999999999,9.404539,2.7240462000000005,-0.426733,-1.2045215,-1.1138517
-1.7868886000000002,8.594944,2.952271,-0.30325097,-0.9452703000000001,-1.2011704
-0.30960858,10.255889,1.643562,-0.27609363,-1.2050451000000002,-1.4545574
2.1626727999999997,13.915876,1.9473287000000001,-0.24363051,-1.8033789,-1.9778246
2.466813,15.2238,3.2461832000000004,-0.15154694,-2.0924403999999996,-2.4058142000000005
0.7616626,13.648098999999998,3.9146538,0.031555552,-1.7107543,-2.3642929
0.06292919999999999,12.662243,2.6461964,0.09599311,-1.313116,-2.0853543
0.11312124,11.458602,1.7428927,0.11142181599999999,-1.2971462,-1.9858006999999998
-0.43653000000000003,9.885879,0.37893509999999997,0.04649557,-1.7469523999999998,-1.8963700000000001
-0.40011898,8.762653,-0.75332123,-0.14727089,-2.0950933000000003,-1.7095325000000001
0.36320040000000003,7.309756299999999,-1.1405115,-0.39587557,-2.132356,-1.5870976
1.162021,6.486448,-0.8020767,-0.5555732,-1.9939513999999998,-1.5721924999999999
1.3973328,6.4594603,-0.5382931,-0.6072175,-1.8693872999999999,-1.5743219
1.9080830000000002,6.4639235,-0.7089327,-0.73069954,-1.4903716,-1.4353936999999999
2.6710768,6.7412577,-0.8707041,-0.90582585,-0.95272285,-1.3406223
2.8615882000000004,7.5143557,-0.7653784,-0.9878040000000001,-0.2851868,-1.3975898000000002
1.8920993000000002,7.964302,-0.37584179999999995,-0.98728037,0.15502015,-1.4726565
0.22577323,8.268433,0.29950505,-0.8249124,0.32058206,-1.3741676
-1.4745504999999999,8.213932000000002,0.5654051,-0.6407278000000001,0.19441223,-1.03135
-2.0775733,7.923946000000001,1.8779830000000002,-0.45121998,-0.08131489,-0.5953666999999999
-2.1572428,8.100073,3.2837050000000003,-0.09777334,-0.21439624,-0.14449582
-2.1810315,9.02774,3.4087017,0.29932398,0.09913469999999999,0.28080603
-2.3114772,10.511991499999999,3.0454724,0.60327303,0.6037792,0.6188414000000001
-2.5729337,11.844527000000001,2.8747563,0.80131555,0.75122464,0.90895003
-2.1068592,12.376432000000001,1.7914375,0.90456927,0.39191368,1.0936756
-0.8378844000000001,12.242913,-0.03994486,0.7858694,0.04003785,1.0840938
0.046504974000000004,11.682891,-0.47870627,0.5479286999999999,0.25989696,0.98562235
-0.69937503,11.091407,-0.02933376,0.40526545,1.0413507,1.0505486000000002
-1.8272834999999998,11.287282000000001,0.34475547,0.38186058,2.192762,1.3225756000000002
-2.3243099999999997,12.629078999999999,-0.013139378,0.41912335,3.4064638999999994,1.6909448
-2.3407822,14.209931,-0.76312786,0.37545523,4.199629,2.001823
-2.2105377,14.529835999999998,-0.6868103,0.33073990000000003,4.059095,2.1503502999999995
-1.9813073,13.118473000000002,-0.16234602,0.29984757,3.047153,2.1679084
-1.2304378,10.771446000000001,-0.027533319,0.24396212,1.7663779,2.1391628
0.04971319999999999,8.717624,0.27050647,0.13910274,0.9481850000000001,1.9379438000000002
0.17190368,6.97067,0.30753043,0.041695915,0.7081149999999999,1.7952806000000001
-0.028328192999999998,5.31305,-0.015600618,-0.072221726,0.8076511,1.7872869999999998
-0.29855695,4.683719,-0.22507411,-0.14622368,0.9109222,1.8948166000000002
-0.21993136,5.0654416,-0.4894227,-0.18135716,0.9141162,2.013534
-0.14573985,5.956381299999999,-0.6264668000000001,-0.20423843,0.91305155,2.0422795
0.42612959999999994,6.942753999999999,-0.8836424,-0.1094845,0.6926688,2.0641136
1.1827644,7.4795723,-1.3682097,-0.021101031,0.41585959999999994,1.9214504000000001
2.1172020000000003,7.699828999999999,-1.2406178999999997,0.14177309,0.34346333,1.7133025000000002
3.1436154999999997,8.097152000000001,-1.0424833,0.31689942,0.24712117,1.3704848
3.6116053999999997,8.899037,-1.6829323,0.32594025,0.29342476,1.0313848
2.94844,11.137645,-1.2406944,0.20298178,0.41959462,0.8312305
2.9832327000000003,13.339811,-1.1041483,0.0874759,0.37594393,0.6225764
4.382318,14.261282000000001,-0.82970583,-0.13664183,-0.37674677,-0.087545715
4.018476000000001,13.978229999999998,0.35073137,-0.28674015,-1.376995,-0.8801694999999999
1.9787023999999998,12.394026,1.1965358,-0.40599850000000004,-1.6953256,-1.2155346000000002
-0.010850522,10.112208,2.0431736000000003,-0.5246983000000001,-1.507406,-1.2671788999999998
-0.94403374,9.1881895,2.3808708,-0.53215086,-1.3998761999999998,-1.3070946
1.8462646,10.810825999999999,1.9503071,-0.5231100999999999,-1.6261233,-1.7042093
3.4174738,13.407567000000002,2.4069675999999998,-0.43687338,-1.8518293000000001,-2.36164
2.2297487,13.672386,3.156027,-0.26279423,-1.6585863999999997,-2.5793524
0.62628484,12.783907000000001,2.7500377,-0.11215486,-1.1928104,-2.358446
0.7400573,12.21336,1.4857267,-0.088715084,-0.97029835,-2.1519036
1.1251023999999998,10.838082,0.6002071999999999,-0.14355333,-1.19014,-2.259957
0.1553358,9.055015,-0.103601895,-0.25799456,-1.7693101000000002,-2.3163836
-0.32409829999999995,7.562095599999999,-0.758033,-0.43739697,-2.2287157000000004,-2.1375222000000003
0.42758527,7.100024,-0.7275309,-0.65032715,-2.4671974,-1.9655898
1.4267239999999999,6.220921499999999,-0.5086625,-0.81854194,-2.2111402,-1.9288506999999997
1.8581017,6.5631960000000005,-0.002126051,-0.8499404,-1.8624758000000001,-1.8788121
2.0644722,7.402642,-0.06834009,-0.82171845,-1.4579084,-1.7957691999999998
2.5250209999999997,7.879883,-0.4717152,-0.88400924,-0.90055496,-1.6371363
2.6402395,8.619786999999999,-0.26553613,-0.91114914,-0.34854224,-1.6392654999999998
1.5120533999999999,8.962388,-0.22794716,-0.9138195,0.07251843,-1.6610821
0.029467834,9.054784,-0.21279664,-0.93830645,0.1731192,-1.567934
-0.9482284,8.648316000000001,0.06997773,-0.95429367,-0.057892572,-1.3725793
-1.3648386000000001,8.485099,1.0920433,-0.85261077,-0.36929423,-1.0803239
-1.3994492,8.490012,2.2469199,-0.6226461999999999,-0.38367572,-0.7199483
-2.1806006,8.562593,3.3584232000000003,-0.24204226,-0.03286455,-0.29941124
-3.6787677000000003,8.779499000000001,4.1260333,0.28920105,0.23593360000000002,0.20202187
-4.387642400000001,9.034127999999999,3.6584263,0.7587295000000001,0.1624727,0.7125307
-3.9724402000000003,9.453897999999999,2.5848183999999996,1.0105107,-0.11590732,1.0958048999999999
-3.3159406000000002,10.865827000000001,0.9973764999999999,0.97537726,-0.11058406,1.3603618999999998
-2.9565134,12.094023,1.0033813,0.8375136999999999,0.4350233,1.5589281000000001
-3.0108907000000005,12.941493,1.9753888,0.8683886000000001,1.3091017,1.7628
-2.4272704,13.871364000000002,1.4285723,0.9003280999999999,2.2215073,1.9044159999999999
-2.3031167999999997,15.153075,-0.084544055,0.7358308000000001,2.713376,1.9831827000000002
-2.095798,15.544613,-0.78842974,0.53354716,2.2821925,1.9581721999999997
-0.7185095,14.131134,-0.7528807,0.42442918,1.4661463,1.7856987000000002
0.71638346,11.807897,-0.40905413,0.38714895,1.1355636,1.5642513
1.5412816999999999,9.260323,-0.39839518,0.29293606,1.2303175,1.4290406999999998
1.3420075,7.0818667,-0.31991324,0.06988298,1.5880402,1.4673681
0.797183,5.637186,0.18074307,-0.12386601400000001,2.0362582,1.5951262
0.20995232,4.2021213,-0.013599066000000002,-0.2526713,2.4951227000000005,1.7835695
-0.5939919,3.9199882000000006,-0.08158482,-0.33571407,2.688889,2.0114047999999998
-0.83620846,4.682072,0.0,-0.18453366,2.5126982000000004,2.3983965
-0.64809126,6.492625,-0.20641848,-0.024312437000000003,2.223113,2.6432662000000002
-0.32570723,8.204153,-0.72724354,0.10555751599999999,1.9122351000000002,2.7529428
0.6979673000000001,8.9553,-1.6977189,0.12313298,1.4661463,2.6432662000000002
1.5447294,9.776712,-0.9680523999999999,0.12313298,0.9529847,2.3031189999999997
2.0301009999999997,10.689948,-0.69273835,0.19018853,0.7842288000000001,1.8894935000000002
1.3477919,11.133345,-0.10680055,0.05656612,0.82681483,1.4146591
0.5094191,11.032261,0.94044244,0.043284167000000005,0.83587307,0.9781698
0.7660104999999999,11.034875999999999,0.5747042,-0.048258353,0.28651324,0.34842008
0.73774934,10.620467999999999,0.46210966,-0.24523622,-0.7749262,-0.35103807
