accx,accy,accz,gyrx,gyry,gyrz
-0.047376465,11.540187,-0.41912892,-0.13840461,0.73895496,0.6138846
0.30437964,9.947075,0.17986201,-0.14266321,0.60533255,0.43608797
0.54556197,8.409586000000001,0.5547557,-0.17247343,0.7171209,0.32695252
0.74662703,7.1907167,0.7031196,-0.23261748,0.9540144,0.24764477
0.79747987,6.278478,0.47621632,-0.35400513,1.1557571000000002,0.20931734
0.5039507000000001,5.499203700000001,0.06893385,-0.47322857,1.1930197,0.19973548
0.20329645,5.0620036,-0.16882953,-0.57651716,1.0455744,0.22474605
0.047817,5.1780643,-0.42214563,-0.6473076999999999,0.78473496,0.27106708
0.15007815,5.9253526,-0.6058861999999999,-0.68298227,0.5169665,0.295013
0.48530468,6.939737299999999,-0.71965873,-0.7047989,0.29073694,0.27265534
0.87555,7.9602804,-0.75011295,-0.6696654000000001,0.11452851,0.21197024
1.2704303999999997,8.877557000000001,-0.5725302,-0.55574775,0.015515977,0.18483037
1.3041313,9.500383,-0.2994093,-0.35081118,-0.07070329,0.20877628
1.2520717,10.178958,-0.019900605,-0.17619099,-0.24848253,0.043231804000000006
2.1164935000000002,11.234916,-0.17079277,-0.080372415,-0.48377037,-0.34267795
2.2675197,11.864351,0.5094478,0.07131415599999999,-0.6126106,-0.47045349999999997
1.0625755,12.503057499999999,1.4822216000000001,0.21237166,-0.87503827,-0.5077163
0.9562729,12.875202999999999,1.9210116999999998,0.32948324,-1.3126098,-0.6626141999999999
1.4570346,14.412768,1.8453645,0.40242055,-1.6761968,-0.89950776
1.7597766,14.467251000000001,2.0553455,0.5104914,-1.7799915000000002,-1.0916685
1.0060148000000002,12.646834,3.1757076,0.6962642,-1.4840186000000002,-1.1033796999999999
-0.32626265,10.996319999999999,3.7859895,0.8964186,-0.8968549000000001,-0.9138718000000001
-1.7328273999999997,10.09745,3.1328034,0.94645715,-0.45450118,-0.7201054
-1.9311153000000003,10.235767,0.9176496,0.7234215,-0.30599109999999996,-0.6620732
-1.9198338,10.848224,-0.71408504,0.39125046,-0.61791635,-0.5997824
-2.5613935000000003,11.144453,-0.42606255,0.2539105,-1.3307089,-0.5215393
-2.6787574,11.176096000000001,0.6795606,0.23474678,-2.0152793,-0.5002462999999999
-1.8670272,10.727422,0.7350774,0.10592403,-2.3650084,-0.49492303
-0.40249404,9.711294,0.15491442,-0.09101892,-2.327763,-0.5188864000000001
0.97029334,8.336227000000001,0.20401470000000002,-0.23581143,-2.0147383000000003,-0.56784284
2.0024145,7.2173114,0.7136158,-0.28585002,-1.6202938999999998,-0.6386509
2.5909286,6.3031,1.2642151000000001,-0.27466246,-1.1518475000000001,-0.6620732
2.6521914,5.696716,1.4843955,-0.27572712,-0.63868576,-0.61522853
2.6704445,5.5046625,1.3775662,-0.2725506,-0.19046777,-0.5710543
2.638171,5.605803,1.206352,-0.22889993,0.15659094,-0.5731835999999999
2.4204037,6.14084,1.2613517,-0.17886133,0.3003188,-0.55189055
1.9665588999999999,7.2758064,1.3883208999999999,-0.13306389999999998,0.28009045,-0.44968408
1.5736704,8.277369,1.5813894,-0.07878416,0.22952825,-0.33363715
1.1358285,8.546084,1.970361,0.019687313999999997,0.19971803,-0.20640263
0.9125068999999999,8.786203,2.1991987,0.12934636,0.23750441,-0.066392325
0.9845531999999999,9.115779,2.14961,0.2022662,0.31255355,0.041102502
1.0371586,9.392884,2.0024815,0.25124013,0.41477749999999997,0.18004817
0.7496628000000001,9.716016,1.922975,0.30288443,0.51379,0.31473523
0.5732102,10.227636,1.8780596999999999,0.34067082,0.58351594,0.44301692
0.22594560000000002,10.532792,1.6130120000000001,0.36889279999999997,0.49408525,0.54255307
0.29571265,11.3475685,1.2953781,0.37740999999999997,0.43926448,0.67830473
0.8066831999999999,13.790391,0.18600075,0.34547046,0.6537829000000001,0.8300261999999998
0.92049396,15.170907000000001,-0.4266276,0.3545462,1.0189755999999999,0.8779355
0.68670493,14.055745000000002,0.09828676,0.41627848,1.3692282,0.8007396
0.2802844,12.864103,0.2817784,0.33749429999999997,1.7626255000000002,0.7895694999999999
-0.048382025,12.623714999999999,-0.47990334,0.12243485,2.1538935,0.8752652
-0.36924338,13.03614,-1.5145336,-0.113900185,2.351901,0.9742777
-0.7823293,13.266979999999998,-1.8482566999999999,-0.25923374,2.2619467,1.0051526
-0.88852656,12.618851,-1.2074918,-0.28159142,1.9420104,0.9881181999999998
-0.71349126,11.646421,-0.5391838000000001,-0.28265607,1.629003,0.9615019
-0.48654968,10.482572,-0.24100992,-0.30553734,1.4219372,0.89496994
-0.22151154,9.229139,-0.02696829,-0.34759977,1.3335712,0.81510365
0.0129478425,8.127539,-0.012708423,-0.42584288,1.3782865,0.753895
0.16618632,7.2497869999999995,-0.20662919,-0.51474994,1.4251312,0.7315373000000001
0.117200956,6.5798024999999996,-0.4220786,-0.578629,1.3516703,0.7352723000000001
0.123071544,6.337203,-0.5332749,-0.6270619000000001,1.1217057,0.7661472
0.08195831599999999,6.373872799999999,-0.8527476,-0.6808354999999999,0.7953814,0.81670934
0.23083936,6.6259437000000005,-0.97797394,-0.6978699,0.49782026,0.8300261999999998
0.51863194,6.802789,-0.8405466999999999,-0.6520725,0.17362535,0.76347685
1.02106,7.1449585,-0.4942207,-0.5850169,-0.10848966,0.595803
1.6484748,7.62581,-0.25016534,-0.5088855999999999,-0.26445228,0.41161844
1.8933825,7.998376400000001,0.25370878,-0.38592719999999997,-0.28042206,0.30300662
2.1214828,8.645539,0.6005903,-0.260822,-0.26019368,0.15610225
2.7956903,10.222283000000001,0.52478987,-0.19003145,-0.22825415,-0.14091788
3.3718595999999996,11.9292145,0.4305349,-0.09738937,-0.16756906,-0.37727037
2.4974875,12.214537,1.2100487,0.09742427599999999,-0.22931881,-0.48747045
1.8143259999999999,12.300193,1.9152273000000002,0.19429006,-0.4113741,-0.72647583
1.6613653000000002,12.134638,1.5817628000000001,0.23261748,-0.6498559,-0.92930055
0.6783157,12.465076,1.5501307,0.30181979999999997,-1.1050029,-0.9793390999999999
0.04732858,12.810377,1.4845774,0.30820770000000003,-1.7379291000000001,-1.1161381000000001
0.12740983,11.967867,1.7672561000000002,0.34974653,-2.1451666,-1.2194091999999999
-0.3304573,11.519884,2.412589,0.42053708,-2.235121,-1.1890754
-0.6783635,10.695234,2.5187863999999998,0.46738172,-1.9583118000000002,-1.1172028
-0.2988634,10.387541,2.1364707999999997,0.44183009999999995,-1.610171,-1.073552
0.12491987,10.356474,1.263832,0.35665804,-1.3152627000000001,-1.0027615
0.11860875,10.445883,0.81423926,0.30077258,-1.2662888,-0.94259995
-0.037483625,10.7924,0.8606676,0.28267354,-1.472831,-0.89575535
-0.11015244,10.765997,0.9246310999999999,0.22251202,-1.7081188000000003,-0.87126833
0.07698795,9.963968,0.70159686,0.10752974,-1.8805922,-0.86062187
0.39641276,8.7677965,0.78466606,0.0042586033,-1.9311544999999999,-0.8574279
0.8368405000000001,7.5632644,1.2013817,-0.0665145,-1.8412002,-0.85475755
1.3419212,6.5967727,1.5576773000000002,-0.121876344,-1.6139059,-0.8324173
1.7535516,6.033455,1.5036544,-0.20172516,-1.2444721,-0.7898313
2.0222,5.8673267,1.3920368,-0.27998573,-0.7589739000000001,-0.71315897
2.0703142,6.17162,1.4525335,-0.28850293,-0.3634648,-0.6216165
2.145061,6.6700735,1.8179461,-0.23101178,-0.17076302,-0.5263215
2.0842388,7.315694000000001,2.020869,-0.15596262,-0.11646582,-0.4528606
1.8141537,7.952676299999999,2.1917386000000003,-0.046827182,-0.095696405,-0.34054863
1.3899682,8.460878999999998,2.1427531,0.020228365,-0.1558579,-0.2202431
1.3305538000000001,9.057888,2.0864415000000003,0.064420104,-0.26497588,-0.1600816
1.4335331,9.253637,2.345695,0.12988740000000001,-0.2990447,-0.081297435
1.5630211,9.155733,2.5216022000000002,0.21666518,-0.16437511,0.016091935
1.824037,9.516923,2.4802876,0.30449015,0.20345303,0.13374458
1.8023262999999998,10.389963999999999,2.1652873,0.34655258,0.58566266,0.30302405
1.2780153,10.933112,1.8552095000000002,0.42746603,0.71713835,0.47921506
1.0460459,12.136678,1.651415,0.5413661999999999,0.8129569000000001,0.63838905
1.1138017,14.363554,0.51454264,0.54723054,0.9572084000000001,0.7570889000000001
0.48081318,14.712638,-0.66118276,0.44183009999999995,1.0061997,0.7459188
-0.15218504,13.017657,-0.5166592000000001,0.33749429999999997,1.0035294,0.68043405
-0.35017595,12.10246,0.043555316,0.22357668,1.1573802,0.70439744
-0.18718827,12.501737,-0.23710258,0.056967545,1.5518246,0.7986103
-0.16441461,13.120445000000002,-1.1042441,-0.09367182,1.8259808999999998,0.9162629000000001
-0.42501867,13.190634,-1.4915684,-0.18629645,1.9180645,0.9849242
-0.23321441,12.497694000000001,-0.95820737,-0.193749,1.8674848000000002,0.9668251
0.079554535,11.439726,-0.21245189,-0.14582226,1.7413324000000001,0.8609011000000001
0.16761327,10.0152235,0.2390371,-0.14371040000000002,1.6684126,0.7246258000000001
0.051963754,8.5033045,0.17432661,-0.17938495,1.6194212,0.5702514
0.18521544,7.305782300000001,0.052672435,-0.29009120000000005,1.5677943,0.41481242
0.21590911,6.4406323,-0.25707979999999997,-0.48279297,1.4709111000000001,0.369556
0.05706819,5.8232827,-0.7105799,-0.6531371,1.3181424,0.41322416
0.12035173,5.782858999999999,-0.9224859000000001,-0.7766366,1.0652791000000001,0.49146727
0.14867993,6.284233599999999,-1.1160809999999999,-0.8474446,0.8193448,0.5622578
0.34798285,7.0486355,-1.2114756000000002,-0.8495739,0.580863,0.5638635000000001
0.5965296999999999,7.5967827,-1.002481,-0.7526906999999999,0.3434459,0.5260597
0.8866016,8.068153,-0.6252314,-0.5892581,0.07515388,0.43238786
1.3391534999999999,8.737792,-0.35275212,-0.43807763,-0.15531684,0.21039943
1.9764326,9.566627,-0.030607475,-0.3071256,-0.1521229,0.015568336499999998
1.9621918999999999,10.227819,0.43964246,-0.19479620000000003,0.031503193,-0.010489428
1.7575165000000001,10.704169,0.815082,-0.08834857,0.09325294,-0.11749557
1.9840461999999999,11.614713,1.1212813,0.0058643064,0.040561453,-0.4012163
1.9423968,12.277341999999999,1.4290128,0.11180579,-0.11220722,-0.66579074
1.2944204,11.817434,1.9086385,0.19378391,-0.32939598,-0.9372767
1.049053,11.825939,1.986335,0.2459518,-0.57426566,-1.2013102
0.89161026,13.363122,1.6354983,0.3247185,-0.9154776,-1.394012
0.15355451,13.281096,1.6187485000000001,0.45781732,-1.2960815,-1.5148411
-0.9635321,12.044003,2.3077520000000002,0.57812285,-1.4653610000000001,-1.4323393
-1.9302724999999998,11.379421,2.3154323,0.6361376,-1.3583723,-1.2055687
-2.2816549999999998,10.280031,2.4866178,0.67872363,-1.0783691,-1.0091318999999999
-2.0245178,10.342329,2.0722678,0.5786465000000001,-0.8212646999999998,-0.91066045
-1.5888784,11.104738000000001,0.88922566,0.42268384,-0.7552563,-0.8813738000000001
-1.464581,11.670249,0.5805651999999999,0.38488,-0.9357059000000001,-0.86966264
-1.6717369999999998,11.360373,1.3794624,0.45727625,-1.2763941,-0.8169712
-1.679341,10.166441,1.5384662,0.41416663,-1.5420333000000002,-0.7642621999999999
-1.0564176,8.420216,1.037896,0.30609584,-1.6607331000000003,-0.7467041999999999
-0.3407428,6.7594824000000004,1.1093485,0.20443042,-1.6767028999999998,-0.7392517
0.36364093,5.500487000000001,1.1807534,0.09477138,-1.4792188,-0.7147647
0.9843138000000001,4.6981325,1.1337502,-0.016999507,-1.0602701,-0.65725607
1.4449869,4.2905245,1.0217592,-0.09791297,-0.60514057,-0.6210753999999999
1.7367636000000002,4.4052067,1.1021469,-0.12665854,-0.16437511,-0.5763600999999999
1.5705388,5.217789,1.2123471000000001,-0.104841925,0.19067723,-0.42943826
1.0496945,6.457708,1.2033162,-0.073426,0.36953858,-0.21650809
0.55374056,7.8672509999999996,1.3376405,-0.002635447,0.26413813,-0.066392325
0.03137362,8.792112,1.9131874,0.12084660000000001,-0.020647245,0.13747959
-0.56598926,9.321968,2.2976484,0.20655972,-0.36027086,0.3083473
-0.26308447,9.459874000000001,2.4126852000000003,0.27947956,-0.5699896,0.4126831
0.44153866,9.539860000000001,2.5454867,0.34868187,-0.47738245,0.46219808
1.3525803,9.930565,2.5691509999999997,0.39446187,-0.026494099,0.49359655
1.7725712,10.701717,2.2876790000000002,0.41894883,0.51007247,0.5526934
1.1517068000000001,11.001855,2.0607755,0.48230428,0.69160414,0.6517059000000001
0.391519,11.675966,1.8314398999999997,0.53606045,0.63783056,0.75869465
0.31935778,13.917332,0.4639101,0.48391000000000006,0.5585228,0.874218
-0.12917197,15.575757000000001,-1.1370063999999998,0.35082862,0.5026199,0.9386380999999999
-0.39014953,14.96243,-1.2181313999999999,0.2938611,0.7693236999999999,0.92371553
-0.03506069,13.880212,-0.61083746,0.2438225,1.4224782,0.89231706
0.10641748,13.565988,-0.6320501000000001,0.062849306,2.1554990000000003,0.8981813
-0.106063135,13.896033,-1.9463136000000003,-0.22406536,2.5818830000000004,0.9301209
-0.86166364,14.136171,-2.6142766,-0.41570252,2.5291915,0.95780176
-1.6614035,13.508545999999999,-1.8572781000000003,-0.41517892,2.1427232999999997,0.9439613000000001
-1.7521533999999999,12.434775,-0.53169477,-0.38004544,1.6029453000000002,0.86995935
-1.5083950000000002,10.749649,0.1136767,-0.38430405,1.1994426,0.77574646
-1.1226603000000002,8.912962,0.30147788,-0.45989427,0.9987472,0.6751283
-0.5735741,7.3801937,0.1435276,-0.60521036,0.94125605,0.609661
-0.29185320000000003,6.2238803,-0.23376985,-0.764908,0.9258273000000001,0.5878444
0.03487873,5.392336,-0.27158865,-0.85168576,0.8880235000000001,0.5835683
0.2547143,4.9844313,-0.30543309999999996,-0.8894721,0.8246855,0.6128549
0.41234857,5.068822,-0.45221683,-0.8969246999999999,0.7533539,0.6165899
0.61438084,5.59274,-0.57598746,-0.8633795,0.6287898000000001,0.5958205
0.77692807,6.281887,-0.57857317,-0.78087777,0.4307647,0.56548667
0.90418464,6.712125299999999,-0.49040909999999993,-0.64673173,0.21676989,0.53407073
1.1112926,6.875122500000001,-0.23653755,-0.53387874,0.056548666,0.45635125
1.5869918,7.359517599999999,-0.092205495,-0.46041787,-0.07546803,0.26471409999999995
2.3749142000000005,8.805826,0.22009417,-0.40399137,-0.039793506,0.07840019
2.5814378,11.120942,0.3534512,-0.28794440000000004,0.06133087,-0.021135937
2.1210616,12.766946,0.7402776,-0.09098402,-0.05469862,-0.2761111
2.1060642999999994,12.9922695,1.5651184,0.15121533,-0.35758305,-0.6306398
1.6683085,12.618372,2.416056,0.325277,-0.6594203000000001,-0.9058433000000001
1.3731513000000002,12.403075999999999,2.4349507999999997,0.4147077,-0.9026843000000001,-1.1251613999999999
1.2695206,13.335779999999998,2.1784267,0.48925070000000004,-1.1592652,-1.3247921
0.67342186,13.098888,2.1231299999999997,0.5541769,-1.4232986,-1.4844898000000002
-0.33763990000000005,11.427161,2.4981964,0.6436251000000001,-1.5872548,-1.4349748
-1.4423437,10.56453,2.8514939999999998,0.7660425000000001,-1.6016363,-1.1869111
-1.9227163,10.377044999999999,2.9409799999999997,0.87198395,-1.4760075000000001,-0.9095783000000002
-1.7247063000000002,11.154461,2.4164103999999997,0.8624021000000001,-1.2183620000000002,-0.7386931999999999
-0.93780875,12.062275,1.408231,0.69844586,-0.92291266,-0.69397783
-0.5707776999999999,11.656803,0.77577883,0.5706878000000001,-0.89577276,-0.6987774999999999
-0.8489169,10.849622,1.1399465,0.49457395,-1.2231442,-0.6929132
-1.1857332,9.958568,1.292706,0.35297540000000005,-1.592578,-0.6545857
-0.9215091000000001,8.850061,0.6571222,0.16877334,-1.7607929,-0.6412863
-0.034572273,7.687139999999999,0.37538213,0.016004669,-1.6766855,-0.64180994
0.8292940000000001,6.6826,0.5307945,-0.05211553,-1.462167,-0.6455274999999999
1.3889243999999998,5.944094000000001,0.82758933,-0.08511971,-1.1842932,-0.6162583
1.5954673000000001,5.6257515,0.9912953000000001,-0.112259574,-0.8803266,-0.5619611
1.613328,5.5968394,1.1305038,-0.1378112,-0.58383006,-0.49117056
1.6855946,5.8908086,1.2035843000000002,-0.12768829,-0.37302923,-0.41236895
1.7788248,6.530779,1.3791368,-0.10215412,-0.19523253,-0.31869712
1.6474502,7.2056947000000005,1.4592277,-0.06435029,-0.10473721,-0.27291712
1.1690408,7.5750722999999995,1.8748706999999998,0.061784655,-0.17181021,-0.15259413
0.23241952,8.049047,2.4789849999999998,0.13950416,-0.38154644,0.08904669999999999
0.17140569,8.91187,2.3356493,0.15868534,-0.55454344,0.25408503
1.0508629999999999,9.322782499999999,2.1667717,0.20924753,-0.5055695,0.34136894
1.8074881999999999,9.673303,2.2777479,0.29548424,-0.14465289,0.41589449999999994
2.293195,10.39639,2.2313194,0.32422979999999996,0.26254988,0.46382123
2.2272494,11.081688,1.8604096,0.3939557,0.5888741,0.5740039000000001
1.8052471999999997,12.353928,1.5767541,0.53024846,0.90987504,0.8007745
1.7995107,15.446087,0.42304587,0.5238606,1.1866668,0.9471726999999999
1.3402931999999999,16.27469,-1.0268921999999998,0.48553315,1.2691860000000001,0.88914055
0.69779485,14.650991000000001,-0.55421937,0.45198792,1.3618106,0.7581885
0.36097857,13.357615,-0.59596467,0.2944196,1.6897229999999999,0.6873979
0.27749756,12.730564,-1.1000590000000001,0.07616617,2.1155834,0.69163907
0.054817643,12.753051,-1.9258575,-0.14526375,2.3519359,0.744348
-0.59853125,12.562471,-2.2268662,-0.2575757,2.253988,0.79970986
-0.8149767,11.946042,-1.4454178999999998,-0.2682222,1.9361810000000002,0.78480476
-0.47432965,11.011183,-0.47126508,-0.24586453,1.561965,0.7012384
-0.118062876,9.825315,0.09291418,-0.25597,1.2835674,0.56763345
0.065218054,8.386113,0.2497248,-0.31719613,1.2164944,0.44837508
0.17106093,7.2214775,0.20114169,-0.43643704,1.2654684999999999,0.36215582
0.285159,6.305619,-0.06660669,-0.59187603,1.3320003999999999,0.3003886
0.37423290000000003,5.6537538,-0.30482978,-0.73879784,1.3485112,0.27644270000000004
0.26396552,5.415923599999999,-0.5007520999999999,-0.8548448000000001,1.2532163,0.32115802
0.13561715,5.807155000000001,-0.80542856,-0.91285956,1.0722256000000001,0.42284092
0.101265155,6.7279553,-1.0532285,-0.92776465,0.84280205,0.53249997
0.43638635,7.8023205,-1.2062275,-0.8788082,0.5670575,0.5495169
1.0526539,8.618877000000001,-1.026059,-0.73028064,0.20614083,0.46275659999999996
1.5184411,9.102008,-0.4841363,-0.527997,-0.13452998,0.30466467
1.8488697,9.570544,-0.12755350000000001,-0.32304299999999997,-0.33946654,0.10930997
2.0197964,10.1870985,0.2568787,-0.16334537,-0.28199285,0.012950343000000001
1.8929611000000002,11.119841000000001,0.39849094,-0.04145157,-0.11110766,-0.036023594
1.7666718999999997,12.024763,0.5433688,0.06127851,-0.004118977,-0.19144517
1.5940115,12.026898,1.2073767,0.18636626,-0.041381758,-0.43737950000000003
1.0283767,11.457403999999999,1.7982273999999998,0.2539803,-0.19202112,-0.72270596
0.65965044,11.486968,1.8956331999999998,0.2971074,-0.5603903,-1.0005798000000001
0.04501099,12.678973,1.9230994,0.3652276,-1.2002455,-1.1214263
-0.702612,12.698702,2.0901476999999997,0.42697734,-1.8741695,-1.2071221
-0.8233947,11.616283000000001,2.579781,0.52866024,-2.149914,-1.1576071
-0.94534576,11.143955,2.9638684,0.6606595000000001,-1.8991974999999999,-0.9713106
-0.85886717,10.617834,3.0089083,0.7751182,-1.3423676000000002,-0.7631627
-0.62788415,10.712194,2.5027932999999996,0.76129514,-0.71370006,-0.6130469
-0.16301641,11.072867,1.3983862,0.66332984,-0.30754447,-0.55555576
-0.04374685,11.090593,0.9178315999999999,0.59147465,-0.38578758,-0.59973
-0.31364042,10.833838,1.1457213,0.5648584,-0.8579689,-0.68917817
-0.7581766,10.019121,1.3384162,0.4882035,-1.3684603000000002,-0.7604923000000001
-0.7732218000000001,8.691286999999999,0.8219006999999999,0.33489376,-1.6756034,-0.8169188000000001
-0.29411329999999997,7.361413499999999,0.45229343,0.17254324,-1.7469348999999998,-0.8222421
0.38848317,6.2743025,0.55931425,-0.00577704,-1.634082,-0.7764621
1.1705538999999998,5.655219000000001,0.8199758,-0.15322246,-1.3642017,-0.68809605
1.9751014999999998,5.502431,1.1193084999999998,-0.21125466,-0.9633519,-0.6183702
2.6697745,5.685185,1.3690236999999998,-0.18037978,-0.45498988,-0.59760076
2.9063694,6.1017,1.3980893,-0.10531317,0.03473205,-0.5507561
2.42864,6.695174000000001,1.5355643,0.027750734,0.33815753,-0.355925
1.2718669,7.332864999999999,1.8454793999999999,0.16507325,0.31686452,-0.14672983
0.5200302,8.138792,1.9568577,0.23748694,0.065083325,-0.038659044
0.16044982,8.922566999999999,1.8443493999999998,0.26942647,-0.23673646,0.105574965
-0.07029376,9.509692,2.0084193,0.29550170000000003,-0.47150070000000005,0.28337166
0.47242388,10.099738,2.1877737,0.30243066,-0.44699627,0.32862803
1.2884731000000003,10.546113,2.1236665,0.27848473,-0.16592845,0.29188886
1.6914365000000002,10.910425,1.7388511999999998,0.27368507,0.19710003,0.30148816
1.2337799999999999,11.21446,1.6956311000000002,0.33330554,0.4776268,0.44999823
0.9217101999999999,12.998676,1.0507098,0.33649948,0.8518603000000001,0.68422145
0.84311336,15.7513,-0.44213244,0.27583185,1.0466914,0.7859043000000001
0.42265323,15.497504999999999,-0.82136446,0.30775392,1.0222044,0.71829027
0.0025570073999999997,13.86236,-0.49312893,0.18905406,1.1542212,0.68263316
-0.2095118,12.669311,-1.0316615,-0.008970993,1.5486655,0.7150963
-0.35925475,12.34796,-1.2842114,-0.2229658,1.9521682,0.8417896999999999
-0.7244663,12.603278999999999,-1.8057069,-0.40235075,2.1044307,1.0078753
-1.0310869,12.533043,-1.7638658,-0.46994734,1.9644203999999998,1.1202047
-0.79588056,12.110006,-1.0780802999999999,-0.453454,1.6455488,1.1127347
-0.13438176,11.433702,-0.22847387,-0.39861575,1.2968843,0.963701
0.45505154,10.193544000000001,0.33193213,-0.36348227,1.0717193999999999,0.78855723
0.48520893,8.746842,0.41765413,-0.38477528,1.0568143,0.70390874
0.580546,7.278967,0.18403749,-0.46355945,1.2037361999999998,0.64004713
0.80464333,6.2385426,0.029161377000000002,-0.5433908000000001,1.2915611,0.5575454000000001
0.8067215,5.6488605000000005,-0.0972812,-0.6402915,1.2505808,0.533041
0.5841565,5.246414,-0.33687374,-0.7094938000000001,1.0951418,0.5612455
0.37132153,5.302544,-0.3813293,-0.74197435,0.84599596,0.60809016
0.36304718,5.832457499999999,-0.47876373,-0.7456919,0.6048613,0.6246010000000001
0.5725207,6.7121925000000005,-0.6030707,-0.7291810999999999,0.37915534,0.5671098000000001
0.99066323,7.450497,-0.55579954,-0.66264915,0.15505505,0.4574508
1.4264271000000002,7.9732947,-0.19130629999999998,-0.51785666,-0.0024958209,0.35152677
1.8785290000000001,9.038791,0.45124,-0.34218925,-0.106308006,0.13273229
2.4874032,10.375732000000001,0.6660381999999999,-0.18355627,-0.21170844,-0.21485002
2.514563,11.222513000000001,0.9826282,0.0043284167,-0.21170844,-0.36390114
1.6736237,11.970328,0.9812396000000001,0.120392814,-0.29368654,-0.46610764
1.8704174,12.33918,0.86387587,0.21088813,-0.44858453,-0.7205592
1.9105729999999999,12.212574,1.0845447,0.26199138,-0.6024353,-0.980875
1.3249704,12.058598,1.2556918,0.30511847,-0.82760024,-1.1458784
0.60992765,13.105447999999999,1.3483952,0.34608135,-1.2891351,-1.2752421999999999
-0.26389850000000004,12.748445,1.8235293999999997,0.42914155,-1.8555293000000002,-1.3556322
-0.8511004000000001,11.77501,2.4301242999999997,0.51057863,-2.1956766,-1.3013350000000001
-0.98998326,11.762692999999999,2.6342921,0.6111969,-2.0759119999999998,-1.1256676
-0.9610995999999999,11.6727,2.9584862999999997,0.7320260000000001,-1.609595,-0.95425874
-0.79825556,11.432495,2.8828964,0.75546575,-1.0218903,-0.8302181999999999
-0.40162256,11.477238999999999,1.7045279999999998,0.61650264,-0.63224554,-0.800408
-0.2107089,11.258255,0.82525265,0.49195597,-0.6269048,-0.8174424
-0.47190675,10.722461000000001,1.0616848,0.44352308,-0.94842935,-0.8200953000000001
-0.7021619,9.743310000000001,1.1964879,0.32906437,-1.3045638000000002,-0.8036019
-0.38728607,8.339713,0.43607032,0.14755014,-1.4743669,-0.7897615
0.31201237,6.815919,0.31135157,0.03202679,-1.5009831,-0.75888664
0.9880200000000001,5.604654,0.7259411,-0.011065387,-1.4360568999999999,-0.687555
1.5733353,5.17093,0.9940916999999999,-0.046198864000000006,-1.2380319,-0.595454
2.1002607,5.131243700000001,1.0111861999999998,-0.07548549,-0.88509136,-0.5118876
2.52413,5.3448157,1.0650749,-0.09623746,-0.40706313,-0.47940704
2.7256167000000002,5.825284,1.272614,-0.056845374000000004,-0.00036651915,-0.46504298
2.3391159,6.5141153,1.6497294999999998,0.055466562999999997,0.29080677,-0.31225684
1.2448317,7.475397,2.0790482,0.16084954,0.32007593,-0.033859387000000005
0.2973024,8.40135,1.9747567,0.20929988,0.02677335,0.12795009
0.28008327,9.147881,1.7464074,0.20238838,-0.33147293,0.20247565
0.5361670999999999,9.542483,1.6085589,0.20504127,-0.52043974,0.28764772
1.0325618,9.919925,1.9760017,0.25349160000000004,-0.37192968,0.36271432
1.4761977,10.434544,2.3465762000000003,0.36206856,0.025708699999999998,0.40317106
1.6191411,10.904832,2.305597,0.40254274,0.3440393,0.47237337
1.3054911,11.606295,1.5586541,0.41425390000000006,0.60753167,0.6230127
1.3125972,14.016519,0.44565672,0.386573,0.97698295,0.8386133
1.051993,16.453403,-0.8531306999999999,0.34716344,1.3756859,0.9413433000000001
0.4844715,15.108792000000001,-0.93832594,0.35302776,1.5454891000000002,0.8854579
-0.23908497,13.594007999999999,-0.7291302,0.19387117,1.569976,0.83116066
-0.64907765,12.9986,-1.1264622,-0.088784896,1.6120385,0.82796675
-0.74307406,12.873297,-1.4862055,-0.36452946,1.6168207,0.9062098
-0.9150159999999999,12.81145,-1.763253,-0.5242271,1.5247371,0.9908583000000001
-0.8617498,12.378291,-1.3455031000000002,-0.5566901999999999,1.3756859,1.0408969000000001
-0.40477332,11.690696,-0.49037079999999994,-0.51356316,1.1984303,0.9972462
0.2448598,10.6787815,0.16314089999999998,-0.4651477,1.1095233,0.8668178
0.5132402,9.387397,0.48612829999999996,-0.44383723,1.1281458999999998,0.74173003
0.5232192,8.013144500000001,0.5234491,-0.4699299,1.2638976999999998,0.63207096
0.6356414,6.90415,0.34295502,-0.5439144,1.3554575,0.5298645000000001
0.5511739,5.996872,0.06060203,-0.6296275,1.2889082,0.45959756
0.41808507,5.3993845,-0.2056715,-0.71212924,1.0807776000000002,0.42181116
0.2958563,5.293226,-0.48028645,-0.77229077,0.8103564,0.43139303
0.319013,5.737992,-0.6979576999999999,-0.791437,0.5074719,0.45959756
0.54078317,6.6180710000000005,-0.7454969,-0.75152135,0.19924679999999997,0.43991023
0.9759341,7.594638000000001,-0.64927876,-0.68073076,-0.09138544,0.35313246
1.5881124,8.35245,-0.40970537,-0.55562556,-0.25001842,0.23602088
2.0708313,9.018028999999999,-0.11914505,-0.41456807,-0.23830725,0.05396558
2.6148896,9.493086,0.18191144,-0.24954717,-0.06318091599999999,-0.090268426
2.4636815,10.3908825,0.6119963,-0.111666165,0.119397976,-0.12007865
2.0865755,11.825556,0.60745686,-0.037140608,0.13377948,-0.2574186
2.0810688,12.632919000000001,0.87345266,0.011815879,0.028902652,-0.50867623
1.5302684,12.412921,1.6421925,0.111352004,-0.15793484,-0.793479
0.91718996,12.423302,2.0476747,0.13957398,-0.45814893,-1.0335491
0.49167326,13.484384,1.9581697,0.18163641,-0.9627934000000001,-1.2065461000000002
-0.23918076,13.15745,2.2591305,0.25083873,-1.5621918,-1.33591
-0.9499618000000001,11.795159,2.8494832999999997,0.39029053,-1.9380311000000001,-1.2640547
-1.8652171999999998,11.134915,3.3973434,0.5750335999999999,-2.0050866999999997,-1.0266201
-1.9873118000000003,10.488184,3.4218028,0.69373345,-1.8427361,-0.82913613
-1.26795,10.52943,2.5007052000000005,0.60376173,-1.5089593000000001,-0.6806085999999999
-0.46899540000000006,10.810644,1.3228444,0.45046946,-1.2310854,-0.58798397
-0.021365857000000002,10.691605000000001,1.1894777,0.4137303,-1.2539841999999999,-0.5693613000000001
0.056407392,10.383394000000001,1.5112776,0.41692424,-1.513759,-0.5714906
0.11933658,9.635666,1.5525535,0.3344051,-1.7724692,-0.5688377
0.4544674,8.422696,1.1494561,0.19706513,-1.8597705000000002,-0.5789432
0.89128464,7.031531,1.108726,0.08314749,-1.7367946,-0.5837428000000001
1.4278731000000002,5.909771,1.2849872,-0.0052010813,-1.5015068,-0.5821371
1.9836823000000001,5.2497087,1.5059528,-0.07440338,-1.1613594999999999,-0.5869193
2.428525,5.125938,1.6194378999999999,-0.15423475,-0.75466293,-0.6007598000000001
2.6653688,5.3858047,1.6396642,-0.19896753,-0.30218629999999996,-0.6108826999999999
2.7682717,6.147955400000001,1.6498827,-0.20694369,0.09332275400000001,-0.59117794
2.718702,7.331917,1.6557723999999998,-0.11058406,0.32967523,-0.53742176
2.1528375,8.254642500000001,2.2464986000000002,0.07784168400000001,0.34670967,-0.39954078
1.1148648,8.67583,2.6216892999999994,0.21092305,0.15187855,-0.24197245
0.5949687,8.678982000000001,2.5098797999999998,0.23966861,-0.041329395,-0.13391912
0.74433815,8.705911,2.310127,0.21996385,-0.11161379999999999,-0.039165188
1.3373531,9.480388,2.1944582,0.20664698,-0.020053834,0.025220007000000003
1.8709729,10.510565,2.2595901,0.25457373,0.25089110000000003,0.08539896
1.6125044,10.8085375,2.4202793,0.32217032,0.52450633,0.20038125
0.9182816999999999,11.031571000000001,2.1466602999999997,0.33016393,0.58945006,0.27808330000000003
0.5584428000000001,11.102449,2.0009493999999997,0.33122858,0.35522687,0.35793212
0.6610295,12.513181,1.5830845,0.3381401,0.23225096,0.45320964
1.1084676000000002,14.745409,0.49967948,0.34293973,0.34245107,0.5117829
0.94661945,14.29981,0.19863255,0.31258845,0.6096784000000001,0.45961499999999994
1.0459309,13.320236999999999,0.013187262,0.22954570000000005,1.1106053999999999,0.41064107
0.9645664,13.070971499999999,-0.2817305,0.17153096,1.7201092,0.46972045
0.6340611999999999,13.125587,-0.6595451,0.10019935,2.3264365000000002,0.5836380999999999
0.1211083,13.383070000000002,-1.4172621,0.030455995,2.6197392999999995,0.67148054
-0.5035581,13.167784,-1.6240348999999998,0.0022514747,2.4786818,0.7252541
-1.000786,12.405872,-1.2773353,-0.007853981999999999,2.1049892999999997,0.73694783
-1.2129121,11.140115,-0.67163104,0.0054454273,1.7089217,0.7220426999999999
-1.1242212999999999,9.621167,-0.18002482,-0.011571533,1.4763042,0.657099
-0.8183477,8.233966,-0.18672858,-0.12335987400000001,1.4401059999999999,0.59321994
-0.62163055,7.0447087,-0.4737838,-0.2809282,1.4725692,0.57033867
-0.5432635,6.0522833,-0.6264571999999999,-0.45607197,1.3890028,0.5261644
-0.39913258,5.3197722,-0.784532,-0.6114935,1.1446742,0.5027421
-0.33581072,4.767593,-0.8568369,-0.70678854,0.7874751,0.5288173
-0.24751258,4.5579953,-0.9185306999999999,-0.7259348000000001,0.45851544,0.5804616
0.06685569,4.823531,-0.6730963000000001,-0.6737844,0.15987216,0.5895024
0.6422398,5.912088400000001,-0.5332941,-0.58754766,-0.08658578,0.48783699999999997
1.4876419,7.8538820000000005,-0.81466067,-0.5699896,-0.21380283,0.24136159
1.9612726000000003,9.470773,-1.0506235000000002,-0.57157785,-0.19943877,0.060370937
1.4181431999999998,9.686758,-0.4469879,-0.4651128,-0.21486749,-0.008813913
1.2378023,10.957945,0.25523147,-0.33896038,-0.24682446,-0.07962192
1.2977531,12.996819,0.32200098,-0.16753416,-0.3005806,-0.27284732
1.0173729999999999,13.227246,0.9730610000000001,-0.004642576,-0.4895474,-0.58266073
0.7188256,12.656545,1.3114097,0.07998844,-0.8243888,-0.78494436
0.5043434,12.808117,1.4379864,0.17367771,-1.301876,-0.88767445
0.8106959,14.589728,1.2257643,0.21306979999999998,-1.8272723999999998,-1.0372492
0.7128209,14.256514000000001,1.3260908000000002,0.2785371,-2.0519311,-1.1123158000000002
-0.4102321,12.130702000000001,2.7719781,0.46272168,-1.8549707999999998,-0.97871083
-1.3817034,10.911957000000001,3.5752232000000004,0.5734454000000001,-1.3364685,-0.6332229
-1.4694557,10.671867,3.2148478,0.56121063,-0.79775506,-0.3404439
-0.47339115,11.630447,1.9591944,0.4132067,-0.44696137,-0.25687757
0.42988370000000004,11.772701,0.78538436,0.2705435,-0.31388003,-0.27762952
0.20480959,11.202527,0.8207802,0.2609791,-0.5624673000000001,-0.29305825
-0.20514478,10.254989,1.4001197,0.26843163,-1.1022452,-0.30318114
-0.25507826,8.859399,1.142197,0.16514306,-1.5329052,-0.2999872
0.36833355,7.5039929999999995,0.5198961,0.020367993,-1.7192191000000003,-0.30264008
1.1735419,6.266191,0.6786986999999999,-0.056793015,-1.5770795,-0.25953045
1.7834120999999998,5.2023993,1.0823803,-0.071174525,-1.1560188999999998,-0.1860521
2.269981,4.6134830000000004,1.3877368,-0.09459685,-0.59068924,-0.10569714
2.658215,4.7346296,1.3269624,-0.14782938,0.03478441,-0.055641095999999994
2.944389,5.3041816,1.4370382,-0.17978637,0.5090776,-0.037559487
2.711395,6.147448000000001,1.5689587999999999,-0.18615682,0.69593257,-0.0029496064
2.284011,6.978044500000001,1.8471171000000002,-0.1648638,0.5990493,0.055588737
1.6241306,7.80209,2.19125,-0.14304718,0.30892327,0.17057103
0.8846288,8.23932,2.490171,-0.073303826,-0.06846926,0.27757716
0.6703094,8.321622999999999,2.6912167,0.013456488,-0.25371853,0.42982224
1.1889797,8.738883999999999,2.3445075,0.05815437,-0.16589354,0.5442635
2.2941146,9.510142,1.9767773999999998,0.14280283,0.13379695,0.5224469
2.9542534,10.278739,2.1251700000000002,0.25991443,0.48832566,0.5235115
2.5379016,11.017647,2.0504422,0.34562755,0.5921204000000001,0.58899623
2.2540739,12.565833999999999,1.7584645,0.44409904,0.5899911,0.70024353
2.5465784,15.585429999999999,0.5784965999999999,0.45687485,0.59479076,0.7199309
2.6788529999999997,15.711039000000001,-0.45189120000000005,0.40791836,0.7273485,0.622524
2.3785055,13.767387,-0.46264598,0.29078930000000003,0.9828473,0.5064771
1.8459966,12.656095,-0.3684868,0.17207201,1.3629276000000001,0.47666687
1.9325901,12.911469,-0.57711756,0.057107173,1.7637773999999997,0.50328314
2.0244699,13.447598000000001,-1.2684672,-0.022183135,2.0586855,0.55279815
1.5890126,13.760042000000002,-1.5003408,-0.03869395,2.0554917,0.5543864000000001
1.1212909,13.396344000000001,-1.1594256,0.002268928,1.8361737,0.47719046
0.8107054,12.048111,-0.49022716,0.041678462,1.5269012,0.34677947
0.41817126,10.275703,0.053342815,0.07894124,1.2804258999999998,0.22488567
0.12879847,8.53326,0.46772167,0.07305948400000001,1.1760901000000001,0.09391617
0.18352993,7.054831500000001,0.33120429999999995,-0.029112091,1.1856719,0.014067353999999999
0.23546495,5.766645400000001,-0.17092685,-0.19467403,1.2165469,-0.02316052
0.25532725,4.879613,-0.4285238,-0.33093187,1.1819544,-0.027960173999999997
0.1418325,4.4173503,-0.5454087,-0.44699627,1.045138,0.007696901999999999
0.06562986,4.33724,-0.5924116999999999,-0.49755847,0.8529599,0.092327915
0.01367568,4.6505456,-0.63776743,-0.5034228000000001,0.5990493,0.17482963
0.1975025,5.483153,-0.691072,-0.49542916,0.33288664,0.18868755
0.5938960999999999,6.577140299999999,-0.7040677,-0.47839475,0.07630579,0.12692034
1.1565239999999999,7.8157473,-0.7390901,-0.4581664000000001,-0.20155062,-0.045518185999999995
1.7647948,8.999957,-0.39051345,-0.36713,-0.42352159999999994,-0.22118558
1.8965333999999998,10.641010000000001,0.13352942,-0.25055948,-0.52468085,-0.24195500000000003
1.8327997,12.762762,0.15153381,-0.11854276,-0.58321923,-0.37343064
2.2711685,13.621725,0.39068583,0.017715093,-0.63273424,-0.72743577
1.8299363000000002,13.066232000000001,1.0837785,0.15772541,-0.7168241999999999,-0.9100147
0.33465195,12.966028999999999,1.7534558,0.28068385,-1.1874173000000001,-0.92544335
0.056579772,14.792269000000001,1.8998374,0.34829790000000005,-1.9284142,-1.0686476
0.56037724,15.350701999999998,1.7439557,0.40365976,-2.3377638,-1.2102462
-0.26702052,13.368916,2.7199185000000003,0.6085963000000001,-2.1839304,-1.1218976999999999
-1.5633658000000001,11.695656,3.7931527999999997,0.8124857,-1.7974448,-0.8881806000000001
-1.8990711999999998,10.957916,3.5747252,0.85878927,-1.4785906,-0.71837753
-1.2900341999999998,11.373914,2.0334241000000004,0.6266954,-1.1789001000000001,-0.63268185
-0.61699533,11.290911,0.25938782,0.3094294,-0.9606466999999999,-0.62416464
-0.42477927,10.788235,-0.094829544,0.21736329999999998,-1.0458013000000002,-0.6236236
-0.641512,9.952103,0.60964996,0.23066272,-1.3577614,-0.58794904
-0.37206852,8.838866000000001,0.64670265,0.13535029,-1.6462818,-0.54644513
0.31587183,7.535931599999999,0.3375537,0.006021386,-1.7617877,-0.50757664
1.0353006,6.1908503,0.61113435,-0.060510565,-1.6430879,-0.46499062
1.6629453999999997,5.213776599999999,0.88261765,-0.08126253,-1.3348627,-0.42399284
2.1846037,4.6187596,1.1712434999999999,-0.08340929,-0.95638806,-0.39898226
2.4432254,4.4070554,1.3186688,-0.10681415,-0.46982518,-0.38247144
2.3769827,4.9462485,1.2425716,-0.16111134,0.013491395,-0.36650170000000004
2.2957330000000002,6.113719000000001,1.3107871000000002,-0.24467771,0.33875096,-0.30901054
1.8217385,7.396235000000001,1.7146122,-0.23511331,0.31906363,-0.22490312
1.1596651000000002,8.152716999999999,2.6228862,-0.08073893,0.099728115,-0.11311479
0.56639147,8.597013,3.0881562000000002,0.09597565,-0.17119935,0.030595621
0.52405244,9.175749,2.7431229999999998,0.19713494,-0.31066862,0.118420586
1.3431662,10.070768,2.0094151,0.23544492,-0.23774876,0.113638386
2.1085734,10.415103,1.9946285,0.31477013,0.00286234,0.16100663
2.0259256000000003,10.659944,2.5471623,0.43135813,0.33023375,0.24459045
1.7600063000000001,11.193305,2.4944612999999998,0.45741588,0.5830795999999999,0.27970648
1.5129343000000002,11.569175,1.8397716,0.45689228,0.71989596,0.37660715
1.2616485,13.567835999999998,0.7122271,0.40153044,0.80400336,0.55440384
0.99875563,15.722138000000001,-0.6082613,0.34936255,0.6884975,0.65554565
0.49774498,14.666018,-0.40039673,0.29241246,0.7576998,0.6007249
0.608223,13.253983999999999,-0.47884032,0.17210692,1.2330576000000002,0.56878537
0.6948069,12.712713,-0.5711416,0.03796091,1.9325332999999998,0.64329344
0.41525993,13.2017145,-1.1227466,-0.14407693,2.5117032999999998,0.79714423
-0.42544964,13.530504999999998,-1.7286712,-0.25640630000000003,2.693235,0.9382017
-1.2862418,13.128576,-1.5310153999999998,-0.30003956,2.442501,0.99303997
-1.5546988000000002,12.186687,-1.1134283999999999,-0.33304372,1.9373328999999997,0.9387428
-1.3199043,10.810261,-0.47853386,-0.39001128,1.4002079,0.8062024999999999
-1.138577,9.28232,-0.17723796,-0.47518334,0.97062993,0.7172954
-0.97787815,7.7458363,-0.22142535,-0.58271307,0.79761547,0.6635393
-0.5023514,6.485854,-0.26895505,-0.695025,0.7598291,0.6193475
-0.05744169,5.587473,-0.21064186,-0.7679449,0.7257603,0.5932723000000001
0.20352629,5.071771599999999,-0.22288103,-0.8126601999999999,0.58896136,0.59273124
0.40838376,4.9917955,-0.32452926,-0.8190656,0.3941128,0.5943195
0.59096557,5.4360633,-0.34861493,-0.79564327,0.18011798,0.6007249
0.7789391,6.123468,-0.38811925,-0.7296349,0.0065798913,0.5996602
1.1143668,6.8148174,-0.25403437,-0.6210405,-0.1158375,0.56985
1.5119383,7.5522027000000005,-0.15758635,-0.52522194,-0.18397516,0.47933722
1.9326091,8.203378,-0.064432755,-0.42833869999999996,-0.26860616,0.29834658
2.3835905,9.067091,0.24041615,-0.31335640000000003,-0.3378085,0.03965388
2.832446,10.599964,0.65938234,-0.20528562,-0.33302626,-0.27227136
3.0777848,12.0176,0.9185499,-0.08817403,-0.28883454,-0.495307
2.4623983,12.760406,1.3922187,0.07841764400000001,-0.3127979,-0.65076345
1.6429585999999998,12.834042,1.7912555000000001,0.19818214,-0.5347689,-0.8663639999999999
1.2245575,12.476337,1.7917726999999999,0.26631978,-0.9111316999999999,-1.1117573
1.1030469999999999,13.152001,1.8652269000000001,0.31850514,-1.4562155,-1.3486334
0.8927116,13.706651999999998,2.0938346,0.3845135,-1.8927221999999997,-1.6014966999999998
0.008896854000000001,12.141417500000001,2.9965541,0.49630183,-1.9230735,-1.5493288
-1.7559074000000001,11.118146000000001,3.6346184999999998,0.67676884,-1.6813977999999998,-1.1990587
-2.611231,10.144414999999999,3.4867046000000004,0.8316667999999999,-1.4072415,-0.8301484
-1.9009770000000001,10.220771000000001,1.8277240000000001,0.73106605,-1.351356,-0.7109075
-0.69813967,11.041455000000001,-0.119508974,0.44839254,-1.5174416000000002,-0.6976081000000001
-0.22358012,11.580706,0.10097785,0.32169908,-1.9017806000000002,-0.73167694
0.14016613,11.823478,1.4460691,0.35789722,-2.2568502,-0.75722855
0.3566594,11.037461,1.8521450000000002,0.31265828,-2.3436107999999995,-0.742847
0.9227924000000001,9.412066000000001,1.1252748,0.15774286,-2.1679432,-0.7391295
1.6704441000000003,7.7152863,0.9620764,0.000715585,-1.756447,-0.7481703000000001
2.3003871,6.261508,1.2471493,-0.10147344,-1.2241216000000001,-0.7540170999999999
2.5726366,5.1953125,1.5383512,-0.1626996,-0.72267103,-0.7242244000000001
2.473076,4.5773114999999995,1.6680307,-0.16111134,-0.23827235,-0.6976081000000001
2.102808,4.6407194,1.7750994999999998,-0.13767157,0.19716984,-0.62360615
1.5316858,5.6823697,1.3472173,-0.14351842,0.47450265,-0.48839548
1.1635342,6.9201429999999995,0.89467484,-0.18664551,0.55115753,-0.33721507
0.6995474,7.3386593,1.0313550999999999,-0.18877481,0.33077478,-0.15674803
0.2733125,7.438181,1.9067519,-0.12969542,-0.18875736,0.0039968040000000005
0.24574086,8.15355,2.4156632,-0.09189159,-0.7056366,0.04230678
1.0239042999999999,9.59168,2.46485,-0.046652652,-0.8552288,0.07318166
1.8517905,10.247931,2.6555720000000003,0.081629045,-0.5315749,0.1258906
2.505379,10.298936999999999,3.1378310000000003,0.30839968,0.12370893,0.13601351
2.683402,10.575447,3.074998,0.44148102,0.6741334,0.20467477
2.1456165,11.464088,2.2972078,0.56550413,1.1372565000000001,0.40215877
1.7962258000000002,14.359904,1.1029513000000002,0.5937260999999999,1.525313,0.64863414
0.83809507,15.873748999999998,-0.37920326,0.5415582,1.5897331000000001,0.7428645
-0.09864111,14.159844,-0.7587512,0.42020547,1.5301127,0.7263710999999999
-0.5750298,12.864774,-1.0558047,0.21579250000000003,1.5870802,0.7428645
-0.5102331,12.863615,-1.2465267,0.0012391837,1.9282921999999998,0.8711462
-0.5707873,13.226403,-1.5610961,-0.10307915,2.2301118,1.0654362
-0.87234175,13.201466,-1.5279603000000002,-0.10786135,2.2471464,1.1963882
-0.80084133,13.135376,-1.3166481,-0.09028588,2.0273046000000003,1.2027936000000001
-0.37348590000000004,12.63922,-0.9927700999999999,-0.069533914,1.6898103,1.109628
-0.11099519599999999,11.288374000000001,-0.59823436,-0.06633996,1.444417,0.98028165
-0.0037732618,9.516032000000001,-0.2046468,-0.09667379,1.3198353999999999,0.84294164
0.18549317,7.8827940000000005,0.0062728086,-0.17650515,1.3507278,0.7332826
0.42943358,6.4818034,0.0032561141999999997,-0.28192303,1.3688093000000001,0.5804965
0.60655665,5.5365343000000005,-0.1996477,-0.4336445,1.3214412,0.48150143
0.5032612,4.874575599999999,-0.6501215,-0.5874778,1.1889008,0.46392596
0.25883237,4.584810299999999,-0.79178166,-0.69074893,0.93764323,0.49160690000000007
0.13100114,4.852519999999999,-0.76279265,-0.7572809,0.61770695,0.52834606
0.22187546,5.5793324,-0.8476336,-0.7903025,0.31480503,0.5336519000000001
0.753666,6.617871000000001,-0.6248961999999999,-0.7418522,0.11677998,0.49054223
1.4715433999999998,7.907407000000001,-0.3352361,-0.63219315,0.018849555,0.41229913
1.9406921000000001,9.156039999999999,-0.067468606,-0.45172609999999996,-0.009354965,0.28293532
2.4173872000000003,10.362478,0.34130782,-0.23614305,-0.010419616,-0.021537364
2.9507673,11.195314999999999,0.6902292,-0.03598869,0.12744394,-0.20411626
2.323525,12.290422999999999,0.8375587999999999,0.14285520000000002,0.18599974,-0.27440065
2.0455389999999998,12.921909,0.79677117,0.22909191,-0.08227482,-0.5671622
2.190972,12.291583000000001,0.9722662000000001,0.27754226,-0.5006826,-0.9312728000000001
1.5270122,12.28984,1.2665231000000001,0.34513885,-0.8333947,-1.0712831
0.7446733,14.06422,1.0418703999999999,0.39784780000000003,-1.2624315000000002,-1.1809247
0.07760087,13.658057999999999,1.2702581,0.48886672,-1.6936326000000002,-1.2655731000000001
-0.71269643,12.37534,2.2125392,0.6347239,-1.8639767,-1.1745542
-1.2367105,11.3884325,2.715427,0.77419317,-1.6941562,-0.9845053
-1.3890488,10.942105,3.0558155,0.8902401,-1.2581904,-0.83599526
-0.90971047,11.52719,1.9607842,0.74118894,-0.7184124,-0.8099026
-0.74963415,11.918422,0.21142717,0.5282588,-0.4224395,-0.7966032
-1.2880135,11.714034,0.43446140000000005,0.4585329000000001,-0.6912550999999999,-0.7854156
-1.9679571,11.087567,1.1710615,0.3808134,-1.2257098,-0.72633624
-2.1678636000000004,9.847543,0.80405915,0.19182913,-1.6499819,-0.6693687
-1.261141,8.340259,0.06541917,-0.02586578,-1.8932459,-0.6693687
0.11216356,6.980994,-0.050517655999999994,-0.15097098,-1.9874762,-0.71249574
1.1636298999999999,5.8521757,0.4411556,-0.189822,-1.8687589,-0.7353770000000001
2.023177,5.147533999999999,0.87275356,-0.17385225,-1.5174241000000002,-0.6832090999999999
2.5397406000000005,4.882696599999999,1.0673734,-0.108367495,-0.9712583,-0.58578485
2.7295816000000004,4.8966694,0.9649686,-0.06686357,-0.37453020000000004,-0.5176647
2.3817806,5.2517962,0.5933119000000001,-0.04982915,0.091245815,-0.4867898
1.7325401000000002,6.0797495999999995,0.8852609,-0.03651229,0.23230332,-0.37765434
0.9894181999999999,7.0481277,1.571985,0.0033859387,0.02469641,-0.21849777
0.39673838,7.851995,2.2666004,0.12795009,-0.25209534,-0.024731316
-0.049674895,8.455621,2.39831,0.21579250000000003,-0.5091998,0.17221163
0.5319629,9.239109,1.8356057000000001,0.24293238,-0.59969515,0.25366616
1.391759,9.984865,1.6099952,0.2620961,-0.48844784,0.26057765
2.1304564,10.712883999999999,1.9731574,0.33396876,-0.15573573,0.26218337
2.2731220000000003,11.093217999999998,2.3926884999999998,0.46650904,0.27063075,0.33670890000000003
1.4754317,11.40523,2.3080106,0.59056705,0.53148764,0.40964620000000007
1.4821832,13.722223000000001,1.1866716999999998,0.55808645,0.8072148,0.52356386
0.7515495,16.176289999999998,-0.8062235,0.43671629999999995,0.88386965,0.6236411000000001
-0.47195459999999995,15.038181,-1.0686089,0.34463271,0.7694284,0.5863783
-0.8769769000000001,13.427574,-0.7368874,0.117844634,0.8423483,0.5725204
-0.7653784,12.5982895,-1.0855215,-0.11955505599999999,1.334758,0.693908
-0.8528434000000001,12.728908,-1.3807266000000002,-0.30906290000000003,1.7787174,0.8812690999999999
-1.2368733,13.256148999999999,-1.8525375,-0.45917870000000005,1.9181867,1.0574776000000001
-1.4297788999999999,13.40572,-1.6378063999999999,-0.47513098,1.6600176,1.1144451000000002
-1.1803223,12.902842,-0.5058948,-0.38039452,1.1995473,1.0463074
-0.6252026999999999,11.589889999999999,0.561651,-0.28297022,0.8327839,0.8823511999999999
-0.048152182,9.815126,0.9973095,-0.26593579999999994,0.7135255,0.7029488
0.33364636,8.144145,0.875617,-0.3425907,0.8093615,0.55018014
0.73392814,6.717612700000001,0.52925265,-0.47780132,0.97171205,0.41922808
0.85236454,5.6696515,0.21568884,-0.6231349,1.0584723999999999,0.3521551
0.69279575,4.881107,-0.17881814,-0.74982834,1.0659424,0.37077776
0.39534974,4.420281,-0.38765958,-0.80039054,0.9663888,0.42615703
0.28971756,4.591428,-0.44884579999999996,-0.7961319,0.7689048,0.47724283
0.32380143,5.3512900000000005,-0.62774056,-0.7657980999999999,0.51658255,0.49588296
0.62870777,6.5846004,-0.8801948,-0.7141538000000001,0.20835741,0.42880994
1.1099231999999999,7.9195020000000005,-0.8972223,-0.6151413,-0.074281216,0.3447025
1.353969,8.708449,-0.6038273000000001,-0.43627995,-0.3665366,0.25579545
1.5898649,9.336755,0.124172874,-0.21270327,-0.6657035,0.051382493
2.2608352000000003,10.582831,0.6717938,-0.054070299999999995,-0.83337724,-0.21209241
2.453645,11.966277,0.9971946,0.04490732,-0.7998495,-0.3371976
2.2936165,12.591442,1.3521397,0.15404277,-0.7136128,-0.5671622
2.639981,12.745428,1.678029,0.20303415,-0.5512448,-0.93764323
2.1634772,12.633264,1.8211734,0.30415854,-0.4421268,-1.1276921
0.6771855999999999,14.142223000000001,1.8663758999999998,0.41650537,-0.7333001,-1.1825128999999999
-0.18333839,14.825041,1.8465041000000002,0.5405285,-1.2879832,-1.3448809
-0.9831167,13.352501,2.556969,0.71937233,-1.5472344,-1.3688443000000001
-2.4904773,12.42585,2.8945804,0.84182465,-1.4663209,-1.1606963
-3.5014627000000003,11.866391,2.6013672000000003,0.8695056000000001,-1.3321749,-0.9711885
-3.0808396,11.615488000000001,1.9784247,0.69542646,-1.2358153,-0.8663116
-2.7712404999999998,11.385483,0.7487339,0.45375070000000006,-1.2177162,-0.7923271
-2.6958039,11.125405,0.27143544,0.3196047,-1.5121008999999999,-0.7720988
-2.4516816,10.462202,0.6917615,0.29618236,-1.9358319,-0.7486764
-1.9164915,9.189366999999999,0.60146177,0.18280579,-2.2844963,-0.7055668
-0.98338485,7.7103734,0.16017209,0.06941175,-2.4484525,-0.6560518
-0.04233906,6.4280963,0.3048106,0.007120943,-2.4404764,-0.5948431
0.7389560000000001,5.4303846,0.62868863,-0.009878564,-2.2690678,-0.5346816
1.4108264,4.9620595000000005,0.93351835,-0.022130774,-1.9352909,-0.4590914000000001
1.9319005,5.0439415,1.0660998,-0.050335295,-1.4604566,-0.37498400000000004
2.3365877,5.368451599999999,0.9193256,-0.11794935,-0.89619166,-0.37978363
2.4602625,5.8477135,0.833096,-0.14828317,-0.5091998,-0.42449898
1.6570653000000002,6.7131977,1.5510883,-0.114214346,-0.47513098,-0.33079225
0.712773,8.042124000000001,2.2127979,-0.022130774,-0.743423,-0.19399334
0.3003191,9.052764,2.8366694,0.083269656,-1.0324495,-0.0726057
0.28616455,9.216633,2.714747,0.097092666,-1.194835,0.020507618999999998
0.97636503,8.98746,2.4970567000000004,0.09550442,-1.1075336,0.12644911
1.9530939999999999,9.21694,2.5832095,0.15191346,-0.73809975,0.20736256
2.778768,9.752599,2.7052085,0.30684632,-0.12751375,0.24942501
2.9447722,10.622402000000001,2.6069313999999997,0.44738024,0.4351455,0.25848326
2.3631632000000002,11.368972,2.2911935000000003,0.53626984,0.5889788,0.3058515
1.4581263,12.732288,1.9772179,0.5639508000000001,0.6102718,0.43467426
1.3270198,15.845966,0.5247611,0.51124185,0.8444950000000001,0.57838464
0.47918513,15.597007999999999,0.24811591,0.4851666,1.3337108,0.65132195
-0.39579028,13.349704999999998,0.48005658,0.34889132,1.7249613000000001,0.6204470999999999
-1.2535945,12.399867,0.24916936,0.09498082,1.9373678,0.6699621
-1.9545305,12.733591,-0.7681078,-0.24675465,2.0470269,0.7801446999999999
-2.4537597,13.382228,-1.7130991999999998,-0.5028119000000001,1.8713421000000001,0.91483176
-2.6867445,12.958779,-1.4023223,-0.56243235,1.3778851,0.97871083
-2.2417486,11.897822,-0.4084508,-0.5288871,0.8679173000000001,0.9850986999999999
-1.5056463,10.646372999999999,0.19215862,-0.5198463,0.42076397,0.95687675
-0.7495861999999999,9.173355,0.30513623,-0.53686327,0.18015288,0.92334896
-0.15680106,7.9272594,0.49756297,-0.55072117,0.19559905,0.9004503
0.3619937,6.868467,0.5493352,-0.56721455,0.39414770000000005,0.8754396999999999
0.69840777,6.081540599999999,0.54771674,-0.5656263000000001,0.64381707,0.8445648000000001
0.8095945999999999,5.5526233,0.50856674,-0.5741435,0.79126245,0.82007784
0.8005635999999999,5.4047,0.1885769,-0.6225764,0.79658574,0.7870736999999999
0.78379464,5.6215470000000005,-0.06930735,-0.6640978,0.67362726,0.7333001
0.7795233,6.119206,-0.10163865,-0.6779556999999999,0.4803844,0.67155033
0.81230474,6.630128999999999,0.06702807,-0.6396283,0.24829054,0.6119299
0.90149355,7.048760000000001,0.42516232,-0.5363397,-0.03647738,0.496424
1.3618697,7.6832423,0.7371938,-0.41442844,-0.33724996,0.26912978
2.0609193,8.805021,0.9481516999999999,-0.3085044,-0.53527504,-0.012461651
2.5385242000000003,10.240269,1.1718373,-0.20097466,-0.60393625,-0.21900392
2.7200046,11.591211999999999,1.2805243999999998,-0.08653343,-0.68858474,-0.44312164
2.967431,12.478723,1.415203,0.022043508,-0.73649406,-0.7188661999999999
2.8493586,12.563095,1.6037128999999999,0.07953466,-0.73223543,-1.0771124
2.4273088,12.306369,1.6212575,0.08965756,-0.6917787,-1.3076006000000002
1.2442858,13.297932999999999,1.6106943999999999,0.16844173,-0.8413533999999999,-1.3161178999999998
0.007019799,14.982484,1.7440897000000002,0.3052581,-1.2283627000000001,-1.3395402
-1.022985,13.526972,2.6609540000000003,0.5203001,-1.43117,-1.3832083
-2.2760813,12.283471,3.6835462999999997,0.75134677,-1.367291,-1.2022003
-3.2640727000000003,11.941406,3.5181358,0.83438957,-1.2390093,-0.9770353
-2.8209922,11.816928,2.3675592,0.7348359999999999,-1.1937528999999998,-0.91102695
-2.1675665,11.926802,1.0267007,0.50806534,-1.3177934,-0.88760465
-1.9224099,11.405478500000001,0.13351984,0.34143877,-1.6488998,-0.8886693000000001
-1.6081375,10.492637,0.47286442,0.28768262,-2.129581,-0.88228136
-1.085033,9.257804,0.70270777,0.21155135,-2.422901,-0.8519300999999999
-0.24462996,7.8332630000000005,0.44068635,0.08646361,-2.4952972,-0.82105523
0.7706456,6.5245543,0.54693145,-0.015184363999999999,-2.4101253,-0.815732
1.7190655,5.5786242,0.8235958000000001,-0.073216565,-2.1013763,-0.8088204999999999
2.413001,5.032871,1.0588021,-0.10728539,-1.6089666999999999,-0.79976225
2.7494056000000002,4.8963339999999995,1.2410967,-0.103026785,-0.99892175,-0.7816806
2.7661552000000005,5.137459,1.578095,-0.093968526,-0.42348668,-0.69064426
2.4532237,5.950798000000001,1.6539146,-0.073216565,0.041748274,-0.5554336
2.0629494,6.8453669999999995,1.8430374,-0.009878564,0.3142989,-0.41170569999999995
1.3784856,7.6654963,1.8443205000000003,0.07475245,0.36007887,-0.29618236
0.75354147,8.273777,1.9678901000000002,0.17802358,0.21369812,-0.16257742
-0.2527798,8.784967,2.1345553,0.25733134,-0.12112585,0.053529248
-0.88212925,9.323577,2.06814,0.27597147,-0.5879665,0.19086921
-0.19466776,9.588376,1.9440821,0.25413739999999996,-0.86051714,0.21481512
0.8437167,9.933197999999999,2.0881748,0.2578724,-0.735953,0.26485372
1.3860033999999999,10.502127999999999,2.2808982999999996,0.29141763,-0.32873276,0.30052823
1.6854508999999998,10.856862,2.4574757000000003,0.38189548,0.056653388,0.36334264
1.3965954,11.591049,2.5298762000000004,0.5075417,0.41331142,0.54274505
1.8824267,14.970483999999999,1.2466896,0.50487137,0.809379,0.56882024
1.6105795,16.587077999999998,-0.17049589999999998,0.54213417,1.335299,0.5698849
0.271943,14.501307,0.41271248,0.5964314000000001,1.9027580000000002,0.5549798
-0.7706456,13.552887,-0.085836925,0.47879618,2.3382,0.5762728
-1.3636511999999998,13.246026,-1.1329553999999997,0.24455553,2.574029,0.66357416
-2.1155262,12.908951,-2.1501462000000005,-0.02904228,2.477146,0.8514938
-3.0005764999999998,12.672011,-2.5149364,-0.1828756,2.0571322,1.0127796999999998
-2.9390166,11.99383,-1.9149494999999999,-0.20470966,1.4438933999999999,1.0559068
-2.0755239,10.94629,-0.9915729999999999,-0.19830431,0.88921034,1.0042624
-1.0930966999999998,9.760385000000001,-0.42338103,-0.2414314,0.5410695,0.91537285
-0.20983742,8.312975,-0.009251195,-0.30211648,0.53361696,0.82220715
0.60432523,7.1893473,0.12582009,-0.40434042,0.7385535,0.693908
1.0454424999999998,6.5147758,0.053381122999999996,-0.50813514,0.98715824,0.59278363
1.0586778000000001,6.0891155999999995,-0.12012189,-0.6071477,1.1803836,0.55869734
0.96191365,5.9948797,-0.34938106,-0.6806085999999999,1.2112758999999997,0.5485919
0.8438699000000001,5.9942193,-0.5104342000000001,-0.7285179,1.1276921,0.52729887
0.7321373000000001,6.176016000000001,-0.63640755,-0.7748389,1.0089748,0.50865877
0.6120729,6.570216,-0.8986588,-0.8083667,0.85034186,0.50174725
0.6150896,7.1389065,-0.9227445,-0.7875973000000001,0.70024353,0.5022709
0.77147883,7.729249,-0.7853269,-0.7519402,0.52509975,0.42668065
1.0267103000000002,8.151022,-0.61097157,-0.6869965,0.2616074,0.25048965
1.3420553999999998,9.068786,-0.18155710000000003,-0.5693613000000001,-0.025848325,0.09557423
1.3394983999999999,10.603038,0.15693514,-0.3814417,-0.31382766,-0.013002703000000001
1.3088046,12.053637,0.42446320000000004,-0.18289305,-0.5853136,-0.1998402
1.6792356,12.786453999999999,0.64417434,-0.03970624,-0.7205417,-0.4628264
1.6459084,12.851462,0.8719108,0.019373154,-0.7561988000000001,-0.7151487
1.1420341999999999,12.912763,1.1462575000000002,0.11412708,-0.9185493,-0.85568255
0.39950606,14.379499,1.6369253000000001,0.24507913,-1.3183345,-0.9876993000000001
0.27271873,14.261963,2.072488,0.3968006,-1.6249539,-1.2293576000000002
-0.22948903,12.467134,3.0662925,0.6182479999999999,-1.5589455,-1.2740729
-1.9295446,11.845761999999999,3.6533027000000002,0.77901024,-1.2070698,-0.94137824
-3.0586407,11.54509,2.5834107000000004,0.78379244,-1.0106504,-0.7385535
-2.0178523,11.482792,1.438944,0.6757390999999999,-1.1139215,-0.7571936
-1.5363784,11.222906,0.67165977,0.47450265,-1.3013,-0.74282956
-1.8976346000000002,10.722365,0.13049358,0.34196237,-1.6622167,-0.73431236
-1.5175313,10.157726,0.591885,0.27328366,-2.1258633,-0.7417649000000001
-0.71654624,9.350458999999999,0.87892103,0.14926055,-2.3387935,-0.7162133
0.23889345,8.176285,0.59507406,-0.017872171,-2.1918716000000003,-0.7013081999999999
1.1957792999999999,6.931099000000001,0.5252399999999999,-0.109432146,-1.9028276999999998,-0.73431236
1.8979125,6.0306873,1.0369287,-0.14404203,-1.5312647,-0.7465470999999999
2.1531537,5.5097475,1.3973136,-0.17278759,-1.0947578000000002,-0.70024353
2.2290018,5.3036737,1.3695409,-0.22814944,-0.58585465,-0.61667717
2.1858392,5.5646224,1.1542543,-0.28670523,-0.1237962,-0.5889788
2.1200273,6.1384077,1.1478856000000002,-0.27286479999999996,0.21633355,-0.6124185999999999
1.5490965,6.9994297,1.5937625,-0.21750294,0.31801644,-0.5362873
0.851426,7.865374,1.8820723000000001,-0.09506808,0.14447835,-0.40852922
0.30293357,8.12412,2.3598689999999998,0.09494591,-0.060981803,-0.19507545
-0.32140723,8.172081,2.3256605,0.18172368,-0.2904228,0.039671335
-0.037952885,8.484486,1.6629453999999997,0.21792181,-0.44745007,0.16051793
0.78426385,9.069389,1.653225,0.28658307,-0.34791392,0.28879964
1.3217524999999999,9.597301,1.937819,0.39784780000000003,-0.019460421000000002,0.40271726
1.5793303,10.20585,1.9800621999999999,0.48408452,0.31162855,0.4538205
1.2815012,10.736117,1.8475767,0.54637533,0.45375070000000006,0.5810376
0.53395486,11.391497,1.7125342000000001,0.61557764,0.4622679,0.823778
0.56204367,14.088287,0.7255196999999999,0.56658626,0.5527632,0.9706998
0.76286924,15.56121,-0.47396576,0.47554985,0.7949626000000001,0.9573828999999999
0.5863209,13.820012,-0.31436825,0.42551127,1.0776361,0.8120668000000001
0.39950606,12.243478999999999,-0.042817900000000006,0.33822736,1.4641043,0.74234086
0.3285515,12.15204,-0.19768445,0.17585938,1.9447855,0.8062024999999999
0.19936039,12.623649,-1.0277254999999998,-0.028536132999999998,2.315284,0.9387601999999999
-0.05984546599999999,13.149741,-1.7403644,-0.15151203,2.352564,1.0085036
-0.16496049,13.098668,-1.5319252,-0.172264,2.0565913,1.0053097
-0.20370825,12.517882,-0.91129065,-0.17332865,1.5806749,0.9488656999999999
-0.15880261,11.317995,-0.4144459,-0.1754754,1.196877,0.83068943
-0.013311761,9.858135,0.030597900000000004,-0.20420352,0.99511695,0.6773796999999999
0.17260279,8.429122,0.21272962,-0.25851816,1.0318561,0.50118876
0.6095925,7.2992024,0.15187858,-0.34527847,1.108511,0.35904914
0.8560803,6.412821299999999,-0.22960395,-0.48846530000000005,1.0967999,0.28506464
0.8402116,5.8231583,-0.60295576,-0.6178291,1.0052398,0.26110125
0.8143541999999999,5.7246513,-0.70011246,-0.70778334,0.8359603000000001,0.27654743
0.7500171999999999,6.102619,-0.8041931999999999,-0.740805,0.67306876,0.32018065
0.69400245,6.728329,-0.8612996999999999,-0.7216413,0.543705,0.36650170000000004
0.79916537,7.2621210000000005,-0.81417227,-0.6699970000000001,0.43671629999999995,0.37182495
1.1131697,7.7498393,-0.75901943,-0.5715255,0.32384583,0.3100752
1.463566,8.408425999999999,-0.5447671,-0.46931905,0.22378612,0.18125243
1.8126883999999999,9.460295,-0.25011745,-0.35859534,0.117844634,-0.0045204028
1.8937081999999998,10.6500025,0.17381905,-0.21113248,0.06941175,-0.08808677
1.3241180000000001,11.716965,0.7542693,-0.026424285,-0.08122762,-0.1258906
1.1527219,12.101195,1.3272688,0.066723935,-0.31703904,-0.40907028
1.7801082,11.990736,1.2653548000000001,0.06777114,-0.42671555,-0.7519053000000001
1.1342961999999999,11.8463,1.4116691000000001,0.13219124,-0.5432861,-0.86634654
0.19315462,12.790266,1.6603789,0.22853342,-0.9180431999999998,-1.0542661
-0.03751235,13.361006,1.7921845,0.33393383,-1.3817073,-1.176701
-1.1144722,12.698098,2.3705757000000003,0.4973665,-1.6462643,-1.0473371999999999
-1.96744,11.902792999999999,2.5239482000000004,0.63470644,-1.5914435,-0.8658229
-1.9637433999999998,10.998981,2.4068047999999997,0.74117154,-1.4045886,-0.7236833
-1.6385534,11.176833,2.183148,0.70549697,-1.2864124,-0.6326644
-1.139257,11.53514,1.1634096999999999,0.48830822,-1.3108993999999998,-0.6129595999999999
-0.74195355,11.435195,0.5262264,0.32489303,-1.5036011999999999,-0.5932723000000001
-0.017745823,10.796988,1.1179868,0.28337166,-1.6409411,-0.5932723000000001
0.84504783,9.4437275,1.3197031000000001,0.2216219,-1.5893142,-0.5804965
1.4434258999999998,7.928264599999999,1.0237032,0.14761995,-1.2805655,-0.5623974
1.8702834,6.693651700000001,0.8214601999999999,0.09758136,-0.9233664,-0.56930894
1.9635996999999998,5.730876,1.0556419,0.056059975,-0.6263288,-0.544822
1.6407081000000001,5.212637,1.2592256000000002,0.009232792,-0.3867824,-0.49958304
1.3540743999999998,5.297554,1.2588329,-0.052516956,-0.19142771,-0.43889794
1.1425418,5.6955566,1.1755626000000001,-0.110025555,-0.08815658,-0.37182495
0.9441965,6.3177905,1.1152191,-0.17868681,-0.070581116,-0.3122045
0.7324341999999999,7.1446137,1.1865758999999998,-0.18559831,-0.15468854,-0.2536487
0.42722136,7.9639387,1.6037128999999999,-0.115872405,-0.32983232,-0.14292501
0.17809029999999998,8.712174000000001,1.9952797999999998,-0.037611846000000004,-0.5315749,0.008761553
0.23404758,9.054143,2.066177,0.017191493999999998,-0.6534861999999999,0.11470304
0.6084624,9.324534,2.2728636000000004,0.06510078,-0.60664153,0.15887733
1.2898332000000001,9.809438,2.4686517999999995,0.066706486,-0.4474675,0.15674803
2.0810592,10.44029,2.5371547000000003,0.076829396,-0.14084807,0.10192723
2.3873925,10.810501,2.613003,0.15454890000000002,0.26050785,0.16793558
1.8748897,10.814504,2.394604,0.27164304,0.51015973,0.34253833
1.7107816000000002,12.293737,1.5944617,0.39568359999999997,0.74864155,0.58260834
1.6047472,15.266895000000002,0.09391975,0.3733259,0.7726049,0.72474796
0.8319564,15.57185,-0.74403167,0.30251792,0.6714631,0.73804736
0.2392382,13.254176000000001,-0.0474435,0.18381807,0.6868918,0.74975854
0.25275108,12.095929,-0.014537593,0.013997541,0.99457586,0.78702134
0.64336985,11.779013,-0.14160267,-0.14196508,1.4709983999999998,0.8998743
0.71059906,11.975462,-0.7618254,-0.2723761,1.8042341,1.0026219
0.5948154999999999,12.16151,-1.3480313999999998,-0.36180675,1.8319150000000002,1.0579836
0.44739009999999996,12.031227000000001,-1.2224315000000001,-0.36925929999999996,1.5763988000000002,1.0542486999999998
0.47868710000000003,11.456839,-0.5718407,-0.33786082,1.1750254999999998,0.9749235
0.5331887,10.386688000000001,-0.00998861,-0.2957984,0.8886344,0.86952305
0.59360874,8.981138,0.30459034,-0.2601413,0.8114559,0.74337065
0.72639126,7.702224,0.45093355,-0.26652923,0.9328261,0.6294529999999999
0.8184339,6.857730999999999,0.32155088,-0.3330612,1.1111465,0.56238
0.73144776,6.2718983,0.03794331,-0.437938,1.2000534999999999,0.5517335
0.61911184,5.8885293,-0.2904071,-0.54120916,1.1792841,0.5479984999999999
0.6202036,5.850318,-0.4504451,-0.5955063,1.0142632,0.5378930000000001
0.6947781999999999,6.1496797,-0.48143566,-0.60615283,0.7539648,0.5213822
0.8643834,6.6439285,-0.43024759999999995,-0.572084,0.47396162,0.47773153
1.0704763000000002,7.173871000000001,-0.358412,-0.5060757,0.24080308,0.4149170999999999
1.4084514,7.6697197,-0.20822851,-0.45125487,0.053948127,0.23712043
2.03465,8.2146015,-0.12864524,-0.4256858,-0.117425755,-0.08756317
2.6535704,9.009707,0.46041456,-0.303792,-0.14777702,-0.27122417
2.2550220000000003,10.585283,1.0110618,-0.13555972,-0.21432643,-0.23022638
1.9075946,12.088391,1.0848128000000001,0.04061381,-0.52626914,-0.43572146
2.7543566000000004,12.661937,1.184833,0.18167132,-0.7040658000000001,-0.87381655
2.7813249,12.54192,1.2894118,0.28441885,-0.5848249,-1.045749
1.3746836,12.945725999999999,1.3552713,0.41270056,-0.62421703,-0.979217
0.91136724,14.047164000000002,1.3591692,0.5622753,-1.0591356,-1.1378675
1.1238958000000001,13.533666,2.0203805,0.7038913,-1.4982953,-1.4221117
0.38224867,12.118587,2.9652667,0.90509284,-1.6361763,-1.3939072
-1.3689183,11.218950999999999,3.6226475,1.0301981,-1.4770024,-1.0883524
-1.7501134999999999,10.931695,2.5654063,0.9051103000000001,-1.2704600000000001,-0.94514817
-0.8114140999999999,11.066930000000001,1.3203065,0.6740811,-1.0458186999999999,-0.9238550999999999
-0.5118037,11.015779499999999,0.7775505,0.45368087,-0.8579165999999999,-0.9222669
-0.6901526,10.966382000000001,0.46568180000000003,0.34084535,-0.94094193,-0.97176445
-1.0441209999999999,10.876762,1.0354922,0.31740558,-1.2422556,-0.9893398999999999
-1.1396591999999999,10.068327,1.191259,0.18807667,-1.4551682,-0.9659001
-0.5285153,8.745023,0.49018884,0.004939282,-1.5243706,-0.97656405
0.20714633,7.495498700000001,0.5172625,-0.12866567,-1.5653683,-0.9866870000000001
0.88869894,6.400774,0.8511386999999999,-0.23513076,-1.4908428,-0.9526007
1.4056549999999999,5.8597507,1.0030748,-0.30750957,-1.2044517,-0.8658404000000001
1.8638476000000002,5.603026,1.0913058999999998,-0.31072098,-0.8036194000000001,-0.7844033
2.1368442,5.659366,1.1727087,-0.27824038,-0.373483,-0.72157145
2.1611502000000002,6.167981,1.1432027,-0.24630086,-0.03705334,-0.63959336
1.7232313999999997,6.915115400000001,1.2420161,-0.21277308,0.12740904,-0.5304754
1.1801499,7.568924000000001,1.3104519,-0.15315264,0.02146755,-0.42346925
0.554296,8.025497999999999,2.0234356,-0.034976397,-0.17706366,-0.25953045
-0.08045476,8.423644,2.3277962000000003,0.06349508,-0.43629742,-0.060423300000000006
0.053582232,9.006163,2.3378134,0.11033971599999999,-0.55342644,0.09765117
0.82643056,9.65527,2.194688,0.19177678,-0.29045770000000004,0.17749998
1.5962333999999998,10.070252,2.3697712,0.3035651,0.23706807,0.28396508
1.2054709,10.311817,2.267213,0.36744416,0.64961153,0.5006128
0.42951977,10.537657000000001,2.0000587,0.44783404,0.72787213,0.70450217
0.31747112,11.956097999999999,1.5550628,0.5117130999999999,0.82527894,0.936055
0.7434954,15.037713,-0.08093359,0.41641809999999996,0.9498431,1.0286796
0.39113596,15.453107000000001,-1.1031715,0.36692056,1.087183,1.0446494
-0.36166809999999994,13.504964000000001,0.0030262708,0.36957347,1.270844,1.0510373
-0.43540952,12.821946,0.238089,0.23542747,1.7046806,1.1207806
-0.121855296,13.100201,-0.49465165,0.020367993,2.2008252,1.2165992
-0.24974397,13.158954000000001,-1.3347962,-0.20586158,2.4643175999999998,1.3267818999999998
-0.69295853,12.72138,-1.4264175,-0.3517013,2.3882039,1.3784261
-0.64098525,12.103398,-0.9764033000000001,-0.42570326,2.0341988,1.3821437
-0.36149573,11.590417,-0.47763366,-0.45657814,1.5779871,1.3134823999999998
0.06339846,10.631577499999999,-0.101427965,-0.45764279999999996,1.274038,1.1644313
0.3280152,9.273067999999999,0.22946987,-0.46029568,1.1547971000000001,0.9781174000000001
0.54058206,7.8600492,0.34459266,-0.49703485,1.1483917,0.8189434
0.6292441,6.6515617,0.32128270000000003,-0.54654986,1.1659671999999999,0.7082196999999999
0.7199076999999999,5.780733000000001,0.29939973,-0.60137063,1.1004999,0.647011
0.75413525,5.257628400000001,-0.079956755,-0.695601,0.9711361,0.6496639
0.803178,5.208835,-0.5629439,-0.7695854999999999,0.82581997,0.6741509
0.8291408000000001,5.7977123,-0.73745245,-0.81110686,0.7049734000000001,0.69544387
0.9849363000000001,6.698306,-0.77089465,-0.78290236,0.5442111,0.6672219
1.3505117,7.781242,-0.5952943,-0.67748445,0.3339513,0.5160589
1.9694607,8.685714,-0.32947087,-0.5082224,0.10876892,0.23071507
2.3281026000000002,9.012838,0.20326772,-0.29740409999999995,0.03637266,-0.024766222
2.254371,9.569614,0.5482816999999999,-0.12814207,0.09121091,-0.15838863
1.8128224999999998,10.910213,0.4987505,-0.045622908,0.07150614,-0.1817935
1.5399121999999998,12.16423,0.5382453,0.048048913,-0.1626996,-0.38941786
1.945873,12.278577,0.9619328000000001,0.12470377,-0.41076323,-0.757246
1.6936200000000001,11.813958,1.7249265,0.25352654,-0.6433807,-0.9978570999999999
0.9272456,13.2645855,2.3146567000000005,0.42332962,-1.0229374,-1.1671365
0.44898945,14.346009,2.67598,0.5617342,-1.4189876000000001,-1.3199227
-0.33489135,13.187991,3.1210334,0.716126,-1.6366999,-1.3332222
-1.2808691,12.7236595,3.2894894999999997,0.85344857,-1.6116893,-1.2405975
-1.6271473,11.734002,2.8572786,0.8954934999999999,-1.4493388999999999,-1.2038758
-1.495112,11.130366,2.3317895,0.8161858000000001,-1.3689489,-1.1799298999999999
-1.2364709999999999,11.215800999999999,1.3960589,0.6027319999999999,-1.3556322,-1.1799123
-0.9944173000000001,10.946672,0.69400245,0.42280602,-1.4333516000000002,-1.1974878
-0.85165584,10.473962,0.7482647,0.33442253,-1.5499396,-1.2022876
-0.5984738000000001,9.684479,0.7827028,0.24233897,-1.5983726,-1.169807
-0.17553329999999998,8.565046,0.5707394,0.1550376,-1.6175362,-1.1288091
0.27888620000000003,7.324399499999999,0.69391626,0.10873401,-1.6366999,-1.0862231000000002
0.6160568000000001,6.325577,0.9174964,0.06881833,-1.6223359,-1.0308613000000002
0.90043056,5.699397,1.0376183,0.016632987,-1.5201294,-0.96165895
1.1420438,5.409699,1.08714,-0.04935791,-1.2933588,-0.87650436
1.479789,5.5783366999999995,1.1331086000000001,-0.08929104,-0.9814161,-0.7790800999999999
1.7981125,6.257064,1.239507,-0.08288568,-0.6306049,-0.67741466
1.7729063999999999,7.3169103,1.3879857,-0.05042256,-0.3783001,-0.5358161
1.2459139,8.239732,1.5487323999999998,0.039531708,-0.33304372,-0.36812484
0.72786605,8.695999,2.1101918,0.16516050000000002,-0.49061206,-0.21746802
0.537211,8.810661999999999,2.4476883,0.26841420000000005,-0.6300813,-0.08705702400000001
0.66744596,8.849132,2.480096,0.30410618,-0.58056635,0.0023561944
1.0810011999999998,9.162495,2.3427358,0.2929186,-0.35646605,0.07475245
1.3967677,9.672545,2.4000916,0.31047663,-0.010454521999999999,0.17324138
1.3948523000000002,10.181697,2.3661032000000004,0.34934509999999996,0.37227872,0.3244218
1.006034,10.837458999999999,2.0021176,0.36850882,0.5814739000000001,0.45376816
0.5064694000000001,11.22893,1.7644501,0.40523055,0.57402134,0.6347588000000001
0.05902186,12.753702,1.099992,0.3562566,0.6134134,0.8636587
0.31318070000000003,14.745726000000001,-0.34953429999999996,0.25031513,0.8125031,0.9727766999999999
0.19228312,14.131201,-0.26032633,0.21305235,1.1622322,0.98874646
0.29484117,13.136189000000002,0.017276559,0.09648179999999999,1.531666,0.9743824000000001
0.24562594,12.809342,-0.55292654,-0.044017203,1.9995888,1.0733948999999998
-0.034352005,13.00789,-0.96294796,-0.20692624,2.4557830000000003,1.2330925
-0.054290917,13.550051999999999,-1.6168236,-0.37727037,2.6335971000000002,1.3475511999999998
-0.009193734,13.561179999999998,-1.6544988,-0.4326322,2.4611237,1.3725618
-0.111272916,12.886149000000001,-1.0685322,-0.43050292,2.0443041,1.3273053999999997
-0.28689238,11.426519,-0.56529015,-0.43102652,1.6753938999999998,1.2522563
-0.48271894,9.638884,-0.17013197,-0.42198572,1.4864271,1.1665431
-0.35127729999999996,8.161441,0.14960887,-0.45073128,1.4305416000000002,1.0733948999999998
-0.12922943,6.987190200000001,-0.038968027,-0.5486791999999999,1.3576044,1.0057983
0.07258262,6.119943,-0.22564873,-0.66952574,1.1979066999999999,0.9392488999999999
0.25853547,5.658447,-0.40240782,-0.78236127,0.9157742,0.8924042999999999
0.42463562,5.4834785,-0.48524722,-0.85102254,0.6017023,0.8801694999999999
0.5240142,5.737867400000001,-0.44068635,-0.84997535,0.33979815,0.8886693000000001
0.7753287,6.3375764000000006,-0.5205282,-0.81908303,0.17584193,0.8716523000000002
1.1749018,6.998625,-0.5757289000000001,-0.74138093,0.06351253400000001,0.8003033
1.7447793000000003,7.577926,-0.37820724,-0.65088564,0.026790803,0.6321059
2.4666407,8.182165,-0.06922116,-0.5571964,0.024661502000000002,0.28183576
3.2933204,8.859944,0.5870678,-0.41292745,0.11782718,-0.022113321000000002
3.0071747,10.008089,1.3625209999999999,-0.21279055,0.18116517,-0.06949901
2.3285622999999998,11.627038,1.5525919,-0.0323235,0.045954518,-0.24197245
2.8851662,12.607597,1.4805839,0.08477064,-0.10040879,-0.61460024
2.7637804,12.253927000000001,1.6830183999999997,0.19071212,-0.14620623,-0.8461530999999999
1.6031766,11.746106,1.8122096,0.24713862,-0.33410838,-1.0138268
1.1097412,12.496315,1.6304610000000002,0.28651324,-0.8180009,-1.2326213
0.8441093000000001,13.515633,1.8196986000000002,0.37915534,-1.4216405,-1.4056183
0.331233,12.488147,2.5307,0.53246504,-1.7985269,-1.4625858999999999
-0.26826552,11.47901,3.21389,0.7390073,-1.7847039,-1.3758256000000002
-0.86344486,11.097642,3.3884275,0.90935147,-1.4365456,-1.2278391000000002
-1.0468217,11.003511,2.865438,0.94872606,-0.9622523999999999,-1.1000809999999999
-0.5000434,11.353563000000001,1.6171205,0.8007396,-0.7338935000000001,-1.0787879999999999
-0.3062184,11.260381,0.75527483,0.5926090999999999,-0.7801971,-1.0553656999999999
-0.8888425999999999,10.891577999999999,0.67793256,0.45420447,-1.0915986999999998,-1.050025
-1.0398017,10.368215,0.89154327,0.31634092,-1.4833902,-1.0510896
-0.6364746,9.372122000000001,0.8257793,0.1529083,-1.7117666,-1.0431135
0.18180610000000003,8.133937,0.61437136,0.012374383999999999,-1.7415768,-1.032467
1.0112246,6.9934635,0.68611115,-0.042428955,-1.6100837,-1.0101093
1.6525546000000002,6.210214,0.9718544,-0.044034656,-1.3742722,-0.98775166
2.0460176,5.750365,1.2528571000000002,-0.023265239,-1.0357133,-0.9424952
2.1102493,5.705133999999999,1.4081832,-0.015289084,-0.60294145,-0.8631875
2.0464966,6.0691866999999995,1.3097241000000002,-0.02539454,-0.19357447,-0.78972656
1.8912756000000002,6.747329700000001,1.2462969,-0.041364305,0.07843509,-0.6875201
1.4405242,7.218833999999999,1.3471597,0.017697638,0.09705776,-0.5395336
0.80083174,7.6006136,1.6164501,0.10234611,-0.028553586000000002,-0.37079520000000005
0.30507877,8.359978,1.5507245,0.1571669,-0.23296654,-0.14667746
-0.046734817000000005,9.061872,1.5152615,0.19284143,-0.4959353,0.076358154
0.21045034,9.618207,1.5564799999999999,0.21359339999999996,-0.60559434,0.20676915
0.99117076,10.136130999999999,1.6839952,0.24979152,-0.3703065,0.29513517
1.4817235,10.383633999999999,2.238722,0.35466835,0.10718067,0.42556363
1.224299,10.722767999999999,2.6298869,0.42865285,0.47448522,0.5479984999999999
0.83068264,11.150755,2.3600795,0.42439425,0.51333624,0.59430206
0.6343677,11.572460000000001,1.8169501000000001,0.37809068,0.44680429,0.689056
0.89655197,13.5289345,0.5071781,0.24872687,0.5836031999999999,0.7667755
0.8732324,14.324499,-0.33542767,0.217852,0.84391904,0.8210726999999999
0.39096355,13.2094145,0.14542381,0.26043802,1.1063466999999998,0.8263959000000001
0.31866825,12.251379,0.01940261,0.18910642,1.3096951000000001,0.7891332
0.43122447,11.633349,-0.6792159000000001,0.021956242999999997,1.6605061999999997,0.83704245
0.37543000000000004,11.887681,-1.5938393,-0.24417156,2.064009,0.9876993000000001
0.13198754,12.497522,-2.24647,-0.43954372,2.2838507000000003,1.1638902
-0.032972947,12.617587,-1.8226483,-0.45551348,2.212519,1.2448037
0.017745823,12.025356,-0.7312850000000001,-0.38845792,1.9639143000000001,1.2458683000000002
0.0141257895,11.168262,-0.06027642,-0.3442662,1.6509243999999998,1.159108
0.10621636,10.149538,0.020082563,-0.36875317,1.4768453000000001,1.0345439
0.16621506,9.100102,0.032043993,-0.42144465,1.447576,0.91476196
0.35292447,8.063969,-0.021815965,-0.47361255,1.4480997,0.8253313
0.3893355,7.1060576,-0.171693,-0.56784284,1.3309879999999998,0.77848667
0.39839518,6.3463297,-0.5249144,-0.6684435999999999,1.087183,0.73111844
0.45983997,5.982449,-0.5855355,-0.74351025,0.80026835,0.6842738
0.40816352,5.9393153,-0.6499874,-0.783967,0.57082736,0.69066167
0.49757257,6.0849495000000005,-0.68075776,-0.7765144,0.33341023,0.67680377
0.89544106,6.4735765,-0.53234595,-0.71261793,0.14177309,0.6321059
1.3972082000000001,7.0425735000000005,-0.31479922,-0.6178815,0.010279989,0.54000485
1.9730138,7.7699795,-0.16434757,-0.530039,-0.07646287,0.30791098
2.5774922,8.420292,0.17033309,-0.41079813,-0.12011356,0.024190264
2.779352,9.430617,0.7336216999999999,-0.24523622,-0.090826936,-0.080128066
2.2148664,11.036666,0.9724959999999999,-0.06478662,-0.14831808,-0.13283701
2.3596199,12.476367,1.0673639,0.07677703,-0.32772046,-0.43945646
2.7574308,12.6507225,1.3337426000000001,0.19284143,-0.44270277,-0.715201
1.8860371999999999,12.249989999999999,1.7358537,0.31632346,-0.6306224,-0.8195368000000001
1.401422,12.983641,2.0180342000000002,0.43610543,-1.0000387,-1.0367255
2.0299287,14.216818,1.9423392,0.51063097,-1.2060574,-1.3997715
1.5558002,13.187119500000001,2.4433115,0.65915847,-1.1565424,-1.5360468999999999
-0.78825736,11.457261,3.3700113,0.8316145,-1.0958748,-1.3630497
-2.76673,10.706449000000001,3.1360402,0.8779530000000001,-1.2438438,-1.1437143
-2.802298,10.644544,2.4312255,0.82311475,-1.5632391,-1.0920874
-1.6798964,11.376491,1.6654832,0.6011438,-1.7586112,-1.1000636000000001
-0.97577125,11.649285,0.39437288,0.33229324,-1.7889625,-1.1362791
-0.49279377,11.425399,0.18269674,0.22052234,-1.8022618000000001,-1.1900353000000001
-0.13067552,10.697475,0.8848969999999999,0.19230038,-1.7351888,-1.1820591999999999
0.3908199,9.584497,0.9436028000000001,0.11938052,-1.6079544,-1.1426497
0.8563868,8.178009,0.61583656,0.047507863,-1.4961834999999999,-1.1293502
1.1046177,6.8695297,0.71947676,-0.03551745,-1.4131408,-1.1203094
1.1644056,6.050971,0.8687983,-0.11215486,-1.3614964,-1.0798352
1.19961,5.760449400000001,1.1592341999999998,-0.14676474,-1.2544903,-0.9590061
1.4479556999999998,5.873839,1.3239266,-0.17551029999999998,-1.0958573999999999,-0.8216661
1.8892167000000002,6.311450499999999,1.1644151000000003,-0.21544345,-0.7951022,-0.77747434
2.2642732000000003,6.8472924,1.2235999,-0.21277308,-0.43205625,-0.7923795
1.9728031000000004,7.593728,1.6106848999999999,-0.19360937,-0.20209168,-0.69336694
1.5568632,8.232347500000001,2.0752653999999997,-0.11323696400000001,-0.14086552,-0.559762
1.0879253,8.313606,2.5886204,0.06986553,-0.16854644,-0.3665366
0.78268373,8.222531,2.6903357999999997,0.20615830000000002,-0.15151203,-0.16690584
1.0429813000000001,8.704024,2.306708,0.29078930000000003,-0.016842427,0.015132004
1.3380618999999998,9.344071000000001,2.062011,0.33176965,0.20406389,0.16950637
1.5218408,9.936042,1.9196806,0.37383208,0.47394416,0.30686378
1.3273549999999998,10.137079,1.9693363000000002,0.44301692,0.75820595,0.5075242999999999
0.68435866,10.365476,1.9018675999999999,0.5457819,0.8465719,0.68746775
0.27435637,11.4021845,1.6358813,0.6197664,0.8364665000000001,0.8918806999999999
0.5030601,14.162478,0.26874435,0.535659,0.9950995,1.0127273
0.7058394,15.286662,-0.7435911999999999,0.49254936,1.3208826999999999,1.1026815
0.13954365,13.705032999999998,-0.048956636,0.52981216,1.6179202,1.137815
-0.270631,12.157747,0.35642959999999996,0.48829076,1.8148806,1.1894419
-0.67315376,12.005177999999999,-0.29189149999999997,0.26415557,2.0277933999999997,1.3203938999999998
-0.65266895,12.736809,-1.3508086000000001,-0.030717794,2.2535167,1.4343116000000002
-0.22253625,13.236870999999999,-2.0795078,-0.26441738,2.4084147999999996,1.4470874
0.16357185,12.938716000000001,-1.6126481000000001,-0.33040828,2.3583937,1.3784261
0.09036675,12.305891,-0.7247918999999999,-0.36288884,2.0922134,1.3251936000000002
-0.14331691,11.388413,-0.253862,-0.34798375,1.761107,1.2511916
-0.05083369,10.122407,0.02165316,-0.37939966,1.4395825,1.1282158000000002
0.051120992999999997,8.617498,-0.21164744,-0.49277624,1.2255876,1.0084511999999999
0.19727264,7.2698402,-0.39629784,-0.6365041,1.0797305,0.88282245
0.38050568,6.3528514000000005,-0.42725965,-0.7573333000000001,0.90938634,0.83704245
0.4013927,5.79664,-0.49646166,-0.8552811,0.7486241,0.8615294
0.5867230999999999,5.553906400000001,-0.49049529999999997,-0.8744622999999999,0.64695865,0.86898196
0.8273690999999999,5.818954,-0.35589328,-0.8132362,0.51014227,0.82587236
1.1575773999999999,6.402593,-0.46344084,-0.7339109,0.36802012,0.7465470999999999
1.5418563,7.090992999999999,-0.45822147,-0.6508682,0.25303784,0.6166596999999999
1.9543293999999998,7.738328,-0.4170412,-0.5438795,0.1497667,0.4303633
2.3474479,8.305351,-0.19141163,-0.4118628,0.08375835400000001,0.17962928
2.7307596000000003,8.919924,0.09651506,-0.30272737,0.07630579,-0.13603096
3.000653,9.914428,0.32988268,-0.19202112,0.11409217,-0.37557740000000006
2.5926235,11.584727,0.7037420999999999,-0.047211155,0.0028448866,-0.5054648
1.917746,12.616629,1.3539115,0.12203342,-0.38308233,-0.77801543
2.0293827,12.464961,1.9973484000000001,0.20507619,-0.7109948,-1.1506432
1.8834993000000002,12.039769,2.0809443,0.23862141,-0.85737556,-1.3992305
1.3103082,12.736751,2.1633622999999997,0.32433453,-1.1043745,-1.6025788
0.83751094,13.447714000000001,2.2758515,0.40631264,-1.3705373,-1.7670586
-0.26454970000000005,12.662052000000001,2.3562682,0.52394783,-1.5616333,-1.7495006000000002
-1.6228378,11.813758,2.4801536,0.6229604000000001,-1.5733620000000001,-1.5669217
-2.2972748,11.349176,2.2044373,0.6825808000000001,-1.4929721000000002,-1.3806078000000002
-1.9968023999999998,11.360439,1.7492805,0.598997,-1.3827895000000001,-1.2863774
-1.2716083999999999,11.627699,0.62316287,0.39992476,-1.2896237,-1.2719958999999998
-1.0285586,11.292042,0.029554026,0.29770082,-1.3114579,-1.2586966
-0.99533665,10.905818,0.5637770000000001,0.25937337,-1.4700909,-1.208658
-0.8815642,10.3751,0.5476018,0.16517796,-1.6494758000000003,-1.1245506
-0.54663455,9.300995,0.27179936,0.05763077,-1.8448479,-1.0473721
-0.14214854,8.010875,0.38374263,-0.04881686,-1.9747354,-0.9669822
0.19988711,6.897330999999999,0.5961945,-0.14144148,-1.9864465,-0.8818101
0.6124081,5.985964,0.9847256,-0.20425588,-1.8240786,-0.7700218000000001
0.9917933000000001,5.3796372,1.2141571000000002,-0.23673646,-1.5685623,-0.669421
1.3879857,5.2278547,1.2820662,-0.25801203,-1.2811066,-0.605542
1.7612994,5.513779,1.2744048000000001,-0.29260445,-1.0734997,-0.52780503
1.9055738000000002,6.2416263,1.443876,-0.27131143,-0.90048516,-0.4176224
2.0676231,7.008325999999999,1.9320537,-0.15208799,-0.7328114,-0.32979742
1.9046448,7.438172,2.5016917999999997,0.026755897,-0.48635346,-0.22439697
1.6659046000000002,7.703392,2.6645548,0.17261307,-0.23935445,-0.10728539
1.5159606,8.407909,2.980111,0.30995303,-0.013648475,0.06091199
1.0355593,9.232913,3.2389622000000005,0.405248,0.11836823,0.20998056
1.0139636,9.968374,2.952587,0.44409904,0.14283775,0.19772835
1.2506256000000002,10.572795,2.5365322,0.4552866,0.25782004,0.23125613
0.85433733,10.886014,2.2626739,0.52342427,0.43774602,0.4399277
0.41041407,12.010561000000001,1.8901743000000002,0.65969956,0.65174085,0.689056
0.7781251,14.85154,0.91475743,0.70654416,0.914186,0.84238315
0.7780294,15.78842,-0.12926774,0.6548999,1.1505383999999999,0.8338485000000001
0.56060714,13.824513,0.21445343,0.5787686,1.3932788,0.7822217
0.24632505,12.506112,0.6251165,0.44464007,1.7302495999999998,0.77796304
0.18673816,11.879491999999999,0.5399212,0.27960175,2.1161768,0.84875363
0.23459347,12.549495,-0.44403824,0.035273105,2.4041562,0.90785044
0.12774503,13.171941,-1.7299543999999998,-0.17816322,2.4749641,0.95363045
-0.50956273,12.663441,-1.8269673999999998,-0.2888869,2.282786,1.0435847
-0.9643366,11.746796,-1.2702485000000001,-0.36554176,1.8910118000000002,1.1197158999999999
-0.8800415,10.477065,-0.60147136,-0.44113198,1.5008086,1.1117223999999999
-0.45528140000000006,8.924195,-0.10143754,-0.5294979999999999,1.2208054,1.0036690000000001
0.0361716,7.6652664999999995,-0.046380475,-0.66418505,1.1601204,0.9009215
0.30536607,6.726682,-0.18698715,-0.8132362,1.2138765,0.8365189000000001
0.47613966,6.1799040000000005,-0.2083147,-0.9282184000000001,1.2878783999999999,0.8253313
0.38787025,6.0789256,-0.42485586,-1.0112611999999999,1.2319756000000002,0.89985687
0.29334718,6.290056,-0.7769185000000001,-1.0666056000000002,1.0685604,0.9584301
0.45603797,6.6939964000000005,-0.9384984000000001,-1.0575649,0.79707444,0.9733351999999998
0.7244184,7.3451333,-0.69332254,-0.92661273,0.4617094,0.91849697
1.2226039,8.405831,-0.40873814,-0.7227408000000001,0.11782718,0.70024353
1.8251575,9.243658,-0.40975326,-0.55398494,-0.06794567,0.37179002
2.1353598,8.815173,0.07392337,-0.38683477,0.015620696000000002,0.15727162
1.6506296000000003,8.768228,0.66686183,-0.28995153,0.25143212,0.13491395
1.3826132,10.365955,0.85937476,-0.24949482,0.36641443,-0.11526154
2.237956,12.385617,1.049867,-0.12332497,0.39943606,-0.5326046999999999
1.7988787,12.341382000000001,1.7524311999999997,0.13589133,0.28764772,-0.85358816
0.5641409000000001,11.272505,2.499834,0.38021997,-0.00991347,-1.0947403
0.14587392,11.225052,2.5224447,0.58836794,-0.49858820000000004,-1.3683556000000001
0.21156123,12.7067375,2.1734946,0.7411366,-1.1767708000000001,-1.6994619
-0.30714732,12.987299,1.7946744,0.81674427,-1.8240786,-1.8229613999999998
-1.9058421000000003,11.545865,2.144908,0.8891230999999999,-2.2052236,-1.6462294999999998
-2.7617116000000004,10.429516,2.266677,0.93811446,-2.1807365,-1.4114652
-2.2308689999999998,9.943599,2.2995924999999997,0.9822888000000001,-2.0055928,-1.2139812
-1.3698378,10.882413,1.7198316999999999,0.8891230999999999,-1.7559407999999999,-1.0984753
-0.47373590000000004,12.249837,0.40132564,0.72994906,-1.4940368,-1.0612125
-0.33114679999999996,12.777136,0.38485354,0.7347486999999999,-1.4738083999999998,-1.004786
-0.74302614,12.484086,1.3773363,0.7363544,-1.70112,-0.9222669
-0.8805491,11.211424000000001,1.3290597,0.55110514,-1.9151148999999998,-0.8631875
-0.39295554,9.501285000000001,0.65488124,0.28654817,-2.041791,-0.89085096
0.53859,7.697282,0.6106746999999999,0.08426449400000001,-2.0008106,-0.95579463
1.4136419,6.158451599999999,1.0961803999999997,-0.038152896,-1.7293246,-0.9919928
2.0278792,5.087104,1.2737345,-0.11323696400000001,-1.273654,-0.98881626
2.2888759999999997,4.4653683,1.3845763999999998,-0.1531352,-0.7280116999999999,-0.95101243
2.0915554,4.4220524,1.3706325000000001,-0.18615682,-0.10093239,-0.9387601999999999
1.7961493000000002,5.0207176,1.4109126,-0.24577726,0.25516713,-0.92066115
1.2646556,6.1107693,1.4575803999999999,-0.2558827,0.3259577,-0.7657632
0.5062492000000001,7.138169,2.0605938000000004,-0.15687019,0.17373008,-0.42081633
-0.3939611,8.09379,2.3174245,-0.032847095,-0.23722515,-0.041277036
-0.3851696,8.9776535,2.127181,0.043266714000000005,-0.62901664,0.19825195
0.42515278,9.957944,1.9600370999999999,0.11885692,-0.72481775,0.31538099999999997
1.8224088,10.893646,2.2826414,0.21361084,-0.2361605,0.37765434
2.578651,11.012916,2.7773602000000004,0.42174137,0.6506761999999999,0.43886304
2.3137755,10.8052435,3.2821057000000002,0.6149842,1.3538868,0.55545104
1.5318868,11.198228,2.6307104,0.73368406,1.7765532,0.7151487
0.7575254,14.101617999999998,1.2764733999999998,0.6213721,1.9671256999999998,0.8689994000000001
-0.3222021,17.26181,-1.0599322,0.45793948,1.9165459999999999,0.9307316999999999
-1.7593935,14.426703,-1.0010636,0.5399176,1.6674352,0.8998743
-2.0591667,11.1316395,-1.0513036,0.518101,1.4773863999999999,0.9105208
-2.2633348,10.655022,-2.0122404,0.19018853,1.6865815,1.0808475
-2.2738786,11.486288,-2.9211366,-0.20477948,1.9649963,1.4391112
-2.084708,12.187646,-3.0405116000000003,-0.5337566,2.0916898,1.7654179
-1.1943139999999999,13.099913,-2.6603508,-0.7035771,1.8915355,1.8671008000000002
-0.26218423,13.405126000000001,-1.5434748999999999,-0.7158119000000001,1.390626,1.7457306000000001
0.45782882,12.483692999999999,-0.3264446,-0.68973666,1.0131985000000001,1.50779
0.5573606,10.972693,0.28639442,-0.6359630999999999,1.0158514,1.303377
0.59748745,9.191848,0.8141818000000001,-0.55771995,1.312889,1.0723302
0.82900673,7.6131015,0.5871156999999999,-0.52790976,1.4885563999999998,0.8546179
0.7685291999999999,6.424074,-0.17236337,-0.6327691,1.4656751000000001,0.7587993000000001
0.35443762,5.648525,-1.0538701000000001,-0.8206886999999998,1.2484864,0.7891505999999999
0.02294603,5.2849900000000005,-1.4577049,-0.9159837,0.86573565,0.88601637
-0.10313263,5.6222367,-1.1839709999999999,-0.907449,0.48246136,0.9786584999999999
0.07398084,6.115251,-0.8199662,-0.85154617,0.08962265400000001,0.9898286000000001
0.7009456000000001,6.594761999999999,-0.5717545,-0.7850142,-0.21432643,0.89029247
1.5102241000000003,7.371641599999999,-0.20504901,-0.7072946999999999,-0.35112533,0.647011
2.5884674,8.441132000000001,0.14463852,-0.6125408,-0.1845162,0.34465018
3.2194734,9.256817999999999,0.58317965,-0.41132173,0.19235274,0.17270033
2.9955008,9.77384,1.1629403999999999,-0.15100588,0.31426397,0.015673056
3.049332,10.982347,1.2753912,-0.025935592,0.16838937,-0.43093926
3.6727724000000004,12.055112,0.77646834,-0.049340457000000004,0.07737044,-0.8141961
2.4225202,12.279813,1.1516013999999999,0.044331364000000005,-0.021083577000000003,-0.91800827
1.5045833999999998,11.782478999999999,2.1111019,0.18699458,-0.30642745,-1.1564901
1.8242188999999998,13.002257,2.2662556,0.31581733,-0.6785142,-1.5355058000000001
1.6743897,13.761584,2.3185065,0.43453459999999994,-0.93561864,-1.8080564
0.41413945,12.502081,2.932313,0.5936912,-1.0953336999999999,-1.7942159
-1.265441,11.819447,3.3413288999999997,0.75871205,-1.0575298999999998,-1.519536
-2.2300074,11.407155,2.81154,0.8651946,-0.88345075,-1.3518448
-1.6680691000000003,11.112763000000001,2.0802548,0.9035046,-0.84885836,-1.360903
-1.2515353999999999,11.456839,1.2891436,0.782658,-0.96331704,-1.336416
-1.5773383,11.317238,0.42005790000000004,0.65118235,-1.231068,-1.3199227
-1.6832387,11.035355000000001,0.7014245,0.6165899,-1.6468054,-1.3204463
-1.4551288,10.416425,1.1963155,0.5202303,-1.9507718999999997,-1.3012825000000001
-0.73035604,9.422927,0.65509194,0.2833542,-2.0881119,-1.2948947
0.27365726,8.016592,0.22418347,0.021432644,-2.1008877999999997,-1.3151231
1.001552,6.793873,0.6053786999999999,-0.11906636,-1.9252203999999997,-1.290095
1.6596031000000002,5.7143755,1.307847,-0.124930665,-1.5818791,-1.1894943
2.097991,4.9941515999999995,1.7240455000000001,-0.047211155,-1.139508,-1.0574776000000001
2.1674805,4.7150927000000005,1.5473151000000003,-0.014224433,-0.6354046,-0.9116204
2.1064856,5.424562,1.2414702,-0.033894293,-0.09667379,-0.77108645
2.0146823,6.6580357999999995,1.0372353,-0.12599532,0.18170623,-0.5911605
1.5657026,7.716761,1.3824121,-0.08873254,0.11730358,-0.33190927
0.22668302,8.024339999999999,2.5357084,0.07681194,-0.11637855,0.06518805
-0.9279255,8.1911,2.7229447,0.18805923,-0.44374996,0.3781954
-0.22822489,8.416136,2.1671355,0.19338249,-0.61889374,0.45589745
1.0098934000000002,8.649675,2.1531055,0.27377236,-0.34953707,0.53202873
1.2341343999999999,9.339417,2.7499130000000003,0.42121777,0.218969,0.6901381
1.0877337,10.481767999999999,2.762018,0.60327303,0.59798473,0.7944739000000001
0.8137795999999999,11.217103999999999,2.4257857999999994,0.8380373,0.7385185999999999,0.9999515
0.9925210999999999,13.973432999999998,0.7576212,0.8688947,0.8668178,1.1947826000000001
0.75495887,16.09639,-1.3614581000000001,0.71984357,0.91312134,1.2410861
0.3016311,14.883201000000001,-0.9201299999999999,0.6197838999999999,1.0185218,1.1756189
0.451058,13.507492000000001,-0.16386874,0.49893728,1.4433175,1.1090695
0.6744753000000001,12.215800999999999,-0.23648967,0.29984757,2.2609694,1.190524
0.73963594,12.27534,-1.4200298,-0.020053834,2.9226584,1.3592625
0.6568156999999999,13.024907,-2.9492637999999998,-0.34159583,3.292616,1.4950141000000001
0.12801318,13.321195000000001,-2.9909422,-0.5076639000000001,3.088203,1.571669
-0.45058873,13.056214,-1.952663,-0.52417475,2.3578525000000004,1.5503759
-0.8931905000000001,12.021785000000001,-0.7398562,-0.46935394,1.5284896000000001,1.430053
-1.0784825,10.138725,-0.10184934,-0.43687338,0.98019433,1.2783489
-0.6804609,8.338602,0.2104599,-0.43952626,0.7651349000000001,1.0702184
0.3470156,7.047352,0.2564573,-0.5651725000000001,0.7028441,0.9200851999999999
1.0028353,6.1377754,-0.63607234,-0.8084365,0.75129443,0.88603383
1.5374223,5.3622265,-1.0458543,-0.91861916,0.8338136,0.8434478000000001
1.6364847,5.2622447,-0.667082,-0.8861559999999999,0.86788243,0.82109016
1.5113925,5.7959312999999995,-0.6359383000000001,-0.83398813,0.8934165999999999,0.77370447
1.4668317,6.576795599999999,-0.7990983,-0.82227695,0.8519127000000001,0.64861673
1.5307952,7.1859474,-0.7497395,-0.77808523,0.64004713,0.44846234
1.7691522000000002,7.873523700000001,-0.433724,-0.6822841,0.34833282,0.15674803
2.3617937999999996,9.038714,-0.073358335,-0.5444031,0.23015657,-0.099815376
2.309217,10.239647,0.17809029999999998,-0.40065777,0.30201176,-0.1966986
2.0040236,11.161855000000001,0.3368546,-0.23352505,0.20086995,-0.36438984
1.9638871,11.711352,0.90519977,-0.083932884,-0.080704026,-0.5874255
1.61351,11.840697,1.2546288,0.05338962,-0.490071,-0.79929096
1.4963952,11.50796,1.5885719999999999,0.11512191599999999,-0.9031555,-1.1016518
2.024537,12.2656,1.5638926000000002,0.17315412,-1.2507553,-1.4348875
1.8768625,13.956376,1.8242763,0.32222268,-1.4929546,-1.5929794
0.89282656,13.237551000000002,2.7178211,0.5537581,-1.6872622,-1.7271429
0.1007097,12.096359,3.3865025,0.7496713,-1.6569283,-1.7276665
-0.9607357,12.007372,3.2966433,0.8896641,-1.379578,-1.5104778
-1.6971538000000002,11.4771805,2.8751106,0.9269269,-1.1128917999999999,-1.2975476000000001
-1.3257748,11.463514,1.8213075,0.8012981,-1.0165321,-1.2203691
-0.9796116,11.098495,0.62773097,0.66130525,-1.0644414,-1.2065287
-1.2573485,10.660557,0.59146357,0.56707495,-1.3348627,-1.2155695
-1.528037,10.258408,0.648618,0.44464007,-1.7373008,-1.1788478
-1.3688992,9.597301,0.65170175,0.23436281,-2.0252974,-1.1272035
-0.3335889,8.5178995,0.34134614,0.009738937,-2.092894,-1.0995225
0.8782601999999999,7.3618255,0.5355542,-0.13025393,-1.9603539,-1.0633419
1.7854807000000001,6.432109,0.9480081,-0.1749518,-1.6499993999999998,-1.0212619
2.2428402999999997,5.767746400000001,1.365509,-0.1595231,-1.2049754,-0.9669648000000001
2.3632495,5.445564,1.5568823999999999,-0.15100588,-0.69926614,-0.93610734
2.2860796000000003,5.771319,1.5687385,-0.12864822,-0.25583035,-0.8610406999999999
1.8739321,6.602394,1.5218408,-0.12545426,0.03906047,-0.703996
1.4150306000000001,7.2550917,1.4901128000000001,-0.08340929,0.13007939,-0.5033181
0.6692560000000001,7.482541,1.7173129,-0.009948377,-0.023753932000000002,-0.2547308
0.040270474,7.787361,1.8900689999999998,0.027855453999999998,-0.30586895,-0.0630762
-0.096084096,8.355763,2.002137,0.023038346,-0.61037654,0.036442474
0.17722839,8.774558,2.2139279999999997,0.024644048999999998,-0.74239326,0.12906710000000002
0.7929979,9.103817999999999,2.70676,0.07894124,-0.5880189,0.18601719
1.3996311000000001,9.19406,3.1015349999999997,0.21574014,-0.1807812,0.26534240000000003
1.5519981000000003,9.6435,3.2214462999999998,0.35309756,0.37281978,0.41812852
1.6758455,10.867061999999999,2.4842812999999997,0.47446775,0.81730276,0.66884506
1.4217343,12.891551,1.5837451999999999,0.564422,1.2261287,0.9733351999999998
1.009836,15.393031,0.25425464,0.5298295999999999,1.4944382,1.1878711000000002
0.059184667,14.67726,-0.18928558,0.45954520000000004,1.5284896000000001,1.2544030000000002
-0.43396342,13.3764715,-0.24170902,0.25035003,1.4598283,1.2634438000000001
-0.5422675,13.010513000000001,-0.6211420999999999,0.018779743,1.5295542,1.3289286
-0.56306833,13.379239000000002,-0.59025687,-0.14994124,1.747284,1.483303
-0.39163393,13.800475,-0.68078643,-0.2803697,1.9149578,1.5881623
-0.050517655999999994,13.788514000000001,-0.7202238000000001,-0.36713,1.9277336999999999,1.6312895
0.30755913,13.525344,-0.44494802,-0.38842303,1.8239387999999999,1.5828391000000002
0.49356946,12.59576,-0.016309302,-0.36552429999999997,1.7217324,1.4391286
0.44368386,11.067006,0.46349830000000003,-0.35808920000000005,1.6589180000000001,1.1995648
0.33521697,9.315178,0.68842876,-0.4150393,1.6317607,0.96535903
0.21482694,7.612958,0.595007,-0.5262866,1.6179202,0.83440703
0.027150247000000002,6.230325700000001,0.10629298,-0.6827903000000001,1.4997439,0.7715926
-0.015916653,5.199871,-0.41075882,-0.8536754000000001,1.2325166,0.71836007
-0.005535394399999999,4.660524400000001,-0.6810163,-0.9910154,0.86149454,0.7194246999999999
0.052653282999999995,4.5786805,-0.62225306,-1.0399894,0.40954152,0.739112
0.24551101,5.185534,-0.39282146,-1.016567,-0.03864159,0.71623075
0.75104195,6.229904,-0.11496957,-0.96865773,-0.37667695,0.63051766
1.5089695,7.411453,0.10983639,-0.85102254,-0.54649746,0.47401398
2.4239664,8.277645,0.44755292,-0.6641676,-0.44907323,0.20198695
3.4124556000000004,8.802484,0.7324725000000001,-0.48691195,-0.14884168,-0.20947441
4.190983,10.001510000000001,0.9853193000000001,-0.31763247,0.36536723,-0.42772785
2.990042,11.402788000000001,1.2419681999999999,-0.098837994,0.6730513000000001,-0.4048291
1.9064071,12.314558,1.6503807000000001,0.13377948,0.50111896,-0.6848323000000001
2.256497,12.119247999999999,1.8812103999999998,0.2865656,0.15084879999999998,-1.1090868999999999
1.4957056999999998,11.294742999999999,2.1537569,0.44943973,-0.2478542,-1.2826425
0.14333607,12.124668,2.640134,0.6458765000000001,-0.9979094000000001,-1.3167113000000001
-0.30917764,13.465133999999999,2.507869,0.7358308000000001,-1.7442123,-1.4167885
-0.35996345,12.473168,2.6040297000000003,0.85348344,-2.257374,-1.5317707
-0.74783367,11.660978,3.3224527999999998,1.0318037,-2.2611089,-1.4492517
-1.4537784,10.989347,3.3325086,1.1414628,-1.8091733,-1.2858365
-1.187074,10.683953,2.6398754,1.1079350000000001,-1.3231516,-1.1905413999999999
-0.44881704,11.294101,1.6046323999999998,0.94823736,-0.97714,-1.1335913
-0.26827508,11.334486,1.1422257,0.7917337,-0.88184506,-1.1176215
-0.71788704,11.339619,1.0560154,0.6623699000000001,-1.1043571,-1.1325266
-1.272231,10.801048,1.0624126,0.52502996,-1.4652911,-1.1181451999999998
-1.3236296,9.735380000000001,0.8257601999999999,0.33393383,-1.7793631999999997,-1.0867467
-0.6439444999999999,8.566942,0.66307896,0.15454890000000002,-1.9268086,-1.0867293
0.3136883,7.461482000000001,0.77408373,0.017191493999999998,-1.9198971000000002,-1.0819645
1.2269803999999997,6.662575,0.89790225,-0.057316612,-1.7442296999999998,-1.0521368
1.9660323,6.1417212,1.0729471000000002,-0.06263987,-1.3934186000000002,-0.98506385
2.4267819999999998,5.875735,1.1071171999999998,-0.06956882,-0.9164549000000001,-0.93663096
2.4806802,5.9779290000000005,1.0683120000000002,-0.039741147000000004,-0.39104099999999997,-0.91746724
2.10593,6.4951053,1.4088824,-0.008342674,-0.06525786,-0.76574576
1.4970368,7.2690644,1.5352963,0.03635521,0.0065798913,-0.56506777
0.74835086,7.7250257,1.8537346000000001,0.10182251,-0.09986774,-0.36065483
0.22797589,8.000397999999999,1.9986413,0.13643239999999998,-0.26436502,-0.15889478
0.18074307,8.388602,1.9778212,0.16091935,-0.33142057,0.009826204
0.43916363,8.73625,2.0688393,0.18114772,-0.20580922,0.1418429
0.76731294,9.119475,2.1299968,0.21308725,0.09121091,0.25150195
0.91297615,9.553467999999999,1.9873118000000003,0.28654817,0.46118580000000003,0.35157913
0.54762095,10.186399,1.8051418000000001,0.34723327,0.6922149999999999,0.5820848000000001
-0.49048576,11.009784,1.404726,0.40791836,0.5995904000000001,0.83440703
-0.5222616,13.294973,0.7973266,0.40153044,0.53836423,1.0356085
-0.06783252,15.575307,-0.4428411,0.33393383,0.7342774999999999,1.1000286
0.21678059,14.666075,-0.28562826,0.34510395,1.0419616,1.0180506
0.28174967,13.230904999999998,0.44693999999999995,0.2769663,1.5194488000000002,0.9733351999999998
0.057269305,12.797937,0.059184667,0.117268674,2.1369462,1.0750006
-0.19198625,13.011873,-0.6495661,-0.087126836,2.6815238,1.2363038999999998
-0.3967671,13.213714000000001,-1.3946991000000002,-0.24734806,2.8742256,1.3401161
-0.73324823,13.12713,-1.6321273,-0.37510616,2.6751359,1.4034541999999999
-0.8632820999999999,12.921085,-1.5844252,-0.4906295,2.1582391,1.4465812
-0.87994576,12.263522,-1.1357614,-0.52895695,1.5428709999999999,1.4375229999999999
-0.5765333,10.934578,-0.22799504,-0.49912927,1.1116873999999999,1.3230817
-0.07616434,9.270186,0.16828364,-0.49542916,0.90833914,1.1612374
0.25040478,7.772661,0.22435585,-0.5262866,0.9046216,0.9887814
0.51120996,6.6345344,0.27080336,-0.5864305999999999,0.9024923,0.84133595
0.64706653,5.7878485,0.03776135,-0.7051479,0.8572359,0.8258898000000001
0.49628928,5.1324983,-0.46630429999999995,-0.8089601,0.7667406,0.84398884
0.73094976,5.106707599999999,-0.57756764,-0.87762135,0.64910537,0.86102325
0.9602568000000001,5.675532,-0.69029623,-0.90317297,0.46385616,0.8972214
1.315384,6.647597,-0.75443214,-0.84941685,0.27754226,0.85090035
1.8322058999999997,7.419784,-0.5537693,-0.78499675,0.14391986,0.6294529999999999
2.3286867,7.442912,-0.24443841,-0.6678851,0.025743606000000002,0.31379274
2.5051873,7.623895,0.64295805,-0.4927588,0.052883476,0.16367698
2.429684,9.232052000000001,1.0147297,-0.32239723,0.13327335,0.11950269
2.7169687999999996,11.662147000000001,1.1063797,-0.15259413,0.13487904,-0.036459927
3.0396879,12.924274,1.2392484,0.04647812,0.009250245,-0.31379274
2.9253507,12.650003,1.7636265,0.22640412,-0.15842354,-0.598072
2.29693,11.869447000000001,2.0326676,0.3392571,-0.32983232,-0.85891145
1.9842856,12.207546,2.0187047,0.40739477,-0.53159237,-1.1820242
1.9896199,13.330599,1.9449631999999997,0.48085567,-0.84777623,-1.5488051
0.78587276,12.334161,2.792348,0.6639755999999999,-1.2763069,-1.7494831000000002
-0.8832784,11.599428999999999,3.4607324999999998,0.7752229,-1.6180598999999998,-1.7005092000000002
-1.8587049,11.073652000000001,2.9235117,0.7869341,-1.6388118000000003,-1.4796028
-1.9041563999999997,10.843186,2.1793270000000002,0.73743653,-1.4748555,-1.2560261000000001
-1.1291438,11.011298,1.4093133,0.6080727,-1.2433027,-1.1405028
-0.42903137,11.094606,0.7035121999999999,0.5000194,-1.1059628000000001,-1.1085633
-0.23829009999999998,10.797821,0.8016075,0.4861789000000001,-1.12565,-1.1144277
-0.41367015,10.413112,1.116196,0.50481904,-1.3023821000000002,-1.0893996000000001
-0.644883,9.782353,0.9700252,0.42334706,-1.5302348,-1.0329906
-0.3281493,8.88382,0.34360626,0.23811527,-1.7266542,-1.0084861999999999
0.2224405,7.9200864,0.27028623,0.10290461,-1.7899922,-0.98986346
0.63129354,6.878033599999999,0.9263933000000001,0.024661502000000002,-1.7426240000000002,-0.9334370000000001
1.1302165000000002,6.2280655,1.2735142,-0.027506389,-1.55631,-0.84133595
1.6695056000000001,6.0981274,1.32362,-0.061557762,-1.2156218,-0.74710566
1.9690682000000002,6.276371,1.1901671999999999,-0.08552113,-0.7727271,-0.65608674
2.2247498,6.5216045,1.0625467,-0.05092871,-0.3687008,-0.6166946
2.0173638,6.733242,1.3567079,0.05766568,-0.14351842,-0.53471655
1.2102977,7.292777,1.5387248,0.14549065,-0.14297737,-0.33669147
0.530421,8.006067,1.5520651,0.20244074,-0.33569664,-0.09129817
0.26260559999999994,8.430252000000001,1.6653014,0.21949259999999998,-0.6188763,0.12161454
0.5621873000000001,8.942150999999999,1.7940232,0.2120226,-0.72535884,0.2610838
1.3505788,9.608592,1.9916215,0.27111945,-0.45652577,0.336674
2.0313746999999998,10.111069,2.5012128,0.41004765,0.05609488,0.39735909999999997
1.9785779,10.618580999999999,2.532711,0.47657959999999994,0.44095743,0.43090433
1.5169662,11.148418,1.986948,0.48192029999999997,0.5165476,0.4340983
0.9025278,11.038878,1.7021241000000003,0.47924995,0.39465386,0.5496042
0.8235191999999999,12.695350999999999,0.8415523000000001,0.36426768,0.49099603,0.67258006
1.4036438,14.700876999999998,-0.36663845,0.3083822,0.9461255,0.7896917
0.95362014,14.319156,-0.04747223,0.32594025,1.3847791,0.806185
0.5743594,12.737172,0.08588480000000001,0.22586305,1.6552005,0.788086
0.25533682,12.251149,-0.70202786,-0.055169857999999995,1.9362682,0.85995865
0.023865402,12.560097,-1.7093451000000002,-0.37562975,2.1981723,1.0292381
-0.31470346,13.109326999999999,-2.2090917,-0.58964205,2.2434112999999996,1.2059701999999999
-0.41853517,13.029954,-1.7666049,-0.6476568,2.0576383999999996,1.2783664
-0.18887378,12.459761,-0.7601781999999999,-0.61411154,1.6865988999999997,1.2842133
0.14277104,11.520103,0.07162494,-0.5481031999999999,1.3278116000000002,1.1830714
0.40934145,10.186964,0.5425548000000001,-0.51192254,1.1239396000000001,1.0074041
0.5380633,8.841528,0.6114983,-0.53693306,1.1228576000000001,0.85782933
0.68032676,7.4740944,0.4642835999999999,-0.5864481,1.2394456,0.7071725
0.7362649,6.5003824,0.43889546,-0.6476568,1.2932192,0.61721826
0.5002732,5.87041,0.22765027,-0.72431165,1.1878188,0.64915776
0.12436441,5.4380937000000005,-0.21734563,-0.7860614,0.95998347,0.7204894000000001
0.16671306,5.622965,-0.41587284,-0.82705915,0.6144955,0.76892227
0.46260765,6.2473339999999995,-0.6054936,-0.84941685,0.2706133,0.78382736
0.8450574000000001,6.8531723,-0.6620351,-0.8004429,-0.022148227000000003,0.73326516
1.3604333,7.3525643,-0.36142868,-0.66840875,-0.19088666,0.60337776
2.0130832,7.8116,0.121941485,-0.50338787,-0.25743607,0.36596063
2.704155,8.502787,0.46843994,-0.34475487,-0.16374679,0.13013175
2.9863834,9.753011,0.7568934,-0.19783308,0.01563815,-0.0652055
2.929794,11.599045,0.94834334,-0.063687064,0.06993534400000001,-0.33243287
2.8496077,12.576426,1.2629317,0.100234255,0.009773844,-0.61350065
2.1679592,12.217152,1.9442163000000001,0.24663247,-0.1312662,-0.8690169
1.5983787,11.656191,2.1762242,0.31689942,-0.33993778,-1.0728889
1.0550385,12.259146000000001,2.141939,0.3999422,-0.757822,-1.2203517
0.68131316,13.3018875,2.1514487,0.508013,-1.2965353000000002,-1.426894
0.4919031,12.730477,2.5234215,0.6219306,-1.714943,-1.6084082
-0.20253031,12.109613000000001,2.9491873,0.76459384,-1.791598,-1.5551757
-1.1990353999999999,11.37604,3.2946706,0.87903506,-1.583991,-1.4098595
-1.2401389999999999,10.359366,3.0186574,0.89233446,-1.311964,-1.339069
-0.68090135,10.444695,1.9606310000000002,0.7331779,-1.0591182,-1.3012651000000002
-0.32307357,10.575754,0.61720604,0.5394289000000001,-0.9010087999999999,-1.2836896
-0.39016867,10.566838,0.3785616,0.45636868,-0.9563706,-1.2533558999999999
-0.5402564000000001,10.370647,0.76490915,0.45156905,-1.1767708000000001,-1.1926881999999999
-0.5075229,9.725878999999999,0.88860315,0.40952405,-1.467403,-1.1186688
-0.2626152,8.5605545,0.6915029,0.3328692,-1.7282425,-1.0446843000000001
0.12747687,7.4887752999999995,0.7839574,0.26153758,-1.8591944999999999,-0.96644115
0.6543353,6.7118955,0.9268242,0.18116517,-1.78521,-0.8743401
1.313823,6.298915,1.1200458999999998,0.10983357,-1.452498,-0.7588168000000001
1.893919,6.173037,1.1254951000000002,0.080546945,-0.93401295,-0.6976081000000001
2.277202,6.3037033,1.3423618,0.10183996,-0.47568950000000004,-0.658216
2.139593,6.688709700000001,1.4309952,0.14123204,-0.1270076,-0.56400317
1.6289191,7.188811,1.5831228000000002,0.2184105,0.049165923,-0.40430552
0.9592417,7.578960400000001,1.7482078,0.2684491,0.012426743999999998,-0.25631905
0.5251155,7.941614599999999,1.6235848999999998,0.26420793,-0.13074261,-0.15941837
0.41450337,8.227014,1.7775128,0.2865656,-0.20579177,-0.0029146996999999996
0.35979104,8.75007,2.0901476999999997,0.3233048,-0.10145599,0.17006488
0.75021833,9.745685,2.051764,0.31902874,0.21898647,0.22010347
1.1723257,10.632985000000001,1.5046313,0.30998793,0.5490282,0.29037043
0.1416314,10.96304,1.1739058,0.30731758,0.48886672,0.43729225
-0.96739155,11.509186999999999,1.1194521000000002,0.26899013,0.20886356,0.6848148000000001
-0.89134216,14.0277815,0.33492965,0.1508139,0.25357887,0.91212654
-0.031172507000000002,15.995719,-0.87403685,0.0970403,0.6996676,0.9903696
0.36987543,14.831448000000002,-0.6052829000000001,0.14603170000000001,1.1095581,0.94193673
0.46251187,13.450941,0.029812599,0.0901288,1.4326885,0.88338095
0.20601627,12.367307,-0.12001654,-0.081786126,1.8329971,0.89563316
-0.28154856,11.434277,-0.8198321,-0.29153979999999996,2.1827261,1.0446668
-0.72704244,11.135355,-1.5355548,-0.50447,2.3658462000000005,1.2714374
-0.97380805,11.332963000000001,-1.8019241000000001,-0.6338163,2.226918,1.4641392
-0.7911113000000001,11.491584,-1.5030031000000001,-0.6843785,1.7845468999999998,1.5599579
-0.38857895,11.421682,-0.9459874,-0.68490213,1.1404504999999998,1.5062017
0.06788041,10.733063000000001,-0.45614332,-0.67640233,0.6368531999999999,1.3614091999999998
0.2943623,9.595817,-0.056493584000000006,-0.67162013,0.52773523,1.2474915000000002
0.62277013,8.450650999999999,0.25552836,-0.6359456,0.7124434000000001,1.0776885
1.1228423,7.6001444000000005,0.4820773,-0.65350366,0.97541213,0.9435424000000001
0.9930095,6.852837599999999,0.11615709,-0.72644097,1.1431034,0.95045394
0.7576595,6.1892605000000005,-0.28956434,-0.80681336,1.1569438,0.9456543
0.9142020000000001,6.0895467000000005,-0.44003513,-0.8611280000000001,0.90994483,0.88177526
0.97926676,6.580080000000001,-0.42894518,-0.85739297,0.5953318,0.8253662
1.0769886,7.2969522,-0.29011977,-0.8025547,0.3116111,0.75084066
1.3057306,7.823188,-0.12015062,-0.6854606,0.09974556400000001,0.61987114
1.8842558999999997,7.884853,0.31934822,-0.500735,0.024155356,0.42345178
2.3130767000000003,7.8557687000000005,0.6995666,-0.36180675,0.025220007000000003,0.19720475
2.546176,8.439312,0.9892267,-0.25851816,0.04171337,-0.08969247
2.9211082000000004,9.79985,1.1011986999999999,-0.14407693,0.060353484000000006,-0.386189
2.9544064999999997,11.255303999999999,1.2559981000000002,-0.0024783674,0.10932742,-0.64863414
2.6800599999999997,11.64059,1.3871143,0.13058554,0.05609488,-0.85837036
2.1037369999999997,11.535513,1.6316773,0.22748621,-0.08600982,-1.0345613999999999
1.5146582,11.669521000000001,1.6612025000000001,0.30731758,-0.4027522,-1.2693256000000002
1.0952228000000002,11.981648,2.1023772000000003,0.47075020000000006,-1.0213143,-1.5423997999999999
0.5960509,12.575458,2.5688825,0.571351,-1.6425468,-1.6957096
-0.09041463599999999,12.1323,2.7632152999999997,0.6570640999999999,-2.0279505,-1.6611171000000002
-0.6200312,11.873153,3.2312434,0.78002256,-1.9779118000000002,-1.4604392
-0.8804533000000001,11.202346,3.248338,0.8800996999999999,-1.5046659,-1.2719785
-0.5767439999999999,11.05379,2.7060034,0.88596404,-0.97446966,-1.2022526000000002
-0.02474647,11.626434,1.6434567,0.76832885,-0.6987251,-1.2038408999999999
-0.024870967,11.462844,0.9013595,0.6693163000000001,-0.7620631,-1.2251338999999999
-0.38737226,11.119707,1.0589553999999999,0.5883854000000001,-1.0607064,-1.2214163999999998
-0.92888325,10.429507000000001,1.1240873,0.49471357,-1.4402457,-1.1207981000000002
-0.97969776,9.152152000000001,0.7816398,0.36747909999999995,-1.7415593999999996,-1.0308439
-0.33037108,7.595662,0.35700423,0.24664994,-1.9119035,-0.96961766
0.49110820000000005,6.225978,0.38749677,0.14016739,-1.855477,-0.9078679000000001
1.2727002,5.489425700000001,0.6787658000000001,0.066706486,-1.5770620000000002,-0.8051378
1.9387478999999999,5.3754044,0.94592035,-0.026947884,-1.1496135,-0.67631507
2.560139,5.594023,1.1711861000000001,-0.065816365,-0.6731735,-0.6113714
2.840251,6.245858999999999,1.6051302,-0.03227114,-0.14882423,-0.51448816
2.4693222,7.1473336,1.7282017,0.013473942,0.15191346,-0.3734132
1.9117221999999998,7.9164276,1.7083586,0.103445664,0.22272147,-0.2541723
1.2009412,8.338181,1.9993691000000002,0.20193459,0.12157963,-0.087545715
0.5507333999999999,8.660822999999999,2.1001074,0.22429226,-0.049811699999999993,0.08808677
0.7284980999999999,8.884682000000002,1.9181004000000001,0.19022344,-0.11156145,0.1956165
1.3968539,9.276517,1.8766711,0.15296066,0.08964011,0.32391566
1.8161361,9.971936,1.9033234,0.16360717,0.49473104,0.44315654
1.7554381999999997,10.49347,1.879793,0.19500564,0.8588415999999999,0.61882395
0.97386545,10.842505000000001,1.442018,0.21949259999999998,1.0275975,0.84133595
0.85086095,12.852036,0.61078,0.19819959,1.2240169,1.1016344
1.0491296,15.819745000000001,-0.64316875,0.17744762,1.4731451,1.2608083
0.8505449,15.680738,-0.46780786,0.25516713,1.6493536,1.2294098999999998
0.5798948,14.015120499999998,0.28377035,0.20673425,1.7233381,1.1202743999999998
0.007910443,12.821984,-0.04444596,-0.030682888,1.8122451000000002,1.0462898999999999
-0.19444747,12.397147,-0.9874358,-0.3639186,1.9687488000000002,1.0462725
-0.10319967,12.685103,-1.7824544999999998,-0.6401868000000001,2.0560503,1.0761002
-0.01136767,12.763346,-1.9117509,-0.74717546,1.8931586999999999,1.0388374
0.18690096,12.6997175,-1.4261013999999999,-0.74239326,1.4609104,0.930243
0.24406493,12.256272000000001,-0.67709935,-0.64444536,0.9333671999999998,0.7881034
0.21588038,10.915673,0.3185246,-0.49324750000000006,0.6129247,0.60074234
0.43228748,9.025748,1.0514472,-0.36337754,0.6480581999999999,0.38673005
0.8911697000000001,7.4194202,1.2267795,-0.33728486,0.9796882,0.21905628
1.2392771,6.293341000000001,0.70608836,-0.49008846,1.3592275,0.18123499
1.0478463,5.264217400000001,-0.35177526,-0.6992835999999999,1.6291252,0.22331488
0.7204056999999999,4.6678695999999995,-0.786026,-0.8185071,1.6557415,0.29942867
0.34028313,4.6954025999999995,-0.82059824,-0.8190481,1.465169,0.36384878
0.14073117,5.490747,-0.8554004000000001,-0.7493048000000001,1.1580085,0.36437237
0.093498364,6.879222,-0.9730419,-0.6540272,0.8285078000000001,0.3398854
0.18091545,8.609415,-1.3592745000000002,-0.58854246,0.5591510999999999,0.25418976
0.6015288000000001,9.449703,-1.3987693,-0.49167669999999997,0.33557445,0.010384709
0.82828844,9.340662,-0.51458097,-0.27872908,0.18704693,-0.18071139
-0.029554026,10.0508585,0.39154777,-0.061557762,-0.029059732,-0.20945697
-0.73892725,11.244148,0.57305694,0.05766568,-0.39423496,-0.28557077
-0.6789956,11.813163000000001,0.7854800999999999,0.17425367,-0.8232893,-0.5075592000000001
-0.310844,12.249502,1.2306293,0.32276374,-1.1645011,-0.7561639
-0.22447078,13.237129999999999,1.9275334,0.5846853,-1.7085377,-0.9967575000000001
0.013905523000000001,15.337591,2.3397958,0.70764375,-2.3121948,-1.2278042
0.22390574,14.584864999999999,2.6491652,0.78962183,-2.545877,-1.3278638999999999
-0.19831651,12.66186,3.9423404000000004,1.0169336,-2.2648265,-1.1990412
-0.6999496000000001,10.939280499999999,4.941412000000001,1.2367927,-1.5482991000000002,-1.0419965
-0.6122835999999999,9.831713,4.1861752999999995,1.2346633999999999,-0.96754074,-0.96214765
-0.25208070000000005,10.333623,2.096794,0.9871233,-0.5853311,-0.92807883
-0.5377951999999999,10.878026,0.2891238,0.7608763000000001,-0.5682967,-0.87325805
-1.3784951,10.955235499999999,0.47077668,0.67889816,-1.0106678,-0.8317366
-1.7976528000000003,10.511321,1.0288173,0.57936203,-1.5530986999999998,-0.784892
-1.6838517,9.463398,0.7570849000000001,0.38027233,-1.9273322,-0.74656457
-0.9635896,7.948539299999999,0.36672467,0.2008874,-2.08223,-0.72953016
-0.047692495999999994,6.7544165,0.5670523000000001,0.058224183,-2.0369737,-0.6725626
0.8862760000000001,6.0343556,0.8364958,-0.046635196,-1.7511238000000002,-0.59964275
1.7550743999999998,5.6335945,1.1531241,-0.08815658,-1.2549964,-0.534158
2.3303435,5.4413404000000005,1.277297,-0.063687064,-0.6981841,-0.47136107
2.542891,5.659404299999999,1.2034599,-0.08922123,-0.2467721,-0.4436627
2.3696467999999995,6.5279727,0.86975604,-0.080704026,0.01298525,-0.35850808
1.5639691,7.698220299999999,1.5184697,-0.0019373155,0.0017976891000000001,-0.12747885
0.39001545,8.38504,2.115823,0.06887069,-0.3058515,0.046582837
0.047347732000000003,8.80527,2.3399205000000003,0.10239847,-0.59226,0.1823171
0.37112042,8.998521,2.1039574,0.08695231,-0.69978976,0.2956937
1.284039,9.421337,2.0600574000000003,0.09442231,-0.61938244,0.36971309999999996
2.143615,10.124322,2.2195592,0.13913764,-0.28403488,0.41123447
2.5679057000000003,10.950753,2.2663324,0.16308357,0.18280579,0.49853584
2.353596,11.313407000000002,2.1008737,0.21792181,0.5171062,0.60552454
2.0350523000000003,11.900685000000001,1.8359984,0.30307642,0.8609709000000001,0.77478653
2.0154006,14.225006,0.5787359999999999,0.30946434,1.2479802,0.95579463
1.6739109,15.162364000000002,-0.33342612,0.28445375,1.6371188,0.9685705
1.3490274,13.8377,-0.042118800000000005,0.27380726,1.9644903000000002,0.8881981
0.603607,12.50528,0.18555063,0.17640042,2.2993317,0.8850041
-0.13822204,12.164163,-0.5082220000000001,-0.050893802,2.5825287999999995,0.9962514000000001
-0.83508795,12.515594,-1.597172,-0.3463257,2.6506665000000003,1.1335913
-1.1009688,13.007842,-2.2554817000000003,-0.54330355,2.407926,1.1682012
-1.1609005,12.891521000000001,-1.9589357,-0.61355305,1.8926349999999998,1.1682012
-1.2630947,12.427774000000001,-1.0728801000000001,-0.5837428000000001,1.2298812,1.155949
-1.0156299000000002,11.521205,-0.26535416,-0.51614624,0.6986204,1.0617361
-0.54053414,10.033821000000001,0.31161973,-0.44748497,0.51284754,0.9265254999999999
0.08139328,8.504893,0.61771363,-0.41233402,0.63899994,0.7492524
0.8009179,7.323997,0.63577545,-0.47036624,0.84660685,0.62042964
0.8328374,6.4273777,0.09969456,-0.5928011,1.010022,0.64863414
0.5431965,5.624775,-0.27523744,-0.6683913,1.0201449,0.67685616
0.6340229000000001,5.400936,-0.39598182,-0.6987251,0.8343721,0.68643796
0.6983982,5.5791507000000005,-0.5131157000000001,-0.7040658000000001,0.5378581,0.6875026
0.8805011999999999,6.1481667,-0.5101374,-0.66572094,0.20142844,0.65823346
1.1786558999999999,6.7418227,-0.3305435,-0.57150805,-0.11156145,0.5693264
1.6314856000000002,7.1864360000000005,-0.044761993,-0.44162065,-0.3431143,0.42027527
2.1203625,7.594523,0.20496282,-0.32983232,-0.44532076,0.20415117
2.705314,8.169198,0.38071638,-0.22921409,-0.44266784,-0.04548328
3.1957612,9.458782000000001,0.659909,-0.14510667,-0.36121333,-0.26373670000000005
3.50808,11.506035,0.769257,-0.037035886000000004,-0.21961477,-0.47933722
3.5177815000000003,13.035806,1.0767013,0.10241592,-0.10091494,-0.67840946
2.8046637000000003,12.508516,1.7610503,0.2802126,-0.14454816,-0.890275
2.0379157,11.914505,2.3869138,0.40849432,-0.32023302,-1.2144698999999999
1.6977668000000001,12.824829,2.3758334999999997,0.44521603,-0.7098952,-1.5370591
1.2556629,13.848513,2.1424658,0.49101347,-1.2816128,-1.7255023
0.8271966999999999,13.155879999999998,2.544797,0.5724505,-1.6686046,-1.836226
0.52248186,11.960818,2.67123,0.6336767,-1.5892794,-1.7899049999999999
-0.07584831,10.771034,2.4072838,0.70446724,-1.1714126,-1.5445117
-0.64326453,9.977175,2.1576545,0.75344115,-0.7721686,-1.2394805
-0.86197007,9.862579,1.6513383000000001,0.7263013,-0.5752082,-0.97331774
-0.90707684,9.958575999999999,0.85108125,0.6581461999999999,-0.4607669,-0.7912799
-1.1804371999999999,10.008625,0.5730090999999999,0.6011960999999999,-0.53422785,-0.6459464
-1.5219462,10.178699499999999,0.8080909000000001,0.58309704,-0.9717993,-0.5671622
-1.8658397,10.10286,1.0892277,0.50059533,-1.5680038,-0.5277701
-1.631773,9.499513,0.71238995,0.30524063,-1.9853294999999997,-0.5394813
-0.58937585,8.658592,0.379797,0.10454522,-2.1295984,-0.5501278000000001
0.40352833,7.723666000000001,0.6383612,-0.055134952,-2.01781,-0.5410695
1.3700771,6.9421024000000005,1.0956633,-0.17383479,-1.7255546999999998,-0.5410695
2.1189451,6.4641147000000005,1.3988938,-0.26752406,-1.2874596,-0.51871186
2.7167196,6.256882,1.3923433,-0.31119220000000003,-0.6657035,-0.48624873
3.1164749,6.2556085999999995,1.4194169,-0.27019440000000006,-0.025307272999999998,-0.48783699999999997
2.955709,6.513704,1.5593245,-0.17811085,0.4361927,-0.44898593
2.2742138,7.0639970000000005,1.743611,-0.045029495,0.6198362,-0.35051447
1.59586,7.848470699999999,1.8431618000000003,0.05503023,0.5543689,-0.20251055
1.0311731,8.390346000000001,1.7011665,0.14447835,0.35847318,-0.04335398
0.56100935,8.5232525,1.7413317,0.19556414,0.1939759,0.1269727
0.5467685999999999,8.754274,1.5600044,0.21952751,0.14714871,0.2829528
0.95319873,9.14743,1.5774055,0.24240878,0.29991737,0.43839179999999994
1.2677777,9.634947,1.7311229,0.30841714,0.5559746,0.5853136
1.3210918,10.340508,1.6890519,0.35632643,0.76623446,0.65823346
1.3007411,11.005724,1.3497742,0.37070793,0.85727084,0.7146600000000001
1.0534008999999998,12.110006,0.92015874,0.36271432,0.9206088,0.8935213
1.0622976999999998,14.68475,-0.12030385,0.27968899999999997,1.0803063999999998,1.0590832000000001
1.0790858,15.345196,-0.59354174,0.2844712,1.3773440000000001,1.0649301000000002
1.051246,14.241603,-0.04830541,0.2653075,1.6647998,0.9914691999999999
0.80103284,13.590581,-0.2834735,0.07740535,2.0369039,0.9339780000000001
0.3303041,13.093784,-1.0270838,-0.16531758,2.3339415,0.95474744
-0.121855296,12.820136,-1.5841283000000002,-0.4208338,2.4207017000000004,1.0138443000000001
-0.25653392,12.678638000000001,-1.6768126,-0.55765015,2.2269354,1.0058506999999999
-0.25032815,12.284946000000001,-1.1617911,-0.6044948,1.7813878,0.9590061
-0.29385474,11.755196,-0.7156556,-0.6263288,1.2655557,0.9217433
-0.3307542,10.929856,-0.32748848,-0.60343015,0.8210726999999999,0.8567995999999999
-0.05398446,9.700213,0.2740882,-0.5432686,0.6251769,0.7476816
0.38068765,8.376411000000001,0.6037985,-0.5012236,0.6273062,0.6145828000000001
0.7913315,7.3454585,0.60721743,-0.52729887,0.77422804,0.49429470000000003
1.1415553999999999,6.6077,0.2573288,-0.6225938,0.9573305000000001,0.46766096
1.0680246,6.123305,-0.13151829,-0.70776594,1.1005348,0.49907690000000005
1.0513898000000002,5.997637999999999,-0.21637838,-0.73331755,1.0984055,0.49853584
0.9852235999999999,6.286388400000001,-0.3032017,-0.70457196,0.94670147,0.5251521
