accx,accy,accz,gyrx,gyry,gyrz
1.5499678999999997,8.385672,2.2617161,-0.38339648,0.30216885,0.73638934
0.9116162,9.004017999999999,2.4924886,-0.35836846,0.31386256,0.55806905
0.95672303,10.638961,2.7154365,-0.29715976,0.120637156,0.34353316
1.4139389999999998,11.849651,2.815677,-0.22422245,-0.15456636,-0.046652652
1.2702101000000001,11.736291,3.4596980000000004,-0.10819296,-0.47554985,-0.5140344
1.1959133,12.259988,3.6235190000000004,0.06534512,-0.7811045999999999,-0.8371472
1.2327936000000002,10.893704,3.749607,0.13613568,-1.0062870000000002,-1.2512964
0.43899125,10.106366,4.517581,0.27773425,-1.234646,-1.5116121999999999
-0.13424768,10.579834,4.0456357,0.39271653,-1.2032473999999997,-1.4647676
-0.30565336,9.844172,3.9162339999999998,0.38526398,-0.9535780999999999,-1.3673433000000002
-0.7450946999999999,10.279716,3.5714498,0.42092106,-0.6171484,-1.1416373
-0.6128965000000001,10.984158,2.7789307,0.410292,-0.37707838,-0.9840690000000001
-0.06669289,10.792066,2.611911,0.39325759999999993,-0.38079593,-1.0687175
-0.060477536,10.307862,2.3403417999999996,0.37727037,-0.56072193,-1.252902
0.0033997665000000004,9.230385,1.9552583,0.272411,-0.7300014,-1.4620971999999999
0.26377398,7.73308,1.7167001,0.14039429,-0.8598888000000001,-1.6734216
0.35320222,6.608677,1.5499871,0.034470253,-0.93547904,-1.8496301
0.42151359999999993,6.090878,1.3603662,-0.057613317000000004,-0.9786060999999999,-1.9326729
0.71260065,6.428517299999999,1.2923421999999998,-0.15289085,-0.9445372999999999,-1.9150975
1.2138411,7.438181,1.5335149,-0.21251129,-0.9807353999999999,-1.8948691000000002
1.7634541000000001,8.491831,1.8127842,-0.22156955,-1.0440735,-1.8618648999999998
1.8384883,9.481096,2.2658343,-0.17366026,-1.1308337,-1.7585938
1.4766479,9.328232,2.598226,-0.09594075,-1.1745018999999999,-1.5509868999999998
1.4153372,8.835888,2.7807407000000004,-0.016615533999999998,-1.1707668,-1.2832358999999998
1.528219,8.5618,2.8015609,0.0030543262,-1.0137396,-1.0192025
1.3794528,8.99967,2.9925702000000003,0.029670598,-0.7635291999999999,-0.69074893
1.0608803999999998,10.166528,2.9177560000000002,0.091420345,-0.37601373,-0.2957635
0.37260482,11.054432,3.088951,0.17765707,-0.00017453292,0.07419395
-0.6245515,12.597791,3.2046103,0.30328587,0.24200736,0.48993137
-0.5892321999999999,14.146467000000001,2.8183583999999997,0.3453483,0.29630455,0.72467816
-0.15182112,13.255076,3.016292,0.2846632,0.110514246,0.62727135
-0.43745896,12.145939,3.0029418,0.25537658,0.13447762,0.645894
-1.2232934,11.386594,2.5382657,0.23408356,0.7343996,0.96741855
-1.3240318000000002,11.116709,2.2989794999999997,0.18191567,1.4940368,1.4332120000000002
-0.1987379,10.715394,2.4370580000000004,0.08450884,2.0971527,1.7345081999999998
0.46560519999999994,9.681931500000001,2.4446522999999996,-0.016091935,2.4373174,1.725991
-0.06391561,8.655000999999999,2.3056736,-0.08742354,2.6992214,1.7100213
-0.96879935,8.564528,1.9408740000000002,-0.12520991,2.8152685,1.9341215
-1.1899374,9.214555,1.3322392,-0.18643607,2.8062103,2.2907796
-0.8094892,9.512144000000001,0.89521116,-0.29928905,2.6092498,2.4494126
-0.2584014,9.226027499999999,0.9306645,-0.44886377,2.2691026,2.3115490000000003
-0.406478,8.659445,1.1724023000000001,-0.54415876,1.9012744,2.1507866
-0.4927746,8.108472,0.947558,-0.6255958,1.4131233,2.0421921999999997
-0.31052795,7.9108350000000005,0.6932459,-0.701186,0.8728216999999999,1.9106991999999998
0.07173028599999999,8.066324,0.783038,-0.7368606,0.38521162,1.7584541
0.72223485,8.422208,1.1148648,-0.7187614999999999,-0.036390115,1.6099441
1.9298702,8.355428999999999,1.6114223,-0.63624233,-0.29188886,1.3144947
2.5934951,8.3036375,1.9477885,-0.5414884,-0.35311502,0.79388046
2.1305330000000002,8.472178999999999,2.0965066,-0.51700145,-0.25569072,0.3147876
1.0390453000000002,8.870249000000001,2.2960682,-0.5143310999999999,-0.14444345,0.1944995
1.0227264,9.962905000000001,2.5343869,-0.4738918,-0.10930997,0.17318901
1.5486654,11.348486999999999,2.8699677,-0.3988252,-0.16838937,-0.06633996
1.504909,11.636989,3.5848574999999996,-0.25670302,-0.38186058,-0.46930158
1.5778843,12.258455999999999,3.9578067999999997,-0.037384953,-0.8146324,-0.84831727
1.7971835999999999,11.748722,4.0684190000000005,0.11803662,-1.2090943,-1.273654
1.3711785,10.663526,4.3047843,0.24579471,-1.4513111,-1.6319003
0.47168645,9.601353,4.4146204000000004,0.32618457,-1.3964728000000002,-1.7665699000000001
-0.36928168,8.951279,4.418471,0.37782887,-1.1499975,-1.6547816000000002
-0.66767585,10.006633,3.957625,0.43849653,-0.8098502,-1.3886364
-0.22809081,11.043562,3.2269528,0.43584362,-0.48726103,-1.2033696000000003
0.34925658,10.818832,3.2989898,0.42997932,-0.3296927,-1.3039878999999999
0.046198517,10.511072,2.9887490000000003,0.42626175,-0.30574676,-1.4418688999999998
-0.45092395,9.704187,2.5338125,0.35705945,-0.37067303,-1.5653683
-0.61860424,8.21916,2.2194632999999997,0.26124087,-0.5585926,-1.671816
-0.47706863,7.092975599999999,1.9844102,0.16275196,-0.8481777,-1.8033091
-0.15217546,6.6341220000000005,1.6958226000000003,0.062151175,-1.1143403,-1.8964747
0.40015727,6.7861256999999995,1.4939531000000001,-0.04855506,-1.2580681999999999,-1.9310671999999998
1.0819781000000002,7.5032559999999995,1.6373084,-0.13320352,-1.4278713,-1.9635477
1.4754795,8.304863000000001,1.7271387999999999,-0.164602,-1.4646105,-1.8975220000000002
1.6672455000000002,8.455774,1.9287976000000002,-0.16299629,-1.4422529,-1.7766929
1.4124927999999999,8.281889,2.1241932,-0.14383258,-1.429477,-1.5440578
1.3705081000000001,8.357277,2.0773146000000002,-0.15022048,-1.376227,-1.2262509
1.4661323999999998,8.428605000000001,2.2569373,-0.15927875,-1.2751026,-0.8999440999999999
1.607534,8.750760000000001,2.4330451,-0.15130259,-1.1478681999999998,-0.62367594
1.7258077,10.063807,2.838537,-0.09060004,-0.9509076999999999,-0.31173325
1.5873078,11.54169,3.2680566000000004,0.05630432,-0.6416354000000001,0.0044505894
1.1779568,12.4237995,3.8016187999999995,0.2633702,-0.3147876,0.2620961
0.5264754,13.927119,4.094707499999999,0.4880115,0.005654866999999999,0.52454126
-0.27878085,12.925739,3.5391760000000003,0.5039813,0.27555257,0.6698574
-0.5503791,10.237252,3.3599365,0.39592794,0.33890805,0.66987485
-0.7679545999999999,8.620457,3.3641883999999997,0.32937855,0.58430135,0.81093234
-1.1902438,9.649782,3.293301,0.36877063,1.170924,1.2655382
-0.6913497,11.935641,2.8296688,0.40444514,1.8070616000000002,1.7733767
0.54293793,12.103925,2.6935728,0.34428364,2.1786246,1.8718656000000002
0.48500782,10.723802000000001,2.9417459999999997,0.27933994,2.3031888,1.7382432
-0.32259473,9.777047999999999,2.8514272999999997,0.2149373,2.3841023,1.7366549999999998
-0.5764663000000001,8.969312,2.4997572999999997,0.11486012,2.4942849,1.8888825
-0.24032997,8.413828,2.2501187000000002,-0.018203784,2.5810627999999998,2.0235696
-0.034926612,8.382569,2.2755162999999996,-0.13585643,2.503343,2.0874486
0.028050467000000003,8.478415,2.0816147000000003,-0.23912756,2.3122296,2.1044831000000004
0.23413378,8.265302,1.7691618000000002,-0.3338815,2.04872,2.0235696
0.54833925,7.7683606,1.4308898,-0.44886377,1.7596758999999997,1.7872171000000001
0.2916425,7.4000563999999995,1.2364328000000002,-0.5728869000000001,1.4104704,1.4662336
-0.09500192,7.301050999999999,1.1276115,-0.64634776,0.9611877000000001,1.3155768
0.2566201,7.590558000000001,1.1955495,-0.7027743000000001,0.37562975,1.1840837
1.1469183,7.8062086,1.590018,-0.71609116,-0.08854055400000001,0.9418844000000001
1.2914037,8.125882,1.9531034999999999,-0.63463664,-0.32649875,0.70659655
1.340753,8.654876,2.4088062999999997,-0.5420119999999999,-0.3765199,0.5586101
1.7403548,10.344646000000001,2.9028258,-0.4185125,-0.41645299999999996,0.37761945
2.3537397,12.314059,3.2190902,-0.269985,-0.42762312,0.060894538
2.0809636,12.100257000000001,3.8327723,-0.10018189999999999,-0.571892,-0.38732347
2.1644063,12.675642,3.8920907999999996,0.12498303,-0.9493020000000001,-0.7609985
2.3685167000000003,12.066786,3.9357227999999997,0.26338765,-1.2766908000000001,-1.2778952
1.5070734,10.812330000000001,4.265002,0.38528144,-1.5268838,-1.7106669999999997
0.38980478,10.281085000000001,4.3729324,0.45181337,-1.5747931,-1.8826168999999997
-0.68322855,9.66025,4.4805856,0.47790605,-1.3288587,-1.7575116000000002
-1.2488347,10.286544000000001,4.0318646000000005,0.506128,-0.9716597,-1.4253405000000001
-0.8955559000000001,11.106386,3.4133177000000003,0.49015826,-0.677275,-1.219322
-0.30727184,10.638644000000001,3.243808,0.44596654,-0.5484697,-1.2864124
-0.8197651,9.892161,3.1942961,0.4225442,-0.642159,-1.4397221000000002
-1.1152191,9.178066000000001,2.5605029999999998,0.31023228,-0.8093092,-1.533935
-0.9917071,7.9119934999999995,2.3189472999999996,0.14840534,-1.0578964,-1.6819215
-0.80863684,6.7166076,1.9695756000000002,-0.016598081,-1.3123479999999998,-1.8245846000000001
-0.42891645,6.2291669999999995,1.7569418,-0.17683676,-1.4406471,-1.9049744999999998
0.10037451,6.2639116999999995,1.7171310000000002,-0.2891487,-1.4858861,-1.9709828999999999
0.34412342,6.861811,1.8740183000000001,-0.33812264,-1.6248316999999999,-1.9853468999999997
0.72972393,7.958049000000001,1.6458221999999998,-0.38496727,-1.6572949000000001,-1.8879400000000002
1.2721351,9.313225,1.8834227,-0.39774308,-1.8329623,-1.8224553
1.4292331,10.447204,2.164071,-0.3509159,-2.1299999,-1.693109
1.7982943999999998,10.7859745,2.4779508,-0.29021335,-2.3413417,-1.5110537
2.251354,10.0592,2.8963520000000003,-0.24336872,-2.3557057,-1.3369746
2.4215817000000004,9.504464,3.4179623,-0.19706513,-2.0735734,-1.15279
2.2803047000000003,10.118011,3.7644512999999997,-0.07195993,-1.4624636999999998,-0.8046491
1.9182823,10.657195,3.7398388,0.06908013,-0.71560246,-0.42189842
1.4239754999999998,11.116997,4.0737440000000005,0.21760765,-0.16943656,-0.11262609999999999
0.48198155,12.556094,4.1553288,0.3916868,0.1685639,0.20036379999999998
-0.19570205,12.574798,3.4948354,0.43586108,0.39639917,0.5043129
-0.5561156,11.781541,3.4055218999999997,0.4071155,0.7253763000000001,0.68104494
-1.4825376000000001,11.044931,3.6923285000000003,0.39753366,1.3993002,1.0589959999999998
-1.2598002000000001,10.781665,3.9473586000000003,0.43212608,1.9747354,1.4976321000000001
-0.24883416,10.280625,3.5433800000000004,0.43744934,2.4714036,1.7600772
0.48007575,9.086034,2.9391987,0.3592062,2.8967403999999997,1.8239564
0.37763265,8.174322,2.4933503,0.22984241,3.226782,1.8628248
-0.3472167,7.968746,1.9193069999999999,0.10901327,3.4439535000000006,2.0331514
-0.74612904,7.7569550000000005,1.2745676000000001,-0.07408923,3.470046,2.283362
-0.81736135,7.5170655,0.7932278,-0.2891487,3.2304997,2.5063975
-0.678603,7.961774,0.76778215,-0.47813293,2.8669302000000005,2.727845
-0.21662736,8.951212,0.6544310999999999,-0.6133436,2.4479813999999998,2.7895947
0.09310571,9.513619,0.49403873,-0.72352624,1.9145913,2.6416082000000003
-0.16965313,9.420753,0.9849363000000001,-0.7719766,1.3934534,2.4558353
-0.2793746,9.23072,1.3087856000000002,-0.739496,0.82067126,2.322754
0.027782315,9.121047,1.5200787,-0.6585825,0.32454398,2.1486747000000004
1.1066958,8.797724,1.5986563999999999,-0.5888392,-0.109292515,1.7755234
1.2414032,8.422361,2.1326494,-0.49727920000000003,-0.38875464,1.3336934
1.298864,8.182940499999999,2.5336208,-0.3801676,-0.5825210999999999,1.0558195
1.6036937,8.6616955,2.5887065,-0.31202996,-0.6794043000000001,0.81201446
1.8927026000000002,9.901164,2.730654,-0.2848901,-0.6251071,0.5596922
2.174845,10.731050999999999,3.017125,-0.24390976,-0.4686209,0.19929914
1.5067765,10.43644,3.4881508,-0.17842501,-0.5175774000000001,-0.17596409
1.7000461,11.597828999999999,3.3095815,-0.05279621,-0.8795586999999999,-0.41924554
2.2056725,11.041033,3.1835508,-0.022985986,-1.2266348999999999,-0.92015505
1.317261,9.507691000000001,3.7421086000000003,0.054716073,-1.5125023000000002,-1.3013
0.8905472,10.421481,4.1199902999999996,0.22027801,-1.7110509999999999,-1.4918725
0.92449707,12.09022,3.8916983999999997,0.3395189,-1.5907453999999999,-1.5280707
1.1393144,13.01217,3.4922303999999995,0.39488074,-1.3059427,-1.5302
1.0849563999999998,12.495606,3.162338,0.38477528,-1.0115753,-1.5818268
0.9921955,11.076008,3.316266,0.36027086,-0.9397027,-1.709585
0.811462,10.239349,2.9455767,0.2985211,-1.0477735000000001,-1.8650240000000002
0.7382856,9.21805,2.4104726000000003,0.14788175,-1.2356931,-2.0486848
0.9489083,7.9570813,1.9289126,-0.022985986,-1.379421,-2.2200937
1.1498774999999999,6.823082,1.5125321000000003,-0.21036454,-1.3368349,-2.370733
1.1871697,6.208586,1.3608356000000001,-0.34077555,-1.1861781,-2.4585755000000002
1.150931,6.440843,1.4522845,-0.40784854,-1.1244284,-2.483045
1.1856375,7.2940119999999995,1.3727108000000001,-0.44511130000000004,-1.1020707,-2.4404764
0.980416,8.072473,1.5142176,-0.45523423,-1.1638205,-2.316977
0.7564624,8.77292,1.5609716999999999,-0.45416957,-1.3762096000000001,-2.0902064
0.36297056,9.519997,1.9083991000000002,-0.41371286,-1.7371436000000002,-1.7330246999999999
0.74711543,9.683243,2.0656023,-0.4536285,-1.9229165000000001,-1.3337631
1.6256533000000002,9.017797999999999,2.6071134,-0.5068611,-1.9308927,-1.0734648
2.056629,9.297931,3.1091583,-0.49141490000000004,-1.7206328000000002,-0.85786426
2.1284454,10.807398,3.3207195,-0.40252528,-1.2340872999999999,-0.59063685
1.6344545,11.59057,3.4407935,-0.2540152,-0.6990916,-0.3314031
0.9346293,12.040372999999999,3.7623441,-0.058119465,-0.3695909,-0.06895796
0.6158078,12.446621,3.3522847000000002,0.104754664,-0.22214551,0.17748253
0.96928775,10.747648,2.6802322999999997,0.14414674,-0.26153758,0.28927088
1.7563288000000001,8.905213999999999,2.4341180000000002,0.16118115,-0.1508139,0.37444293
1.6725032,8.464432,2.8862292999999997,0.27776915,0.49169415,0.61611867
0.08105809,10.733982000000001,3.1932712000000003,0.555643,1.7261654999999998,1.3124003
-0.81276447,12.57067,2.7534661,0.7510151999999999,2.904734,2.0720375
-0.15928145,11.987155,2.667112,0.7190755999999999,3.3827622,2.369075
0.36494340000000003,10.096377,2.9927043999999996,0.58013,3.355605,2.301461
-0.13884455,9.163127000000001,3.1521293999999997,0.51199234,3.3156893,2.302002
-0.96229666,9.062111,2.7106194,0.4699299,3.2651095000000003,2.4978979
-1.1581136,8.995763,1.9605830000000002,0.34855970000000003,3.2480752,2.8098403999999997
-0.31348717,9.123719,1.6226176,0.13990559,3.1490626,2.9407926
0.251056,9.049632,1.3018136,-0.08951793599999999,2.9068632,2.75022
-0.2833777,8.67268,0.97528285,-0.30351275,2.6705107999999997,2.5708349999999998
-0.53198206,8.461166,0.76190203,-0.49834386,2.27659,2.4936392000000005
0.17706558,8.618675999999999,0.69010466,-0.65484756,1.6952907,2.3637516
1.1536893,9.276047,0.6235651,-0.7362846,1.1315494,2.0874836
1.9639733,9.5556135,0.68174416,-0.78634065,0.59815925,1.6850456000000003
2.2962692000000002,9.342117,1.4370573999999998,-0.7788881,0.10841985,1.2314869
2.5987816,8.977357000000001,2.4380445,-0.66123545,-0.23277456,0.7981914000000001
2.3052523,8.264861,3.119549,-0.52496016,-0.3610737,0.52883476
1.8589348,8.516147,3.4437813999999998,-0.33971090000000004,-0.33604568,0.44525096
1.291576,9.308933,3.5998547,-0.16617279999999998,-0.16943656,0.4106585
1.0925508999999998,9.514777,3.7078235,-0.058119465,-0.17421876,0.14395475
1.3903511999999998,10.366328,4.044611,0.06483898,-0.50426054,-0.28560567
2.2969779999999997,11.848109,3.8552299,0.12871803,-0.85826564,-0.8732929
1.7845422,11.70327,4.0615144,0.13191198,-1.0392563,-1.4274524
1.1760032,11.495511,4.5010324,0.21123719,-1.1568915000000002,-1.748977
0.9212408999999999,11.341726,4.4990497000000005,0.29427996,-1.1084411,-1.9469845000000001
0.31973127,11.163397,4.16141,0.32461378,-0.91573936,-1.9571075
-0.26247156,10.825699,3.5003707000000004,0.32354912,-0.63255966,-1.8431898000000002
-0.22372378,9.466999000000001,2.7882874,0.23146556,-0.39353684,-1.7979508999999998
-0.033154905,8.156816000000001,2.7315924,0.17397442,-0.4675388,-1.9331616000000003
0.19273323,7.775639,2.4300572999999996,0.14042918,-0.7459363,-2.1311867
0.16779523,7.986875,2.0871596,0.08241445,-1.0174222,-2.2850199
0.40208223,8.185172,1.6825683,-0.0038048178,-1.1813784999999999,-2.3499637000000004
0.5462228,8.183591999999999,1.6765733,-0.06822492,-1.3091365,-2.4191658
0.27341786,8.200342,1.8789982,-0.07407177,-1.4172074,-2.4218363999999997
-0.036334403,8.397117,2.1202476000000003,-0.062360615,-1.5678466999999998,-2.3302588
0.08458236,8.824511,2.5142756,-0.06874852,-1.8957592,-2.214753
0.31453106,9.009391,2.7304527999999997,-0.12623966,-2.2715810000000003,-2.1035056
0.68165797,8.509797,2.6339762,-0.22738150000000001,-2.5803297,-1.9113275
1.2088611999999999,8.085009,2.5553505000000003,-0.3354523,-2.8369105,-1.6536819999999999
2.0757442,8.274016,2.7335942,-0.4408527,-2.804971,-1.3204463
2.87264,8.333116,3.2315497000000004,-0.48183304,-2.3477123,-1.0218204
3.0534022000000003,9.0143795,3.7986786,-0.39720201,-1.5412304,-0.6896494000000001
3.0888076,10.699458,3.7653995000000005,-0.23802800000000002,-0.63095397,-0.40697587
2.6732986,11.289092,4.0364614,-0.05438446,0.15048228,-0.21479768
1.4632403999999999,11.315553,4.323995,0.18249163,0.5508084,0.027401669
0.61303055,11.684211999999999,3.483171,0.35761797,0.7307170000000001,0.35477307
0.48414589999999996,10.820977000000001,2.7316307999999996,0.42097342,0.6769608,0.6321059
0.8947323,9.870786,2.7635407,0.46249480000000004,0.7679971999999999,0.85302967
0.49940175,10.107841,3.3279788,0.55457836,1.4083586000000001,1.1979591
-0.52833325,11.191801,3.3537881,0.69085366,2.4432166,1.8021572
-0.76023567,12.16356,2.7606583,0.71481705,3.2560687,2.3350236
-0.38884708,11.557788,2.5938783,0.5689599,3.5754813999999997,2.5160142999999997
-0.52774906,10.243277,2.8046062000000003,0.40926227,3.5472596,2.5373072999999997
-1.2072713,9.8551,2.5192556,0.24050637,3.2949374,2.6331257999999997
-1.2637745,9.908921000000001,1.8054292,-0.021903882000000003,2.9537080000000002,2.763537
-0.6456204000000001,9.501782,1.8980178,-0.25612706,2.6689227000000004,2.705522
-0.47432965,9.029522,2.1834066,-0.45575783,2.3250403,2.5782876
-0.49967948,8.552462,2.2089097,-0.60533255,1.8975743000000003,2.4941802
-0.21151336,8.313452999999999,1.9752547999999999,-0.6905045999999999,1.5297462,2.4659758
0.26927108,8.176658999999999,1.2021478,-0.75386006,1.176282,2.4170017
0.75671136,7.9356103000000004,1.165373,-0.8161334,0.9878389000000001,2.3909092
2.030235,8.158367,1.322375,-0.820392,0.7733205,2.1758669999999998
3.0008445,8.027941,1.7313046000000003,-0.81081015,0.5641079000000001,1.6627053
2.4661524,7.685732400000001,2.2756790000000002,-0.78951716,0.32614967,1.1383561000000002
1.736007,7.978275,2.5531862000000003,-0.72192055,0.14782938,0.8099026
1.4704803,8.330902,2.9383654999999997,-0.60479146,0.0072954763,0.6039014
2.2779583999999997,9.009592,3.3667457,-0.40463713,-0.01558579,0.36913714
3.1514397,10.279964,3.4304120000000005,-0.23483405,-0.12950343,-0.17914059999999998
2.3576758,10.910492,4.20824,-0.07672467,-0.4185474,-0.76522213
1.9495601999999999,11.296973,4.6734724000000005,0.16119862,-0.9141511,-1.2837071000000002
2.1727952999999998,11.332072,4.768368700000001,0.32035518,-1.3038133,-1.7782461999999999
1.87579,11.045735,5.0435867,0.44174284,-1.4028258,-2.180143
0.49230534,10.506371000000001,5.030419,0.5258328,-1.2638801000000002,-2.2983367
-0.8195448000000001,10.170262,4.9199123,0.6078284,-1.0174048,-2.1221107999999997
-0.8812003,10.969054,4.455168700000001,0.6637138000000001,-0.80766857,-1.8713944
-0.080052525,11.347539,4.0883102,0.6440265000000001,-0.58676225,-1.8607478
-0.23991817,10.477839999999999,3.9264907999999994,0.62219244,-0.5330060999999999,-2.0300274
-0.9418886000000001,9.712318,3.4890415999999997,0.5758888000000001,-0.6884451,-2.2035654
-1.5888688999999998,8.756811,3.048738,0.48007026,-0.84494877,-2.245087
-1.361391,7.5845246,2.7872145,0.34060100000000004,-1.026463,-2.2951255
-0.9890734,6.8475220000000006,2.6069217,0.22933626,-1.2346110000000001,-2.409584
-0.8322724,6.5381436,2.4815327999999996,0.07976155,-1.4619052,-2.4526937
-0.45137405,6.7084575,2.352667,-0.07991862,-1.7419083999999998,-2.3872263
0.050584693,7.511271499999999,2.255242,-0.19331266,-1.9606854,-2.2700975
0.7210186,8.088916000000001,2.3393362,-0.24972170000000002,-2.1406113999999996,-2.1157231
1.3603854,8.350678,2.3342125,-0.25719172,-2.1379585,-1.9299501000000001
1.8074116999999998,8.579009,2.7321383999999997,-0.22896974,-2.0554392,-1.7234078999999998
1.8754165,8.769597000000001,3.0874189999999997,-0.15657349,-1.9702673,-1.4785383
2.0556905,8.658851,3.1502714,-0.083112575,-1.8254747,-1.2054466000000001
2.2363377,9.080115,3.3158832,-0.001134464,-1.5752819,-0.90362674
2.3348732000000005,10.334361,3.4672542,0.122871175,-1.1659323,-0.5538801999999999
1.9583994999999998,10.604935000000001,3.7598257000000004,0.25064674,-0.7182379,-0.24778439
0.90468264,11.271892,4.462907,0.44919538,-0.24075072,0.13919
-0.43812934,12.733274,4.1291075,0.6115634,0.24471262,0.6076364000000001
-0.9782804,12.133353999999999,3.6060507000000004,0.5780181,0.28729865,0.83599526
-0.70506364,10.428884,3.7432672999999994,0.46729445,0.1627345,0.87112874
-0.8283841999999999,10.417535,3.94144,0.47420597,0.49277624,1.0931171
-1.0462087,11.814657,3.6512055,0.5386261,1.3370444,1.6222486
-0.15153381,12.067572,3.2879858,0.50455725,2.1488492000000003,2.0470443
0.62288505,10.752972999999999,3.5208652000000003,0.407674,2.682763,2.1178348
0.19322164,9.306444,3.4420576,0.32517229999999997,3.039421,2.1646970000000003
-0.6741689000000001,8.933724,2.9312308,0.23732987,3.250222,2.3914502
-0.96400136,8.870364,2.0123553,0.10264281,3.2587392000000004,2.7204273
-0.8544044,8.709914,1.5190061000000001,-0.08365363,2.9691541,2.9951072
-0.42463562,8.679269,1.3988458000000001,-0.22364649,2.6497588,3.170251
-0.112278484,8.898481,1.039323,-0.32159436,2.174401,3.2490351000000004
0.18777245,8.926378999999999,0.74331343,-0.410484,1.7629047999999998,3.255423
0.48518977,8.839584,0.60670984,-0.47703338,1.4445741,3.1926086
1.281415,8.639505,0.5235257000000001,-0.52546626,1.1949222,2.9743552
1.6340808999999998,8.141119,0.84216523,-0.5531472,0.89575535,2.5671348999999997
1.4141784,7.6645384000000005,1.5343864,-0.5132315,0.48425904,2.1215699
1.5454285,7.307439,2.1593497000000004,-0.46160468,0.006230825600000001,1.7404249
2.2729497000000003,7.3504095000000005,2.4550338,-0.39611992,-0.4121595,1.3763143
3.0770566,7.5939673999999995,2.6189597,-0.36098644,-0.5920854999999999,1.0233912
3.6189699999999996,8.232252,3.09305,-0.29391345,-0.63573617,0.6635218
4.3118134,9.594371,3.4163058,-0.19010127,-0.6282835999999999,0.24991369
4.6605434,10.60617,3.6086845000000003,-0.12623966,-0.58037436,-0.31168088
3.7380671999999997,10.522737,4.2646766,-0.017104227,-0.69055694,-0.7833211999999999
4.031089,10.981974000000001,4.040943,0.09998991,-1.025922,-1.236845
3.742032,10.607501,4.0147314,0.13831735,-1.2596216,-1.7143496
2.7701105999999998,10.197891,4.2051377,0.21924827,-1.4203663999999998,-2.0044581999999997
1.9476256,10.064639999999999,3.9537847000000004,0.2666165,-1.3309531000000001,-2.108794
1.2515737,10.436698,3.630146,0.31346112,-1.0823485000000002,-1.9847709999999998
1.1603738000000001,11.783524,2.8836627,0.35018286,-0.75017744,-1.734578
1.7013388999999999,11.930039,2.48046,0.33049554,-0.42599997,-1.6547292000000002
1.7934678,10.678359,2.772313,0.36669368,-0.29611257,-1.8101683000000002
1.1017733,10.008577,2.4420377999999996,0.3948982,-0.34135148,-2.0289452
0.47865838,9.241763,1.8048642,0.29962066,-0.49998447,-2.203548
0.15427278,7.9046582999999995,1.5983212,0.15322246,-0.6602231,-2.354205
0.08775228,6.9515743,1.7074296000000002,0.0094945915,-0.8523839,-2.5234842
0.049473785,6.6071444,1.6208745,-0.11238175,-1.0818249,-2.624085
0.029707255,6.655105000000001,1.4583371,-0.2672797,-1.3900325,-2.5942748
0.5085092999999999,7.50407,1.4017859,-0.37695622,-1.6812233,-2.4452238
1.2339332,8.830649000000001,1.5139208,-0.4397706,-1.9239636999999998,-2.2961726000000002
1.6814096,9.783541,1.6161819,-0.45413467,-1.9420453000000002,-2.0709903
1.9924451,9.466702,2.0551827,-0.45200536,-1.9117115000000002,-1.8335731
1.9315175,9.256664,2.5548525,-0.3881263,-1.9585561999999999,-1.5935030000000001
2.1035264,8.918095,2.7199855,-0.32904693,-1.8425092,-1.3262757
2.1879845,9.028966,2.972957,-0.26888543,-1.4773339,-1.0026219
1.9441683,10.460909,3.1870463,-0.13953908,-0.90509284,-0.5597270999999999
1.4093898999999999,11.441230000000001,3.4694760000000002,0.025464353999999998,-0.4142888,-0.1823171
0.6403532,12.842718,3.8506904000000004,0.2580993,-0.17474237,0.19881046
0.09378566599999999,13.346429999999998,3.3489709999999997,0.3773402,-0.05550147,0.47720793
-0.053132124,11.721513999999999,3.0879168999999997,0.37521088,-0.09541715,0.6145653
0.3234758,10.399359,3.070506,0.35871753,0.15423475,0.75244635
0.07305188,9.951816,3.2086995,0.40235075,0.91917765,1.0941818
-0.16859010000000002,10.778322,3.0662541,0.46144759999999996,1.8922685000000001,1.5972381000000002
0.26984566,10.988217,2.6521337000000003,0.41619122,2.5486171000000004,1.9150276000000002
0.73967427,9.882892,2.5487428,0.30653217,2.8472602000000005,1.9336678
0.109635286,8.7419,2.5020652,0.20167279,2.930303,1.9597429
-0.61903524,8.821149,2.3264267000000003,0.10798352,2.9292382999999997,2.1982422
-0.46546155,9.545434,1.9338063,0.015358897,2.9170036,2.512314
0.031689655,9.850876,1.5387918,-0.11876965,2.8099976000000004,2.6666884
0.28274563,9.42285,1.5222334,-0.25930357,2.5800330000000002,2.6267555000000002
0.14349887,8.813880000000001,1.5245415,-0.37747982,2.2941830000000003,2.5325425
-0.21193475,8.391141000000001,1.3845285,-0.47808059999999997,1.9364603,2.447894
-0.09882306,8.122549000000001,1.0588021,-0.5739166,1.5478626,2.3510107999999996
0.28404809999999997,8.218518,0.9818334000000001,-0.66706485,1.1379721,2.1338220000000003
0.6125326,8.278699000000001,1.2002612,-0.7282735,0.7429866999999999,1.8474311
1.1634958999999998,8.315483,1.5925847,-0.7085861999999999,0.21598449999999997,1.4194413000000001
1.5010303999999999,8.211518,2.0080936,-0.65694195,-0.28651324,1.0761002
2.290322,7.9666295,2.1187822999999995,-0.59308034,-0.6799105,0.7242244000000001
2.922621,7.8956555999999996,2.370796,-0.5467593000000001,-0.79915136,0.39791763
2.8064928,8.524038000000001,2.7084167000000003,-0.49139744,-0.6325248,0.14772467
3.0019841,10.264757000000001,3.1251898,-0.364704,-0.39777797,0.0013264503
3.2504543999999997,11.922808999999999,3.5644875,-0.19329521,-0.26415557,-0.3654196
2.922899,12.442121,4.2593803,0.01802925,-0.5026374,-0.85995865
2.7073824,11.92549,4.382614599999999,0.18305013,-0.9599136,-1.4231589
1.7647278000000002,10.524431,4.770878,0.29057986,-1.2441753999999998,-1.7877932
0.77108616,10.190173,4.6618265999999995,0.39118063,-1.311772,-1.8969285
-0.10407116,9.635655999999999,4.276935,0.41140902,-1.1307813999999998,-1.8005688999999998
-0.3356192,10.075108,3.8742876,0.45825365,-0.8656833,-1.5892445
0.25699362,11.123481,3.3537307000000003,0.47848199999999996,-0.59367377,-1.5147188999999999
0.43139684,10.667634,3.316793,0.47050586,-0.45792204,-1.656841
-0.032101456,9.789383,3.177393,0.46303585,-0.5649281999999999,-1.8596658
-0.63111156,8.980862,2.6073142999999996,0.36456436,-0.7986103,-2.020428
-0.74554485,7.7116755999999995,2.2051077,0.23947662,-1.0376332000000001,-2.1231582
-0.44775403,6.825591,1.9209734,0.12662363,-1.29102,-2.2621037999999998
-0.18383639,6.6136856,1.6801646000000001,0.0025830872,-1.5103381,-2.337153
0.17131949999999999,6.8410773,1.5347407,-0.13739231,-1.7136865000000001,-2.3206596
0.74174285,7.590491,1.6853455000000002,-0.2539803,-1.8621964,-2.260498
1.1598278,8.674891,1.9870917000000001,-0.2981546,-2.028282,-2.1290223999999998
1.772868,9.499272999999999,2.0523672,-0.31466540000000004,-2.063939,-1.935256
1.8868608,9.394924000000001,2.4199345,-0.32531193,-2.055963,-1.702621
1.6311792,9.085431,2.833528,-0.29656634,-2.070868,-1.3864198
2.0435374,9.099153999999999,3.0588319999999998,-0.29550170000000003,-1.9766377,-1.0851235000000001
2.475547,9.242184,3.4014328000000003,-0.29921925,-1.7908650000000002,-0.8780576999999999
2.6591728,10.313426,3.6142964,-0.24439846,-1.3980086999999999,-0.63477623
2.2694732999999996,10.591975999999999,3.769211,-0.14645058,-0.8470605999999999,-0.39842376
1.0119812,11.160591,4.4368870000000005,0.05422738,-0.24872687,-0.02953097
-0.46862188,13.017361,4.103059,0.27673942,0.3623827,0.502777
-0.8391198000000001,12.47563,3.6037046999999998,0.326778,0.5321858,0.81739
-0.63087213,11.199942,3.4013273999999996,0.31613147,0.37835246,0.8913745000000001
-0.9464853999999999,10.282435000000001,3.3073695,0.34594172,0.5524142,1.1346559999999999
-1.0528836000000001,10.938695,3.198682,0.42046726,1.1108148000000002,1.6201367
-0.014556747,11.632392,3.1116194999999998,0.44121924,1.6766855,2.0167105
1.3211875,10.750444,3.2746932999999996,0.40875609999999996,2.0280201,2.0497146
1.3531741000000002,9.242203,3.4284489999999996,0.36882296,2.3607150000000003,1.9682776000000002
0.7606379,8.433652,3.1622807999999996,0.34114206,2.7647586,2.0763483
0.42884940000000005,8.506043,2.6410823,0.28206265,3.1549617999999997,2.3621984
0.2734753,8.683606,2.0384808,0.18997909,3.3061422999999994,2.6390076000000002
0.2584014,8.783436,1.7055048,0.06859144,3.2965430000000002,2.8806833999999997
0.40067443,8.976265,1.2775747,-0.06499606,3.0713779999999997,2.9530797000000004
0.52320015,8.818161,0.86404824,-0.25130996,2.6641405,2.786994
0.425804,8.449827,0.9881061999999999,-0.41687188,2.1850473999999998,2.4681224999999998
-0.14474384,8.124139,1.1729386,-0.51321405,1.6990432,2.2317874
0.25403437,7.968746,1.3725383,-0.5701816,1.0980564,1.900681
0.27076504,8.0087385,1.5671678999999998,-0.58880424,0.44807836,1.4646976999999999
0.8149670999999999,7.808957,2.2563817999999998,-0.53930676,-0.1704663,1.09207
1.5114883,7.721089999999999,2.265202,-0.48872709999999997,-0.6016499,0.823778
2.2652403999999997,7.812347,2.3502345,-0.45357618,-0.7251319,0.626835
2.7251282000000003,8.455564,2.737923,-0.37374482,-0.6170786,0.40643483
3.0407319999999998,10.100774000000001,2.925925,-0.24120450000000002,-0.47495645,0.13227850000000002
2.9892855,11.426299,3.3552440000000003,-0.110776044,-0.44514623,-0.27705356
2.37478,11.626961999999999,4.0554714,0.074455746,-0.77199405,-0.68214446
2.8737411,11.790572000000001,4.215298000000001,0.23521802,-1.2915436000000002,-1.1585845
2.5607135,10.970547999999999,4.49406,0.33688346,-1.6663008000000001,-1.5998735
1.8379233,10.355103999999999,4.5639806,0.42739624,-1.8462266999999999,-1.8548661
1.0492734,9.642361,4.311718,0.44973645,-1.6684301,-1.8633833
0.53697157,9.945255,3.8936233999999996,0.45399505,-1.3112309,-1.6195781999999999
0.72907275,11.707942999999998,2.946774,0.43324307,-0.93382096,-1.3321226000000002
1.4336385,11.57382,2.8902802000000003,0.36349973,-0.6660524999999999,-1.2618556
1.5314558999999999,10.714886,3.1548684,0.3869395,-0.6325248,-1.47318
0.5706724,10.049047999999999,2.7114717999999995,0.34700635,-0.76454145,-1.7036856
-0.120572,8.821694,2.2734957000000002,0.19476129,-0.9183747999999999,-1.8846763
-0.36073917,7.463712700000001,2.0301297,0.014294246000000002,-1.1259992,-2.083766
-0.48683697,6.661521400000001,1.898305,-0.16081464,-1.3309357,-2.2397287
-0.23869234,6.5750910000000005,1.6398845000000002,-0.32529446,-1.42089,-2.2636921
0.12302366,6.573970299999999,1.520567,-0.48818603,-1.5587535,-2.2327998
0.76860577,7.4480553,1.6381511999999998,-0.5723109000000001,-1.7525375,-2.1284813999999996
1.4113436000000001,8.707529,1.6579176,-0.6063623,-1.9101058000000002,-1.9868828
1.8944647000000001,9.544514,1.7095845,-0.58082813,-1.9601444,-1.8277088
2.1352832000000004,9.688051,2.2048109,-0.5329014,-1.9883488,-1.6499120999999999
2.0072029,9.320436,2.7460343999999997,-0.44720572,-2.0857732,-1.4141006
2.0618098000000002,9.100093,3.0290961,-0.34819320000000004,-2.1352706,-1.1484616
2.5285451,9.893406,3.1258984,-0.24492206,-1.9175582999999998,-0.8588764999999999
2.482816,10.551716,3.4456778,-0.11503465,-1.3772393,-0.5384166
1.8162796,10.869158,4.0709089999999994,0.05794493,-0.83374375,-0.2003987
1.0401274,12.264413000000001,4.194497599999999,0.27354544,-0.4030838,0.1919164
0.6212666,12.305009,3.656693,0.33796555,-0.15023795,0.41229913
0.54452765,11.41157,3.5901628,0.31613147,-0.09752899999999999,0.44530329999999996
0.017420212,10.480906,3.8880782,0.31773720000000005,0.39751620000000004,0.6097831
-0.8480071,10.6985855,3.8375032,0.38426915,1.2620127,1.0521543
-0.44109815,11.547206,3.5501989999999997,0.40503857,1.9870398999999999,1.4567215
0.6564901,10.879444,3.401021,0.32731906,2.3170817,1.4561806000000002
0.72916853,9.378337,3.3033757000000006,0.21446607,2.4309993,1.2922418
0.12281297,8.502653,3.1647133999999997,0.11917108,2.543311,1.339069
-0.23330058,8.275625,2.6962352000000003,0.045186576,2.7232373,1.6435591
-0.16314089999999998,8.227751,2.2239645,-0.047420595,2.8605947,2.001823
0.20160137,8.304030000000001,1.9319867,-0.1836959,2.8621828999999996,2.2434986
0.31662840000000003,8.275127000000001,1.9888921000000002,-0.30347785,2.7328365000000003,2.2972722
-0.05959647,8.125375,1.803466,-0.42910665,2.4762383,2.3196122999999997
-0.16126385,8.0431385,1.5543158000000001,-0.5558001,2.1451318,2.321218
-0.09645759,8.325109,1.456144,-0.65320694,1.7219418000000002,2.2552097
0.18397047,8.855913000000001,1.4275379,-0.7218856,1.2577541,2.1130877
0.6165644,9.019321000000001,1.6815818999999999,-0.7304028,0.72277576,1.8224379000000002
0.74153215,8.881857,1.8870236,-0.6856875,0.24952972,1.4828143
0.9533615,8.214707,2.0319397,-0.6489483,-0.1752485,1.0745120000000001
0.62880355,7.60612,2.2961736,-0.6154205,-0.46376890000000004,0.75457567
0.48561114,7.860738799999999,2.699242,-0.50947905,-0.7150265,0.61138886
1.293022,9.955886,2.9242492,-0.35351643,-0.9396677999999999,0.45542622
2.7742857999999995,11.694296000000001,3.2471793,-0.21244147,-1.0850013,-0.03270747
2.3309947999999996,11.250449,4.10982,-0.02825688,-1.2702332,-0.5298994
2.2757560000000003,11.497627,4.0441709999999995,0.1383348,-1.5321373,-0.8423656999999999
1.7514255,9.806392,4.403846700000001,0.17294468,-1.6338202,-1.1953062
1.2001559,9.206481,4.7584763,0.2820801,-1.6716064999999998,-1.3496805
1.4828919,10.497703999999999,4.8179574,0.39812705,-1.4357951,-1.3933313
1.202349,11.052228999999999,4.869576,0.48116982,-1.0168462999999999,-1.4018483999999998
0.566018,11.580072999999999,4.4737673,0.55728364,-0.5329712,-1.274614
-0.012469003000000001,11.277236,3.7970028,0.5482428,-0.18216002,-1.1548493999999998
-0.38346493,10.497243,3.5224452000000004,0.5583483,-0.21197024,-1.1654959999999999
-0.46482947,10.210245,2.8891215,0.55035466,-0.5239129,-1.2985773
-0.36170644,9.308781,2.3366165,0.45985934,-0.91305155,-1.5109663999999998
-0.19020496,7.94987,2.1922363999999996,0.32625440000000006,-1.328789,-1.7622241
-0.009979033,6.81226,1.8564256000000001,0.16390386,-1.6583071,-1.9517319
0.48539087,6.1538260000000005,1.5775683,-0.0074874623999999996,-1.847274,-2.0645849999999997
1.1355125,6.1427746,1.4988756,-0.15707964,-1.953739,-2.115688
1.7442334,6.784957,1.5199541,-0.26619762,-1.9415042000000002,-2.0880072
2.3985974999999997,7.9214463,1.6582911,-0.33061773,-1.8845366999999997,-2.008682
2.3649063,9.176774,1.9167022,-0.30400145,-1.6955699,-1.7989631999999998
2.0567724999999997,9.505661,2.1484416,-0.2502453,-1.4389889999999999,-1.4604043
1.8246115,9.369584,2.6262095000000003,-0.17889625,-1.4001206,-1.1324918
1.8180512999999998,9.129043,2.9456055,-0.15175638,-1.4490945,-0.8972039
1.7687021,9.279819999999999,3.0292208,-0.17837265,-1.3761747,-0.66511005
1.6281241000000002,10.474537,3.2756990000000004,-0.17252579999999998,-1.2186063999999999,-0.4308869000000001
1.4247319999999999,12.047384,3.5140752999999996,-0.111823246,-1.0381393,-0.20624556
0.89818,13.241851,3.7565120000000003,-0.010681415,-0.94125605,-0.0034208453999999998
0.38164532,13.980654000000001,3.7541847,0.08777261,-0.85449576,0.22385593
0.40042543,13.195959,3.9183410000000003,0.1436755,-0.7671944,0.35480797
-0.11658804,11.353601,3.919423,0.18305013,-0.45738098,0.48682470000000005
-0.72299147,9.600624,4.120076,0.23788838,0.025953045,0.80356705
0.02846227,9.996942,4.164973000000001,0.30122638,0.48694685,1.1815181000000001
1.5706632999999999,10.568869,3.9585828999999997,0.31934288,0.9101543,1.2810716999999998
1.7500465,9.406262,3.9158702000000005,0.29644418,1.3759303,1.2299684
0.93885267,8.214324000000001,3.7746985,0.27940977,1.8172368000000003,1.3209872999999999
0.30472443,7.813822,3.434827,0.23949409,2.1919939999999998,1.5786328
0.021815965,8.052102,2.9719992000000004,0.16603318,2.3900189999999997,1.8996338
0.22110932,8.301855999999999,2.4881117,0.038798667,2.3421097,2.1455507000000003
0.6535883000000001,8.34093,2.2163699,-0.11503465,2.0887227,2.1902661
0.96380025,8.151375999999999,2.002223,-0.25289822,1.7991377,2.0976415
1.0109755999999999,7.8362317,1.7197168,-0.3657512,1.4126695,1.9432845
0.96719044,7.6768446,1.4951023,-0.45305258,1.042171,1.8442545
1.407101,7.611214599999999,1.4148296,-0.5243842,0.7195818,1.7521708999999999
2.0182354,7.815411599999999,1.6612599,-0.5355543,0.46300095,1.5434994
2.535948,8.108462,2.093921,-0.4998972,0.26497588,1.2065287
2.4699828999999998,8.117416,2.4339457,-0.45996407,0.11911872,0.84721774
1.9576334,7.843548299999999,2.5891185,-0.42802453,0.024364796,0.56721455
1.6101581,7.792953999999999,2.9186563,-0.4024729,-0.10550515,0.3750538
1.9406058999999998,8.697474,3.1554716,-0.32635912,-0.31524137,0.20790362
2.9017246,10.448813000000001,3.255827,-0.22999948,-0.56543434,-0.10775663
3.1077027000000004,10.993207,3.4571697999999995,-0.17517869,-0.7820995,-0.6086835999999999
2.6166136000000004,11.078977,3.9806285000000003,-0.041556288,-1.1094708,-0.98874646
3.249832,11.751105,3.8373787000000004,0.027628561,-1.3894739999999999,-1.3203938999999998
2.6110398999999997,10.526816,4.501645,0.09044296,-1.5071093,-1.6616058
1.7152922,10.140717500000001,5.070583999999999,0.23895302,-1.434713,-1.7350667000000002
0.8847629000000001,10.29117,5.196778,0.39812705,-1.0695378,-1.5625931999999998
-0.016548721000000002,10.326671000000001,5.0558453000000005,0.50724506,-0.6718994,-1.2581031
-0.40779,10.942679,4.5267267,0.58283526,-0.2795843,-0.9307316999999999
-0.024823084,10.871381,3.9079883,0.5700594,0.00572468,-0.85727084
-0.18231368,10.095792999999999,3.8328202000000005,0.5232148,0.020629792,-1.0771124
-0.9133496999999999,9.541718,3.2518141,0.44017205,-0.26574382,-1.2783315
-1.1848521,8.587159,2.7199473,0.2868623,-0.75441855,-1.441223
-0.71676654,7.3934674,2.2254392999999997,0.12131783,-1.152598,-1.5748454
0.32936555,6.405791799999999,1.7854232,-0.041015237999999996,-1.3554051999999999,-1.6930043000000001
1.5842816000000002,5.8452519999999994,1.6119107,-0.16186184,-1.5214908,-1.8596308000000001
2.6874914,5.7550864,1.6983126,-0.2965489,-1.7168455000000002,-2.0550029999999997
3.0685813,6.3615184000000005,2.1839046000000004,-0.32794738,-1.7120633,-2.054462
2.7806451,7.6322746,2.2896037000000002,-0.21350613,-1.32186,-1.6429831999999998
3.0019553,9.223231,2.0604978,-0.044226642999999996,-0.68202233,-1.0781946000000002
3.2024074000000002,9.975517,1.9073360000000001,0.016982054,-0.12627457,-0.6730862
3.2736015,9.741854,3.0286459999999997,-0.004834562,-0.030979594,-0.48677233
2.823779,9.094241,4.0006347,-0.005899213,-0.19867083,-0.40798816
2.3268193999999998,9.105149,4.200770400000001,-0.0037524579999999997,-0.21942279,-0.28766516
2.216456,10.8345,3.7393217000000005,0.02708751,0.1414764,-0.066235244
1.5786121000000002,11.67201,4.0871129999999996,0.06647959,0.6961595,0.12911946
0.62728083,13.183997,4.275374,0.18891443,1.0890156000000002,0.28562313
0.030578746,13.668018,4.0035744,0.17561503,1.2231617000000001,0.27656487
-0.32523796,11.427564,4.6204643,0.13887584,1.1284077,0.15999433
-0.741015,9.238113,3.2374492000000004,0.001012291,1.3743421,0.14135422
-2.3163996,9.701716000000001,1.6066817,-0.11234684,2.2266037,0.52729887
-4.0777660000000004,15.560481,-0.053371545,-0.15069173,3.102794,1.2278391000000002
-2.267855,14.023816,2.6718047,-0.21244147,2.960148,1.1612897
-2.593725,9.414997,3.898881,-0.07456046,2.1105568,0.61460024
-4.1070805,7.0279303,2.8787974999999997,-0.14641567,1.546292,0.46980770000000005
-3.73076,5.987046,1.3618697,-0.20179497,0.96391046,0.47406632
-2.6191514,6.633796,1.50647,-0.2757795,0.24209462,0.32607988
-1.6940125,7.346320599999999,1.9055834999999999,-0.25768042,-0.21994638,0.21481512
-1.0048752,7.167876,1.3967198,-0.1900838,-0.269985,0.19565141
-0.38185602,7.49795,0.9631299000000001,-0.13151056,-0.04907866,0.17277014
-0.1214818,8.405525,1.1128249,-0.094788834,0.31981415,0.12805481
-0.41465658,8.158078999999999,1.5529941,-0.062849306,0.5918237,0.09079203
-0.74709624,7.857042,1.9134556,-0.014940018999999999,0.63653904,0.09717993400000001
-0.7005816999999999,8.717986999999999,1.9608799,-0.02932153,0.61789894,0.12592551
-0.53587985,9.543306,2.2247305,-0.08520697,0.60140556,0.10196213400000001
-0.7863515999999999,9.291859,2.2201720000000003,-0.17835520000000002,0.5801125,0.07162831
-1.2819705,8.660115,2.2395842,-0.26939157,0.5753303000000001,0.11580259
-0.8528051,9.039528,2.239948,-0.2928139,0.39433968,0.17756979
0.30536607,11.503077000000001,2.4909081000000004,-0.20285963,-0.016598081,0.11047934
0.8655709,12.586739999999999,2.6629076,-0.14908603,-0.50101423,-0.11679743
0.00386903,11.457691,3.0873997,-0.09744173,-0.71181506,-0.2733011
-0.79075694,12.84201,3.2715714,0.0766025,-0.6506064,-0.18013543
-0.63998926,10.964236999999999,3.4471717000000006,0.06328564,-0.390308,-0.2818183
-2.0735798,8.648527,3.5172641000000002,0.13461724,-0.12412781,-0.33452725
-3.4018059999999997,8.197258,3.0022237,0.1894555,0.12817699,-0.23071507
-3.1943247,8.657912,3.0587937999999997,0.26823965,0.0951728,-0.15086626
-2.4680004,9.862252999999999,3.392124,0.38960984,-0.15022048,-0.22165681
-2.3860517000000003,10.649572000000001,2.5218127,0.42846087,-0.15022048,-0.28394762
-2.6585502999999995,9.497674,2.2912798,0.426349,0.07494444,-0.26158994
-2.8842182000000003,9.280797,2.1274111,0.46041787,0.0025481808,-0.18812904
-2.0073657,9.924128999999999,2.0601241999999997,0.43273693,-0.32908183,-0.25679028
-1.5810541999999999,9.368511999999999,2.0525875,0.38908625,-0.60428536,-0.37231365
-1.3755647,8.882,1.7878462,0.35979962,-0.74268997,-0.4031885
-1.0781857,8.42442,1.5515193,0.29698524,-0.7618537,-0.43832198
-0.9597014000000001,7.869846300000001,1.9258096999999998,0.22724187,-0.8321206,-0.43673372
-0.45236048,7.694332000000001,2.3718972000000003,0.20596631,-0.9534908000000001,-0.43458697
0.15643713,7.6525393,2.4479275,0.13941689999999998,-0.95455545,-0.48994884
0.07414364,7.3523064,2.6520476000000004,0.0803375,-0.785817,-0.5186944
-0.05073792,7.0829296,2.5818784,0.020176006,-0.6873281,-0.50487137
0.33696952,7.374467,2.4615650000000002,-0.034103733,-0.70383894,-0.48729593
0.6077729000000001,8.350286500000001,2.3261874,-0.06817256,-0.65645325,-0.45907396
0.27461493,9.290125,2.5846270000000002,-0.06604326,-0.5553114,-0.37496653
-0.15346833,9.9705,2.7728207,-0.019198623,-0.4642925,-0.23390903
-0.32152212,10.217371,2.9702754000000002,0.026040312000000003,-0.4648161,-0.21741566
-0.46582547,11.1313715,3.2374777999999997,0.12185889,-0.50047314,-0.21368065
0.30723354,13.302874,2.8307412,0.13941689999999998,-0.5324127,-0.2844712
0.11488338,13.556918,2.824995,0.084596105,-0.23272221,-0.38828340000000006
-1.9059473999999998,13.243029,2.3965383,0.021240657000000003,0.46513024,-0.23017402
-4.2897487000000005,12.385771,2.284375,-0.06817256,1.1449186000000002,0.05778785
-5.0567836999999995,11.352376,3.1441424,-0.10011209,1.2859935,0.23986060000000003
-3.72284,9.65663,3.6717477,-0.12034045,0.85266316,0.08175122
-3.2456756,8.527562,2.6238344,-0.18421949999999998,0.43851396,-0.030019663
-3.0698838,8.190956,1.5388492,-0.236911,0.32620203,0.01998402
-3.0589566,8.721167,1.1494083000000002,-0.23958135,0.3549476,0.13072516
-2.7518093999999995,9.410860000000001,1.165641,-0.19805996,0.35761797,0.22706734
-2.278581,8.797618,1.7189411,-0.12885766,0.2617994,0.19673352
-1.7951342000000001,8.247527,2.0591953000000003,-0.057526052,0.10049606,0.13391912
-1.3093506000000001,8.02025,1.8140866999999998,-0.059655353,0.072815135,0.055134952
-1.6088461,7.765775,1.5499104,-0.09424778,0.2575408,0.052464597
-2.065401,7.8778429999999995,1.3937126,-0.10117674,0.46195376,0.124337256
-2.2938464,8.162274,1.480153,-0.11128219,0.50506335,0.16105898
-2.2743766,8.133658,1.6797144,-0.10595894,0.35866517,0.16851154
-1.8750335,8.038848,1.5394238,-0.09637708,0.13721779,0.13124876
-1.3771161,8.036904,1.2513056,-0.11714649999999999,0.025970499999999997,0.06471681
-1.6775693,8.251836,1.2673371999999998,-0.12034045,0.04993387,0.040770892
-2.5701182,8.6781,1.6089227,-0.09744173,0.071750484,0.12273155
-2.8862963,9.417392,2.1395545,-0.030368729,-0.058660515,0.23399629
-2.5407462000000005,10.294282,2.3131244,0.020717058,-0.33012903,0.23719025
-1.7392439,10.907619,2.2642827000000003,0.029757863,-0.5962917,0.061522855999999994
-1.7234517,11.128135,2.5484647999999996,0.038816124,-0.70488614,-0.08592256
-1.7000651000000002,12.166797,2.9893236,0.1325054,-0.75600684,-0.16523032
-1.4182389,10.735553,3.7168736000000004,0.19425514,-0.6873281,-0.36751398
-2.239747,9.039251,4.192716000000001,0.3321187,-0.32054716,-0.38561305
-2.5558197,7.180928999999999,3.7083025000000003,0.3960152,0.06749188,-0.31054643
-3.341616,6.797589,2.5847703999999996,0.39866809999999997,0.40072759999999996,-0.20516345
-4.3384656999999995,9.310141,1.534463,0.3427652,0.52103317,-0.035342917
-3.330593,11.243765,1.8400302,0.32414255,0.23570672,-0.04918338
-2.6163645,11.45095,1.828605,0.3315951,-0.023509584,-0.1439373
-3.1553087000000004,11.583003999999999,0.9691440999999998,0.2703864,0.03822271,-0.0773879
-3.1535754000000003,10.483979,0.9877326999999999,0.1868026,0.104754664,-0.016179202
-3.0905695,9.298936,1.4569292,0.1388933,-0.042690754000000004,0.0013613568
-2.8393029999999997,8.76817,1.4020445,0.07127925,-0.3839026,0.017872171
-2.2531831,8.402747999999999,1.5861874,0.013788101,-0.693716,0.015201817
-1.8296586,8.275051,1.5701079,-0.015987216000000002,-0.869907,0.03651229
-1.2192425,7.855212700000001,1.404161,-0.09424778,-0.96680766,0.04022984
-0.4157675,7.38865,1.7176961,-0.16132078,-0.9928829,0.00083775807
0.30532777,7.558859,2.1263194,-0.19060741,-0.9928829,-0.059829887000000005
0.910898,7.949286,2.3202496,-0.23265238,-0.9433679,-0.14339624
0.73878366,7.9077325,2.5399990000000003,-0.27256808,-0.7160736999999999,-0.15671311
0.051848833,8.129147999999999,2.984832,-0.25607470000000004,-0.48556805,-0.0752586
-0.48531428,9.310638,3.568797,-0.17303194,-0.42168900000000004,0.06684611
-0.6163729,10.457098,4.0359635,-0.07827802,-0.48717377,0.17437585
-0.024890121,10.834759,4.006036,-0.014922565,-0.61706114,0.15149458
0.36208948,11.573953999999999,3.7726300000000004,0.004223697,-0.6223844000000001,0.11582005
0.45644018,12.179314,3.1509705,-0.055920347999999995,-0.41425390000000006,0.20364502
0.39018783,11.5499735,2.7780976,-0.16718508,0.04087561,0.36281905
-0.34621117,10.707301,2.282038,-0.25501007,0.77442,0.6864729
-1.8460252000000001,10.912331,2.3964522,-0.2374346,1.4046934,1.1985698999999999
-2.308336,11.346764,2.89187,-0.20870647,1.5542855,1.7239839
-1.67144,11.555106,2.8716822,-0.23052308,1.3024869,1.9283968
-1.3150488,11.328586999999999,2.633526,-0.2778913,1.0160958,1.8991102
-1.1207353999999998,10.790705,2.5856805,-0.30398400000000003,0.85800385,1.9108213
-0.33502543,9.648432000000001,2.7403266,-0.33698818,0.73289865,1.8735586
0.37836048,8.296664999999999,2.825771,-0.37264526,0.6056815999999999,1.7335657
0.624676,7.204650999999999,2.6356235,-0.374792,0.5455201,1.5930318
0.64766026,6.580875,2.186136,-0.37425095,0.55723125,1.5371289
0.5800576,6.3570747,1.6485994,-0.40245548,0.56096625,1.5589629999999999
0.6614222,6.2558765,1.3297013,-0.4487765,0.49867547,1.6297536
0.8372619000000001,6.464583999999999,1.443196,-0.46207592,0.39009854,1.7021673
1.4121481000000002,7.430797999999999,1.6584922,-0.46422267,0.24102996,1.7053436999999998
2.0649896,8.365809,2.0969663,-0.44238859999999997,0.15001105,1.4860257
2.2100299999999997,9.023458999999999,2.5168328,-0.37370990000000004,0.14575244,1.1645186
1.9817957,9.116162,2.650123,-0.3300592,0.13084733,0.7695156999999999
1.5225781999999999,9.438316,3.189613,-0.2587276,0.045134213,0.39795253
0.97755253,10.621838,3.6039536,-0.16132078,-0.14594443,0.10623819400000001
0.814766,11.183297,3.682895,-0.06817256,-0.53347737,-0.20355774
0.8974713,10.951299,3.5335638999999994,-0.006405358000000001,-0.9843656999999999,-0.61716586
0.62530804,10.885755,3.5422597000000002,0.06117379,-1.4107497,-0.9504016
1.2172505,10.862369000000001,3.2047347999999998,0.14315191,-1.8211813000000001,-1.3012128
1.565013,8.846872,3.318622,0.13624041,-2.2028499,-1.7882818
1.3290118,9.934683,3.5116807999999997,0.19373155,-2.3971574,-2.0134642
1.1510364,11.3866415,3.5328074000000003,0.1958434,-2.1554816000000003,-2.1193880000000003
0.47555548,11.183488,4.151536,0.19799015,-1.8169227,-2.1050240000000002
-0.4883022,11.38442,4.0749889999999995,0.22193606,-1.4405598999999998,-1.9075227
-0.44545559999999995,11.219161999999999,3.5541828,0.13091715,-1.1248996,-1.7813703
0.109884284,11.256339,3.602201,0.03403392,-1.1147767,-1.8606781000000003
0.21543027,10.947699,3.311411,-0.07401941,-1.2537223,-2.0028175999999998
0.56410265,9.660231,2.7044517999999997,-0.2438225,-1.3809394,-2.1231058
1.1772768,8.295525999999999,2.2375634,-0.43120104,-1.3873273000000002,-2.2876031
1.3819907,7.2582617,1.9071636000000003,-0.5595002,-1.3447412,-2.421749
1.1422736999999998,6.8415656,1.7715178,-0.6313554,-1.2303001,-2.4174905
0.9591555,6.9950529999999995,1.9576237,-0.61751497,-1.2185714,-2.2742862999999995
0.78947365,7.7585163,1.9727073,-0.5616295,-1.3798747,-2.0448627
1.0613209,8.432091,1.9824182000000001,-0.5094616,-1.4762343999999998,-1.8303441999999999
1.1939883999999998,8.435492,2.2100685,-0.45355870000000004,-1.4661114,-1.6115496999999999
1.1798434,8.133917,2.7598347999999997,-0.36625734,-1.3899801999999999,-1.3767855
1.4235444,7.764061,3.2018904999999998,-0.30024898,-1.2223065,-1.126069
1.9495313000000003,7.8569655,3.6622953000000003,-0.26778588,-1.0870957,-0.95572484
2.2722027000000002,8.159822,3.9577207999999997,-0.17249089999999997,-0.7139444,-0.71937233
2.123743,8.665459,3.9760603999999997,-0.0048171086,-0.102293745,-0.37816048
1.4383214,9.259134,4.3464529999999995,0.21821852,0.44917792,0.002443461
0.28273606,11.463007000000001,4.17362,0.49183378,0.9005898999999999,0.49911179999999994
-0.08069417599999999,12.790486,3.3713043,0.5264262,1.2412782,0.8541641
-0.60664284,11.928019,3.5442708,0.5839174,1.4605962,1.1836823
-1.7743620999999998,11.114527,3.457524,0.6754773000000001,1.6346578999999999,1.6201716999999998
-2.7403555,11.760146,3.4775013999999995,0.74735,1.8992324,2.2307577000000003
-2.0102580000000003,12.308197999999999,3.438792,0.7489382,2.1451666,2.78757
-0.10794977,11.506907,3.234241,0.6797359000000001,2.4496569999999998,2.9547203
0.71465963,10.127818,2.791141,0.55091316,2.8760407000000003,2.9296922999999997
0.027456705,9.322054,2.4924022999999997,0.46202356,3.269979,2.9973063
-1.1100093999999998,9.263415,1.6992033,0.31297243,3.6255550000000003,3.3922917999999997
-1.1610154,9.905723,1.0627956,0.05958554,3.6271608,3.7457559999999996
-0.3934535,10.2176285,0.6915125,-0.24755749999999999,3.232175,3.7814302000000004
0.11914505,10.034147,1.0521942,-0.4753928,2.708367,3.6100042
0.43253648,9.63309,1.171119,-0.65584236,2.2239508999999997,3.3268244
0.72139215,9.618112,1.3673478000000001,-0.7170685,1.6394576,2.9749486000000003
1.1476846,9.257957000000001,1.2944108,-0.7356912,1.0443177,2.5363123
1.0472238999999999,8.675764,1.1565143,-0.70961595,0.49176398,2.2861195
1.6685861000000002,8.1316185,1.3931572,-0.6787411,0.02438225,2.0880945
2.6259031000000004,7.5636277000000005,1.9859042000000002,-0.5807932,-0.25614452,1.7575116000000002
3.4767735,6.652777700000001,2.3081157,-0.3992615,-0.27370253,1.4567565
3.8849466,6.0683050000000005,2.1867970000000003,-0.325277,-0.09642944,1.1245854
3.5571900000000003,6.324954,2.4552157,-0.32847098,0.11009537,0.69766045
3.127718,7.9669743,3.1311657000000004,-0.24914575,0.13723524,0.3117158
3.472167,9.288708,3.7090303999999996,-0.08892453,-0.03042109,-0.22324507
3.3882167,9.194817,3.8809915,0.016999507,-0.32267648,-0.766217
3.2959538,9.656927,4.0821423999999995,0.1357168,-0.71979123,-1.1782368
3.5334203,10.111001,3.5335257000000007,0.20437805,-1.1147767,-1.5721576000000002
3.3010485000000003,9.132357,3.6570091000000002,0.21235421,-1.4613118,-1.9431797
3.342028,9.586192,3.919088,0.383763,-1.723757,-2.1342932999999995
3.2645228,10.648814999999999,3.5805957000000004,0.57114154,-1.657225,-2.194455
3.137649,11.316932000000001,3.0728526,0.6951821,-1.4331073,-2.1428106
2.4945092,11.315266000000001,2.5973353,0.7883303,-1.095613,-1.9602141
1.9548752,10.392646000000001,2.3636133999999998,0.8293280999999999,-0.72192055,-1.8276738999999997
1.5027542999999999,10.282464,2.3381104,0.8644616,-0.5308244000000001,-1.8601545
0.77312607,10.306052000000001,2.1843355,0.789936,-0.7027568000000001,-2.044339
0.20433074,9.707319,1.8230889,0.57752943,-1.2042073999999998,-2.3355124
0.8536094999999999,9.208608,1.5171481000000002,0.3901509,-1.7003346999999998,-2.5676062
1.7900393,8.790617999999998,0.98709106,0.20916025,-1.5943931,-2.7315624
1.3232848999999998,8.179492999999999,1.1295077,0.07714355,-1.1690738999999999,-2.7315624
0.8283459000000001,8.050896,1.5902385,0.016458455,-0.8422261000000001,-2.5117207
0.6321459,8.295402000000001,1.5632988,-0.059096847,-0.6362074000000001,-2.2631161
0.17509276,8.546793,1.6249733999999998,-0.11180579,-0.8672367,-2.0107939999999997
-0.28843427,8.630006,1.5408698,-0.21561797,-1.1861084,-1.7984046999999999
-0.9434017,8.408887,1.7061368000000001,-0.22626448,-1.6337852,-1.3640097
-0.05291186,8.322963,1.2473216,-0.23582889,-1.9771439,-0.99244654
1.0868335,8.445259,1.2217995000000001,-0.29866076,-2.2156257999999998,-0.73694783
2.1198259999999998,9.483261,1.4962132,-0.29119074,-2.2970626,-0.53251743
2.7823974999999996,11.138085,1.7808551,-0.17941985,-1.9223056,-0.25199065
2.9123068,11.500002,2.419676,-0.029827677,-1.2994848,0.016824974
2.3791852000000002,12.451276,2.681142,0.20650735,-0.46054003,0.38519415
1.3928125,12.991849,2.0425892,0.3071256,0.20643754,0.7828324999999999
1.208593,12.655061,2.3998137,0.29061478,0.4603655,1.0372841
0.8480837,12.2314205,2.7594228,0.24483478,0.7861312,1.2065636
0.19305885,12.027961999999999,3.0794702000000003,0.18894935,1.3967171999999999,1.5137241000000001
0.6073036999999999,12.537802000000001,2.9875422,0.102695175,1.8859328999999998,1.8070266
1.8965716000000001,12.004384,2.9668949000000002,-0.06815511,2.2282095,1.8251256999999999
2.3039978,10.010224000000001,3.0617435,-0.20549506,2.5018249,1.6861974999999998
1.5484738,8.599953,2.6530820999999998,-0.3295356,2.7951273999999997,1.6595811999999999
0.45854709999999993,8.387089999999999,1.7722743000000003,-0.45409977,2.9819822,1.8522830000000001
-0.32178070000000003,9.081380000000001,1.1683513,-0.55257124,3.0176394,2.176984
-0.41905233,9.6509695,0.9056690999999999,-0.6425255,3.0181804,2.4383645
-0.38068765,9.332512,0.8859695,-0.7356912,2.6918736,2.4852092
-0.5619575,8.838884,0.9973860999999999,-0.79105306,2.2399206,2.4213302000000003
-0.4196844,8.495327,0.92932373,-0.8150164000000001,1.7741446,2.2962425
-0.34286883,8.350497,0.9593853999999999,-0.83203334,1.3131508,2.141327
-0.0065601122999999996,8.513628,1.0717883,-0.8544084999999999,0.90165454,1.9587481
0.3911072,8.535798,1.4057412,-0.8214043,0.53063244,1.7287834999999998
1.1456734,8.105541,1.6866002,-0.7596371,0.13829988,1.3263456
1.2152776,7.550402,1.9591273,-0.65903634,-0.34875170000000005,0.8626988000000001
1.3703165000000002,7.366001,2.1957414,-0.57173496,-0.7698298000000001,0.5512796999999999
2.053296,7.6822175999999995,2.4303732000000005,-0.48923326,-1.0487684,0.41233402
3.2079527000000003,8.813449,2.6851928,-0.3678456,-1.071126,0.34206709999999996
4.261315,10.225377,3.2295196,-0.21188296,-0.81454515,0.08922123
4.3212660000000005,10.071611,3.9936817000000002,-0.09583603,-0.5121843,-0.36910224
3.3029926,9.650865,4.829459,0.07609635599999999,-0.5164429,-0.75822335
3.1860025000000003,9.965233,4.2986555,0.14847516,-0.7985753999999999,-1.1494913
2.6899621,8.947505,4.4460707,0.136764,-1.0844254,-1.5327656
2.0480381999999997,9.280203,4.805469,0.21715386,-1.3591053,-1.7291849999999998
1.9320633000000003,11.106999,4.6616735,0.33800048,-1.3298361,-1.7345081999999998
1.6226558999999998,12.259864,4.3768497,0.44233623,-0.97637206,-1.6711702000000002
0.719381,11.663142,4.056649,0.5062153,-0.51057863,-1.5189252
-0.04153461,10.173392999999999,3.7698047,0.53441983,-0.15233234,-1.3879731000000002
-0.67120963,9.440625,3.3992398,0.54452527,-0.13688618,-1.4108543
-1.0334427,9.345862,2.7885747000000003,0.49661598,-0.45202282,-1.5231837
-0.96618485,8.8370075,2.3629333999999997,0.38004544,-0.87257737,-1.6892692999999999
-0.5996135,8.005291,2.2233899,0.23792328,-1.3862627,-1.8958116000000003
-0.32789072,7.342892,2.0310588,0.09152506,-1.8472563999999998,-2.0895605
0.03625779,7.234176,1.8453548999999998,-0.03728023,-2.1213952999999997,-2.195502
0.55661356,7.367141,1.6820703000000001,-0.14800392,-2.3066447,-2.171015
1.3971604,7.9586806,1.664066,-0.23211133,-2.4876351000000003,-2.0853193
2.2169157999999998,8.959686,1.4735639999999999,-0.29918435,-2.5270273999999997,-1.9320096999999998
3.106467,9.871735000000001,1.5975549999999998,-0.34122932,-2.577607,-1.8111631000000001
3.6994534,9.889882,2.0191932,-0.33592352,-2.3545540000000003,-1.7281203
3.4407935,8.956038000000001,2.7781167,-0.30131364,-2.0404818,-1.5897157
2.809452,8.138207000000001,3.3675501000000003,-0.21720622,-1.7391857,-1.3437814
2.355339,8.373471,3.1720107000000004,-0.14480996,-1.3979738000000002,-1.0334444
2.040712,9.783111,2.9137049999999998,-0.09850638,-0.9785014000000001,-0.6932796999999999
1.6123034,11.039904,3.1403209999999997,-0.026633725,-0.61758476,-0.40317106
0.95752746,11.656918,3.599443,0.08141961,-0.51111966,-0.2136632
0.203239,12.048504,3.5362647000000003,0.17776178,-0.5217662000000001,-0.023614304
-0.039111678,11.301024,3.4439727999999996,0.20011945,-0.57126373,0.10412634
0.006569689,10.398133,3.3784769999999997,0.22992967,-0.53454196,0.25317746
-0.21958661,9.547922999999999,3.4683266,0.29967302,-0.15446164,0.5182755
-0.4334367,10.293784,3.6099296,0.41837287,0.40819759999999994,0.9670346
0.4142255999999999,11.794728,3.3203937999999993,0.5014156,0.8835555,1.3109168
1.4776629,11.72455,3.2867699,0.5168617999999999,1.2237202,1.4120412
1.7143728999999999,10.371872999999999,3.5576496,0.49555132,1.5553502000000001,1.4370691999999998
1.1495137,9.484342999999999,3.3917410000000006,0.49663344,2.0285962,1.601549
0.5306987,9.169055,2.7964756,0.437013,2.4688206000000004,1.8608003
0.40303034,8.892774000000001,2.4697244,0.2868972,2.7349832000000003,2.0769243000000004
0.55372137,8.750396,2.2728922000000003,0.11761774,2.7333950000000002,2.150909
0.6729814000000001,8.472477,2.0476747,-0.054855697,2.4634973999999996,2.0806419999999997
0.6841958,7.982163000000001,1.5912629999999999,-0.22785273,2.1254795,1.9635477
0.801483,7.782094,1.3838868,-0.39606756,1.7358171999999998,1.869841
0.9975106,8.032623,1.2804574,-0.51583207,1.3711655,1.8102206000000003
1.661691,8.14609,1.2744144,-0.60686845,1.0363415,1.7011026000000002
2.2051938,8.059141,1.2962495,-0.64891344,0.77710783,1.5094829
2.5547185000000003,7.6317673,1.7333158,-0.61857957,0.6014229999999999,1.2299858
2.3189569,7.4805584000000005,1.8708387999999998,-0.5802522,0.37254053,1.0144029
2.1589665,7.692531599999999,1.9458921999999998,-0.5733232,0.12020083,0.88877404
2.5812464,8.532227,2.419264,-0.54937726,-0.05438446,0.751434
3.1425240000000003,10.10107,3.057884,-0.40510836,-0.18640116,0.5220104999999999
3.8795836,10.989922,3.5904696000000005,-0.23157029,-0.27316147,0.07485717
3.1626543999999996,10.331698,3.9033244,-0.13255775,-0.39826667,-0.47183230000000004
2.2937602999999998,10.880612,4.1588335,0.01860521,-0.7086037,-0.7816456999999999
2.7831254,11.432524,3.5787857000000005,0.03509857,-0.96944314,-1.164379
1.7219769,9.879405,3.8595777,0.036163222,-1.1184943,-1.4779273000000002
1.2055955,10.222973,4.090656299999999,0.16179202,-1.180244,-1.5130608
1.2103456,10.631194,4.041307,0.24644049,-0.9955358,-1.6094030000000001
0.1402236,9.399416,4.7156386,0.36035812,-0.6766641999999999,-1.6189848
-0.9843138000000001,9.782957000000001,4.3379389999999995,0.49237484,-0.38282052,-1.3986021
-1.0848799,10.263464,3.5164022000000004,0.48279297,-0.20662953,-1.2468982
-0.6549099,9.912992,3.659882,0.4322308,-0.36791540000000006,-1.3491046
-0.6381601,9.821456,3.5994525,0.39282125,-0.72670275,-1.5535176000000002
-0.47047022,9.293918,3.0399562999999996,0.26932177,-1.0610031,-1.7063037
-0.19222566,8.024589,2.514697,0.09258971,-1.3335537,-1.8681306
0.13912226,6.9911164999999995,2.1786852000000003,-0.07506661,-1.4192668,-1.9032466000000001
0.75063974,6.711206,1.8727541,-0.18472564,-1.3979738000000002,-1.8595959
1.2730832,6.9501667000000005,1.7556202,-0.26722735,-1.4794108999999998,-1.7903936000000003
1.7911693,7.755087400000001,1.6784312,-0.3029019,-1.5448781,-1.6487951
2.3754885,8.482560000000001,1.7662697,-0.30983084,-1.5230615,-1.4896386000000001
2.7223222000000002,8.542521,2.0847653999999998,-0.27415633,-1.4698291,-1.3182296999999998
2.643036,8.602051,2.3707194,-0.19643681,-1.427243,-1.1212693
2.9197097000000003,8.709043,2.718683,-0.120322995,-1.2835151000000002,-0.9125978000000001
3.1948707,8.453447,3.187487,-0.08199557,-1.0860311000000002,-0.7545058000000001
3.2662656,9.046788000000001,3.6500561,-0.0021467548999999997,-0.7442781999999999,-0.5825560000000001
2.953219,10.435022,3.6607727999999997,0.1309346,-0.14699163,-0.35950290000000007
2.3991337,10.881657,3.5490690000000003,0.24856979,0.4800528,-0.1577603
1.2906471000000002,11.351934,3.8751782999999995,0.37152824,0.778155,0.055152405
0.18176779,13.001674000000001,3.3683927000000002,0.47427577,0.9096481,0.39638174
0.3008937,13.0072565,2.7377599999999997,0.43860123,0.81915283,0.5890661
0.63529664,12.166088,2.5991452,0.40294418,0.9085834999999999,0.7312057
-0.0806846,11.837095,2.5208838,0.41465533,1.4643313,1.0852108
-0.23765804,12.606946,2.6158185,0.43807763,2.1850998,1.632965
0.8920604,12.628936,2.9795456000000002,0.40294418,2.7163606,1.9465133000000001
1.5577443000000002,10.804917,2.9951272,0.28742080000000003,3.0634367,1.9119035
1.0058999,9.1744375,2.8177934,0.15700983,3.392955,1.8751818
-0.0014365210999999999,8.597732,2.132908,0.011676253000000001,3.5994797,2.042332
-0.56620955,8.560880000000001,1.4212173000000001,-0.19537215,3.6665702000000007,2.361186
-0.30574915,8.62584,0.99447477,-0.44184756,3.5004847000000003,2.5943446
0.023223756,8.987910000000001,0.79193485,-0.61751497,3.0692837,2.6433187
-0.00034476502,9.275099,0.43328348,-0.7756069,2.5369756000000003,2.5821099999999997
-0.034620155,9.161116999999999,0.5457343000000001,-0.9023003,2.0014389,2.4522049999999997
-0.19227354,8.891777000000001,0.6965594,-0.9736319,1.480842,2.3766322
-0.05104438,8.832479,0.8807405999999999,-0.9832138000000001,0.92881185,2.3015656000000004
0.84221315,8.67831,1.0698155,-0.98054343,0.4832642,2.0833123
1.3997078,8.772986999999999,1.5760455,-0.9475566999999999,0.12500048,1.7085550999999999
1.6645448,8.444636000000001,2.2556062000000003,-0.81393427,-0.14805628,1.3657551
1.9322932000000002,7.961841000000001,2.3224905,-0.6952345,-0.26412067,1.1410962
2.229404,7.901364,2.5812174999999997,-0.60686845,-0.2747672,0.93561864
2.5208645,8.812989,3.2333982000000003,-0.4806986,-0.23535764,0.71205944
3.1874583,9.843291,3.8384032,-0.30928978,-0.21193533,0.30108675
3.3474769999999996,9.809189,4.0994577,-0.18791960000000002,-0.35726890000000006,-0.22589797
3.1476377999999996,9.964553,4.5812855,-0.028745572999999996,-0.76874775,-0.7044498
3.7263355000000002,10.242759,4.084929499999999,0.07609635599999999,-1.1669446,-1.2319930000000001
2.8789892000000004,9.212716,4.317723,0.09313077,-1.36017,-1.6849933000000001
1.8219778999999998,9.181716,5.0330334,0.23260003,-1.293097,-1.7733592
1.125361,9.681099,5.092821,0.3997502,-0.9832835999999999,-1.7185384
0.41655278,9.880449,4.954244999999999,0.55305994,-0.5638112,-1.5551058
0.26384103,10.30539,4.4034443,0.6701715,-0.21779963,-1.3932788
0.44169189999999997,10.023660000000001,3.8020593999999996,0.6861413000000001,-0.091106184,-1.4592873
0.43419325,9.261175,3.5454296999999997,0.6967878000000001,-0.22205824,-1.6951162
0.29903579999999996,8.919704,2.9231286,0.6723008,-0.5419946,-1.9346626
0.45973462,8.397575999999999,2.3285432,0.5796762,-0.8672367,-2.1364052000000004
0.41882247,7.486975,1.9672678,0.47162285,-1.0769728,-2.2401998
0.660589,7.035132000000001,1.7917343000000001,0.38165113,-1.2095132,-2.2476700000000003
1.114003,6.9720783,1.636772,0.31831315,-1.2616811,-2.203478
1.4638628,7.4430559999999995,1.6797144,0.27944466,-1.3218426,-2.1390755
1.700793,8.188419,1.8794099999999998,0.27625072,-1.4948395,-2.0522978
2.1110057999999996,9.129838000000001,1.9744598999999998,0.2634749,-1.5906582,-1.9277336999999999
2.5120347,10.098149000000001,2.2877555,0.22408283,-1.6683776000000001,-1.8574667
2.3532226,9.812022,2.9058618999999997,0.2070484,-1.6556019,-1.7398314
2.0473296999999997,8.76184,3.4569687999999994,0.21450096,-1.5321023,-1.5652113
1.8793813000000001,8.224283999999999,3.2445936,0.17723818,-1.3069375,-1.3384581
1.636954,9.031838,2.8702742999999997,0.097930424,-0.9130166,-1.026498
1.4711891000000001,10.706180999999999,2.8051329,0.049480084,-0.37484437,-0.64004713
1.2034215,11.663698,3.0577210999999997,0.072902404,0.04195771400000001,-0.33662164
0.34816483,12.809688000000001,2.9415066000000003,0.144234,0.20430824,-0.049689524000000006
-0.46291409999999994,12.997595,2.6203005,0.15594517,0.2607522,0.23774876
-0.73054755,12.106367,2.8781272999999996,0.19160224,0.106901415,0.4778188
-0.99167836,11.354032499999999,2.6753099999999996,0.21930061,0.2777866,0.7562337
-1.5025244,10.369996,2.4888206000000004,0.21078339999999998,0.75846773,1.1411138
-1.2245096000000002,10.266959,2.5030324,0.17458528,1.1774166000000001,1.5504632
0.032580293999999996,10.675141,2.515377,0.12348204,1.4164219,1.7591348000000002
1.0313550999999999,10.454339,2.6516645,0.08513716,1.5862424,1.7186781000000002
0.8522879000000001,9.741833999999999,2.7032356,0.07822566,1.9258661,1.710702
0.28564742,9.488499000000001,2.3672144,0.07183775,2.3048818,1.8751818
-0.08838435,9.510964999999999,1.8637233,0.002635447,2.4730966,2.1562495
-0.08526231,9.281573,1.5714486,-0.10487683,2.4086766,2.350016
0.36493382,8.983044999999999,1.2590053999999997,-0.21240658,2.1861646,2.39899
0.54941183,8.72517,1.0647016000000002,-0.31248376,1.8896680000000001,2.3329816
0.5917413,8.477839,0.9692494,-0.39446187,1.5665377,2.2329044
0.6717268,8.299452,0.8516367,-0.4434358,1.2535303999999998,2.1227042999999997
0.76798326,8.265272,0.6877488,-0.47537532,0.9740681999999999,2.0221035
1.0662530000000001,8.496102,0.60056156,-0.47963393,0.7371747,1.8629296000000002
1.8255404999999998,8.322963,1.0959506,-0.44769440000000005,0.4752706,1.4919075000000002
1.6414359,7.888837,1.626841,-0.39446187,0.19154988,1.1288615
1.8623633000000002,7.307237599999999,2.0058813,-0.32100096,-0.09588839,0.8084015999999999
2.3639486,7.210578999999999,1.911703,-0.30236083,-0.2987131,0.49858820000000004
2.5792544,7.940494500000001,2.0958266,-0.29703757,-0.36737436,0.26755896
2.8686366000000003,9.715603999999999,2.6079082000000002,-0.20441297,-0.38121483,0.092415184
3.582329,11.646469999999999,2.8615212000000003,-0.06174975,-0.4397706,-0.21629865
3.3503597000000003,12.068203,3.0041293999999996,0.019128809,-0.54251814,-0.67092204
2.5859099999999997,11.960818,3.191059,0.11548844,-0.79803437,-0.9716771000000001
2.3431094,10.970692,2.950059,0.13465215,-1.1014598999999998,-1.2852255
2.0337307,10.372784,3.1895075,0.18842575,-1.4410834,-1.5418065
2.0840185,11.06397,3.1025023,0.27040386,-1.5906582,-1.6471894
1.7981125,10.673236,3.0286939999999998,0.26827455,-1.3740104,-1.6977689999999999
1.0534966000000001,10.4424925,3.4415307,0.31831315,-1.0157466999999998,-1.5763988000000002
0.25708938,10.96622,3.1071183999999996,0.373675,-0.6766641999999999,-1.319818
0.2757833,10.679835,2.8735877999999997,0.35822883,-0.45415214,-1.1803488000000002
0.47840938,10.237013000000001,3.035982,0.33215362,-0.45893434,-1.2862902
0.16093823,10.047277000000001,2.6181647999999997,0.26401594,-0.57817525,-1.4353238000000001
0.100891665,9.2179165,2.04031,0.08674286,-0.7581011999999999,-1.6258963
0.23386562,8.043435,1.7149284,-0.09581858,-0.9870011000000001,-1.8590548999999998
0.21197304,7.3448844,1.3887998,-0.23689353,-1.1270114,-2.008106
0.63129354,7.202611,1.211284,-0.34122932,-1.155216,-2.0581446
1.0414298,7.455122500000001,1.49312,-0.40084976,-1.3468531000000001,-2.0874311999999997
1.6075436,7.991376,1.4697046999999999,-0.3981794,-1.4000857,-2.0672028
1.6058198000000001,8.353667,1.532653,-0.36039305,-1.3894391000000001,-1.9601967
1.400177,8.263433000000001,1.7076883000000003,-0.29544935,-1.2936206000000001,-1.7036159
1.3400825,8.438737,1.8908255,-0.22624703,-1.1578864,-1.3411110000000002
1.200175,8.470791,2.2836852000000003,-0.15704472,-1.1674681999999998,-0.99989915
1.3029053999999998,8.240786,2.4002159,-0.14533357,-1.1946081,-0.7491651
1.3781503000000002,8.627735000000001,2.7286432,-0.16502088,-1.1445695,-0.5548576
1.1486421999999998,9.756774,3.3073599999999996,-0.11711159,-0.90182906,-0.29988247
0.51849794,11.0205965,3.7815074999999996,0.028187068,-0.56965804,0.04717625
-0.040011898,12.684146,3.8000580000000004,0.2065248,-0.30243066,0.42299798
-0.11003751,13.649104000000001,3.1149232000000002,0.29169688,-0.17467254,0.65350366
0.023578098,12.128949,3.1651347000000003,0.29914942,-0.24973916,0.69022536
0.21152294,11.133986,3.0830517000000004,0.32522464,-0.09588839,0.7988196999999999
0.19047311,10.3087435,2.8475007999999997,0.3385415,0.45080109999999995,1.012291
0.13708241,10.648921000000001,2.8004117,0.36887532,1.10235,1.3306216
0.62657213,11.699717,2.64928,0.39603266,1.6458629,1.6095601000000002
1.2796241000000002,11.480925,2.5957265,0.39231512,2.0722644,1.6957968
1.2544467,10.392339,2.7454023,0.38964474,2.4342456,1.7064433
0.6803842,9.805625,2.3806599999999998,0.3646342,2.8058088,1.8310075000000001
0.24169944,9.519442,1.7104656000000003,0.27625072,3.089006,2.0402026
0.14597927,8.751612,1.2636405000000002,0.12135274,3.1188161,2.1663725
0.020159177,7.8728724,1.1119535,-0.040997785,2.7781103,2.1227217
-0.2535268,7.258195,0.9112427,-0.17833774,2.2335502999999997,1.9933580000000002
-0.25503036,7.025171799999999,0.9006125,-0.29544935,1.6352165,1.8491066000000003
-0.022036232000000003,7.111975999999999,0.8277617,-0.39285615,1.1529295,1.7069843999999996
0.08398859,7.556024000000001,0.79327565,-0.46792278,0.72228706,1.5951959999999998
0.3392967,8.237912,0.8906238999999999,-0.48335147,0.33953634,1.457315
0.92408526,8.530531,0.94323885,-0.48654544,0.0094945915,1.2715421999999998
1.6711432000000002,8.293534,1.6415893,-0.46472883,-0.32532936,0.9079377000000001
2.1340287,8.127941,2.1290294999999997,-0.44128904,-0.5329188,0.5241573
2.3381581000000002,8.231705999999999,2.532673,-0.40297908,-0.6021386,0.24361305
2.526055,9.014725,2.6301744,-0.34920546,-0.61810833,0.057822755999999996
2.9283004,10.785658,2.645229,-0.27841493,-0.75703657,-0.12686798
3.500093,12.6040745,2.7359883999999997,-0.20388936,-0.9465444,-0.44839254
3.9267302,13.653625,3.281627,-0.09475392,-1.1110417,-0.8327315000000001
4.313231,13.545398,3.7343129999999998,0.02766347,-1.2552931,-1.2809495000000002
4.197342,12.294273,4.2784,0.15222761,-1.3394005,-1.7733592
2.4686613,10.220875999999999,4.353923,0.2070484,-1.1514984,-1.9298629
0.7651677,8.264171000000001,3.9638977,0.16606808,-0.77726495,-1.7100037000000001
-0.051484913,8.572439,3.224597,0.10431833,-0.37428585,-1.2027063
0.6412916999999999,10.796499,2.4734112999999995,0.098995075,0.05794493,-0.77524036
1.2407423,10.911325,2.4148395000000002,0.14051646,0.4433311,-0.7401069
0.6085199,9.84104,2.6951623,0.2501755,0.5939879,-0.9040630999999999
-0.7962253,9.484084,2.2792513,0.27679175,0.4098032999999999,-1.0557846000000002
-1.7415903000000001,8.802149,2.0609097,0.14849262,-0.10972885,-1.20323
-1.6572951,7.6417649999999995,1.9791332,-0.011170107,-0.68783426,-1.373033
-1.1782153999999998,6.6759443,1.682032,-0.17460273,-1.0338458000000001,-1.5247545
-0.65038013,6.2404485,1.5622549,-0.31726596,-1.1536102,-1.601933
-0.32448137,6.246635400000001,1.7649863000000001,-0.41947243,-1.3117197,-1.5955626
0.19115306,6.755192299999999,1.7843218999999997,-0.44183009999999995,-1.3606936,-1.5167783000000001
0.78009796,7.35832,1.7187591,-0.43544218,-1.3543056,-1.428936
1.2798061,8.346455,1.904779,-0.3870093,-1.5049624,-1.3075658000000001
1.8048929,9.03112,2.0581899,-0.33110642,-1.5869231000000001,-1.1611850000000001
2.3010384999999998,8.890878,2.5198205000000002,-0.2427404,-1.7226748,-1.00894
2.6900485,8.330759,2.7624009999999997,-0.14798647,-1.7593966,-0.86786497
3.0205631,8.350017999999999,3.0089655,-0.06174975,-1.5022921999999999,-0.63683575
3.1627883999999997,9.675152,3.0867292999999996,0.08141961,-0.96411985,-0.30733502
2.7834413,11.1468,3.2506366,0.2629513,-0.27420866,0.058904864
1.910707,13.620767,3.5001025,0.51101494,0.35870007,0.46080184
0.6631364000000001,14.517041,2.9521945,0.67018896,1.0193246999999999,0.7860614
-0.59444195,13.674685,2.7900207000000004,0.66804224,1.3813058999999999,0.8813389000000001
-1.8011101000000003,12.462433,2.8397912999999995,0.56531215,1.5521736000000002,0.97343993
-2.2051267999999995,11.412183,3.6196404,0.507821,1.5372685,1.1331201000000002
-1.0909228000000002,11.963203,3.6920888,0.5126032,1.356278,1.2140336
0.38128140000000005,12.200555,3.1719246,0.48066369999999997,1.353084,1.1160856000000001
0.9648440999999999,10.745905,3.0099235,0.41680208,1.6586386999999998,0.9760928
0.7736432,9.445891,2.7242281000000004,0.35185838,2.1286907000000004,0.9659873999999999
0.5410321,8.806735,2.1187632,0.23792328,2.606719,1.0772346000000002
0.23586717,8.119322,1.6982456000000001,0.09473647,2.8606296,1.2001932
-0.031268273,7.428470599999999,1.422922,-0.033527777,2.7493822999999997,1.2710011
-0.15084429,6.922528,1.0907408,-0.16980308,2.3245866000000004,1.2922941000000001
-0.14696568,6.792819500000001,0.6521518,-0.31353095,1.7778796000000001,1.3071992000000001
-0.08302134,6.6801577000000005,0.44540772,-0.4423537,1.3243383999999998,1.3402034
-0.08466855,6.7690306,0.34299335,-0.52487284,0.94958127,1.417923
0.3041115,7.375645,0.6529371,-0.53339005,0.6940651,1.4828666000000001
0.90971047,8.475752,1.0043676,-0.49080405,0.49871036,1.4030178999999998
1.1496094,9.609081,1.3082302,-0.42214277,0.32196090000000005,1.1592128000000002
1.0199108000000001,9.923152,1.5136048,-0.38805652,0.18729128,0.82332414
0.30980012,9.603537,1.7783267,-0.38220966,0.060597833,0.54171526
-0.047261544,9.410716,2.1248827,-0.38220966,-0.15657349,0.34101987
-0.08357679,10.626434,2.2139087,-0.33962363,-0.4935442,0.21486749
0.9740474,11.751928999999999,2.2959435,-0.28852037,-1.0045591999999999,-0.06990044
1.6722733,12.066001,2.9563122,-0.21985912,-1.5129386,-0.45903903
2.6263819,13.104127,2.970371,-0.080372415,-1.9856436000000002,-0.8210203000000001
2.6793606,11.116997,3.2714276,-0.081454515,-2.0953026,-1.2681737
1.3807458000000001,9.559234,4.133369,0.01436406,-1.9989431,-1.422007
0.6504184000000001,10.059161999999999,4.1270866,0.11761774,-1.6587957999999998,-1.2074885
0.80081254,11.102642,3.8772469,0.15062192,-1.1158238999999999,-0.8763822
1.0833283999999999,11.968653,3.6114330000000003,0.19268435,-0.49885002,-0.6283011
0.809087,11.472172,3.2813396,0.17990854,0.12182398,-0.48937288
0.28083986,10.636969,3.3271262999999998,0.14903367,0.3571118,-0.5484697
-0.56041557,10.092450999999999,3.2279296000000004,0.10644763,0.15748106,-0.76298815
-0.8977586,9.456512,2.5451702999999997,-0.0037175512,-0.37428585,-1.0467263
-0.6049094,8.228546000000001,1.9762602999999999,-0.20174260000000002,-0.9177988000000001,-1.3331174
-0.02504335,6.81363,1.6821661,-0.363587,-1.1285998,-1.514649
0.47854346,5.7940062999999995,1.6179727,-0.48973940000000005,-1.1743796999999998,-1.626961
0.7146022,5.6493964000000005,1.6775501,-0.54190725,-1.1871555,-1.6391958
1.1369298,6.3479195,1.5268495,-0.5546831,-1.1493517,-1.5715991000000002
1.5616324,7.605115,1.6073809,-0.5259375,-1.1541513,-1.4848214
1.7586561,8.850923,1.7242273999999997,-0.45725882,-1.1280587,-1.3597337
1.7634158,9.329275,2.159656,-0.363587,-1.1530867,-1.1989714
1.6051208000000001,8.87433,2.730156,-0.26190412,-1.2441056000000001,-1.016916
1.6557628,8.2657995,3.1038240000000004,-0.19641936,-1.2973381000000002,-0.8380546999999998
1.8332210999999998,8.200629,3.380584,-0.15702727,-1.2739158000000002,-0.663452
2.0108040000000003,9.198216,3.4274050000000003,-0.09155997,-1.0732378999999999,-0.44893359999999993
1.9085428,10.385463,3.4633565,0.01436406,-0.7149741,-0.20139354
1.6374233,11.797419,3.9196910000000003,0.2065248,-0.33437017,0.07168067
1.1179868,13.5965185,3.7251383999999996,0.41413173,0.057403877,0.3426256
0.61361474,12.130519999999999,3.558387,0.44127159999999993,0.2564936,0.39905208
0.37373490000000004,10.538233,3.5567496,0.42051962,0.32410765,0.39159954
-0.2953966,9.797265,3.4374607000000004,0.39444440000000003,0.64243823,0.5544911
-0.9184828000000002,10.262754,3.2509810000000003,0.42477822,1.1609232,0.94947654
-0.22939324,11.178929,3.0613412999999996,0.419455,1.6027533,1.2901648000000001
0.7715458000000001,10.810864,3.1996017000000005,0.36037558,1.8071662,1.2880354999999999
0.59014195,9.709494,3.4061922999999994,0.3252421,1.9599349999999998,1.2230918
-0.12504436,9.269602,3.2538543,0.3108606,2.19257,1.365214
-0.45766599999999996,9.465715,2.8020873,0.27200955,2.450739,1.6840856
-0.15936765,9.52922,2.5370972000000003,0.17990854,2.581691,1.9417311000000002
0.14173675,9.398391,2.4380062000000002,0.096342176,2.5258055,2.033291
0.3333399,9.150639,2.21592,-0.009581857,2.3565261000000004,1.9960457999999999
0.29433358,8.574967,1.9197092,-0.12882276,2.0802405,1.8688112000000001
0.26770046,7.870717999999999,1.598752,-0.23368213,1.7012247999999999,1.7032493000000002
0.13138422,7.3526797,1.3773363,-0.33110642,1.2934635,1.5712327
0.5964914000000001,7.183064999999999,1.4107785,-0.41469023,0.8106531,1.4195111999999999
1.3803722,7.296914,1.7116531000000004,-0.43650684,0.3379481,1.1325965
2.1427531,7.4842076,1.9408835,-0.42638394,0.0094945915,0.765292
2.4115357000000004,7.429476299999999,2.2806877999999995,-0.402438,-0.14857988,0.4203451
2.313632,7.776242699999999,2.7241707,-0.34547046,-0.18851301,0.17601645
2.236012,8.784028999999999,2.9325810000000003,-0.27522096,-0.19596557,0.05729916
2.4854782,10.569614999999999,2.883203,-0.1948311,-0.25078636,-0.075764745
2.6173029999999997,12.085758,2.71129,-0.16182692,-0.30721286,-0.31956979999999996
1.9213182,12.357097999999999,3.3499959,-0.07239625599999999,-0.45893434,-0.52450633
2.418527,12.766276,3.3751829,0.0675966,-0.7942819000000001,-0.78853977
2.2183332,11.217706,3.875638,0.1282817,-1.056727,-1.1712904
1.2716083999999999,10.535962,4.6040114999999995,0.26775095,-1.1546749,-1.3118068999999999
0.46774079999999996,10.4672575,4.5321856,0.36887532,-0.90128803,-1.1462799
-0.1204092,10.477677,4.0363083,0.37526324,-0.35992178,-0.82740825
-0.5297028,10.473263000000001,3.3165345,0.3193778,0.23094197,-0.54154074
-0.7357861,9.793175999999999,2.8932683,0.25336945,0.58653533,-0.47713809999999995
-1.2547723,9.312488,2.559804,0.22303562,0.53649676,-0.617672
-1.8597776000000001,8.810203,1.9587156000000003,0.14158110000000002,0.030787607999999998,-0.89606947
-1.5827014,8.115434,1.6037226,-0.0042586033,-0.74478436,-1.2357105
-0.441826,7.4320330000000006,1.4488273,-0.15702727,-1.3516353,-1.5556294
0.70040935,7.122223399999999,1.4311388,-0.26988026,-1.6183391000000003,-1.827639
0.9470983000000001,7.4478919999999995,1.6677721999999997,-0.27042133,-1.669966,-1.9314512
0.8867453000000002,8.323519000000001,1.7765552,-0.17673203,-1.5895934999999999,-1.8627725
0.974057,8.932862,1.9129096,-0.10379473,-1.419773,-1.7035984
0.9621626,8.868573,2.5103874,-0.043109633,-1.2723275,-1.5077201
0.70599264,8.447691,2.884716,0.009564404,-1.2638104,-1.3107597
0.40918824,8.044557000000001,2.9521272,-0.008517206999999999,-1.4282901000000001,-1.1058058000000002
0.52686805,7.966945599999999,2.8327044999999997,-0.08836602,-1.5485958,-0.9061924000000001
1.0716159,8.170002,3.0088603,-0.1969604,-1.5656302,-0.7603352
1.2482313999999999,8.577438,3.3583276,-0.25019294,-1.466094,-0.659717
1.0933073999999998,9.963366,3.6726767999999996,-0.17938495,-1.3037261,-0.47394416
1.0654676,11.908385,3.5899904,-0.06707300000000001,-1.1264703999999999,-0.25514970000000003
1.1694719,12.607378,3.9340851000000003,0.10273008,-0.98274255,-0.089605205
1.038959,12.88883,3.6137410000000005,0.25762805,-0.8730834999999999,0.048781954
1.2151243999999999,12.339246000000001,3.3340886,0.29010862,-0.7980169,0.099885195
1.305223,12.123299000000001,2.974269,0.28797933,-0.5132315,0.15950564
0.48758397,11.501716,2.8332696,0.26988026,0.23200661,0.3783001
0.029324182999999997,10.568581,3.3388674,0.28743827,1.0752101,0.75464547
0.91329217,10.015433999999999,3.6242852,0.29063222,1.579331,0.913802
1.3928125,9.272283999999999,3.514104,0.2555162,1.7534101000000002,0.7977725
0.7202908,8.385002,3.2498033,0.20546016,1.9445061999999997,0.77274454
-0.065859705,8.060894000000001,2.8294291,0.14851007,2.231421,0.9851511000000001
-0.30478188,8.397797,2.403051,0.06279694,2.521547,1.2885766
-0.23487118,8.622842,2.2006927000000003,-0.029269172000000003,2.6668632000000003,1.4716965
-0.22116677,8.512172,2.073168,-0.120305546,2.5971372,1.4913838
-0.38621348,8.409567,1.8527386000000001,-0.22410028,2.335233,1.3961063999999999
-0.54285175,8.28072,1.5719275,-0.33642966,1.9413122999999999,1.2167039
-0.7433805,8.193092,1.3933678999999999,-0.4375715,1.5505854,1.0362543
-0.96980494,8.156221,1.3334553999999998,-0.49293333,1.0917208999999999,0.91807806
-0.6804513000000001,8.275511,1.3955993999999998,-0.4923923,0.6435029000000001,0.8462054
0.0014173675,8.54007,1.4842901000000002,-0.46418777,0.20858429999999997,0.716318
0.4751437,8.894219,1.6985712,-0.39605013,-0.090024084,0.5677905
0.7835264000000001,9.180461,1.9150741000000002,-0.34601152,-0.30508354,0.41716859999999995
0.7735569999999999,9.282387,2.3645904,-0.28585002,-0.37002724,0.29260445
0.5105587,9.734306,2.6809695,-0.1953547,-0.30668926,0.24467771
0.44583866,10.643098,2.9922543,-0.10592403,-0.18744837,0.19092156
0.34614409999999995,11.282216,3.2394795,-0.014905112,-0.20926498,-0.012409291000000001
0.020140024,11.639047999999999,3.5704059999999997,0.07237881,-0.42645374,-0.26473153
0.0133979535,11.614914,3.5190647000000004,0.11709414,-0.703263,-0.5308943
-0.31510568,9.74307,4.065,0.1351932,-0.855508,-0.7757814000000001
-0.85147387,9.103242999999999,4.785032299999999,0.27146852,-0.9018116,-0.8896815999999999
-0.89690626,11.07076,5.0531735,0.46471137,-0.6894225,-0.8263436
-0.6908517,12.753127000000001,4.5575447,0.5376312,-0.14378022,-0.71986103
-1.4351995000000002,11.004096,4.5201955,0.50462705,0.32037264,-0.72733104
-2.5922883,9.447951,4.056907700000001,0.45087089999999996,0.47528806,-0.75288266
-3.0696921,8.956785,3.2033365000000003,0.35505232,0.22935371,-0.79279834
-2.7978833,8.682744999999999,2.3748278999999997,0.23366468,-0.27687904,-0.8806408000000001
-2.0225353,7.958346000000001,1.7863522,0.09740683,-0.7543662,-1.0046638
-1.1273147,7.244250999999999,1.5347407,0.0074351025,-1.0865372,-1.1420213
-0.40610450000000003,6.956966,1.3433005,-0.044715334,-1.2936206000000001,-1.242081
0.22815785,7.0936556,1.3928028000000001,-0.0697259,-1.4320252,-1.2782791999999998
0.7762385,7.5828485,1.6177716,-0.042586032,-1.5438136,-1.2734969999999999
1.2220676000000001,8.133697,1.8308461,0.0026529005,-1.5651065,-1.1904541000000002
1.6305087999999999,8.558045,2.0593965,0.04363323,-1.5193092,-1.0839716
1.7676487,8.666234,2.5444906,0.081437066,-1.4261609,-0.9578191999999999
1.7818798999999999,8.6609,3.1034026000000003,0.13412856,-1.2920148,-0.77311105
2.006255,8.706256,3.243703,0.14051646,-1.1360523,-0.6070255
1.9818339,8.7426195,3.2515172999999997,0.08941322,-0.8922472,-0.47394416
1.6359293,9.431277,3.3309953,0.075049154,-0.61116195,-0.2556733
1.2895553,10.6734085,3.3271550000000003,0.11709414,-0.33543482,0.00034906584
0.7887937,11.341027,3.5624860000000003,0.18629645,-0.16615534,0.18559831
0.21350533,12.760999,3.4074087,0.30181979999999997,-0.06447246,0.39692277
0.09653421,12.740485000000001,2.75496,0.23581143,-0.001134464,0.45176099999999997
0.25750118,11.643232000000001,3.1160629,0.16873842,-0.057560957999999995,0.33571407
-0.053400274000000005,11.043092999999999,2.9336634,0.13199925,0.043039817,0.30908036
-0.7903834,11.0077915,2.7534852,0.14318681,0.5072276,0.54490924
-1.0303110999999998,11.344091,2.7430081000000004,0.18097319,1.1630526,0.9574527
0.08837477,11.084033,2.857997,0.16287413,1.5452621000000002,1.0969394
0.6459556,10.147173,2.9151993,0.11709414,1.7965198,0.9649226999999999
-0.1114836,9.245296000000002,2.7551037999999997,0.07663741,2.0488419999999996,0.91114914
-1.1382417999999999,9.031963000000001,2.4024568,0.035657077999999995,2.2931707,1.1299436
-1.5366944,9.155685,2.0149505000000003,-0.03832743,2.3735604,1.3779898000000002
-1.2442763000000001,8.848721000000001,2.1046758,-0.1256288,2.2601664,1.3982181999999999
-1.0672393999999998,8.384044,2.2734957000000002,-0.17886133,1.9120256999999998,1.2001932
-0.9972711999999999,8.0073595,2.0089076,-0.23900539,1.4494436000000002,0.9760928
-0.7478623999999999,7.7170385999999995,1.5185081,-0.31726596,1.0368826,0.8424879000000001
-0.58951944,7.783980400000001,1.1040621000000002,-0.41521382,0.6615845,0.79456115
-0.20601627,8.178775,1.2030576000000002,-0.47376963,0.37414622,0.7738092
0.36716518,8.545135499999999,1.4856308999999999,-0.44450045,0.19526744,0.72855276
0.93364286,8.639726,1.7028712,-0.37262779999999995,0.117024325,0.6215641
1.299477,8.759359,1.8128511999999999,-0.317807,0.11063642,0.45867252
1.130724,8.984807,1.7869747999999999,-0.30236083,0.18196803,0.31388003
0.3956466,9.207419999999999,1.8011867,-0.33217105,0.27459264,0.25691247
-0.106599435,10.05873,2.154906,-0.34016466,0.2777866,0.24680701
-0.12097422,11.051866,2.5264766,-0.27096236,0.11861257,0.1648289
0.48911625,11.634727999999999,2.938873,-0.17620844,-0.17999579999999998,-0.10876892
0.5416163,12.109001,3.4349038999999997,-0.05749114599999999,-0.4749041,-0.43137556
0.05788222,11.515229,3.4178762000000003,0.020734511,-0.66388834,-0.6645340999999999
-0.5546791,9.745416,3.7487833,0.058538344000000006,-0.78525853,-0.8327315000000001
-1.1548862,9.058625,4.43998,0.15859807,-0.8438143,-0.8572359
-0.89151454,10.312142,4.8644724,0.31298990000000004,-0.7368081999999999,-0.79548615
-0.5368088000000001,11.059823,4.623108,0.37739253,-0.38282052,-0.7709991999999999
-1.2762532,10.340088,4.455073400000001,0.37152824,0.18142697,-0.7438419
-2.7573447,9.520485,3.8178417999999996,0.3113842,0.51094514,-0.66240484
-3.813111,9.093618,3.3741962999999995,0.26506317,0.375717,-0.6948679
-3.6434004,8.464364999999999,2.7246304,0.22195353,-0.15657349,-0.83114326
-2.584244,7.794764,1.9247273999999999,0.11548844,-0.8619134,-1.0312976
-1.3784378000000002,7.2528415,1.4486356000000002,0.0063529983,-1.4032797,-1.2128294
-0.2815581,7.155991,1.3571198,-0.05057964,-1.7178925999999999,-1.3219646999999999
0.59953684,7.4595666,1.3618411,-0.056426495,-1.7695196,-1.3576218
1.2381471000000002,7.838482400000001,1.6397313000000002,-0.03567453,-1.6401732,-1.344846
1.6825109,8.309623,1.9840461999999999,0.011152654,-1.380922,-1.2916135
1.7159052,8.530177,2.3052714,0.05160938599999999,-1.0828372,-1.2138938999999997
1.3182187,8.270857000000001,2.6192088,0.078749254,-0.87523025,-1.0669721
0.96217215,8.177731,2.8447522999999997,0.10536553,-0.7277674,-0.8402014999999999
0.84212697,8.396562,2.9293633,0.12452924,-0.619173,-0.6246184
0.6969521,8.571711,2.8612244,0.11442378,-0.51111966,-0.44682175
0.4247601,9.311721,2.9767876,0.12718214,-0.44350561,-0.26741934
0.3237152,11.111883,3.0116183999999997,0.18894935,-0.40252528,-0.064594634
0.22611798,12.301350999999999,3.5809789,0.30551988,-0.41050145,0.083356924
-0.10134177,13.30545,3.7432672999999994,0.47160542,-0.42755329999999997,0.25795966
0.16966270000000003,12.780249000000001,2.9725832999999997,0.4423188,-0.39346704,0.2893756
0.58128345,11.506017,2.9859622000000003,0.33426547,-0.36473890000000003,0.17863445
0.64647275,10.659446,2.9085335999999997,0.23792328,-0.079395026,0.19568631
0.10286448,10.557606,2.7867646,0.18469074,0.6126106,0.46130797
-0.59686494,11.671465,2.5836022,0.17722073,1.6000655000000001,1.0048035
-0.35165074,12.012131,2.738191,0.17828538,2.3868424999999998,1.442375
-0.09890927,10.904516000000001,2.890443,0.15433946,2.6892033,1.5589629999999999
-0.534405,9.275644,2.7795916000000003,0.08194321,2.7653172,1.6079370000000002
-1.184268,8.269965,2.6972215,0.03562217,2.7525587000000002,1.7841453999999999
-1.53453,8.088657000000001,2.4932258,0.0047472958,2.7062378,2.0934176
-1.3548499,8.351119,2.1931846,-0.06070255,2.5614452,2.3521278
-1.0366988000000001,8.649169,1.9822075000000001,-0.15386823,2.2260802,2.4756273999999996
-0.61938953,8.707289999999999,1.6814001,-0.25340435,1.8491938,2.469763
-0.2571181,8.469565,1.4356782,-0.36041048,1.4531437,2.369686
0.13199714,8.269123,1.3533561,-0.45409977,1.0927681,2.2387512000000003
0.6283535,8.278824,1.1993322,-0.53607786,0.7291810999999999,2.0391204
1.1139838,8.364815,1.2850542,-0.57812285,0.47472957,1.8432248
1.9875993000000003,8.36443,1.5960896999999998,-0.57121134,0.27935740000000003,1.5291353
2.733891,8.237279,1.9393417000000002,-0.5515066,0.09730211,1.0340902
2.3417208,8.012062,2.077717,-0.5302136,-0.0022165682,0.53796285
2.0466976000000003,8.105877,2.3364344,-0.5334075,-0.16564920000000002,0.23560199
1.9483343000000002,8.983523,2.7418206,-0.5419246999999999,-0.3311937,-0.04544837400000001
1.9554787,10.497962,3.1060555,-0.44664719999999997,-0.53773594,-0.25305527
2.4801439999999997,11.922692999999999,3.2267517999999997,-0.34602898,-0.73895496,-0.63261205
2.0731776,12.111721000000001,3.8263172999999995,-0.21509437,-0.89919364,-1.0233389000000002
2.2006063,12.561706,3.8371584000000003,-0.035168383,-1.1946430000000001,-1.3991606
2.2925055,11.645944,3.7946470000000003,0.034016468,-1.4448185,-1.8314089
1.7386693,10.487722999999999,4.029566,0.079796456,-1.5789819,-2.1140822999999997
0.92797345,9.738224,4.2127223,0.10215412,-1.4815576000000001,-2.1705089
0.19535728,9.443306,4.2652225,0.12718214,-1.1733325000000001,-1.9639666
0.09882306,10.288048,3.9381552,0.16603318,-0.7331081,-1.6637351999999999
0.052289363,10.8337345,3.455628,0.16338027,-0.28117254,-1.4220594
-0.35135388,10.167734,3.6265836000000005,0.17880899,-0.020333085,-1.3134649999999999
-1.0511598999999998,9.326066,3.3568816,0.1953198,0.03981096,-1.2932366000000002
-1.7225802,8.608161,2.8294291,0.14528121,-0.08314749,-1.334758
-2.0345254,7.7561793,2.4199919999999997,0.057962384000000006,-0.35463345,-1.426859
-1.8080148999999999,6.9203825,2.2629707000000003,-0.062308256,-0.7123387,-1.552994
-1.2608633,6.668253999999999,2.1632762000000003,-0.17889625,-1.1509923,-1.7025862
-0.82588464,6.963641,2.188875,-0.29546678,-1.6034688999999998,-1.7914932000000001
-0.06083188,7.7441697,2.1109867,-0.37212166,-1.8435389,-1.7664651999999998
0.81581944,8.527495,2.2018419999999996,-0.41099012,-1.9729028000000002,-1.7143147
1.3356006,9.085746,2.5287464,-0.39554396,-2.0154889,-1.6131555
1.4813118,8.781683000000001,2.8727164000000003,-0.35191074,-2.0112302,-1.4247296999999999
1.6005621,8.175097000000001,3.1095029999999997,-0.28590238,-1.8552674999999998,-1.1463323
1.7839388999999999,7.853517999999999,3.3499,-0.22148228,-1.6396669999999998,-0.8577944
1.9956725,7.9037004,3.4910812000000004,-0.14163347,-1.3548642,-0.547981
2.2082488999999996,8.951431,3.6621230000000002,-0.025586527,-0.9694606,-0.22858576
2.1920927000000003,10.127406,3.7502775,0.1378112,-0.39189622,0.07482226
1.259465,10.734881,4.29063,0.34702381,0.18619172,0.36812484
0.31022150000000004,12.418303,4.341291,0.58444095,0.6860366,0.7471405
-0.2947454,12.653433,3.8852913,0.6802595,0.8574628000000001,0.96380574
-0.5135179,11.85418,3.6661262999999997,0.67333055,0.65357345,1.0377902
-0.4328142,11.0647545,3.502219,0.6477789,0.66154957,1.1405377
-0.79287344,10.398143,3.3470747000000003,0.6531022,1.148095,1.4540686999999999
-0.49356946,10.56905,3.1119356,0.6243565999999999,1.7565517,1.8495952000000002
0.8688558000000001,10.646219,3.043768,0.55196035,2.181871,1.9794651
1.4185454,9.855482,3.0006049999999997,0.5040511,2.542264,1.9310323
0.92734134,9.059994,2.7334025,0.47849947,2.9116979,1.9768122
0.47688666,9.288067,2.1357236,0.43645447,3.1501796000000004,2.2110355
0.3937025,10.056892,1.3347578000000002,0.32679546,3.2039359,2.4793274
0.48570690000000005,10.26377,0.92073333,0.1340762,3.1549617999999997,2.6193204
0.5784199999999999,9.758421,1.1449169,-0.057002455,2.895728,2.4952972
0.07562804,9.126161,1.5244457,-0.18421949999999998,2.4496393,2.236046
-0.3663033,8.611637,1.5132311999999999,-0.3247534,1.9018679,1.9949113
-0.37416583,8.164150999999999,1.4369233000000001,-0.45998153,1.4877187,1.7958217
-0.051599834000000004,7.7923990000000005,1.418459,-0.53183675,1.0799573999999998,1.5674453000000002
0.30186096,7.7894106,1.3254588,-0.55899405,0.66422,1.3412157
1.2301983,7.700921000000001,1.5353537,-0.5632526,0.28731609999999996,1.060654
1.855334,7.6593094,1.9316418999999998,-0.51853734,-0.029391345,0.69497263
2.0624037,7.4579477,2.1747494,-0.4408178,-0.25455627,0.3846182
2.1189644,7.662259,2.1844792,-0.38704422,-0.37805578,0.21800907
2.412369,8.545194,2.3246837000000005,-0.32742378,-0.3983016,0.14613642
3.0033822,10.151012,2.7967627,-0.20392427,-0.37327355,-0.030578168
3.3998141000000004,11.598787,3.255626,-0.055414204,-0.40043090000000003,-0.44633305
2.6448267000000003,12.064191000000001,3.9462477999999996,0.09681341,-0.6442359000000001,-0.9174323
2.4019972999999997,11.809314,4.031462,0.21553071,-1.0227106,-1.3172175
2.3214753,11.127187,4.237325,0.27515116,-1.3697867,-1.6254251
2.1397939,11.406274,4.3112197,0.35498253,-1.5475835,-1.8000278000000003
1.4868854999999999,10.935057,4.112932,0.35765287,-1.3655281000000001,-1.7787348000000003
0.4531362,10.060914,4.223659,0.34487706,-0.98598886,-1.5157661
-0.3374388,10.487053999999999,3.7063007000000003,0.3352952,-0.54202944,-1.1644487
-0.6031951999999999,10.400986999999999,3.1225178,0.2793923,-0.10126399999999999,-0.94246036
-0.81686336,9.842400999999999,2.9924455,0.24106488,0.0946143,-1.0739534
-1.7893403,9.7241745,2.6796384,0.1601514,-0.07093018,-1.3150882
-2.6461387000000003,9.453688,2.5314276,0.0073827426000000005,-0.5910034000000001,-1.4976844999999999
-2.5693805,8.612097,2.5336112999999996,-0.15283848,-1.3224186000000002,-1.6935803
-1.9486791,7.816599000000001,2.2043892999999994,-0.29017845,-1.8813601999999998,-1.8681830000000001
-1.1267973999999998,7.390096000000001,2.0190208,-0.40463713,-2.1709452000000002,-1.9528313999999998
-0.2716844,7.2643337,1.9312589,-0.4882035,-2.3567355,-1.9586781999999998
0.54203767,7.585875,1.7542028000000003,-0.55421185,-2.598935,-1.9304563000000001
1.6712773,8.546227,1.6300874,-0.60425043,-2.7405334,-1.8516721999999999
2.740049,9.672286999999999,1.6792452000000002,-0.63034314,-2.7836604,-1.7622589
3.1742613,9.709273,2.1010652000000003,-0.59147465,-2.7181933,-1.6030848999999998
3.3206046000000002,8.941702000000001,2.7662797,-0.46849874,-2.577642,-1.3603445
3.59272,8.241724000000001,3.062481,-0.35405749999999997,-2.3540652,-1.0877940000000001
3.9628252999999996,7.6792964999999995,3.2497458,-0.28166124,-1.9995363999999998,-0.84292424
4.2528014,7.9918838,3.511135,-0.18584266,-1.4645581,-0.5991192
4.0646743999999995,9.271335,3.6687982000000003,-0.03359759,-0.6884276999999999,-0.33189179999999996
2.9200833,10.313206,4.0161489999999995,0.17079791,0.115366265,-0.040718533
1.1664264,11.928439,4.016436,0.38957494,0.78290236,0.31965706
-0.16552553,12.669838,3.8733969,0.4869992,1.0511943000000001,0.5522745
-0.8149670999999999,12.486394,3.8922345999999997,0.49551642,0.85583967,0.5788908
-1.2691089,11.707578999999999,4.0119734,0.49445176,0.70678854,0.60870105
-1.7653598999999998,10.618093,3.9323517999999997,0.51253337,0.9298242,0.880187
-0.7157226999999999,10.504617,3.7236445,0.49551642,1.2635834,1.1378325
0.9957868000000001,10.350986500000001,3.6709146,0.45026004,1.6074831,1.1468908000000002
1.3682383999999999,9.273002,3.7084843999999997,0.40502109999999997,2.0439724999999997,1.0585247
0.7522965,8.460008,3.4701655,0.37466982,2.6008023999999996,1.1335739
-0.0047405194,8.670084,2.9554505,0.3384717,3.0442207000000003,1.3933487
-0.48875234,9.047602000000001,2.3066313,0.25171140000000003,3.3023898999999997,1.7537417000000002
-0.46030920000000003,8.9952545,1.8909788,0.12767084,3.2092416,1.9826417
-0.20347841,8.695855,1.5904299,-0.031468287000000005,2.8312904999999997,1.9517667
-0.27796683,8.358206,1.2667434,-0.19970058,2.4166002,1.7952456
-0.82350004,7.9437604,1.0479517,-0.3657861,1.927402,1.7106147
-1.0966977,7.7769322,0.92783934,-0.49300316,1.4727961,1.7468128
-0.6038846999999999,8.177798,0.95760405,-0.56114084,0.9718690999999999,1.705815
0.16269079,8.805213,1.1616858,-0.5786988000000001,0.4980995,1.4992727
0.82997394,9.133189999999999,1.6197253,-0.53452456,0.02539454,1.1900004
1.3516608,9.076649,1.9684455,-0.44776422,-0.33922220000000003,0.82109016
1.3065926,9.13252,1.9029306000000001,-0.4291241,-0.46645668,0.53895766
0.9267955,9.067819,2.1254287,-0.4269948,-0.3908665,0.38086575
0.7579659000000001,9.627105,2.6516645,-0.34714597,-0.31634092,0.27598890000000004
1.3339055,10.93905,3.0446009999999997,-0.20554742,-0.42226496,-0.03806563
1.6200222,11.800886,3.4298281999999998,-0.085241884,-0.7171732,-0.49532443
1.8675442999999998,12.394619,3.8387290000000003,0.044087015,-1.1020533000000001,-0.94940674
1.6682797999999999,11.968642,4.021502,0.106901415,-1.3559636999999998,-1.3518448
0.9757425999999999,11.553987,4.528976999999999,0.18622664,-1.5044912,-1.5418762
0.7493850999999999,11.200229,4.6476245,0.26872835,-1.4374182,-1.5892619
0.11430877,9.517574,4.9365664,0.28363347,-1.1259992,-1.5684924999999998
-1.0676703,9.122378,4.9146833,0.32888985,-0.6825808000000001,-1.3151231
-1.7688457999999998,9.634354,3.955949,0.30333823,-0.28227209999999997,-0.9909280999999999
-1.5317528,9.156528,3.6138464999999997,0.20273745,-0.1587726,-0.9706998
-1.4859947,8.664050999999999,3.5280379999999996,0.14735815,-0.36053267,-1.1900178
-1.5223004999999998,8.822739,3.0398126,0.040893063,-0.72942543,-1.4290406999999998
-1.2853991000000002,8.588164,2.8380197999999996,-0.07672467,-1.1462450000000002,-1.6174839
-0.9649495000000001,7.9598494,2.697327,-0.15924384,-1.5087498,-1.7383131
-0.43176076,7.493334,2.6401055,-0.20395918,-1.7195506999999999,-1.7606707
0.31197405,7.5651025999999995,2.554977,-0.24387486,-1.820169,-1.7266018
0.93056875,7.9053288,2.5920491,-0.27422613,-1.8813776999999998,-1.6547467
1.3700389,8.320089999999999,2.8275714,-0.2795494,-1.8803130000000001,-1.5269711000000001
1.7967143,8.497567,2.873272,-0.2790258,-1.796223,-1.3768728000000001
2.230601,8.308569,3.1410394,-0.3034953,-1.6934755000000001,-1.2310157
2.5025826,8.419124,3.4635288999999996,-0.29284879999999996,-1.548142,-1.0792941999999999
2.5431116,8.344559,3.4744656000000003,-0.2529331,-1.3820565,-0.87701046
2.5011362999999998,8.013517,3.4022657999999995,-0.2311165,-1.2042598,-0.66888
2.5023334,7.864147999999999,3.4973156000000003,-0.20502383,-0.9748361999999999,-0.44158575
2.612323,8.758785000000001,3.7106774,-0.10653489999999999,-0.6905744,-0.18072884
2.7378654,10.147661,3.8756190000000004,0.057403877,-0.26471409999999995,0.06731735
2.0458646000000003,10.808174000000001,4.0851307,0.252235,0.22341959,0.27970648
0.96391517,11.409606,3.908975,0.42842597,0.6780255000000001,0.54747486
0.32418448,11.55979,3.748611,0.51412165,0.9079901,0.7183425999999999
-0.05872498,11.274115,3.709806,0.5466022,0.9878389000000001,0.7896741999999999
-0.80565846,10.579978,3.476582,0.5455376000000001,1.1693531000000001,0.9323374
-1.3641874,10.456436,3.4525442,0.5705656,1.563815,1.2687671
-0.9800424999999999,11.201903999999999,3.3311486000000006,0.60674626,1.9630591,1.6488474999999998
0.0036583403000000005,11.380386999999999,3.1779485,0.6014404000000001,2.2073877,1.8112153999999998
0.24656446,10.538434,3.187755,0.5774771,2.407542,1.8452842
-0.23068613,9.746767,3.0686197,0.5716128,2.6438947,1.94215
-0.6482158,9.637102,2.5934854,0.50721014,2.8355317,2.1119707
-0.6620255,9.544149,2.2787533,0.35442399999999996,2.9175098,2.2253647
-0.5322119000000001,9.163195,2.2952063,0.16919221,2.8057215,2.199272
-0.30022332,8.715152999999999,2.33133,0.021205751000000002,2.4804795,2.0267985
-0.14542381,8.174868,1.8758571,-0.14220943,2.06366,1.7829933999999998
-0.015399505,7.933033999999999,1.7354227,-0.27742007,1.6330173000000001,1.5791216000000001
0.07713160000000001,8.043378,1.2936254999999999,-0.39453167,1.1831936,1.5045959999999998
0.7067684000000001,8.468617,1.2073288999999998,-0.5217662000000001,0.7674562,1.4912791
1.6576495,8.764664999999999,1.5906502,-0.57339305,0.44060838,1.3315815
2.432892,8.758315,2.0616852999999997,-0.5270894,0.24523622,1.0962937
2.6919734,8.779049,2.3113240000000004,-0.45415214,0.18402752,0.8008443000000001
2.2556252,8.840465,2.3748278999999997,-0.40730748,0.22448425,0.47825512
1.3171844,8.851325,2.6107522999999997,-0.40252528,0.2681175,0.21528636
0.7942716,9.45454,2.9204855,-0.33438763,0.12651892,-0.017313666999999998
1.0081313,10.548537,2.9949548,-0.24176301,-0.12524483,-0.32286847
1.0574328000000002,11.405737,3.3055114999999997,-0.1060113,-0.47977355,-0.71200705
1.3131046999999998,12.132866,3.3266952000000005,0.055798177000000004,-0.90509284,-1.0995225
1.1910675,11.631539,3.3939053999999995,0.12765338,-1.2276995000000002,-1.4726914
0.60224706,11.023364,3.864615,0.22453661,-1.4746985000000001,-1.6265421
0.46272257,10.497530000000001,3.8525769999999997,0.29215068,-1.6248143,-1.6936151999999998
0.024784777,8.995121000000001,4.040828,0.27351055,-1.5646528,-1.7117141
-0.68831384,8.588251,4.077143700000001,0.30173249999999996,-1.3842032,-1.5216653
-0.42822692,9.755759,3.3562875,0.24956463,-1.1361395,-1.3177934
0.14064498,10.252930000000001,3.0147214,0.13243559,-0.94609064,-1.3476036
0.32085174,9.651141,3.3563739999999997,0.079220496,-0.93437946,-1.5642513
0.046198517,9.4518,3.1104798,0.025987952999999998,-1.0717193999999999,-1.7590824
-0.06461471,9.032586,2.742424,-0.09484119,-1.2223761999999998,-1.8809936999999999
0.15078682,8.47557,2.5668237,-0.20928243,-1.3293648999999998,-1.9885234
0.27218243,8.070978,2.4541047000000002,-0.28541368,-1.2963607,-2.0417560000000003
0.28879818,7.9956949999999996,2.5069783,-0.32480577,-1.1765963,-1.9943702
0.36185005,8.081656,2.6405267999999995,-0.34129915,-1.1723202,-1.9028102999999998
0.57975113,8.214247,2.726718,-0.34449309999999994,-1.2143826000000002,-1.7856987000000002
0.59672123,8.125919999999999,2.7852514,-0.3354523,-1.3453346000000002,-1.6142899
0.76335764,7.833349,2.7238066,-0.33810517,-1.499168,-1.4029653999999998
0.9474048,7.4714413,2.717936,-0.34451053,-1.5603942,-1.142126
1.1685332,7.5237308,3.0413067000000003,-0.3136182,-1.478957,-0.84348273
1.7061560000000002,7.9770875,3.4086822999999997,-0.2332458,-1.351199,-0.5837254
1.8787588,8.41087,3.732436,-0.107617,-1.1270813,-0.33564427
2.0334241000000004,9.431287,3.9098654,0.07068583,-0.7986451999999999,-0.07853982
1.9540805,10.741423,4.2868185,0.31290263,-0.34136894,0.18334684
1.2876591999999998,12.218539999999999,4.49089,0.5913001,0.18826866,0.5373345
0.70077324,12.869428,4.1305056,0.784543,0.61093503,0.8381071
0.19020496,12.520909,3.74479,0.84096944,0.723788,1.0175094999999998
-0.12079227,12.011163999999999,3.4786792,0.8526806,0.7807556,1.1915712
-0.64351356,10.460316,3.2708147000000003,0.8367108,1.0181726999999998,1.458275
-0.5143607,9.609081,3.174041,0.7872133000000001,1.3806776,1.8143919999999998
0.65737116,10.078698,2.9960465,0.7185345999999999,1.6601572,1.9953825
1.4742345,10.312239,2.7518477000000003,0.65678483,1.895445,2.0081583999999997
1.43315,9.607318,2.5476508,0.60835195,2.350592,2.0470269
1.021692,9.246272,2.2861369,0.5684188,2.879706,2.2397287
0.81375086,9.871513,1.7637414,0.50560445,3.1762200000000003,2.4814043
0.7164216999999999,10.391812,1.1206588,0.36454692,3.3353940000000004,2.6842117
0.52445465,10.15017,0.8505545,0.19472638,3.2411637000000004,2.7353148
0.09628522,9.502989,0.9692782,0.022794,2.904734,2.6815588
-0.019077,8.847237,0.8144786999999999,-0.15020303,2.3979428,2.5287726000000004
0.06770802,8.385002,0.85805315,-0.31735322,1.8411478,2.2892262999999997
0.24032997,7.9956570000000005,1.1378587,-0.4323355,1.2625013999999999,1.9671606
0.5082220000000001,7.612555499999999,1.3089389,-0.48609164,0.73443455,1.6786577
0.9356827,7.3699946,1.4221078999999999,-0.44191736,0.14090043,1.3555274
1.6445771,7.5180134999999995,1.6283062,-0.3913552,-0.37117916,1.02388
2.4625895,7.8093305,2.0127669999999998,-0.33812264,-0.6272364,0.75558794
3.0859058,7.9944406,2.3572830000000002,-0.2832844,-0.6000791,0.5298994
3.2520921,8.410955,2.8370907,-0.21940534,-0.3695909,0.262131
3.123753,9.410333,3.057501,-0.13583897,-0.25513223,-0.08492772
2.8697953,10.611294000000001,3.0271807,-0.07141887400000001,-0.40578905,-0.45594979999999996
3.0041678,11.390386,3.3276913,0.0025481808,-0.75392985,-0.8179486
3.8877335,12.207852,3.3295492999999996,0.10157816,-1.2367404,-1.2603023000000002
3.7669410000000005,11.6523695,3.225957,0.10636036,-1.5886161,-1.7846341000000001
2.6933142999999995,10.815883,3.7355292,0.1537286,-1.7131802999999999,-1.9906526999999998
1.8506987000000001,10.316912,3.4670146,0.19792034,-1.5604116000000001,-1.9097393
1.1527603000000002,10.114552999999999,3.2168205000000003,0.17343336,-1.2559040000000001,-1.6233482
1.3662657,11.0448265,3.0168664,0.20057324,-0.9338559000000001,-1.2427442
2.2165806,11.515497,2.7293708,0.24050637,-0.57346284,-1.1128569
2.0481915,10.826532,2.8108983,0.24530603,-0.24502677,-1.2634961999999998
0.6785455,10.358169,2.841381,0.21282545,-0.15027285,-1.4109591000000001
-0.5299326,9.73377,2.4778743,0.07761479,-0.31901127,-1.5711803
-1.0153618,8.645539,2.2287049999999997,-0.11400491,-0.7012384,-1.8064681
-1.0328681,7.7614274000000005,1.9658885,-0.32745868,-1.1797903,-2.0683721999999998
-0.6273671,7.152045200000001,1.6735852999999998,-0.5409299,-1.4560583999999999,-2.2099533
0.049770664000000006,6.873705,1.5327871000000002,-0.71020937,-1.5199373999999999,-2.2259405
0.590391,7.209899000000001,1.6959376,-0.7746295,-1.6987988,-2.1892188
1.4221654,8.263712,1.4357452,-0.7767413000000001,-1.7722596999999998,-2.0939238000000002
1.9561680000000001,8.999928,1.4294726,-0.7645065999999999,-1.7722596999999998,-1.9746828999999997
2.251584,9.122062,1.6953436999999998,-0.69690996,-1.6775057,-1.7628175
2.4639592,9.030824,2.309083,-0.55211747,-1.6503657999999999,-1.5104952
2.4499197,8.388314999999999,2.5862453,-0.41104248,-1.5731700000000002,-1.219322
2.4280748,7.7760606,2.87513,-0.27956682,-1.3245827,-0.8802219000000001
2.4655106,8.400277,3.2310517000000005,-0.11932816,-0.8726296999999998,-0.46500808
2.0951178,9.846136,3.3155,0.08506735,-0.28281316,-0.025848325
1.1866046000000001,11.003158,3.4908227999999997,0.30225609999999997,0.17229891,0.35421458
0.40405506,12.5838375,3.549835,0.48963466,0.40493384,0.64273494
0.008810663,12.745925999999999,3.712564,0.5604427,0.41558033,0.7412239
-0.16202042,11.905628,3.7212023999999997,0.5923822,0.28675759999999995,0.7859392
-0.017745823,10.931054,3.2930330000000003,0.5939705,0.39481091,0.87908745
-0.0033135752,10.101892999999999,3.1247396000000003,0.5992937,0.9260716999999998,1.1431209
0.42995074,10.649179,3.0524826000000003,0.58119464,1.5542156999999999,1.4870205
1.5689969,10.992191,3.0457403999999997,0.53967327,2.1206099999999997,1.6147611000000002
1.5137006000000002,9.994088,2.9781953999999997,0.49495792,2.7354546,1.6397892
0.49344498,9.194098,2.5698116,0.4571541,3.1618385,1.8117216
-0.35063562,9.584449000000001,1.869364,0.3980747,3.3875443999999995,2.1705262999999997
-0.5323747,10.442407000000001,1.0411521000000001,0.25541148,3.3257947,2.5042856
-0.47361138,10.252938,0.90256613,0.0057595866,3.1134055,2.6544015
-0.6183744000000001,9.551744,1.2833879,-0.14807373,2.6598467999999995,2.6032982000000002
-0.5593716999999999,8.663457000000001,1.3705751,-0.26518533,2.0349143,2.4010146
-0.31301793,8.123076,1.2664657,-0.39774308,1.4674553999999997,2.0800134999999997
-0.39677668,7.8615627,1.3885125,-0.52602476,0.9617462,1.7930988999999997
-0.049464207,7.5474524,1.4517577,-0.56328756,0.4927588,1.5476881000000002
0.7712681,7.4503345,1.1793071000000002,-0.5515764,0.010995574,1.3124003
1.698552,7.341360000000001,1.4431481000000002,-0.54998815,-0.41591197,0.9945933000000001
2.565052,7.3338614,1.9924737000000001,-0.53773594,-0.68153363,0.6501875
3.0142138,7.2469997,2.2578566,-0.49247956,-0.7395484,0.41437608
3.3917792,7.4293130000000005,2.4640644,-0.44245842,-0.59688514,0.26106635
3.8363730000000005,8.624613,2.754414,-0.34663984,-0.3855607,0.08965756
4.168525,10.609982,2.9660903999999997,-0.20291197,-0.22851595,-0.17489944
3.9987957,12.110312,2.9337397000000003,-0.10922269999999999,-0.18647097,-0.517717
3.5151477,12.47833,3.4741495000000002,0.015865043,-0.34349826,-0.78972656
3.5231252,12.020242999999999,3.5011656,0.12658873,-0.60700804,-1.0862405000000002
2.7240746,10.895332000000002,3.6416477999999994,0.17821556,-0.83058476,-1.2773367
2.0260215,10.514778,3.8294585,0.27351055,-0.9535431999999999,-1.2762719999999999
1.795182,9.823869,3.4702134,0.32567844,-0.8641125,-1.2198455
1.2509513,8.951824,3.5629934999999997,0.36987020000000004,-0.58039176,-1.1160333
0.7502661999999999,9.463092,3.3335904999999997,0.50506335,-0.17050122,-0.9174846999999999
0.6933321,10.350498,2.5930545,0.5737420999999999,0.27876398,-0.83177155
0.42717347,10.41677,2.6813047,0.58171827,0.48689449999999995,-1.0143853
-0.5429858,10.112457000000001,3.0645974,0.6019466,0.27876398,-1.3023646999999998
-1.6167853,9.853548,2.8512452,0.5476494000000001,-0.31796408,-1.5626631000000002
-1.9176023000000002,9.058394999999999,2.3089201,0.38849282,-0.97803015,-1.7878455000000002
-1.5629348,8.105158,1.9563501,0.18566813,-1.4049551000000002,-1.9411551999999999
-0.7653496999999999,7.434245,1.9024326,-0.022444934,-1.6333313999999999,-2.0103574
-0.021959617999999997,7.327482700000001,1.8335276000000003,-0.17788395,-1.7829061999999998,-2.0060990000000003
0.7055234,7.8258600000000005,1.6501317,-0.26785567,-1.7270206999999997,-1.9251854
1.5272132999999999,8.346206,1.306717,-0.35089844,-1.5678466999999998,-1.8304314999999998
1.9576237,8.937459,1.6297522,-0.3567453,-1.5167434,-1.7399362
2.0917854,8.942707,2.0702758,-0.26624998,-1.4177309,-1.5919497
1.8219299999999998,8.609013000000001,2.2927162999999995,-0.14913839,-1.3373586000000002,-1.3326985
1.9650458,8.248819000000001,2.2007215,-0.06876597599999999,-1.1281458999999998,-1.0276848
2.1332815,8.064283999999999,2.4707205,-0.024574235,-0.9051103000000001,-0.73223543
2.3560574,8.883761,2.6766791000000003,0.07655014,-0.68631583,-0.42189842
2.4668226000000004,10.398765,2.473622,0.18140952,-0.41057125,-0.10728539
2.098968,11.624749000000001,2.6185098,0.28841567,-0.058712877000000004,0.19399334
1.4535677,13.270591,2.7914858,0.45769513,0.4256858,0.56023324
0.7083293,13.332035000000001,2.6343305,0.47314129999999993,0.81854194,0.79712677
0.16573623,12.325159,2.8679473,0.38849282,0.8110894000000001,0.8327839
-0.24517582,11.590666,2.756569,0.2852217,0.8313178,0.86737627
-0.7656849,11.052708,2.5164976,0.19153243,1.1555127,1.087759
-0.5259391,10.980478999999999,2.410559,0.10848966,1.5717912,1.3943784
0.42812159999999994,10.830917999999999,2.354592,0.005742133000000001,1.8571175,1.5029728
0.7251175,10.138227,2.315509,-0.08367108599999999,1.9987161,1.4747683
0.38187519999999997,9.363339,2.0202084,-0.13210396,2.157349,1.5226775
-0.025809495,9.392922,1.5728948,-0.1651256,2.3388633999999997,1.7318727999999999
-0.03452439,9.855425,1.042014,-0.23856905,2.3926196,1.9991001
0.28806075,9.846145,0.9811822,-0.33599332,2.3239582000000003,2.1513452999999996
0.29566476,9.284369,1.0539659,-0.40626028,2.0876057,2.1518862000000003
0.42442492,8.762108,1.163266,-0.46640435,1.8203784,2.0608673
0.20604499999999998,8.229953,1.0241725,-0.5169665,1.4669143,1.9251156000000003
0.032618605,7.843787700000001,0.90007615,-0.5558350000000001,1.1006744,1.8159976000000002
0.1436521,7.7539864000000005,0.8943205,-0.6181258000000001,0.7418871,1.6994096
0.6378249,7.792121000000001,1.1977712,-0.65645325,0.40758675,1.5338477
1.4814458000000001,7.850932000000001,1.5494795,-0.6553711,0.16271704,1.2474741000000003
1.8730509999999998,8.036980999999999,1.8292084,-0.61332613,0.034958944,0.9195616
1.7070755000000002,7.991261,1.778978,-0.5925741999999999,-0.08478809,0.6709569000000001
1.8247361,7.997390299999999,2.0198348000000004,-0.58297485,-0.22160445,0.48944268
2.3207572,8.824453,2.6677728,-0.5105960999999999,-0.42549380000000003,0.36273178
3.4187093,10.445021,3.2147807999999998,-0.3929434,-0.56335735,0.08859291
3.6996067000000004,11.304203999999999,3.6533987999999997,-0.26785567,-0.613396,-0.35906658
3.2844617,11.179160000000001,4.1430125,-0.12625712,-0.7358308000000001,-0.7567224
3.4513949999999998,11.522038,4.002042299999999,-0.04321435,-0.93225014,-1.078247
2.8039837000000003,10.822721000000001,4.020621299999999,-0.037350047000000004,-1.0408446,-1.3917779
1.9801388999999998,10.064247,4.3305745,0.0030892328,-1.1020707,-1.562122
1.6121596,10.158761,4.3881407,0.066968285,-1.0200926,-1.6478351000000002
0.74272925,9.548776,4.352697,0.09997246,-0.76777035,-1.6052492
-0.12318646,8.982355,4.242803,0.16758652,-0.4787089,-1.4178705
-0.25134328,9.505219,3.8381543,0.2575408,-0.25726154,-1.2528496999999998
-0.2771815,9.912857,3.3503692000000003,0.3182259,-0.12526228,-1.241156
-0.6125229999999999,9.649275,3.2802955999999996,0.36665878,-0.21148154,-1.3518622
-1.0702273000000002,9.431488,3.0121644,0.3869046,-0.4952197,-1.5136892
-1.1434803,8.9231615,2.7440138,0.34217179999999997,-0.85400707,-1.6334711000000002
-0.8854620000000001,8.211461,2.6022577,0.2617994,-1.2010832,-1.7729404
-0.5637386999999999,7.574603,2.3384645,0.15852825,-1.5007736999999999,-1.8815172999999998
-0.23826139,7.341532000000001,2.1503763,0.06962118,-1.771736,-1.9097393
0.5265041,7.650154,1.981968,-0.013927726999999999,-1.9665671999999998,-1.8762115000000001
1.3498988,8.362487,1.9321206999999998,-0.07941248,-2.0517392,-1.8155264
2.1258502,8.9552145,1.9860957,-0.12838642,-1.983078,-1.7127788000000002
2.548934,9.107716,2.370834,-0.10922269999999999,-1.8744836,-1.5791739
2.5198877,8.716273,2.6825402,-0.049061205,-1.6860403999999998,-1.3694377
2.5555133999999997,8.342135,2.859788,0.0068242373,-1.4395651000000003,-1.1330677
2.4504175,8.241082,3.0771143,0.043022364,-1.1505036,-0.9036441999999999
2.3904953,8.915058,3.3943748,0.097843155,-0.8178089,-0.6678328
1.9663674999999998,10.454962,3.3333129999999995,0.16331045,-0.41271800000000003,-0.41338122
0.8848874,11.163847,3.4530709,0.23731242,0.025377087000000003,-0.11102039
-0.34601003,11.78427,3.902137,0.33046064,0.18985692,0.20942205
-1.0453755,12.521894999999999,3.6616633000000003,0.37039378,0.09403834,0.4702615
-1.0164726999999998,12.091455999999999,3.495994,0.3416482,-0.29293606,0.57726765
-0.146755,11.783322,3.1481836,0.28415707,-0.49576077,0.6166596999999999
0.18826087,10.87297,2.7854047000000004,0.22134265,-0.03741986,0.70022607
-0.0011683705000000001,9.936933,2.8354150000000002,0.16331045,0.69930106,0.9286023999999999
0.7482741999999999,10.15766,2.8736357999999997,0.11540117,1.26676,1.0925586
1.5164683,10.175645,2.8045583,0.06536258,1.5999957,1.0329382
1.1323617,9.4005165,2.772543,0.020647245,1.8587058999999997,0.9765117
0.23641306,9.023937,2.4986175999999998,-0.035220746000000004,2.1557433999999995,1.1244981
-0.33385706,9.090917999999999,1.8786918000000001,-0.14435618,2.326611,1.4183417999999999
-0.39189252,9.072512,1.6696302,-0.27637288,2.236116,1.6003971000000001
-0.38835868,8.843961,1.8241135,-0.38974947,1.8773459,1.6264724
-0.45529097,8.628962,1.9425976999999999,-0.48450340000000003,1.4509445,1.6089143
-0.46999136,8.541238,1.8586186999999998,-0.5467941999999999,1.1235556999999998,1.5849508999999997
-0.41566214,8.7406845,1.7281156000000002,-0.57873374,0.9138195,1.5104253
-0.37146518,9.037671000000001,1.6865906000000002,-0.61706114,0.7812792,1.3651093
-0.35380554,9.087806,1.7994724999999998,-0.6165201,0.568349,1.1979591
0.0707726,8.627448,1.9276676,-0.6080029,0.25480062,0.9626538
0.30690792,8.257468,1.9759825,-0.5766044,-0.043807764000000006,0.710349
0.26259604,8.277541000000001,1.7680221999999999,-0.5968328,-0.21734585,0.54159313
0.5226734000000001,8.082164,1.9578345000000001,-0.62184334,-0.27216664,0.38882446
0.63330466,8.625408,2.4304883,-0.5276305,-0.3291342,0.2972645
1.3321818,10.338249000000001,2.6127347999999997,-0.37219146,-0.40791836,0.12212068599999999
2.0892377,11.730276,2.96813,-0.25082126,-0.48298496,-0.2579422
1.7519619999999998,11.562327999999999,3.902769,-0.11561061,-0.6219131999999999,-0.66835636
1.4789367,11.419978,4.0952725,0.022776546,-0.84496623,-0.9904219999999999
1.1502511999999998,10.748796,4.3061824,0.12126548,-1.0067931,-1.2453971000000001
0.70937324,10.728341,4.6040019999999995,0.22984241,-1.0664136,-1.3635908
0.25651476,10.325157,4.875447,0.33365458,-0.9407848,-1.4338578000000002
-0.807909,9.133764,5.3150699999999995,0.4246735,-0.70176196,-1.4125648000000002
-1.8712698,8.906527,5.1562486,0.5146452,-0.44465753,-1.2203866
-1.9661185,9.216747999999999,4.5242366999999994,0.5098630000000001,-0.33604568,-1.1123158000000002
-1.634579,9.26355,4.1491323,0.45821875,-0.3738495,-1.1799298999999999
-1.5129727,9.273222,3.8864598,0.4118977,-0.57719785,-1.354009
-1.1911154,9.268137,3.4884284,0.34910077,-0.86039495,-1.5333938999999999
-0.7377685,8.54641,3.136864,0.26125833,-1.0861009,-1.6808393
-0.47841895,7.5306745,2.7778199,0.16118115,-1.2772145000000001,-1.7825221999999998
-0.061071295,6.815525999999999,2.427778,0.058433622000000005,-1.3602573,-1.7814575000000001
0.56938905,6.8716936,2.371227,-0.030962141000000002,-1.4794981000000003,-1.7415245
1.2357528,7.6031322,2.4358897,-0.074612826,-1.5998037,-1.6984148000000001
1.7114615000000002,8.263242,2.485009,-0.10444049999999999,-1.6375899999999999,-1.6143074
1.9385947000000001,8.465007,2.6687689999999997,-0.10976376,-1.6184263,-1.4748381000000002
1.8762976000000002,8.421452,2.8548270000000002,-0.08525933,-1.5800988999999999,-1.2629726000000001
1.9574131000000001,8.357783999999999,2.9396966,-0.051190507,-1.5039851999999998,-1.0197086
2.1208028999999997,8.629182,3.0821805,-0.02459169,-1.3751624,-0.7695156999999999
2.5582047,8.753336000000001,3.5518843999999996,0.0062831854,-1.1446568000000001,-0.5831843000000001
2.5933514,9.190114,3.9451082000000004,0.08133234,-0.8417723,-0.42774528
2.3160932,10.282789999999999,3.9188389999999997,0.18460347,-0.38610172,-0.22973768
1.4840986999999999,10.945447,4.1840114999999996,0.32300809999999996,0.162176,0.01298525
0.26952007,12.381403,4.316822,0.51890385,0.7099476,0.39999455
-0.7931224,13.118664,3.9393332,0.63121575,1.0980041,0.7385535
-1.523172,12.598433,3.8014367,0.6503795,1.1240793,0.9567895000000001
-1.9485737,11.859506,3.5123224000000004,0.64240336,1.1661416999999998,1.1771897
-2.278332,10.836818,3.174673,0.63336253,1.4711729,1.5200073
-1.5513853000000002,10.591671,2.8258188,0.55723125,1.6990081999999997,1.8122451000000002
