accx,accy,accz,gyrx,gyry,gyrz
-0.23968832,10.722318,4.4957166,1.2108047,3.8524477,2.191348
-0.12128068,10.456944,3.9814233999999997,1.1767359,4.2048296999999994,2.5634348
0.5377951999999999,9.779586,3.3339067000000004,1.0500424,4.285761,2.8583605
0.788334,9.078852000000001,2.6551697,0.8078255999999999,4.0536494,3.0031357000000005
0.5815899,8.246982000000001,2.4438383999999997,0.57094955,3.7230839999999996,2.96322
0.7401244,8.260551,2.4026772999999997,0.40221113,3.253573,2.822145
0.9097679,9.242509,2.1234174,0.18289305,2.7084718,2.691734
1.1182455,9.889279,1.5938106,0.03488913,2.1266312999999997,2.4628341000000002
1.0112629000000002,10.203513000000001,1.612945,-0.09176941,1.4995694,2.2142293
0.44769657,11.055311999999999,1.8192389,-0.15247196,1.0321703000000002,1.9933231
-0.57340175,12.043026,1.5471236000000002,-0.13969615,0.68563515,1.7782461999999999
-1.215201,12.478292,1.3772309999999999,-0.12903219999999999,0.5291315,1.5615983999999998
-1.1032194,11.545971,1.1443231000000003,-0.11307988,0.40402627,1.2821189
-0.6293398,10.351475,1.1471098999999998,-0.05185373,0.21134192,1.0346137
-0.5278832,9.423759,0.7531104999999999,0.025324726000000002,0.011187561,0.78813833
-0.6378249,8.79171,0.3335985,0.04129449,-0.042551125999999995,0.48525390000000007
0.42092937,9.130911,0.3814825,0.013072516000000001,-0.02766347,0.24781929999999996
0.77602786,9.125375,0.1656213,0.025324726000000002,-0.36142278,-0.010332349000000001
1.3472843,9.342156,0.38040993,0.07004006,-0.8799077,-0.2818183
1.501672,8.827977,0.3328036,0.025324726000000002,-1.2775636000000001,-0.5591686
1.6512043,8.196214,0.18529205,-0.08325221,-1.4851705,-0.8780228000000001
2.0596266,8.040217,0.58759457,-0.1332908,-1.4420434,-1.1649549
2.5237757999999997,8.607192999999999,0.91809976,-0.16577137,-1.1402236000000001,-1.3927902
3.0117621,10.051635000000001,1.0616465,-0.09763372,-0.8804488000000001,-1.441223
3.2242236,11.025729,1.0534775,0.021589722000000002,-0.75801396,-1.3736091000000001
2.7203397999999996,10.209651,1.5179238000000002,-0.025220007000000003,-0.86339694,-1.3437988
2.4331315,9.391198,2.3809187,-0.18812904,-1.1210598999999999,-1.4071542
2.3710737,9.295651,2.4486556,-0.39413026,-1.4010631000000002,-1.5838863
2.8209155,9.118652,1.6569313,-0.5942845999999999,-1.718329,-1.8101158
3.3807662000000005,9.827614,1.5092952,-0.75611156,-1.9509465,-1.94215
3.6669786,11.403621000000001,1.9627186,-0.9339082000000001,-2.0558233,-2.0017705
3.1890093999999998,11.33009,2.624792,-1.0802889999999998,-2.0829631999999996,-1.9756778000000002
2.0223438999999996,10.437254,3.4823089,-1.1910126,-2.0355950000000003,-1.9682252
1.0547129,10.482265,3.3291948,-1.3102536,-1.985539,-2.0182637999999997
0.6511558000000001,10.988907000000001,2.5395105,-1.3911844,-1.7811433999999997,-2.023587
0.80822504,11.513705999999999,2.1826022000000003,-1.3842555,-1.6033293,-2.004947
1.1822952,11.296581,1.7927111,-1.3256823,-1.5479673999999999,-1.9447855
1.1224591999999998,10.309633999999999,1.7205307,-1.2958721000000002,-1.5974823999999999,-1.9027405
0.922687,9.274466499999999,1.5648024,-1.2708615,-1.5256273,-1.8015987
0.8445020000000001,8.554684,1.3848924999999999,-1.1920773,-1.4659893999999998,-1.6818342
0.7443668999999999,8.115223,1.5035683000000002,-1.0606017,-1.4606835,-1.5343712999999999
1.0657931999999999,8.272062,1.42229,-0.91102695,-1.4425843999999999,-1.3800143999999999
1.4221078999999999,8.443354,1.2845371,-0.7161784000000001,-1.3313197,-1.1660021999999999
1.5381502,8.568091,1.3665625,-0.42978734,-1.0662216,-0.8450186
1.5491921999999998,8.954142,1.9083703,-0.12370893,-0.7989943,-0.5069832000000001
1.5585966,9.138256,1.7695928,0.12646656,-0.7596022,-0.30524063
1.5397493999999998,9.356157000000001,1.5537794,0.37985346,-0.82613415,-0.15671311
1.6115371,9.144376,1.6860735,0.5454154,-0.7393738000000001,-0.05611233400000001
1.6347992,8.732908,1.8543859,0.6577273,-0.35609952,0.047682392999999997
1.6495188000000003,8.331822,2.1398992999999997,0.7445050999999999,0.35348153,0.22387338
1.5993077,8.266192,2.2611895,0.814231,1.0380346,0.47832492
1.4088249,8.492147000000001,2.4168987,0.9915040999999999,1.5831358,0.789744
0.8103798000000001,9.15696,2.9633608,1.2108047,2.101097,1.1272209
0.26647463,9.906467999999998,3.4790528,1.3247398000000001,2.668556,1.4594094
0.056637235,10.422092999999998,4.238475,1.3582675,3.2615666,1.8086148999999998
0.14394899,11.012408,4.5565677,1.3944657,3.8141203000000004,2.2099884
0.65244865,10.9914255,3.8948970000000003,1.3662611999999998,4.1255393,2.63159
1.2986628999999998,10.399733,3.3341557999999996,1.2028285,4.107964,2.9233043
1.3781598999999998,9.487427,2.6137403999999997,0.9973684000000002,3.8109263999999996,3.013276
1.3632393,8.64734,2.7032356,0.7535459,3.5261235,2.938733
1.4259961,8.510266,3.1929743,0.46767843,3.031602,2.7508135
1.3152978000000002,9.1577635,3.095789,0.26328292,2.4971473,2.58581
1.116196,9.257928,2.6469815,0.10464994,1.9419231,2.349981
0.7720439,9.366021,2.7016077000000003,-0.015097098,1.5283149999999999,2.1370685000000003
0.0,10.014965,2.8659935,-0.057700586,1.164728,1.8740822
-0.9254068999999999,11.145363,2.3502919999999996,-0.07792895,0.91134113,1.6164367
-1.1892479999999999,11.801633,1.9895337,-0.09016371,0.702687,1.3816899
-0.7262859,11.389687,1.6818213,-0.06887069,0.50892055,1.149055
-0.27633876,10.208943,1.0576530000000002,-0.050771628,0.33538246,0.8855626
-0.005391742,9.240594,0.9146329,-0.0039269909999999995,0.26563909999999996,0.6582509
0.15715539999999997,8.705987,0.94223326,0.008290314,0.30077258,0.47619563
0.8927212,8.8211,0.7825496,-0.041207224,0.21080087,0.3015929
1.4366071000000002,9.005177,0.70860714,-0.018308504,-0.26508059999999994,0.0019024089
1.8209628,9.16578,0.668011,0.053546699999999996,-0.8389274,-0.32066935
2.1924853,8.836539,0.48268062,-0.035342917,-1.2940569,-0.68319166
2.0811071,8.335345,0.56900597,-0.18120009,-1.5197629,-1.0254682
2.1802080000000004,8.456283,0.83910066,-0.19291124,-1.5250861999999998,-1.2639673999999999
2.5164304,9.265934,1.0039941,-0.15193091,-1.4473841,-1.4034367
2.59248,10.627488,1.3073682,-0.04865978,-1.3611299,-1.3927902
2.0529416,11.056701,1.3372861,0.002443461,-1.2344365,-1.3124003
1.7162117,10.245785,1.7536857,-0.1338144,-1.2035615,-1.3443398000000002
1.8520299,9.752991999999999,2.677972,-0.37177259999999995,-1.4345908,-1.5413003
1.8907490000000002,9.701716000000001,2.4793491000000003,-0.6203773,-1.8439578,-1.7824523
2.2157092,9.324449000000001,1.6618346000000002,-0.8546004999999999,-2.3171863999999998,-1.9783307
2.3684208,9.319995,1.7727627000000001,-1.0962762,-2.581761,-2.1210112999999997
2.1921406,10.272984,2.4691784,-1.2788551000000001,-2.6616096000000002,-2.1726382
1.5187954,10.6464405,2.8684452,-1.4114128000000001,-2.663198,-2.2296057
0.5298751,11.238402,3.3351230000000003,-1.5285243999999998,-2.5338515999999998,-2.2322585999999998
-0.10105447,12.22035,3.1345081,-1.6211491000000002,-2.2458549,-2.2114892000000004
-0.2677771,12.631664,2.7526903,-1.6509593,-2.0089786,-2.2056424999999997
-0.3145598,12.530428,2.686754,-1.6467006999999998,-1.8322467,-2.1848905
-0.5219838,11.785496,2.8378472,-1.5897331000000001,-1.714594,-2.0890718
-0.447438,10.577899,2.6131659,-1.5375652,-1.6997063000000001,-1.9858006999999998
0.1532672,9.233392,2.1785798,-1.5099018,-1.7492039000000001,-1.8724241000000001
0.7009648,8.543958,1.8089726000000002,-1.4178008,-1.8631215,-1.7265495
1.3516992,8.507211999999999,1.3616209,-1.2272457,-1.8908199,-1.5338652
1.8561575000000001,8.570935,0.9275903,-0.93923146,-1.7625207999999999,-1.2900426
2.3293092,8.840283,0.8212016,-0.6757390999999999,-1.4851705,-1.0004575999999998
2.4676367999999997,8.873141,1.0937861999999998,-0.38083085,-1.111478,-0.6347588000000001
2.159522,8.807167,1.2175857,-0.02576106,-0.8564854,-0.32813936
2.128905,9.045601,1.4641213,0.30691615,-0.7212921999999999,-0.18121754
1.9057654,9.29884,1.5565183999999999,0.5006826,-0.5828876000000001,-0.12585570000000001
1.6126386000000001,8.92295,1.9862393,0.6827379,-0.28052676,-0.029513517000000003
1.4368466999999998,8.242576,2.554345,0.78972656,0.12243485,0.07056366
1.3674531,8.026178,3.0769036,0.8754396999999999,0.7032106,0.2579422
1.2845274,8.30786,3.4057424,1.0409841999999998,1.4559013,0.6592981
0.6286215999999999,8.801497,3.592404,1.2911946,2.2086092999999996,1.1857767
0.17538007,9.208406,4.222232,1.5360468999999999,2.8766866,1.5977966000000001
0.043622355999999994,9.934462,5.2644763,1.6744515,3.378137,1.9374201000000002
0.32118696,10.403725999999999,5.3043059999999995,1.7404772000000002,3.7454417,2.2999425
0.9157533999999999,9.786308,4.7382207,1.7505827,3.9610422,2.691734
1.4797124,8.680197999999999,4.082841999999999,1.6813804,3.9381435,2.9898187999999997
1.9353672999999998,7.469784700000001,3.0821996,1.5504283,3.6411059999999997,3.0941546000000004
2.0937197,6.483823999999999,2.7173232999999994,1.3545326000000002,3.4100766000000005,3.0462627
1.3806976999999998,6.5524035000000005,2.9430007999999996,1.081982,3.378137,2.9445798
1.0037355,8.200944999999999,3.1913270000000002,0.87437505,3.3701434,2.8152334999999997
0.8556303,9.8115635,3.0622892000000004,0.52302283,3.3786607,2.5703464
0.18537825,10.608392,2.7884597999999996,0.1903456,2.9799577999999998,2.4479290000000002
-0.5827486999999999,11.448211,2.7574403,-0.10669198,2.2602537,2.321218
-1.4473716,12.210649499999999,2.672791,-0.14289011,1.5362911,2.1375744
-1.4738992,12.685763,2.6572766,-0.10934488,1.0178061999999999,1.8714118000000002
-0.8272924999999999,12.206895,2.2368836,-0.05773549,0.7085164,1.5509343999999998
0.11551544,10.817453,1.8226196,0.006143559,0.38273326,1.2315566999999998
0.77337503,9.182903,1.1203715,0.11047934,0.12561135,0.9824284
0.94606405,8.707415,0.7579180999999999,0.15625933,0.016493361,0.69336694
0.82460135,9.068958,-0.31507695,0.13496631,0.06440265,0.43200390000000005
0.5750968000000001,9.202842,-0.5132880999999999,0.14774212,0.03991568,0.17381734
0.6924893,9.011727,0.21336168,0.22546163,-0.37154570000000003,-0.13224360000000002
1.2215791999999999,8.793021000000001,0.9593183000000001,0.21055652,-0.94806284,-0.46708500000000003
1.9062153999999998,8.452891000000001,0.6971437,0.15145968,-1.3611474,-0.74761176
2.3029634999999997,8.24995,0.58065134,0.09236282,-1.4761296999999998,-0.9967575000000001
2.6841776000000004,8.959485,0.65286046,-0.01993166,-1.2467061000000002,-1.1697546
3.0210326000000003,10.410161,0.7135486999999999,-0.025778513,-0.94008666,-1.1553905
3.296701,11.432687,0.77337503,-0.00076794485,-0.6441138000000001,-1.0191152
3.1701433999999997,11.080222000000001,1.2681416,-0.058241636,-0.490263,-0.96427697
3.0407509999999998,10.442396,2.0976942000000003,-0.14714871,-0.60737455,-1.0680717
2.7101598,10.28008,2.7061565,-0.2509609,-0.8666258,-1.2847369
2.3865497,9.888494,2.418546,-0.40427062,-1.1615341000000001,-1.4971434
2.6398658999999998,10.300086,2.309447,-0.5820673000000001,-1.4447311999999999,-1.681328
2.8172286,10.958558,1.9774189999999998,-0.7380299,-1.7353633999999998,-1.8096098000000003
2.498522,10.300697999999999,2.0673645,-0.8152083999999999,-2.0547584999999997,-1.8835943
1.5811117000000001,9.893512,2.8062725,-0.85781187,-2.3848178,-1.9080987
0.8888905,10.347778,2.683383,-0.9243438,-2.6456573,-1.9027754000000001
0.773059,10.748615,2.4859571,-0.9813114,-2.7553162999999996,-1.9128983
0.9845053,10.877088,2.5097169999999998,-1.0728713,-2.7276354,-1.8889349999999998
1.0517728000000002,10.730506,2.2734094,-1.1468558,-2.6153061,-1.8053511000000002
0.8558121999999999,10.175195,1.7437833999999999,-1.204888,-2.2671652,-1.6451124
0.525374,9.3458805,1.5155966,-1.2602499,-1.8902788000000001,-1.6057204
0.22806208,8.428452499999999,1.5767541,-1.2613145000000001,-1.6475383999999997,-1.5759276000000002
0.20537461,8.318902,2.0919194,-1.1926358,-1.5474613000000002,-1.5008609
0.39579028,8.325636,2.0899944,-1.0899056999999999,-1.5288386,-1.4524281
0.6898557,8.291637,1.9666069,-0.96853554,-1.3808521,-1.314006
1.3763404,8.467496,1.6646502,-0.7497411,-1.0236530000000001,-1.0499726999999999
1.7694588,8.7616005,1.3657006,-0.530423,-0.7266155,-0.7710341
1.8165191000000003,8.867022,1.2014296,-0.30419344,-0.6611482,-0.48411942
2.1178630000000003,8.979971,1.0664253000000001,-0.08594001,-0.8804662,-0.35477307
2.7332113,9.043206,1.1227274,0.11206759,-1.1285299,-0.29941124
2.2342691,8.737736,1.4949204,0.21160372,-1.1306592,-0.27227136
2.2990751,8.681826,1.9671334999999999,0.30583405,-0.7021284999999999,-0.16207127
2.3899209999999997,9.1289,2.1435382,0.43945646,0.069202304,0.042865288
1.9008907,9.648891,2.3306787,0.6757915,0.9150587,0.3830125
1.3638713,9.964495,2.6243038,0.9153554,1.5980233999999998,0.67313856
0.47418599999999994,10.324497000000001,3.0394967,1.0447017,2.1250432,0.87915725
-0.2139363,10.552156,3.8009675000000005,1.1330677,2.657892,1.1479728
-0.36730883,10.632191,4.2533092,1.2762719999999999,3.2892300000000003,1.5200596000000002
0.050814535,10.51902,4.021483,1.3976423,3.7853572,1.9107865000000002
0.9446179,9.866178999999999,3.0668287,1.3545151000000002,4.0105224,2.2493455
1.6172737,9.242797,2.5051394,1.1831063,3.8561654,2.4495172999999997
1.7301842,8.454817,2.4757290000000003,0.98935735,3.3973007000000006,2.5064672999999997
1.5648309999999999,8.618216499999999,3.045865,0.79504985,3.037449,2.5000793999999997
1.5508202,9.500605,3.016541,0.5879665,2.7371998,2.461752
1.489203,9.78151,2.7325025000000003,0.34629077,2.5530152000000004,2.4074547
1.1381173,9.712778,2.9829934,0.076934114,2.3022987999999995,2.1098936000000004
0.47461697,10.102554,3.3788697999999995,-0.035901424,2.2144562999999997,1.8250908
-0.5922201,10.888514,3.1034314999999997,-0.16098917,1.7694497,1.5237947
-1.2951003,11.0164585,2.2885408,-0.20251055,1.0880557,1.2310157
-1.355348,10.111432,1.688937,-0.12904964,0.35876990000000003,1.028732
-0.8131666999999999,9.13003,1.471802,-0.020455258,-0.19587829999999998,0.84348273
-0.31445444,8.404164999999999,0.98924583,0.07054621,-0.4487416,0.68697906
0.26076686,8.479382000000001,0.79285425,0.14454816,-0.31353095,0.48788935
1.1665412,9.097832,0.34566525,0.12857841,0.23739968,0.31487486
1.7403452000000001,9.312832,0.09812396,0.103026785,0.5142089,0.1727527
1.5398548,9.388249,-0.027811047000000002,0.108873636,0.24645795,-0.009808751
1.1425610000000002,9.177999999999999,0.098669834,0.081210166,-0.34972906,-0.21422172
0.6490106,8.525436000000001,0.7235086,0.00027925267999999995,-0.9076061,-0.52192324
1.0155821,8.388746000000001,1.1412966999999998,-0.024713863,-1.2291306,-0.7401592
1.8184057,9.103761,1.1514959999999999,-0.009285152,-1.2797103,-0.85090035
2.6858058,10.463016,0.96521765,0.05511749999999999,-1.0774091000000001,-0.8482299999999999
3.4318104,11.379612,0.77020514,0.21320942,-0.7165100000000001,-0.74656457
3.1363754,10.914973,0.9032269,0.27337092,-0.43542475,-0.6688276
2.2927067,10.141867999999999,1.5888688999999998,0.12325515,-0.60737455,-0.7556054
1.3490752000000001,10.128191000000001,2.0203805,-0.23179717,-1.1663163,-1.0095333
1.1510843000000002,9.951298,1.5751741000000001,-0.4574857,-1.8019128,-1.2496034
1.4762073,9.584324,1.38857,-0.5730090999999999,-2.2054155,-1.4071717
1.363699,10.206472,1.7085407,-0.73431236,-2.5407805,-1.51896
1.2402444,10.914887,2.0915265,-0.9227556,-2.7925617999999996,-1.564199
0.77599907,10.739815,2.9405297999999997,-1.0558368999999999,-2.7611632,-1.5732572
0.023558944,11.019869,3.5002174,-1.1553731000000003,-2.5961423,-1.5929445
-0.66850895,11.34483,3.2691673999999997,-1.2203168,-2.395988,-1.6296837
-0.5876233000000001,12.377611,2.1934142000000003,-1.2762196000000001,-2.1511183,-1.5572875
-0.77807724,12.7771845,1.3347197,-1.2575796000000001,-1.9099661,-1.518419
-0.7340239000000001,11.256971,1.9657162000000001,-1.2549267,-1.7449453000000001,-1.4800916000000002
-0.31735623,9.509788499999999,2.0109668000000003,-1.2352219,-1.5911118999999998,-1.4199301000000002
0.23120326,8.596821,1.472367,-1.2240343,-1.4260911,-1.3326287
0.80509347,8.165032,1.0683694,-1.1974181000000002,-1.3238846000000002,-1.2597089
1.4683831,8.097535,0.77885294,-1.1196985000000002,-1.3020505,-1.1511145
2.114358,8.190306,0.6835063,-0.99513435,-1.2536176,-0.9813114
2.396232,8.361059,0.72497386,-0.8641823000000001,-1.1689691999999998,-0.780616
2.5744658,8.25221,0.9529306000000001,-0.7060904,-1.1114955,-0.57461476
2.897051,8.589514999999999,1.2394208,-0.50965357,-1.199303,-0.41277036
2.7219298,8.69984,1.260959,-0.23977333,-1.4244853000000002,-0.31271064
2.3662949,8.809887,1.5025626,0.016266469,-1.6012174,-0.26958355
2.0546944,8.563657000000001,1.6798772000000002,0.1802227,-1.6773486000000002,-0.22965042
2.0227077,8.484983,2.0365462,0.36334264,-1.5160453,-0.12213814
1.6422404,8.694764,2.465118,0.5070705,-1.0694331,-0.039077923
1.1116567,9.17687,2.5361873999999998,0.5677555999999999,-0.33163002,0.041277036
0.5462132,9.498689,2.6055427000000004,0.6790029000000001,0.7037342,0.25101325
9.576806999999999e-05,10.172724,3.0106606,0.8818275999999999,1.8567511000000003,0.69019043
-0.08460151,10.791136999999999,3.6443867999999995,1.103275,2.91182,1.1192447
0.25173596,11.310744999999999,4.0452813999999995,1.216128,3.6847565,1.4120237
0.6957646,11.200019000000001,3.5660772000000005,1.3071643,4.127651,1.6893740000000002
1.2796816999999998,10.255582,2.8756947999999998,1.39286,4.290543,2.0199218
2.1622322,9.800778999999999,2.4778933999999997,1.421082,4.0957117,2.3355997000000004
3.1606336,9.404157000000001,1.8124297999999999,1.3747610000000001,3.671457,2.5368361
3.8798133999999997,8.437608,1.8273026,1.2454146000000001,3.2578316000000003,2.560782
3.3883126000000003,7.6823993,2.6854897,1.0063918,2.9618587000000005,2.5400126
2.5974696,8.363952000000001,3.5190551,0.80197877,2.939501,2.453776
1.9851859,10.018902,3.6697176,0.5661499,3.0108325000000002,2.364345
1.1595693999999999,10.876859,3.614172,0.31065115,2.8900034,2.2706732999999995
0.13032117,10.996549,3.7606205999999998,0.17170548,2.5551619999999997,2.2089062000000004
-0.89552724,10.961489,3.5441656000000004,0.10143854,2.1511357,2.1162815
-1.2994673,10.832968,2.958831,0.083339475,1.5762068,1.8660886000000003
-0.86317676,10.344617999999999,2.1772009999999997,0.059917152,1.122683,1.5376524999999999
0.19007088,9.565209,1.4951215,0.03864159,0.8288394,1.3156816
0.92879707,8.479878999999999,1.0005655999999998,0.07483972,0.58290505,1.0681415
1.4723766,8.360849,0.7271191,0.09665633,0.37847465,0.7721686
1.3897958000000001,8.518053,0.27986303,0.09346238,0.35665804,0.48790678
1.2000506000000002,8.839757,0.16923176,0.1104968,0.38433895,0.29253465
1.2330903999999998,9.133266,0.45522395,0.18661061,-0.052674035999999994,-0.010332349000000001
1.5710752000000001,9.235911,0.6038464,0.2462485,-0.74736744,-0.3382448
1.9318143,9.185834,0.50331867,0.17170548,-1.3276021,-0.70181435
2.0500305,8.838989999999999,0.5397967,0.08759808,-1.5964178,-1.0260091999999998
1.8334221999999998,8.501945,0.6834201,0.049270645,-1.4489723,-1.239463
2.4119859,9.240316,1.1280617,0.016790068000000002,-1.0731506000000002,-1.3033595
2.9546554,10.597445500000001,1.2715508999999998,0.07110471,-0.7345916,-1.2016766
2.6499599999999996,11.115503,1.5735556,0.018936822,-0.6195919,-1.0941468
2.0845165,10.341754,2.1210904,-0.17535323,-0.8288045,-1.1223689
1.9626516,9.927404,2.7195833,-0.36377898,-1.2685053,-1.2911073
2.0575674,9.8835335,2.5060205,-0.5208237,-1.7678266,-1.5343712999999999
2.7181083999999998,9.763027000000001,2.296614,-0.69595003,-2.2069862000000002,-1.7031096999999997
3.0510460999999998,10.539352000000001,2.7222552,-0.89929837,-2.4529207000000004,-1.7749823
2.8143267999999995,11.014678,3.0608816,-1.0584723999999999,-2.574832,-1.7691356
1.7851647000000002,9.970385,3.616911,-1.1745193,-2.6706505000000003,-1.7680709
0.6286599,9.988026,3.8616652,-1.2533035,-2.6498811,-1.7728531000000003
-0.08012914,10.997152,3.1002614,-1.3480573999999999,-2.476884,-1.7590126
-0.08237969,11.719119000000001,2.7700722,-1.4204363000000002,-2.3363502,-1.7675298
0.30453286,12.042835,2.76831,-1.4300355,-2.1894283,-1.7654005000000002
0.54445106,11.632794,2.4849707999999997,-1.4119363999999999,-2.0520883000000003,-1.7036508000000001
0.5230852,10.557098,2.0189345000000003,-1.3618629,-1.9072783,-1.6030326000000001
0.57917655,9.190469,1.6681074,-1.3177061,-1.629422,-1.472098
1.0412766,8.276314999999999,1.8365155,-1.2474391000000002,-1.2668996000000001,-1.3358052
1.5871164,7.8236284,1.7926729,-1.1542735,-0.9927607,-1.2447863000000001
2.0536697,8.076647999999999,1.5331031000000002,-0.97062993,-0.79419464,-1.1170281000000002
2.335994,8.106010000000001,1.218888,-0.7145727,-0.6547254,-0.94242543
2.8220357999999997,8.0809,1.415634,-0.45108035,-0.55518925,-0.68423885
2.7796588,7.971331599999999,1.4227208,-0.19182913,-0.55838317,-0.44362777
2.9156492000000003,8.178938,1.5879590000000001,0.13339551,-0.6776241,-0.25944320000000004
2.9747095,8.468683,1.4947767,0.43575636,-0.8351924000000001,-0.17800613
3.056984,8.681767,1.5650514,0.6918135999999999,-0.8831017,-0.12636183
2.864605,8.493737,1.7835366999999998,0.8845154000000001,-0.6579193,-0.05503023
2.7860942000000004,8.3624,2.1001651000000003,0.9840515,-0.20863666,0.04342379
2.2174616,8.532859,2.6853557,1.0702883,0.5105088,0.22282618
1.5380256,9.166679,3.0994666,1.1357731000000002,1.3430657,0.47621309999999994
0.57717496,9.772786,3.3845394,1.2369149,2.113873,0.74609333
-0.06129156400000001,10.269411,4.0930796,1.3289984,2.849023,0.9915040999999999
-0.0077189063,10.803519,4.6442914,1.3747784,3.5857615,1.2187983
0.6438486999999999,10.691164,4.4816008,1.4157761,4.241062599999999,1.5238295
1.4523131999999999,10.146291999999999,3.9029126000000005,1.450386,4.7600713,1.9491663000000001
2.138616,9.426527,2.8733582,1.3545675,4.995359400000001,2.3744855
2.7438029999999998,8.632581,2.3349884,1.1469431,4.837791,2.6369133
2.8819869,8.165338499999999,2.0543497,0.8786511,4.384249700000001,2.69601
2.6790062999999997,7.900980499999999,2.0555372,0.68010247,3.9264498,2.5693166
2.6968575,8.578933000000001,2.1777563,0.47568950000000004,3.333963,2.3707504
2.7782605,9.689803999999999,2.0992072,0.22549655,2.5450566,2.2499213
2.340447,10.456006,1.9436226000000003,0.028536132999999998,1.5937997,2.099282
1.2368350000000001,11.401792,1.9386903999999998,-0.026267204,0.85973173,1.9390433
-0.31150478,12.651775,1.6841486,0.005654866999999999,0.31834805,1.6984322
-1.5538370000000001,13.31905,1.4316273000000002,0.01308997,0.012793263000000001,1.4870903
-1.7767467000000001,12.508708,1.258967,0.02586578,0.016510814,1.2475439
-1.3951972,10.667959,1.26863,0.06527531,0.19271925,1.0596417
-0.68174416,9.183669,0.9980948000000001,0.10784389,0.31408945,0.80677843
-1.0416502,8.552489999999999,0.25763527,0.12541936,0.33644712,0.55126226
-1.129661,8.322225999999999,-0.08395029,0.14404203,0.41310197,0.26912978
-0.49820465,7.883053,0.24738808,0.11210250000000001,0.4285307,0.09239773
0.5896344,7.943865299999999,0.6835733,0.12489576,-0.0010297442999999999,-0.18331192
1.4946905000000001,8.402565,0.46542326,0.12915437,-0.6217212,-0.46385616
2.071176,8.651448,-0.1800727,0.062081363,-1.0630102,-0.76567596
2.500782,8.725985000000001,-0.057001155,-0.038519416,-1.2083437,-1.0707071000000001
2.8954997000000002,8.59709,0.26160008,-0.05503023,-1.1029434,-1.2516978
3.5225506,9.154795,0.5374504,-0.02146755,-0.8538150999999999,-1.2756437
3.7459104,10.295978,0.9264124,0.045570545,-0.677083,-1.1851658999999999
3.5190742,11.01191,1.0607942,0.15470599,-0.47160542,-1.0659075
2.6972692000000005,10.211988,1.3847393,0.14193018,-0.43912485,-1.1084936
2.5535598,9.795666,1.8136845000000001,-0.05023057400000001,-0.72818625,-1.2580857
2.6210953999999997,10.143246000000001,1.4482814,-0.2812598,-1.2621,-1.4443996000000001
3.0657177000000004,10.416616000000001,0.8906238999999999,-0.51068336,-1.8109362,-1.6253902
3.247141,10.648011,1.0104872,-0.72628385,-2.2085745,-1.7339846
2.6669492999999997,11.096876,1.6375766,-0.892893,-2.3773303,-1.7158855
1.7474991000000002,10.864246000000001,2.1407802000000005,-1.0148042,-2.444927,-1.6855342
0.94063395,10.539649,2.6903646,-1.1239222,-2.353908,-1.5886511
0.24667938,10.852839,2.6755106,-1.1984478,-2.2059216,-1.5029378999999998
-0.26790157,11.581501,2.0293446,-1.2261287,-2.0967863,-1.4603693000000002
-0.9054009,12.155773,1.7674188999999998,-1.2090943,-1.9684869999999999,-1.4284123
-1.0699303999999998,11.908778,1.7822247,-1.1957773999999999,-1.8120009,-1.3890203
-0.68762434,10.857216000000001,1.7666144,-1.1968421,-1.5628725,-1.3086479
-0.60534996,9.492147000000001,1.3949768999999999,-1.1494738000000002,-1.2785933,-1.2319930000000001
-0.20538420000000002,8.790331,1.1690983,-1.0462027,-0.99647826,-1.1462973
0.36699283,8.392683,0.81306136,-0.90886277,-0.79419464,-1.0265154
0.6085965,8.240564,0.44291773,-0.7427772,-0.53974307,-0.85990626
1.1929063,8.058461,0.38731479999999996,-0.5048365,-0.28155652,-0.6107779999999999
1.9202743000000002,7.803441,0.48179957,-0.23174481,-0.20331341,-0.35259143
2.3605009999999997,8.132644,0.42041224,-0.009773844,-0.44924775,-0.20247565
2.6950283,8.598009,0.2573288,0.19835667,-0.9309934999999999,-0.21364576
2.970122,8.505957,0.34226552,0.39638174,-1.3653711000000002,-0.24612632
2.9857322999999996,8.197096,0.679982,0.5864305999999999,-1.4643836000000001,-0.18118262
2.6586938,8.060645,1.087025,0.6391220999999999,-1.030006,-0.08909906
2.3827095000000003,8.21919,1.32,0.59920645,-0.20064305,0.043441243
1.8582644,8.757530000000001,1.6701951000000002,0.63807493,0.9103114,0.31066862
0.9103713,9.453591000000001,2.0788758,0.77433276,1.9717683000000001,0.8259595999999999
-0.078223355,10.566561,2.5917807,0.9553234,2.8548875,1.3306041000000002
-0.47784436,11.582362,3.1696837,1.0532713,3.5501044000000004,1.6915206999999999
-0.0060429648,11.813125,3.5910248999999994,1.0708468,3.9387019,2.0444613
0.602295,11.29548,3.4333522000000003,1.0559242,4.044085,2.4250476
1.4985788,10.941089999999999,2.721403,0.97396356,3.896116,2.7114563
2.5522861,10.214822999999999,1.7060986,0.80520767,3.5767207,2.849861
3.0550778,8.986253,1.4732769,0.5310688,3.4505682,2.8243093
2.4539037,8.031962,2.0508444,0.27022934,3.409047,2.649724
1.3106052,8.653497,2.7090967,-0.0055152406000000005,3.1577718,2.4745626
0.9363818000000002,10.751881,3.0595597999999997,-0.19341739,2.5716902999999998,2.3505397
0.39072415,11.978114,3.063065,-0.30040607,1.7519091,2.2366219
-0.75742006,11.984751,3.3735452000000006,-0.36695546,0.89858276,2.0529609
-1.525614,11.884913000000001,3.676268,-0.42498767,0.3258006,1.7596585
-1.4096676000000001,11.660586,3.6009274,-0.34459782,0.104353234,1.3950242
-0.79255736,10.874607000000001,3.1619072,-0.28602457,0.07508406,1.0995923
0.41680178,9.790417,2.5479287999999998,-0.21844539999999998,-0.028169613,0.8286125
0.90971047,8.587446,1.9394662,-0.15934856,-0.12133529,0.69820154
0.5257188,7.621721000000001,1.2625583,-0.047560222,-0.22671826,0.43736205
0.3748362,7.368280400000001,1.0809437,-0.010821042,-0.2565285,0.11903145
0.6448255999999999,7.583385000000001,0.9729078000000001,-0.076829396,-0.2623928,-0.17264797
1.7071328000000001,7.8673754,0.6044785,-0.16147786,-0.49820423,-0.4111472
2.8277723999999997,8.026858,0.38459498,-0.29775316,-0.78887135,-0.6576052
3.3355922999999996,8.198627,0.3288005,-0.49523717,-0.89533645,-0.9062098
3.1229296000000004,8.109869999999999,0.1887014,-0.5596573,-0.8985304000000001,-1.1031703000000002
3.1558068,8.456838000000001,0.40145016,-0.5745624,-0.75745547,-1.2804258999999998
3.1428688,9.3683195,1.0241437,-0.5564633000000001,-0.59456384,-1.3368524
3.601703,10.468772,1.6323284,-0.37919024,-0.6041456999999999,-1.1957948
3.7450197,10.865673,2.1856093,-0.26954865,-0.7436149999999999,-1.0424851000000002
3.2156713,10.520725,2.874632,-0.37175512,-0.9954136,-1.0488731000000002
2.7932959,10.716677,3.7476057999999997,-0.53836423,-1.4244678999999998,-1.2963957
2.9513133,10.618965,3.9215205,-0.6996501,-1.9599699000000002,-1.6487951
3.14578,10.183537,3.8808382000000003,-0.8577421000000001,-2.481125,-1.8931237
3.0909240000000002,10.585953,4.147169,-1.0121164,-2.8904746,-2.0107763
2.7250516,10.396236,4.031845,-1.1366806,-3.1603725,-2.0129056
1.2375437,8.966773,4.4937825,-1.2223938,-3.2583203,-1.9671256999999998
-0.34410426,9.251339,4.9412875,-1.3027836000000002,-3.1800770000000003,-1.9421151
-1.0721139,10.364768,4.135332,-1.3687919,-2.9804463,-1.9373155
-0.72305846,10.656247,3.4007242,-1.3943261,-2.6956437,-1.9080462
0.09954133,10.746949,3.4324616999999997,-1.3501518,-2.4060759999999997,-1.8606781000000003
0.26564148,10.274352,3.4595160000000003,-1.2468807,-2.1776996,-1.8223331999999999
0.15239573,9.428041,3.2927647000000007,-1.1579736,-2.014267,-1.779206
0.27606103,8.53103,3.0864133999999996,-1.0578964,-1.8359468,-1.6817993000000002
0.70909554,7.8781686,2.8780699,-0.9306793999999999,-1.7672681000000001,-1.5934333
1.5206342,7.626078,2.4864740000000003,-0.6762278,-1.9472115,-1.4933561000000002
2.4175212000000004,7.668589999999999,2.022162,-0.45690975,-2.1878052,-1.3634686000000003
2.9747,7.6975117,1.7537718999999998,-0.3328692,-2.3693367999999997,-1.2516804
3.2358115,7.755135000000001,1.7508988,-0.22322759999999997,-2.3980825,-1.1952538000000001
3.3451211000000005,7.8292885,1.9441493000000003,-0.05021312,-2.2804298,-1.1244458000000002
3.4340417000000003,8.114199000000001,2.0200932000000003,0.16004670000000001,-1.9929740000000002,-0.9631599000000001
3.3592756,8.135641,1.9738948,0.33889058,-1.4436141000000002,-0.804527
3.3100126000000003,8.058978,2.0973878,0.49326494,-0.54771924,-0.63844144
3.2114577,7.815478999999999,2.3075697,0.63273424,0.42483059999999995,-0.36430258
3.0038037,8.374295,2.7257700000000002,0.87388635,1.1967025,0.0104370685
2.7177062000000003,9.735025,2.966866,1.1528249,1.8876609,0.32559118
2.6405458,10.620545,3.4003699999999997,1.3992828000000002,2.4673545,0.56831414
2.5603497,10.577555,4.0376389999999995,1.619683,2.834659,0.83501786
2.1631994,10.339763,4.654855,1.8576237,3.0773995,1.1847644
2.1877642,10.128105,4.604232,2.0859826,3.240291,1.5792089
2.9653337000000004,9.9285345,3.9461138,2.1812775,3.2418966,1.9049919999999998
3.1662645,9.624518,3.4381695,2.0865238,3.1971814999999997,2.1354802000000004
2.0755718,8.593843,3.3934553,1.8560355,3.1647007,2.2744257
1.895231,9.004679,3.7687800000000005,1.5148062,3.3238747,2.3159473
2.10661,10.111413,3.7563205,1.1458959999999998,3.5772616999999998,2.2893310000000002
1.9870055,10.102583000000001,3.6462445,0.8855975,3.4564152000000004,2.2840075
1.2595416000000001,9.554924,3.7988222,0.6742731,3.1913169999999997,2.2014885
0.35330755,9.442425,4.096948,0.34369025,2.8005902999999996,1.9028627
-0.28996655,9.780419,3.9787898,0.06635742,2.2954220000000003,1.5376874
-0.47248134,10.04313,3.0215973999999997,-0.05927138,1.6592845,1.1671889
0.038671147,9.365686,1.9278208,-0.08215265,1.0582979,0.910067
0.74384016,8.675974,1.2639757,-0.023055799999999998,0.48977429999999994,0.75729835
1.4967113,8.616866,0.88322103,-0.016685348,0.1150172,0.6689323
1.6483505,8.816428,0.71138436,-0.054471727000000005,0.04527384,0.54117423
1.1865568000000002,9.273826,0.18924728,-0.13590878,0.36733943,0.39212313
1.3243862,9.808910000000001,-0.3936642,-0.17743017,0.38704422,0.18132226
2.2419498,9.81005,-0.5375749,-0.10290461,-0.24801129,-0.19394098
2.462446,9.32508,0.13137463,-0.19233528,-1.030006,-0.56285125
2.4462900000000003,8.722498,0.42346725,-0.36109117,-1.4915235,-0.7773871
2.2561617000000003,8.398831,0.66942835,-0.40634754,-1.5671136,-0.92696184
2.1442277,9.016563,0.49054322,-0.38077849999999996,-1.300951,-1.1143229
2.5117377999999997,10.798999,0.25210944,-0.25727898,-0.95759237,-1.2181351
3.117337,12.600864999999999,0.25499207,-0.21788691,-0.8772199,-1.2266523
2.3096482999999997,11.672365,0.7778090999999999,-0.36215582,-1.0922794,-1.267109
2.0013707,10.03612,1.9387574,-0.5484697,-1.4611896,-1.4135072
1.911454,9.998398,2.331598,-0.70071477,-1.7592918999999998,-1.6104677
1.5227506000000002,10.265217,1.3576944,-0.8385958,-1.9839331999999998,-1.7781589
0.9156193000000001,10.609923,1.3325648,-0.97433007,-2.1601242999999997,-1.8516023000000001
0.81723684,11.244109,2.1724317,-1.0797305,-2.3113046,-1.8489494
0.9098924,10.078852000000001,3.303079,-1.1457388000000002,-2.4795194,-1.8745011000000003
0.008906431,9.120127,4.257532,-1.1989714,-2.5843964,-1.8420205000000003
-1.1093582,10.061805,3.9021082000000002,-1.2761673,-2.5135882,-1.7888054
-1.2470248,11.282167999999999,3.0655072,-1.3645159,-2.254337,-1.7376846999999997
-0.59796625,11.751211,2.7044517999999997,-1.3932613999999999,-1.9908447,-1.7270381000000001
0.022495917999999997,11.5241165,2.402476,-1.3469403999999998,-1.8034662000000001,-1.6833875
0.24190056,10.668496000000001,1.8038203999999998,-1.2117472,-1.6591971999999997,-1.5678816
0.46024218,9.487206,1.4717158000000001,-1.1127347,-1.5112282,-1.4129663000000001
0.66215956,8.223709,1.2500606,-1.0637608,-1.2972335,-1.3171476
1.0989096999999999,7.586334700000001,1.1404731000000001,-0.9801769,-1.1369947,-1.224523
1.5448155000000001,7.743107000000001,0.8978639,-0.7949451,-1.0811093,-1.0680368
2.1725847999999996,8.204546,0.51890975,-0.5484697,-1.04437,-0.8763822
2.7408247,8.550585,0.5035102,-0.2913478,-0.8942543,-0.64695865
3.0374565,8.664492,0.82897794,-0.05979498,-0.665878,-0.4574508
2.8941779999999997,8.711905999999999,1.1912878,0.22446679999999997,-0.464659,-0.29827678
2.73844,9.199213,1.4922581,0.5060582,-0.28527406,-0.15561356
2.4649072,9.154163,1.529598,0.73921674,-0.019111356,0.014172073
2.1977527,8.729422,2.0344682,0.86697483,0.25822145,0.15631169
1.7135206000000003,8.210149000000001,2.871414,0.9260716999999998,0.7554134,0.3165329
1.2605281000000002,8.317772999999999,3.4803839999999995,0.94095933,1.5469726000000001,0.5443682
0.99375653,9.208961500000001,3.565723,0.9957976000000001,2.5168695,0.9074315999999999
0.93176585,10.195373,3.5003707000000004,1.0804461,3.5144472,1.2928351999999999
0.84228975,10.683886,3.6992426,1.0996097,4.449751999999999,1.6191419
0.88009894,10.8956,4.005776999999999,1.0447716,5.027316000000001,1.9449251
1.1443518,10.706755000000001,3.6714987999999997,0.9494940000000001,5.3163776,2.3425808
1.5770223,10.327667,3.0102775,0.8701688,5.3440585,2.752995
2.0669622,9.869636999999999,2.2103174,0.7370874,5.100236,3.0612028
2.541129,9.620956,1.6373178999999998,0.5140518,4.6967506,3.1660795
2.4848939999999997,9.034730999999999,1.6883528,0.2287254,4.297507,3.152239
2.2284272,9.153617,2.1681604,-0.0060039326,3.9280730000000004,3.0660198
1.9549998,10.1712675,2.443235,-0.16517796,3.4053292,2.9989295
1.3449955,10.86913,2.1831767999999996,-0.33658674,2.731929,2.8972466
0.12083057,10.820509,2.0078063000000004,-0.4909611,2.0260653000000004,2.6076615000000003
-1.1866908999999999,10.774108,1.9608225,-0.5564458999999999,1.3697169,2.2701848
-1.8953745,11.316348,1.8187887999999999,-0.44305182,0.88849473,1.9204381999999998
-1.7665473000000003,11.761314,1.3673764,-0.35683256,0.39608502,1.4706143999999999
-1.1029513000000002,11.280281,0.8239597,-0.24022712,-0.14100514,0.96012306
-0.74812096,9.726894,0.49615519999999996,-0.08745845,-0.5333376999999999,0.5374566999999999
-0.41499177,8.716379,0.46891877,0.08073893,-0.7888364999999999,0.21647319
-0.70458484,8.52195,0.05583278,0.18240435,-0.79044217,0.09295624
0.08709148,9.165416,-0.12281297,0.20050342,-0.6445850000000001,-0.04701917
1.2923518,9.746592999999999,-0.038642414,0.25160667,-0.7217809000000001,-0.35789722
1.3516226999999998,9.401446,-0.12638512,0.26225317,-0.90968305,-0.6703635
1.6346938999999998,9.243907,0.2391999,0.21861994,-1.0981263,-0.9652718000000001
1.8219396,8.373136500000001,0.03898718,0.19572122,-1.1247425,-1.2037536
2.3610947,8.172617,0.6273766,0.21594960000000002,-0.98794365,-1.3624040000000002
2.8919275,8.823236,1.0666456,0.32560859999999997,-0.76489055,-1.3783563
2.7109928,10.285385,1.2438452,0.37245327,-0.59613466,-1.3336409
2.1804855,10.696824000000001,1.2387887,0.2633353,-0.5902878,-1.3884618
2.7602272,10.228738,1.7176003,0.09510299,-0.7638259,-1.6136441000000001
2.9534105999999998,10.241112,2.478152,-0.052866023,-1.1375183,-1.8393501
2.5477943,10.301015,2.753131,-0.17636552,-1.4611722,-1.9687139
2.0152571,10.245594,3.1142051,-0.30410618,-1.7337228,-2.0123646
1.4198956,9.897264999999999,3.5586742999999994,-0.43559927,-2.0344954,-1.9932008999999997
0.8473175999999999,9.445891,4.2349114000000005,-0.588909,-2.3831599,-2.0256814999999997
0.08835562,10.124724,4.551904,-0.7331779,-2.7430117000000003,-2.001177
-0.54796576,11.41474,3.8514565999999997,-0.87530005,-3.0315323,-1.9963949
-0.2904837,12.381049,3.0994568,-1.0584201000000002,-2.9735,-1.9420803
0.0182917,12.669569000000001,2.7016077000000003,-1.2090769,-2.705749,-1.8872769
-0.28213271,12.182436000000001,2.6494524,-1.2724148000000002,-2.2873414,-1.8798069
-0.5609805999999999,10.855512,2.5450075,-1.2314171,-1.8785154,-1.8468026999999998
-0.70202786,9.374152,2.2505496,-1.1308162,-1.5841306,-1.7738653000000002
-0.46996266,8.560439,1.8183866000000002,-0.96631896,-1.5032172,-1.6088445
-0.16768031,8.014246,1.4779215,-0.71347314,-1.5506029,-1.2931843
0.3326887,7.679833,1.5051388,-0.42121777,-1.4377499,-0.9029809999999999
0.97326213,7.5371957,0.96079314,-0.27642524,-1.11729,-0.6400121999999999
1.9098833999999998,7.8603559999999995,0.48367664,-0.22479841,-0.8436746999999999,-0.4169766
2.8756277999999997,8.384561999999999,0.39760986,-0.07787659,-0.87242025,-0.18168877
3.6061275,9.029185,0.5912816,0.108960904,-0.9166120000000001,-0.05553638
3.6596332,9.154872,0.812458,0.24043655,-0.60147536,0.051975905999999995
3.4178858,9.064160000000001,1.2609495000000002,0.3325376,0.18423696,0.19624482
2.7515125,8.958395,1.6871843,0.47626543,1.074285,0.46879545
2.3120232000000005,9.503189,2.201746,0.66683793,1.8413572,0.8190656
2.1207457,10.139646,2.3150207999999997,0.8265355999999999,2.4274564,1.0900279
1.3524653999999998,10.439859,2.793248,0.9494940000000001,2.9725575,1.3359448
-0.42957723,10.786856,4.0499263,1.0565002000000001,3.4559089999999997,1.6122303999999998
-1.439892,11.320466,5.044075,1.1272906999999999,3.8615410000000003,1.9518541
-0.68310404,11.2945795,4.5184809999999995,1.114515,4.0771239999999995,2.336193
0.49158707,10.8085375,3.5846273999999996,1.009673,4.0622362999999995,2.6705107999999997
0.890078,9.630514,2.6726856,0.794596,3.9152970000000002,2.9206862
0.31523016,8.753528,2.513912,0.6008296,3.6933262000000004,2.9568844
0.54422116,9.037603,2.4529457000000003,0.42783254,3.4303574999999995,2.9632723
1.1371405,9.728082,2.1612842,0.23352505,3.2845001000000003,2.9483848
1.5149072000000001,9.750186,1.9977506,0.10576695,3.1221497000000005,2.8105037
1.2440176,9.492808,1.9676124,-0.11088077,2.6882957999999997,2.541147
0.3638133,9.349377,1.8669986,-0.28068385,1.9786971999999998,2.1179395
-0.6451319999999999,9.715593,1.6080128999999999,-0.33869859999999996,1.2015021000000001,1.6942085
-1.3202204,10.02143,1.2355133999999999,-0.2844014,0.5414359999999999,1.3503438
-1.142331,9.602108,0.89941543,-0.20668189,-0.04251622,1.0101792
-0.57400507,9.107457,0.6993559,-0.12044517,-0.48434633,0.67214376
-0.5350849,8.908077,0.31982702,0.008883726,-0.76276124,0.42940336
-0.1806569,8.9576,-0.22202869,0.11376056,-0.7435975,0.33573154
0.27793807,9.932786,-0.49724695,0.12973033,-0.6307271,0.16751671
0.68311363,10.448985,-0.890892,0.17870426,-0.8692089,-0.19657643
1.1932318000000002,10.475475,-0.51413083,0.25642377,-1.2700586,-0.57560956
1.2188402,9.860874,-0.035845987,0.20265017,-1.4760598,-0.8662418
1.1963633999999999,9.2805,0.2512188,0.106308006,-1.4121808,-1.1409216999999998
1.8005737000000002,9.112983,0.38794687,0.04988151,-1.180087,-1.4102784
2.4622066000000005,9.720852,0.5275384,0.09831439999999998,-0.8058709,-1.5284721000000001
2.536561,10.737994,0.5343954000000001,0.10950196,-0.44655994,-1.4949268
1.9485354,10.84672,0.74215466,-0.0043982295,-0.3879867,-1.5114201999999999
2.392995,10.001778,1.4138048,-0.13428563,-0.5806885,-1.6588831000000002
3.0698933999999998,9.830286,2.4851909,-0.23968607,-0.8378104,-1.7999406000000002
2.8008232000000004,10.155686,2.7310276,-0.37754962,-1.0092192,-1.8989531000000002
2.1419772999999998,10.443527,2.5125232000000004,-0.47390926,-1.070969,-1.9447331
1.9567618000000002,10.837277,2.6909487000000003,-0.5883505,-1.0299711,-1.9133346000000002
1.8645564,10.461319999999999,3.3390975,-0.6596820999999999,-0.9980315999999999,-1.8925653000000002
0.97230446,10.455775,3.8260205000000003,-0.6900334,-1.0949148000000002,-1.8318801
0.07610688,11.188766000000001,3.4378343,-0.67086965,-1.2279962,-1.77493
0.042272027999999996,11.88679,2.8211932,-0.71185,-1.2248023000000001,-1.7488374
0.15733735,12.046445,2.6169295,-0.7310312,-1.2769701,-1.7520313000000003
0.16257587,11.304635000000001,2.3277674,-0.67086965,-1.3504311000000002,-1.7318029
0.2335496,10.366653999999999,1.8616641999999999,-0.6516885,-1.3403082,-1.6125621
0.15217546,9.339933,1.4826523999999999,-0.6197664,-1.3520367,-1.4528644
-0.08290642,8.365714,1.0979139,-0.51223665,-1.4233683000000001,-1.2825203
0.071691975,7.900597599999999,1.1130261000000001,-0.38234928,-1.4600899999999999,-1.1286695
0.44361684,7.991395,1.2613709,-0.2657613,-1.354166,-0.8949874
0.7866868,8.072289999999999,1.1362785,-0.12522738,-1.107167,-0.6059260000000001
1.4436079,8.041319,0.9337770000000001,0.05255186,-0.7701963000000001,-0.28546605
1.4942883,8.018794,1.2637171999999999,0.24684192,-0.56419516,0.0056897732
1.2862992,8.321996,1.381713,0.33414328,-0.6664015999999999,0.17603391
1.0524813999999998,8.470571000000001,1.101055,0.36981782,-0.88891363,0.20532054
1.2522537,8.621282,1.3511628999999998,0.39111084,-0.8851786,0.22394319
1.267634,8.600681,1.653091,0.38685223,-0.53597313,0.2947512
1.1655166000000001,8.576777,1.8790939999999998,0.34320155,0.20820032,0.4118628
0.93220633,8.908566,2.1871223,0.33787829999999996,1.0551213,0.635422
0.7525455,9.973555000000001,2.478899,0.42465606,1.9595509999999998,1.0016793
0.14928326,11.084166999999999,2.8193066000000004,0.5226039000000001,2.8208535,1.3311801
-0.6777985,11.805857000000001,3.1696837,0.5673018,3.5059476000000003,1.6729330000000002
-0.8443871,12.195326,3.6200042000000003,0.5907416,3.8498473,2.0604835
-0.42123583,11.822175999999999,3.7138089999999995,0.5758365,3.855694,2.4932551
0.33860713,10.922108999999999,2.9899461,0.47043604,3.6470225,2.7940104
1.3973423,9.972483,2.2076265999999998,0.34107223,3.1301432,2.7535536
2.0661578,8.985123,1.5829121000000002,0.20268509,2.450355,2.6843687999999997
1.9343234,8.970393,1.8038585999999999,0.08662069,1.8089116000000003,2.6178193
1.6494613,10.038457000000001,2.1540728,-0.0006457718,1.2238772,2.5395763
1.3796827,10.682210000000001,2.0845165,-0.054419365,0.83527964,2.4479987999999997
0.32757467,10.495683,2.1151720000000003,-0.09648179999999999,0.63193136,2.297883
-1.1400806,10.7261095,2.380076,-0.17685421,0.4919385,2.0381080000000003
-2.269598,11.276096,2.4103866000000003,-0.31951743,0.53078955,1.7394824
-2.329405,11.486844,2.235696,-0.43182936,0.63727206,1.3594021
-1.9760784,10.664539999999999,2.0894198,-0.44673450000000003,0.6298195,1.0091318999999999
-1.9015229,8.989385,1.8399153000000001,-0.38606682,0.39132026,0.7488161
-1.5098314,7.667526700000001,1.7610598000000002,-0.27851963,0.037873644,0.5561316999999999
-0.96371406,6.9428115,1.3988363000000001,-0.1656841,-0.18570304,0.31817353
-0.06887639,7.180958,1.1550299,-0.112975165,-0.29323277,0.023788838
0.96896213,8.020403,0.77081805,-0.024068091,-0.58653533,-0.20348793
1.6602831000000002,8.63055,0.12609781,0.030735249,-0.99003804,-0.31155872
2.4348647999999997,9.004382000000001,0.088202395,-0.06824237,-1.444644,-0.49572587
2.9743454,8.829873,0.62129533,-0.17205456,-1.6868607,-0.71291465
2.8513985,8.435089,1.2455307,-0.17844246,-1.7395523000000002,-0.99291784
2.6189597,8.686547000000001,1.6363124,-0.168337,-1.4664606000000002,-1.3027312
2.6900485,9.799275999999999,2.0129778000000003,-0.064001225,-0.94479907,-1.4203838
3.2716286,10.973134,2.3681912,-0.013421582,-0.5774771,-1.4326186
3.2565072,10.917368,2.81583,-0.08155923,-0.55353117,-1.5050149
2.2228248,10.730305,3.3682587,-0.19280653,-0.9282883,-1.6556542
1.283455,10.479947,2.8976257000000003,-0.3530452,-1.3573426000000002,-1.8755133000000002
1.4243584999999999,10.283125,2.5583675,-0.49783772,-1.5979537,-1.9931486
1.842683,10.576634,3.201948,-0.5973913000000001,-1.8268536,-2.0176529999999997
2.4344148999999997,11.507864,3.9271708,-0.66870546,-2.118027,-1.9899546000000001
2.3637187,10.834480000000001,4.461183,-0.7725175999999999,-2.437422,-2.028282
1.0599322,10.240852,4.8541099999999995,-0.8443728000000001,-2.6200185,-2.1091955000000002
0.016213533000000002,10.506581,4.2541614,-0.9210277,-2.5651803,-2.1054779999999997
-0.44934377,11.164776,3.5395398,-0.94338536,-2.447545,-2.1480639999999998
-0.54344547,11.460536,2.9735793999999998,-0.95190257,-2.3708901,-2.177874
-0.23714088,10.605423,2.3353330000000003,-0.88804096,-2.3362803,-2.1720273
-0.23532128,9.175988,1.8726009,-0.80763364,-2.284636,-2.1001372000000003
-0.3871903,8.003232,1.5222238000000001,-0.7171558000000001,-2.151031,-1.9888898999999998
0.10569922,7.458101299999999,1.0805128000000002,-0.6458242,-1.9343833,-1.7935352
0.8612805,7.1035770000000005,0.65185493,-0.49038514,-1.6059298999999998,-1.5603768
1.7042216000000001,7.2267637,0.53571695,-0.2838429,-1.2237376,-1.2968843
2.2194345,7.3880467,0.35408327,-0.11508701,-0.9346761999999998,-0.97747165
2.8669033,8.044709,0.34845212,0.06588618,-0.8521569999999999,-0.6256133
3.1304476,8.568676,0.45562616,0.27775168,-0.9713978999999999,-0.35358626
3.350647,9.217255,0.79166675,0.4747121,-1.0821216,-0.17526597
3.2564783,9.727527,0.9944939,0.56733674,-0.7765668000000001,-0.006510078000000001
3.2420747000000003,10.004114,1.3626263,0.6157696,0.069272116,0.22183135
2.8790082999999997,9.485166,1.9125743999999998,0.66634923,1.0184171,0.51621604
2.5077154999999998,9.328441999999999,2.967498,0.78346086,1.7460971999999997,0.9692162
1.7249648999999998,10.018221,3.6313622000000003,0.9122836,2.359877,1.4169106000000002
0.5726451,10.728945,3.85681,0.9857445,2.9097605,1.7879328
-0.38442259999999995,11.163052,4.2703176,1.0224662,3.256313,2.104675
-0.2510081,11.670833,4.4522862000000005,1.048559,3.3526553999999997,2.4458869
0.46831542,11.610346,3.9404345000000003,1.0134254999999999,3.2105331,2.8611183
1.2473981,10.749841,3.1138797,0.90483105,2.8277997999999998,3.144839
1.8697662,9.556849,2.5794652,0.76588535,2.426409,3.1549443999999998
1.2736483,8.440959,2.8161845000000003,0.55723125,2.1208717999999998,2.986206
0.9234148000000001,8.467257,3.3472089999999994,0.33684856,2.0032191000000004,2.7871162999999997
0.8989365,9.417545,3.5593257000000005,0.18193312,1.8531033,2.6630757000000003
0.7977097,10.21782,3.3586150000000004,0.11431906,1.6023693,2.543311
0.18063773,10.069869,3.3782282,0.0036128315,1.1424576000000002,2.2973769
-0.9066938,10.195871,3.2254112,-0.11028735,0.8523315,1.9630765
-1.7540016999999999,10.870814999999999,2.8525765,-0.17790142,0.7022158000000001,1.5750201000000001
-1.5321933,11.458803,2.480096,-0.21142918,0.6468539000000001,1.196528
-0.7393678000000001,10.587772,2.0108900000000003,-0.17364279999999999,0.5015377999999999,0.8867145000000001
0.12836753,9.158885,1.4016231000000001,-0.09485865,0.20450023,0.66100854
0.45884398,8.164381,1.1780909,-0.021397736,-0.025987952999999998,0.49331729999999996
0.609468,7.725150599999999,1.0938341999999999,0.0025481808,-0.0877377,0.24260077
0.9481709,8.053855,0.98372,0.02755875,-0.32569590000000004,-0.12735668
1.5395195,8.585262,0.267394,0.088784896,-0.74356264,-0.45844564
2.4558284,8.957351,0.28140488,0.085573494,-1.1082143,-0.73314303
2.9236841,8.63307,0.26514345,0.021694442,-1.3621248,-1.0056937
2.996018,8.160761,0.67661095,0.032358404,-1.4675252,-1.3197482
2.805334,8.204641,1.1137061000000001,0.109536864,-1.2562007,-1.5332193
2.6883627999999997,9.194347,1.4307557,0.29159215,-0.8862258,-1.4900923000000001
2.7034178,10.097479,1.6739012999999998,0.4055098,-0.6408151,-1.3729806999999998
3.040598,9.838656,1.9244976999999999,0.32300809999999996,-0.73024577,-1.4528295
3.0889318,9.176888,2.6654456000000004,0.15105824,-1.1837870000000001,-1.7253802
2.573585,9.196771,2.9211366,-0.045361105,-1.7544574,-2.0203059
2.342123,9.286324,2.3312917,-0.21781708,-2.08874,-2.158693
2.4072932999999996,10.085861999999999,2.2477243,-0.44191736,-2.3389332,-2.2710223
2.5690646,11.605557000000001,2.7165952,-0.6399599,-2.4507215,-2.2656991
1.778662,11.589832000000001,3.4884667,-0.7666359,-2.6822917,-2.2459943
0.14846924,11.143858999999999,4.2319427,-0.8603426,-3.050661,-2.2944447999999995
-0.6791105,11.57065,4.105893,-1.0370747,-3.2944660000000003,-2.2433414000000003
-0.6488286999999999,12.118338,3.5162489999999997,-1.1584448999999999,-3.2651793999999996,-2.2060788
-0.6536075,12.355641,3.3644279999999998,-1.209007,-2.9601657,-2.1496522000000002
-0.8898577,11.873852000000001,2.9985557000000003,-1.2111363000000002,-2.6056194,-2.091079
-0.79395556,10.664349000000001,2.192859,-1.1823908,-2.4107882999999997,-1.9808964
-0.37376362,9.216825,1.1537275,-1.0839018,-2.1520957999999997,-1.7754188000000002
-0.03342306,8.173335,0.79296917,-0.93326247,-1.8523878,-1.5454541000000002
0.61802965,7.762988000000001,0.70358884,-0.7836703,-1.5734493,-1.3186835
1.2323722,8.013977,0.27275705,-0.6186669,-1.4217452,-1.1031004
1.8297926,8.218155,-0.34089604,-0.45149922,-1.3312323999999998,-0.94125605
2.8062055,8.716683999999999,-0.29119238,-0.26837927,-1.1348131000000001,-0.7240673000000001
3.1613328,8.946701,-0.43324515,-0.00061086525,-0.98150337,-0.43287656
3.616346,9.400307000000002,-0.09449436,0.33684856,-0.92985904,-0.14809118
3.4150699999999996,9.434888,0.28720844,0.6243043,-1.0341948,0.04511676
2.9752457000000003,9.445701,0.9127175999999999,0.85213953,-0.99267346,0.23942427
2.5574765,9.321173,1.5153476000000001,1.0177015,-0.5412615,0.410292
1.9184164000000001,9.544734,2.3447566,1.1316191,0.31150636,0.6509031
1.1955398000000002,10.060808,3.15302,1.2370195,1.1520395,1.0107725
0.5331887,10.245058,3.600027,1.3413553,1.8642908,1.3258917
-0.10065224,10.249779,3.7235584000000004,1.4031051,2.4802,1.535628
-0.64047766,10.157286000000001,3.743775,1.3956525,3.0732107,1.7576164
-0.75068754,9.926542,3.2975627999999997,1.3615837,3.6119239999999997,2.0503953
-0.38863638,9.50273,2.9115502999999996,1.317933,3.855729,2.3767195
0.39678624,9.349272000000001,2.7128315,1.1960218,4.0106269999999995,2.6811922000000004
1.2548584999999999,9.23138,2.4455047000000003,1.000126,4.163412999999999,2.791916
0.83589244,8.886013,2.344977,0.74356264,3.8818216,2.6519232
0.57325804,9.073909,2.4870105,0.3980747,3.4633964999999995,2.5821972
0.94183105,10.23978,2.5813997000000004,0.15535176,2.9816506,2.502872
1.1992748,11.297836,2.514199,0.03981096,2.31305,2.4001243
0.81720805,11.54349,2.4010107999999994,-0.035744343,1.5353137,2.2782307
0.048851293,11.506418,2.5174072,-0.10388199999999999,0.94125605,2.012609
-0.62941647,11.863519,2.7684536,-0.19544198,0.5925741999999999,1.6713797
-1.0271603999999999,11.593568,2.6584642000000005,-0.21141173,0.39454913,1.3200448999999999
-0.3805823,10.9058,1.8808179,-0.1629614,0.24549802,0.9527403
-0.73766315,10.050513,0.9759437,-0.10548769999999999,0.059707712,0.6466445
-0.7725993,8.728043,0.47535437,-0.05597271,-0.12391838,0.40231586
-0.7048816999999999,7.846928999999999,0.5218977,-0.040002946,-0.26125833,0.18193312
-0.45552079999999995,7.771942999999999,0.30645782,-0.050649453,-0.32459635,-0.044820055
0.3666672,8.361721000000001,0.04358405,-0.06768387,-0.5465848000000001,-0.33386403
1.2945065,8.836779,-0.46092215,-0.03255039,-0.8297819,-0.57873374
2.0971386,8.9536915,-0.5159122,-0.036808994,-1.0922096000000001,-0.7921875
2.5820124,8.674308,-0.05212656,-0.09909979,-1.2609655,-1.0274928
2.7492428,8.2596035,0.34277308,-0.09162979,-1.3322971000000001,-1.2255178999999998
2.8664148,8.093685,0.5842427,-0.046931904,-1.2418017,-1.3617932
3.0123367,8.746229,0.7689505999999999,-0.014992378999999998,-0.94902277,-1.328789
3.1577794999999997,9.805252000000001,0.92216986,0.058468528,-0.57107174,-1.1084062
3.593122,10.30836,1.119567,0.08028515,-0.34269540000000004,-0.89599967
3.6175623,10.139933000000001,1.6260651000000002,-0.03947935,-0.62856287,-0.93273884
3.5084248,10.186007,1.68796,-0.2923252,-1.3455964,-1.2313646999999999
3.452707,10.176095,1.1225263,-0.5180312,-2.1659186000000004,-1.526273
3.5089612,10.13954,0.9386133,-0.7139269,-2.8233492,-1.7365502
3.6072,11.162353,1.507897,-0.9124755999999999,-3.0958824000000003,-1.8142698
3.0978383999999997,11.9746,1.8248127,-1.1142356000000002,-3.149115,-1.7557139
1.6915513999999998,10.995036,2.3414142000000004,-1.2542285,-3.0618136000000002,-1.6742593999999997
0.074632056,10.118126,2.6763727999999998,-1.3591053,-3.028286,-1.6513608
-0.9399827,10.326297,2.460234,-1.4006268,-2.909586,-1.6258266000000001
-1.179604,11.15836,2.1593877999999997,-1.4581004,-2.5257707000000003,-1.5917403
-0.86186475,11.900743499999999,2.2149334,-1.4868635000000001,-2.0141970000000002,-1.5411781
-0.9400115,11.459923,2.3835237,-1.4368074,-1.53671,-1.4826223
-0.6642569,10.388585,1.6967516,-1.3207779,-1.2253083999999999,-1.4442948
-0.38100368,9.364853,1.0261931,-1.172774,-1.0900803,-1.3325065
0.078759655,8.600615,0.7500171999999999,-1.0364986999999999,-1.0107551,-1.1531041000000002
0.8897523999999999,8.216766,0.77595115,-0.8352970999999999,-0.92985904,-0.940715
1.6882952000000002,8.045792,0.5970373000000001,-0.5680523000000001,-0.7211875,-0.7400196
2.3839831,8.066410000000001,0.35885254,-0.35938075,-0.37411132,-0.516984
3.1226133999999997,8.370723,-0.08524316,-0.20502383,-0.1366942,-0.26733208
3.7482474000000003,8.532810000000001,-0.08802043,0.023858652,-0.26551694,-0.07089528
4.024739299999999,8.749907499999999,0.31943437,0.35016540000000007,-0.551908,0.05152212
3.8075947999999995,8.803766,0.8446551999999999,0.60356975,-0.6344097,0.11965977400000001
3.205405,8.480167,1.2367297,0.8053123999999999,-0.31023228,0.27296948
2.6440701,8.417582000000001,1.7241412,0.9383937,0.22261675,0.47364745
2.453693,8.533278999999999,2.494873,1.0416648000000002,0.6623175,0.68924797
2.0490727,9.105158,3.0364606,1.1869983999999998,1.0716671,0.9527578000000001
0.51396805,10.063902,3.2026950000000003,1.3073039,1.5603592,1.1662116000000002
-0.94972235,10.729979,3.744407,1.3360496000000002,2.2752635,1.3461375
-1.4008379,10.892841,4.70226,1.2907932,2.9438642999999995,1.5457683
-0.72733927,10.926561,4.69185,1.2657826,3.5411334,1.8539759999999998
0.13430515,10.565862,3.5601684999999996,1.2434249,3.9212138999999997,2.2127632999999998
0.59035265,10.284504,2.6575255,1.10235,4.11498,2.5353525
0.41983765,9.257660000000001,2.1952817000000002,0.8660148999999999,4.070806,2.6242597
0.60453594,8.469498,2.3479647999999997,0.60515803,3.9387717,2.5231178
1.2704879,8.854944999999999,2.504718,0.35763540000000005,3.4426446000000004,2.3911011
2.0504327,9.841347,2.2276611,0.1649336,2.637245,2.3389332
2.3752777999999997,10.057993,1.7499794999999998,0.08454375,1.7988236000000002,2.1584659999999998
2.0059292,10.048311,1.6531197,-0.028291788,1.1068006000000001,1.8390708999999998
1.0715201,10.65686,1.7942721999999998,-0.12571606,0.6122615,1.4765486
0.14089398,11.561916,1.8061283,-0.16402604,0.36847392,1.1614294
-0.5173008,11.785544,1.3467958999999998,-0.12730432,0.17736036,0.8494691999999999
-0.39223728,11.178614999999999,0.997616,-0.11878711,-0.006806784000000001,0.60514057
-0.53566915,10.183708,0.6885724,-0.11772246,-0.1579872,0.40552726
-1.1813757,9.229351,0.54043835,-0.11559316,-0.28946286,0.21921335
-1.223734,8.644485000000001,0.76742786,-0.07086037,-0.26443484,0.12445943
-0.27134925,8.686489,0.8471069,-0.07620107400000001,-0.14414674,0.027576202999999997
0.7326353,8.846537,0.61385417,-0.04426155,-0.2665816,-0.15180874
1.4547936000000001,8.654446,0.5019492,0.0020594885999999997,-0.6455798,-0.33864623
2.0523192999999997,8.522084,0.71884465,-0.043720499999999995,-1.0836924,-0.43872342
2.3492672000000003,8.422772,0.67072123,-0.20287707,-1.4057405,-0.5388006
2.3949103,8.124149000000001,0.5288983,-0.25558603,-1.6043067,-0.6330309000000001
2.6006392999999997,8.277033,0.6736805,-0.25877997,-1.5494858,-0.85980153
2.7687507,9.137739,0.8732037,-0.30775392,-1.3716716999999998,-1.223371
3.1042259999999997,10.604014,0.9635609,-0.3072303,-1.2838466999999998,-1.4363012
2.9142224999999997,10.901538,1.0841616000000003,-0.3535339,-1.3328207,-1.4043617
2.6821189999999997,10.458725999999999,1.8017709,-0.50099677,-1.6043067,-1.3319653999999999
2.0911245,10.246178,1.8968207,-0.664953,-1.9849279999999998,-1.4671936
1.5781142,10.389294,1.2492370000000002,-0.8438143,-2.2553494,-1.7887006999999997
1.6502081999999998,10.3175535,1.0331459,-0.99925333,-2.375114,-2.0224004
2.194487,11.140641,1.5107222,-1.1616038999999998,-2.404383,-2.0777620999999997
2.9550002,11.362297,1.7646511999999999,-1.3032024,-2.3644674,-2.0554044
2.923981,10.038208000000001,2.2535567000000003,-1.4251136999999998,-2.146214,-2.0112126
1.6888698,9.681836,2.688765,-1.466094,-1.8060668000000002,-1.9734262999999999
0.28018862,10.128181,2.3033080000000004,-1.4602472,-1.4254453,-1.8951832
0.27052563,10.590196,2.0821702,-1.420855,-1.1475714,-1.8440626
1.3201915000000002,10.89448,1.8846486,-1.3553703000000001,-0.95380497,-1.79083
1.9889495,10.529287,1.8898296,-1.2531638,-0.8585275,-1.7258862000000001
1.8267183,9.689286,1.6515394,-1.1903495000000002,-0.9442231,-1.6013222
1.63614,9.130317999999999,1.293501,-1.1041301000000001,-1.3152627000000001,-1.417155
1.8975868000000002,8.973238,0.86424935,-0.9784839,-1.7602693,-1.2659571000000003
2.5489243999999998,8.883216000000001,0.55781066,-0.8118748,-1.9870573,-1.0402511
2.8103235,9.104507,0.59267986,-0.6564358,-1.8305537,-0.735761
2.816989,9.526596000000001,0.6365799,-0.5536882,-1.4536673,-0.5068611
2.8963041,10.046617,0.7151576,-0.40357247,-1.0480353,-0.37271506
2.5610106,10.169103999999999,1.1203618999999998,-0.17200220000000002,-0.6354744000000001,-0.26837927
1.624485,9.92025,1.5684129,-0.05864306,-0.283616,-0.21888174
0.30124804,8.834422,1.9396769,-0.02295108,0.0049043754,-0.2502802
-0.25688827,7.736383999999999,2.7010137999999997,0.025987952999999998,0.30033624,-0.34131658
-0.16836026,7.323978,3.2954557,0.107966065,0.6112143,-0.29873055
-0.290273,7.7398796,3.5200799,0.11328932,1.0392039,-8.726646e-05
-0.26591918,8.572995,3.3594,0.11276572,1.6162447,0.48164105
0.21530578,9.204029,3.4543063999999997,0.15109316,2.2513,0.8771675999999999
0.8509089,9.748576,4.3081174,0.26181683,2.85391,1.0959446000000002
1.132352,10.548623,4.7215095,0.33262485,3.3702657,1.2173148
1.3298736999999998,10.963375,4.2800665,0.35602972,3.3548195,1.2790645
2.472559,10.802791000000001,3.948843,0.43961352,3.0098727000000003,1.3498726
3.172978,8.903088,3.9491975,0.43641958,2.557396,1.4249392
2.3982337000000005,6.937736,3.592308,0.30707324,2.035717,1.448344
1.1463534,5.6831455,2.979517,0.16119862,1.5709883,1.3919176000000002
0.034466926,5.7627764,2.9308092999999995,0.05368633,1.1100119,1.3051572
-0.16584156,7.994249000000001,3.3026574,0.017470745,0.7655887,1.339226
-0.84241426,11.397511,3.8634946000000006,0.00418879,0.5127427999999999,1.4387796
-2.4029453,13.212604,3.940904,0.06272713,0.43874088,1.4009757999999999
-3.4535785000000003,12.279228,4.7390924000000005,0.08241445,0.60376173,1.2034743
-4.214197,10.856269000000001,5.156258,0.07763225,0.7804938,1.0922271000000001
-4.3907074999999995,9.275855,4.529715,0.111177474,0.8188211999999999,1.0453824
-3.9764432999999997,8.004007000000001,3.7579677000000005,0.1564164,0.7112915,1.0294126000000001
-3.075333,7.2081275,3.2310326000000003,0.23094197,0.47600365,1.0230247
-2.4684412,6.9419303,2.9333472,0.29162705,0.31311208,1.0022553
-2.0284824,6.7676134,2.6164315,0.30281463,0.14861478,0.7882604999999999
-1.1414403999999998,7.155282000000001,2.194985,0.28098056,0.013404128999999999,0.40018654
0.22939324,8.294597,1.766509,0.28576276,-0.16863371,0.053651422000000004
0.9185403,8.916592,1.3137655000000001,0.37840483,-0.42519712,-0.17469001
0.61872876,8.234359,1.5394813,0.31930798,-0.68338364,-0.510055
0.25979003,7.5018673,1.8820915,0.27406904,-0.86915654,-0.8384911
0.0031028856,7.394386999999999,2.0697012,0.36082938,-0.780808,-0.90078187
-0.33959356,8.734478999999999,2.055834,0.46622979999999997,-0.63866836,-0.84168506
-0.08406521,10.723974,1.9325709,0.44921285,-0.5503023,-0.8746892
0.79513353,11.821525,1.767869,0.5498135999999999,-0.63175684,-0.8794889000000001
1.2688598999999998,11.843302,1.8776861,0.64296186,-0.8989841999999999,-0.82625633
0.9979033000000002,11.173960000000001,2.5729432,0.48591712,-1.3535901000000001,-0.92261595
0.94242483,11.989645,2.7507653,0.32463124,-1.8332065,-1.0945483
1.2526559,11.671533,1.9890835999999998,0.21497220000000003,-2.23458,-1.2377526
0.73448366,11.098341,2.4026196,0.03132866,-2.4693441000000003,-1.2766036
-0.8389379000000001,11.140948,3.0318637,-0.16934929999999998,-2.5300119999999997,-1.2627631000000001
-2.1668484,11.093132,3.0358381000000003,-0.35192817,-2.386825,-1.1903669
-2.898344,9.806622,3.4927285000000006,-0.45680502,-2.1483432999999996,-1.1696149
-3.8555555,9.040322999999999,4.8414779999999995,-0.5190784,-1.8864391,-1.1408694
-4.4899426,9.784125999999999,4.425519,-0.52920127,-1.6623389,-1.0482447
-4.4235370000000005,10.853854,3.6683574,-0.5238606,-1.5068823,-0.94708544
-3.4259112000000003,11.296475,3.9568779999999997,-0.47436303,-1.3445319,-0.8842711
-2.5109334,11.3266325,3.5135292999999996,-0.40835467,-1.1869636000000001,-0.8310559999999999
-1.4893083999999999,10.532266,2.7098055,-0.36416295,-0.9729687,-0.7506661
-0.5505131999999999,9.323884,1.9229558,-0.29656634,-0.7855901999999999,-0.6484595999999999
0.40239826,8.306683,1.3782365,-0.19435987,-0.6727371999999999,-0.55103534
1.1985852,7.788079700000001,1.0936714,-0.09482374,-0.5699896,-0.46746898
1.4842422,7.531258,1.0443604,-0.029880037999999998,-0.544438,-0.37006217
1.6169577,7.531919,1.0832614,0.08562585,-0.43744934,-0.22046999999999997
1.9696618000000001,7.4912753,0.99610287,0.19634955,-0.0898321,-0.0474555
2.298041,7.697559399999999,1.0716159,0.24319418,0.48452085,0.16119862
2.4196951,8.088217,1.039007,0.3661526,1.0195166,0.45078364
2.319043,8.532053999999999,1.082409,0.53171456,1.1643091,0.72438145
2.123839,8.779738,1.4630391999999999,0.6552140999999999,0.9258273000000001,0.93094116
1.8455368000000003,8.852915,1.8451921999999998,0.74197435,0.7623946999999999,1.0688046999999998
1.5110382,8.713132,2.1295178,0.7627438,0.9306095,1.2002978000000002
1.3643119,8.683281,2.5383612999999996,0.75049156,1.456547,1.4121458999999998
1.4133930000000001,9.464939999999999,3.1559887000000004,0.72493994,2.0697858,1.6974897
1.3617165,10.473761,3.1663702000000002,0.7089701999999999,2.6691844,1.9652406999999998
0.8153406,10.954096,3.1663797000000002,0.6216688,3.210568,2.1212034
-0.1426178,11.242099000000001,3.6863236000000006,0.47635272,3.6699562000000006,2.248438
-0.96890473,11.313887,3.3847406,0.37042868,4.1469197,2.4262345
-0.8480837,11.10403,3.0150852,0.26448720000000003,4.5083776,2.6295830000000002
-0.022792801,10.3286915,2.4220702999999997,0.12608258,4.500925,2.7584057
0.7863708,9.742763499999999,1.8585996999999999,-0.11451105,4.070265,2.8254786
0.9406914000000001,9.593164,1.516066,-0.20235348,3.3255502999999997,2.736589
1.0420426999999999,10.213981,1.4206523000000002,-0.21298252,2.4243147,2.5965786
1.3265122,11.333183,1.2401389999999999,-0.20765927,1.6439431,2.428905
1.4805552,12.111721000000001,0.7961965,-0.24972170000000002,0.98438317,2.2085047
1.3639288,12.112985,0.7200896999999999,-0.2449395,0.5718222,1.9721522
0.79653174,11.814207000000001,0.79517186,-0.24279276,0.30832985,1.7416639999999999
-0.023673866000000002,11.944749,0.8140669,-0.21352358,0.12840387,1.4036461
-1.0091944,11.865768,0.6246472,-0.1762608,-0.08025024,1.007596
-1.5496421999999999,10.823334,0.8486486999999999,-0.07672467,-0.45500734,0.59449404
-1.6321176000000002,9.544005,1.3883784,0.031869713,-0.8888613000000001,0.25169393
-1.592259,8.26465,1.1562557,0.1564164,-1.0762398000000002,0.019058995
-1.0934415000000002,7.787907000000001,0.71746564,0.19582593,-0.91280717,-0.20875883
-0.43561062,7.7807913,0.1429913,0.160675,-0.7792022,-0.40678388
0.49374184,8.256424,0.012871228,0.17133898,-0.89736104,-0.6175673
1.2192233000000001,8.553649,-0.04841076,0.1580221,-1.1922867,-0.8188038000000001
1.8455081999999998,8.314544999999999,0.056780885999999996,-0.018692477,-1.4552555,-1.0556798
2.39673,7.850654,0.43654916,-0.18476056,-1.6516749,-1.2701982
2.7381813999999998,7.7341523,0.9182051,-0.17359045,-1.7144892,-1.4229843999999998
3.3222039,8.750328,1.4051091999999998,-0.12835151,-1.3961587,-1.6002575
4.3053203,10.337253,1.7873290000000002,-0.044244096,-0.82496476,-1.6673305
4.691074400000001,10.843799,1.7017026999999998,0.028134707000000002,-0.39058724,-1.6055633
4.340515,10.23888,2.2419686000000003,-0.020280726000000002,-0.502393,-1.5629947
4.009962000000001,9.76277,2.6639516,-0.24333379999999996,-1.0437591999999998,-1.7051168999999997
3.4724448,9.547722,2.1020324,-0.5563236999999999,-1.7134247,-1.9952254
3.4041238,9.418321,1.5243117,-0.7501076,-2.2287157000000004,-2.1783627999999995
3.3649452000000006,9.646037,2.08534,-0.86828387,-2.5944145,-2.125654
3.3860620000000003,10.815854,2.8276095000000003,-0.9997594999999999,-2.8360903,-2.0149302
3.0012658,10.858566,3.2742624,-1.1557395000000001,-3.0144279999999997,-1.9654328
1.440256,10.042699,3.7879527000000004,-1.281892,-2.9212623,-1.9616977
-0.35289577,10.252794999999999,3.7055730000000002,-1.3867688,-2.665746,-1.8818488999999998
-1.3444782,11.339667,2.934688,-1.4383956,-2.3990598,-1.8339396000000001
-1.4250576000000001,12.445884,2.1533737,-1.4128441,-2.0796645000000002,-1.7524849999999998
-0.9033802,12.042614,1.9423583999999998,-1.2984028,-1.8316008999999998,-1.5943931
-0.5755085999999999,10.824224000000001,2.275095,-1.1929849,-1.6010951999999998,-1.4629
-0.596003,9.485108,1.9406537,-1.1051598999999999,-1.3801889999999999,-1.293097
0.38090792,8.762108,1.3841263000000001,-0.9885894000000001,-1.1672586999999999,-1.0849663999999999
1.1922742,8.384886999999999,0.7223210999999999,-0.8464497999999999,-0.9303652,-0.890659
2.0229855,8.581902000000001,0.38592616,-0.6643945,-0.6423859000000001,-0.7086037
2.5228853,8.55137,0.27708575,-0.43228313,-0.37781143,-0.45839328
3.2266464,8.480894000000001,0.28998572,-0.17252579999999998,-0.25963518,-0.24335125
3.6528528,8.582907,0.57290375,0.122365035,-0.34215435,-0.112399206
3.4367137000000003,8.453600999999999,0.65224755,0.40662682,-0.41400954,-0.042132247000000005
3.6259419999999998,8.264832499999999,0.81065756,0.6557550999999999,-0.26069984,0.07389724
3.1729972,8.246982000000001,1.0254462,0.85165083,0.18963002,0.23678882
2.8471751,8.213645,1.7060411,0.99537873,0.9002757,0.4646241
2.500169,8.284483,2.3580970000000003,1.1061025,1.6966345,0.7574031
1.6497679,8.788281,3.0310497000000005,1.2189553999999998,2.2970977,1.0890505
0.5525626,9.627871,3.6990607000000004,1.3270087,2.7336044,1.4031225
-0.011750742,10.519011500000001,4.2396044999999996,1.363748,3.2041802,1.6623563000000001
0.08516654,10.901078,4.624707,1.3334141000000002,3.7157536,1.9221486
0.6875764,10.838331,4.209246,1.3073388000000001,4.1714244,2.2639015
1.3975913999999998,10.549514,3.46486,1.2535653,4.378507599999999,2.6657984
1.9334999,10.315954,2.7218337000000004,1.1928802,4.2864065,2.9681592
1.8475001,9.963058,2.33427,1.001243,4.0351486,3.1922770000000003
1.1949173,9.002044999999999,2.4144087000000005,0.7553086999999999,3.9164317000000004,3.1928005
0.98357636,8.777516,2.4452367,0.51682687,3.4767308,3.0948527
1.1914889,9.392453,2.2450812,0.35074136,2.7181756,3.0150040000000002
1.2799976999999998,10.056107,1.6654832,0.23043582,2.0240235,2.783451
0.9434783000000001,10.313895,1.43021,0.09416051,1.4741399,2.398571
0.16323668,10.850934,1.6214683,-0.014957472,1.1100119,1.9487473999999998
-0.88761675,11.668697,1.4436653,-0.07138397,0.9226334,1.593695
-1.4859277,12.580879,1.3552521,-0.08094837,0.7256904000000001,1.1933863
-1.4609611,12.096233999999999,0.9389675999999999,-0.12246975,0.46165705,0.8175646
-0.6742934,11.150181,0.80143505,-0.08042477,0.04590216,0.4752706
-0.9814503000000001,10.023957000000001,0.70260245,0.024958208,-0.34746015,0.17825048
-0.97857726,9.235308,0.7893204,0.18092082,-0.5423087,0.039828412
0.24200589999999997,8.871715,0.72118145,0.25598744,-0.5066342,-0.12250466
1.0337684,8.643566,0.45990699999999995,0.22191861,-0.5992588000000001,-0.32318259999999993
1.7031106,8.413934,0.44875,0.18784979,-0.8611629000000001,-0.6042679
1.9794589,8.125777000000001,0.40425617,0.15962781,-1.1438363999999999,-0.86988956
2.4823372000000004,8.023583,0.45826936,0.087231554,-1.4073287,-1.1967374
2.7251475,7.449195,0.36059552,0.022305308,-1.4962183999999998,-1.380922
2.7965136000000004,7.4565787,0.7416949,-0.013892821000000001,-1.3178982,-1.5044215
3.021243,8.211269,1.0623553,-0.030927233,-0.9335591999999999,-1.5161326000000002
3.3448434000000002,9.683656,1.1078738000000001,0.038798667,-0.5257979,-1.331948
3.6116532999999995,10.270273,0.72166985,0.040927973,-0.26389378,-1.0971838
3.6781259,9.976714999999999,1.0399646,-0.071907565,-0.2809282,-1.0503391000000002
4.0083437,10.196541,1.8148528000000002,-0.2928139,-0.54815555,-1.2760451000000002
3.8725734,10.348056,1.7384968999999997,-0.53661895,-0.9351474,-1.6635779999999998
4.348397,10.337607,1.595927,-0.7282561,-1.3972058,-1.9867082999999999
4.137956,10.977223,1.7644978999999998,-0.9055291999999999,-1.8118961,-2.1267009999999997
3.9597032,11.217554,1.9719124,-1.1110067,-2.232957,-2.1171193
3.0131984,10.120299000000001,2.4939156000000002,-1.2483467,-2.6311362000000003,-2.030359
1.648609,9.634267999999999,2.7685974,-1.3292602,-2.8004158,-2.0207772
0.62218595,9.996645,2.1457124,-1.4330724,-2.68758,-2.0159773999999997
0.35720533,10.863575,1.5706921999999999,-1.5533605,-2.1823945,-1.956357
0.24103865,11.379746,1.1534018999999998,-1.5118392,-1.8033789,-1.9505101000000002
-0.114519455,11.030308,1.387574,-1.3537471,-1.7277886999999998,-1.9558334
-1.2525601,10.332780999999999,1.6902394,-1.2297066,-1.6468753,-1.8690556
-1.692509,9.66206,1.7048727,-1.1205886999999999,-1.549451,-1.6901941999999999
-1.7885262,9.214190499999999,1.8661269,-1.0018713,-1.4903716,-1.4756757999999999
-0.77297276,8.983543,1.9060718999999997,-0.8336565,-1.3045813,-1.2414353
0.43519880000000005,8.680781,1.2004048999999999,-0.5669702,-0.9010786,-0.99977696
1.5233729999999999,8.899017,0.40008068,-0.25715682,-0.30168015,-0.6952868000000001
2.0864701,8.913910000000001,-0.16104358,-0.008028515,0.20081758,-0.34234634
2.9506526,9.148092,0.34186327,0.23310618,0.21039943,-0.1155757
3.0896790000000003,8.95328,0.29712042,0.50352746,-0.15049975,0.03185226
2.821586,8.728906,0.32963368,0.70155257,-0.39165187,0.12447688
2.7280874,8.662164,0.44357854,0.825052,-0.14784685,0.25277603
2.778222,8.323357000000001,0.779734,0.8953190000000001,0.4738918,0.45877725
2.8893225,7.9735727,1.4963186000000002,0.92725855,1.1637856000000002,0.7515562
2.471927,8.04673,2.507275,1.0129716,1.7892766,1.0970441
1.174289,9.114889,3.4048612,1.117831,2.3444834,1.420698
-0.56204367,10.456849,4.21753,1.1992681,2.9486814,1.7129359
-1.6950086,11.244023,5.0130944,1.2663411,3.4873947999999997,2.0988805
-1.7567216,11.794527,4.956342,1.3169208000000001,3.8185012,2.573715
-0.68940556,11.440605999999999,3.6647089,1.2418541,3.754081,3.0144804
0.33815706,10.692342,2.7454216000000002,0.9735620999999999,3.5155992999999994,3.1331801
0.4431859,9.858001,1.9294871999999998,0.68451816,3.1419067000000003,3.0357733
0.5462323,9.100954,1.8684541000000001,0.48968703,2.7671497000000005,2.7887743
0.9423961,9.1998825,2.1903977,0.31934288,2.2869919999999997,2.6040487
1.4682491000000002,9.516741,2.4776924,0.10002482,1.6567363999999998,2.3985884
1.3817992000000001,9.251138000000001,2.6790352000000004,-0.06551966,1.1004475,2.122303
0.45924620000000005,9.439782000000001,2.9409702,-0.09318313,0.67830473,1.7464811999999998
-0.8951633,10.573839,2.756933,-0.10330604,0.43717006,1.4223037
-1.5769266000000002,11.6613035,2.070362,-0.12833406,0.32857567,1.1577293
-1.265623,11.897727,1.4870098999999999,-0.13898057,0.24127431,0.9724799999999999
-0.5411854,10.793425,1.1009592,-0.16451474,0.18165387,0.7728666999999999
-0.5620245,9.581337,0.8525273000000001,-0.21457078,0.09861110000000001,0.5657833999999999
-0.84310377,9.0775585,0.30119058,-0.22841124,0.007051130300000001,0.34327134
-0.59854084,9.209584,0.10707828,-0.18954276,-0.06000442,0.09894271
0.35794273,8.994297999999999,0.28879818,-0.15599753,-0.045622908,-0.09054768
1.0865462,8.72879,0.35009933,-0.19858356,-0.10843731,-0.35938075
1.3710539,8.599092,0.19888155,-0.21563543,-0.18989182,-0.63831925
1.8519629000000002,8.892602,0.33654815,-0.18315485,-0.27080529999999997,-0.8799950000000001
2.309993,8.969244,0.37771884,-0.11449360000000001,-0.44008476,-1.1360348
2.680165,8.887324000000001,0.41670603,-0.032515485,-0.5827479999999999,-1.3947624
2.9427037,8.483672,0.6972873,0.021240657000000003,-0.6248104,-1.5012275
3.2748847000000003,8.383316,1.3159298000000001,0.08670796,-0.5348387,-1.3005321
3.4021797,8.928543,1.6152338,0.08937831,-0.45659557,-0.972096
3.6045952000000003,9.85827,1.6347513,-0.014957472,-0.43210859999999995,-0.8331504000000001
3.9313655,10.448219,1.5514139,-0.22626448,-0.61362284,-1.0375633
3.7985062999999997,10.649552,1.7534368000000002,-0.41898373,-1.0565176,-1.3622818
3.6223412000000006,10.740494,1.8710111,-0.53129566,-1.6037481000000002,-1.6082162
3.696389,11.397511,2.256765,-0.6239203000000001,-2.0338671,-1.6295091999999998
3.5538190000000003,11.992154,2.6887078,-0.7245210999999999,-2.3772082,-1.5736063
1.9669898999999997,10.783542,3.098825,-0.80969316,-2.6359183999999996,-1.5331496
-0.19778020000000002,9.253322,3.4695910000000003,-0.87198395,-2.8350255,-1.504404
-1.3185826999999999,8.900924,3.2760916,-0.9369101999999999,-2.9169862,-1.4735291000000001
-0.80583084,9.941951,2.7200333999999997,-1.0322052,-2.8531072,-1.4261434
-0.0930291,11.320283,2.2766464,-1.0971488999999999,-2.6220779999999997,-1.3734520000000001
-0.3337613,11.559942999999999,2.2928407,-1.136541,-2.290448,-1.3180901000000003
-0.9340930000000001,10.705653,2.2924674,-1.1376231,-1.9087793999999998,-1.2845623
-1.5042098999999998,9.671043,2.1890473,-1.0641447,-1.5824552,-1.165845
-1.0999633,9.077328,2.1337316000000004,-0.96514964,-1.436598,-1.1014423
-0.37564066,8.608783,2.1676528,-0.84802055,-1.3769776000000002,-1.0173174999999999
0.3731507,8.193629,2.0864224,-0.6771528,-1.2364436,-0.8751953000000001
1.1630937,7.970776600000001,1.7316113000000002,-0.48551568,-0.9324945,-0.7314675
1.9013121,7.7776312999999995,1.2102306999999999,-0.32208306,-0.5417502,-0.6250024000000001
2.553368,7.6699686,0.85277635,-0.17090264,-0.21066125,-0.50843185
3.174721,7.9001284,0.5688432,0.04626868,-0.20373228,-0.3758741
3.4356699999999996,8.265896000000001,0.5770409000000001,0.28633872,-0.37140608,-0.25343925
3.6009846,8.379169000000001,0.6452182,0.49235737,-0.45818383,-0.15123278
3.7346003,8.589858999999999,0.77032,0.673348,-0.11110766,0.023352506000000002
3.7966006,8.658649,1.114003,0.7979122,0.4079009,0.30174997
3.5787089999999995,9.089615,1.6183463,0.8910779000000001,0.9125454,0.601999
3.3286394999999995,9.945274000000001,1.9503071,0.9639976999999998,1.4299657,0.85856235
2.4496607999999997,10.961422,2.5091999,0.9884847,2.0746029999999998,1.0800272
1.1514673999999998,11.61275,3.4502075,0.9549394,2.7101995999999997,1.2876166
0.25967512,12.120263000000001,4.2165623,0.9017069,3.175993,1.5154518999999997
0.32073686,12.236419999999999,3.9823332000000002,0.8655088,3.3905114999999997,1.7730974
1.0273902,11.752638000000001,3.6812193,0.8740434000000001,3.3569837,2.1196501
1.1040908999999999,10.737219,3.2571583,0.86498517,3.0785687000000004,2.3756897
0.7190458000000001,9.208827000000001,3.068361,0.7595847,2.4908813999999997,2.4848251
1.1665317,8.289981,3.0328022999999997,0.6355441999999999,1.9633558,2.4768317000000004
1.9387574,8.458829,2.9203994,0.5567774999999999,1.5550535,2.3852892000000003
2.3809378,9.106317500000001,2.458395,0.5056568,1.3085955,2.2782828999999998
2.2149622000000004,9.232942999999999,1.9863254000000001,0.45083599999999996,1.1206758999999997,2.1425312
1.5616419,9.251837,1.7489165,0.33691835,1.111094,1.9184310000000002
0.5406873999999999,9.467746,1.7009463,0.20703095,1.1946778,1.6118115
-0.49069643,10.279542999999999,1.7057442999999999,0.15805702,1.1451628,1.2695351000000001
-1.1413351,10.815883,1.4853245000000002,0.17563248,0.7933045,0.9054245000000001
-1.2296045,10.293689,1.2147318,0.1969255,0.31740558,0.60252255
-0.81681544,9.161824000000001,1.3357347,0.19638444,-0.101525806,0.35552356
-0.08836519999999999,8.461932000000001,1.4720318000000001,0.25068164,-0.3639535,0.13672909
0.26541162,8.133898,1.2098666,0.31349605,-0.50715774,-0.131528
0.90812075,8.514327,0.85395426,0.3321187,-0.62214005,-0.410484
1.5604353000000002,8.782583,0.47541183,0.31508428,-0.68069583,-0.6074444
2.1966702999999996,8.939202,0.417702,0.29911453,-0.9000139000000001,-0.7463725999999999
2.4697533,8.97207,0.3652594,0.22778292,-1.1943986,-0.82889175
2.2703450000000003,8.830859,0.15682021,0.2027549,-1.2753121,-0.99604195
2.0627005,8.628464,0.11555375,0.29539698,-0.97347486,-1.1424226999999998
2.2259755,8.641239,0.47850516,0.38802159999999997,-0.6945363,-1.105701
2.9480667,9.182999,0.96009403,0.31669,-0.7301934,-0.90074694
3.7502582,9.898089,1.2532401000000002,0.113882735,-1.3263979,-0.8602902
3.7951546,10.17892,1.5296172,-0.096918136,-2.2260277000000004,-1.1216707000000001
3.4410519999999996,10.144366,1.8404515,-0.38702676,-2.912204,-1.3792988000000002
2.9808192000000004,10.274171,1.7281731,-0.7458140999999999,-3.1171405,-1.4634061999999999
2.908505,11.58106,1.8101505,-1.0412459,-3.0319686000000003,-1.4277492
3.2729695,13.026506,2.429205,-1.2462,-2.8994281,-1.3670639999999998
2.040492,12.113655,3.1469865,-1.3750228,-2.7801874,-1.2808273000000001
-0.42122626,10.523579,3.22114,-1.4873521,-2.6646813999999996,-1.2680514999999999
-2.1069357,10.38665,3.2504543999999997,-1.6065756000000002,-2.6385887,-1.2345062
-1.7581581000000002,11.443164,3.4487517,-1.7050645,-2.4373697999999995,-1.123259
-0.8194969000000001,12.211893,3.1090431,-1.7540384999999998,-1.9737055000000001,-1.0519273999999998
-0.41440758,12.083124,1.912019,-1.7790664,-1.5137938,-1.088143
0.14607503,11.231286,0.91654825,-1.7849133000000001,-1.0719463,-1.130188
0.7451905,9.842429,0.5546982,-1.764144,-0.7291287,-1.2004374
1.2787431,8.854495,0.49149129999999996,-1.6805601000000003,-0.508746,-1.2366356
1.4984255,8.069513,0.29756096,-1.4772292,-0.46883035,-1.1786208
1.9540133000000002,7.804274,0.22179884,-1.1823384,-0.51780427,-1.0588563999999998
2.0638976,7.569172999999999,0.09347921,-0.8256629000000001,-0.508746,-0.90448195
2.5681548,7.4685683,0.19212031,-0.508397,-0.3596949,-0.7367906999999999
3.3037207000000004,7.752625999999999,0.24558763,-0.19645426,-0.22076669999999998,-0.49778536
3.6802232000000004,8.226104,0.13606727,0.17189747,-0.29368654,-0.26515043
3.7666730000000004,8.635034,0.19687998,0.5354845,-0.39856339,-0.131528
3.7787205999999998,9.238017999999999,0.43034340000000004,0.8064294,-0.18722147,-0.037315138
3.4385335,9.231036,0.6971628000000001,1.0065837,0.4589867,0.18837339
3.0588896,9.018211,1.2375053,1.1998266000000002,1.1547447,0.51576227
2.435047,9.224878,1.7978538,1.3988988000000002,1.7387145,0.7888364999999999
1.8558128,9.707828,2.0705824,1.5585965,2.3285310000000004,1.000702
0.8660976,9.961363,2.5197632000000003,1.6246048,2.9875498,1.2540889
-0.17926826,10.053263000000001,3.2426779999999997,1.6629148,3.7178828999999998,1.6506625
-0.42081445,10.578128999999999,4.058191000000001,1.6725141,4.3231459999999995,2.1366843999999996
0.16577452,11.002880000000001,3.7141154000000003,1.5985296,4.556304,2.5960723999999997
0.8635790000000001,10.434927,3.1537382999999997,1.4079571000000002,4.4328046,2.9016273
0.70149153,9.609885,2.8068566,1.1114431999999999,4.228915,3.097523
0.7829614,9.451369999999999,2.7075644,0.84582144,3.8685398,3.0033102
1.5446049,9.899689,2.6127157000000003,0.59561104,3.5310454,2.7877097
2.1692327999999996,10.060694999999999,2.2112846,0.23097688,2.867768,2.649305
2.11748,9.466904,1.9366313999999998,0.008464847,1.8872246,2.5172884
1.6096888999999999,9.374794,2.1262617,-0.06550220400000001,1.0072993000000001,2.3080933
0.60644174,10.108262,1.9479895,-0.120881505,0.30195943,1.9013791000000002
-0.32731609999999994,11.239359,1.448559,-0.15866788,-0.26335272,1.4073986
-0.8652931999999999,11.507903,1.0690494,-0.15866788,-0.515675,1.0629753
-0.24938963,10.315178999999999,0.68231875,-0.13791592,-0.49918163,0.7904247
0.10270168,9.855663999999999,0.7913986,-0.10808824,-0.32723179999999996,0.6323328
-0.46827713,9.671952000000001,0.04050989,-0.07827802,-0.07703883,0.49019316
-1.1668477,9.499292,-0.5196375,-0.05326745,0.18697712,0.35445893
-1.1265295,8.956259,0.0947242,-0.032515485,0.24659757,0.1452463
-0.10536403,8.8111315,0.3741946,0.0042062434,-0.004642576,-0.09428269
1.3888955,8.8869705,0.11607089999999998,-0.020263273000000002,-0.339484,-0.364704
2.4936664,8.897074,0.14905342,-0.11288789999999999,-0.6162757,-0.70113367
3.0313275,8.616359,0.07654741400000001,-0.09424778,-0.8467814,-1.03224
3.620215,8.862349,0.030569167999999997,0.023369959,-0.8643569,-1.26114
3.8552489999999997,9.261146,0.025072081,0.13091715,-0.65301496,-1.2728336999999998
4.034785299999999,9.730466999999999,0.25933036,0.26343998,-0.37461746,-1.06685
4.1232557,9.679806,0.6027834,0.29059732,-0.33416075,-0.93535686
3.8512843,9.312133,1.2306386999999999,0.17667969,-0.6386509,-1.0737615
3.5764012000000003,9.726502,1.5736513,-0.043685592999999995,-1.0011557,-1.3979563999999998
3.4560779999999998,10.418080999999999,1.3008657,-0.30400145,-1.2699888000000001,-1.7791013999999998
3.6084452000000007,10.493298,1.3006741000000002,-0.48445103,-1.4025291000000002,-2.0005311999999997
3.6378267,10.752742999999999,2.2394118,-0.639349,-1.4887658000000001,-2.0356648
3.2310232999999995,11.011316,2.868292,-0.7889411999999999,-1.6298409,-2.0026605
2.0294689999999997,10.144271,3.3461077000000006,-0.9049881,-1.8624583,-2.0159773999999997
0.9551907,10.053597,3.4765148,-0.9864426,-2.0434490000000003,-1.9973372999999999
0.87516695,11.132406,2.8435933999999996,-1.0396577,-2.0178974,-1.9483633999999999
1.2554045,12.613335000000001,2.056131,-1.0785263,-1.9667941000000002,-1.9308053
1.4307365,12.654141000000001,1.4700207,-1.1008838,-1.8145490000000002,-1.8844843
1.0969657,10.807349,1.3997078,-1.0593625,-1.7075603,-1.8376572
0.3812718,8.980066,1.446998,-1.0114531999999998,-1.6963727,-1.7082933
-0.20667706,7.887688000000001,1.2744621999999999,-0.9720610999999999,-1.6516575,-1.5459254
0.09346006,7.3918586,1.0366031,-0.90605277,-1.4589556000000001,-1.3569586
0.60363567,7.417619999999999,0.68119824,-0.77616537,-1.003285,-1.1051773999999999
1.108209,7.717239999999999,0.36031777,-0.6287024999999999,-0.5268451,-0.8326093000000001
1.948114,8.333153999999999,0.0142598655,-0.463158,-0.311262,-0.58402205
2.4939442,8.976235,-0.12858778,-0.24863960000000002,-0.40175733,-0.35246924
2.7971556,9.071277,0.0046255975,0.02443461,-0.67643726,-0.11025245
2.672293,9.3146515,0.36763448,0.21659537,-1.0016968000000002,-0.012304571
2.4300954,9.188381,0.62732875,0.37151077,-1.1949222,0.031869713
2.5548333999999997,8.954554,1.0046165999999999,0.5391845999999999,-1.0677052,0.097337015
2.3833704,8.88718,1.3897288,0.62861526,-0.5774246999999999,0.17879152
1.8948479,9.096587,1.8252531000000003,0.6781302,0.29344222,0.3384717
0.95272946,9.504138000000001,2.1553178,0.76810193,1.2282057,0.66479594
0.06490202,9.759675999999999,2.6358917,0.87613785,2.014965,1.0608286
-0.74735487,10.597445500000001,3.2292416,0.9309761000000001,2.7038116000000003,1.3919523999999999
-1.1357901000000001,11.601467999999999,3.2063916,0.90277153,3.2744646,1.6389513999999998
-0.556968,11.81868,2.6304328,0.9091594999999999,3.672644,1.9349243999999999
0.5129720999999999,11.362508,2.3337336,0.92567027,3.8882269999999997,2.25699
1.5103389999999999,10.683857000000001,1.8290743999999999,0.8303753,3.7897556000000003,2.5348463
2.3671856,9.728494,1.4101848999999997,0.6616194000000001,3.3782592000000005,2.6333354
2.4345872,8.334887,1.5918376,0.49288097,2.7767315,2.5380404
1.8645755000000002,7.888215,2.1939986,0.31880185,2.4844937000000002,2.3128755
1.4834187,8.883216000000001,2.2701244,0.22937118,2.2678285,2.0477773999999997
1.2152967,10.297939999999999,1.8312960999999999,0.10161307,1.8174811999999998,1.8316531999999999
0.82184327,10.901471,1.6540773999999998,-0.11979939999999999,1.05095,1.6772789000000001
-0.0072783735,11.410143,1.8468585,-0.17517869,0.37967893,1.5250337999999999
-0.9842468000000001,12.230138,1.6598808999999997,-0.177308,-0.11164871,1.3056983
-1.7184143,12.2344475,1.1032481,-0.1820902,-0.33629003,1.0453999
-1.358154,11.296591000000001,1.1779758999999999,-0.1820902,-0.45392522,0.75742054
-0.615578,9.941654,1.4116309,-0.15388568,-0.49118802,0.52159166
0.26975948,8.646832,1.2444965000000001,-0.16079718,-0.39749873,0.29110345
-0.04562391,8.050858,0.8818610999999998,-0.18849556,-0.13774139,0.10744247
-0.320756,8.044316,-0.090309285,-0.17889625,0.00012217305000000001,-0.050631999999999996
-0.38566756,7.8833975999999994,-0.090156056,-0.14376277,-0.23408356,-0.26356217
0.28426835,8.185364,0.43155962,-0.093724184,-0.62906903,-0.5116258
1.3098006000000002,8.673781,0.41749132,-0.12301081,-0.9756041,-0.77991784
2.0577587999999998,8.607766999999999,0.23173958,-0.16079718,-1.2375083,-0.98274255
2.5221095,8.614395,0.32852277,-0.11608185,-1.3482319,-1.1291233
3.1267986,9.058079,0.55720735,-0.12620476,-1.1800171,-1.2387823
3.7173526,9.988045,0.51409256,-0.043161992,-0.8239001,-1.1450931
3.6087897000000004,10.901527999999999,0.6920105,0.04944518,-0.4927937,-0.89170617
3.0734367000000002,11.026688,1.1879071,-0.046355944,-0.5263215,-0.73839647
2.8256464,10.504895,1.7999224999999999,-0.24331635,-1.0501296999999998,-0.8618959
2.9373887,10.420906,1.9326667000000002,-0.42589524,-1.7852799,-1.126994
2.7875210999999998,10.004066,1.5330934999999999,-0.6239203000000001,-2.4373697999999995,-1.3346008999999999
2.7046914,10.029186,1.8738939,-0.84377944,-2.9031632000000003,-1.4256372
2.874852,11.229352,2.2548880000000002,-1.0566921,-3.028251,-1.3633465
2.4088447,10.567834,2.6634152,-1.25367,-2.8568423,-1.3239545
1.2147126,10.047075999999999,3.6010134,-1.3654583999999999,-2.5635395,-1.313849
-0.34589509999999996,10.50207,3.2971125,-1.4213438,-2.0807116000000003,-1.3111786
-0.9073353999999999,11.009411,2.6077166000000003,-1.4367725,-1.6820087,-1.30692
-0.7486573000000001,11.382571,2.3994114,-1.4197556,-1.47599,-1.2627457
-0.6433316,11.005877,2.3404182999999996,-1.3723698999999998,-1.394012,-1.2238772
-0.5308328,10.0264,1.8809136000000002,-1.320743,-1.3365208,-1.1823559
-0.17198987,9.02232,1.2391047,-1.2850685,-1.2449608,-1.1381642
0.7364086,8.353676,0.785528,-1.2515406999999998,-1.1837521,-1.0684382
2.0575194,8.1374035,0.5274139,-1.1759505,-1.1241317,-1.0343693
2.5619009999999998,7.998434,0.49645209999999995,-1.0391341,-1.0181901,-0.95026195
2.9954047000000004,8.18952,0.5079347,-0.8336565,-0.91704834,-0.678776
3.0034878,8.363349000000001,0.7403063,-0.5733581,-0.8478635,-0.34927529999999996
2.7773217999999997,8.385711,1.0950695,-0.29972538,-0.90587825,-0.15123278
2.7938132,8.589045,1.388436,-0.045291292999999996,-0.9910503,-0.11664035
2.6047572999999997,8.683558,1.4465383,0.16177456,-0.918113,-0.12995721
2.3888578,8.694600999999999,1.3252864,0.29804987,-0.653556,-0.10332349
2.490688,8.963566,1.6660675,0.42526692,-0.2378011,-0.026686084
2.7530158,9.160178,1.9704853999999998,0.5003161,0.34081045,0.03185226
2.2757654,8.869971000000001,2.3795874,0.5817706,1.0695727,0.17505652
1.3581733,8.90575,2.7163942000000003,0.7489208,1.8105696,0.5695009
0.7577552,9.591086,3.3453128,0.9661270000000001,2.4536187999999997,1.024648
0.8061756,10.433721,4.013381,1.1327361,3.098256,1.3483018
1.1482495000000001,11.48736,4.276341400000001,1.230143,3.6758379999999997,1.600083
1.6472874,11.355315,3.6662025000000003,1.3446016,4.086793,1.8763685
2.2808794999999997,10.332139,2.8957295,1.4718187,4.206034,2.1787292999999996
3.1387506000000003,9.824856,2.1599242999999997,1.5463443000000001,4.0426016,2.5013187
3.6133196000000005,9.034367999999999,1.565128,1.5037582,3.7178828999999998,2.7419298
3.2759862,8.093455,1.8009377,1.3786705,3.2957574999999997,2.8239078999999996
2.0251403000000003,7.805011299999999,2.4226544,1.1763868,2.9545282999999998,2.7392592000000002
1.5304503,9.00353,2.8883936,0.94694585,2.7714083,2.5838202999999997
1.4425831,10.180251,2.8876274,0.7718195,2.5515666,2.4385042
1.0082366,10.662510000000001,3.0451467,0.6291563,2.1938438,2.2985113
0.2813091,10.973632,3.3764467000000002,0.49925143,1.8387741999999998,2.0541654
-0.8183669,11.104939,3.2736015,0.37631044,1.5236549,1.7555394
-1.5560874,11.106941,2.7248888,0.2762158,1.2952787000000001,1.4494436000000002
-1.343061,10.562211999999999,1.9935656000000002,0.22406536,0.99824107,1.1247251
-0.48026729999999995,9.594035,1.5940976999999998,0.17400932,0.65488243,0.8276875
0.37056497,8.617602999999999,1.0022701999999999,0.17083283,0.39139009999999996,0.55887187
0.9633502,8.047716000000001,0.7266402,0.16442747,0.25989696,0.2777866
0.97528285,7.867921400000001,0.57787406,0.18306759,0.27586675,0.06592108
1.5171194,8.197182000000002,0.5102140000000001,0.21659537,-0.14145893,-0.27207938
2.2342596,8.753891000000001,0.40202478,0.24321163,-0.7009241999999999,-0.56059974
2.708206,8.945791,0.21576546,0.14688691,-1.1454072,-0.8113163000000001
2.9475496,8.707241999999999,0.37329435,-0.021327923999999998,-1.4078524,-1.0194643
2.949666,8.252889999999999,0.34709218,-0.08201302,-1.5521038999999999,-1.2441056000000001
3.0042443,8.473932000000001,0.7487148,-0.10437069,-1.4009409,-1.4964278999999998
3.6988597000000003,9.717433,1.167384,-0.061243605,-1.0373539,-1.59277
3.7695269999999996,10.993293,1.353969,-0.0069638634999999996,-0.71371746,-1.511333
3.4322220999999997,10.912619,1.8439088,-0.12301081,-0.62268114,-1.4192319
3.241749,10.39886,2.4196186,-0.35404003,-0.7786436999999999,-1.4591651
2.8327236,10.432982,2.2686593999999998,-0.5717524,-1.1246552,-1.6337678
2.5778751,10.431595,1.6136919,-0.7229328,-1.5574446000000002,-1.8498918999999998
2.6533884999999997,10.803491000000001,1.6086067,-0.87676615,-1.8922685000000001,-1.9334582999999999
3.2547447999999997,11.838035000000001,2.0715878,-1.0332873,-2.0583541000000003,-1.8685321
3.1390762000000003,11.088285,2.49879,-1.1227004999999999,-2.2622259,-1.7934653999999999
2.0371017,9.568686,3.2828336000000005,-1.2137368999999998,-2.4932725,-1.7434268
0.71266764,9.436334,3.1076259999999998,-1.2983854,-2.6093197,-1.6720952
-0.095049806,10.317725,2.498924,-1.3095553999999998,-2.4916669999999996,-1.6039575000000001
-0.061320294000000004,11.040784,2.2094840000000002,-1.3196609,-2.2941830000000003,-1.5640243999999999
0.00082360534,11.200411,2.3732476000000005,-1.256864,-2.0104446,-1.4607707
-0.28613582,10.596746000000001,2.4169943,-1.1519871000000002,-1.7639868000000003,-1.380922
-0.6798861999999999,9.708737,2.0400515,-1.0817201,-1.5084707,-1.2462349
-0.6529371,8.884509,1.9167883000000001,-0.96993184,-1.2481548,-1.0865372
-0.08388325,8.515044999999999,1.7734523000000002,-0.7921351,-0.98464495,-0.89968234
0.46051034,8.461271,1.4400836000000001,-0.54833007,-0.6785666,-0.6894225
1.0789423,8.420580000000001,1.1369298,-0.2837731,-0.37727037,-0.47808059999999997
2.0574619999999997,8.35608,0.98398817,-0.004276057,-0.17231636,-0.2550275
2.3059225,8.221459,0.6211420999999999,0.2629164,-0.16753416,-0.08948303
2.655457,8.467505000000001,0.7519901,0.56421256,-0.43476152,0.022287855
2.8131487,8.503333,0.7640185,0.8708495,-0.69985956,0.1362055
2.7331824,8.322102000000001,0.8883446,1.100273,-0.6838898,0.23254767
2.6832201,7.877890600000001,1.3719542,1.2120614,-0.37301177,0.30761427
2.4766772,7.500507400000001,1.901044,1.2583649,0.1662077,0.43537238
2.2265215,7.5805407,2.480326,1.2738111,0.7901104999999999,0.6099751
1.5043440000000001,8.600375,3.0845265,1.3387374,1.5135319999999999,0.82501715
0.5690634,9.894785,3.5181167,1.3855995,2.3285310000000004,1.0321004
-0.21566011,10.843129,3.8339214,1.3312848,3.083351,1.2349252
-0.35177526,11.147911,4.048164,1.2370719,3.6710382000000004,1.5245101
-0.06821559,11.307057,3.9133226999999997,1.1827748,4.0814699999999995,1.8774331999999998
0.6695146,10.702331,3.0372939999999997,1.1380594,4.2076225,2.2149273999999997
1.4624168,9.780707000000001,2.3327377,0.9128944999999999,4.158125,2.4395688
1.9435267,9.179762,1.6964548,0.60147536,3.7487578,2.455015
2.6173317000000003,9.366021,1.4438089,0.34170055,3.2755291,2.2974467
3.2919602,10.308484,1.5161712,0.15538666,2.5686011000000004,2.1590421
3.4018349999999997,11.224898,1.2556056,0.055309486,1.7434967000000001,2.060553
2.8548174,11.350202000000001,1.0144520000000001,-0.01972222,0.94394386,1.8838211
1.9440726000000002,11.278049000000001,1.2176813999999998,-0.10808824,0.32805207,1.6293696000000002
0.7914273000000001,11.597054,1.5612015,-0.21774727,-0.04668756,1.3451078
-0.37164715,12.195988,1.3965954,-0.27843237,-0.19148007,1.0470055
-1.1033247,11.994117,0.77638215,-0.31782445,-0.1669931,0.7941597
-0.9069715,10.971237,0.9855013000000001,-0.34924040000000006,-0.116430916,0.5780356
-0.7368682,9.401245,1.2290968999999998,-0.3141069,-0.11004301,0.32676053
-1.2521962,7.8170304,1.3264643999999999,-0.25501007,-0.042970005,0.11491248
-0.6827018,7.274293400000001,1.2745006,-0.22626448,0.09435249999999999,-0.03359759
0.10551726,7.453035400000001,1.082773,-0.16345008,-0.11323696400000001,-0.26460937
1.1387589,7.7654977,0.57048076,-0.093724184,-0.5763600999999999,-0.5238606
1.9379529999999998,7.84623,0.3226139,-0.15280357,-1.0101966,-0.83154464
2.5607903,7.8263774,0.38653907,-0.16877334,-1.3082988000000002,-1.0923841
3.0936627,8.044834,0.45612416,-0.050073497,-1.3386501,-1.2861506
3.5282297,8.777555,0.7324438,0.09684832,-1.012867,-1.342036
4.11275,10.336793,1.0204949,0.23097688,-0.65940285,-1.1951317
3.876519,11.475399000000001,1.0791241000000003,0.22725932,-0.5082224,-1.0636386
3.2844906000000003,11.034177,1.3056444,0.078731805,-0.7254111999999999,-1.2041725
2.9118470000000003,10.347338,1.8387661,-0.12884021,-1.2167388000000001,-1.5171798
2.5547857000000005,10.415189999999999,1.5405156999999998,-0.32047737,-1.6761443999999999,-1.7796075
2.4975069,10.22712,1.2860215,-0.4966858,-2.0104446,-1.9643331999999998
2.6482935000000003,10.550644,2.0366802,-0.6436076000000001,-2.2105992000000003,-2.0207596000000003
2.447669,11.421741,2.8396573,-0.75700164,-2.4064949,-2.040988
1.2163981000000001,10.688349,3.5568068,-0.8996474,-2.609302,-2.0154363999999996
-0.08054095,10.317994,3.9549722999999997,-1.0167764000000001,-2.5544813,-1.9515574
-0.67742497,10.731760000000001,3.4351144000000002,-1.0550865,-2.463445,-1.9206824
-0.47201207,11.31243,2.784332,-1.066815,-2.3511330000000004,-1.8967365000000003
-0.5752404999999999,11.528522,2.1370356,-1.0737265,-2.1861122,-1.8536093999999996
-0.35484943,10.840342,1.7778192,-1.0508453000000002,-1.9550828999999998,-1.7242631000000002
0.057269305,9.787736,1.4059806000000001,-1.0114531999999998,-1.5835198,-1.5672184
0.23173958,8.771502499999999,1.0881455,-0.91563463,-1.2204739,-1.391551
0.6965403,7.9368553,0.81632704,-0.8022406,-0.89362603,-1.1882027
0.9053339,7.567056699999999,0.401431,-0.6728768,-0.6625968000000001,-1.0263758
1.7279718999999998,7.853671,0.55741805,-0.4333478,-0.46722463,-0.81185734
2.1113028999999996,8.093761,0.5423441,-0.17462020000000003,-0.23726006,-0.50682616
2.653101,8.659253,0.38237315,0.03244567,-0.15102334,-0.14004523
2.7937365,9.134703,0.38430768,0.2629164,-0.25802946,0.14418165
2.9253793,9.314929,0.6664116999999999,0.5093918,-0.36608282,0.35817647
2.9988909,9.117894999999999,0.96661586,0.65737826,-0.24205971,0.46891759999999993
2.7798979999999998,8.79261,1.2810224,0.7595847,0.25085616,0.6307444999999999
2.4772517999999994,8.632447,1.6287276000000002,0.7963239000000001,0.7677529000000001,0.8229053
2.3777199,8.747752,2.249726,0.8660498,1.2111713,1.0608635
1.8100451000000002,9.258302,2.9007382,1.0039134,1.6274498,1.3238147
0.45233172,10.152066,2.9258869,1.0747213,2.1384819999999998,1.5596436000000002
-0.75401074,10.892535,3.062682,1.0555576999999998,2.6686783,1.7778971000000001
-1.150117,11.453382000000001,3.8276388999999997,1.0645984,3.0987970000000002,2.0749346999999996
-0.6273383000000001,11.68266,3.6494913,1.0667453000000002,3.3862703,2.50453
0.34845212,11.244129,2.8943217,0.99009037,3.4831362,2.867035
0.6697923000000001,10.517211,2.0221426,0.8000415,3.334085,2.9165325
0.75091743,9.640061,1.5560969999999998,0.50406855,3.0588815,2.775475
1.1453478000000001,9.262975,1.8202446,0.29806733,2.7314925,2.6024778
1.4166204,9.635724,1.9751493999999998,0.20544271,2.2555937999999998,2.4481034
1.5992596000000001,9.815097,1.6582048999999999,0.11227703,1.7072985,2.285212
1.5052825,9.424392,1.6461381999999998,-0.0053407075,1.1291931,1.9695343
0.7791594000000001,9.532629,1.7736150000000002,-0.11873475,0.6655464,1.5963655
-0.40103835,10.43304,1.5267058999999998,-0.17994344,0.35840335,1.2317312
-0.7461673000000001,11.889816,1.2587466999999999,-0.18791960000000002,0.17580701,0.9054245000000001
-0.31153354,12.262355,0.852355,-0.17941985,0.083182395,0.6355267
-0.14339353,10.92933,0.87662256,-0.15547393,0.039531708,0.40236822
-0.2459324,9.216316,1.2621657,-0.10487683,-0.080215335,0.10267772
-0.34264857,8.09245,1.1634288000000002,-0.04420919,-0.115366265,-0.06658431
0.12198936,7.829815400000001,0.964643,0.017523106,-0.11856022,-0.1869073
1.1552981000000002,8.083869,0.5091604999999999,0.04787438,-0.282499,-0.3641455
2.0049238000000003,8.159966,0.40021476,0.06117379,-0.5726251,-0.6734353
2.5799248,8.19973,0.3852845,0.02232276,-0.77438515,-0.9672789
2.9362874,8.233018,0.36660975,0.046286132,-0.8637984000000001,-1.2179955
3.2200959,8.302775,0.35161245,0.111753434,-0.6886720000000001,-1.4075208000000001
3.5879218999999996,8.700700999999999,0.56881446,0.19212584,-0.3815115,-1.4314666999999999
4.062558,9.549781,0.78874576,0.21183062,-0.240454,-1.2983854
4.1145988,10.435769,1.0264613999999999,0.07927285,-0.41079813,-1.2307887
3.6071712999999996,10.39841,1.1525782,-0.14374532,-0.9974207,-1.4580829
3.557554,10.29186,1.4285053,-0.3689277,-1.7054136000000002,-1.836575
3.6009655,10.60029,1.4731618,-0.5962219,-2.1153042,-2.0548284
3.2718873,11.1675625,1.7398664000000001,-0.78838265,-2.2723315,-2.09155
2.8489757,12.183499000000001,2.7550461,-0.903906,-2.328758,-2.0324706999999997
1.7172173,11.768688000000001,3.4447966,-0.9725847,-2.4315054,-1.9627273999999997
-0.27256548,10.060033,3.8810775,-1.044981,-2.4400227,-1.8674499
-2.0887493999999998,9.839796,3.4563174,-1.1407821000000002,-2.477809,-1.8051591
-2.4328727999999997,10.639832499999999,2.7572297999999997,-1.2030729,-2.4991195,-1.7487327000000001
-1.3209768999999998,11.686022,2.3285717999999997,-1.2233013000000001,-2.4054303,-1.6971058
-0.6364554,11.864467,1.8688276000000001,-1.2057258,-2.2414565,-1.6843126
-0.45417047,10.897861,1.2335215,-1.171657,-1.9758348000000001,-1.6193688
-0.33902854,9.812502,0.90457726,-1.1210948,-1.6218472,-1.4453071000000002
-0.03718674,8.873457,0.87363464,-1.0316641,-1.291788,-1.2403531
0.32890585,8.238524,0.74732614,-0.86664325,-1.0543708999999999,-1.0577742
0.7452575,8.065137,0.4910412,-0.64573693,-0.8222944,-0.8799775
1.3356006,8.075566,0.6711713,-0.40245548,-0.6114935,-0.68249357
1.9835291000000002,8.300228,0.9107255999999999,-0.16875589,-0.4682893,-0.43175954
2.6688549999999998,8.671425,1.0293822,0.03509857,-0.4789358,-0.16079718
3.0974936,8.734632000000001,0.93076986,0.29859093,-0.60988784,0.07606145
3.1017745,8.844555,0.8891681999999999,0.5424134,-0.5444031,0.23043582
2.870533,8.58667,1.0289608000000001,0.69305277,-0.021135937,0.37362263
2.793727,8.386878999999999,1.4120138999999998,0.8735023999999999,0.63414794,0.60412824
2.5486948,8.523109,2.0276015,1.0007368,1.2436519,0.89264864
2.1009022999999996,9.131953999999999,2.667514,1.1455468,1.7594838,1.230143
1.2172025,10.040267,3.0056808,1.2855397,2.2784925,1.4872649
-0.1209838,10.699371000000001,3.251795,1.3371665000000001,2.8198762000000004,1.6267341
-0.7791115,10.6142435,3.519965,1.3041798,3.3559191,1.8093305
-0.3512294,10.804228,3.8704472,1.2557293999999999,3.8131952000000005,2.1116737999999997
0.455358,10.484228,3.3377855000000003,1.173734,4.052201,2.5268877
1.1576349,9.563246000000001,2.7948186,1.0795211,4.0378366,2.8340482999999996
0.99963665,8.992525,2.4204516,0.9288816999999999,3.8722746,3.0432433999999997
0.67640984,8.969427,2.2527237,0.7643844,3.6737087,3.0134332
1.0063117,9.944011,2.2439033999999998,0.5173854,3.3734946000000003,2.9000566
1.7851933,11.173797,1.9885186000000001,0.29167940000000003,2.7661026,2.858535
2.1457124,11.453449,1.5630785,0.19320795,2.0059419,2.7520700000000002
1.7523833999999998,10.860586999999999,1.4155766,0.1341111,1.2463222,2.4784547999999997
0.7405745,10.441880000000001,1.4927273,0.040421825,0.65383524,2.0334308
-0.5080305,10.582066000000001,1.4785249,-0.059096847,0.28227209999999997,1.5782838
-0.9720363000000001,11.199108,1.361525,-0.12086405,0.11032226,1.2120438999999998
-0.7252994,10.839547,1.0742592,-0.14055136,-0.035499997,0.8708319999999999
-0.44380838,10.094318,0.6419524999999999,-0.1314931,-0.16219345,0.5737944
-0.8116918000000001,9.288621000000001,0.09092221,-0.07667231599999999,-0.2803697,0.28047442
-1.0240095999999999,8.635733,0.46946466,-0.038344882000000004,-0.30485666,-0.003228859
-0.44512996,8.413416,0.6450363,0.020734511,-0.35863024,-0.20444787
0.72263706,8.6695,0.5336293000000001,0.059602994000000006,-0.5960474,-0.34178782
1.8729265,8.746641,0.1341136,0.03138102,-0.87976813,-0.42963025
2.4001488999999996,8.358666,-0.07842447,-0.051120695,-1.1374136000000001,-0.55791193
2.7207613,8.023449000000001,-0.07122271,-0.16556193,-1.3519495000000001,-0.7873529
3.160241,7.96437,0.07411490400000001,-0.14587462,-1.4637378,-1.1285648000000001
3.6174760000000004,8.529076,0.36288437,-0.079325214,-1.2534604999999999,-1.4564773000000002
4.4453335,9.768678,0.7323767,0.024452062000000004,-0.7387106,-1.545908
4.5925864999999995,10.418369,0.9525571,0.05160938599999999,-0.24577726,-1.4468954
4.249957,10.31403,1.4025425,-0.15013322,-0.1712517,-1.4607358999999998
3.4748676,10.445605,1.6427958999999999,-0.37049848,-0.46987754,-1.5762593
2.9274096000000003,10.383595,1.4383788999999998,-0.561071,-0.86592764,-1.9233354
2.894542,10.267467,1.234709,-0.69736373,-1.2012926000000002,-2.1660757
3.4212952000000003,10.354071000000001,1.8490131999999997,-0.833098,-1.4600028,-2.170858
4.2550426,11.58966,2.8799276000000003,-0.9624618,-1.7442646000000002,-2.1330717
4.1297393,11.451801,3.5319169,-1.0769031,-1.9720999,-2.0830330000000004
2.4197812,10.747677000000001,3.8872259,-1.1615514999999998,-2.1073105,-2.0947442
0.85108125,11.211663,3.0258974999999997,-1.1828445,-2.1349914,-2.1937566000000004
-0.07610688,12.1400585,1.9226876,-1.2206309,-2.170666,-2.2304785
-0.42323738,12.273588,1.6959853999999999,-1.1982733,-2.1238213,-2.1554293999999996
0.057652377000000005,11.18823,1.817812,-1.1546226000000002,-2.050884,-2.0835567
-0.56431335,9.593921,1.5940021,-1.0753148000000001,-1.859788,-1.9446284
-0.7912166,8.405104,1.2651056999999999,-0.9369101999999999,-1.5398517,-1.7194460999999999
-0.20745279,7.856783999999999,0.94094044,-0.75857246,-1.2050277,-1.4229493999999998
0.3392967,7.560822,0.59791833,-0.54086006,-0.7349756,-1.1099421
1.3424193000000002,7.5813546,0.4121762,-0.34229398,-0.25268877,-0.801717
2.0298903000000004,7.9428787,0.25775978,-0.16023868,0.018779743,-0.44718826
2.2596762000000004,8.399626,0.14748281,0.070249505,0.027838001,-0.08892453
2.8792,8.879338,0.38609853,0.35609952,-0.2601413,0.18039723
3.2899587,9.007867999999998,0.29674694,0.61001,-0.5311037,0.33744195
3.3103860000000003,8.834298,0.5189288,0.76066685,-0.41558033,0.447101
3.2203162,8.434868,0.99978036,0.8862956,0.07253588,0.6488436
2.9388634999999996,8.144299,1.6140751,0.952304,0.8199208,0.93523467
2.4970567000000004,8.241292,2.2058067,0.945375,1.5577238000000002,1.2216258
1.4805456,8.988617999999999,2.7789595,0.94006926,2.1294587000000003,1.4127393
-0.16443378,10.230960000000001,3.363863,1.0135300999999999,2.7948656,1.6011825000000002
-1.3848254999999998,11.438289,4.032899,1.1013551000000001,3.5699138999999995,1.9104549
-1.4243298,12.197002000000001,4.2831793,1.1013377,4.2970705,2.3767720000000003
-0.34048423,11.97369,3.6855,0.9895668,4.661181,2.7744277000000004
0.9050370000000001,10.71118,2.7927883,0.7218158,4.7362475,3.1268272
1.5278646,10.172005,1.9544635,0.47427577,4.5802674,3.1992235
1.3439325,10.042938000000001,1.2122705,0.20120156,4.1597480000000004,3.1167216
1.6800688999999998,9.903185,1.0873698,-0.08358382,3.529457,2.9900107000000005
2.4954956000000004,9.750568,1.5363976000000001,-0.22944099,2.7826133,2.7536757
2.7586470000000003,9.6248255,2.05321,-0.28106782,1.9511209999999999,2.434263
1.7803859,9.579450999999999,2.1324484,-0.3151541,1.1366631,2.0680232
0.48116753,10.291131,1.8462168,-0.34655258,0.42599997,1.6746433999999997
-0.5028781,11.584413,1.6207883,-0.3247185,-0.02804744,1.3951813
-1.1160618999999998,12.20744,1.1938064,-0.23424064,-0.17709856,1.1295422
-0.89198375,12.02325,1.0722288999999998,-0.14266321,-0.14835298,0.80695295
-0.9810385,10.805712,0.3369408,-0.06867871,-0.07860963,0.49768063
-1.1496286,9.668687,0.36937743,-0.026092672999999997,-0.15474088,0.21500711
-0.5516145,8.866265,0.778173,0.06012659,-0.22553144,0.028693212000000003
0.22290976,8.305457,0.80392504,0.18203785,-0.22820179,-0.16931438
1.1688397,8.498055,0.75049603,0.2528284,-0.30059806,-0.44025929999999996
1.621794,8.555077,0.43405920000000003,0.27572712,-0.5784719,-0.74049085
2.0482109,8.402739,0.52145714,0.29595548,-0.9803689,-1.0369874
2.6500267999999996,8.223958,0.688898,0.22675318,-1.3418266,-1.2589757
3.2449,7.983341,0.6271372,0.10751228,-1.5840258999999999,-1.3712877
3.4889553,7.7370253,0.6757778,0.08674286,-1.7075254,-1.3957921
3.4047174,7.7927914000000005,0.9364968000000001,0.16659167,-1.5616683,-1.3995097
3.7964665999999996,8.553486,1.4275858000000001,0.28850293,-1.0719288999999999,-1.2770748
4.2294054,9.236868,1.6080321000000002,0.34386477,-0.47574183,-1.0572332
4.036787,9.482685,1.7058208,0.18736109,0.045396015,-0.98323125
3.7339010000000004,9.680216999999999,1.81152,-0.09049532,-0.023788838,-1.1924438
3.4663348,10.341074,1.6696302,-0.3593284,-0.8265355999999999,-1.4798995000000001
3.3447475,10.616187,1.1325243999999999,-0.539778,-1.9683648,-1.5411083
3.1104608,10.127597999999999,1.2898043,-0.5908812,-2.7482302000000005,-1.6183041
3.3648398,10.200056,2.0774105,-0.7468613000000001,-3.020781,-1.6278860000000002
3.5365043,10.332149000000001,2.4186034,-0.97895515,-2.8089154,-1.5278089
2.3221745,9.992182000000001,2.5412345000000003,-1.1397,-2.2526267000000004,-1.4729706
0.56433254,10.653364,2.2714462,-1.1365235,-1.7341417000000001,-1.4575420000000001
-0.62488663,11.855684,2.2130182,-1.0843556,-1.4387098999999999,-1.4916108000000001
-2.6470485,12.532123,3.2250183,-0.93050486,-1.1858464,-1.4633888000000002
-4.0518894,12.418763,4.181761,-0.78942984,-1.0548944,-1.3782166999999999
-3.4945480000000004,11.047805,4.247486,-0.6696654000000001,-1.1677648999999999,-1.3377774
-1.4410892,9.74126,2.8234823,-0.62229717,-1.4349748,-1.2935857
-0.16793889,8.885371000000001,0.7710383000000001,-0.55574775,-1.5164293,-1.2094608999999998
0.9510919,8.316107,-0.3370174,-0.44450045,-1.4876838,-1.1094011000000001
1.8265365000000002,7.9366345,-0.4195312,-0.27042133,-1.2263031999999998,-0.92095786
2.3212838,7.776281,-0.24697627,-0.029269172000000003,-0.65193284,-0.6505366
2.5677526000000004,7.822939,-0.18439184,0.18575539,0.032620203,-0.41844269999999995
2.7233758,8.1779995,0.032877177,0.260822,0.45689228,-0.26991516
2.9395242,8.47669,-0.1347744,0.29115582,0.25565583,-0.12779301
3.219847,8.82565,-0.13842317,0.42636648,-0.37831756,-0.06391396
3.2201343,8.697101,0.027791892999999998,0.58021724,-0.8994554,-0.07881907
3.220843,8.328469,0.51086515,0.6020513000000001,-0.8632573,-0.028239427
3.3970177,8.122655,1.1158226,0.54668945,-0.33199653,0.08511971
3.335171,8.403687,1.7056772,0.52166146,0.62936574,0.3081728
2.966052,9.2973175,2.091431,0.59725165,1.7339323,0.70741683
1.8093653000000003,10.596661,2.314762,0.70371675,2.5601013,1.1130488
-0.30535647,11.917455,3.0083528,0.7521671,3.2798052,1.4164743
-2.0815573,12.903454,4.3298087,0.7074343000000001,3.7668917,1.6639968999999997
-1.7938794999999998,12.13188,4.779679,0.63238513,4.050089,1.974875
-0.26540205,11.3786545,3.4690547,0.56265926,3.9851449999999997,2.2995933999999996
1.2697121999999998,10.499628,1.7558118000000003,0.419455,3.771674,2.6466696
2.201392,9.558046000000001,0.8358061999999999,0.27040386,3.3048157999999996,2.6956437
2.2916436,8.911372,0.8815546000000001,0.08035496,2.6229157,2.654122
1.6699365000000002,9.544945,1.5482154,-0.016493361,1.9032116999999997,2.6024953999999996
1.5791101,11.173405,1.776287,-0.054838244,1.2064065000000002,2.4667437000000003
1.5793878000000001,11.91709,1.5791197,-0.06494370000000001,0.6836629,2.2697833
0.9108501,11.527459,1.4626848999999997,-0.10114183,0.44252822,2.0456830000000004
-0.15125608,11.042308,1.5088258999999997,-0.15330972,0.338175,1.7630093999999998
-1.3339246999999999,10.844719,1.4454561000000001,-0.21293017,0.29719466,1.4058278
-1.7295618000000001,10.935651,1.4088249,-0.23741713,0.31103513,0.9959372
-1.5262175,10.57086,1.3578763,-0.20280726,0.26684338,0.64725536
-1.6087312,9.16488,1.141699,-0.09581858,0.11672762,0.3816337
-1.274242,7.9184866,1.15005,0.05108579,-0.16006415,0.13782865
-0.5211507000000001,7.3843119999999995,1.0130154,0.1916197,-0.37779397,-0.037297685
0.4478785,7.4118357,0.6646783,0.24698155,-0.43900266,-0.2816263
1.2491891000000002,7.804255,0.37915537,0.23527038,-0.58273053,-0.5515066
2.2241082000000003,8.509730000000001,0.11170387,0.27625072,-0.8174773,-0.80436987
2.801618,8.638472,0.051456182999999996,0.32311282,-1.0325367,-1.0407224
3.0997345000000003,8.161374,0.22021867,0.2634749,-1.2220446000000003,-1.3388246000000001
3.0269604,7.7432694,0.51908207,0.16659167,-1.3716367,-1.6284096000000001
3.127766,8.124292,0.8369363000000001,0.09901253,-1.355126,-1.860486
3.7126023999999997,9.4287405,0.90723,0.1394518,-1.0713878000000001,-1.846122
3.9791825,10.757675,0.8640194999999999,0.23687609,-0.58964205,-1.5411083
4.381657,10.95829,0.6149555,0.22516492,-0.27344072,-1.1998788999999999
4.233916000000001,10.385961,0.8889767,0.084107414,-0.24788912,-1.0359228
4.1125684,9.994997,1.2213014,-0.15704472,-0.72591734,-1.0401988000000002
4.1409154,10.051356,0.753484,-0.42427209999999993,-1.4637203,-1.1940321000000003
4.3031273,10.512758,0.29050288,-0.66486573,-1.9885932000000002,-1.3180726999999999
4.474217400000001,11.137261,0.43419325,-0.8777959000000001,-2.4378759999999997,-1.4042919
3.8109752999999995,10.959726,1.308958,-1.0108773000000002,-2.7189436000000002,-1.3760874
2.176818,9.54914,2.6031868,-1.1556698,-2.8105037,-1.2653637
0.53383994,8.5822935,3.1857152,-1.28821,-2.5885152999999996,-1.179127
-0.45120168,9.012398,2.9292293,-1.3558241000000002,-2.1903534,-1.1429288
-1.115267,10.353275,2.5762186000000002,-1.3771171999999998,-1.8613587999999999,-1.1338706
-1.5707784,11.976516,2.1277459999999997,-1.3143027,-1.5334463,-1.0928729
-1.8246977,12.523514,1.7722743000000003,-1.2397771999999998,-1.3189278999999998,-1.0614918
-1.4569675,11.9771185,1.5444995000000001,-1.1588637,-1.2688893,-1.0295522
-1.0503458,10.891855,1.5349802,-1.0933964,-1.2933762,-0.9470331
-0.60524464,9.511378,1.3416053,-1.0465518,-1.3226628,-0.8624021000000001
0.20417751,8.684593,0.91830087,-0.94753927,-1.2816651000000001,-0.7447494
1.1738962,8.315158,0.50200665,-0.7740012,-1.111321,-0.58824575
1.8953745,8.2696295,0.3971406,-0.5307196999999999,-0.7008893,-0.39606756
2.1557487999999996,8.290192,0.34196863,-0.22996458,-0.14941764,-0.15599753
2.344364,8.483931,0.30042443,0.043109633,0.18860027,0.056374136
2.4861581000000004,8.5557375,0.11096646,0.2735978,0.06935938400000001,0.1303761
2.436378,8.382886,0.22726719,0.5227436,-0.2526713,0.16978563
2.4990869,8.121304499999999,0.36866876,0.7559021,-0.34264305,0.24270548
2.5861304,7.8265977,0.6329024000000001,0.8495739,-0.06637487,0.30497882
2.8911903,7.61903,1.1708317,0.90919435,0.40631264,0.4173082
2.9228509999999996,7.879538,1.6067008999999999,0.9544507,0.9807005,0.61159825
2.661998,8.630877,2.0221139999999997,1.0348232,1.6061741000000003,0.9230174000000001
1.6933422999999999,9.917128,2.626583,1.1444997,2.181103,1.1918503999999999
0.5954954,11.026104,3.2220017999999997,1.1998615,2.8198936000000003,1.3994399
0.024487894,11.540128999999999,3.8187327000000004,1.1870682,3.4208803,1.5937473999999998
0.17718050000000002,11.643846,4.0001940000000005,1.1854799999999999,3.969699,1.8694918999999999
0.7870028,11.483559,3.237631,1.137047,4.2332087,2.1303315
1.3986256000000001,10.297155,2.5559157999999997,0.97042054,4.4205875,2.3906297999999997
1.647364,9.197901,2.1532299999999998,0.7638782,4.410482,2.4960303
1.486512,8.5800905,1.9557084999999998,0.5142264,4.0996037,2.4912481
1.6137207,9.061565,2.146488,0.28478536,3.4384556000000006,2.4321512999999997
2.0213381999999998,10.351552,2.1606617000000004,0.14264576,2.6223922,2.3389854
2.2775178,11.010561000000001,1.8495495,0.026616272000000003,1.8366798,2.1957986000000003
2.0505667,11.070893,1.8141154,-0.076113805,1.1329455,1.9903212
1.4345769,11.5330515,1.9563693,-0.15861551,0.6533291,1.6746609000000001
0.48921204,11.762119,1.682664,-0.18737854,0.33552209999999993,1.3733647
-0.0066463040000000004,11.974015,1.4849031000000001,-0.19216076,0.20776399999999998,1.1082666
-0.06617574,11.256167,1.2002708,-0.19429006,0.16198401,0.8591383
-0.37191528,9.808000999999999,0.734905,-0.15915658,0.042743113,0.60042816
-0.72007054,8.425359,0.6835733,-0.1282817,-0.08658578,0.29167940000000003
-0.71081936,7.800654,0.8059649,-0.12456415,-0.18668042,0.015393803999999999
-0.016299725,7.722593300000001,0.6016916,-0.09047787,-0.38842303,-0.187396
0.8487349000000001,8.034903,0.46340254,-0.02872812,-0.82545346,-0.36465165
1.8498273,8.413311,0.31405222,0.023945916,-1.2896413,-0.614321
2.1878982000000002,8.465427,0.42717347,-0.009581857,-1.6660041,-0.93584555
2.4402182,8.065375999999999,0.6177615,-0.019146262,-1.9949811999999998,-1.273881
2.7310947999999997,7.8942766,0.8782793,-0.01701696,-2.033832,-1.5858237
3.14555,8.446888000000001,1.1102393,0.00052359875,-1.7479821,-1.7503034
3.7251480000000003,9.838206,1.2144828,0.1261524,-1.3258393999999998,-1.5677246
3.3162279999999997,10.918268,1.2702293,0.08941322,-1.1384608,-1.3090144
2.5824816000000004,10.963672,1.6633381999999999,-0.14957471,-1.2720832,-1.2781221
2.264484,10.970462,2.0577686,-0.45458844,-1.6638747,-1.4745588
2.588515,10.724788,1.8245924,-0.7063871,-2.0498018,-1.7156936
2.9986036,10.376441,1.6058582000000001,-0.89802426,-2.3127706000000003,-1.8498569999999999
3.4906888,11.083267,2.164933,-1.072627,-2.5320888,-1.8706089
3.7143934,11.199798,2.6122847,-1.2195488,-2.8365788,-1.7992773999999998
2.4883897,9.617173,3.75746,-1.3403778999999998,-3.0175695,-1.733269
0.9217868,9.320762,4.1932144000000005,-1.4968816,-2.9393265,-1.6592845
0.24042574,10.365304,2.9659276,-1.6033467,-2.7290492000000004,-1.6544849
0.46887088,11.322707000000001,2.0366802,-1.6182518,-2.4698154999999997,-1.6507498
0.92881614,11.610384,1.7158189999999998,-1.5842005,-2.0950582,-1.5943408000000001
0.9270444999999999,10.949192,1.5001684,-1.520304,-1.7101783,-1.507563
0.7512047,10.044404,1.2706316,-1.429826,-1.4333866000000002,-1.3478655000000002
0.32439518,8.80279,0.86268836,-1.2844925,-1.3684253999999998,-1.1738037000000001
0.34943855,8.065204,1.0916028,-1.1029782,-1.4701083000000001,-1.0242115
0.8485147,7.7769710000000005,1.0274572,-0.90121824,-1.5233408000000002,-0.8655786
1.7020379,8.053577,1.0446285,-0.641967,-1.3700311,-0.65584236
2.5526310000000003,8.312984,1.3197126000000001,-0.359852,-1.0410540000000001,-0.41203734
2.7697849999999997,8.296819000000001,1.4198766,-0.07663741,-0.74986327,-0.20123646
2.9787126,8.709867,1.248557,0.24858725,-0.6875899000000001,-0.054314647
2.9438338,9.058874000000001,1.0984981000000003,0.55414206,-0.7509279000000001,0.007941248
2.68526,9.017923,1.2835028,0.7612079,-0.6476568,0.07075564599999999
2.30553,8.613131,1.577415,0.8857895,-0.27450538,0.14955726
2.2005967999999996,8.18362,1.7680508999999998,0.9895841999999999,0.35948548,0.2703864
2.1582577,8.23547,1.9541761999999998,1.0699741000000003,1.1249694,0.454571
2.0726795,8.955233999999999,2.3402746,1.165269,1.9990477999999998,0.75214964
1.6185281999999999,9.967416,2.7599782999999998,1.2626758999999999,2.882708,1.0502518
0.8936693000000001,10.723429,3.3849989999999996,1.3015268999999998,3.8057601,1.3094857
0.60293657,10.9937725,4.086031,1.2924861,4.510018,1.6049349
1.0441784,10.765547,3.7745163,1.3222964,5.0002985,2.0425065
1.9280793999999999,10.153780000000001,2.928808,1.3340075,5.0982465999999995,2.4869895
2.8561006,9.390183,2.0940741999999997,1.2397946000000002,4.7357416,2.797885
3.3859184,8.9758625,1.7935444,1.04814,4.2656894,2.9735348
3.0723546,8.664013,1.7682807,0.79316485,3.7291055,2.8798456000000003
2.7840352000000004,9.112878,1.9801099999999998,0.4923923,3.20795,2.6945963
2.8232715,10.263071,2.0866714,0.3162013,2.6032283,2.5146704
2.518298,10.851806,1.9195848000000002,0.22411773,2.0230112,2.3453908
1.3145987,10.867636,2.1327453,0.06494370000000001,1.3416171000000001,2.0345128
-0.2543217,11.490368,2.4878533,-0.07770206,0.83538437,1.6608203999999998
-1.4660654,12.486987,2.2421126,-0.1378461,0.5836031999999999,1.3733647
-1.7468381999999998,12.561017,1.6555330000000001,-0.2065248,0.42922879999999997,1.0960319
-1.2335023,11.346228,1.0865941000000001,-0.25923374,0.26579618,0.7734426
-0.36133292,9.915778,0.9244013000000001,-0.23581143,-0.0030194195,0.5269673
0.02791639,8.531939,0.78608346,-0.14477506,-0.22020820000000002,0.34278268
-0.022218192,7.939479400000001,1.1683992,-0.10644763,-0.20582668,0.121876344
0.5419515,8.010157000000001,0.8681184000000001,-0.1288053,-0.0450644,-0.13948672
1.6796857,8.586211,0.53605217,-0.07609635599999999,-0.22924899999999998,-0.47005206
2.121004,8.4631,0.6250207,0.027680922,-0.6359456,-0.79957026
2.2718773,8.355573,0.6009255,0.035133477,-1.0346487,-1.0763794
2.5492790000000003,8.07569,0.41645703,-0.01436406,-1.2784711000000002,-1.3169905000000002
2.9677374,7.7964020000000005,0.6831998,-0.05108579,-1.2167039,-1.5235153000000001
2.94234,8.135305,1.1918431999999999,-0.03244567,-0.8510051,-1.5166038
3.3339162000000004,9.721608,1.318123,0.007993608000000001,-0.6045297,-1.3601002
3.8458638,11.054288,1.1703146,-0.068120204,-0.71101224,-1.2781221
3.9649034,10.86099,1.4437898,-0.29063222,-1.1390018,-1.5187331
3.8620292999999997,10.464711,2.4044874,-0.5211204,-1.7421179,-1.9083953999999999
3.2853809999999997,10.559492,2.4556273999999996,-0.69732887,-2.1009052,-2.2128854
2.8345048,10.743913000000001,2.162194,-0.86554366,-2.2542150000000003,-2.3635422999999998
2.9907793999999996,11.632822,2.3106534,-0.9725324000000001,-2.24198,-2.3065748
2.3466146,11.449273,2.9148064,-1.0396054,-2.3606799,-2.2006333
0.14395855,9.440203,3.713158,-1.1136073,-2.5592287000000002,-2.1974568
-1.4022264,8.495403,4.048193,-1.2163548,-2.748754,-2.2027799999999997
-1.3565546999999998,9.102352,3.3023605000000003,-1.3020505,-2.744478,-2.128778
-0.39442077,10.221518,2.5926235,-1.3739058000000002,-2.5437999,-2.0281599
0.12240117,11.202478999999999,2.2870084999999998,-1.443649,-2.2957362999999997,-1.9190418999999999
0.17898095,11.330474,1.7993096000000002,-1.4505606000000002,-2.0631013,-1.8056653000000003
0.011022903999999998,10.677881,1.5923452,-1.3520892,-1.9172616000000002,-1.6928123
-0.3677781,9.60999,1.8247647,-1.1923915,-1.7692577,-1.57036
