accx,accy,accz,gyrx,gyry,gyrz
-0.90112007,11.856786,1.0626041000000002,0.15009831,0.7555529999999999,1.6274672
0.06962338,10.862015,0.75978553,0.05745624,0.8284903,1.453388
1.1640418,9.542866,0.7732984,-0.052167892,0.8609709000000001,1.3070073
1.8713272,8.286543,0.8571242,-0.1314931,0.79388046,1.1797726999999998
2.0818639,7.436266000000001,0.42730755,-0.16716763,0.60704297,0.9498082
2.2448992999999997,7.044287,0.052097827,-0.26296875,0.32224014,0.5713335
2.461134,6.870028,0.05554548,-0.42851323,-0.08868018,-0.024853487999999996
2.8285862999999996,6.872259,0.14392982,-0.48495720000000003,-0.50604075,-0.53642696
3.300905,7.050578999999999,0.15991351,-0.49134508,-0.8743924999999999,-0.84941685
3.7020967000000002,7.2152332999999995,-0.009586384,-0.5381897,-1.0234610999999998,-1.1869286000000001
4.0202093,7.3679065999999995,-0.5312063,-0.5482952,-0.9973684000000002,-1.6197004
4.179434,7.7275634,-0.7421738,-0.53073716,-0.79456115,-1.9295137999999998
3.9489769999999997,8.052197999999999,-1.0981915,-0.47696358,-0.42778019999999994,-2.0040393
4.071062,8.762788,-1.3752006,-0.40510836,0.05927138,-1.7735511999999998
4.611768700000001,10.29341,-1.4184974,-0.42905429999999994,0.4420221,-1.4488328000000001
5.4893203,11.901988000000001,-1.4224143999999999,-0.5424309,0.45108035,-1.4200697
6.091126999999999,11.871582,-0.6652912,-0.67073005,-0.0024609142000000003,-1.8289131
5.6935263,11.707015,0.47613966,-0.74471456,-0.81424844,-2.2755252999999995
5.5569997,13.2973385,0.7000263000000001,-0.7644368,-1.5776031000000001,-2.4464107000000004
5.9288955,14.118675,1.2047048999999999,-0.84800315,-2.0513727999999998,-2.365497
5.4780006,12.977205,2.2905138,-0.9677676,-2.2174582000000003,-2.26542
3.7211735,10.335242,3.4463767999999995,-1.0199354999999999,-2.1195104,-2.2568853
1.4890785,7.601628999999999,4.2283610000000005,-0.98851955,-1.8134146,-2.2590146
-0.77914023,6.214955000000001,3.7076032,-0.87994266,-1.4061943000000001,-2.1759892000000005
-1.703082,7.421603999999999,2.1264246,-0.7511199000000001,-1.0431484,-1.9955221
-0.49398127,10.033841,0.840949,-0.6819175999999999,-0.85844016,-1.8182665
1.2501947,11.441382,0.27795723,-0.67179465,-0.86641634,-1.6878381000000002
1.7581486000000002,11.314969,0.5785062,-0.7117278,-1.0373014999999999,-1.5755261
1.6178483000000001,10.490442999999999,0.83426434,-0.829363,-1.2773715,-1.4238046
1.6557436,9.56814,0.50184387,-0.8943066999999999,-1.368408,-1.2822062
2.1206784,8.77021,0.4239365,-0.8772723,-1.2363912000000001,-1.0953686000000002
2.666834,8.039681,0.6743604000000001,-0.7607018,-0.9372069,-0.84357
2.8949156000000005,7.391341000000001,1.0915453000000002,-0.52061427,-0.5943893,-0.5816659000000001
2.9412575,7.138293300000001,1.5488186000000002,-0.25127506,-0.31599185,-0.3559599
2.7326748,7.274437,1.7748121,0.0021118484,-0.11105530000000001,-0.07756243
2.4923544,7.7754188,1.8618654,0.20439549999999998,0.090687305,0.19657643
2.2919788,8.279513,1.9904723000000002,0.37847465,0.27115434,0.39992476
1.9384894,8.346100999999999,2.0055845000000003,0.5152736,0.41381755,0.5351354
1.7337468,8.266671,2.0514669999999997,0.5839348000000001,0.5516810999999999,0.71452034
1.8244773999999997,8.431622500000001,2.389787,0.6015103,0.88650507,1.0626612
1.8120564,9.146004,2.603273,0.6190857,1.4129836999999998,1.5321896000000002
1.6940606,9.927337,3.0072514999999997,0.65474284,1.8734539000000001,1.9681554
1.3996121000000001,10.128833,3.653236,0.6691243,2.0320868,2.2683869999999997
0.82163256,9.987910000000001,3.9005375,0.7143633,1.8218095,2.3625998
0.31908962,10.386832,3.6663370000000004,0.8964186,1.3310056000000001,2.310973
0.35979104,11.577019,3.0608816,1.0289588,0.8891754000000001,2.3434362
0.3394499,11.98795,2.7999136,1.0076659,0.72363096,2.4429896
-0.14962804,10.863202000000001,2.6963117000000003,0.9001360999999999,0.77897537,2.5228386
-1.0064745000000002,9.157064,2.5978048,0.8144404000000001,1.0009638,2.5723536
-1.557026,8.838961999999999,2.5496716,0.67177725,1.2980014,2.5776594
-1.6625816000000002,9.960243,2.7473848,0.48228684,1.5514056999999999,2.5877998
-1.5005707,11.524069,2.9994560000000003,0.28316220000000003,1.6567887,2.5952349
-1.473114,12.676771,3.1230159,0.1399754,1.5902566999999999,2.5654244
-1.0804745,12.408104,3.7359507000000005,0.10273008,1.5125372,2.4813169999999998
-0.76784927,10.551927000000001,4.265644,0.073967054,1.4209598,2.2843568
-0.63568926,9.289119,3.356556,0.05534439,1.281508,1.9633732
0.40025306,8.351234,2.3492386,0.035657077999999995,1.083483,1.6264025
1.6530813000000002,7.679919,1.5575143999999999,-0.14851007,0.78431606,1.3150008999999998
2.6754534,7.263739599999999,0.9294674,-0.38488,0.30096456,0.82472044
3.1605186,7.020737599999999,0.03310702,-0.46738172,-0.27180013,0.28441885
3.1991801,7.0699053,-0.22938368,-0.5168967000000001,-0.59760076,-0.14782938
3.2778822999999995,7.299384599999999,-0.30871797,-0.5999220000000001,-0.47621309999999994,-0.41983896
3.5115852,7.83853,0.014891935,-0.6441138000000001,-0.24678956,-0.6913249
3.8290657999999995,8.685578999999999,0.29146054,-0.6813765,-0.25370106,-1.0916337
4.0843834999999995,9.193945,0.19694704,-0.719704,-0.436821,-1.4195461
4.132852,9.501887,0.515826,-0.66327745,-0.53422785,-1.42274
3.889304,10.741624,0.47408065,-0.5344547,-0.49857074,-1.1438016000000002
3.9467745,12.14728,0.10319967,-0.35824627,-0.1312662,-0.85102254
4.337096,11.821782,1.2817886,-0.16502088,0.48089057,-0.7264584
4.4686527,10.66863,2.6959572,-0.03885103,0.97967076,-0.8142834
4.829593,10.223797,2.8448384,0.09367182,1.4135247,-0.8568694
5.379417,10.7039585,2.7481508,0.12241739,1.7946697,-0.8068308000000001
5.8897075999999995,12.061108,2.6746106,0.15222761,2.0198522,-0.8675159
5.882209,12.583235,2.9814515,0.14905111,1.952779,-0.9995325999999999
4.7617707000000005,11.542034,4.068084,0.118176244,1.4774038,-0.9851511000000001
2.9593097999999998,9.622949,5.0699234,0.09367182,0.5740388000000001,-0.81908303
2.3149345,8.574729,4.924144999999999,-0.017034413,-0.5049585999999999,-0.572084
2.5924416,9.328567,4.333859400000001,-0.10007718,-1.1634539,-0.31389746
3.6590008999999997,10.651842,3.402199,-0.10381218,-1.2640547,-0.14461797
4.4474883,10.198275,2.8738656000000002,-0.030857421,-1.0766761,-0.18294542
4.129423,8.781999,3.3798656000000005,0.16872098,-1.0479306000000002,-0.25268877
3.157253,8.384532,3.7268812999999996,0.3885801,-1.1512016999999999,-0.05359906
2.4255082999999997,8.519527,3.3659123999999996,0.49345693,-0.8153130999999999,0.1433439
1.6509075,7.142172,1.9741436999999997,0.46577603,-0.30852184,-0.015795228999999997
0.9010530000000001,4.7640977,0.8148522,0.62334436,-0.32929125,-0.039741147000000004
0.53433794,2.4445278999999998,0.30798054,0.74471456,-0.5432861,0.048066366
0.5922297,0.4620043,0.09242576,0.75588465,-0.7024600999999999,0.07733554
1.6426523000000002,-0.26125529999999997,0.5712565,0.72021013,-0.81424844,-0.015812684
3.1616869999999997,0.6546225999999999,1.4576761999999999,0.65102524,-0.85842276,-0.073809974
3.902453,1.8739129,2.9489095,0.624409,-0.7418522,-0.057857665999999995
3.5918677000000003,3.7473662000000005,2.7716715,0.6771005,-0.3787888,0.047001716
4.269867400000001,7.017442999999999,2.18016,0.57382935,0.05555383,-0.00036651915
5.8651333,9.764111,1.6025637,0.40828487,0.30257028,-0.13929473
5.1684779999999995,9.743836,2.9190874,0.3252421,0.52879983,-0.20423843
3.2135358,10.392864999999999,4.143664,0.41573742,0.9190030999999999,-0.077003926
3.1449275,12.053734,3.6661837,0.52166146,1.4082014999999999,0.07361799
4.2555785,12.573025999999999,3.3433876000000002,0.5482952,1.7467603999999999,0.079482295
4.411010299999999,11.966047999999999,3.6701580000000003,0.6004456,1.7808292000000001,0.042202063
4.303568,11.011269,3.6065775999999996,0.6515663,1.6727758999999998,0.05073672
4.6768813,10.813786,2.8018384,0.6712536,1.6557415,0.13484414
5.7254844,11.862092,1.2287713,0.60152775,1.7627301,0.20031144
6.3987913,11.511494,-0.020293253,0.47003463,1.9612962999999999,0.24024457
5.765946400000001,10.529795,0.10151415,0.30449015,2.0826664,0.28708920000000004
4.916254,10.195487,0.54724747,0.08836602,2.0613735,0.36746162
4.5925384000000005,11.660969,0.40843168,-0.16074483,1.8926176,0.52290064
4.419389700000001,12.349599000000001,-0.038134847,-0.34014723,1.5859982,0.7486066
3.3620434,11.356492999999999,0.27243143,-0.38325685,1.2857666,0.99401736
2.2612374,10.129255,1.025542,-0.43277183,0.99672264,1.0610903999999999
1.8201488000000001,9.120414,1.5913876,-0.5749115,0.6560169,0.87156504
2.062825,8.698575,1.5925655,-0.56531215,0.28818876,0.6895272
2.3756897,8.141003999999999,1.2826697,-0.4487416,-0.12859586,0.592644
2.2357247000000005,7.44613,0.8528146000000001,-0.36941640000000003,-0.48631853,0.5207712999999999
1.7995011000000003,6.79236,0.43751642,-0.42638394,-0.7216064,0.34032175
1.3351792,6.350361299999999,0.027724855,-0.53337264,-0.78709114,0.026249751
1.0596929,6.039374,-0.23446897,-0.61587435,-0.76312774,-0.23617795
1.205902,6.286676,-0.26499024,-0.6813765,-0.6646563,-0.35754815
1.9377328,7.900875,-0.31968337,-0.75961965,-0.620482,-0.49117056
2.8327044999999997,9.995830999999999,-0.53125423,-0.79634136,-0.73172927,-0.6088058000000001
3.1092155,10.703039,-0.34014902,-0.8208458000000001,-1.047407,-0.6407453000000001
2.5147736000000003,10.052342,0.9054679,-0.85543823,-1.4727261999999999,-0.68226665
2.2309362999999998,9.894,1.4442399,-0.9118646999999999,-1.7005615,-0.7418871
2.6498163,11.077129,1.2917581,-0.92464054,-1.7064084,-0.84941685
3.8154573,12.345452,1.2404072,-0.9198409,-1.6079195,-0.95534086
4.380202,12.809956,1.7152348999999998,-0.8543561,-1.4109591000000001,-1.0953336999999999
3.7360462999999995,12.931935000000001,2.4579449,-0.7505614,-1.2102811000000002,-1.2486434
3.247907,13.566360999999999,2.893383,-0.638232,-1.0031978000000001,-1.3758780000000002
2.9910283,13.482266000000001,3.5029757000000004,-0.53817225,-0.75356334,-1.4568089
1.9848411,12.027234,3.9916513,-0.48333403,-0.5805314,-1.510024
0.8692293,10.301657,4.277519,-0.43755403,-0.60343015,-1.5478278
0.38950786,9.129321000000001,4.00209,-0.36835173,-0.7822915,-1.5227997
0.694443,8.954927,3.7340638999999998,-0.29649654,-1.0729412,-1.4083586000000001
1.2462395,9.464586,3.5470674,-0.24750514,-1.3806252,-1.3077403
1.887129,9.5289135,3.4326339999999997,-0.22197098,-1.6121955,-1.2965702
2.5049669999999997,9.216239999999999,3.3922486000000003,-0.1346696,-1.6584991000000002,-1.2763418
2.9084380000000003,8.733569000000001,3.0650377,-0.012758356499999998,-1.4445043,-1.2326736
3.056984,8.047255999999999,2.5860922000000004,0.13521066,-1.1160682,-1.2002106000000001
2.8708777000000003,7.3522005,2.0078542,0.31939524,-0.71150094,-1.1315494
2.561384,6.530061,1.4735737,0.50357985,-0.24092525,-1.0234785
2.2261862999999997,5.6666346,1.2931945,0.70692813,0.4361927,-0.8382293
1.8851561999999997,5.207111,1.2537285,0.8943066999999999,0.98766434,-0.6354046
1.9267865000000002,5.5833072999999995,1.2459905,1.1301355,1.246392,-0.3681772
2.592767,6.3843207,1.2808883,1.3068502,1.1681313999999998,-0.103620194
3.2694454,6.5470595000000005,1.6571706999999998,1.2967447,0.7955036,0.16838937
3.7434491999999997,6.5197845,2.2020049999999998,1.1908207,0.36699040000000005,0.30040607
4.4916563,6.278028,2.7270055,1.0135650999999999,-0.011466813000000001,0.2168397
4.8434987000000005,5.735482,2.9899270000000002,0.8346863000000001,-0.14830063,0.11780973
5.1620045,6.073343,2.8308372000000004,0.6696654000000001,0.02576106,0.20032889
5.3271370000000005,7.498390700000001,2.8230894,0.5552241,0.6336767,0.42922879999999997
4.8517923,8.891615,2.7420313,0.53925437,1.4460226999999999,0.8295375
3.341453,9.659924,2.981624,0.46153486,1.8617601000000001,1.3155419
1.6308918,10.408418,3.4608470999999996,0.34335864,1.7473014999999998,1.6280257
0.65188366,11.3717785,3.5689502,0.32313025,1.1942066,1.6732646
0.18061857,12.985394,2.9505088,0.34920546,0.55169857,1.5715816999999999
0.73303753,14.630038,2.6617298,0.388615,0.022584561,1.4678044
1.235839,14.612713000000001,2.4298751,0.41256094,-0.25261897,1.4140308000000001
0.8274265,12.980624,2.4408982000000004,0.40882593,-0.28084093,1.4252008999999999
0.32288206,11.528139,2.4641027,0.34974653,-0.15254177,1.499203
-0.0692882,10.894623,2.4355830000000003,0.25127506,0.07527605,1.5625584
-0.92965895,11.059076,2.5691604999999997,0.187396,0.25680774,1.5705345
-2.0752366,11.821821,1.5344438999999999,0.21132447,0.35154423,1.5353836
-1.7315346,12.207699,1.562073,0.26616272,0.36805505,1.4422354
-0.90848464,11.765642999999999,1.7232411,0.2975961,0.35953779999999996,1.3091714
-0.18135598,10.613889,1.7088758999999998,0.21399482,0.43725735,1.1457388000000002
0.5837351,9.353168499999999,1.6600053,0.090512775,0.526688,0.9945584000000001
1.3227485,8.204144,1.4079247,0.026092672999999997,0.5405285,0.8758585999999999
1.9272653999999998,7.332826600000001,0.9283948000000001,-0.028187068,0.47771406,0.7204195
2.3696083999999997,6.8495045,0.19594146,-0.14529866,0.36538467,0.38823104
2.7347240000000004,6.434637,-0.051571105,-0.22354177,0.26052529999999996,-0.045046947999999996
2.9692986,6.04512,0.059558164000000004,-0.24485224,0.18385299,-0.40011674
3.2323256000000002,6.0387607,0.01481532,-0.30127874,0.1918466,-0.65350366
3.6940519999999997,6.640136200000001,-0.32874304,-0.588717,0.04972443,-1.1624067
4.2621098,7.5217675999999996,-0.7812089,-0.77396625,-0.30478686,-2.0040044999999997
4.631698,7.826328999999999,-1.224998,-0.72021013,-0.3958232,-2.365462
4.6148906,7.818792299999999,-1.1724694,-0.7819599,-0.295205,-2.1663725
4.476257,8.324046000000001,-1.0000676,-0.8873603000000001,-0.053529248,-1.7192191000000003
4.7959213,9.8182,-0.9688376,-1.0172477,0.38615409999999994,-1.2555549
5.5563965,11.326039,-0.6885437,-0.9459161,0.57512087,-1.1842408000000002
5.577676,11.5225935,0.26329514,-0.7958003,0.22699752,-1.5004246
5.2148012999999995,11.667864,0.77897745,-0.677083,-0.41763982,-1.834725
4.7024040000000005,13.369394,0.7721205,-0.5860641,-1.0516481000000002,-1.8986216
5.6819096,15.203899,0.73685867,-0.48757517,-1.4178879999999998,-1.7985269
4.798746599999999,14.555894,3.1387699000000002,-0.41254348,-1.3742372999999999,-1.7453116999999998
1.7477288,11.639669999999999,4.861723400000001,-0.3805865,-1.0473895,-1.7591523
-0.49323428,7.9658155,5.052943,-0.3481059,-0.66889745,-1.7378417000000002
-1.5831611,6.223574,4.3192262999999995,-0.30871382,-0.42776275,-1.6223359
-1.5519598999999997,6.7341429999999995,2.7478445,-0.28850293,-0.3516315,-1.4743494
0.36724183,9.61408,1.880339,-0.299132,-0.45224970000000003,-1.3087875
2.1378498,12.570611999999999,1.3332734,-0.33374184,-0.66730917,-1.1581482
2.08489,12.808672999999999,1.5185463,-0.37952185,-0.9047263000000001,-1.0575473
1.1853405000000001,11.198179,1.9522511999999999,-0.41092032,-1.1698244,-1.0016445
1.0259154000000001,9.691049000000001,2.1012855,-0.3981445,-1.3651791000000002,-0.9377654000000001
1.6409571,8.337826,1.8498942999999999,-0.35503490000000004,-1.3976597,-0.7791324000000001
2.006839,7.173047500000001,1.6268697,-0.29009120000000005,-1.2070872,-0.53586847
1.6542497999999999,6.3008685,1.6502273999999997,-0.16872098,-0.9175021000000001,-0.31494465
1.2648089,6.069943,1.6424319,0.028763026,-0.54698616,-0.15205309
0.86255425,6.207916,1.532088,0.32473597,-0.14295992,-0.013631022
0.6477178000000001,6.371076,1.5991639,0.67179465,0.12424999,0.23705062
0.5569488,6.7583814,1.6321943,0.9315869000000001,0.27862436,0.5633748000000001
0.8420216,7.207025999999999,1.8496741,1.0396403,0.33663909999999997,0.8109149
1.0566857,7.143148399999999,2.2017653,1.0093064,0.24774949,0.9014101999999999
1.1554129,6.850855,2.6311223999999998,0.89697707,0.10402162400000001,0.9397376000000001
1.1813373999999999,7.240315,2.8694412999999996,0.7809301,0.12531464,1.0983706
1.3758903,8.3311615,2.8921669999999997,0.7207861,0.37498400000000004,1.3219473
1.6324146000000002,9.443028,3.0302453,0.7793419,0.7497235999999999,1.4885563999999998
1.7070466,10.014178999999999,3.4021510000000004,1.0018364,1.1899655,1.6029977
1.2960004999999999,10.204394,3.8964865,1.2802513999999998,1.5562053999999998,1.7488548
0.16659813,10.671408,3.9764337999999997,1.4303671,1.7473014999999998,1.9165459999999999
-0.61354774,12.018653,3.1332629,1.4160031000000002,1.7712648000000002,1.9990651999999998
-0.61792433,12.559942999999999,2.1182363,1.2903743,1.7419957,2.0059767
-0.38122395,11.61253,1.6399324,1.1051251,1.6610821,1.9990651999999998
-0.4203835,10.354941,1.5619485,0.86610216,1.4806151,2.0049121
-0.3302083,10.330061,1.8002481,0.6207089,1.3283701,2.0160997
0.33822408,11.229515,2.1798728,0.42959535,1.1244806999999999,1.9862894
0.98987794,11.795926,2.5933514,0.33751178,0.9184795,1.9319921999999998
1.3993247,11.638119,3.2210919999999996,0.30396655,0.71193725,1.8473436999999997
1.0883563,11.3677845,3.0629213,0.33112386,0.54691637,1.6935103999999999
1.1630361,10.824836999999999,2.05049,0.34707618,0.480908,1.4635284
1.615253,10.16306,1.2399858,0.24380504,0.4750437,1.2442103999999998
1.8030830000000002,9.352431,0.68950135,0.041538835,0.42341688,0.99616414
1.6960429,8.465016,0.22180842,-0.11868239,0.42181116,0.7656585
1.4529451999999998,7.833789299999999,-0.26730782,-0.20437805,0.38030726,0.53249997
1.3277669,7.4950485,-0.38258386,-0.32360148,0.17695893,0.08110545
1.5394333999999998,7.2452083,-0.39573282,-0.387498,-0.13337806,-0.5119051
1.8849837999999999,7.0924397,-0.29469752,-0.38430405,-0.37079520000000005,-0.8626988000000001
2.4666312,6.9250274,-0.3666959,-0.35662309999999997,-0.3606723,-1.1208678
3.332154,7.011189999999999,-0.49247772,-0.44711843,-0.4208338,-1.3428563
3.8135227999999994,7.4702444,-0.7533691,-0.3390651,-0.47193703,-1.4982953
4.087055,8.138236000000001,-1.2906376,-0.11918853,-0.4575555,-1.6201892
4.434320400000001,8.950924,-1.3632585,-0.10164797,-0.38943532,-1.5786851999999998
4.5029283,9.720239,-0.93234044,-0.18360864,-0.3649309,-1.4317459
4.752633599999999,10.656764,-0.4386848,-0.3273365,-0.4128402,-1.4056708
5.9229293,11.023882,0.050699614000000004,-0.46254715,-0.69870764,-1.6691805
5.9710717,11.2366295,1.029047,-0.56848866,-1.1895117,-2.0109334
5.2581263,11.796596000000001,1.6033203999999999,-0.65474284,-1.5573573,-2.1786246
4.8863650000000005,13.532057,1.0007285,-0.8149466,-1.6590053,-2.2163937000000002
3.8650458,13.556208999999999,0.91214293,-0.9821141999999999,-1.5408465,-2.2174757
2.5991356,12.132837,2.4552537999999995,-1.1018788,-1.2863950000000002,-2.2430274
1.4159403999999998,9.956259,2.7674383999999996,-1.1332772,-0.9680643,-2.2169347000000004
-0.21148463,8.313866,2.425537,-1.0630277,-0.65240407,-2.0987584999999997
-1.2524643999999998,8.4186735,1.9855209999999999,-0.9230174000000001,-0.48045424,-1.9624831999999999
-0.90326524,10.116480000000001,1.4491528,-0.7516086,-0.47513098,-1.8017208999999998
0.05845683,11.48286,1.6884772000000001,-0.62863266,-0.5965012,-1.5935728999999998
0.74588,11.649257,2.1450036,-0.5232323,-0.86744606,-1.411535
1.3552521,10.916545,2.0792015,-0.39812705,-1.184712,-1.2518200000000002
1.7829331999999998,9.834787,1.3719542,-0.31723103,-1.3987068999999999,-1.0788229999999999
2.2747407,8.732372,1.041765,-0.28209758,-1.5323293,-0.8967676
2.4561446,7.811791400000001,0.84622586,-0.20277235,-1.5323293,-0.6955486
2.22723,7.1523232000000005,0.8449233,-0.07288495,-1.3279163,-0.49113566
2.0269217,7.033111,0.921308,0.08412487,-0.9489006,-0.3474078
1.8780883999999998,7.236464999999999,0.94505847,0.2731091,-0.42826888,-0.23987806
1.3794624,7.428748,1.099178,0.52063173,0.049741883,-0.038659044
0.7281820999999999,7.363194999999999,1.0647396999999998,0.7623249,0.3009995,0.2764776
0.6038464,7.498601400000001,1.302551,0.9369101999999999,0.47984338,0.5564633000000001
0.7659722,7.812606,1.6722733,1.0252762,0.57939696,0.691674
0.99783623,8.087067999999999,1.8205606,1.0220822,0.6374116999999999,0.7630056
1.2543893,8.517142,2.0581324,0.9007120999999999,0.8631177,0.9258972
1.4604055,9.428069,2.421122,0.73302084,1.46571,1.2852081
1.6153008999999998,10.386621,2.5603017999999995,0.65106016,2.1375048,1.7366375
1.7369646,10.548306,2.698907,0.6372197,2.6001043,2.2093425
1.7241508999999997,10.306358,3.231799,0.7319562,2.517585,2.4722939
1.2469673000000001,10.167322,3.6512246,0.7766890000000001,1.7691356,2.5606772999999996
0.5588066999999999,11.248697,3.1462204,0.7963763,0.88973397,2.5489485
0.3391243,12.292042,2.2285135,0.83472115,0.22008602,2.53352
0.03985867,11.827960000000001,1.6434662,0.82833326,-0.12857841,2.4802873
-0.32351409999999997,9.970375,1.3507893999999998,0.7559196,-0.20949186,2.4350482999999996
-0.6960423000000001,9.148072,1.1595598,0.5919633000000001,-0.10356784,2.4105616000000003
-0.8931425999999999,9.859332,1.2535083,0.44664719999999997,0.15086626,2.360523
-1.2463735,11.310822,1.6316389,0.367322,0.39734167,2.2897147999999996
-1.5864556,12.676167999999999,1.8674773,0.35189328,0.56714475,2.1688857000000006
-2.0256383000000002,13.308947,2.2541697,0.2981197,0.7231248,2.005994
-2.1223736,12.426931,1.6797047999999999,0.22252949,0.83491313,1.8446908
-1.4168598999999997,10.839528,1.7852221999999998,0.14055136,0.8961393,1.6812756000000002
-0.19190006,9.851508,1.6859682,0.08785988,0.9312728000000001,1.4683455
1.1495806999999998,8.8686495,1.3247309999999999,-0.056915186,0.7587819,1.1414977
2.0056229,7.9409637,0.5891268,-0.24644049,0.4202229,0.7576823
2.4503505000000003,7.425051700000001,-0.009155426999999999,-0.2794272,0.09869837,0.3419449
2.8301380000000003,7.067616,-0.11958559,-0.3039142,-0.15252432,-0.09508554
3.3372010000000003,6.8058825,-0.0009576807000000001,-0.35234708,-0.29466394,-0.5353099
3.7151306000000006,6.614049400000001,-0.054482453,-0.46734682,-0.35854298,-0.85524625
4.053786,6.7457304,-0.3432136,-0.6014928,-0.32979742,-1.1400316000000001
4.4126959999999995,7.042132400000001,-0.7100053000000001,-0.61213934,-0.37824777,-1.5520690000000001
4.602451,7.2406216,-0.9264889999999999,-0.49661598,-0.379836,-1.8698584999999999
4.8522997000000005,7.6904917,-0.82310736,-0.35927603,-0.20736256,-1.9757999
5.21324,8.722593,-1.4702218,-0.29485592,0.022060962000000003,-1.8123499
5.254009,10.08228,-1.2351398,-0.29859093,0.24296728,-1.565892
5.2758536,10.902917,-0.0671813,-0.41411427,0.24722588,-1.566433
5.608436599999999,10.711592,0.51669747,-0.48968703,-0.040212385,-1.8682528000000003
5.8454533,10.725095,0.7315914000000001,-0.4652175,-0.6103416,-2.2243872000000002
5.266075,12.245365,0.5663053000000001,-0.4465774,-1.2395328,-2.422936
5.174933,13.303648999999998,0.7248876,-0.5062153,-1.6228245000000001,-2.4346645000000002
4.660102999999999,12.089081,2.3356682999999996,-0.6105335999999999,-1.7463241000000003,-2.3819556
3.4680107000000002,10.141397,3.5920303,-0.69464105,-1.5977966000000001,-2.3239408
1.628852,8.19926,3.809328,-0.70476395,-1.2794834,-2.2430274
-0.019201498,7.580234,3.1856866000000004,-0.62383306,-0.91961396,-2.1338744
-0.3805823,8.711905999999999,1.8429033,-0.51792645,-0.6263114000000001,-2.021039
0.57629395,10.368176,0.6869251999999999,-0.43114868,-0.47246063,-1.8698584999999999
1.6949223000000002,11.19546,0.80509347,-0.32468359999999996,-0.50014156,-1.6973851000000002
1.9477501,10.951547999999999,1.2633436000000002,-0.24057618,-0.74661696,-1.4833902
1.8209532,10.070242,1.3069468000000002,-0.21661282,-1.1442553,-1.2512964
1.8664238000000002,9.036655,0.93593174,-0.23951153,-1.5200771,-1.0447540000000002
2.1086404,8.122617,0.65489084,-0.24802874,-1.6584991000000002,-0.8696278000000001
2.3744256,7.4191713,0.5250389,-0.21767746,-1.474297,-0.69341934
2.4616990000000003,7.0809474,0.69032496,-0.13357005,-1.0425898999999998,-0.5422389
2.5092957,7.2556667,0.94549894,0.027680922,-0.5480683000000001,-0.35540140000000003
2.2050214,7.4469924,1.0364212,0.24223424,-0.25846579999999997,-0.10414380000000001
1.7648618000000003,7.557882000000001,1.2706218999999999,0.45514697,-0.04766494,0.19767599
1.2932328000000002,7.754331,1.5962142,0.6249675,0.10775663,0.42177626
0.8198416999999999,7.9882927,1.7485621,0.7324972,0.22539182,0.57402134
0.707908,8.527322999999999,1.6857574,0.73036796,0.36006144,0.6661049
0.99805653,9.296379,1.6053026000000001,0.6462604999999999,0.72523665,0.8433780000000001
1.4849603999999998,10.186045,1.6428151000000002,0.5717175,1.440682,1.1803312
1.8265556,10.909352,1.7397515,0.5887694,2.1800907000000005,1.5907628999999999
1.9262598000000002,10.944854,2.118974,0.65849525,2.6080804,1.9889423
1.7078607,10.638741,2.6688166,0.76283103,2.4755228,2.2018726
1.0950408,10.710327000000001,2.9599516,0.8671668,1.8777298999999998,2.3323009999999997
0.44682510000000003,11.825719,2.5323279999999997,0.86664325,1.1436445,2.4227962000000005
0.13763787,12.399044,1.9065218999999998,0.78572977,0.5421166999999999,2.4403542999999996
-0.06082230000000001,11.366903,1.5347598999999998,0.7122689,0.23390903,2.3541176
-0.0018483237,9.485606,1.3452253,0.60632735,0.10082767,2.2529757000000004
-0.16589902,8.987067,1.3083451000000001,0.42905429999999994,0.16310102,2.1944199
-0.44431594,10.032805999999999,1.6273004999999998,0.22465879,0.34622097,2.1635451
-0.89501965,11.234629,1.8899348999999999,0.075607665,0.60601324,2.1241703
-1.2082962,12.19999,1.864068,0.05164429,0.84182465,2.0517566
-1.1830133999999999,12.361694,1.813445,0.15118042,1.0451728999999998,1.9229339
-1.1150372,11.612395,1.4292713,0.22251202,1.2272283000000002,1.7525898000000002
-0.58996004,10.518245,0.8779825000000001,0.13414600000000002,1.3581803,1.5465711000000002
0.47925213,9.468905,0.6414449000000001,0.0021293017,1.3320876,1.3448285
1.4898926000000001,8.458551,0.5903814000000001,-0.14955726,1.1351272,1.126034
2.0565617,7.6629295,0.17163552,-0.3475823,0.69595003,0.8279318000000001
2.3046682,7.2920869999999995,-0.29661286,-0.46362928,0.08592256,0.36215582
2.5603017999999995,7.176725,-0.44724646,-0.46629962,-0.3787888,-0.162176
2.9621925,7.145485400000001,-0.26896462,-0.48385763,-0.59278363,-0.539586
3.5111732000000004,7.037411,0.10398497,-0.5488013,-0.7098952,-0.77647954
3.9586592000000005,7.152438,0.25895685,-0.6068335,-0.85468775,-1.12942
4.104878,7.6826773,-0.22987211,-0.5897991,-0.8658753,-1.460509
4.119789,8.663878,-0.7673416999999999,-0.49663344,-0.7168066999999999,-1.6995318
3.8794494,9.5352335,-0.93723416,-0.35131732,-0.5773549,-1.7634108
3.6300885999999997,10.347988,-0.9861620999999999,-0.23420574,-0.436821,-1.6643983
3.7517142,11.2161455,-0.89700204,-0.16447982,-0.23347269,-1.5110886000000001
4.5752044000000005,11.603527,0.16678967,-0.17352064,-0.037035886000000004,-1.5142826
4.683269,11.435703,1.1569644,-0.15755087,-0.04448844,-1.8070616000000002
4.0362983,11.109287,1.307033,-0.100059725,-0.28351128,-2.1057048
3.9190110000000002,11.813394,1.0009966000000001,-0.11444124,-0.64336324,-2.2787017999999994
4.468346599999999,11.7968445,1.3158054,-0.23739968,-0.9861634,-2.2973244
4.118975,10.732669999999999,2.2973418,-0.45619416,-1.1469431,-2.2643378
3.3570826,9.077117999999999,3.2917687999999994,-0.6217385999999999,-1.0724001,-2.2057645
2.1451472999999996,8.048195,3.7081397000000003,-0.7132986,-0.83765334,-2.1099634
1.1417661,8.376853,3.3974488,-0.687747,-0.6039711999999999,-1.9965694
1.065123,9.964571000000001,2.6187967999999997,-0.5514717,-0.5331632,-1.8597705000000002
1.8327519,11.325168,1.9927036,-0.35077628,-0.6177942,-1.6846267
2.3592656,11.191858,2.1456357999999995,-0.14583970000000002,-0.8078430999999999,-1.46105
2.1873713,10.099327,2.148097,-0.011676253000000001,-0.9813812,-1.1948873
1.7097281000000002,8.671502,1.7966567999999998,0.029269172000000003,-1.1032925,-0.9308539
1.4411082,7.4968204,1.1312699,-0.005323254,-1.1698419,-0.7376285
1.4840603,6.780753,0.6496810000000001,-0.05427974,-1.0937105,-0.5577025
1.644491,6.598736,0.6080985,-0.068120204,-0.8350004000000001,-0.36445966
1.8448186000000002,6.7053447,0.6495852,-0.025534166,-0.48047170000000006,-0.20636773
2.010641,7.044076400000001,0.9420896999999999,0.07185520000000001,-0.19353956,-0.048275806
1.9565417,7.540509700000001,1.205969,0.21025981,-0.084421575,0.14547320000000002
1.8219396,7.8986434999999995,1.4206043,0.38540359999999996,0.086969756,0.35735616
1.5583955,8.320243,1.454832,0.5429719,0.30895817,0.53354716
1.5128481000000003,8.584017999999999,1.4254502,0.63666123,0.50059533,0.677275
1.4938287000000001,8.735351,1.3999281000000001,0.65315455,0.66346943,0.76722926
1.7938794999999998,9.058692,1.5680777,0.5876698,1.024386,0.9657954
1.8210297999999998,9.92342,1.9314599,0.5030562,1.6887456000000003,1.3187358
1.8552956999999999,10.576098,2.2301892999999997,0.52113783,2.2567282000000004,1.7153096
1.6089611000000001,10.8182,2.551836,0.6520899,2.5175676,2.0815493999999997
1.2983372,11.021306,2.7376259999999997,0.8085936,2.364799,2.3706110000000002
0.9231370999999999,11.502511,2.8071728,0.88950706,1.8713244999999998,2.555319
0.59076446,12.519874,2.2952158,0.8777959000000001,1.4039428,2.599511
0.43712378,13.048955,1.5408986999999998,0.82508695,1.0334444,2.5462607999999998
0.38446090000000005,11.977597,1.0694133,0.7612079,0.82264346,2.4578947999999996
0.21023005,10.154710000000001,0.9297643,0.6526135000000001,0.7188313000000001,2.378587
-0.13152786,9.571558999999999,0.77469665,0.5338961999999999,0.7332128000000001,2.339195
-0.28227636,10.252671000000001,0.9964284999999999,0.42797219999999997,0.74705327,2.2864861000000003
-0.42588058,11.093936,1.4499668,0.34121186,0.74865896,2.1885557
-0.41068223,11.611628999999999,1.8139238000000002,0.26508059999999994,0.70659655,2.0634330000000003
-0.45855668,11.83111,1.3524558999999998,0.1980076,0.65017,1.9058821
0.009902419,11.476414,0.7321755999999999,0.113394044,0.63899994,1.7195857
0.7517794,10.746691,0.32946129999999996,0.012758356499999998,0.67306876,1.5215431000000001
1.2956079,9.764847999999999,0.36231935,-0.110182635,0.7246956,1.3261709
1.6802316000000002,8.69326,0.39182547,-0.22729422,0.76249945,1.0520321000000001
1.8170363,7.9860415,0.13697706,-0.28265607,0.73534214,0.65278804
1.8704078000000002,7.541572599999999,-0.060467955,-0.35133478,0.57936203,0.24235642
2.152914,7.119494,-0.20535547,-0.45992917,0.23122121,-0.21490239
2.413384,6.834650999999999,-0.27239314,-0.46151742,-0.05461135,-0.66736156
2.8094041,6.8525405,-0.30894777,-0.40350267,-0.1270076,-0.8994554
3.4126472000000003,7.016466599999999,-0.27441382,-0.49771553,-0.3463257,-1.200228
4.044199,7.269984,-0.30888075,-0.5089030999999999,-0.7205592,-1.6117069
4.680578,7.560428999999999,-0.49921978,-0.43064255,-0.8738689000000001,-1.8603115000000001
5.090245200000001,8.090889,-0.79463553,-0.32897709999999997,-0.76686275,-1.8837339
5.7535253,9.216988,-0.9934978999999999,-0.31407198,-0.6183526999999999,-1.7841803
6.187728,10.6296625,-0.6719375,-0.36835173,-0.53742176,-1.6713272000000001
5.903556,10.964391,-0.37001908,-0.46151742,-0.5182581,-1.7485057000000002
5.8528459999999995,10.243697000000001,0.21213585,-0.48815113,-0.6183526999999999,-2.0599422
5.4992614,10.411205,1.2344505,-0.42744857,-0.8355415,-2.4267057999999997
4.4070168,12.57768,1.1418905000000001,-0.42158428,-1.0143853,-2.6140668
4.2522745,12.621666000000001,0.90823567,-0.5136853,-1.0537949,-2.6268601
3.694033,11.184399,2.1665132000000002,-0.6084392,-0.97607535,-2.5986380000000002
2.4401127999999996,9.383298,3.2134304,-0.64996064,-0.8440586999999999,-2.5555286
1.2363753,7.909244999999999,3.4431112,-0.6180210999999999,-0.68010247,-2.4442637
0.32286290000000006,7.6031804,2.7734718,-0.5653296,-0.51082295,-2.2893658
0.50459236,8.816275,1.8511393,-0.51848495,-0.47408378,-2.108375
1.9392747,10.595981,1.2606238,-0.45087089999999996,-0.60025364,-1.9028976000000002
3.3723383,11.33982,1.4006653999999998,-0.35718164,-0.78389716,-1.6867734
3.717678,10.832211000000001,1.4908886000000001,-0.29599038,-0.9973684000000002,-1.5079296
3.2751912999999995,9.738817,1.1164833,-0.27839747,-1.2810891000000002,-1.2694303
2.9279652,8.802425,0.62794167,-0.33058283,-1.4988190000000001,-1.0016793
2.6684813,7.959676700000001,0.6535883000000001,-0.37582174,-1.5621569,-0.75466293
2.1653542999999997,7.264295599999999,0.7265636,-0.32257175,-1.4162998,-0.51670474
1.8713751,7.074262599999999,1.0154384,-0.1841846,-1.0287669,-0.27557003
1.5168321000000002,7.05645,1.1192415,0.017558011999999998,-0.47143087,-0.0035604715999999997
1.2234561000000002,7.2924414,1.2506256000000002,0.2506991,-0.16161749,0.26630235
1.0334235,7.481631299999999,1.5548999,0.47907543,-0.05035275,0.5479111999999999
0.9152554,7.786212,1.7845708999999998,0.6733655,0.09121091,0.7682939000000001
0.7251175,8.176791999999999,1.9107740000000002,0.8309513000000001,0.2077989,0.88859946
0.6619010000000001,8.668101,1.8185016,0.86554366,0.28393015,0.9641896999999999
0.871815,9.261415,1.6022285,0.75693184,0.5181359,1.0307217
1.14145,9.712769,1.6031861,0.6590014,1.1574674999999999,1.1840313999999998
1.3368073,10.063939999999999,1.8985733,0.7132986,2.0959659,1.4400886
1.3919122,10.32127,2.1161776000000003,0.8985478000000001,3.0642571,1.8058048
1.226559,10.477831,2.6708949,1.0891203999999999,3.5508025,2.1172066000000003
0.9513504,10.547426,3.0612168,1.2365832,3.4986346,2.4126557999999996
0.6868773,11.846414,2.7672377,1.2578763000000002,3.0866147999999995,2.6793423
0.7911208000000001,12.558775,2.2617736,1.154064,2.4047146,2.881626
0.69660735,11.822635,1.9285104,1.0401465,1.6589180000000001,2.9071773999999997
0.87916046,9.995563,1.4424393999999998,0.9086708,0.9157917,2.8156176
1.356593,8.750826,1.1881274,0.74949676,0.42711696,2.6522023999999997
1.6737672,9.131705,1.4444793,0.5637239,0.24773203,2.4919636
1.5158648000000001,10.375483500000001,1.640756,0.4886573,0.25677285,2.4105265
0.8513014999999999,11.468016,1.3820671999999998,0.46736425,0.36164966,2.2817037
0.5154333,12.087816,0.8122664,0.48120472,0.54635787,2.0783381000000003
0.049234364,12.227811,0.1933653,0.49504519,0.72363096,1.8686193
-0.36901352,11.973239999999999,-0.41158244,0.46204102,0.90195125,1.7099688999999998
-0.23919033,11.411254,-0.64856046,0.24752259,1.094653,1.5635881
0.32013348,10.609282499999999,-0.5580404999999999,-0.03885103,1.2272108,1.3969790000000002
0.88989604,9.694219,-0.33870292,-0.08463102,1.2032473999999997,1.1414628
1.6857383000000001,8.813669,-0.32790986,0.032463122000000004,1.0366383,0.8508131
2.3269439,8.016774,-0.20484789999999997,-0.11285299,0.73640674,0.42812926
2.9520793,7.1322503,0.032465372,-0.34974653,0.30839968,-0.09299114
3.5783165,6.681326400000001,0.12625104,-0.35931093,-0.027995082,-0.53056264
4.0997449999999995,6.522926,0.08450574400000001,-0.3145956,-0.13713051,-0.8691216
4.4462433,6.5878369999999995,-0.27676973,-0.43970078,-0.3260973,-1.2193916999999999
4.537912400000001,6.788614999999999,-0.7455257,-0.5573359999999999,-0.67263246,-1.7320124
4.4227324,7.0493820000000005,-1.3467194,-0.5514891,-0.98352796,-2.163737
4.724842,7.4065685,-1.4296927,-0.603657,-1.0958398999999999,-2.438417
5.3394337,8.180921000000001,-0.92148995,-0.6174975,-1.0372841,-2.5124013
5.532808999999999,9.847237,-0.9200151,-0.6020688,-0.79775506,-2.4032834
5.861494,11.221039,-1.4133356000000001,-0.6526135000000001,-0.5560619000000001,-2.2797666000000003
5.8722389999999995,10.9098215,0.14797124,-0.73726195,-0.54648006,-2.3377986
5.4175705999999995,9.996069,1.6054941,-0.7351327,-0.8504466,-2.5193305
4.8196907,10.980642,1.2618976,-0.70266956,-1.3582851,-2.6369655
4.688728,12.789136,0.044302307,-0.72663295,-1.8677118000000001,-2.6518707000000004
4.537836,12.076228,1.0417938,-0.82777476,-2.1221807,-2.6380477000000004
3.8632362000000002,10.823908,1.9426553,-0.9768084,-2.1280277,-2.5730865
3.279405,9.14132,2.4953616000000003,-1.1093662,-1.9635477,-2.4740915
2.1952243,8.005856,2.753131,-1.2057083999999998,-1.7990505,-2.39529
0.98731136,8.6779375,2.220622,-1.1998615,-1.6217774,-2.2845662
0.5605591999999999,10.667921,1.2654121999999999,-1.1226655,-1.3966124,-2.0876057
1.1223252000000001,11.800186,0.93934107,-1.0076833,-1.2470202,-1.8544471999999999
1.5974976,11.831044,1.2945161,-0.84533274,-1.1842059,-1.580832
1.7700908,11.392886,1.3714945,-0.69202304,-1.2379795,-1.2939173000000002
2.0513327,10.575064999999999,1.0565803,-0.56691784,-1.3034468000000001,-0.995274
2.4021697,9.465439,0.8008029999999999,-0.43650684,-1.2528846000000002,-0.76850337
2.473057,8.25312,0.8893214,-0.24380504,-0.9915040999999999,-0.5401444999999999
2.4123116000000002,7.196414999999999,0.9930860999999999,-0.0031939526,-0.5422214,-0.2872812
2.5532150000000002,6.688624000000001,1.0541286,0.2539105,0.025743606000000002,-0.05518731
2.2750470000000003,6.845827000000001,1.1644632,0.51635563,0.49047244,0.17795376
2.3081446,7.217206,0.9437655999999999,0.72235686,0.70872587,0.3898193
2.354659,7.406950999999999,0.92867255,0.90814716,0.81679666,0.64161795
2.2721932000000002,7.6396203,0.85953754,1.0635687,0.89343405,0.8513367000000001
2.2348819,7.95304,0.85918325,1.0987022,0.89982194,0.9434203000000001
2.3844907,8.2593155,0.99782664,1.0209827,0.97541213,1.0429739
2.5502844,8.298561,1.5552063999999999,0.92837554,1.305995,1.1968246999999999
2.2932909,8.672144,2.3785915,0.9539097,1.9612788,1.5439008
2.0990922000000003,9.344301,3.024777,1.0875322,2.7182455,2.0522628000000003
2.0032284,9.821188000000001,3.5396163,1.2397771999999998,3.2442005000000003,2.5697007000000003
1.6294266000000002,10.229944999999999,3.7970314,1.3307961000000001,3.3059504,2.9268822999999995
1.1536701,10.864495,3.6319656000000005,1.3398370000000002,2.8433332,3.0737865
0.70027524,12.370341999999999,3.2656433999999996,1.248818,2.0267637,3.0588990000000003
0.4579629,12.943522999999999,2.477175,1.1444823,1.1319158,2.9609509999999997
0.20432116,11.774234,1.7317452000000002,1.0545278999999999,0.50911254,2.7655790000000002
0.2733412,9.938561,1.266389,0.8868367,0.3068289,2.5499959999999997
0.29725450000000003,8.997189500000001,1.1931072,0.8197810999999999,0.4101,2.5063452999999996
0.012698846000000001,9.574872000000001,1.2288097,0.7404559000000001,0.7294953000000001,2.48027
-0.40396887,10.687076,0.9673245,0.631879,1.0574077,2.4206494999999997
-0.63776743,11.818861,0.42052716,0.5775469,1.2378573,2.3450417999999997
-0.53490293,12.738215,-0.124048375,0.55201274,1.3267643,2.2188895
-0.07388506,12.745111,-0.48503652,0.3981794,1.4151303999999998,2.0107589
0.29826006,11.879358,-0.51516515,0.14690436,1.3581629,1.795682
0.87754196,10.687553,0.122343704,-0.02448697,1.1606615,1.5045087
2.0461805,9.635532000000001,0.26422408,0.019163715,0.9669124,1.1867192
2.770685,8.778502,0.29722577,0.018622663,0.81039125,0.88008225
3.2012775,7.8210526,0.45961009999999997,-0.13573426,0.53305846,0.46434486
3.4033672999999993,7.300984,0.28671044,-0.35718164,0.28127727,-0.09245009
3.4033577000000004,7.040811,0.16407944,-0.41786674,0.014573500000000001,-0.5997475
3.6096997,6.709923,-0.12620316,-0.359852,-0.092415184,-0.9718517
3.847779,6.519631400000001,-0.65105045,-0.44287730000000003,-0.2446428,-1.2412083
4.0238295,6.9342690000000005,-1.225927,-0.6526135000000001,-0.6715678,-1.6638572
4.356547,7.427809700000001,-1.4421713,-0.70158744,-1.0308787,-2.0992994
4.9621744,7.380289599999999,-0.87724507,-0.7180983,-1.0788053999999998,-2.3782554
5.133388500000001,7.602155000000001,-0.27204835,-0.7031930999999999,-0.8887565999999999,-2.4527810000000003
5.217990400000001,8.979645,-0.5419419,-0.69307023,-0.62207025,-2.3628092
5.9712157,10.354385,-0.66901654,-0.7399149,-0.46556658,-2.2510209999999997
6.3069687000000005,10.076744999999999,0.21256681,-0.7920828000000001,-0.55286795,-2.2904131000000003
6.0359836,9.290488999999999,1.2292981,-0.7782423,-0.86959285,-2.4293587000000003
5.18925,10.287425,1.4142166,-0.73246235,-1.3593322,-2.6294956000000003
4.5981309999999995,12.677375,0.26697266,-0.6999991999999999,-1.8123499,-2.7977277999999997
4.673587,12.312536,0.76777256,-0.76227254,-2.0194159,-2.8402965
4.3668512999999995,10.972588,2.0041957,-0.8815134,-1.9491488000000001,-2.7907990000000003
3.7513117999999994,9.268232000000001,2.6153111,-0.94645715,-1.7213135,-2.6582587
2.5336783,8.329724,2.5821273,-0.92676985,-1.4067178999999999,-2.5124013
1.3111128,8.829749000000001,1.8992531000000004,-0.8644790000000001,-1.0841287,-2.3670678
0.9340068000000001,9.9846735,1.0653431,-0.8149814999999999,-0.92230177,-2.2233400000000003
1.5401613,10.823994,0.91226745,-0.7686779,-0.9414655000000001,-1.983811
2.2991998,11.293439999999999,1.0556802,-0.69680524,-1.1261736999999998,-1.7431825
2.960957,11.1990795,1.1527698,-0.6217385999999999,-1.4184291,-1.4621146999999999
3.1671650000000002,10.3891115,1.0302058,-0.6164154000000001,-1.6249714,-1.2129864
3.1093017999999994,9.277589,0.5408693,-0.6185447,-1.6893740000000002,-0.97876316
2.9746232000000004,8.0610285,0.4150684,-0.5546656,-1.4657973,-0.79670787
2.7767856,7.262053999999999,0.63818884,-0.3992266,-1.0543185,-0.62158155
2.668309,7.1601186000000006,0.8493574,-0.1335875,-0.5986305000000001,-0.3681772
2.58976,7.3424897,1.0262698000000001,0.20654227,-0.13871877,-0.06848672
2.129604,7.396349400000001,1.3711209,0.5525538000000001,0.31002283,0.22905701
1.5550148000000001,7.343946000000001,1.6160478999999999,0.8772723,0.7215191,0.53888786
1.2868547,7.6030746,1.9015900000000001,1.079556,0.8811993,0.7549945
1.2243086,8.021572,1.7252617,1.0752973999999997,0.85138905,0.8912698
1.4051761999999999,8.503783,1.4668889999999999,0.9102764999999999,0.9163328000000002,0.9876295
1.9299756000000001,9.148857000000001,1.489883,0.77187186,1.3469927,1.196301
2.409017,9.931427000000001,1.756731,0.76708966,2.0321043000000003,1.5625409
2.491464,10.101549,2.4199919999999997,0.87247264,2.6384141,2.0182113999999998
1.9488801,10.151808,3.3844434999999997,1.0028837,2.9013655,2.4488540000000003
1.7105325,10.398085,3.8762510000000003,1.0817027,2.7198687,2.752838
1.3525133,11.600261999999999,3.8085046,1.1051075000000001,2.1987134999999998,2.8704731
0.55911314,12.917933999999999,3.2502053,1.0997843999999999,1.5625758,2.9050655
-0.1572799,12.609781,2.4151845,1.0412285,0.9669124,2.9061303
-0.05329493,10.591738000000001,1.5256332000000001,0.9496684999999999,0.5288173,2.794342
0.32173282,8.912119,1.1452616000000002,0.86449647,0.39784780000000003,2.619198
0.18796399,8.780658,1.2809553,0.72555083,0.48036698,2.4632356
-0.25272235,9.59937,1.3962504999999998,0.5722411000000001,0.68956214,2.395098
-0.79220307,10.593250999999999,1.275688,0.5105088,0.8966453999999999,2.3940332000000004
-0.91206634,11.610796,0.82578886,0.5344547,1.0153627,2.4041562
-0.55022585,11.958146000000001,0.17777427,0.5562888,1.1111813,2.3205723999999996
0.00022026655,11.225454,-0.06637685,0.43065998,1.175584,2.1012716
0.35072184,10.353197999999999,-0.025474306000000002,0.14531611,1.1638728,1.7147859
1.0128527,9.606227,-0.04205176,0.0010646508,1.0904118999999999,1.4310653
2.1000787999999995,8.881032000000001,0.09254069,0.060161497,0.91367984,1.2186761000000002
2.979431,8.314737,0.18418115,0.021834067999999998,0.75398225,0.8987398000000001
3.223783,7.89262,-0.045154642,-0.16711527,0.5123065,0.42709953
3.1255347999999996,7.513675,-0.09923487,-0.2544341,0.27276006,-0.08232718
3.1248355,7.273862400000001,-0.09515515,-0.3135135,-0.010960667,-0.46240753
3.4193222999999997,7.338841400000001,-0.30536607,-0.3385415,-0.2558129,-0.7216413
3.9152093,7.815162700000001,-0.6874806,-0.47055823,-0.5150640999999999,-1.0628706
4.3932357,8.478548,-1.3625498,-0.53761375,-0.71308917,-1.46105
4.831298,8.664069999999999,-1.3544958,-0.5392195,-0.7748389,-1.7804452000000002
4.492432,8.418109,-0.5424591,-0.46895249999999994,-0.7285179,-1.9225675
4.6389190000000005,8.463905,-0.18445888,-0.42690754,-0.69605476,-1.9124619999999999
5.1221843,9.495173,-0.7274638000000001,-0.52057934,-0.7279768,-1.9273497
5.7614264,10.352921,-0.56398773,-0.62226224,-0.8860861999999999,-2.0945172
5.4764585,10.047047000000001,0.49694049999999995,-0.64142597,-1.1708889999999998,-2.3324580000000004
4.934325,9.835428,1.1130261000000001,-0.66111326,-1.5243356000000001,-2.573069
4.59477,11.468159,1.2352933000000001,-0.7308566,-1.7867808,-2.756189
4.790931700000001,11.992891,1.1102201,-0.8761902,-1.8847287,-2.8387082
4.3098019999999995,10.700472999999999,2.0954819,-0.9996896999999999,-1.7686818,-2.8040984
3.446195,9.162908,2.7993772,-1.047599,-1.4870903,-2.6859221
2.251402,8.671242999999999,3.131654,-1.005013,-1.2017639,-2.5448647
1.4812448,9.956546000000001,2.410195,-0.8894896000000001,-0.91004956,-2.3915374
1.631026,11.33191,1.5533485,-0.7697251,-0.77696824,-2.2382452
2.3170892999999997,11.474652,1.459534,-0.6856002,-0.8296597,-2.047655
2.8160312000000003,11.347664,1.5614601000000001,-0.63716733,-1.0495014,-1.8240786
3.3734589999999995,10.932739,1.2861843000000002,-0.58712876,-1.4434396,-1.5792263000000002
3.7240372,9.867567999999999,0.81255376,-0.54188985,-1.7590998,-1.3737487
3.6416287000000005,8.446763,0.28547505,-0.5184675,-1.8331019,-1.2406673000000001
3.3255653,7.1478796,0.15747143,-0.50940925,-1.6068548,-1.0910752000000001
3.1324012000000003,6.464766,0.18214127,-0.43807763,-1.1288266000000002,-0.8930501000000001
2.938289,6.504768,0.29178616,-0.25228733,-0.61833525,-0.6433807
2.7895515,7.1195035,0.47695372,0.0058643064,-0.23664919,-0.36285394
2.4203656000000002,7.760997,0.5910901,0.22040018,-0.06682865,-0.11531389999999998
1.8420892,8.033446000000001,0.88296247,0.39285615,0.1306379,0.094387405
1.4287063,8.212753999999999,1.3004538,0.5733232,0.3877598,0.24558528
1.3542659,8.636633,1.5983020000000001,0.74792594,0.5032657,0.42657593
1.7886793999999997,9.102544,1.6824534,0.81395173,0.5245586999999999,0.5719095000000001
2.170143,9.580167999999999,1.7239306,0.78733546,0.90624475,0.7204195
2.3669653,10.298467,1.9715388999999999,0.77880085,1.7361313000000003,1.0429913
2.3904574,10.396246000000001,2.715973,0.8522617,2.6751535,1.5433772
1.7591922999999998,10.377417999999999,3.5233263999999997,0.9385159,3.3224611000000004,2.0996658999999998
1.36481,10.402844,3.6795815999999997,1.0231469000000002,3.4257321000000003,2.5244792
1.1845456,10.584661,3.398397,1.1280063,3.0067835,2.794883
1.2389324,11.530141,2.6514919999999997,1.2238248999999999,2.2221357999999998,2.9774618
1.2394878,11.767453,2.1039193,1.1982906999999998,1.2692907,3.0839442999999997
0.42294052,10.799142999999999,1.8224185000000002,1.1083015,0.43884557,3.0700865
0.29131690000000005,9.131217,1.4086143,1.0045068000000001,-0.11740830000000001,2.929029
0.40323144,8.286954,1.2382906999999999,0.85014987,-0.32395056,2.7672195
-0.028203696,8.617221,1.3703357,0.7170685,-0.24410175,2.6836357000000004
-0.7622755,9.823658,1.3827856,0.59142226,-0.04075344,2.6123042
-1.0636097,11.271308,1.0117801,0.46633452,0.16044812,2.4611237
-0.9089155999999999,12.102853,0.77468705,0.4551644,0.35208526,2.2657689999999997
-0.9091359,11.973786,0.8815068000000001,0.46739918,0.53626984,2.0166233
-1.0857035,11.136716,0.79114,0.388615,0.75558794,1.7829411
-0.8943588,10.185509,0.33881783,0.28269097,0.9674535,1.6088794
0.13635457,9.383805,0.3368929,0.18846065,1.1830366,1.3884792
1.4005219,8.6982975,0.37384024,0.0596379,1.2831311,1.0621724
2.350474,8.248494,0.2294986,-0.08939576,1.2133878,0.5852089
2.8940822999999996,7.825448,0.03746447,-0.22568853,0.9637184999999999,0.09386381
3.5398176,7.4493092999999995,-0.31757647,-0.29539698,0.49528953,-0.38467056
4.0740504,7.245525,-0.33448914,-0.3268129,-0.0050963615,-0.7604923000000001
4.573299,6.9561996,-0.13399869,-0.40240312,-0.4900361,-1.2331973
5.22614,6.835636999999999,-0.324309,-0.5083446,-0.8546703000000001,-1.7421004
5.6044717,6.895894500000001,-0.6429389,-0.5360255,-0.91324353,-2.04872
5.892571,7.153415,-1.0042144,-0.5237733,-0.6715678,-2.111534
6.5055629999999995,7.850252,-1.4928327,-0.48598692,-0.26274186,-1.9917698
7.0063725,9.006200999999999,-1.7947702,-0.4699997,0.11307988,-1.8022444
7.0255265,10.140182000000001,-1.1007677,-0.5285555000000001,0.13809045,-1.7633933999999998
6.437826,10.031714,-0.20847751,-0.6361026999999999,-0.26593579999999994,-1.993899
5.752587,9.776809,0.7438880999999999,-0.6951821,-0.9824284,-2.3324406000000004
5.562401,11.558477,0.7133284000000001,-0.71115184,-1.7085203000000002,-2.5586877
6.0516415,13.592084,0.6421345,-0.81388193,-2.1189517999999996,-2.571987
5.576469400000001,13.005572,1.229595,-0.9517629000000001,-2.1945245,-2.4857502
3.839926,11.002765,2.4096107000000004,-1.0358703000000002,-2.0902064,-2.4309293999999997
1.9628813999999999,8.809656,2.9854736,-1.0837796999999998,-1.8671532,-2.3697033
0.14980042,7.5462937000000005,2.6778283,-1.1093313,-1.5248767,-2.2382276
-0.7444435,8.211805,1.6089419,-1.1316714,-1.1852356000000002,-2.1328099
-0.013599066000000002,10.280108,0.79663706,-1.0997493999999999,-0.8924741,-2.0785299999999998
1.2806872,11.736692,0.644634,-0.98850214,-0.7136128,-1.990164
1.8220737,11.836263,1.2085068,-0.8527504000000001,-0.65186304,-1.8235549
1.9368134,10.871638,1.3308122,-0.74735,-0.7561988000000001,-1.6457582999999998
1.9784629,9.5761175,0.82222635,-0.6440614,-0.9520771,-1.4413278
2.3054627999999995,8.416261,0.5468261,-0.51258576,-1.0707943000000002,-1.1964581
2.7137797000000004,7.63939,0.46631387,-0.3294658,-1.0484368,-0.91273737
2.8752446,7.339761,0.50765693,-0.16070992,-0.91587895,-0.67158526
2.9700358,7.4353757,0.620376,-0.0090233525,-0.7769508,-0.48261845
3.09577,7.44658,0.8515314,0.17355554,-0.6284407,-0.33196163
2.9440923,7.45834,1.3309368000000001,0.4237485,-0.43360959999999993,-0.15098843
2.367722,7.624776,1.6833918999999997,0.6904348000000001,-0.11527899999999999,0.11889183
1.8242859,7.811533,1.8510147000000001,0.8975181000000001,0.29619983,0.36430258
1.4657782,7.866101700000001,1.9368038,0.9986773999999999,0.534158,0.5303880999999999
1.2410583,8.114811999999999,1.9310769,0.9741904,0.6070779000000001,0.649629
1.2310506,8.785974000000001,1.9790663,0.8421736999999999,0.8466243,0.8753350000000001
1.2253621000000001,9.795378,1.9810773999999998,0.7362321999999999,1.4183417999999999,1.203771
1.167135,10.53014,1.8744109,0.72982687,2.051809,1.5588233
1.1719138999999998,10.749525,1.9498761999999998,0.794788,2.4856455000000004,1.8963351000000002
1.5106263,10.6584015,2.4881406000000004,0.9012530999999999,2.569753,2.1614332000000003
1.3801998,10.792123,3.1810033,0.99387777,2.3562992,2.3961799999999998
0.8703880999999999,11.839634,2.9948592,1.0529746000000002,2.0124169999999997,2.6064572
0.3174807,12.308457,2.3993349999999998,1.0040007,1.5658047,2.738474
-0.08651688,10.986321,1.9949063999999999,0.8725075999999999,1.1495262,2.7720017000000006
-0.20973207,9.101223,1.612581,0.77616537,0.7795513000000001,2.7288919999999997
-0.3401203,8.768122,1.524053,0.6718295999999999,0.57248545,2.6634247
-0.3348435,9.839298,1.6791208,0.51265556,0.48836058,2.6325324
-0.624992,10.805895,1.7763061999999998,0.35667548,0.5282937,2.6229506000000002
-0.79265314,11.282714,1.6612407999999999,0.24701644,0.5809852,2.523397
-0.5786210999999999,11.570948,1.4176643,0.26565656,0.6241123000000001,2.381816
-0.2908668,11.139904,1.0945524,0.30876620000000005,0.72523665,2.1566336
-0.027686547000000002,10.530963,0.6448351,0.2587276,0.85353583,1.9058994999999999
0.45030144,9.914667,0.07043742,0.10754719,0.9238028,1.5859807
1.210336,9.167016,-0.2261563,-0.021781709,0.9711885,1.2820316999999999
1.8664047,8.441466,-0.16044982,-0.11868239,0.9796882,0.9881705
2.3362813,7.949592,-0.41786480000000004,-0.253352,0.8365014000000001,0.5495344
2.5623035,7.730455999999999,-0.6883713,-0.37365752,0.664028,0.00019198621
2.939189,7.6075277,-0.69792897,-0.4699997,0.40638247,-0.45174357
3.5296757000000003,7.532369,-0.41995254,-0.5184326,0.033772122,-0.76899207
3.9959800000000003,7.2950845,-0.09061574,-0.5525189,-0.44638540000000004,-1.1118271
4.440363400000001,7.422667,-0.010429143,-0.5700769,-0.8871509,-1.5621744
4.771922,8.027548,-0.33315796,-0.571159,-1.0596243,-1.9316081999999999
5.169368700000001,8.548746000000001,-0.5294154999999999,-0.56157714,-0.99574524,-2.0498018
5.2938194,8.992583,-0.45682326,-0.5477367,-0.7689746000000001,-1.9385371999999998
5.315961,9.802014,-0.49226704,-0.5519953000000001,-0.48525390000000007,-1.767652
6.0901885,10.85399,-0.2869786,-0.59829885,-0.35321975,-1.8144966
5.791899,11.242242,0.31197405,-0.5972341999999999,-0.45277330000000005,-2.1088812000000003
4.7241907,11.052363,0.8061659999999999,-0.5147325,-0.74501127,-2.41763
3.9610248,12.244062,0.8250706,-0.49607494,-1.1224213,-2.6193726
4.1460967,12.943121000000001,0.9509865,-0.6036395999999999,-1.3949893,-2.6933746
4.178016,12.161127,1.7497017,-0.74467963,-1.432252,-2.674211
3.2522835999999997,10.081638,2.8286247,-0.8181579999999999,-1.2661666,-2.6289546
1.9571162,8.316854,3.2426972000000003,-0.81761694,-0.905791,-2.5608168
0.7300112,7.847954,2.9238086,-0.75906116,-0.5411393,-2.4756447999999995
0.5026387,9.137155,1.9944754,-0.64407885,-0.35960764,-2.4064424
1.6423936999999997,10.817224000000001,1.3332448000000001,-0.525379,-0.45118508,-2.2595382
2.7282407,11.387618,1.4692353,-0.46682322,-0.7050956,-1.9875112000000001
3.0083333999999997,10.894853999999999,1.8134258,-0.42743114,-1.0095857,-1.672898
2.9916987,9.8674345,1.5442505,-0.3475823,-1.2581904,-1.3609729
2.8106875,8.537493,1.0970423,-0.29009120000000005,-1.4269288999999998,-1.1464368999999999
2.549892,7.297795,0.8852705,-0.21343632,-1.4519568999999999,-0.91273737
2.510943,6.636669599999999,0.82503235,-0.11868239,-1.2741601,-0.64818037
2.3937897999999995,6.687848,0.81693035,0.0069289569999999995,-0.99309236,-0.43844417
2.2671368,7.235574199999999,0.9144222,0.15543902,-0.6534687,-0.27342328
2.1403396,7.582839,1.2585648,0.35878733,-0.33833209999999997,-0.07326892
1.3432333,7.610822,1.4511448,0.5525538000000001,-0.021607175,0.20776399999999998
0.91686434,7.6474442,1.4527345,0.7085164,0.2849948,0.47872636
0.8031014,7.971331599999999,1.6564139999999998,0.76974255,0.42287582,0.6219131999999999
0.84720266,8.686681,1.8028914,0.73621476,0.48729593,0.68900365
0.9397146000000001,9.338421,1.8177929,0.6473076999999999,0.76941097,0.8816879999999999
0.9548843000000001,10.069974,2.0752556,0.60737455,1.3826498,1.2495334999999999
1.1894107,10.60051,2.4485403999999997,0.6845705,2.0528562,1.6759349
1.3009135,10.633837,2.7579768,0.90175927,2.4632878,2.0730498
1.2293556,10.40612,3.1533456,1.1274652,2.4329367000000004,2.4611063
0.87704396,10.577459,3.3705955000000003,1.171657,1.9873716000000001,2.745368
0.28653806,11.641614,2.893728,1.0976549999999998,1.3688093000000001,2.8433158
-0.116166666,12.2819,2.3091310000000003,0.98532563,0.81786126,2.8103118
-0.24095245,11.390099000000001,1.7385351999999998,0.87620765,0.42661083,2.7283334999999997
-0.25701275,9.553362,1.409093,0.7473849,0.22591542,2.5611835
-0.38374263,8.960166000000001,1.4503117,0.53871334,0.16842428,2.421714
-0.49340668,9.737438000000001,1.7643349999999998,0.40776128,0.23071507,2.4131970000000003
-0.7169389,10.608027,2.1388168,0.38327432,0.3951949,2.4387486000000003
-1.1576349,10.919102,2.580078,0.37423348,0.5506339,2.4302313
-1.7581293999999998,11.290682,1.8792088,0.3795393,0.7177840999999999,2.314708
-1.4129621,11.171766,0.7861600999999999,0.36411059999999995,0.8119970000000001,2.070903
-0.33680674,10.644114,0.20645679999999997,0.20176005,0.8625765999999999,1.7509841
0.60884553,9.928811,0.11240298,-0.020210912,0.84447753,1.4480822
1.4960313,9.229801,0.29596165,-0.09951867,0.80988514,1.2005596
2.2470442999999998,8.621913000000001,0.29821220000000004,-0.100059725,0.68104494,0.82632613
2.4363012000000004,7.996059,0.060305152,-0.19429006,0.53944635,0.3653323
2.5123794,7.2652529999999995,0.27125347,-0.38432150000000004,0.47930232,-0.08925614
2.8848982000000003,6.781107,0.102653794,-0.48068112,0.40371209999999996,-0.40811035
3.5152817,6.57602,-0.29100084,-0.5796937,0.13007939,-0.7099476
4.2298265,6.851189999999999,-0.5322023,-0.6110747,-0.39421752,-1.1373787
4.8718176,7.475023299999999,-0.96051544,-0.60257494,-0.8381943999999999,-1.5632565
5.2970180000000004,8.352364999999999,-1.3575411,-0.56744146,-0.99309236,-1.799609
5.2356977,9.239301,-0.8597004,-0.536043,-1.0117325000000001,-1.8762638999999999
5.396836799999999,10.106097,-0.30842105,-0.54349554,-0.8871683000000001,-1.8225077
5.966542,11.021794,0.06977661,-0.62973225,-0.7306646,-1.8342188999999998
5.9744525,11.465342999999999,-0.21712537,-0.71649253,-0.72799426,-2.060972
5.193732,10.931369,0.35096124,-0.71171033,-0.83980006,-2.3697383
3.8839028,11.072627,0.74613863,-0.71649253,-0.9835105,-2.5879917000000003
3.4616613,12.042853,0.50129795,-0.78836524,-1.0580361,-2.6720990000000002
3.5147362,11.936072,1.2524165,-0.89643604,-0.9569117,-2.6412241
3.104609,10.914772,2.3005214,-0.9496511000000001,-0.6779556999999999,-2.5847976000000004
2.3532607999999997,9.465859,3.1378407000000004,-0.9118646999999999,-0.39210567,-2.5470113999999997
1.4098401000000003,8.756755,3.204486,-0.7995528000000001,-0.21483257,-2.4586452999999997
0.9846394,9.552731,2.5728953,-0.6675361,-0.16852899,-2.3276932
1.7866011999999998,10.9779415,1.8167202,-0.5472130999999999,-0.27551767,-2.1509438
3.0198834,11.448038,1.8204265,-0.40776128,-0.5576675999999999,-1.9582595
3.5774832,11.166825,2.0187812,-0.24858725,-0.9121789,-1.7708633999999999
3.690729,10.310350999999999,1.7252425,-0.12669346,-1.2150807,-1.549957
3.4539328,8.91933,1.2350729,-0.059079394,-1.4759202,-1.3386152
3.0705638,7.543622,0.8247929,-0.019163715,-1.5525751,-1.1672238000000001
2.7241802,6.580492,0.72097075,0.010105456,-1.3987243,-0.94523543
2.3225672000000004,6.2392224999999994,0.78758705,0.056950092,-1.0442129999999998,-0.7312406
1.8304150000000001,6.4512815,0.8459385,0.16074483,-0.60184187,-0.5401444999999999
1.666077,7.047533500000001,0.95092905,0.32895964,-0.24678956,-0.29047516
1.3270965000000001,7.481478,1.0949546000000001,0.48813367,0.028955012999999998,0.057124626
1.0446669,7.747177000000001,1.3290309,0.6371848000000001,0.36590827,0.41217697
0.71097255,8.004257,1.5719370000000001,0.7888888000000001,0.58309704,0.74541265
0.55263925,8.495624000000001,1.5980242,0.8511796,0.52080625,0.9434377
0.893382,8.988752999999999,1.6303268999999998,0.7675958,0.5282588,1.0616139
1.4599555,9.610478,1.8179269,0.67816514,0.89556336,1.2750677
1.8216618000000002,10.18525,2.1547432,0.6653893,1.6024915000000002,1.6806997
1.9225056,10.39707,2.4810537999999998,0.7463028,2.2380881,2.156075
1.519255,10.290863,2.9760695,0.86022043,2.4334602000000003,2.5425432
0.99472374,10.286363,3.185294,0.9501746999999999,2.2056074,2.7751607999999997
0.05884948,11.133335,2.8665392000000005,0.9602976000000001,1.7323790000000001,2.8885548
-0.7361213000000001,12.263216,2.2871714,0.9134530000000001,1.1612023999999999,2.9524338
-1.1339992,12.024332000000001,1.8168255000000002,0.8346688,0.58362067,2.9774444
-0.75589734,10.277447,1.3084313,0.7984707,0.13274974,2.906113
-0.25007915,8.648603,0.9939193000000001,0.7612079,-0.052499502999999996,2.7059584
-0.22953690000000002,8.712297999999999,1.2168386,0.57543504,-0.054087754,2.469606
-0.5993835999999999,10.222159,1.3912228000000002,0.33215362,0.17001252,2.3658113
-0.903543,11.630495,1.4927273,0.27625072,0.47767916,2.3365247000000005
-0.69771826,12.382974,1.4103668,0.30073768,0.7864454000000001,2.2124841
-0.26625440000000006,12.458525999999999,1.12199,0.39763835,1.055261,1.9740198
0.07473741,11.54802,0.9775334000000001,0.39283872,1.3054538999999998,1.7323264999999999
0.14855541,10.363762,0.78396696,0.28742080000000003,1.3783736999999998,1.5582649
0.5654626,9.128478,0.85190487,0.10431833,1.2213465000000001,1.3437464
1.6526121,8.206002,1.080781,-0.13999286,0.89025754,1.0094459999999998
2.8569913,7.715180999999999,0.8248025,-0.27361527,0.43404594,0.5372647
3.3509727,7.6321883,0.012593501000000002,-0.30607840000000003,-0.041835542999999996,0.031573005
3.4579647000000007,7.349816000000001,-0.11584105,-0.38540359999999996,-0.35698965,-0.41558033
3.9283580000000002,6.914148,0.1491013,-0.49186867,-0.45493752,-0.7541393
4.793709,6.822957499999999,0.070619375,-0.56426495,-0.57683134,-1.0958921999999998
5.390028,7.2406692999999995,0.04537491,-0.5812819,-0.7828324999999999,-1.4802138
5.1320667,7.733539599999999,-0.5865315999999999,-0.5552066999999999,-0.80998987,-1.8113376
4.812460400000001,8.2684145,-0.9685312,-0.47005206,-0.7413286,-2.0088391
4.7823987,8.911889,-1.3977828,-0.38594466,-0.61728805,-1.9843521000000002
5.055606,9.875469,-1.208143,-0.3896622,-0.45387286,-1.8475357
5.3961573,10.346111,-0.1611585,-0.49986228,-0.42778019999999994,-1.8502061
5.546666,9.986235,0.482288,-0.57651716,-0.595454,-2.0913407999999998
5.0889809999999995,10.073814,0.6405255999999999,-0.57065284,-0.8658753,-2.4288352000000004
4.545966,11.171047999999999,0.7424706999999999,-0.56691784,-1.1863351999999998,-2.639636
4.396338500000001,11.848856,0.72548145,-0.6606071,-1.4663383999999997,-2.6529352999999998
4.263843,11.538836,1.4336576,-0.7899884,-1.605284,-2.5385115000000003
3.6804053999999997,10.364307,2.3036625,-0.90601784,-1.5115948000000001,-2.3777318
2.8798609,8.944374,3.1061416,-0.95179784,-1.2315916,-2.273396
1.4551861000000001,8.454539,2.908706,-0.93050486,-0.90209085,-2.2116463
0.90756524,9.338267,1.9835769,-0.9102764999999999,-0.6753028,-2.1142220000000003
1.6109722,10.668439,1.130657,-0.8570439000000001,-0.62845814,-1.9843521000000002
2.6055137999999998,11.555375,1.2168003,-0.79848814,-0.86215776,-1.8214605
3.010785,11.450739,1.4902563999999998,-0.7867944,-1.3055934999999999,-1.5877783
2.7843993,10.332780999999999,1.3823833,-0.76230747,-1.7389063999999999,-1.3210746000000002
2.466133,8.781645,0.947874,-0.719704,-1.9209616999999999,-1.1225085
2.2522352000000003,7.5227923,0.6835446,-0.6467841,-1.7857511000000001,-0.9548346999999999
2.217184,6.881041000000001,0.5347114000000001,-0.51953214,-1.4067178999999999,-0.7285702
2.2643116,6.8767314,0.5649741,-0.32525957,-0.97607535,-0.5007524
2.235284,7.2698884,0.59768856,-0.056967545,-0.5991890000000001,-0.25907668
2.120669,7.712183500000001,0.6998443,0.21502456,-0.40329322,-0.040299654
1.8911512,8.012282,1.0249099,0.5147325,-0.1776047,0.20081758
1.3396324,8.081159,1.2016402,0.7665137,0.14285520000000002,0.41109484
0.9618466,8.57175,1.3548403999999998,0.9501746999999999,0.44521603,0.56175166
1.0027204,9.1285925,1.5413678999999998,1.0300235,0.62673026,0.6320186
1.4924113,9.724482,1.6396642,1.0385407,0.99297017,0.71984357
1.8680710999999999,10.230711,1.8875408,1.0768681999999998,1.7238616999999998,0.9668426
1.9780512,10.6872,2.261199,1.2152728000000002,2.768284,1.4156016000000002
1.9280506000000002,10.631587,2.6184905,1.3834876,3.5539966,1.8989531000000002
1.7363038,10.413819,2.9188572999999995,1.5149807,3.8505104,2.3918865
1.6501603999999999,10.57357,2.9327822,1.5128514,3.5827419999999996,2.7858074
1.4819149999999999,11.512883,2.519476,1.3520716,2.9056242,2.9651923
1.4294245,12.169899000000001,1.744674,1.110937,2.0714613999999996,2.9524164
1.3179697,11.350853,1.2277178999999998,0.86500263,1.2399691000000002,2.8640504
1.3882825,9.505403,0.91746765,0.6951821,0.62194806,2.7022235
1.2844318000000001,8.157169999999999,0.96450895,0.5493424,0.22961551,2.4344726000000003
0.89280736,8.629564,1.2807351,0.30714303,0.2008874,2.2306006000000003
0.39870164,10.03726,1.3368646999999998,0.103777274,0.41859975,2.2343006
-0.0657352,11.075700999999999,1.1086973999999998,0.20757201,0.6208834,2.31682
-0.2429157,11.629710000000001,0.67281854,0.3151192,0.7709991999999999,2.2726455000000003
-0.21984519,11.605472,0.03717716,0.36568138,0.8508479999999999,2.011806
-0.015763423999999998,11.117111,-0.4938472,0.21078339999999998,0.94401366,1.6535598000000002
0.109922595,10.256233,-0.5921818,-0.07187266,0.9381494,1.3165717
0.21658906,9.301713000000001,-0.374185,-0.22305308,0.8886344,1.0876892
1.0949738000000002,8.70617,0.051848833,-0.1815317,0.72628385,0.85027206
2.1313088,8.40654,-0.06043923,-0.22464132,0.4106236,0.40578905
2.427711,8.2219095,-0.6638354999999999,-0.34442326,0.21151645,-0.11269591
2.464572,7.751238000000001,-0.40937975,-0.4333129,0.1513724,-0.5901831
3.2146754,7.2058672999999995,-0.44592488,-0.5168967000000001,0.06620034,-0.8755094999999999
4.2148769999999995,7.331122,-0.8954027,-0.6036745,-0.25213027,-1.2247324
5.203213,8.216901,-1.4358889,-0.6041981,-0.59014815,-1.6223708000000001
5.382357,9.088495,-2.1010556,-0.56745887,-0.75942767,-1.9556064999999998
5.3569593,9.074053,-1.8909116999999998,-0.52700216,-0.8930326,-2.1344678
4.854703400000001,8.926436,-0.57847744,-0.48708647,-1.026114,-2.1286035
5.171265,9.823688,0.18027379999999998,-0.5227436,-1.0713704,-2.0088391
5.921426,10.798894,0.13951492,-0.65102524,-1.0708293,-2.0381080000000003
5.7698730000000005,10.897727,0.43983403,-0.75110245,-1.1597188999999999,-2.272855
4.7168837,10.547013,0.78863084,-0.7777361999999999,-1.3162401000000001,-2.506031
3.508262,11.139349000000001,0.46681187,-0.7830594,-1.4125823,-2.5613754
3.5106564,11.730583,0.63472205,-0.8245808000000001,-1.4136468,-2.5033607000000004
3.4105597000000003,11.604245,1.5483301999999999,-0.8916538,-1.336992,-2.4400227
3.0414597999999997,10.302155,2.284442,-0.94062775,-1.1533483999999998,-2.3937016
2.155452,8.717450999999999,2.8335664,-0.9187936999999999,-0.93401295,-2.3064002999999995
0.88284755,8.247929,2.7714322,-0.8810073,-0.7306821,-2.188224
0.56391114,9.302805000000001,1.8896285,-0.8251219000000001,-0.61515874,-2.0860176
1.4237263999999998,10.653508,1.1775258999999998,-0.7644193,-0.6353871,-1.9774231
2.5296178,11.11171,1.10796,-0.6813765,-0.81637776,-1.8273073
2.9332418,10.804093,1.3652600000000001,-0.606851,-1.0250493,-1.6425816999999998
2.993528,10.021419999999999,1.2112459,-0.5174202999999999,-1.1698419,-1.4269986000000001
3.0971968,8.913661,0.85219216,-0.45355870000000004,-1.2369149,-1.1917282
2.9987664,7.938110000000001,0.6164782,-0.39763835,-1.175165,-0.9324595999999999
2.6069791,7.116295299999999,0.6659807,-0.29277897,-0.9654289,-0.6529975
2.200817,6.914148,0.8902025,-0.11498229,-0.7242767,-0.42355649999999995
2.0419669999999996,7.0127125,0.9212408999999999,0.095277525,-0.44374996,-0.24043655
1.9151603,7.461970299999999,1.0255706,0.33534756,-0.15097098,-0.040299654
1.6052836000000001,8.152209,1.2967954,0.5882109000000001,0.17798868,0.204029
1.3756509,8.803815,1.5396632,0.7984707,0.5995904000000001,0.44464007
1.3292321000000002,8.842342,1.8600074,0.9757263,0.9732829,0.669805
1.2956749,8.756811,2.1367772,1.068892,1.1212693,0.8460134
1.3522451000000002,8.802752,2.1238099999999998,1.0646334,1.2926781,1.0057110999999999
1.3860991000000003,9.075643,2.0615323,1.0497283000000002,1.6929868000000001,1.2452575000000001
1.4305068,9.764014,2.17473,1.0949847,2.342965,1.6668593
1.6111828000000001,10.128105,2.2796152000000003,1.2094258999999998,2.9636388,2.2167428
1.519686,10.032586,2.5473635,1.312697,3.1153603,2.780484
1.4372009,9.737668,2.8335185000000003,1.3201495,2.7901182,3.142989
1.14575,10.425849000000001,2.6752522,1.2408243,2.0821080000000003,3.2611651000000004
0.90823567,11.386842999999999,2.1161776000000003,1.1199952,1.2564799999999998,3.2100793999999997
0.43248859999999995,11.47764,1.6662016,0.9815905999999999,0.49738392,3.1174374
0.18465999,10.432284,1.2118396,0.89802426,-0.040770892,2.9444404
0.0073645646,9.476911999999999,0.95672303,0.8229402,-0.28618163,2.68573
-0.41037577,9.507624,1.0239521999999999,0.63664377,-0.27392942,2.4541774
-0.94022214,10.447885000000001,1.1235031,0.33641222,0.002321288,2.2806392000000004
-1.3156233999999998,11.657406,1.1643865,0.24537584,0.2764776,2.2236717
-1.4895861000000001,12.611821,0.79637855,0.32309535,0.49206066,2.1321115
-1.0272274,12.907869,0.26217467,0.47801077,0.695409,1.9431273999999998
-0.34133655,12.297922999999999,-0.029640216,0.49504519,0.9722181999999999,1.6397194
-0.10567049,11.0402775,-0.044321463,0.2528284,1.2516978,1.4257245
0.26477954,9.6727085,0.14834474,-0.058555797,1.3970139,1.2681562
1.3250756000000001,8.680292999999999,0.6364459,-0.21664771,1.3507103,1.0573553999999998
2.3643508,8.154067,0.45237005,-0.31140164,1.0217332000000001,0.6107256
2.9074612,7.871340299999999,-0.2958946,-0.38540359999999996,0.5133537,0.012915436
3.1373906000000003,7.463166999999999,-0.61161315,-0.45354125,0.0773879,-0.51192254
3.4162480000000004,6.8547910000000005,0.0012737153,-0.59301054,-0.24466026,-0.93886495
4.3413677,6.3697834,-0.1270938,-0.68350583,-0.5470210999999999,-1.3365033000000002
5.4602165000000005,6.038895,-0.6641899,-0.6734004,-0.7466344,-1.7325535
5.748488,6.0966144,-1.5326722,-0.62016785,-0.7221474,-2.0492783
5.4295897,6.959954300000001,-2.314628,-0.5781054,-0.570967,-2.205782
5.405447000000001,8.509424000000001,-2.1798344,-0.5461659000000001,-0.36283649999999995,-2.1254096000000002
5.5070276,10.279668,-1.6171778,-0.53178436,-0.19675097,-1.9513304
6.009082299999999,10.899948,-1.2829282,-0.57543504,-0.20046851,-1.8789341
6.064858,10.683119,-0.4591313,-0.6510427,-0.36337754,-2.1419202999999998
5.8908663,10.939280499999999,-0.016203956999999998,-0.6020513000000001,-0.6710441999999999,-2.5517936000000003
5.5147085,12.121729,-0.042779595,-0.4923923,-0.9893748,-2.7865577
5.233093,12.001406,0.39888358,-0.48815113,-1.2092339,-2.8584304
4.813868,11.140584,1.3623103,-0.6159091999999999,-1.2725893,-2.8211677
4.08921,9.486373,2.2141482999999997,-0.76335466,-1.1528075,-2.7530127
2.8045008,7.659616000000001,2.4426987000000002,-0.8676729999999999,-0.9680818000000001,-2.6891334
1.537834,7.0279493,2.1262715,-0.9038886,-0.7801796,-2.5826683
0.78818077,8.516099,1.3736492,-0.90654147,-0.5656437,-2.4660978
1.2639278,11.012207,0.48149312,-0.87461936,-0.43310344,-2.3431394
2.4625707,12.044473,0.42970175,-0.7734601,-0.45385543,-2.1557433999999995
3.007759,11.752121,1.1852256,-0.64837235,-0.6566801,-1.9273845
3.0399947,10.957399,1.5677711,-0.5679825,-1.0096030999999999,-1.6420581000000003
2.8724960999999998,9.657617,1.224864,-0.5775818,-1.3247398000000001,-1.3295743
2.62937,8.366863,0.7319840999999999,-0.57438785,-1.4642264999999999,-1.0133905
2.1881855,7.6422443,0.62621784,-0.47750464,-1.495625,-0.72113514
1.8806646,7.4525559999999995,0.6860537,-0.31087804,-1.3646729,-0.43900266
1.7598723000000003,7.693585000000001,0.9089921999999999,-0.0606851,-1.1267147,-0.15421729
1.7896657999999999,7.915844,1.0071641,0.25176373,-0.9989741,0.1476025
1.4008187,7.9151063,1.2703443,0.49343950000000003,-0.9537177,0.42706463
0.71715915,8.074522,1.5671389999999998,0.6531371,-0.71310663,0.68577474
-0.04309563,8.345239999999999,1.715455,0.7851713,-0.33567917,0.8561363999999999
-0.35949418,8.446695,1.7077456999999998,0.8777959000000001,-0.20153317,0.92320937
-0.3966426,8.807549,1.5283339,0.8985478000000001,-0.079639375,0.9833533999999999
-0.21311268,9.388843,1.6296086,0.8777784,0.38826594,1.1978718000000002
-0.031440657000000004,9.935899000000001,1.7856816999999998,0.9358105999999999,1.2304046999999998,1.5662584
-0.0024516624,9.887737,2.0190398999999997,1.0411936,1.9804424999999999,1.9479271
0.015591041000000002,9.441353,2.6113462000000003,1.1679045,2.3466825,2.2359063999999997
-0.10079589,9.047755,2.9977512,1.3057855,2.2519286,2.3865632999999997
-0.05838979,9.786491,2.5839564999999998,1.4085156,1.7829585,2.5143212999999998
0.43578303,11.097259,1.8605342,1.3488777,1.2458334999999998,2.6218336
0.6358041999999999,11.138889,1.6542017,1.1998440000000001,0.7406479,2.563819
0.37413709999999994,9.888302000000001,1.4560864,1.0534458,0.45214498,2.3450417999999997
0.2843737,9.085909,1.3432524,0.8596794,0.35630897,2.1784152999999997
0.45553997,9.6156025,1.5457253,0.64303166,0.44308674,2.1225297000000003
0.4016321,11.1237,2.1630654,0.40507346,0.6762453,2.0873964
0.036248215,12.314194,2.4782763,0.21663027,0.89608693,2.0384223
-0.09192777,12.581732,2.547919,0.21450096,1.0674957,1.9638968999999997
-0.032015268,11.886608,2.6221201,0.23153538,1.2554153000000001,1.8244276000000001
-0.2915276,10.86435,2.041258,0.19320795,1.390626,1.6764411
-0.007843405,9.915778,1.1620593000000001,0.091001466,1.4065957,1.4831983
1.3084313,9.046108,0.7351061,-0.1314931,1.1670493,1.2319406000000002
2.3827672000000004,8.283296,0.47178224,-0.35239944,0.6863507,0.8369552
2.6558306000000003,7.678607,-0.10524911,-0.47324604,0.10079276599999999,0.30569443
2.7669692,7.397183,-0.46329719999999996,-0.4806986,-0.25637139999999997,-0.18669787
3.0419959999999997,7.3032823,-0.5631162,-0.5057265999999999,-0.30641,-0.49438196
3.4696483999999996,7.1987133000000005,-0.42853338,-0.5903576,-0.28139943,-0.70518285
3.920151,7.2015,-0.23152888,-0.68404686,-0.40648717,-1.0745993
4.3743024,7.65297,-0.6629161,-0.6553188,-0.45813146,-1.4749253999999998
4.3540472999999995,8.427418,-0.9592513,-0.5067738,-0.39638174,-1.8118787
4.187861,9.515573,-1.2869601000000002,-0.3258006,-0.37241834,-1.8927921000000003
4.0189166,10.928600999999999,-1.4066318000000002,-0.21987657,-0.37988836,-1.8097493999999998
4.402678,11.815299000000001,-0.8021149999999999,-0.24169320000000002,-0.36763614,-1.6905259
4.710755000000001,11.556572000000001,0.63487524,-0.32260665,-0.4299095,-1.7533227999999998
4.606875,10.662788,1.5564706,-0.36678094,-0.59281856,-2.0386493000000003
3.7148913999999995,10.369661,1.5139878,-0.36891025,-0.8238303,-2.375079
3.4464437999999995,11.3248415,0.70648104,-0.42427209999999993,-1.1075685,-2.5321236000000003
3.8806946000000004,12.021086,0.99922484,-0.56267667,-1.3146518,-2.500184
3.6527855000000002,11.171863,2.308585,-0.69949305,-1.3274276000000003,-2.3899841
2.7479880000000003,9.740484,3.5719383000000002,-0.77986544,-1.1618657,-2.2829955
1.4673104,8.966572,3.97177,-0.79957026,-0.91593134,-2.2057995999999997
0.5446905,9.488605,3.3131156,-0.72823864,-0.7498458,-2.1184979999999998
0.44541728,10.856661,2.4355257000000003,-0.61377996,-0.74717546,-1.9960631999999998
1.2294991000000002,11.515689,1.8889581000000002,-0.49933869999999997,-0.9031555,-1.8092258
1.8864394,11.25858,1.9539654,-0.3912679,-1.2273505,-1.5803258
1.7351929,10.189110000000001,2.0417464,-0.3156777,-1.5344934,-1.3333268
1.3280253,8.708621,1.7152541000000001,-0.28640854,-1.7266717,-1.0884571
1.3089005,7.474238000000001,1.235523,-0.26563909999999996,-1.714943,-0.91066045
1.5703951,6.731988,0.9729653,-0.19113101,-1.3982181999999999,-0.7440339
1.8416008000000001,6.50405,0.9273126,-0.03302163,-0.82704175,-0.53642696
1.9133790000000002,6.637589,0.85346586,0.19427260000000002,-0.13447762,-0.2904926
1.8057835,7.0745214999999995,0.9632831000000001,0.42421973,0.3557679,-0.021135937
1.5589223,7.6362104,0.9917741,0.5780705,0.40900046,0.24872687
1.3316646,7.931406,0.9644419,0.6887941999999999,0.36908478,0.5361826
1.2859832,8.184175999999999,1.0877625,0.7494793000000001,0.29829422,0.74007195
1.3747028000000001,8.635838,1.1839518999999998,0.7233866,0.17425367,0.8369377
1.806157,9.052323,1.1121162,0.65420175,0.24345598,0.87528265
2.4911382,9.542071,1.3718008999999998,0.6371498999999999,0.7779107,1.0344392
2.8089063,9.979703,2.012901,0.7393564,1.6935103999999999,1.3586166000000002
2.5854025000000003,10.028611,2.7981036,0.9070476000000001,2.6383793,1.7786301
1.7627453999999998,10.175673,3.4248576,1.0576869,3.1627285,2.172551
0.8640194999999999,10.494906,3.4719179,1.1295596,3.2015796,2.5276208
-0.10346782,11.378128,3.0523486,1.1103958999999999,2.8757966,2.7815312999999997
-0.5718215,13.0075445,2.2731125,1.0268121,2.2380705,2.8965134999999997
-0.5218019,13.279124,1.4068136999999998,0.9091769000000001,1.4534228999999999,2.9076836
-0.036832396,11.36042,1.1614273000000002,0.8064294,0.6938033,2.812406
0.46500185,9.251980999999999,1.3625401000000001,0.7239277,0.23013912,2.6553788
0.5449970000000001,9.09698,1.6165937,0.59934604,0.027314402,2.4999222999999997
0.42198285,10.1832,1.6972688000000002,0.39760345,0.074700095,2.3913279
0.18014929999999998,11.09383,1.3941245,0.12507029,0.27378979999999997,2.2715634999999996
0.039331947,11.723161,0.7620744,0.054785885,0.48459068,2.1996908
-0.1090511,11.87572,0.17096515,0.16657422,0.6458765000000001,2.146982
0.030492553,11.4017725,-0.20091183,0.25281096,0.8316667999999999,1.9798316999999999
0.21182939999999997,10.546401,-0.18967824,0.09206612,1.048332,1.6199971000000002
0.33856884,9.510027000000001,0.03566403,-0.12351695,1.1446742,1.2521516000000001
0.9307985999999999,8.52717,0.32436645,-0.24223424,1.0493792,1.0179284
1.7299736000000001,7.7799587,0.25851634,-0.35402259999999997,0.68207467,0.6186843000000001
2.1719812999999997,7.5366497,-0.19483055,-0.46207592,0.20139354,0.102869704
2.3921425,7.577572,-0.7649666,-0.48975685,-0.15205309,-0.3485248
2.64023,7.6017437,-0.9043475000000001,-0.51265556,-0.45174357,-0.720629
2.962997,7.391283500000001,-0.046399627,-0.61060345,-0.76635665,-1.1550065
3.7552767,7.186704,-0.127429,-0.6537305,-0.97502816,-1.6122653
4.866100299999999,7.4364195,-0.8165473000000001,-0.6223145999999999,-0.94521797,-1.9662703999999998
5.6326084000000005,8.117963,-1.7053228999999999,-0.57173496,-0.7998844,-2.1451318
5.42665,8.896375,-1.3062285,-0.53927183,-0.6194348000000001,-2.1131922999999997
4.6512637,10.017263,-1.2196924999999998,-0.533425,-0.4118279,-1.9705291
5.2097926,10.999278,-0.765139,-0.58026963,-0.29525736,-1.8667343999999997
5.232681299999999,11.050898,0.03466804,-0.63137287,-0.33517304,-2.0035334
4.781708999999999,10.613572,1.1136773000000002,-0.57972854,-0.5401096,-2.312282
4.578297599999999,11.385721,0.97415274,-0.4844335999999999,-0.8733453000000001,-2.5699275000000004
5.151393,12.260056,0.7045273,-0.46794020000000003,-1.1512367000000001,-2.6503174
5.230018599999999,12.014028,1.6621602,-0.54513615,-1.2896413,-2.6114488
4.509900599999999,10.576472,2.671527,-0.62550855,-1.2662189,-2.5528932
3.185428,8.45544,3.324914,-0.6824760999999999,-1.0735171000000001,-2.470915
1.6961292000000001,7.155444999999999,3.0767407,-0.6856526,-0.81958914,-2.3745553
0.70379955,7.707366,2.3540652,-0.6159266999999999,-0.6040061,-2.2489266
0.8618072,9.52378,1.3649343999999999,-0.5270371,-0.5060582,-2.1004164
2.0562169999999997,10.763057,1.0819589,-0.43280676,-0.5491679,-1.9194258000000002
2.7981992,11.034597,1.4496508999999997,-0.36521015,-0.6795963,-1.6926552
2.9530849999999997,10.587007,1.5719466,-0.357234,-0.91648984,-1.4451326
2.8105054,9.601764,1.2385972,-0.40193188,-1.12195,-1.2018511
2.7277906,8.45385,0.65907586,-0.39022070000000003,-1.1980813,-0.9979793
2.5723686000000003,7.632399,0.4097437,-0.30133109999999996,-1.0623295,-0.79995424
2.3713132999999997,7.344922500000001,0.36135209999999995,-0.17994344,-0.7498458,-0.5657135999999999
2.1952722000000002,7.348102000000001,0.66956246,-0.022392575,-0.35594246,-0.30009192
2.0506244,7.400449000000001,0.96888554,0.15697491,-0.043476153,-0.0312763
1.8487738,7.606647,1.1271423,0.34650022,0.15400785,0.25829127
1.5213811000000002,7.7756300000000005,1.2412308,0.55250144,0.33499850000000003,0.5303183000000001
1.1524346,8.08408,1.2578752,0.7276451999999999,0.43614033,0.79328704
0.92196876,8.589773,1.2509608,0.80375904,0.45690975,0.9476614
0.9230891999999999,9.118327,1.3153456000000001,0.79578286,0.6240599,1.0961715
1.0110713,9.76206,1.7180886999999998,0.7627786999999999,1.1106053999999999,1.3751274
1.0194702,10.227627,2.0303883999999996,0.79365355,1.8148631999999998,1.7700955000000003
0.8375205,10.367774,2.2615247000000003,0.8889311,2.3275012999999998,2.1821153
0.613088,10.4474535,2.592413,1.0252064,2.376475,2.489276
0.42608172,10.476098,2.745335,1.1620226999999999,2.0788965,2.7213697
-0.07506301,11.266892,2.6466272,1.2040677,1.5976743999999998,2.8906492999999998
-0.44033199999999995,11.858108,2.1582866000000003,1.1359301000000002,1.0403384,2.8730738
-0.65133774,11.857217,1.6364081,1.0454347,0.64961153,2.7176347
-0.3478009,10.213933,1.2506353000000001,0.93577576,0.41271800000000003,2.5233448
-0.36921462,9.009343,1.2205831,0.77236056,0.37919024,2.3689704
-0.5220317,9.358245,1.4288596000000002,0.5940228,0.4664916,2.2444062000000002
-0.6654061,10.513266,1.7898381,0.4550946,0.6336418,2.1405939999999997
-0.8090965,11.483711999999999,1.7793037,0.30176744,0.8502895,2.0431871
-0.6489723000000001,11.859324,1.6953247,0.29272664,0.96581286,2.0043187
-0.47862008,11.617596,1.3700867,0.33957127,0.98923516,1.9862196
0.16063178,11.239628,0.5715246999999999,0.30230847,1.0392563,1.8909421000000002
1.144754,10.571013,0.13098198,0.15484561,1.0962238000000002,1.6380788
1.9980282999999999,9.639535,0.09415916,-0.012793263000000001,1.0861183,1.3687396
2.4551773,8.667145,-0.025560496000000002,-0.059655353,0.93120295,1.184014
2.732579,8.084855000000001,-0.41054812,-0.15547393,0.6575877,0.91518086
2.7735775,7.719365600000001,-0.5384081000000001,-0.3385764,0.34140384,0.31154126
2.9251688,7.582274000000001,-0.64477766,-0.37055084,0.13323843,-0.27242845
3.0571082,7.515274499999999,-0.50340486,-0.35243434,-0.17921041,-0.6663318
3.237181,7.1822987000000005,-0.19001342,-0.39660862,-0.44909066,-1.0261837
3.7386036,6.9503865000000005,-0.6617191,-0.49987975,-0.6652148,-1.4318157
4.4235845000000005,6.9731317,-1.3913568,-0.508397,-0.8222594999999999,-1.7991203000000002
4.7257133,7.316623,-1.74363,-0.44771186,-0.8446171999999998,-2.067936
4.448666,7.99763,-1.411334,-0.38224456,-0.7360228,-2.1446083
4.344652,9.372141000000001,-1.0153235,-0.36894515,-0.52361625,-1.9763933
5.201623400000001,10.95693,-1.3075885,-0.4349535,-0.34903094,-1.776239
6.5502386,11.366827,-0.49208504,-0.5558001,-0.31974432,-1.8741868999999998
5.920765,10.744497,0.87912214,-0.59517473,-0.48582986,-2.203164
5.2089787,11.153963000000001,1.120314,-0.56217057,-0.81107193,-2.5124364
5.064254,12.780161999999999,0.8056968000000001,-0.5935865,-1.1453898,-2.651382
4.8896017,12.5728245,1.2331862,-0.73357934,-1.3998413,-2.6242247000000005
4.0736384,10.990948,2.4304883,-0.8948826999999999,-1.442951,-2.5390701
2.9958167,8.951202,3.1851022,-0.9757787,-1.2970937,-2.428329
1.7046142,7.4837284,3.229692,-0.9757960999999999,-1.0000561,-2.3000472000000003
0.45616248,7.785484299999999,2.5340328,-0.9220225000000001,-0.6359456,-2.1605779999999997
0.43976697,9.73264,1.4865023000000002,-0.8336565,-0.42249185,-2.0312316000000004
1.7521247,11.191533,0.92007256,-0.7117627,-0.39161697,-1.8821805
2.6827316000000003,11.344666499999999,1.2394399999999999,-0.5674938,-0.52202797,-1.6660563999999998
2.8134935000000003,10.732527000000001,1.5187666000000002,-0.4748692,-0.72165877,-1.4627081
2.6380653,9.560152,1.2227953999999999,-0.41633084,-0.91807806,-1.313116
2.468556,8.328595,0.80375266,-0.41366049999999993,-1.0751228000000002,-1.1576768999999998
2.4043913,7.3960433000000005,0.47726974,-0.40886083,-1.1347432,-0.96178114
2.4431775,7.0787735000000005,0.4677791,-0.35351643,-0.9787806,-0.73926914
2.579216,7.4263639999999995,0.48110047,-0.19914207,-0.6561739999999999,-0.5391148
2.6403925,7.842227,0.7713639,0.044662975,-0.27077037,-0.3453483
2.5015192,8.011277,1.0703614,0.32998940000000004,0.04808382,-0.08237954
1.8875791000000002,7.906314999999999,1.4308324,0.6222273,0.40365976,0.2753257
1.2954928999999997,8.128516000000001,1.6024966999999999,0.8564504999999999,0.6980444,0.5872684
1.0669520000000001,8.385231,1.4970655000000002,0.9730385,0.7603352,0.7703883
1.0735983999999998,8.485816999999999,1.6336883,0.9224589,0.7496713,0.87418306
1.1361157,8.562384,1.719669,0.79683006,0.9610132,1.0493268999999998
1.1770662,9.421491,1.9306747,0.7590437,1.5455065000000001,1.3948147
1.3365871,10.237807,2.2230449,0.8580561999999999,2.248176,1.8366449
1.3587095,10.683005,2.6741319,1.02573,2.6623251,2.2491884
1.1838082,10.769789999999999,2.9469845,1.1412533999999999,2.646879,2.6026523
0.76343435,11.077761,3.0828986,1.0794861,2.2918267000000005,2.8060007000000002
0.18340543,12.381864,2.7158868,0.95865697,1.6929519,2.8480458
-0.1323036,12.900304,2.15753,0.8575325999999999,1.0344741,2.80813
-0.38807136,11.429219999999999,1.5892231,0.7840543000000001,0.48511428,2.7341456
-0.30977140000000003,9.1335535,1.1586596000000002,0.7531793999999999,0.17423622,2.5957234000000002
-0.30304846,8.295028,1.0880498,0.64512604,0.06935938400000001,2.4083624
-0.3966139,9.301732000000001,1.3056828,0.38426915,0.22053981,2.2555761000000003
-0.60733235,10.720678999999999,1.3786101,0.12131783,0.50481904,2.2124667000000002
-0.80038166,11.618381,1.1864514,0.16816248,0.7358308000000001,2.264617
-1.0236266,12.066202,0.63111156,0.29698524,0.9578191999999999,2.2587702000000003
-0.6122644,11.696344999999999,-0.04337336,0.38800415,1.1968246999999999,2.0788443
-0.09862196,10.820316,0.099378526,0.23736478,1.4534055000000001,1.8041643
0.21873426,9.738923,0.37312198,0.020176006,1.4794981000000003,1.5667472
0.93220633,8.843003,0.6665266,-0.14751522,1.2766734,1.4006442
2.0311258000000003,8.372111,0.64587903,-0.23799309,0.84709555,1.1318461000000002
2.8028057,8.277234,0.024928428,-0.3034604,0.36800268,0.6080378000000001
2.9563026000000003,8.280873,-0.6743316999999999,-0.38810885,0.040090214,0.068783425
2.9333665,7.86637,-0.18558894,-0.48977429999999994,-0.13288938,-0.35067156
3.3628572999999995,6.998232400000001,0.11658804,-0.58400464,-0.32135,-0.6924245
4.327596,6.697223700000001,-0.10259633,-0.6521248000000001,-0.64498645,-1.1060326
4.9428964,7.320655,-0.69723946,-0.6122266,-0.8744274,-1.5521388
5.0535087999999995,8.391266,-1.552841,-0.53876567,-0.89252645,-1.9061264
4.601588700000001,9.066305999999999,-1.4890785,-0.5254488,-0.8249299000000001,-2.0738003000000003
4.0379743999999995,9.852513,-1.1230434,-0.5494121999999999,-0.7062126,-2.0802057
4.6395992999999995,10.799314500000001,-0.6815814,-0.59198076,-0.5912303000000001,-2.0599597
5.507344,11.036187,-0.08911219,-0.6606420000000001,-0.57206655,-2.2185926
5.234807,10.339982000000001,0.7095456,-0.6782175,-0.6508507,-2.5108479999999997
4.4348279999999995,10.164613000000001,1.0582658999999999,-0.67502356,-0.7823264,-2.7493298
3.9314706,11.333088,0.9097296,-0.7080276999999999,-0.9265953000000001,-2.8605947
3.9887593,11.625199,1.2399954,-0.7990640999999999,-1.0639353,-2.8818702999999997
3.8370626000000003,10.898071,2.3518147000000003,-0.8986002000000001,-1.1688120000000002,-2.8648357000000004
3.2486637000000003,9.645491999999999,2.9940832000000004,-0.96036744,-1.1735942,-2.7983038
2.3141203,8.792591,3.0580754,-1.0024123999999999,-1.0453126,-2.7083494999999997
1.5203563999999998,9.115808,2.72871,-0.98537797,-0.9388475000000001,-2.6253067999999997
1.5748771000000001,10.554551,2.1736574,-1.010406,-0.9116902,-2.5342705000000003
2.4477072,11.375025,1.839264,-1.1328233,-0.93991214,-2.3798962
2.8953368999999998,11.038238,1.8809421999999998,-1.1642393,-0.90849626,-2.2393622000000004
2.7811716,10.2735,1.8001237,-1.0859787,-0.7818028,-2.0817938000000002
2.4979472,9.214698,1.4556364,-1.0024123999999999,-0.567808,-1.8997386000000003
2.1566104999999998,8.191742,1.09981,-0.90072954,-0.30538025,-1.7373705000000002
2.020036,7.485376,0.97996587,-0.7378378999999999,-0.07806858,-1.5308282
1.9776393,7.2607136,1.0493786,-0.53557175,0.11887438,-1.2268792
2.0807335,7.418012599999999,1.0316902000000001,-0.34445820000000005,0.26899013,-0.88140875
2.2441428,7.789784,1.3121758,-0.10756464,0.24822073,-0.5391148
2.1943243,8.480406,1.5261886999999998,0.19743164,0.18114772,-0.13774139
2.018829,8.776234,1.9304926,0.5865528,0.31742302,0.3551745
2.198672,8.790475,2.8531127,0.94694585,0.6048788,0.77782345
1.9456335999999999,8.928399,3.327021,1.163611,0.8023802,1.0908482
1.7822629,9.024349,3.4528027000000003,1.1561583999999998,0.88914055,1.3415648
1.5965973,8.931042999999999,3.6046622000000004,1.0102838,1.019028,1.6125097
1.0397061,9.074408,3.6318792999999996,0.891584,1.3442875,1.9643855
0.3860315,9.550594,3.1719534,0.8942543,1.8159279,2.3508713
-0.42218396,9.578712,2.9269116000000004,0.97410315,2.0874137999999998,2.7224169
-1.0653527,9.269286,3.1029430000000002,1.0459584000000002,1.9905306,3.0343597
-1.7553903999999998,9.420925,3.3680577000000005,1.046482,1.521002,3.230779
-1.8894368000000001,10.285135,3.3131537000000004,1.0438291,0.8949874,3.3351321000000005
-1.6544316000000003,10.663928,2.8527584,1.0321178,0.3562915,3.3665307
-1.4847306999999998,10.151137,2.2203636,1.01826,-0.006754424,3.3415027000000004
-1.0115502,8.804141,1.5362635,0.983685,-0.21275564,3.2654064
-0.75391495,8.2137785,1.2500798,0.82770497,-0.23298400000000002,3.043418
-0.6907941999999999,9.058164999999999,1.4625316000000002,0.48008773,-0.07435103,2.7612853
-1.1831858,10.625869,1.6757688999999998,0.29750884,0.043807764000000006,2.7128349999999997
-1.9906637999999999,11.556371,1.6023722,0.34913567,0.2774899,2.6835485
-2.3097534,11.632153,1.3109021,0.41088542,0.5388704000000001,2.5765597999999996
-1.7478247,11.083985,1.0061777,0.47209412,0.71932,2.3998103
-0.9029205,10.328327,1.0566378,0.37522835,0.94130844,2.1001372000000003
-0.031095892000000003,9.480397,0.9267093000000001,0.17133898,1.0818423000000001,1.7716836999999999
0.88000315,8.967674,0.7791115,-0.02666863,1.0371095,1.4112906
1.7290446,8.746785000000001,0.5361863,-0.15175638,0.8816879999999999,1.0237578
2.8425398,9.063146000000001,-0.022610841,-0.23055799999999999,0.6479884,0.54733527
3.0575582999999997,9.318578,-0.42079532,-0.29496065,0.40791836,0.054925512999999995
2.8509676,8.238859,0.7103309,-0.357234,0.30571187,-0.38154644
3.4384854,7.6094813,0.8481315999999999,-0.44135886,0.1449496,-0.82178825
4.224980400000001,7.6414203999999994,0.81401896,-0.5701816,-0.26279423,-1.363713
5.1095424000000005,7.7790966,0.044426806,-0.59466857,-0.63224554,-1.8885859
5.4983606,8.013029,-0.6705297,-0.56911695,-0.7035597,-2.2111576
5.5089912000000005,8.785858000000001,-0.8657815999999999,-0.5563412,-0.5837952,-2.2809009999999996
5.604089,9.4352045,-0.65509194,-0.5733756,-0.36128315,-2.2462912
5.881864,10.080432,-0.40026262,-0.6308666999999999,-0.13664183,-2.2574787
6.092525,10.379583,0.12712254,-0.70593333,-0.08660324,-2.4235642000000004
6.087689,10.109267,0.56552005,-0.7628834,-0.23300146,-2.6849446
5.4406605,9.947486,0.98836476,-0.75968945,-0.49542916,-2.8930752
4.760985,11.099853999999999,0.8357584000000001,-0.74851936,-0.8212123,-3.0543785
4.525262000000001,11.505873,1.1392281000000002,-0.7644890999999999,-1.1092091,-3.1459384
4.085111,11.068433,2.5191886,-0.8230449000000001,-1.2369671999999998,-3.110805
2.9894674,9.934652999999999,3.330057,-0.9188635,-1.2087451999999999,-2.9963639
1.6472108,8.825314500000001,3.2994974000000004,-1.0263758,-1.0330778,-2.7791576
0.8340058000000001,9.073363,2.8025186,-1.1051773999999999,-0.6130818,-2.6114838
0.86554223,10.210878,1.9674494999999999,-1.0657678999999998,0.009197885,-2.6519406
1.6336403999999998,11.100793,1.4849603999999998,-0.8895943000000001,0.6740636,-2.7067787999999995
2.0958745,11.149107,1.5541242,-0.67718774,1.1377277,-2.6535287
2.3005404,10.798942,1.7696406999999998,-0.51377255,1.223947,-2.5194001
2.3865116000000004,10.117436,1.785768,-0.44989353,0.9040282,-2.284636
2.2696936,9.092317,1.7767848999999998,-0.43390632,0.5101074000000001,-1.8875213
1.944494,8.080498,1.6816776999999998,-0.33012903,0.13426818,-1.3828942
2.0609193,7.469871,1.7517607,-0.21512929,-0.2798461,-0.89846057
2.5260935,7.580253599999999,2.1265874,-0.09641199,-0.5955063,-0.50879836
3.5845509,8.11848,2.6295424,0.1585457,-0.76373863,-0.13191198
4.057109,8.208117999999999,3.375422,0.5316970999999999,-0.51194,0.287543
3.2015362,7.860547500000001,3.7754644999999996,0.9266825999999999,0.099152155,0.7581011999999999
1.8627656000000004,7.8839625999999985,3.8557947,1.1928451999999998,0.65861744,1.1743796999999998
0.7701285,7.884221000000001,3.48659,1.2418193000000002,0.96151936,1.5273201
-0.49785029999999997,7.605067,3.18719,1.123102,0.9865299000000001,1.8669438000000003
-1.5747813999999998,7.7154107000000005,3.04598,0.8840965000000001,0.8555778,2.2890692
-2.2512295,8.596717,2.7183478,0.7754847,0.85236645,2.801166
-2.5575821,9.546237,2.3089874,1.0049257,1.2404403999999998,3.3404205
-2.702958,9.260207000000001,2.4208540000000003,1.1656879,1.9111705,3.7231538
-2.1637263,8.266967999999999,3.1544182000000003,0.9346587,2.2241952,3.808867
-1.632472,8.535684,3.4062980000000005,0.74036866,1.8446384999999998,3.7396646000000002
-1.2288767,9.614483,2.8179084999999997,0.5503198,1.0850189,3.6837617999999996
-1.5144284,10.638923,1.9900413000000001,0.4124562,0.1529083,3.6928199999999998
-1.9491771,10.2736635,1.4468735000000001,0.3182259,-0.65088564,3.598066
-2.2224417,9.476365,1.1779089,0.29480356,-1.0575823,3.3595843
-2.2569182,9.143131,1.1909238000000002,0.24315926,-1.0166019,3.0965981
-1.660082,9.516176,1.7531878,0.11753047,-0.7786611999999999,2.8421464
-1.0058233,10.664071,1.9462177999999999,0.054716073,-0.40603340000000004,2.638257
-0.43709505,12.665327,0.6780666999999999,0.097843155,-0.076515235,2.4120276
0.1359715,14.136238,-0.007469909300000001,0.11540117,0.20081758,2.0931733
-0.25975174,13.536788,1.1357901000000001,0.055780724000000004,0.43182936,1.8317927999999999
-0.86566675,11.672153999999999,1.4105871,-0.054925512999999995,0.73260194,1.6140803999999997
-0.66373014,10.048858000000001,1.5081364,-0.08686504,0.9732129999999999,1.3835747999999999
0.80923057,8.815489,1.1681598,-0.059184115,1.0466739,1.1067656000000001
2.1339903,8.265636,1.110967,-0.16936675,0.8827176999999999,0.7155151999999999
3.1197502999999998,7.9665337,0.44083,-0.3014009,0.5095489000000001,0.14165092
3.6228675999999997,7.5951166,0.05692454,-0.379644,0.12149237,-0.35285320000000003
3.9410953999999996,7.0755076,0.23569479999999998,-0.42062435,-0.15688765,-0.746233
4.60337,6.713322,0.31820855,-0.4211654,-0.3714235,-1.0704278999999999
4.921089599999999,6.700297999999999,0.21839908,-0.4642925,-0.6721961,-1.4467732
5.019626000000001,6.702357000000001,0.015993267,-0.47120398,-0.9335591999999999,-1.8710453999999999
5.3884287,6.637733,-0.30442753,-0.43074727,-0.92291266,-2.1366843999999996
5.7054114,6.998232400000001,-0.20247285,-0.36580357,-0.7264933000000001,-2.1840527
5.6858172,7.9770392999999995,-0.47255796,-0.33067009999999997,-0.47842965,-2.1398609
6.038809,9.550538000000001,-0.80543816,-0.37484437,-0.31180307,-2.0988805
6.42733,10.384524,0.19513701,-0.48504445,-0.43052036,-2.208016
6.2966356,10.121794,0.9083505,-0.5494645,-0.7871784000000001,-2.4699202000000002
5.6896379999999995,10.249118,1.3064106000000002,-0.5744751,-1.2082391000000001,-2.8287075
5.18066,11.850858,1.0162141,-0.6990393,-1.4685549999999998,-3.1001935
4.945051,12.3049135,1.2313187,-0.85076076,-1.4339451,-3.1246805
4.5418773,11.36833,2.2886173999999997,-0.9556200999999999,-1.1837521,-3.0293853
3.4159226,9.567536,3.1781688,-0.98012453,-0.81698865,-2.9207911
2.1606137999999997,8.301905,3.231751,-0.92261595,-0.43956116,-2.8649056
1.1976083999999998,8.133917,2.3053288,-0.8443554,-0.27347565,-2.7994208
1.1093103000000002,9.186878,1.1693951,-0.8193448,-0.2809282,-2.6610162
1.972056,10.649457,0.5449778000000001,-0.81190974,-0.30810297,-2.4374569999999998
3.1395645,11.442483,0.88810515,-0.7831467,-0.40496874,-2.253796
4.427559,11.278395,1.0602962,-0.7389724,-0.6418448,-2.060553
4.4348279999999995,10.052008,0.6468366999999999,-0.74748963,-0.99904394,-1.8098366000000001
3.6232796,8.621875,0.72686046,-0.77304125,-1.3376028999999998,-1.4861828000000001
3.0532392999999995,7.6498194,0.89939624,-0.69478065,-1.3988116000000002,-1.1694403999999998
2.772543,7.3892345,1.0224389999999999,-0.5324300999999999,-1.1470303999999998,-0.8489805
2.5849717,7.7718754,1.2133143,-0.2801079,-0.6764547,-0.5375789000000001
2.1378498,8.251578,1.2282063,0.10367256,-0.20907299,-0.15430456
1.705026,8.573292,1.193768,0.44757223,0.020350538,0.19168949999999998
1.2183805,8.601189,1.5452082,0.7201054,0.20238838,0.5073497
0.9270732,8.694324,1.7723318,0.8771501,0.41318923,0.74743724
0.24838406,8.8286,2.0033913,0.929318,0.5643697,0.91617566
-0.017669208,8.826197,1.8879526000000002,0.91174257,0.6415481,1.0657504
-0.012133813,8.915528,2.1209657,0.8547925,0.7948753000000001,1.2771097
0.28470890000000004,9.471892,2.3232470000000003,0.82869977,1.1515334,1.6135218999999998
0.62157303,9.731511,2.4088062999999997,0.8952492,1.6870526999999997,2.0457702
0.46872723,9.242873,2.9726315,1.017684,2.198085,2.4966586
-0.035845987,8.9448805,3.6367254,1.1092440000000001,2.4381552,2.8389351
-0.27533320000000006,9.436419500000001,3.5864663,1.1736467,2.210861,3.0470831
-0.1553358,10.542052,2.6991847,1.1864225,1.6897056000000001,3.1104212
-0.086181685,11.338028999999999,1.8073828,1.1598061000000002,1.1637680000000001,3.1056387
-0.38440344,10.758958,1.3953695,1.0804985,0.8182976,3.0279192999999998
-0.64392537,9.188438,1.2727386,0.978833,0.62507224,2.8586400000000003
-0.7290439999999999,8.148149,1.3320763999999998,0.80473644,0.6325073,2.6739142000000005
-0.6636344,8.381917999999999,1.4273751000000001,0.5141042,0.7650650999999999,2.514234
-0.6858814000000001,9.735561,1.400876,0.19310322,0.97532487,2.4322386000000003
-0.7936300000000001,11.325752,0.99675405,0.09567895,1.0615616,2.43915
-0.63604367,12.439209,0.46288538,0.10686651,1.0764666999999999,2.4130747
-0.43848370000000003,12.997527,0.1684273,0.26656413,1.1275699,2.2885106
0.07294654,12.320179,0.16094781,0.37461746,1.1238523999999999,1.931329
0.6300485,11.288355000000001,0.32800564,0.19629718,1.0455918,1.5363436000000001
1.5117373,10.198495,0.45983997,-0.0368439,0.9167690999999999,1.3399067
2.2482702999999997,9.165569,0.44888409999999995,-0.15821409,0.7150265,1.2377002000000001
2.6648424,8.575869,0.038795643,-0.21464059,0.36740926,0.94865626
2.6814772999999996,8.197756,-0.48586014,-0.21251129,0.03577925,0.4349535
2.5111727999999998,7.999372500000001,-0.40626732,-0.24816836,-0.049375363,-0.12981759
2.6225414000000002,7.568282000000001,-0.015820885,-0.34663984,0.018744836,-0.5221327
3.2120992999999998,7.113919999999999,-0.086401954,-0.44141123,0.04907866,-0.88571966
4.264485,7.1651177,0.13693877,-0.41051888,-0.071733035,-1.2556771
5.48389,7.397336500000001,-1.293635,-0.32749358,-0.27508134,-1.6922013999999999
4.8512273,7.8002324000000005,-2.5481012,-0.25190338,-0.30382693,-1.9807218
3.5214207,8.222062,-2.1681125,-0.21624629,-0.23410101,-2.0749521
3.329396,8.888369,-1.6650237,-0.2364572,-0.12922418,-2.0046678
4.5703106,9.898692,-1.1701612,-0.3179117,-0.01691224,-1.9812628
5.911820400000001,10.785150999999999,-0.54438406,-0.3652974,0.09859365,-2.2213328
6.1459637,10.851239999999999,0.061167065,-0.32217032,0.121474914,-2.5795965
5.722018,11.031581,0.59205735,-0.28277823,0.020333085,-2.839354
5.0477050000000006,11.9413395,1.1946875,-0.33759904,-0.09941395,-2.9639182
4.432912,11.618027,2.1853027000000003,-0.4307647,-0.12922418,-2.9809525000000003
4.0164843,10.66318,3.0869687000000003,-0.499967,0.0022340214000000002,-2.9575477
3.0538042,9.314306,3.662487,-0.5329712,0.22422245,-2.9266553
1.8500955000000001,8.65297,3.6093357000000004,-0.48558549999999995,0.4052131,-2.8680995
1.1943331,9.359835,2.9652187999999997,-0.3615624,0.36688566,-2.7360827999999997
1.9100846000000002,11.004163,2.137122,-0.2226342,0.019792033,-2.5742732999999998
3.2313201,11.780401,1.9798898999999999,-0.12892747,-0.38686967,-2.3858127999999996
3.6245532,11.371232000000001,2.138951,-0.08635889,-0.7275754,-2.1457427000000004
3.3528879000000003,10.516139,1.8259523000000002,-0.07623598,-0.9341176999999999,-1.9328126
2.9803884,9.306722,1.4069287,-0.08901179,-1.0847571000000003,-1.7209470000000002
2.525155,8.059783,1.004789,-0.13639748,-1.1438363999999999,-1.46756
2.2013439999999997,7.231590299999999,0.7727430000000001,-0.18802431,-1.0480179,-1.0970616000000002
1.8949531000000002,7.092516000000001,0.82250404,-0.19973548,-0.76801467,-0.753703
1.5660378000000001,7.291484,1.2440081,-0.1529083,-0.32459635,-0.42846087
0.9999623,7.5728507,1.6046418,0.04139921,0.13372713,-0.078173295
0.48114833,8.102151,1.7374817,0.35067156,0.50848424,0.36735690000000004
0.15032713,8.556206,1.8166628,0.58702403,0.8150861999999999,0.77935934
-0.056962847999999996,8.681146,2.0112538,0.7286226,1.0450683,1.1397523999999999
-0.03380613,8.548678,2.1404737999999996,0.7371398,1.0956304,1.3942039
0.041007884,8.54391,2.3942113,0.6237632,1.0216459,1.5794706
0.20666750000000003,8.80527,2.3883026000000003,0.47151816,1.0796607,1.8509392
0.31794040000000007,9.249682,2.333571,0.34054863,1.3186661,2.2246314999999997
0.54673034,9.693931,2.061216,0.31234413,1.5677943,2.6398454
0.1354352,9.391228,2.2111794999999996,0.41083306,1.5236201,2.9315597999999996
-0.6489436,9.074973,2.7124007000000003,0.6402566,1.0487858,3.1093564
-1.1805426,9.582218,2.6326259999999997,0.84679884,0.44034657,3.2403085
-1.2667817,10.586825,1.7714986000000001,0.92132443,-0.06960373,3.2818297999999997
-1.399363,11.196024000000001,0.9196989999999999,0.91813046,-0.3363075,3.156742
-1.4669656999999998,10.656994000000001,0.41174525,0.86222756,-0.32246703,2.9507234
-1.4330733999999998,9.471653,0.26182032,0.73075193,-0.111666165,2.7463105
-1.5815233999999998,9.371126,0.40295374,0.46832418,0.25509733,2.580766
-1.6583773000000002,10.569366,0.64717185,0.301174,0.6149493,2.5264688
-2.0821607,12.462845,1.0285683,0.35227725,0.87578875,2.5408504
-2.1295083,13.425132000000001,1.5886198,0.4071155,1.0067408000000002,2.5339212000000004
-2.1278132999999997,13.026957000000001,2.1006727,0.50665164,1.0754195,2.4205449
-1.3963941,12.281364,1.7653598999999998,0.47525316,1.1020358000000001,2.1416063
0.005659893,11.543749,1.3507223999999998,0.3235317,0.9881006999999999,1.8418983
1.6936584,10.49415,1.208593,0.26975808,0.9604198,1.4032621
2.7078613999999996,9.323222999999999,1.060708,0.28359854,1.0397450000000001,1.0386106
3.0965552000000005,8.457355,0.69929844,0.18245672,1.0120641,0.7320085
2.9984407,7.6491966,0.24173777,0.011571533,0.9311505999999999,0.3700098
2.7083017999999996,6.7809057,0.78915757,-0.123604216,0.9487085999999999,0.018675024
3.0268167999999998,5.8999834,0.6685473000000001,-0.1704663,0.66018826,-0.25972244
3.7305013999999996,5.5625253,0.13418064,-0.0347146,-0.015306537,-0.80161226
4.6849356,5.866388,-0.36744294,0.082920596,-0.39697513,-1.378112
5.4065385,6.6575665,-1.3080002,0.102607906,-0.4880115,-1.7619273999999998
6.035189,7.224963000000001,-1.9570205000000003,0.11911872,-0.25911158,-1.8859504
6.3089223,6.9938649999999996,-1.6716986,0.16011651,0.0043807765,-1.8843622
5.6401167,7.383574,-1.6599479,0.20535544,0.13266248,-1.8801036
5.738039499999999,9.128335,-2.093825,0.12070697,0.0352382,-1.9732691999999998
6.3823669999999995,11.484047,-1.8726393,-0.061871924,-0.31023228,-2.2016456
5.650986,11.309682,-0.5237364000000001,-0.16619025,-0.70787066,-2.5699973
4.949562,10.611264,0.73892725,-0.21144664,-1.0256777,-2.8723755
5.9021764,12.058187,2.007155,-0.2944894,-1.0395181,-2.959136
5.8198447,12.447857,2.5315716,-0.36102134,-0.7062649000000001,-2.9394312
4.229156,11.226479,3.0142328999999997,-0.38550833,-0.26071727,-2.9660474999999997
2.2535088,9.124552,3.4756815000000003,-0.3509159,0.116692714,-2.9500778
0.6432071,7.6923976,2.9804937999999996,-0.2838429,0.35409240000000003,-2.8244662
-0.12019849999999999,7.7705063999999995,1.7750898999999998,-0.24869196,0.38446113,-2.6344
0.6501981,9.666253999999999,0.3123667,-0.29021335,0.30993557,-2.4592736
2.4368567000000003,11.659886,-0.009749189,-0.31206486,0.24497442,-2.334727
3.8220940000000003,11.795725,0.75014174,-0.29820696,0.13372713,-2.1947167000000003
3.628135,11.122953,1.037647,-0.2753257,-0.08984955,-2.0068145
2.9477797000000003,10.159555000000001,0.92063755,-0.3051359,-0.47151816,-1.7933433
2.8103907,8.951172999999999,0.62275106,-0.35784486,-0.7930427,-1.541021
2.765303,7.8644547000000005,0.5980715999999999,-0.39241982,-0.94952893,-1.1582704
2.2041404,7.0960600000000005,0.7666521,-0.37486179999999997,-0.90961325,-0.7313453000000001
1.4097921,7.0511536999999995,1.0851671999999999,-0.31524137,-0.7568446,-0.38852775
0.89974105,7.7913165,1.0740868000000001,-0.14969689,-0.6125931,-0.10641272
0.71585673,8.6996765,1.0519738,0.12498303,-0.45233697,0.21404718
0.45127829999999997,8.931694,1.4263792,0.392734,-0.16489871,0.5845457
0.006713342,8.738511,1.7847816000000003,0.54072046,0.17683676,0.9140464
-0.39620209999999995,8.583836,1.9581026999999998,0.593953,0.45418704,1.1179358
-0.49919105,8.478309,1.9847549,0.57531285,0.65540606,1.2653986000000002
-0.74750805,8.595931,1.8880388,0.48642325,0.8417199000000001,1.4777877000000001
-0.7577457,9.471548,1.4183921,0.37889352,1.195184,1.8482863
-0.5058182,10.381373,0.9867174999999999,0.34217179999999997,1.6689537,2.2757522999999997
-0.48619533,10.571914,0.8810184000000001,0.37091738,2.1086544999999997,2.7042656000000003
-0.68694437,10.1495285,1.4326998,0.42147955,2.2236366000000003,3.0177965
-0.5652615,10.121889999999999,1.9665973,0.49706978,1.8738901999999997,3.1610007
-0.10586202,11.165676,1.5071309,0.6040759,1.1733673999999998,3.202522
0.21892579999999998,11.760242,0.8235958000000001,0.6067288000000001,0.41105995,3.2552135
-0.12799403,11.195775,0.5035102,0.5668131,-0.24366541,3.2073216
-0.51447564,9.869359,0.3372281,0.53698546,-0.62961006,2.9991738999999997
-0.8116918000000001,8.9938755,0.17830099,0.43690827,-0.65303236,2.6925542
-0.86733305,9.21893,0.18214127,0.22610740000000001,-0.43425536,2.4615252
-0.78774023,10.463092999999999,0.2811942,-0.019268433999999997,-0.023823743999999997,2.3444135
-0.8620945,12.0486765,0.18916109,-0.13105677,0.33548720000000004,2.299698
-1.0683886,13.139176999999998,0.050144162,-0.061854467,0.5782101,2.2145262000000003
-1.0332992,13.103504,0.25903347,-0.027803095,0.7368431,2.0830330000000004
-1.1516876,12.218875,0.56508905,0.016388642,0.85236645,1.9664625
-0.8457756999999999,10.973163000000001,0.52360237,0.00572468,0.99928826,1.8184759999999998
0.36382288,9.674395,0.7893109,-0.14063863,1.0514561000000002,1.6103281
1.8460252000000001,8.703335000000001,0.89932925,-0.43448228,0.96256655,1.2456938
2.816769,7.927498299999999,0.3353989,-0.5393591,0.72939056,0.76286596
2.9019353,7.348935000000001,-0.25929207,-0.53295374,0.29609509999999994,0.24865706
2.8079197,6.95552,-0.46214798,-0.48080329999999993,-0.05523967,-0.22404791
2.989793,6.633432400000001,-0.10588117,-0.38817868,-0.11379547,-0.66001374
3.7118839999999995,6.465685400000001,-0.1314704,-0.37699112,-0.01850049,-1.0023077
4.422683999999999,6.4379029999999995,-0.70106053,-0.3839026,0.07197738,-1.3951464
4.804693,6.672295599999999,-1.0932882,-0.31684709999999994,0.057595864000000004,-1.7991901999999997
5.094842400000001,7.051259,-1.7798686000000001,-0.27797859999999996,0.05920157,-2.0632236
5.318527,8.169897,-2.6496248,-0.29660127,0.18111281,-2.1068742
5.9842114,9.774759,-2.6394349999999998,-0.29609509999999994,0.2891487,-2.0547237000000003
6.461509700000001,10.619433,-1.0359328,-0.3040538,0.25509733,-2.0781286
6.6976547,10.176725999999999,0.29192979999999996,-0.3817908,0.06558947,-2.2713714
6.882103999999999,9.679661999999999,1.3973328,-0.46216318,-0.27082273,-2.580644
6.5080724000000005,10.432494,1.9426743999999998,-0.46961573,-0.706806,-2.867035
5.785378,11.966718,1.735825,-0.47813293,-1.1161555,-3.006504
5.019444,11.590091000000001,2.2872765,-0.5760634,-1.3503611999999998,-2.9702884999999997
4.1291075,10.302806,3.1399667,-0.7533539,-1.3626308,-2.8696878
2.9094052,8.617556,3.4733927,-0.85501933,-1.1252137,-2.7957034
1.4671763999999998,7.278517,3.4498339,-0.7996575,-0.7328812,-2.714249
0.5591323,7.4480357,2.918187,-0.60323817,-0.40603340000000004,-2.6391997000000003
0.5574276,9.447529,2.1226225,-0.37966147,-0.1654223,-2.5503099999999996
1.5227983999999999,11.368838,1.4211311000000002,-0.23006929999999998,-0.06960373,-2.4294634
2.4714386000000004,11.942383999999999,1.4500722,-0.18003072,-0.09515535,-2.2639015
2.836631,11.462413,1.8472509999999998,-0.19441223,-0.14199999,-2.071217
2.60311,10.233603500000001,1.7444153999999998,-0.23591615,-0.21333160000000004,-1.8236771
2.2479255,9.002935,1.4132396999999999,-0.25987953,-0.28307495,-1.5426091999999998
2.4265714,8.029616,1.3290501000000001,-0.23486896,-0.28946286,-1.2003328000000002
2.9774675,7.484954400000001,1.8585135,-0.14117968,-0.16809265,-0.7856425
3.1685727000000004,7.483671000000001,2.430335,0.021694442,0.06026622,-0.3837281
3.2038154999999997,7.808938,2.8240662,0.25272366,0.3061831,0.030386182
2.8395805,8.203273,2.878434,0.502393,0.45471063,0.38013270000000005
2.285687,8.234224000000001,2.7740755,0.76855576,0.6580764,0.7516959
1.5603778,7.993521,2.485258,0.9931796,0.9950121999999999,1.1243062
1.2362604,7.7877160000000005,2.2310607000000005,1.1086855,1.3160132,1.4181498
1.0556132,7.778867,2.103105,1.077828,1.4762518,1.589576
0.85839796,8.284139,2.1140227000000005,0.96017545,1.6412553,1.8498569999999999
0.46627557,9.134731,2.2498696,0.82815874,2.0176182000000003,2.2661529
0.01625184,9.731166,2.4059044999999997,0.6892305000000001,2.5829477,2.7974137999999997
-0.35634342,9.710096,2.6092775,0.5423087,2.8246233,3.1460779999999997
-0.5708446999999999,9.582237,2.8525669999999996,0.46404815,2.4796765,3.3025992
-0.48065037,9.860386,3.0568112999999997,0.48106509999999997,1.7013993000000003,3.402118
-0.34136528,10.91575,2.52866,0.5034402,0.8145626,3.5309582
-0.39594352,11.790992999999999,1.7903936000000003,0.47256535,0.019792033,3.4995422
-0.61050224,11.328558000000001,1.1955206,0.35863024,-0.31662017,3.3142755
-0.7486477,9.628962,0.8769099,0.35758305,-0.28680995,3.2695777
-0.88421696,8.925583999999999,0.6717841999999999,0.39165187,0.027785642000000003,3.2940644999999997
-0.92906517,9.999852,0.43759304,0.31606168,0.44352308,3.2791595
-1.2670978000000002,12.436958,-0.08008126,0.28251645,0.7650475999999999,3.1785412
-1.4621677,14.457454,-0.4364055,0.24525367,0.9779778,2.9001438999999998
-1.8055439999999998,14.494057000000002,-0.020436905,0.21437879,1.1408694,2.581813
-2.121665,13.199588,0.72639126,0.18030997,1.296832,2.2884932
-1.7526513,11.847085,0.90425164,0.06798057,1.430978,2.004755
0.029764716,10.862589,0.90927947,-0.050701816,1.4464241000000002,1.7071938999999998
1.5775107,9.879204,0.96528465,-0.1550376,1.2372116000000002,1.3792813999999998
2.3900837999999998,8.534008,1.198231,-0.24820328,0.8251917,1.0455219999999998
3.2143881000000003,7.7115803,0.70991915,-0.33976325,0.30457740000000005,0.65106016
3.6119117999999997,7.4851556,0.18985061,-0.38128462,-0.23359486,0.17781414
4.21799,7.05238,0.09068278,-0.36798522,-0.6030287,-0.387498
4.9082284000000005,6.760431,-0.044608764,-0.3573387,-0.718011,-0.82773983
5.3217360000000005,6.7334337,-0.16765158,-0.29398325,-0.71268773,-1.1854451000000001
5.5270529999999995,6.6353674,-0.29680437,-0.40044835,-0.6615845,-1.5155041999999999
5.320922,6.434379,-0.32191479999999995,-0.46380379999999993,-0.5540548000000001,-1.9450822
5.0359735,6.242881,-0.32898244,-0.31208232,-0.40765655,-2.2139153
4.816779,6.301462,-0.36072,-0.1534668,-0.32941344,-2.3022814
4.9612074,6.796746300000001,-0.30585450000000003,-0.13165018,-0.44971898,-2.3124042
5.611999,7.380184,0.17042884,-0.22692771,-0.67277205,-2.3102747999999997
6.5273886,7.6187997,0.85107166,-0.37278488,-0.87240285,-2.4444208
7.0606637,7.743423,1.3992864,-0.47499135,-1.0853156000000002,-2.7467642000000003
7.115768400000001,8.593499000000001,1.6342916,-0.49628437,-1.2306491000000002,-3.0555305
6.9050307,10.510056500000001,1.5785928999999999,-0.47979102,-1.2242612,-3.2652667
6.5059752,11.412039,1.4041513,-0.5596398,-1.1071496,-3.33501
5.6557174,9.873294999999999,2.7721982000000005,-0.7539473000000001,-0.929894,-3.3227577000000004
3.7020199999999996,7.620792,3.6844275,-0.8737118,-0.65573764,-3.2631373
2.1005002999999998,6.8552985,3.170555,-0.8295375,-0.3379481,-3.1678598
1.4023126000000001,7.9593897,2.1619257999999997,-0.71242595,-0.05635668,-3.0193498
1.8442439999999998,10.268348,1.3193678999999998,-0.6277949,0.096935585,-2.914473
3.3278347999999998,11.522048,1.0717212999999999,-0.5516637,0.11025245,-2.7430816000000005
4.3018823,11.186027000000001,1.489519,-0.41432372,0.09054768,-2.4955416
4.5765066,10.750914,1.9829258,-0.31850514,-0.11491248,-2.2634478
4.4224834,10.072148,1.9777638,-0.31372294,-0.50829226,-1.9515049999999998
4.179625,9.404471000000001,1.2209471,-0.35363862,-0.7483623,-1.5767305
4.106497,9.198753,0.83786523,-0.36376149999999996,-0.66586053,-1.2200898999999998
3.859836,9.000274000000001,1.3394887,-0.27167794,-0.39917424,-0.94701564
3.1700953999999997,8.683568,1.7353365,-0.039566614,-0.0824319,-0.61856216
2.3993732999999997,8.768974,1.7972122,0.26117107,0.26780329999999997,-0.20069541
2.0821702,8.801803999999999,1.9010535,0.59493035,0.6580066,0.22462387
1.7129077000000001,8.153224,2.1566297999999997,0.86854565,1.0545803,0.6377084
1.3612952,7.59006,2.4566329,1.0415602,1.3809046,0.9938254000000001
0.9223135,7.522228,2.3148484000000003,1.0218554,1.5155741000000003,1.2887336999999999
0.42294052,7.43957,1.8322443,0.77379173,1.4085854,1.5522261
0.6823666,8.515409,1.2167523999999998,0.4943295999999999,1.2637928999999999,1.7843374
1.4190147,9.803423,1.0192786,0.26755896,1.3489649,2.1457777
1.3962601000000001,9.858116,1.5021701,0.13391912,1.6193688,2.5354223
0.6055031999999999,9.517353,2.2479255,0.08815658,1.9089539,2.9421365
0.18855776,9.723475,2.6290153999999997,0.10037389,1.8786026000000002,3.2583203
-0.021662736000000002,10.231505,2.802212,0.09239773,1.3920572,3.511707
-0.41508752,11.386325,2.2736776,0.03970624,0.6303082,3.6400062999999996
-0.8728493,11.866171000000001,1.4635755,0.075363316,-0.18360864,3.6298833
-1.3382821000000003,11.468341,0.60385597,0.20151572,-0.7968475,3.5532286
-1.1305516000000002,10.032797,0.117019005,0.35269612,-1.0220125,3.4217355000000005
-1.1590234,9.154967,0.2086116,0.4772603,-0.93045247,3.2322276000000003
-1.3568993999999999,9.727191,0.20396683,0.45170867,-0.5652946999999999,3.0352669999999997
-1.5664113000000002,10.906431,0.10858183,0.36121333,-0.05424483,2.8771752999999998
-1.9708014999999999,11.962083,0.047031697000000004,0.26165977,0.43067744,2.639758
-2.2602031000000005,12.567021,0.09682152,0.19458675,0.7293033,2.2878822999999997
-2.1704588,12.718326,0.1579886,0.21429153,0.97790796,1.9791336
-1.5277878999999999,11.810999,0.49505386,0.19406316,1.1695452,1.7182941000000003
-0.43709505,10.534564,1.1064659,0.064158306,1.2238423,1.4090042999999999
0.89205086,9.25245,1.331789,-0.13704325,1.0976725,1.0677923999999999
2.3191864,8.5605545,1.3625785,-0.31483993,0.8224514999999999,0.7223045
3.6716328000000003,8.350314,0.9857406999999999,-0.43247512,0.41149628,0.3432888
4.3386190000000004,8.072807000000001,0.22440374,-0.45697954,-0.052674035999999994,-0.1182286
4.642576999999999,7.867414,0.0008810662,-0.44633305,-0.43860123,-0.54035395
5.1201153,7.4094605,0.15445474,-0.4436627,-0.6568546999999999,-0.9459859
5.593497,7.133074000000001,0.5868763000000001,-0.3845833,-0.76227254,-1.3058553999999998
5.4661636,6.824097,0.68620694,-0.40695843,-0.85011494,-1.6747656000000002
5.3386583,6.406788,0.12464214,-0.44900340000000005,-0.9831963,-2.0995612
5.1564879999999995,6.174206,-0.44564712,-0.38351864,-1.156717,-2.4578075
5.022355,6.3961864,-0.62629443,-0.27281243,-1.2445594,-2.541915
4.828511,6.915939,-0.5882075,-0.21903881,-1.2355186000000002,-2.4615426
5.2418556,7.5942063,-0.07020757,-0.34627333,-1.1263832,-2.4162862
5.706455,7.976723700000001,0.51619947,-0.6587396,-1.0220474,-2.532874
5.8427050000000005,7.946078,1.0178326,-0.87486374,-0.9475218000000001,-2.8070304
5.994535,8.623981,1.0841998,-0.90467393,-0.73939127,-3.0359130000000003
6.16075,10.616005,1.1881465,-0.90736175,-0.48867473,-3.2382313999999996
6.032354,11.978555,1.1402434,-0.8977625,-0.21877702,-3.3824656
5.348455,10.719291,2.343799,-0.85358816,-0.09262462,-3.3569313999999997
3.9081894999999998,8.450153,3.5181167,-0.7886445,-0.06707300000000001,-3.1573007
2.3468156000000002,7.398725,3.6303377,-0.72157145,-0.07771951,-2.9443705000000002
1.9090981,8.55226,2.5429487,-0.5778611,-0.19963075,-2.8070478
2.4498715,10.627766000000001,1.0634565,-0.42346925,-0.42212534,-2.686725
3.9212716,11.742956,0.12303323,-0.36332518,-0.74099696,-2.4429374
4.9829946,11.882576,0.71308905,-0.39685297,-0.9895841999999999,-2.201244
5.210712,11.945859,1.0750158,-0.43413320000000005,-1.0928729,-1.9893961
5.0897760000000005,11.263521,0.93416005,-0.4303982,-1.1003253,-1.7796598999999997
4.3061347,9.921074,0.8815546000000001,-0.37664205,-0.9416924000000001,-1.5012623999999999
2.9799192000000003,8.929136,0.8063193000000001,-0.26326546,-0.6292260999999999,-1.1605741000000003
1.8511776000000002,8.417122,0.8517133,-0.14083062,-0.27843237,-0.7714354999999999
1.3979840000000001,8.206911999999999,1.0880306999999998,-0.010402163,-0.080389865,-0.37857938
1.2011040000000002,7.8257164999999995,1.6833057,0.21580996,0.013281955,0.021711895
0.81085867,7.5781655,1.7645650000000002,0.47877872,0.11547098,0.4124213
0.19122967,7.5154952999999995,1.6651769,0.664028,0.32787755,0.8345640999999999
0.2613702,7.798642599999999,1.769248,0.75558794,0.52909654,1.1938925
0.45027274,7.867557499999999,2.2262437000000004,0.79285073,0.5934991999999999,1.4930419
0.76010156,7.834776,2.6062322,0.7289542,0.5296202,1.6772265
0.7295994,8.150360000000001,2.770149,0.5857674,0.5706179,1.8528938000000001
0.521754,8.945016,2.713186,0.4750437,0.83943355,2.0551775
-0.34712094,9.363033,2.3759866,0.49579567,1.361636,2.3388982000000005
-1.3067458,9.358102,2.4385998,0.6123662,1.989239,2.7700818
-1.4578582,9.324899,3.0076153,0.7001911999999999,2.2016456,3.0905418
-1.3424479999999999,9.817950999999999,2.885741,0.77045816,1.9061962,3.3077129999999997
-1.3887901000000002,10.596086,1.9608417,0.75237656,1.2312076,3.4120662000000004
-1.5526396999999998,10.944289,1.3424193000000002,0.6810275,0.49127528,3.4136546
-1.4498615,10.472315,1.0903194999999999,0.63365924,-0.009634216999999999,3.2731206000000004
-0.9810194,9.548162,0.94042325,0.5122715999999999,-0.26940903,3.031445
-0.50819325,9.25902,1.0306847,0.36004397,-0.28590238,2.939885
-0.061349027,9.796988,1.4096676000000001,0.34405676,-0.066060714,2.9105982999999997
-0.04995262599999999,11.065656,1.8299747,0.30414107,0.23895302,2.78017
-0.54064906,12.182158,1.8386607,0.28230700000000003,0.51628584,2.6183429
-0.59797585,12.899816,1.5476408000000001,0.31691688,0.774996,2.4416108
-0.79773843,12.855752,1.4909364,0.25569072,1.0081545,2.2004762
-0.6863985,11.974552000000001,1.0465726999999998,0.0879995,1.1199428999999999,1.9673177
0.016424223999999998,10.945169,1.122919,-0.09030333,1.1476238,1.7373357
1.2626253,9.991301,1.1681693000000002,-0.1706932,1.0518053,1.4908777
2.184805,9.202430999999999,0.6736709,-0.20210913,0.76115555,1.2007517
2.4069486,8.326296000000001,0.46933058,-0.40172243,0.2580993,0.7014304
3.0143096000000003,7.5461407000000005,0.55563676,-0.45443138,-0.2390752,0.05412266
3.6184623,7.102485000000001,0.32294905,-0.32293826,-0.5275956,-0.42229986
4.0339327,6.5343800000000005,0.24097162,-0.27876398,-0.66601765,-0.7853458000000001
4.4742937000000005,6.024932,-0.034457352000000004,-0.39002872,-0.7000689999999999,-1.192566
4.777467,5.8858576,-0.6219753,-0.48052403,-0.6936985999999999,-1.6674178
4.650114,6.081397,-1.081777,-0.42303290000000005,-0.6149144,-2.102319
4.7206764,6.622294999999999,-1.2947268,-0.35861279999999995,-0.4413763,-2.2998203999999998
4.9062552,7.999325,-1.177746,-0.34850734,-0.29284879999999996,-2.2753334
5.2936760000000005,10.147135,-1.3178165000000002,-0.38365826,-0.21727604,-2.1582217
6.4755974,11.667328,-1.0000772,-0.48425904,-0.32320008,-2.1816442000000005
6.927258999999999,10.74398,1.160958,-0.64927995,-0.65591216,-2.4786818
6.440575,9.596306,2.3563445,-0.75361574,-1.1035892,-2.9556452999999996
6.212781400000001,10.671254,1.8075839,-0.7530920999999999,-1.3367476,-3.18828
5.937198599999999,11.985047999999999,1.4219548,-0.81058323,-1.2585045,-3.2175667000000003
5.3252215,10.951452,2.452534,-0.88723814,-0.92900383,-3.1755044
4.0589285,9.037067,3.5960622000000004,-0.8462578000000002,-0.5388006,-3.0807505
2.3733914,7.1026196,3.831575,-0.67430794,-0.19865337,-2.946081
0.8595567,6.037889,3.2534997000000003,-0.48799405,-0.13636257,-2.8624970000000003
0.5071302,6.9920363,2.0172298,-0.36342990000000003,-0.3354523,-2.7336742999999997
1.6032437,10.070079,0.9461790000000001,-0.3368311,-0.63036054,-2.6272265999999997
3.5362742,12.467891999999999,0.21288285,-0.339484,-1.0487684,-2.534061
4.784975,12.876534,0.6003126,-0.37835246,-1.495398,-2.2535342999999997
4.3944616,12.168664,0.8524603000000001,-0.4922701,-1.6982228,-1.8532255000000002
3.852558,10.765336,0.9763075999999999,-0.56414276,-1.4799693999999999,-1.6025089
3.2101552000000004,8.848041,1.17404,-0.45183083,-0.95190257,-1.4231066
2.505599,7.467017,1.5681542,-0.23197171,-0.36795032,-1.1510969
