accx,accy,accz,gyrx,gyry,gyrz
0.8940619000000001,7.500364,0.1935281,0.15128514,-1.3168684,-1.3085955
1.232602,7.676079,0.29633513,0.24975662,-1.2093387,-1.3767332
1.48022,7.7883573,0.56442827,0.38976693,-1.144936,-1.389509
1.6716123999999999,7.869808,0.8160876,0.53881806,-1.2402135,-1.5172496000000002
1.9888633000000002,8.237098,1.0371683,0.5590463999999999,-1.2466015,-1.608286
2.365002,9.150955,1.1292683000000001,0.36580357,-0.80370665,-1.5572002
2.4882459999999997,9.994375,1.1149797,0.19120082,-0.25808182,-1.385774
2.4002924,10.242472,1.184038,0.055466562999999997,0.05757841,-1.1595443
2.5605029999999998,10.646019,1.5111436000000003,-0.072815135,-0.039287362,-0.9673835999999999
3.0213389999999998,11.033697,1.9178418000000002,-0.1606401,-0.4321435,-0.8545132
3.1675673,11.817819,2.3928993,-0.17554522,-0.89687234,-0.84918994
3.0156312,13.333864000000002,2.5507345,-0.18406242,-1.3408142,-0.8821940999999999
3.0247482999999997,14.259970999999998,3.126684,-0.18140952,-1.6245525,-0.89496994
3.0909815,12.874638000000001,4.056965,-0.13508849,-1.7075952,-0.89123493
2.0367186,10.564739999999999,3.8994074,-0.10208431,-1.5628027,-0.8641125
0.843937,8.97183,3.3500245000000004,-0.0951728,-1.2950343,-0.8050156999999999
0.0073262574,8.133811999999999,3.1757743,-0.08452629,-0.9314648000000001,-0.6948156
-0.55274457,8.548784,2.6001412999999998,-0.03981096,-0.5274385,-0.57505107
-1.2341343999999999,9.515314,1.8059846000000002,0.02459169,-0.23518312,-0.47656214
-1.3620709,10.233871,1.6063944,0.08686504,0.009669124,-0.37915534
-0.73483795,10.456723,1.7094505000000002,0.13212143,0.20343557,-0.27588418
-0.06187575,9.833112,1.6814669999999998,0.18481292,0.37803832,-0.15929620000000003
0.7489446,8.909342,1.8446462,0.2609442,0.6255609000000001,0.0009075712300000001
1.5951129,8.2000265,1.9991393,0.3344051,0.9268571,0.20692624
2.3141203,7.683165600000001,1.9415251,0.35409240000000003,1.2388172,0.43369687
2.7545865000000003,7.389119,1.9726498,0.32002357,1.3484589,0.61362284
3.0658805,7.356012299999999,1.9894474999999998,0.3301465,1.1254232,0.7461806
3.3344142,7.453169,2.031777,0.35569809999999996,0.61919045,0.8792445
3.2945364,7.4582733999999995,2.0661292,0.3711268,0.122522116,1.0112786
3.074691,7.4975190000000005,2.0290859,0.28808406,0.06716027,1.119332
2.798343,7.296157400000001,2.1960099,0.13318607,0.33438763,1.1065562
2.5762951000000003,7.0933684999999995,2.4913678,0.044279,0.56702256,0.9958325000000001
2.2922566000000004,7.242642,2.6598816000000003,-0.035552356,0.7293731,0.9095958000000001
1.7909298999999999,8.053261000000001,2.421869,-0.21547835,1.0067059,0.9479058000000001
1.0713286,9.368895,1.9151986,-0.36985272,1.3266421999999998,1.0745993
0.20706972,10.270311,1.9688574,-0.45928338,1.5922813,1.2172798999999999
-0.5910901,11.086647,2.4545738999999998,-0.506128,1.7003346999999998,1.3146867
-1.0502884,12.229754,2.656319,-0.52103317,1.6439081000000002,1.3263979
-0.53235555,13.749115,2.0210319,-0.5284857,1.4842104999999999,1.2800943
0.8286619000000001,15.465365,0.6716023,-0.5561666000000001,1.3074785,1.2151506
1.6803273999999997,15.086947,0.8609165999999999,-0.55084336,1.1068006000000001,1.1145323999999999
1.7466372,13.054998,1.8975198,-0.49174652,0.8970643,1.0181901
1.635441,11.450777,1.7743906999999999,-0.43319073,0.7533365,0.9585697
1.4301428999999999,10.617184,1.0302632999999999,-0.40818015,0.6159965000000001,0.86488044
1.3189371,10.570314,0.6948548000000001,-0.42095596,0.4956735,0.72008795
1.3788781,10.730333,0.37432864,-0.44916049999999996,0.36154497,0.5295329000000001
1.4660461999999999,10.777556,0.13757083,-0.44809583,0.17894861,0.32616714
1.415203,10.610422,0.015255853500000001,-0.37943459999999996,-0.06377433,0.120148465
1.2261952,10.173202499999999,-0.038470034,-0.25806439999999997,-0.3352603,-0.049113564000000005
0.85555357,9.32236,0.12608825,-0.12924163,-0.59449404,-0.19816469
0.60262054,8.36219,0.6089317,-0.02703515,-0.80105376,-0.33124605
0.21264341,7.536899000000001,0.9782038000000001,0.022985986,-0.8973959,-0.41746530000000004
0.21142717,7.1359377,0.9730802,0.010751228,-0.894202,-0.5297947
0.43267056,7.170299000000001,0.7992516,0.02459169,-0.8894198,-0.64531803
0.7104459,7.388497,0.5610284999999999,0.096446894,-0.8819498,-0.8028689
0.89630294,7.7339516,0.46142015,0.20024163,-0.8148941999999999,-0.94767886
1.0928286,7.9168587,0.6202994000000001,0.3391873,-0.7387630000000001,-1.0392388000000001
1.1797669,7.91932,0.9641259,0.5020789000000001,-0.7494095000000001,-1.0253809999999999
1.2091484,7.821282400000001,1.2968146,0.6718994,-0.87130326,-1.0642493999999998
1.4156628,7.9116106,1.3656527,0.72939056,-0.97298616,-1.1659323
1.729284,8.554119,1.2140901000000002,0.56489325,-0.79518944,-1.2287466999999999
2.1275067,9.455192,0.9237405000000001,0.38283798,-0.3549476,-1.1824256000000002
2.6159527000000002,9.738157000000001,0.8391485999999999,0.26626742,-0.014276793000000001,-1.0120815
2.7022397999999996,9.902351,1.3027713,0.11402236,0.019250982,-0.9013578000000001
3.0696442000000004,10.537274,1.7354418999999999,-0.044593163,-0.21334904,-0.8603775
3.040866,11.354559,2.0854168,-0.14840534,-0.67221355,-0.86303043
3.148586,12.516455,2.487135,-0.16756906,-1.1044793,-0.8853880999999999
2.7472793999999996,13.590426999999998,3.0398796000000003,-0.1414764,-1.4265274,-0.90348715
2.7441478,13.304856,3.7957098,-0.029164452,-1.6021948000000001,-0.9620429
2.2962882999999996,11.610652,4.146681,-0.009459685,-1.9700229,-0.8614246999999999
1.1766926000000002,9.57695,3.8389013,-0.07918559,-2.1632657,-0.6538178000000001
0.09843042,8.366757000000002,4.2161800000000005,-0.14734070000000002,-2.038178,-0.40948915
-0.21837993,8.503439,3.8714720000000002,-0.14467034,-1.4824128,-0.22478095
-0.5139489,9.609923,2.9253411,-0.059498273,-0.60994023,-0.16940166
-0.81709313,10.398468,2.0522810000000002,0.073565625,0.16297884,-0.16355479999999997
-0.5249814,10.51224,1.7277421999999998,0.21675244,0.76398295,-0.18219492
-0.04499183599999999,10.018748,1.5520076999999999,0.26892033,1.0801842,-0.23328070000000004
0.7295228,9.112589999999999,1.4734684,0.2801079,1.1743971000000002,-0.21891665
1.1103254999999999,7.7042727,1.3190136000000001,0.28968975,1.1978195,-0.13107422
1.2162545,7.3035507,1.1863365,0.28063148,1.1999488,0.0019896755
2.2961352,7.180287400000001,1.24781,0.27743754,1.0785786,0.11430161400000001
3.532683,7.1152897,1.4151073,0.31789428,0.81932735,0.20586158
4.9476657,7.260665400000001,1.7688361000000001,0.3913552,0.48183304,0.31550318
5.9077980000000005,7.493697999999999,2.188262,0.43713516,0.14594443,0.45498988
5.640509,7.623148,2.642289,0.44832269999999996,0.0075398222999999995,0.6487738000000001
4.773176,7.8737054,2.5802982000000005,0.40093702,0.25347418,0.84358746
3.519917,7.9671273000000005,2.322797,0.35941565,0.6889164000000001,0.8627511
2.2971888,8.084375999999999,2.425451,0.2801079,1.0461154000000001,0.74883354
1.2679884,8.658017,2.3458579,0.13158037,1.3101488000000001,0.7201054
0.45474508,9.221162,2.215939,-0.07120943,1.6449728,0.8292234
-0.093871854,9.517947,2.2971790000000003,-0.23357742,2.0122774,1.0330952
-0.28765854,9.955474,2.5458407000000003,-0.3379132,2.2449124,1.2375083
-0.25806624,10.747111,2.3658447,-0.42999676,2.2481062,1.3567492
0.09245449,11.671666,1.7765360000000001,-0.49174652,1.9350988999999998,1.3226803999999999
0.9219113000000001,13.103005,1.0427418,-0.5082573,1.4826223,1.2167388000000001
1.9740577000000001,14.295672,0.5542864000000001,-0.52103317,0.9923419,1.0708817
2.5428433,14.007162,1.0819876,-0.5130395000000001,0.66762334,0.9521818000000001
2.271245,12.5217705,1.4300950000000001,-0.46780059999999996,0.42223006,0.82655305
1.7331626,11.249645,1.14032,-0.41882667,0.24975662,0.72860515
1.1997343999999999,10.840686999999999,0.6632895999999999,-0.40870374,0.05757841,0.642892
0.7565390000000001,10.941367999999999,0.405233,-0.43638468,-0.12233013,0.5561316999999999
0.70160645,11.222189,0.10049901,-0.4571541,-0.31716123,0.45181337
0.82082814,11.413198,-0.02608722,-0.42573816,-0.48270569999999996,0.3522598
0.6401425000000001,11.147478999999999,0.08925584,-0.3464304,-0.5950350999999999,0.23726006
0.27299646,10.325856,0.18352036,-0.2772281,-0.65039694,0.06906268
-0.078759655,9.141857,0.35437056,-0.18673277,-0.69244194,-0.07731809
-0.10032663,7.954131599999999,0.7604941999999999,-0.082920596,-0.6945711999999999,-0.14224434
0.12978488,7.114916,1.1103925,-0.016388642,-0.6732781999999999,-0.23221606
0.3219531,6.7682839999999995,0.99456096,-0.033946656,-0.6796661,-0.40735984
0.5388677,6.804158,0.5447671,-0.03874631,-0.73450434,-0.62135464
0.8424334000000001,7.1083655,0.13699621,0.030438542000000002,-0.7573856,-0.80180424
1.2179496,7.476670299999999,-0.025301924,0.13796827,-0.70629984,-0.94235563
1.5165545,7.8346800000000005,0.07947792,0.21675244,-0.6349682,-0.97588336
1.9190293999999999,8.059669,0.30490637,0.3099181,-0.64774406,-0.92371553
2.4123402,8.1146,0.5687474,0.39721948,-0.92134184,-1.0498678999999997
2.6397223,8.392233000000001,0.7866102,0.41957715,-1.1417246,-1.3357353
2.8224572999999995,9.068556,0.8185872,0.3232175,-0.9309236999999999,-1.4815924999999999
3.2233902999999997,9.920078,0.6832477,0.19865337,-0.36507052,-1.4214311000000002
3.3428992999999996,10.174197999999999,0.7691804,0.12625712,0.15659094,-1.247893
3.3689672999999996,10.160609,1.405339,0.02459169,0.3067067,-1.0802191
3.1742327,10.483539,2.1136107,-0.121789075,0.1645671,-0.9434203000000001
2.9554505,11.322391,2.344747,-0.21973695,-0.30757937,-0.9311505999999999
2.4297507,12.401371000000001,2.4432924,-0.19524999,-0.91017175,-0.934362
2.0574044999999996,13.754439000000001,2.5874042999999998,-0.1563815,-1.4462146999999999,-0.9311505999999999
2.5163443,13.788151000000001,3.2252579,-0.106883965,-1.6873668000000002,-0.9119869
2.3452547000000004,11.838235000000001,3.8992543,-0.016388642,-1.6799144,-0.8837824000000001
1.326177,9.524019000000001,3.9753324999999995,-0.012130038000000001,-1.606977,-0.77679366
0.35483027,8.229561,3.9186761,-0.034487706,-1.3956525,-0.6005852
-0.26593834,8.065251,3.3934553,-0.015323991,-0.9889559000000001,-0.43289402
-0.9255121999999999,9.194769,2.3188229,0.057054814,-0.38901645,-0.31579986
-1.100873,10.303514,1.4930433,0.15234978,0.15233234,-0.26415557
-0.80920184,10.523705,1.483773,0.23698081,0.4126482,-0.24766222
-0.5529361,10.041310000000001,1.6438110000000001,0.28968975,0.47865656,-0.22795746
0.28870243,9.191599,1.3797498,0.3274761,0.5659579,-0.11351621
1.2691184,8.200352,1.4624071,0.386573,0.7698298000000001,0.07812094
2.0138493000000004,7.351319999999999,1.4062488000000002,0.4211654,1.0312103000000001,0.30754447
2.4607987000000002,7.2434080000000005,1.5107986999999998,0.4211654,1.156298,0.5002462999999999
3.0796327999999997,7.231341400000001,1.7672465,0.42648867,1.0855075,0.6471680999999999
3.7659738,7.2364845,2.0198061000000003,0.43128829999999996,0.80976295,0.762674
4.264552,7.256489999999999,2.1930313,0.44725809,0.42542399999999997,0.88564986
3.9129682,7.4112606,2.312866,0.43341762,0.269985,1.0421536
3.0200270000000002,7.366327,2.3780074,0.33759904,0.51431364,1.1102912
2.3033946,7.2837934,2.4330835,0.20929988,0.85393727,1.0080848
1.96993,7.309353999999999,2.581122,0.08047713,1.0530268999999999,0.9090722
1.5695142,7.959417999999999,2.512437,-0.11007792,1.2643688999999998,0.92078334
1.0170280999999999,8.969714,2.027391,-0.30330333,1.5140208,1.0432183000000002
0.5797895000000001,9.864322,1.8246785,-0.41667992,1.7567612000000001,1.2146270000000001
0.21074721,10.865998,1.7987733,-0.4874879,1.8366099999999999,1.3610252
-0.23021686,12.026707,1.8191911,-0.54497904,1.6705245,1.3812361000000002
-0.11100477,13.310814,1.6470479999999998,-0.57426566,1.3016317,1.2976698
0.78329664,14.994139,0.88931185,-0.5769186,0.95933765,1.1709763000000002
1.8275038000000001,15.594671,0.5110567,-0.55349624,0.6835931,1.0304424
1.9216342,14.031889999999999,1.1186094,-0.4874879,0.4951499,0.9165421999999999
1.5038556,12.0332575,1.4962132,-0.40125120000000003,0.37803832,0.7973013000000001
1.1213387,10.749324,0.96519846,-0.36451203,0.2939309,0.70678854
0.83029956,10.517125,0.5727218000000001,-0.37782887,0.20556487,0.57798326
0.8262773000000001,10.6272955,0.28496748,-0.39645153,0.07089528,0.42839107
0.99098885,10.7711115,0.0647009,-0.3618591,-0.12020083,0.26071727
1.0835868999999998,10.692447999999999,-0.06262274,-0.30276227,-0.27829275,0.087702796
1.0384132,10.106749,-0.033164483,-0.22877775,-0.42149702,-0.08901179
0.78856385,9.164085,0.13748464,-0.13615313,-0.5348736,-0.22741639999999996
0.7082048000000001,8.256922,0.4924394,-0.01743584,-0.6056815999999999,-0.31737068
0.75968975,7.455247,0.85847455,0.05173156,-0.64666194,-0.40788344
0.8890629000000001,7.059667599999999,0.9184924000000001,0.06611307,-0.72172856,-0.62187827
1.0862302,7.0702024,0.5732198000000001,0.11402236,-0.7754847,-0.84065527
1.2972168,7.2820506,0.25370878,0.19865337,-0.7760258000000001,-1.04348
1.4021499,7.5404134,0.19623834,0.28277823,-0.6951123,-1.1813436000000002
1.5963100000000001,7.7620687,0.32332256,0.34026940000000006,-0.48909359999999996,-1.2074188
1.8644415,7.8290777,0.43835920000000006,0.36421529999999996,-0.29106855,-1.1398221000000002
2.151784,7.900032,0.6286599,0.42277109999999996,-0.39327505,-1.1520743
2.4518445,8.277215,0.8018181999999999,0.45842817,-0.71746993,-1.3091191
2.6550643,8.934403999999999,0.8530445,0.35463345,-0.8111592,-1.4544351999999998
2.9303496,9.560383,0.8138850000000001,0.22314034,-0.5838475000000001,-1.4336658000000002
3.3179038,9.892583,0.9836434000000001,0.12414527,-0.19312069,-1.2537398000000002
3.5126386,10.047162,1.5972868,0.015009831999999999,-0.035552356,-1.0376157
3.3736887,10.255602,2.060584,-0.13189453,-0.19205603,-0.870483
3.142064,10.925155,2.2987208,-0.212808,-0.59609973,-0.8230973
2.7316022,12.206128999999999,2.1765497000000003,-0.23249531,-1.0490999,-0.81136864
2.1933475,13.544334,2.069481,-0.24420647,-1.4467558,-0.84011424
1.7384586,13.684195,2.5900377999999997,-0.22877775,-1.6937547999999998,-0.8614072
1.124978,12.264777,3.3026671000000003,-0.17074557,-1.7368644,-0.85714865
0.42318952,10.318119,3.3753552000000004,-0.09889036,-1.4701781,-0.8135154
-0.37796783,8.953136,3.3113532,-0.05630432,-1.0490999,-0.7080975
-0.97926676,8.690588,3.082985,-0.006789331,-0.5370029000000001,-0.53829443
-1.2802083,9.211088,2.316189,0.08262388400000001,-0.0903906,-0.36315066
-1.5111723,9.667748,1.7160488,0.18109536,0.27265534,-0.21090558
-1.1337216,9.747418,1.7264493000000003,0.23113395,0.50953144,-0.12201597
-0.41631335,9.36266,1.5088162,0.24178046,0.70542717,-0.04855506
0.43383893,8.8010845,1.272432,0.24390976,0.8544783000000001,0.05417502
1.4503404,8.2168045,1.2633915,0.2582738,0.9875596999999999,0.2175902
2.4976408,7.685483500000001,1.4263121,0.28543115,1.099348,0.4028569
3.264293,7.563532400000001,1.4558374,0.33175218,1.1658973999999998,0.5902354999999999
3.5866002999999997,7.6677947,1.4828153,0.37220892,1.103083,0.7621678000000001
3.6959864999999996,7.7163205,1.7606192999999999,0.42650609999999994,0.9018465,1.0043671
3.4874706,7.7896886,2.1909053,0.43448228,0.88908815,1.3248445
3.0929446,7.738098,2.4616990000000003,0.3099181,1.0210874,1.4536499
2.5778369999999997,7.632102000000001,2.5954967,0.057595864000000004,1.1004126,1.2822585
1.9906925,7.529736,2.6905847,-0.11486012,0.9417796999999999,1.0448414000000001
1.4511161,7.658189299999999,2.8094041,-0.24314182,0.9625491,0.9500874
0.95939493,8.136991499999999,2.808188,-0.33576643,1.3367652,0.9335766
0.6203185,8.77045,2.682109,-0.38793433,1.7322741999999998,0.99106777
0.33771652,9.328049,2.435564,-0.54124403,1.8073407,1.1278841
0.020398598,10.005925,2.1931078,-0.7296873,1.593346,1.2279613
-0.09617987,12.122839,1.6974220000000002,-0.8324348,1.0966951,1.2284848999999998
0.5675599,15.739482999999998,0.045537718,-0.8212472,0.6202551,1.1667352
1.4594096,18.245178,-1.0966879999999999,-0.7568446,0.26092672,1.0639876
1.5442121000000002,16.781295999999998,-0.39668092,-0.65996134,0.15713198,1.000126
0.89590067,13.828860999999998,1.5064988000000001,-0.5188864000000001,0.20132373,0.9474171
0.8765268,11.534048,1.9420901999999998,-0.44170794,0.27317894,0.8771501
0.6840426,9.890102,2.0115220000000003,-0.44968408,0.32108822,0.784543
0.13763787,9.68239,1.1314806,-0.47577676,0.3040538,0.661026
-0.23732285,9.789133999999999,-0.111359105,-0.43797293,0.16245525,0.47472957
-0.04417781,9.784824,-0.37372532,-0.33737215,-0.09197885,0.25645867
0.10664732,9.632074000000001,-0.22390574,-0.20374973,-0.3874282,0.028623400000000004
0.29034007,9.051261,0.004012682,-0.08237954,-0.60088193,-0.14168583
0.40554905,8.239721000000001,0.21236569,0.0038397241999999997,-0.7371573,-0.2785022
0.6245801999999999,7.383067,0.47838065,0.025132742000000003,-0.7845255,-0.38550833
0.9805309000000001,6.9888372,0.5826529,0.005969026,-0.7605795999999999,-0.49410272
1.2076448999999998,7.2133845999999995,0.17031394,-0.015306537,-0.71425855,-0.6202551
1.2185433,7.6715775,-0.20020314,-0.014241886,-0.66634923,-0.8353146
1.3073586000000001,7.94353,-0.20853497,0.08208284,-0.58810616,-1.0024648
1.5253651000000001,8.129253,0.2198739,0.26841420000000005,-0.56094885,-1.0668673999999998
1.6768893,8.225567999999999,0.6991644,0.42277109999999996,-0.6817954,-1.1504511999999998
1.7644022000000001,8.10488,1.1500978000000002,0.5271069,-1.0017141999999999,-1.3804158000000002
1.8872342,8.217130000000001,1.3387227,0.57768655,-1.2971636,-1.6529664000000002
2.0808581999999998,8.889517999999999,1.1946683,0.5287126,-1.2199677,-1.7003346999999998
2.2871041,9.603986,0.94128513,0.44673450000000003,-0.7861312,-1.5496953000000002
2.5252697,9.887728,0.92477477,0.31951743,-0.37304667,-1.3021553
2.6217754,10.139387,1.2435005,0.10072295,-0.25539404,-1.1089299
2.7720737,10.311242,1.9084947,-0.03234095,-0.45341909999999996,-1.0200227
2.4105494,10.84355,2.7492616,-0.04511676,-0.88992596,-1.0045940999999998
2.029287,12.35771,3.154945,-0.06799803,-1.2737412000000001,-0.9997944
2.1020613,13.826927,3.2565644,-0.12868312,-1.3764714,-1.0035294
2.1939986,13.328454,4.129442,-0.13028882,-1.2721356000000001,-0.9976651
1.5216013000000002,11.080988,4.805287,-0.17339846,-1.1039207,-0.87149525
0.42483672,9.413091,4.4529853,-0.19257963,-0.9090896,-0.65112996
-0.10888829,9.055503,3.932055,-0.17446311,-0.60992277,-0.48450340000000003
0.10111192599999999,9.924531,2.801781,-0.14519393,-0.23623031,-0.33067009999999997
0.10292194,10.851183,1.7234135,-0.07332128,0.064507365,-0.22207569
-0.28562826,11.174333,1.7970686000000002,0.021938787999999997,0.15393804,-0.15926129
-0.23797408,10.727824,2.0475883,0.07410668,0.17151349999999999,-0.1619142
0.34346259999999995,9.61566,1.8717965,0.06932448,0.22368139,-0.12891002
1.3622048999999998,8.376507,1.8265365000000002,0.09007644,0.3019245,-0.036285397000000004
2.0650275000000002,7.22662,1.7265354,0.13053317,0.42809436,0.086132
2.0396492,6.7252936000000005,1.5395484,0.16353735,0.60589105,0.23785347
2.4107887999999997,6.773598700000001,1.6838133000000002,0.18270107,0.74694854,0.4113741
2.988251,7.081617999999999,1.5629158,0.21996385,0.7799526999999999,0.5828003
3.236453,7.4680705000000005,1.5730096000000002,0.29555404,0.6809401999999999,0.7414333000000001
2.8699582,7.6861440000000005,1.9266142,0.40681880000000004,0.46694538,0.9048485000000001
2.4047074,7.944047500000001,2.2797685000000003,0.49464375,0.30085987,1.1092615
2.12087,7.943204400000001,2.4330165,0.50316095,0.36793286,1.2641768
1.6501796000000002,7.6680055,2.7323107999999996,0.44514623,0.676158,1.2093387
1.4763701,7.8523207,3.0980967999999995,0.35997415,0.9907536,1.0134429
1.4126365,8.395316000000001,3.0325916,0.24925047,1.3181424,0.92560047
1.0733685,8.9093895,2.6385922,0.07145378,1.6923584999999999,0.9735096999999999
0.68452144,9.296408,2.3654330000000003,-0.11058406,2.0969257,1.1098025
0.42340020000000006,9.869761,2.3322875,-0.25324726,2.2773929,1.2141383
0.23104046,10.662424,2.4297507,-0.36610025,2.235348,1.25833
0.22531354,11.908422999999999,2.2905042,-0.43849653,1.9478921999999999,1.194451
0.64608973,13.640858999999999,1.5892711000000002,-0.47310638,1.5294669,1.052835
1.6491548999999999,14.763720499999998,1.0116364,-0.48853509999999994,1.1398046999999998,0.9011309000000001
2.4616606,14.3285885,1.3252576999999999,-0.44542548,0.8145626,0.74888587
2.2724132999999997,12.454034,2.1135342,-0.33363715,0.588333,0.6387031999999999
1.5508393,10.871936,2.0236943,-0.21333160000000004,0.3689975,0.5285031
0.9965146999999999,10.2462635,1.4148966,-0.16701056,0.14116223,0.42416736
0.7588756999999999,10.226641,0.85336053,-0.1531701,-0.13348278,0.27672195
0.76038885,10.66547,0.34032142,-0.14465289,-0.39060467,0.10157816
0.8126687,10.916363,0.037857115,-0.10580186,-0.5854358000000001,-0.05438446
0.702861,10.692179,-0.032139762999999995,-0.025411992999999997,-0.7366161999999999,-0.26783824
0.30271327,9.962339,0.00025857377,0.07304203,-0.8941844999999999,-0.49673817
-0.017439365,8.854352,0.2539769,0.12149237,-0.9793565999999999,-0.6340781
-0.20108421,7.686077,0.6986185,0.10498156,-1.0198133,-0.68570495
-0.12627019,6.8419867,1.0449255,0.064001225,-1.0943389,-0.7448018
0.25292346,6.724422,0.7043358000000001,0.017156586,-1.2194266000000002,-0.88266534
0.510846,7.340555,0.09304826,-0.02115339,-1.2742649,-1.0162878
0.9117503,8.017846,-0.31997070000000005,-0.0030543262,-1.2380668,-1.0876194
1.1499542,8.454118,-0.36740459999999997,0.10871656,-1.1582179,-1.0019063
1.3408679,8.418759,-0.055229448,0.24073327,-1.1449186000000002,-0.85446084
1.8076318999999998,8.156031,0.54106086,0.29609509999999994,-1.1677998,-0.8981115
1.9170276999999998,8.479036,0.860907,0.21731095,-0.9761627,-0.9976651
1.7630613999999998,9.236246000000001,0.7835456000000001,0.053354714000000004,-0.46778315,-1.0381044
1.8181856,9.796087,0.6815621999999999,-0.039776053,0.00010471976000000001,-0.9949773000000001
2.0808964,10.058664,0.9262113000000001,-0.1723338,0.12627457,-0.9215338
2.2913659,10.475821,1.2854469,-0.40922734,-0.045657814000000005,-0.8017519000000001
2.5344157000000003,11.1038475,1.712132,-0.5407029999999999,-0.43851396,-0.73467886
2.6334972000000003,11.86098,2.1390947999999996,-0.5215393,-0.96764547,-0.75864226
2.425834,13.281374,2.3254786,-0.47043604,-1.4062816,-0.7815234999999999
2.7017226,14.608298000000001,2.4405918,-0.40229840000000006,-1.6644506000000001,-0.7847175000000001
2.9120963,13.806327,2.9699976,-0.31606168,-1.7027956000000002,-0.75651294
2.0016293999999997,11.590636,3.366535,-0.2287603,-1.5867312,-0.6846403
0.3970161,9.393813,4.1518616999999995,-0.17446311,-1.3573077,-0.5547529
-0.9385558,8.300295,4.5007644,-0.11484266,-1.0480179,-0.40037853
-1.842568,8.556092,3.316764,-0.0323235,-0.75949746,-0.25185102
-2.6704066,9.437426,1.9317377,0.07784168400000001,-0.50291663,-0.14645058
-2.2103174,10.354415,1.7358154,0.19230038,-0.3320489,-0.1182286
-1.356478,10.294263,1.748859,0.2726728,-0.19842649,-0.15870279
-0.34657508,9.525312,1.4714285,0.3131295,-0.066409774,-0.2390752
0.5511931,8.508198,1.5032331,0.38233182,0.08049458,-0.29604274
1.3908492000000001,7.4727820000000005,1.6145346,0.41852996,0.21783455,-0.24600416
1.8940433,6.857683,1.6473448,0.42065924,0.42383575,-0.056496307
2.110805,6.6368613,1.5995469999999998,0.41746530000000004,0.66179395,0.21710149999999998
2.4584334,6.7633133,1.7281921999999998,0.4254589,0.7975281999999999,0.48645815
2.639569,7.187642599999999,1.9806752,0.48295006,0.7017095999999999,0.6956708
2.8443308,7.717297599999999,2.316821,0.5872858,0.45896924,0.91125387
2.8706765,8.119274,2.6836033,0.6650053000000001,0.44886377,1.1337659
2.873205,8.288257000000002,2.9418990000000003,0.6059085,0.8922821,1.2130911
2.737128,8.0758915,3.2572443,0.47495645,1.4166313,1.081057
2.3867414,7.704867,3.5367050000000004,0.31686452,1.6870526999999997,0.9304176
2.025619,7.78287,3.3118036,0.07199483,1.7594490000000003,0.90221304
1.7425575,8.373385,2.884314,-0.12974778,1.7871298999999998,0.9730036
1.2360209999999998,9.315341,2.3564689999999997,-0.23460716,1.8478150000000002,1.0746864999999999
0.7811514,10.088552,2.2318175,-0.35971236,1.8914657,1.1625115
0.5630588000000001,10.909036,2.4000532999999997,-0.48214722,1.7727484,1.1779576999999999
0.87032104,12.276039,2.3622918,-0.5412266,1.4714521999999999,1.1332421999999998
1.7332584,14.417088,1.4854585,-0.53485614,1.0935011000000001,1.0789276
2.5603497,15.670482000000002,0.83361316,-0.48373544,0.77464694,1.0054842
2.1061313,14.631053,1.296173,-0.39962804,0.5324300999999999,0.96024525
0.97824204,12.917178,1.6420776999999998,-0.30700340000000004,0.3573038,0.92937034
0.09287587,11.393834,1.5332085,-0.26441738,0.26574382,0.88411397
-0.29739815,10.619338,1.591014,-0.28890434,0.17205456,0.8324697
0.016960526,10.402864,1.006101,-0.33255503,0.13905038,0.74570936
0.50257164,10.639612,0.12086888400000001,-0.33468434,0.070912726,0.61423373
0.7638557,10.665508,-0.25130498,-0.28838074,-0.014782938999999998,0.43589598
0.80938387,10.240039,-0.10150458,-0.23301889999999997,-0.124441974,0.22615977
0.69760334,9.345699,0.15489528,-0.16114625,-0.24687682,0.022270402
0.58867675,8.3641815,0.44023624,-0.050963614000000004,-0.33417818,-0.11238175
0.49218082,7.468339,0.7201663,0.056548666,-0.42573816,-0.19861847
0.65120375,6.909283,0.79915583,0.09648179999999999,-0.6221575,-0.33276448
0.90558285,6.828713400000001,0.5179520000000001,0.06667158,-0.9085485999999999,-0.5398478
1.0966115,7.072739599999999,0.1799865,0.05496042,-1.1316017,-0.76925385
1.4376031,7.405792699999999,0.03901591,0.10871656,-1.1736467,-0.89648837
1.7664229,7.8672895,0.11993992,0.19601792,-1.0618583000000001,-0.9326865
1.9043671999999998,8.184837,0.33303344,0.27214918,-0.8244412,-0.8991587
2.0591378000000002,8.2264,0.5399883000000001,0.27534315,-0.6067288000000001,-0.92683965
2.1642243999999997,8.312389999999999,0.90437615,0.24766222,-0.50291663,-1.077479
2.2419113999999998,8.742639,1.0510546,0.17791887,-0.30436796,-1.1871381
2.3965669999999997,9.412124,0.8723035,0.10606366,0.026197392000000003,-1.125912
2.6828467999999996,10.076602000000001,0.7151576,0.058677968,0.2609442,-0.9390744000000001
3.0281096,10.459261999999999,1.1443231000000003,0.0022514747,0.24125686,-0.82515675
3.2055967,10.515889999999999,2.0154197,-0.056286868,-0.038728856,-0.83899724
3.1994865000000003,10.784844,2.6968862999999996,-0.08981464,-0.48534116,-0.8954236999999999
3.119329,11.749851,2.9743743,-0.08716174,-0.91813046,-0.9507856
3.0998878,13.197204000000001,2.993595,-0.07916813,-1.2348728,-1.0152056
3.0834541,13.264002,3.0563037,-0.066392325,-1.4078698,-1.0407398
2.43791,11.609331,3.5483122000000002,-0.03764675,-1.4435444,-1.0194643
0.9739134,9.834758,3.5914557,0.019285886999999998,-1.3370792999999999,-0.9757960999999999
-0.23881683,8.861428,3.5108572999999996,0.04166101,-1.2721181000000001,-0.8528201999999999
-0.8663945,8.922347,3.0415843,0.038449604,-1.2279438999999999,-0.6713234
-0.8501235,9.91348,2.3194451000000003,0.051225413,-1.1001858,-0.49619709999999995
-0.7831241999999999,10.676905,1.9011878,0.097022854,-0.787702,-0.37746236
-0.6589896,10.539171000000001,1.7828758999999998,0.15929620000000003,-0.32299063,-0.33009413
-0.19140205,9.806697999999999,1.7589147,0.21998130000000002,0.14437364,-0.30082494
0.5053394,8.933303,1.5849999,0.29450685,0.4765447,-0.24544565
1.1050007,8.031656,1.5034629,0.37487927,0.6506064,-0.13367477
1.6523439999999998,7.538469999999999,1.5251831,0.43345252,0.74590135,0.034540065
2.0401568,7.0990470000000006,1.4610664,0.44888124,0.80712754,0.19956094
2.1662164,7.1603007,1.5535208999999999,0.4605924,0.6995803,0.34274775
2.530882,7.4706755000000005,1.7756261999999998,0.48668507,0.36901495,0.5003161
3.034708,7.713007000000001,2.0381455,0.5101074000000001,0.027803095,0.669613
3.6843796,7.6898789999999995,2.2928026000000004,0.46698028,-0.036599554,0.8670969999999999
4.0025306,7.604750999999999,2.498522,0.31579986,0.28490755,0.98899084
3.609058,7.4495296,2.8086187999999996,0.14278539,0.67296404,0.93310535
2.8523467,7.3872614,2.980628,-0.001972222,0.8470431999999999,0.84899795
2.0317004,7.7733984,2.8237982,-0.17924531,1.0413332,0.8574976999999999
1.223868,8.724194,2.2834556,-0.34639549999999997,1.3027138,0.9559866
0.48956640000000007,9.748700999999999,1.7038191999999999,-0.44647267,1.5044738000000002,1.1039906000000002
-0.062670626,10.524106,1.6621027,-0.5188689000000001,1.5598357,1.2072443000000002
-0.3597719,11.4854355,2.0182834,-0.5768837,1.4507002,1.230143
-0.041180268,12.794308000000001,1.8731755,-0.6088232,1.1861431999999998,1.1673286
0.69030577,14.395263,0.8051891999999999,-0.6024353,0.8720711999999999,1.0832211999999999
1.5172535,15.242752,0.22733425,-0.5555906,0.704921,1.0049605
1.7375104,14.353249,0.87662256,-0.48959976,0.64475954,0.9480105
1.5302875,12.858836,1.29013,-0.4246386,0.62187827,0.92085314
1.2472353999999999,11.683034,0.95500875,-0.3926991,0.56597537,0.93684036
0.83686924,11.079571000000001,0.6989920000000001,-0.39591047,0.56011105,0.9389521999999999
0.7635588000000001,11.029982,0.386156,-0.43795547,0.478674,0.87774354
0.89226156,10.855894000000001,0.1637634,-0.4613778,0.32642892,0.76223767
1.0100371,10.416357000000001,0.22597434,-0.46935394,0.17685421,0.5695184
0.99035674,9.727028,0.3902453,-0.42943826,-0.012636183999999998,0.32731906
0.8061086,8.825736000000001,0.6000253000000001,-0.32616714,-0.22823670000000001,0.11437143
0.8113854,7.896824400000001,0.8500565000000001,-0.19256218,-0.410292,-0.027209682000000002
0.86235315,7.305217,0.9329821,-0.10578441,-0.5071752,-0.14058627
0.9555355,7.202074499999999,0.7377779999999999,-0.086079635,-0.5465673000000001,-0.28270844
1.0233488000000002,7.508791,0.39790675,-0.0993965,-0.58541834,-0.45305258
1.2297481000000001,7.683586999999999,0.19681296,-0.095137894,-0.67326075,-0.67662925
1.4324892,7.713974,0.11923125,-0.044034656,-0.7578918,-0.9071349
1.7114807,7.949688,0.14145902,0.097022854,-0.82869977,-1.0279639999999999
2.159225,8.075384,0.2953679,0.31527627,-0.925042,-1.1243062
2.2794046000000003,7.9527144,0.72320217,0.44196972,-1.0070200999999999,-1.5129211999999999
2.3288112,7.869463400000001,1.1388068999999998,0.5579991999999999,-0.9064193000000001,-1.7764136000000001
2.3742914,8.193541999999999,1.2319988000000002,0.6075142,-0.63812727,-1.7375625
2.6125338,8.878974000000001,1.0408744,0.54949945,-0.19149752,-1.5358025
2.9474347,9.426077000000001,0.9325894,0.39299577,0.2726728,-1.3037086000000002
3.1127305,9.633175999999999,1.0903194999999999,0.16409585,0.32164672,-1.0380695
3.0882616,9.939164,1.5194178999999999,0.0336674,-0.12868312,-0.8554731
2.9569826,10.366396,2.0592433999999997,0.012374383999999999,-0.86170393,-0.7873529
2.78483,12.084264,2.637539,0.064018674,-1.507947,-0.8086285
3.3118224,14.848025,2.8898493999999997,0.066147976,-1.8209543000000001,-0.8341976000000001
4.426496,14.838007999999999,3.7230604,0.025150195,-1.7991203000000002,-0.8491027
3.1086507,12.045478,5.185371400000001,0.016109388,-1.550533,-0.8448440999999999
1.2009315,9.451791,4.8261647000000005,0.01823869,-1.1427717,-0.8256804
-0.37527677,7.9769630000000005,3.580318,-0.05042256,-0.7270169,-0.7490255
-1.2136878999999998,7.689792999999999,2.1918821,-0.13878858,-0.4150742,-0.6031683000000001
-1.756463,8.199346,1.5047173999999999,-0.16540486,-0.2287603,-0.45996407
-1.9689053,9.392176,1.6210278,-0.13027138,-0.06960373,-0.33861133
-1.470126,10.358253999999999,1.8455656000000003,-0.07543313,0.12788028,-0.24757496
-0.75186557,10.332541,1.9069720000000001,-0.003036873,0.31206486,-0.18901916
0.5358894000000001,9.931359,1.6507733,0.10819296,0.42650609999999994,-0.15282103
1.8144505000000002,9.312564,1.8078521,0.21359339999999996,0.48932052,-0.06499606
2.7203016,8.447299000000001,2.270498,0.3035651,0.6122964,0.124511786
3.147791,7.6723914,2.2544087999999998,0.36796775,0.75815356,0.3534117
2.9086678,7.404337,2.0081317,0.40044835,0.8246855,0.54344314
2.8168356,7.448936,2.0316622,0.42812926,0.75602424,0.6701541
2.800306,7.5154567,2.2204017999999994,0.46752134,0.545747,0.7963064999999999
2.8403754,7.552183599999999,2.1810028999999997,0.49520227,0.34719834,0.9693035
2.912642,7.5776863,1.9573174,0.42067669999999996,0.44034657,1.1188956
2.805497,7.462813000000001,1.9750727,0.2865307,0.7416428,1.0832211999999999
2.411411,7.2602444,2.1678252000000002,0.1587726,0.89814645,0.9224763000000001
1.8921375,7.172769500000001,2.2736009999999998,0.052307516,0.89601713,0.8623148000000002
1.3280445,7.5139146,2.2696552000000003,-0.10365511,1.0035468,0.88945466
0.8152736,8.365494,2.1390947999999996,-0.21916099,1.2383110000000002,0.96293306
0.56279063,9.353744500000001,2.0961811999999997,-0.30168015,1.4528295,1.047564
0.40006152,10.463447,2.208967,-0.36608282,1.5310901000000001,1.0874972
0.24710077,12.08413,2.2615151,-0.42038000000000003,1.464017,1.0688396999999998
0.48003745,14.571093,1.5449784,-0.43102652,1.2553455,1.028924
1.326809,16.485325,0.33950737,-0.41825070000000003,1.0525208000000001,0.99433154
1.8296202000000001,16.240004000000003,0.5036537999999999,-0.39589304,0.9114633,0.9496162
1.3391440000000001,13.848733,1.457207,-0.37407643,0.8550368,0.92567027
1.0137433,11.784021000000001,1.6463106,-0.36023596,0.7650650999999999,0.8788082
0.9638576999999999,10.73517,1.2569654,-0.37034142,0.7730587,0.8671145
1.141881,10.375274000000001,0.87004334,-0.39589304,0.76293576,0.8048236999999999
1.3896903999999999,10.4544735,0.41809466,-0.40388665,0.6926688,0.6648308
1.5960324,10.415142,0.18530163,-0.37833503,0.5015727,0.49925143
1.4849031000000001,9.911267,0.20040427,-0.31764993,0.22954570000000005,0.31669
1.3114478999999999,9.334292999999999,0.32834083,-0.2314132,-0.05841617,0.12559389
1.1782633,8.6014185,0.42054632,-0.13185963,-0.31766737,-0.062308256
1.0644428999999997,7.870353999999999,0.51559615,-0.020071287,-0.5039813,-0.20603612
1.0505757,7.3588085,0.5678854999999999,0.05921902,-0.64983845,-0.3375292
1.0556226999999998,7.195208,0.4266563,0.09543460599999999,-0.79463094,-0.51904345
1.0813173,7.355131,0.19809625,0.117774814,-0.9064193000000001,-0.74583155
1.3510958999999998,7.611961999999999,0.020580556,0.17100736,-0.9521993000000001,-0.96300286
1.4053006000000001,7.826674499999999,-0.014279018999999999,0.27747244,-0.9101368000000001,-1.1168536
1.4301046,7.9876122,0.16315049,0.38926077,-0.7717321999999999,-1.1690041000000002
1.4244639,7.972701,0.47017333,0.48562040000000006,-0.6721961,-1.1839266000000002
1.5172248,7.9114,0.8114140999999999,0.61391956,-0.7115882,-1.2706870000000001
1.7451048999999998,8.189769,1.0258676,0.62348396,-0.76588535,-1.3303074
2.0185034,8.940437,1.1085824,0.47177994,-0.5274036,-1.2254479999999999
2.332642,9.661705,1.0508534,0.29876545,-0.15584044,-0.9880309000000002
2.6016352000000005,10.120731,1.1933755,0.13215633,-0.057892572,-0.7490255
2.9237225,10.476977999999999,1.5458115,-0.0344528,-0.3937812,-0.6452133000000001
3.126655,10.921294999999999,2.0549912,-0.17551029999999998,-0.86383325,-0.62550855
3.2179889999999998,11.752360000000001,2.498407,-0.24205971,-1.3152453000000002,-0.6739589
3.085178,13.135692,2.5075243,-0.2505769,-1.5377573,-0.7474198000000001
2.9552782000000004,13.820022,2.937714,-0.27398178,-1.4807896999999999,-0.819275
2.7286432,12.630257,3.8052676,-0.28038713,-1.2327261,-0.8581435
1.4957247999999999,10.42944,3.6110692,-0.2718525,-0.9101368000000001,-0.84960884
-0.007996634,8.786289,3.0387877999999997,-0.2755875,-0.70413566,-0.7511374
-0.96620405,8.273384,2.9057562000000003,-0.25642377,-0.55667275,-0.58294
-1.2440751,9.1031475,2.6257305,-0.22821926,-0.30328587,-0.4338714
-1.3876601,10.580715,2.0475404,-0.16327555,-0.029670598,-0.3146305
-0.95325625,11.229869,1.6113169,-0.07490953,0.14597934,-0.24809855
-0.14426501,10.947114,1.7657143,-0.003036873,0.21570525,-0.18687241
1.0245364,10.021036,1.8533226999999999,0.07625344,0.29609509999999994,-0.11873475
2.021415,8.843625999999999,1.8452592,0.17367771,0.44195226,-0.010663961999999999
2.5921254,8.003327,1.8956906000000002,0.2780135,0.6122964,0.14580481
2.7343028,7.243092,1.8283656000000004,0.3434808,0.7448366999999999,0.33745942
2.6126103,7.111994999999999,1.7903648999999997,0.37596136,0.7533539,0.5179090000000001
2.7379801,7.275969,1.7351929,0.44835764,0.55586994,0.6105162
3.0829656,7.4345326,1.6323571000000001,0.55162877,0.22422245,0.6919881
3.1393156,7.518167,1.9106783999999999,0.5819626,0.11510447,0.8388924999999999
2.8244873999999998,7.4636936,2.1189356,0.50106657,0.43182936,0.89798933
2.465616,7.1678185,2.3925066000000004,0.37489673,0.9529847,0.86444414
2.1851497,6.8588133000000004,2.627119,0.24713862,1.2734444999999999,0.84048074
1.8585421000000002,6.7147493,2.726689,0.07307693,1.3687221,0.88308424
1.3312336,7.131761599999999,2.556203,-0.06424557,1.3410412,0.9597391
0.7118824,8.272734,2.095185,-0.18880972,1.3458408000000002,1.005519
0.33405817,9.510382,2.0334435,-0.32669073,1.3469055,1.0167066999999999
0.30868920000000005,10.777125,2.3586142000000003,-0.44434336,1.2611923,1.0113834000000002
0.50190127,12.846204,2.2528,-0.50076985,1.1014948,0.99487257
1.327604,15.376014000000001,1.1204673,-0.5284333000000001,0.92156875,0.98796105
2.1099718,16.768597,0.59395355,-0.5130045999999999,0.7874227,0.9820968000000001
1.7957087999999999,15.392916,1.2724129,-0.47467719999999997,0.6862809,0.99806654
0.70787925,13.180396,1.9472331000000003,-0.43954372,0.5867448000000001,0.9954136
0.04153461,11.618391,2.159618,-0.42622685,0.43982297,0.94589865
0.06808152,10.6774025,1.9145473000000002,-0.43155012,0.2795843,0.85646796
0.43683645,10.387541,1.1358093,-0.44006732,0.11562806,0.74148566
0.9509674000000001,10.371586,0.35496435,-0.4161214,-0.04298746,0.5785941
1.0574709,10.227636,0.00017238251,-0.36182420000000004,-0.24101251,0.37152824
1.1060542,9.751994999999999,-0.17001705,-0.2803697,-0.43317327,0.16392133
1.0556035,9.084473,-0.11150276,-0.19467403,-0.5337915,-0.054314647
0.9352805000000001,8.31828,0.108055115,-0.12866567,-0.53485614,-0.23158774
0.9076226999999999,7.6605167000000005,0.26203102,-0.06372197,-0.47895324,-0.3343178
0.97989887,7.285709,0.31939608,-0.019530235,-0.50823987,-0.41097268
0.9895427,7.0954369999999995,0.23177788,-0.008360127,-0.65249133,-0.55843556
1.1817875,7.1451693,0.23006363,-0.030717794,-0.76960295,-0.7356912
1.2704113000000001,7.121515,0.28113675,-0.042952552000000005,-0.787702,-0.88154835
1.47773,7.1662479999999995,0.49159664,-0.005707226700000001,-0.78450805,-0.9922719999999999
1.7142292000000001,7.37892,0.7273202,0.1412146,-0.93781775,-1.1322823999999998
1.9843432,7.837476700000001,1.0370437,0.35519195,-1.2401786,-1.3846046
2.3390009999999997,8.385156,1.1747103,0.44464007,-1.3232213,-1.5985994
2.5168328,9.053588000000001,1.2699325000000001,0.40364229999999995,-0.99052674,-1.5336558
2.441827,9.685024,1.3629999,0.30836478,-0.35705945,-1.2765338
2.164502,10.116192,1.4867896999999999,0.20242329,0.0022514747,-1.0742676000000002
2.2471402,10.412364,1.6106465,0.12950343,-0.11697197,-1.019953
2.438504,10.718487,1.7201955000000002,0.06455973,-0.5747718,-1.0034596
2.2873821,11.304136,1.870312,-0.0024958209,-1.1097676,-1.0300759
2.1954734,12.477573,2.1177479999999997,-0.08395033,-1.352508,-1.0811791000000002
2.2357247000000005,13.55689,2.7667490000000003,-0.15687019,-1.3381264,-1.1301355
2.4944804,13.192425,3.6510522000000005,-0.16751671,-1.2577541,-1.1253533000000002
2.0416987,11.1590395,4.0787044,-0.15899949,-1.2124977,-1.0471103000000002
1.0647016000000002,9.175079,3.9304267999999998,-0.20532054,-1.0501472,-0.90497065
0.5390784000000001,8.543229,3.5719,-0.20638518,-0.82655305,-0.74314374
0.21385968,9.278164,2.9898312000000002,-0.12812462,-0.6854955,-0.6063448
-0.19849847,10.846060000000001,2.2955606,-0.039235003,-0.5188689000000001,-0.48762754
-0.48316908,11.897708,1.8326273000000002,0.040072758,-0.31447342,-0.37903315
0.018626886999999998,11.378022,1.7758369999999999,0.13322099,-0.040858157,-0.26565656
0.82149845,9.919522,1.9792483,0.20083503,0.30354765,-0.13309881
1.5132025,8.372121,2.1388073,0.26630235,0.66339964,0.04415683
1.6595074,7.184185,2.2366824,0.30782372,0.9630901,0.24642304
1.8360271000000001,6.698804400000001,1.7171310000000002,0.31368804,1.1680441000000001,0.43114868
2.191135,6.713313,1.2310219,0.33178708,1.2468283000000002,0.6025575
2.4797993,6.9788394,1.546999,0.35892695,1.131305,0.7819424
2.9350138,7.2832284,1.7930655,0.37117916,0.8199033000000001,0.9464396999999999
3.2420652000000003,7.439598599999999,1.8879907999999999,0.37383208,0.4675039000000001,1.1050726
3.3200202000000005,7.384187700000001,2.2471786,0.31688198,0.43291146,1.2647703000000001
3.2799127,7.3349724,2.5772336,0.2151991,0.6831044,1.330255
2.9683409,7.3517504,2.8831456,0.12896238,0.93169165,1.2919276000000002
2.3352084,7.571097999999999,3.138961,0.023561945,1.0525383,1.2259191999999999
1.6456593000000002,8.211891,2.9839606,-0.09086184,1.1414278999999998,1.2072791999999999
1.0310390999999999,9.048492,2.8358457,-0.18722147,1.220212,1.2291132
0.35211045,9.969532000000001,2.7724185,-0.25961772,1.3208128000000001,1.2876515
-0.3545238,11.077885,2.5728857999999994,-0.325085,1.3107073,1.2828693000000002
-0.52566135,12.231325,2.1254957,-0.38737583,1.1845549,1.2456241000000001
-0.08247546,13.301007,1.5954959,-0.42516220000000005,1.0200577,1.2014323
0.74492234,14.097357,0.8552663,-0.43209115,0.9221098,1.1407472
1.4274423,13.779147,0.9608889000000002,-0.4161214,0.82576764,1.0853853
1.5527931000000001,12.862647,1.3171747999999999,-0.35808920000000005,0.7171732,1.0635513
1.2937309,11.991858,1.3542659,-0.2888869,0.6644643,1.0481225
1.1278126,11.300096,1.2504819999999999,-0.30433306,0.7118325,0.9805084999999999
1.0676991000000002,10.916075,1.0755042,-0.37618828,0.75656533,0.83199847
1.1888458,10.692055,0.76928574,-0.4331558,0.7299316,0.62756807
1.3392016000000002,10.469394,0.45442906,-0.45657814,0.6224193,0.40187952
1.4178941,10.281564999999999,0.3425911,-0.43687338,0.41907102,0.16978563
1.3112181,9.798739,0.43533292,-0.3639535,0.12414527,-0.066566855
1.232851,9.044135,0.6984365,-0.22713715,-0.24099506,-0.23902284
1.0715681000000001,8.243802,0.92929506,-0.06159267,-0.5806187,-0.34922293
1.0876476000000002,7.6859910000000005,1.0946386000000001,-0.00036651915,-0.812189,-0.47005206
1.3025415,7.5534954,0.90916455,0.008133234,-1.0144726,-0.66435957
1.6330563,7.492864599999999,0.54902875,0.04272566,-1.1789525,-0.89006555
1.813694,7.2788997,0.44766784,0.1412146,-1.2870232,-1.1029958
1.8980944,7.2825007,0.5925074,0.26364943,-1.2859586,-1.3121909
1.7125150000000002,7.4878564,0.82171875,0.39299577,-1.2375083,-1.3952336
1.6541540000000001,7.643776400000001,1.0204183,0.51223665,-1.2316614,-1.3659645
1.6538761999999998,7.79847,1.2015063,0.53246504,-1.2497605,-1.4181149
1.7065679,8.143647,1.4728458,0.44942227,-1.012867,-1.4191796
1.848611,8.833848,1.4147433999999999,0.3094294,-0.4092099,-1.2770574
2.205347,9.341361000000001,1.136585,0.19816469,0.0996583,-1.0641447
2.7056394,9.771014,1.301603,0.06349508,0.19495328,-0.9193347
3.0722587000000003,10.194837,1.7246776000000001,-0.070109874,-0.04829326,-0.8677079
3.221207,10.971831,2.2337615,-0.14570008,-0.5257979,-0.8586495999999999
3.5798297,12.136132,2.5046222,-0.1648638,-1.0607936000000002,-0.8639903
3.135389,12.976229,2.824622,-0.19413297,-1.5196582,-0.92254615
2.7817847999999996,13.137703,3.2462597,-0.18402752,-1.7820859,-0.9832138000000001
2.7010617000000003,11.683216,3.776901,-0.105243355,-1.8890745999999998,-0.99598956
1.72236,9.932748,3.8920333,-0.081279986,-1.8544822,-0.9928130999999999
0.72708076,8.921954,4.024471299999999,-0.08766789,-1.6931788,-0.8911302
-0.08948568,8.865796000000001,3.7159927,-0.060528017999999996,-1.373801,-0.7644368
-0.7329992,9.662605000000001,2.7298496,-0.00036651915,-0.8840442,-0.6308144
-1.4409646,10.506111,2.1130842999999997,0.10554006,-0.36449456,-0.5216964
-1.5167555,10.78247,2.0232537,0.2604555,0.04431391,-0.40139082
-0.9224763000000001,10.505298,1.9274664000000001,0.3509508,0.28225464,-0.30183724
0.17600255,9.770439999999999,1.7856244,0.38873717,0.47069785,-0.18420205
1.0456724,8.902821000000001,1.8989466,0.44305182,0.64051837,-0.0037175512
1.8668069999999999,7.7938733,1.7234517,0.518101,0.8044746,0.20544271
2.5530329,7.42961,1.5309386999999999,0.54311156,0.94394386,0.3630285
3.1187446,7.1982729999999995,1.5984074,0.54737014,0.9593726,0.5237907999999999
3.7849839,6.9998894,1.7221876,0.5527109,0.69055694,0.687747
4.349862,6.7939878,1.8816127,0.5319415,0.2785371,0.8729962
4.2848263,6.597041,2.1240973,0.43399358,0.19762363,1.1061548
3.7318614,6.534561599999999,2.2040732000000003,0.28068385,0.43078217,1.238695
3.1096562999999997,6.7014949999999995,2.114645,0.14599679999999998,0.58780944,1.156717
2.4975548,7.0375357,2.2976674999999998,0.0017453292000000002,0.6256133,1.0497108999999998
1.8759336,7.7224593,2.5976992,-0.17071065,0.72143185,1.0523812
1.3166864,8.955071,2.5734987,-0.31337386,1.0349628,1.1434001
0.7901823,10.057381,2.3475723,-0.37405896,1.4618877000000001,1.2227253
0.10817004,10.880335,2.3588824,-0.43634978,1.6444842,1.2509472
-0.44590572,12.109796000000001,2.327049,-0.5316273,1.5401483999999999,1.2243136000000001
-0.37384978,13.809075,1.645937,-0.621058,1.2590805,1.0965555
0.35867056,15.591289999999999,0.338588,-0.64076275,0.93382096,1.0145773999999999
1.1813373999999999,15.906482999999998,0.100412816,-0.5859245,0.72621405,0.9672091
1.5208256000000002,14.20769,0.8586469000000001,-0.5358859,0.64584166,0.9246231
1.4787259,12.289485,1.2543893,-0.4863709,0.61761963,0.8958775
1.6112307,11.2420025,1.0134177,-0.46136034,0.57663935,0.85383254
1.7576505,10.846807,0.9515994000000001,-0.4752008,0.57609826,0.76174897
1.8666921000000003,10.85827,0.6292536999999999,-0.47307150000000003,0.52073646,0.6483549
1.6807870999999999,10.828466,0.24617182,-0.42409757,0.35838592,0.46149996
1.7276081,10.304567,0.09416874,-0.35116026,0.13055062,0.22835888
1.5249149,9.50296,0.30753043,-0.23778366,-0.14039429,-0.021293016
1.0423876,8.5228405,0.66475487,-0.10150835,-0.38100538,-0.2038719
0.9004593000000001,7.530587700000001,0.9046539000000001,0.048589967000000005,-0.6210753999999999,-0.33430037
0.94035625,6.8389893,0.9227828000000001,0.13536774,-0.80419534,-0.44769440000000005
1.1193468999999998,6.754033,0.72085583,0.14014994,-0.9351474,-0.65847784
1.2488155,7.1181345,0.28105053,0.17421876,-1.0016968000000002,-0.8634318000000001
1.4487028,7.556263,-0.06287174,0.27855456,-1.0229899,-1.0784913
1.547564,7.9476576,-0.11358093,0.41163590000000005,-0.964434,-1.2930271999999998
1.6925759999999999,8.084424,-0.008226477,0.57346284,-0.78929025,-1.3648823
1.7856244,7.970986999999999,0.22681709,0.7219729,-0.6636614000000001,-1.344654
1.6785365,7.678511,0.6292824,0.7778758000000001,-0.76906186,-1.4617656
1.7550073,7.725677,0.9233287,0.69696236,-0.8595572,-1.6177282
1.9156965,8.518081,0.7614615,0.5048016,-0.72382295,-1.6395621999999999
2.2250082000000004,9.656238,0.41874588,0.33232814,-0.50609314,-1.4926405
2.8142595,10.090861,0.4743201,0.20615830000000002,-0.4108156,-1.2121137
2.956456,10.390222999999999,1.203661,0.09597565,-0.5721015,-0.9677676
3.0236852,11.099960000000001,2.0365941999999997,-0.019530235,-0.8004778,-0.811805
3.3069574999999998,11.925241,2.7681088,-0.11376056,-1.0016968000000002,-0.76335466
3.0997345000000003,13.134217000000001,3.3378716,-0.13877113,-1.1331725000000001,-0.8128522
2.871318,13.718995999999999,3.516977,-0.18242182,-1.2758356000000002,-0.81019926
2.5434083999999997,12.610002,3.3891934999999997,-0.24949482,-1.3093808999999998,-0.7074691999999999
1.4270687,10.661093,3.0182743,-0.30963886,-1.1512716,-0.5711939
0.31223264,8.872558,2.909932,-0.33360222,-0.81964153,-0.43118358
-0.30539479999999997,8.303934,3.1297292999999997,-0.27452284,-0.36768850000000003,-0.31834805
-0.6233734999999999,8.854447,2.7126784,-0.17123425,-0.038711403,-0.25232226
-1.0371107,9.912713,1.9937379000000002,-0.035499997,0.06986553,-0.21027727
-0.8239023000000001,10.769991000000001,1.3074161,0.10128146,-0.002513274,-0.16449729
-0.06558197,11.005982000000001,1.449986,0.21361084,-0.10259046,-0.119240895
0.68540245,9.917722,1.5644672,0.32168162,-0.08768534,-0.08304276
0.9907398000000001,8.892525,1.6770808999999998,0.45156905,0.09274679400000001,-0.0015882496
1.6455444,8.046806,1.8286529999999999,0.5899736,0.44514623,0.1346696
2.2151632,7.4023832999999994,1.8437938999999999,0.62563074,0.8555778,0.31566024
2.7168348,7.0995355,1.7776947,0.5622927,1.028575,0.49558625
2.9850905,7.043329700000001,1.7153497,0.543129,0.7709294,0.6307969
2.7889673999999998,7.198886,1.5897117,0.5351354,0.28757790000000005,0.73726195
2.4322217,7.4885649999999995,1.578162,0.45689228,0.19442968,0.88311917
1.9831651000000001,7.6647205000000005,1.5439441,0.24609143,0.61655504,0.92464054
1.8393791000000002,7.6056029999999994,1.7619218,0.06616543,0.94394386,0.7803715999999999
2.0270557,7.4586570000000005,2.3415961,-0.058922317,1.0855423999999998,0.67018896
2.2568605,7.6904345,2.8053246,-0.21807889999999996,1.2633391999999999,0.6893526999999999
2.0529609,8.625657,2.5432167000000003,-0.40599850000000004,1.5263078,0.8266752
1.3697898000000002,9.840188000000001,1.7806349,-0.5183104000000001,1.6993049,0.9996896999999999
0.49664359999999996,10.799774000000001,1.7597861000000001,-0.57314867,1.6498073,1.1258595
-0.09119993,11.978881,2.111734,-0.6050882,1.4230367,1.1471525
-0.07834785400000001,13.673717000000002,1.7837473000000001,-0.6024178000000001,1.0291158999999999,1.0374934999999998
0.9373683,15.502313000000001,0.46798027,-0.5518557,0.57451004,0.8932245999999999
1.5832376,15.601164,-0.13371138,-0.4507138,0.26309094,0.7867595000000001
1.5604737,13.599497,1.1551735,-0.3602185,0.075188786,0.69732887
1.3514885,11.799593,1.704231,-0.3367962,-0.05948082,0.62760293
1.0067713,10.865193,1.0081792,-0.38683477,-0.16488126,0.5472130999999999
0.49853984,10.514109,0.44585782,-0.44059092,-0.19362682,0.46469390000000005
0.22844514,10.775537,0.019900605,-0.44165558,-0.20160298,0.3731514
0.11876198,11.054029,-0.27818707,-0.37458256,-0.22821926,0.24059364
0.17471927,10.768296000000001,-0.29798234,-0.2888869,-0.293704,0.10697123
0.039264906,10.109957000000001,0.005343858000000001,-0.21275564,-0.39802232,-0.024469515
-0.22345562,8.951939999999999,0.34081940000000005,-0.14355333,-0.52312756,-0.14372787
-0.25488672,7.7630552999999995,0.7151385,-0.05305801,-0.6349159000000001,-0.20654227
-0.025752034,7.0391827000000005,0.76311827,-0.021659536,-0.6705904,-0.27042133
0.2455206,6.877191000000001,0.45355755,-0.060510565,-0.69985956,-0.4423537
0.5503121,7.0717053,0.10441592,-0.006213371999999999,-0.73234016,-0.62495005
0.79754686,7.2925759999999995,0.0038881834999999997,0.15079644,-0.77757907,-0.7686604
1.1791252,7.423126700000001,0.15363114,0.30784118,-0.8526457000000001,-0.92305225
1.3962983999999998,7.6680727,0.37890637,0.4914847,-0.8931024,-0.9502096
1.5809392,7.851363,0.48531428,0.63255966,-0.9952915000000001,-0.9555154
1.7697173,7.882660400000001,0.5076377999999999,0.6517234000000001,-1.2140859,-1.2429712
1.9755898999999997,8.087258,0.5311009,0.51490706,-1.1587241000000001,-1.4330026000000002
2.1436534,8.903614,0.30528945,0.35627407,-0.76960295,-1.4431254999999998
2.3734393,9.80733,-0.025388114,0.23383921,-0.39803979999999994,-1.2733225000000001
2.607602,10.087672,0.2795853,0.07414158400000001,-0.23621286,-1.0135477
2.5907466,10.324047,1.3011816999999999,-0.057316612,-0.4044277,-0.84585637
2.363824,10.964295,1.900412,-0.1552645,-0.80632466,-0.7686779
2.3821251,12.358477,2.1419005,-0.23246041,-1.1991808000000002,-0.7904770999999999
1.8061858,14.339563,2.3027142999999994,-0.22340214,-1.4376626000000001,-0.87406087
1.8296968,14.653022,2.847022,-0.23937191,-1.6782737,-0.8756666
1.869115,12.822109,3.4625328,-0.26385888,-1.8805573,-0.74417347
0.68215597,10.606504,3.6199178999999995,-0.28995153,-1.8832276999999997,-0.5685061
-0.13603854,9.1755,3.7892262999999997,-0.29473376,-1.6106771,-0.36515778
-0.8329619,9.0745325,3.1815972,-0.22713715,-1.0495887,-0.23314108
-1.3514118999999998,9.820297,2.0437958,-0.13451253,-0.42624432,-0.17619099
-1.7798878,10.704131,1.5673211,-0.00143117,0.041643556,-0.16341518
-1.5132792,11.002841,1.1722298999999998,0.15027285,0.17578956,-0.16715018
-0.7083389,10.44506,1.2315295,0.24129176,0.13320352,-0.15330972
0.08777143,9.008175,1.2543508999999997,0.31848767,0.150779,-0.096342176
0.49298528,8.156796,1.2636691,0.40098938,0.29717723,0.011170107
1.3031926999999999,7.533796300000001,1.4649353999999999,0.4244117,0.54735273,0.17832029
2.0971196,7.3187203,1.5182399,0.39088395,0.7320784,0.3204599
3.0186477000000003,7.272875999999999,1.4794252,0.4025951,0.7709294,0.440748
3.8008910000000005,7.3221774,1.4293672,0.4675388,0.57663935,0.52485543
4.026013,7.537847,1.4114010000000001,0.49309042,0.18591247,0.61110955
3.4021318,7.6498,1.7021049,0.44357544,-0.023282692,0.76654863
2.6185577,7.6346974,2.0446196,0.31848767,0.21039943,0.9241169
2.1456642,7.5330395999999995,2.227278,0.20031144,0.62667793,0.8777959000000001
1.9164053,7.440297999999999,2.4516148999999996,0.10236356,0.81086254,0.7085164
1.6594787,7.884115700000001,2.3810337,-0.07702138,0.9178687,0.6526310000000001
1.2554045,8.786346,2.0695672,-0.25427702,1.1371868,0.73780304
0.82690936,9.669663,2.0894293999999998,-0.36180675,1.3942912,0.9171879999999999
0.45237959999999994,10.539918,2.4779603,-0.4336794,1.5156614,1.118948
0.0076518687,11.5791445,2.5192556,-0.50659925,1.4326186,1.2594819
-0.17723796,12.5490265,1.8637711,-0.58112484,1.1424925,1.2764989
0.4052713,14.085567000000001,0.8490414000000001,-0.6040061,0.72356117,1.1759156000000002
1.4872111000000001,14.893170000000001,0.23929568,-0.5731312,0.39351937,1.0321877
1.8819956999999998,13.955667499999999,0.9629095999999999,-0.50447,0.25830874,0.9597915000000001
1.7146313999999998,12.316272,1.5128578000000001,-0.46455428,0.26843163,0.90228283
1.2831484,10.9556465,1.0166450999999999,-0.5231100999999999,0.26682594,0.81552255
0.78494376,10.618236999999999,0.7621893,-0.6029589,0.20827013,0.71171033
0.51428413,10.836244,0.33331120000000003,-0.6444628000000001,0.12522738,0.59620446
0.30716652,11.190595,-0.14230177,-0.62531656,0.010245083,0.43011895
0.24967693,11.151148,-0.21863851,-0.5614375,-0.10843731,0.24645795
0.21388839,10.638950999999999,0.11179964,-0.46879545,-0.23673646,0.07506661
0.28998572,9.655451,0.69879085,-0.34477234,-0.39856339,-0.08354891
0.28246793,8.477753,1.1531241,-0.22127284,-0.56145495,-0.19587829999999998
0.3212061,7.6194034,1.467071,-0.14835298,-0.6769608,-0.25923374
0.51568234,7.1938868000000005,1.2049538999999998,-0.13184217,-0.7749087,-0.35557592
0.69691384,7.087478599999999,0.694941,-0.1052259,-0.89840823,-0.49715704
0.90380156,7.3391475999999995,0.4691965,-0.020053834,-1.030966,-0.6760358
1.2628073999999998,7.656235700000001,0.45173797,0.08265879,-1.1241142,-0.8783194999999999
1.5318965,7.838128,0.5334186,0.24396212,-1.1145323999999999,-1.0103188
1.7002662,7.880352,0.6237853,0.38395497,-1.0378774,-1.0247003000000001
1.8180897,7.7761183,0.7905079,0.5085366,-1.0054144,-1.0672863000000001
1.9516383000000002,7.766139,0.95151323,0.5479111999999999,-0.9990264999999999,-1.224331
2.1144824,8.338841,0.85015225,0.41217697,-0.74351025,-1.3504834
2.2510187999999998,9.1349325,0.5356211999999999,0.28228956,-0.40441024,-1.3616709999999999
2.534186,9.444628,0.48744032,0.19657643,-0.2990098,-1.255747
2.6740646,9.625687,0.9734440999999999,0.050195668,-0.41718605,-1.1338357
2.851092,10.150706,1.4894136999999998,-0.104684845,-0.6987949000000001,-1.0848618
2.9411907000000004,10.981485000000001,2.003621,-0.19465657,-1.1092091,-1.0784738
2.9106023,12.555251,2.5855080000000004,-0.23937191,-1.5127118,-1.0822089
2.6727526000000004,13.926842,2.9257142999999997,-0.24843016,-1.7086076000000001,-1.0917733
2.591139,13.378685,3.7573642999999994,-0.19413297,-1.7416291000000002,-1.1061548
2.0733403999999998,11.525993,4.195628,-0.15259413,-1.8512707,-1.04067
0.723748,9.820153,3.9058144,-0.17177531,-1.9822228,-0.83786273
-0.5067184,9.073421000000002,3.9541771,-0.20104447,-1.9337898,-0.62599725
-0.95815957,9.381008999999999,3.4509737,-0.20582668,-1.5984249,-0.46149996
-1.2510375,10.312057000000001,2.1865478,-0.14196508,-1.030966,-0.35664058
-1.4372201,11.061949,1.621478,-0.015795228999999997,-0.42305034,-0.32044244
-0.99597836,10.810644,1.4616793,0.12259193,0.013439035,-0.3151192
-0.27215368,10.033889,1.4790611,0.2098933,0.20774654,-0.30501375
0.59255534,9.019426,1.4542190000000002,0.26206118,0.23010421,-0.23952898
1.1108809,7.848969,1.3919888999999999,0.3291342,0.29928905,-0.10114183
1.2597237,7.2032433000000005,1.2767607,0.3903429,0.49839622,0.0628144
1.8115296000000003,7.224542,1.2767607,0.3946015,0.68203974,0.22622958
2.7566838,7.3929979999999995,1.2858491,0.40631264,0.6884276999999999,0.37686893
3.6695163,7.464431299999999,1.4158541999999998,0.45689228,0.49146727,0.53339005
4.251384,7.3724174,1.8561957999999998,0.49680796,0.25405014,0.7303505
4.2125216,7.4325595,2.3162944,0.41004765,0.32644638,0.97361445
3.5281818,7.385279,2.5575342,0.2641905,0.58889157,1.0438988
2.687999,7.256605,2.6429687000000004,0.1561197,0.73473126,0.9150587
2.0904830000000003,7.325721000000001,2.8548174,0.07681194,0.7741408000000001,0.8245633
1.7869458999999999,7.810489,2.882858,-0.09777334,0.96630156,0.8634493000000001
1.3289735,8.797819,2.4952276,-0.23352505,1.2404579,0.99757785
0.76348215,9.800713,2.1992276,-0.30963886,1.4672285,1.1993204
0.30761662,10.746613499999999,2.3855060000000003,-0.36767107,1.4895861000000001,1.3499773000000002
-0.04891833,11.940095,2.4505613,-0.4320737,1.2255528,1.3707466999999998
-0.10182061,13.850973999999999,1.7510617,-0.47839475,0.85983646,1.3031327
0.40895838,15.629349,0.47189716,-0.49169415,0.52075386,1.1567519
1.0805798999999998,15.459868,0.7072568,-0.4752008,0.36370915,1.0156769
1.1784451999999999,13.577048999999999,1.8836334,-0.40013418,0.32644638,0.9187936999999999
0.8810758,11.551725999999999,1.9713953000000002,-0.328279,0.33548720000000004,0.8479857
0.5358894000000001,10.486125,1.310519,-0.33040828,0.35890952,0.7904945
0.31609207,10.097057000000001,1.1089942,-0.39268163,0.38393754,0.7063871
0.31629320000000005,10.169458,0.744319,-0.44645519999999994,0.34508649999999996,0.5914048000000001
0.48535258,10.417315499999999,0.32919315,-0.43792057,0.24127431,0.45088837
0.60296535,10.332187,0.05464526,-0.38522908,0.10712831,0.27202702
0.76200736,9.795484,0.11046847,-0.30750957,-0.053616515999999996,0.07613126
0.91651,9.0333805,0.39783973,-0.20210913,-0.20586158,-0.08730136599999999
0.9421470999999999,8.050274,0.748868,-0.087126836,-0.32829642,-0.20013689999999998
1.005536,7.3152056,1.1561025,-0.041346848,-0.4044277,-0.2688156
1.1694909,7.089394,1.0614358,-0.07169812,-0.48373544,-0.36835173
1.2593118,7.358664999999999,0.5631833,-0.069027774,-0.6402391,-0.5488013
1.5405156999999998,7.6585149999999995,0.08961018,-0.020053834,-0.8010014,-0.74949676
1.705591,7.9402740000000005,0.053850382999999995,0.10395181,-0.9292831,-0.9150587
1.8147282999999998,8.121113000000001,0.3414036,0.28867745,-0.9926385,-0.9879785
1.9122298,8.088101,0.6279608,0.47712067,-1.0863278,-1.1242538999999998
1.9595776000000003,7.841997,0.9521549000000001,0.58732074,-1.1954458000000001,-1.3286668
2.0119721999999998,8.000732000000001,1.1938064,0.51651275,-1.0575823,-1.4425843999999999
2.0173256,8.900781,1.0404626000000001,0.34136894,-0.5997824,-1.3691236
2.0741448,9.778179,0.7097467,0.16570155,-0.12760103,-1.1423529
2.0374465,9.973794,0.78266454,0.020909045,-0.097267196,-0.9358105999999999
2.1286178,10.151367,1.3224803,-0.11960741,-0.30913273,-0.8543735999999998
2.2359736,10.675994000000001,1.8612236,-0.20956168,-0.6647261,-0.86500263
2.267472,12.244493499999999,2.436196,-0.23352505,-1.0831339,-0.90973544
2.3478212000000003,14.122705999999999,2.7984004000000002,-0.22287855,-1.3588784999999999,-0.9507332000000001
2.5006287,14.253142,3.734926,-0.18613936,-1.5169704,-0.9576447
2.1724029,12.344695,4.5603414,-0.110008106,-1.5435866000000003,-0.9187761999999999
0.94106495,10.199251,4.1756887,-0.051452305,-1.4589556000000001,-0.8431860000000001
-0.27058309999999997,8.837247,3.85839,-0.05677556,-1.3359796999999998,-0.70211107
-0.7651198,8.729096,3.4821748999999995,-0.061575215,-1.1331725000000001,-0.5477367
-0.96606034,9.628674499999999,2.5685472000000003,-0.03176499,-0.8595572,-0.42851323
-1.0481528,10.620161,1.8474234,0.04860742,-0.5412266,-0.35609952
-0.71102047,10.854659,1.6463776,0.14388494,-0.22715460000000004,-0.3172485
-0.16422309,10.274755,1.7172173,0.2210634,0.04272566,-0.30553734
0.5056554,9.295266999999999,1.6900095000000002,0.2881364,0.26417303,-0.2741214
1.149619,8.238506,1.7580911,0.3695909,0.44729298,-0.16659167
1.572617,7.511396,1.7804912,0.44092253,0.58515656,0.022375122
1.9897634999999998,7.0914245,1.5688628999999998,0.45743334,0.6133784999999999,0.24380504
2.353596,7.1475253,1.4095527,0.44570473,0.49305552,0.43329543
2.8286919999999998,7.3910446,1.5874707000000001,0.48935542,0.26522022,0.58075833
3.2538254,7.6272850000000005,1.8653513,0.55164623,0.029408797999999996,0.71916294
3.4171674,7.618579400000001,2.2716472000000003,0.5723982,0.0017278759,0.8772723
3.2858407,7.4917926999999995,2.5264862,0.47657959999999994,0.33176965,1.0135477
2.9528742,7.281553,2.721326,0.28707176,0.8018217,0.9629854
2.4267054,7.152381,2.9021267999999996,0.13163273,0.95406675,0.84053314
1.7665473000000003,7.3929789999999995,2.851887,-0.04082325,0.9934414,0.78836524
0.95253795,8.208836999999999,2.4985316,-0.25481808,1.1659323,0.83733916
0.18510053,9.267237,1.9898593,-0.40599850000000004,1.4320950000000001,0.9592504000000001
-0.048314992,10.125788,2.0229952,-0.49169415,1.6514131,1.1029782
0.09058701,11.111116,2.2746162,-0.55450857,1.7270033,1.1993204
0.5067472,12.491105000000001,2.0636966,-0.568349,1.516726,1.1604694
1.2365285,14.430532999999999,1.1571752,-0.5337566,1.1802963,1.0992433000000001
1.9484493000000003,15.840815,0.21583249,-0.48478267,0.9263859,1.0279291
1.8678412,14.861201999999999,0.58979726,-0.42303290000000005,0.7523066999999999,0.94540995
1.1901289,12.658977499999999,1.5099559,-0.3735179,0.6570292,0.86236715
0.96438444,11.127196000000001,1.3181996,-0.3559599,0.59473836,0.7862534000000001
0.8934203000000002,10.448936999999999,0.78827655,-0.37618828,0.56972784,0.73619735
1.0269593000000001,10.506504,0.3412025,-0.41610396,0.5297947,0.6579541999999999
1.173044,10.79467,-0.04853525400000001,-0.43100905,0.44994587,0.5461659000000001
1.354352,10.770087,-0.07871178,-0.38842303,0.28546605,0.41362557
1.2820757999999999,10.347807000000001,0.06457641,-0.328279,0.06773623,0.24539329
1.0140307,9.594792,0.21652202,-0.24736552,-0.20053834,0.0654673
0.88613236,8.709589,0.44877875,-0.13929473,-0.44169047,-0.10752974
0.82512814,7.8857155,0.6858622,-0.042411502000000004,-0.5763600999999999,-0.24432865
0.9328097,7.213720299999999,0.76703525,0.0012217305,-0.6301161999999999,-0.36835173
0.8800798000000001,6.9489694,0.6339559,0.011868238,-0.671114,-0.5541246
0.9047400999999999,7.0879765,0.33428803,0.050195668,-0.70305353,-0.75801396
1.0944183,7.2819449999999994,0.18090588,0.12472123,-0.7238055,-0.9496511000000001
1.274357,7.549003999999999,0.23282175,0.23225096,-0.8036543,-1.0396054
1.321178,7.8024830000000005,0.38779363,0.33178708,-0.9245009,-1.0124655
1.4504361000000001,7.945618,0.5064311,0.42921138,-1.1390194,-1.022571
1.6809498,8.204978,0.78986627,0.48935542,-1.3892123,-1.1418293
2.0764813,8.762444,0.996122,0.42495278,-1.3082988000000002,-1.2168784
2.4586918,9.640367999999999,0.925177,0.25832617,-0.8446521,-1.121601
2.6653976000000004,10.285203,0.83502096,0.0906524,-0.3511777,-0.8804488000000001
2.7417437999999996,10.401322,1.1710999,-0.028029988,-0.13133602,-0.65100783
2.579714,10.545769,1.6638552,-0.081279986,-0.16166985,-0.578629
2.2456174,10.945074,1.8594423999999998,-0.12013101,-0.28038713,-0.616939
1.7582155,12.2220745,1.8781267,-0.13983577,-0.4831944,-0.69307023
1.4646481000000002,13.700628,2.204514,-0.1552645,-0.71157074,-0.7798305999999999
1.5140165,13.212747,3.3039217000000005,-0.14196508,-0.89575535,-0.82348126
1.5602055000000001,11.513802,3.9764147000000003,-0.072221726,-0.94951147,-0.84159774
0.93196696,9.752522,3.7883835,0.015062191499999999,-0.8840442,-0.86020297
0.34000537,8.582055,3.4901812000000003,0.032637656,-0.87817985,-0.77131337
0.06795702,8.516022999999999,3.1983662,0.009738937,-0.87817985,-0.620674
0.08431421,9.534027,2.7597196,0.017191493999999998,-0.8036543,-0.44554764
0.14500242,10.306301,2.3845767999999996,0.08319984400000001,-0.5273861,-0.3172485
0.18671902,10.500900999999999,2.0481439,0.16091935,-0.13185963,-0.24752259
0.41820002,10.185796,1.8374828,0.23012166,0.19284143,-0.22195353
0.8461204999999999,9.407708999999999,1.665761,0.2817485,0.36318555,-0.2065248
1.2871708,8.48531,1.7099102,0.33658674,0.44942227,-0.1373225
1.7927302999999999,7.7435284,1.7133098999999998,0.40100685,0.56333995,0.0016057029000000002
2.044763,7.139317999999999,1.523488,0.44624579999999997,0.74645984,0.16556193
2.0171533,7.205857300000001,1.3650684,0.46486846,0.8417374,0.31300735
2.2483852000000004,7.4482083,1.4944799,0.4803146,0.70759135,0.45141196
2.7072960999999998,7.6395526,1.7878366,0.50638986,0.37809068,0.57065284
3.263364,7.711896,2.0303693,0.5159891,0.0959582,0.67872363
3.4497669,7.6874460000000004,2.1797674,0.46914449999999996,0.17845991,0.84587383
3.0492554,7.6012745,2.3813784,0.3131644,0.60006166,0.9379749
2.4819636000000003,7.5506325,2.5006385,0.1470789,1.0078228999999999,0.8586495999999999
2.038184,7.7170195999999995,2.6509272999999998,0.009738937,1.1307988000000002,0.7617664000000001
1.6640468000000002,8.375865,2.5159707,-0.17868681,1.2511044,0.7825358
1.2230061,9.402816,2.0177758000000003,-0.36341247,1.5688939,0.93849844
0.7039719,10.312553999999999,1.7059358,-0.47837728,1.9425863,1.1796331
0.3356192,11.2665,1.9460933999999996,-0.5417327,2.1177300999999997,1.3957572
0.31115046,12.147748,2.190867,-0.5816484000000001,1.9798491000000003,1.4585716999999998
0.6061161,12.849805,1.8627081,-0.5821895,1.5460126,1.3643413999999998
1.4318188,14.232581,0.7464929,-0.56887263,1.0562732,1.2211546
2.2649722000000003,14.597332999999999,0.2055949,-0.54546773,0.72942543,1.0848792
2.0781863,13.1355,0.98178554,-0.47040114,0.5276654000000001,0.9635090000000001
1.6742078,11.446850999999999,1.2114086000000002,-0.39109337,0.38234928,0.85065603
1.2828323999999998,10.579239999999999,0.59833974,-0.38735837,0.25617942,0.7388677
1.0155438,10.441410000000001,0.14753072,-0.44484952,0.15770794,0.64837235
0.85070777,10.928737,-0.275496,-0.48582986,0.010786135,0.49719194
0.7972117,11.230568,-0.3665906,-0.43898519999999996,-0.24631831,0.30183724
0.8565975,11.141925,-0.17265068,-0.34370768,-0.4848001,0.06174975
0.6732591,10.72904,0.10469365,-0.24575981,-0.59658843,-0.16233307
0.35844073,9.712434,0.27800512,-0.13768902,-0.5811423000000001,-0.3428001
0.24905445,8.546774000000001,0.694443,-0.048258353,-0.4975759,-0.44711843
0.25449407,7.6201406,1.1552981000000002,-0.026441738,-0.43476152,-0.48172832
0.42689574,7.160013,1.1142328000000001,-0.036023594,-0.44699627,-0.5621182
0.5520646,7.161613000000001,0.6636248,-0.008866273000000001,-0.55932564,-0.6994581
0.76143277,7.2541056,0.30619925,0.056042522000000004,-0.6860191,-0.90121824
1.1334629999999999,7.4834414,0.30732933,0.16891296,-0.67963123,-1.0486636
1.5429768999999998,7.8708615,0.5773090999999999,0.29454178,-0.5241922,-1.0582280000000002
2.0595787,7.9135265,0.78774023,0.39940116,-0.48692942,-0.9842434999999999
2.4718602,7.6268253,1.05161,0.50745445,-0.7679971999999999,-0.9507156999999999
2.669104,7.742292999999999,1.1844497999999999,0.55164623,-1.1986398,-1.0816678
2.7772354999999997,8.612269,0.9263933000000001,0.43346998,-1.3008462,-1.2637231000000002
2.8860185,9.641163,0.6335824000000001,0.26312584,-0.91704834,-1.2504063
3.0298908,9.916018,0.74433815,0.16837192,-0.44860196,-1.0747388999999998
3.0292397,9.980421,1.2165034,0.029443703999999998,-0.2356718,-0.902789
3.1667626,10.255984,1.6971922,-0.14940019,-0.3469191,-0.8154876
2.9553642000000004,10.972013,2.091067,-0.31602678,-0.5955238,-0.76705474
2.4155867000000004,11.995075,2.0638878000000003,-0.39107594,-0.81484187,-0.79951787
1.6761230999999999,12.830163,2.0623367,-0.3937463,-1.0070026,-0.83678067
1.3497072,12.898503,2.735117,-0.33199653,-1.0943040000000002,-0.8437096
1.4326136,11.738417,3.5774063999999997,-0.27183503,-1.0831339,-0.8351924000000001
1.0574998,10.190211,3.7097773999999997,-0.25853562,-1.0378774,-0.74363244
0.41887036,9.10173,3.9735034,-0.2356369,-0.914378,-0.62439156
-0.08486966,9.068259,3.8601906,-0.21062633,-0.6833488,-0.49183378
-0.36796963,9.987603,2.686553,-0.16910495,-0.37514105,-0.35344663
-0.6377579000000001,10.6555195,1.7753963,-0.061575215,-0.14676474,-0.28157398
-0.2959329,10.830238,1.4766957,0.06351253400000001,0.013439035,-0.23525293
0.3987974,10.354510000000001,1.5721669,0.1449496,0.20455259,-0.17564994
0.9712893,9.364163000000001,1.7723413000000001,0.23598596,0.41907102,-0.07344346
1.5092665,8.210426,1.6793314,0.3765199,0.63893014,0.099571034
1.9653523000000002,7.422466,1.5141218,0.48192029999999997,0.86409503,0.32100096
2.286367,7.2548337,1.5185943000000002,0.4776617,0.9918531999999999,0.51530844
2.5555517999999995,7.152486,1.6220333999999998,0.45263368,0.8774119,0.6425255
2.926184,7.205809599999999,1.5520557,0.4867025,0.5186246,0.72823864
3.1629033,7.193675999999999,1.8452783,0.56016344,0.13161528,0.82777476
3.1181605,7.210837400000001,2.2615342000000003,0.60435516,-0.021135937,0.9635265
2.890472,7.2483883,2.4384273999999997,0.5537755,0.16196655,1.0486985
2.6281822,7.0725484,2.5721197,0.43772858,0.44942227,0.98906064
2.2694732999999996,6.818264999999999,2.962231,0.32115802,0.67565185,0.8570614
1.728968,7.13904,3.0727662999999996,0.16837192,0.89018774,0.7846651
1.0814418,8.299441999999999,2.4589505000000003,-0.032829642,1.1627383,0.7985055999999999
0.46880382,9.537945,1.7657143,-0.19785053,1.5406893,0.8677079
0.077533826,10.468839,1.8044810000000002,-0.31389746,1.8185631999999998,0.96192074
-0.09262688,11.495788000000001,2.138884,-0.40758675,1.8409209,1.019953
0.17173129999999998,12.783725,2.0330412,-0.46401322,1.6402255000000001,0.995466
0.87974465,14.295529,1.2941139,-0.48211229999999994,1.2867788999999998,0.94809777
1.7300502,15.10725,0.70521694,-0.48317695,0.9907885000000001,0.88845986
2.1945634,14.353632000000001,1.0947438,-0.45814893,0.83801985,0.82351613
2.1055567,12.656938,1.7169107,-0.41610396,0.7879813,0.7681543000000001
1.8717965,11.257986,1.4810436000000002,-0.38948768,0.7560416999999999,0.7074866999999999
1.7715656000000002,10.659772,0.96888554,-0.40013418,0.71291465,0.6398726
1.7342639,10.84808,0.48161763,-0.42833869999999996,0.62029004,0.55948275
1.6297426000000002,11.142145,0.06668331,-0.43420299999999995,0.43558183,0.43437755
1.6319454,11.095344,-0.1189631,-0.38894662,0.16887806,0.28426176
1.5023615,10.652607000000001,-0.039667133,-0.3170914,-0.12388347,0.119258344
1.1278318,9.894115,0.08649772,-0.2335076,-0.3964341,-0.03296927
0.9060425,8.859187,0.32050700000000004,-0.15207054,-0.6130818,-0.18788469
0.7676098000000001,7.840253999999999,0.62169755,-0.08126253,-0.77384406,-0.3156428
0.8598249,7.0665245,0.753235,-0.040805798,-0.8387878000000001,-0.39442694
0.82002366,6.7686186,0.6330844,-0.044540804,-0.893085,-0.48651052
0.84150445,6.897915400000001,0.34137484,-0.0030194195,-1.0421360999999998,-0.6579193
1.0555173,7.205704700000001,0.044580035,0.10183996,-1.2135448,-0.86500263
1.1835976000000001,7.579027000000001,0.0086382795,0.29667106,-1.2614542,-0.9959372
1.2717521,7.8680460000000005,0.08724471,0.49841368,-1.1677648999999999,-1.1077256000000002
1.3445454,7.9211106,0.18669984,0.6453355,-1.020843,-1.2163374
1.4535103,7.959035000000001,0.35284787,0.63097143,-0.8893674000000001,-1.2945805000000001
1.7544422,8.334896,0.5082985999999999,0.41804126,-0.5763600999999999,-1.2849986999999998
2.051103,9.218835,0.52404284,0.17955947,-0.19573867,-1.1833333000000001
2.1804092,10.102277,0.41404366,0.013997541,-0.05787512,-1.0119244
2.1611597999999996,10.317601,0.67751116,-0.10149089,-0.15049975,-0.8857546000000001
2.304965,10.711025999999999,1.44288,-0.15046483,-0.4161214,-0.82826346
2.5504377000000003,11.948694,2.209379,-0.17975146,-0.81962407,-0.81442297
2.8968403,13.785076,2.9758777999999997,-0.19198622,-1.1603123,-0.84795076
3.0200365000000002,14.72979,3.751235,-0.19678587,-1.4307337,-0.8990540000000001
2.6924137999999997,13.459991,4.4865804,-0.15685274,-1.5659443000000002,-0.902789
1.6703484,11.342827,4.0751038,-0.090844385,-1.4605438999999998,-0.87456703
0.27472985,9.570648,3.2774897000000003,-0.038676497000000004,-1.203963,-0.7947181999999999
-0.6301922,8.414363999999999,3.1776707,-0.052516956,-0.9330181000000001,-0.6201329000000001
-0.93334603,8.331965,2.7977395,-0.07913323,-0.62905157,-0.42102578
-1.1150659,9.036378,2.1733990000000003,-0.05305801,-0.34424874,-0.29487340000000006
-1.1623945,9.733292,1.7744194,0.024644048999999998,-0.041905355,-0.21341886
-0.8105905,9.971112,1.4670326999999999,0.0970403,0.19655898,-0.18788469
-0.020714633,9.855156,1.3479068,0.14175564,0.33709288,-0.1995784
0.7952963000000001,9.308254,1.4809573999999999,0.17475982,0.38819614,-0.19106120000000001
1.5466448,8.500594,1.8028529999999998,0.22214551,0.42547637,-0.12398819
2.1994667000000003,7.855040600000001,1.8910555,0.28176597,0.49680796,0.012810716000000002
2.5027165,7.4679649999999995,1.8156765,0.33126348,0.6011438,0.19484855
2.7370417000000002,7.6179380000000005,1.7818033,0.35416222,0.6368008000000001,0.35775759999999995
3.0654592999999997,7.8304663,1.9652565,0.41165337,0.5521698,0.5137202000000001
3.205357,7.920096000000001,2.2383296,0.5154481,0.37116173,0.6952345
3.1734664,7.9408297999999995,2.364188,0.5660276999999999,0.31579986,0.93958056
2.799674,7.9151254,2.32884,0.4675388,0.5446998000000001,1.0928729
2.2768188,7.7376957,2.380775,0.30784118,0.82417935,1.016759
1.8752345000000001,7.514547,2.5533109,0.17849483,0.99665284,0.87676615
1.5201266000000002,7.4580245,2.676344,0.031031952999999998,1.1153526000000002,0.8448091999999999
1.0986799999999999,7.89238,2.4498715,-0.11800171,1.3256299999999999,0.9278694
0.65308076,8.730792,2.0178714,-0.21807889999999996,1.5752819,1.0662565
0.40436152,9.679193,1.8251956999999999,-0.2979277,1.7041221000000002,1.1892325000000001
0.38759252,10.695694,2.1142812,-0.39055229999999996,1.6098917,1.2302302
0.44965023,12.29686,2.0252073,-0.4475024,1.2883672,1.1738212
0.7386111999999999,14.387093,0.9054296000000001,-0.46240753,0.9247976000000001,1.0939549
1.4435505,15.602113000000001,0.11706689,-0.44804347,0.7012209,1.0023949
1.778346,14.664179,0.80842614,-0.40598103,0.6006026999999999,0.9044471
1.3353325,12.65915,1.7237868000000003,-0.34264305,0.6011263000000001,0.8485441999999999
0.90015274,11.122589999999999,1.5925751,-0.31602678,0.61177284,0.8102166999999999
0.58756584,10.535656,1.1939692,-0.35541886,0.64957666,0.7718893
0.58986425,10.546324,0.73477095,-0.40756929999999997,0.5942148,0.6904697
0.8561378000000001,10.938983,0.21043119,-0.40118137,0.43451717,0.5786639
1.0595778,10.935066,-0.06687484,-0.36287140000000007,0.18167132,0.42587778
1.0816141000000001,10.412221,0.06017108,-0.31016245,-0.095120445,0.2470339
0.9108501,9.551313,0.25585398,-0.23937191,-0.34904840000000004,0.039409533
0.90009534,8.5322075,0.49843448,-0.16324064,-0.50181705,-0.122382484
0.88104707,7.6593194,0.8133007,-0.09457939,-0.579013,-0.24483478
0.9479698000000001,7.177308999999999,0.93720543,-0.061034165,-0.69238955,-0.37789870000000003
0.94874555,7.124321000000001,0.68752855,-0.025900686000000003,-0.9378003,-0.5711241
1.1358188,7.266258199999999,0.24783818,0.024644048999999998,-1.158183,-0.7729016
1.2625775,7.599109599999999,0.106283404,0.09332275400000001,-1.271036,-0.9852907
1.3210821000000001,7.9723663,0.16075628,0.17955947,-1.2390965,-1.1300832
1.4294149999999999,8.188266,0.23076274,0.28495990000000004,-1.1113383999999997,-1.1583052
1.5752506000000002,8.248811,0.40745485,0.41112974,-1.0245606,-1.1870333
1.8356439999999998,8.483279,0.6593057,0.43826962,-0.94472927,-1.2541238000000001
2.1203432,9.172206,0.83064437,0.29721212,-0.6561914000000001,-1.2285546999999999
2.2671175,9.895235000000001,0.9332215,0.12793264,-0.22181389,-1.1231543
2.2401779,9.943244,1.0767586,-0.007801621700000001,0.060824725999999996,-0.94429296
2.2315395000000002,9.956019,1.4596586,-0.10414380000000001,0.07998844,-0.80749404
2.626535,10.346629,1.7661068,-0.19891517,-0.10737266,-0.75532615
3.0306667999999997,11.421213999999999,2.1264534,-0.2894105,-0.4139920999999999,-0.77236056
3.3400648,12.878947,2.322452,-0.30803317,-0.776497,-0.8213345
3.251211,13.947182999999999,2.622532,-0.2957984,-1.1166617,-0.86817914
3.1822677,12.965943,3.4799337,-0.23937191,-1.362596,-0.89160144
2.4840128,11.083573,3.6644212999999994,-0.18027505,-1.4791665,-0.8995776
1.294928,9.388525999999999,3.3736982,-0.17229891,-1.5302873,-0.8399745999999999
0.4430231,8.406472,3.2828717000000003,-0.1690875,-1.4286044,-0.7127401
-0.22939324,8.440471,2.9702466,-0.13076007,-1.1166617,-0.5652772
-0.6821751,9.276459,2.3579822,-0.048781954,-0.6476742,-0.45722390000000007
-0.8342548000000001,10.043753,1.764632,0.03796091,-0.20851448,-0.40399137
-0.62959844,10.13411,1.6680881999999997,0.12899728,0.13322099,-0.337983
-0.21647413,9.721589,1.7767370999999998,0.20617574,0.32325244,-0.274645
0.43991062,9.023497,1.7105997,0.26686084,0.43451717,-0.17828538
1.1013614999999999,8.301396,1.7379509999999998,0.32648128,0.54737014,-0.024975661
1.6534932,7.729862,1.6733938000000002,0.4015479,0.6873805000000001,0.20390682
2.0705345,7.651667599999999,1.681898,0.43774602,0.78106976,0.4360007000000001
2.731248,7.5936227,1.8502965,0.45795694,0.75869465,0.63029075
3.402285,7.615544,2.0016484,0.48404962,0.6320186,0.76286596
3.8882604,7.517668700000001,2.1881473,0.5159891,0.43610543,0.88367766
3.813111,7.346282,2.37953,0.51546556,0.4079009,1.0252937
3.2438464,7.1349125,2.5128007,0.4148473,0.6634171,1.0795909
2.5645729999999998,7.068823299999999,2.568059,0.26686084,0.9822888000000001,0.99494237
2.069452,7.2002935,2.6446638,0.13803808,1.2106476000000002,0.90605277
1.6411103,7.6072216,2.7074974,-0.020577433,1.3325589,0.8815658000000002
1.0495127,8.392816999999999,2.5372793999999996,-0.19783308,1.43583,0.9268046999999998
0.7019129,9.190182,2.2579622,-0.33836700000000003,1.5917926000000002,1.044981
0.67141074,10.014371,2.1882045,-0.4256858,1.6881523,1.1636808
0.72173685,11.279496,2.1467562,-0.47144833,1.5673057,1.1972435
0.8921562,12.9103775,1.9285582,-0.46506044,1.2649448,1.1418641999999999
1.4154712,14.746232999999998,1.1831858,-0.44802603,0.93757343,1.0625563999999998
2.083128,15.498932,0.7951526999999999,-0.41769218,0.7171907,0.96993184
2.1499354999999998,14.278635999999999,1.4098496,-0.3650007,0.6149842,0.89645344
1.5879782,12.42831,1.8416487000000001,-0.3005806,0.59315014,0.8352448
1.114252,11.061921,1.3736972,-0.29525736,0.5936912,0.80491096
0.88313484,10.58103,0.7468473000000001,-0.3612657,0.56972784,0.7415555
0.9966008,10.604569999999999,0.396068,-0.42992696,0.46113345,0.6638534
1.2865768999999998,10.905407,0.12472833,-0.46134287,0.24713862,0.554718
1.4288213,10.894834,0.034830846,-0.47038367,0.023561945,0.40034363
1.3732662,10.400497999999999,0.068885975,-0.4677308,-0.24310692,0.17729054
1.1141849,9.544744,0.16437632,-0.41395718,-0.52790976,-0.04946263
0.91019887,8.60297,0.4966532,-0.27609363,-0.80098397,-0.24747023
0.89050895,7.6621255999999995,0.8698518,-0.12917182,-0.9553583000000001,-0.3385066
0.8330481,7.142746400000001,1.0121919,-0.08285078,-0.9947504,-0.43591344
0.7665851,7.032996000000001,0.6660095,-0.15365879,-0.9974207,-0.634497
0.8859024999999999,7.13475,0.25051013,-0.15791739999999999,-1.0075261999999998,-0.81601125
0.95470226,7.3608675,0.114653535,-0.010471975,-0.9766513000000001,-0.87830204
0.9515994000000001,7.775342500000001,0.26767176,0.21469295,-0.9149016,-0.86444414
1.2555002,7.981991000000001,0.31800744,0.39620718,-0.82761765,-0.9033126
1.5709985,8.021916000000001,0.5169273,0.44785148,-0.7717148,-0.99274325
1.9375604,7.9891067,0.9557078999999999,0.4169766,-0.76691514,-1.2061796
2.2083542,8.34407,1.2912313,0.28495990000000004,-0.63383377,-1.3270261
2.395849,9.426872,1.1036121,0.16571902,-0.282499,-1.2599707
2.9554120999999998,10.425752000000001,0.5063257999999999,0.06937684,-0.0056897732,-1.114637
3.4423833,10.768094999999999,0.7225988,-0.026965337000000002,-0.01420698,-0.9970019
3.4385142,10.811736,1.5959748,-0.11267845,-0.20638518,-0.9959372
3.1862418999999997,11.789212,2.4911953999999996,-0.1685639,-0.5284333000000001,-1.0257474
3.0705926,13.1991,2.8431911,-0.18505725,-0.8925439000000001,-1.0795035
3.1649528,13.738083,3.237813,-0.17015214,-1.2023573,-1.1055788
2.6998456,12.595771000000001,4.028206,-0.11159635,-1.3796304,-1.0949323
2.1510656000000004,10.885488,4.5122943,-0.040264744,-1.4003823999999998,-1.0486287
0.9650261,9.206099,4.2969313,0.018797196000000002,-1.2854,-0.94429296
-0.13218866,8.377034,4.091863,0.04808382,-1.0671467,-0.7925889
-0.48119622,8.647589,3.4866184999999996,0.061924282000000004,-0.7717148,-0.65364325
-0.3869413,9.522573,2.6708279,0.09971066,-0.4773300999999999,-0.54876643
-0.28440243,10.279591,2.0549433,0.1609368,-0.25801203,-0.4556182
-0.027427975,10.273922,1.7489357,0.20458749,-0.08660324,-0.37629297
0.37259525,9.678550999999999,1.5491346000000001,0.23013912,0.111927964,-0.31401965
0.8361893,8.863363,1.5251639,0.27537805,0.37596136,-0.22567107
1.4584233,8.085717,1.671555,0.33499850000000003,0.71026176,-0.07021459
1.9978656000000004,7.6040325,1.7865244999999998,0.3685437,0.9822888000000001,0.11023499999999999
2.407753,7.3444242,1.7798686000000001,0.37919024,1.1584796999999998,0.30400145
2.7821293,7.332414999999999,1.6896839,0.39409533,1.1611501,0.49935615
3.1116004,7.472572,1.7571621,0.42549380000000003,0.980683,0.71548027
3.2174337000000004,7.574631699999999,2.071942,0.43826962,0.7044149000000001,0.89914125
3.0410478,7.6522803,2.3251529,0.42603487,0.49254936,1.1195066
2.9280128,7.7050295,2.4382452999999997,0.32009340000000003,0.5335297,1.2579286
2.8942642000000003,7.5809717,2.6802322999999997,0.1609368,0.62563074,1.20042
2.6954974999999997,7.597252,2.9584767999999997,0.04754277,0.60379666,1.140817
2.205711,8.178908999999999,2.8849172999999997,-0.06635742,0.6048613,1.1147418
1.4503117,9.008289,2.5159037,-0.19570377,0.7533888000000001,1.1567693000000001
0.7118728,9.658555,2.1882334,-0.29578096,1.0376505999999999,1.2557819
0.08199662,10.310754,2.1753526,-0.33571407,1.2244881,1.3329778
-0.3617639,11.34027,2.1441705,-0.32772046,1.1739258999999997,1.3425596000000002
-0.54846376,12.550309,1.813129,-0.3112271,0.987612,1.3021029
-0.22766943,13.996799,1.0999058000000002,-0.29099876,0.8236558,1.2211893999999999
0.44135672,14.442619,0.63986474,-0.26331782,0.74645984,1.1386702
0.7205206000000001,12.873546000000001,1.1432697,-0.26012388,0.76881754,1.0604272
0.6252026999999999,11.246637,1.7101113000000001,-0.28035223,0.8018217,0.9571559999999999
0.9796212,10.651286,1.3691098999999998,-0.33197907,0.74539524,0.85016733
1.3888955,10.768362,0.71608657,-0.39798743,0.6655464,0.7410319000000001
1.7135779999999998,11.107775,0.36493382,-0.45282567,0.52075386,0.5882632
1.8459773999999998,11.3903475,0.2891621,-0.45814893,0.29239499999999996,0.42697734
1.9701216000000001,11.305803,0.33192256,-0.430468,0.024626596,0.24757496
1.7938125,10.67835,0.46907198,-0.41023964,-0.24684192,0.039426986000000004
1.5892136000000001,9.74961,0.78675383,-0.35753068,-0.45764279999999996,-0.14048155
1.3451965,8.661006,1.0689057,-0.21060888,-0.5854009,-0.22139502
1.1984608,7.656695399999999,1.1919293,-0.06635742,-0.57953656,-0.23682372
1.1012466,7.058451,1.0728705,-0.10042624,-0.55133206,-0.35182348
0.9584181,6.924701700000001,0.8434964,-0.15898204,-0.5939181,-0.57592374
1.1002123,7.0051374000000015,0.5629439,-0.1105317,-0.6546031999999999,-0.82398736
1.3251906999999998,7.235353999999999,0.4231991,0.075764745,-0.7200705,-0.9730385
1.4683735,7.5553155,0.46971366,0.29401818,-0.8206886999999998,-1.0449111
1.7846762999999999,7.871369400000001,0.5703563,0.3978129,-0.9159662000000001,-1.2003502000000001
2.1178439,7.869425,0.6666894,0.38397244,-0.9793216999999999,-1.3685476
2.6000360000000002,7.9700869999999995,0.92419064,0.32702234,-0.9516408000000002,-1.4324441
2.9474728,8.847121000000001,1.0697103000000001,0.22214551,-0.7280641,-1.406875
3.2594182000000003,10.128929,0.6428623,0.13857915,-0.3682121,-1.2839166000000002
3.512811,10.417392,0.32354283,0.058189277000000005,-0.16379915,-1.1077081
3.6666144999999997,10.295794500000001,1.0049136,-0.00034906584,-0.25907668,-0.98900825
3.5022862,10.370686,1.9668080000000001,-0.059445914,-0.5028817,-0.9517629000000001
2.9863834,11.345202,2.684216,-0.13714798,-0.8265355999999999,-0.9560040999999999
2.9538127999999997,13.201618,2.911694,-0.20209168,-1.1475365,-0.9735620999999999
2.9654965,13.469415,2.8510826000000002,-0.2335076,-1.3902769,-0.990614
2.314044,11.781685000000001,3.7798126000000005,-0.21593213,-1.5010006,-0.9900728999999999
1.3710636,10.121689,3.9655354,-0.18027505,-1.4078349,-0.9448165000000001
0.5655584,8.877767,3.8787407999999997,-0.14247122,-1.161377,-0.8617738000000001
0.026939558,8.641957000000001,3.7520301,-0.105749495,-0.8419816999999999,-0.7382743
-0.24301147,9.373127,3.1919975,-0.059969515,-0.5236510999999999,-0.6142512
-0.44197923,10.346304,2.7470305,0.016144296000000002,-0.26174703,-0.50352746
-0.514332,10.892286,2.184144,0.096516706,-0.07808603,-0.4034503
-0.41307643,10.529268,1.9110040000000001,0.15400785,0.042202063,-0.31614894
0.10381258,9.690435,1.9419562,0.20565215,0.20029399,-0.23097688
0.8797638000000001,8.683108,2.0889697,0.28815386,0.40844196,-0.12822933
1.632089,7.9080772,2.176952,0.37919024,0.6346715,0.022933627
2.3311384,7.368193600000001,2.1254382,0.4324228,0.83962554,0.23586379
2.8260102000000002,7.256251,1.9580355999999999,0.44093999999999994,0.89338166,0.42643630000000005
3.1804957000000003,7.3494906,1.8095089,0.4712738,0.75764745,0.5983687
3.3542192,7.4461107,1.8270918999999999,0.5207887999999999,0.46060985,0.7372969
3.2851798999999997,7.385068400000001,2.0609863,0.5644395000000001,0.09489355,0.8506908999999999
2.9624798,7.292279,2.2078273,0.5564458999999999,0.0017453292000000002,0.9864426
2.6317543999999997,7.104736,2.3776147,0.45903903,0.25991443,1.0689443
2.4237556000000002,6.9271917,2.72735,0.33606315,0.6112491999999999,0.97686076
2.1385584,7.0052330000000005,3.0852737,0.22800982,0.8555953000000002,0.83685046
1.5999013000000002,7.660191,2.9827251,0.090669855,1.0445620999999998,0.7889411999999999
0.91347414,8.683377,2.5114985,-0.07326892,1.2963607,0.84323835
0.36908057,9.571280999999999,2.2385976000000003,-0.19198622,1.6205382,0.9885545
0.037991192,10.458601,2.297428,-0.30003956,1.8606256999999997,1.1594396999999999
-0.02801216,11.639133000000001,2.2648575,-0.38042942,1.8308153999999999,1.2377002000000001
0.28960264,12.774866000000001,1.9293338,-0.41875684,1.5374955,1.2057607
1.1276115,14.275073,1.0470514000000002,-0.4288623,1.1286695,1.1280237
2.0324283,14.928901999999999,0.65928656,-0.41502184,0.8305673000000001,1.0119942
2.3102705,13.729741,1.3462882999999999,-0.36498326,0.65969956,0.8980591999999998
2.0342,11.907399,1.9499816000000003,-0.3112271,0.5910208,0.8011934000000001
1.6817064,10.654867999999999,1.5529749,-0.29312804,0.57559216,0.7213446
1.3185539,10.222121000000001,1.0600663000000001,-0.32133257,0.5085191,0.6489483
1.2339524,10.366711,0.51397765,-0.3697829,0.38289034,0.5360953
1.3083642,10.844623,-0.056014743,-0.39159954,0.18380062,0.3934321
1.3392016000000002,11.004556,-0.16860925,-0.36658895,-0.02698279,0.20018926
1.2508268,10.741855000000001,-0.04552814,-0.31388003,-0.22980749999999997,-0.007923795
1.0623744,10.057677,0.13280158,-0.2335076,-0.39482838,-0.18200293
0.85427034,9.048388000000001,0.49353117,-0.14088298,-0.48851764,-0.27623326
0.807976,8.116267,0.8938033999999999,-0.073809974,-0.5044874,-0.32838368
0.93614244,7.458685000000001,1.0343143,-0.06901032,-0.5130045999999999,-0.42154938
0.8776185999999999,7.264429,0.9057744000000001,-0.06316347,-0.60828215,-0.59454644
0.81664306,7.360772,0.56016654,-0.016842427,-0.7387106,-0.79204786
1.0587448,7.538392999999999,0.37213555,0.053407077000000004,-0.8105658,-0.9895318999999999
1.3006166000000001,7.69188,0.40246529999999997,0.18116517,-0.7743677,-1.1119667
1.5908608,7.8343544000000005,0.5451789,0.31264082,-0.75520396,-1.0976026
1.8652171999999998,7.873179400000001,0.70997655,0.40687114,-0.9346064000000001,-1.138583
2.0916033,8.129081,0.84248126,0.38184312,-1.0996273,-1.2940395
2.2972843999999997,8.795091000000001,0.7775505,0.21842796,-0.9415179,-1.3733473
2.5524970000000002,9.67132,0.5293101,0.10077531,-0.54920274,-1.3339552
2.784418,9.896251,0.5295112,0.05021312,-0.18509217,-1.2157790000000002
2.8026142000000003,9.94017,1.0058904,0.010821042,0.04059636,-1.0331825000000001
2.7833936,10.46337,1.4229602,-0.035482544,0.037402406,-0.9102066999999999
2.768942,11.536318,1.9682446,-0.041329395,-0.22074924,-0.8399572
2.5979099999999997,12.561485000000001,2.6832585,-0.03174754,-0.6503445999999999,-0.82239914
1.9083415000000001,13.037989999999999,3.1642153,-0.039200094,-1.0756639,-0.8463276
1.8930665,12.622863,3.5183370000000003,-0.00726057,-1.3290508,-0.8463276
1.665943,11.407461,3.4748487,0.031573005,-1.4520267,-0.8266403
1.0031322,9.799314500000001,3.240916,0.027314402,-1.4908777,-0.7159166
0.5811781,8.671645,3.4343865,0.00017453292,-1.4094406000000002,-0.5769884
0.17393395,8.672411,3.2799413,-0.00832522,-1.0985626,-0.44125414
-0.19218737,9.39568,2.473622,0.038501963,-0.5837952,-0.3390302
-0.6085581999999999,10.056422999999999,2.00772,0.11622147,-0.07489208,-0.2756922
-0.8351933000000001,10.28937,1.8480269,0.20565215,0.25778514,-0.24321163
-0.58309346,10.146579,1.7308834,0.28337166,0.43451717,-0.22033036
-0.01616565,9.503076,1.6546615000000002,0.345645,0.5319415,-0.18465583
0.61195797,8.544685000000001,1.7073052,0.40954152,0.66874033,-0.0861669
1.0672393999999998,7.699791,1.6900479,0.46169195,0.8806059000000002,0.100653134
1.5335628000000001,7.4881053,1.7582442999999999,0.437205,1.090342,0.33328807
2.3178267000000004,7.3819084,1.885386,0.38983673,1.1089822,0.5525886999999999
3.0683131,7.350218300000001,1.9711366999999997,0.39196604,0.8944463,0.71069807
3.6247544,7.342183599999999,2.076635,0.41432372,0.47019170000000005,0.8192924000000001
3.7076607000000004,7.4608784,2.1531632000000003,0.40900046,0.1539904,0.95130914
3.2007318,7.599302000000001,2.2270386,0.30253538,0.16517796,1.0604446
2.6563666,7.598391499999999,2.2960875,0.1609368,0.42547637,1.0306344
2.2473607,7.49343,2.5836596000000003,0.05127777,0.6655464,0.9033999
1.7485621,7.615879,2.705515,-0.10307915,0.90243995,0.8145102
1.0862684,8.369334,2.3766282000000003,-0.3112271,1.1563504999999998,0.80173445
0.35372895,9.423042,1.8464946,-0.40756929999999997,1.5076851999999998,0.8570962999999999
-0.17793708,10.237903999999999,1.8384403999999999,-0.50338787,1.7600249,0.9417273000000002
-0.39128917,11.220685000000001,2.0391128000000003,-0.6146526,1.7749126,1.0380695
-0.36287478,12.818394,1.8848497,-0.6540446999999999,1.5311075,1.0583153
0.15765339,14.911404999999998,1.0196618,-0.64285713,1.1159111000000002,1.0402162
1.0418992,16.027792,0.11684662,-0.62423444,0.74700093,0.98164296
1.7956226000000002,14.941542000000002,0.98735917,-0.5710019000000001,0.46380379999999993,0.91617566
1.83958,12.739269,2.0029220000000003,-0.46560147,0.3339164,0.8640078000000001
1.7134823000000001,11.0825205,1.6598424999999999,-0.39692277,0.27057838,0.7894996999999999
1.3051943000000001,10.116699,1.3632106000000002,-0.41449824,0.22745131,0.70910984
1.0771226,10.027644,0.96268934,-0.47890088,0.13962634,0.6074444
0.7681460999999999,10.602147,0.019785683999999998,-0.5087111,-0.036041047,0.48340383
0.6802406,10.71522,-0.29484117,-0.47038367,-0.2910162,0.34658748
0.6203185,10.667788,-0.23515849,-0.38734093,-0.572084,0.14962707
0.43688434,10.231928,-0.18576132,-0.28726375,-0.79194313,-0.0749968
0.37122577,9.259661,0.051504068,-0.19518016,-0.9016021999999999,-0.23415338
0.23732285,8.190431,0.5012405,-0.11159635,-0.9191601999999999,-0.32892475
0.26245240000000003,7.52895,0.7854035,-0.06527531,-0.8414406999999999,-0.37255797
0.26889759999999996,7.4016075,0.5476114000000001,-0.06955137,-0.74190456,-0.46837655
0.26324725,7.6920815000000005,0.27064055,-0.04452335,-0.6609911,-0.6254213000000001
0.39707357,7.786192999999999,0.19233102,0.03424336,-0.53907984,-0.7819424
0.44552264,7.643326299999999,0.48422250000000006,0.18755308,-0.39641663,-0.8867843000000001
0.5858995,7.6129103,0.84318995,0.39570105,-0.28569293,-0.88891363
1.1654592,7.623597599999999,1.1379736999999999,0.596379,-0.28569293,-0.9001011999999999
1.7177248,7.660784700000001,1.3480792,0.7262664000000001,-0.42996186,-1.0869387
1.9346299,7.904887700000001,1.3243479,0.6847449999999999,-0.5007524,-1.2173671999999998
2.4531949,8.717775999999999,1.0628915,0.48298496,-0.24897122,-1.1864923
2.9043102000000003,9.739717500000001,0.7143245,0.29827678,0.07840019,-1.0347883
3.4734983,10.394025,0.6968466999999999,0.10822786400000001,0.1433439,-0.8756142
3.7509862999999997,10.794757,1.1301589,-0.054105207,-0.033370696,-0.7696901999999999
3.8300237999999998,11.203974,1.7164894,-0.1605703,-0.39641663,-0.7143109000000001
3.8710985,11.980604,2.441559,-0.162176,-0.79033744,-0.71219903
3.300005,13.453432000000001,2.7697659,-0.13501868,-1.1416723,-0.74092716
3.1594748,13.971058,3.3613824999999995,-0.08232718,-1.3215982,-0.7739488
2.6659148,12.169306,4.236607,0.024661502000000002,-1.3902769,-0.8165348000000001
0.97977436,9.905885000000001,4.169646,0.03317871,-1.5196233000000001,-0.7590437
-0.43316856,8.341514,3.7849839,-0.03174754,-1.5856316000000001,-0.5886821
-1.1344302,7.912836599999999,3.440669,-0.07913323,-1.383889,-0.38161623
-1.3282936,8.6219225,2.6904507,-0.08817403,-0.8818974,-0.22244221
-1.5200307,9.777498,1.8813444,-0.048258353,-0.24736552,-0.17081538
-1.1715594999999999,10.412727,1.6780096999999998,0.047560222,0.29719466,-0.17879152
-0.6200599,10.250085,1.737702,0.14496705,0.63254225,-0.18039723
0.18950586,9.740877000000001,1.5892998,0.20298178,0.782658,-0.15803957
0.9518197,8.875919,1.6531387999999998,0.2503675,0.83484334,-0.06541494
1.3425246000000002,7.8165226,1.614573,0.31264082,0.8965755999999999,0.118752204
1.5297896,7.3874245,1.4995652,0.3690673,0.9881356,0.34817573
2.1362026000000003,7.328651400000001,1.6367338,0.3845135,1.0259395,0.540895
3.1464502999999997,7.462123399999999,1.8672282999999998,0.3557679,0.9141511,0.66332984
4.127977,7.718675999999999,2.0091374,0.39570105,0.56494564,0.73094386
4.63596,7.831117599999999,2.2840972,0.47926742,0.18964748,0.84006184
4.1066213,7.857492,2.6045465,0.44200462,0.17474237,0.9454623
3.1916432,7.664654,2.533372,0.29241246,0.40364229999999995,0.9087231
2.335582,7.3196205999999995,2.5071217999999997,0.13857915,0.54311156,0.7532840999999999
1.6525356,7.2375565,2.5784307,0.031049407999999997,0.5713335,0.6351079000000001
1.0450402,7.665170699999999,2.464036,-0.10679669999999998,0.62243676,0.5850693
0.54127157,8.594983000000001,2.1444099999999997,-0.24787165,0.8151385999999999,0.62233204
0.21160911,9.76118,1.7955172,-0.35486034,1.0962063999999998,0.7288146
0.06252697,10.949336,1.8955756000000001,-0.39692277,1.2409989,0.8294154
-0.069383964,12.22376,2.478037,-0.40437534,1.2143826000000002,0.82515675
0.13444879999999998,14.299695000000002,2.088146,-0.4118279,1.0642669,0.74104935
0.8837860000000001,15.92803,0.82254237,-0.39744636,0.8486838,0.6510951
1.4166299999999998,15.132159,0.7523731,-0.34101987,0.7283608,0.6148795
1.2134581,12.961001,1.7723796000000003,-0.29897490000000004,0.73316044,0.59946823
1.0598940000000001,11.192145,2.049159,-0.3122743,0.73263687,0.60850906
1.1568399999999999,10.328375,1.2270571000000001,-0.3719122,0.6825808000000001,0.61594415
1.1868153000000001,10.222236,0.403672,-0.42832124,0.5622753,0.5861339
1.3207375,10.548661,-0.028251579,-0.44535565,0.45369834,0.52173126
1.485516,10.949078,-0.31041303,-0.41289255,0.338175,0.39875537
1.5338693,10.880009,-0.34121203,-0.34156093,0.19444713,0.21830578
1.2867013999999999,10.113989,-0.07920977,-0.23668409999999998,-0.015271631,0.029862582999999998
1.0077770000000001,9.0702505,0.44058100000000006,-0.13501868,-0.25694737,-0.15056956
0.82259977,8.046337,0.8603228999999999,-0.05836381,-0.4752008,-0.31241393
0.77111495,7.266048,0.8058404,0.0076270886,-0.5853834,-0.3874631
0.5302103,6.985361,0.50121176,0.04967207,-0.6327691,-0.47158796
0.44789767,7.07862,0.18295532,0.09705776,-0.72965235,-0.61955696
0.57229084,7.244184,0.12852076,0.18435913,-0.81430084,-0.79683006
0.8357392,7.4941287,0.22759283,0.2716605,-0.81908303,-0.94907516
1.1867579,7.773034,0.3752959,0.32915163,-0.7828849,-1.0188011000000001
1.4279115,7.989068,0.49588704,0.4015479,-0.7823438,-0.94534016
1.5205383,8.183842,0.6493458000000001,0.40793579999999996,-0.85261077,-0.88465506
1.59133,8.4595,0.68462676,0.3211755,-0.96068156,-0.98153824
1.8167872,8.935449,0.6274436999999999,0.17423622,-0.9665459000000001,-1.0943912
1.9400121,9.753318,0.6049764,0.035831608,-0.5694311,-1.0704453
2.1555955,10.302365,0.67621833,0.0028274334000000004,-0.045622908,-0.88945466
2.2783222000000003,10.67587,1.2356571,0.009232792,0.19605283,-0.66959554
2.4293392000000003,11.361941999999999,1.9103718,-0.059969515,0.122050874,-0.49818677
2.2978783,11.778668,2.4579642,-0.16802284,-0.19839157,-0.43750167
1.8954128000000001,11.913012,2.8617892000000005,-0.19144517,-0.6263812,-0.42366123
1.4036534,12.642658,3.018686,-0.19144517,-1.1022801000000002,-0.4731762
1.2416521,12.965254,2.8615307999999997,-0.13768902,-1.4120935,-0.53386134
1.3848829,11.721484,3.199343,-0.07272787,-1.4722549999999999,-0.59561104
1.143873,9.956508,3.2055105999999998,-0.06794567,-1.432863,-0.5700594
0.61672723,8.938684,3.3239083,-0.07646287,-1.2779475,-0.45773005
0.021787236,8.672469,3.2413947999999997,-0.057822755999999996,-0.9665284,-0.31559044
-0.70248747,9.371986999999999,2.6194482000000003,-0.0061959187,-0.47678906,-0.21019000000000002
-0.90056455,10.188774,1.5867906999999999,0.05553638,-0.02539454,-0.17507398
-1.0079494,10.2053995,1.3385789,0.13325588,0.33923966,-0.13939945
-0.56848884,9.77704,1.4239945,0.20193459,0.5862385999999999,-0.12608258
0.18730319,9.156375,1.4271357,0.2541025,0.7693585999999999,-0.114388876
0.9623541999999999,8.214391,1.5297991000000002,0.32115802,0.9471553,-0.04944518
1.7648043999999998,7.570887,1.5419999999999998,0.37760198,1.1143055,0.10384709
2.2152974999999997,7.381659,1.5592573,0.38770744,1.2026715000000001,0.32796479999999995
2.7699572999999997,7.3509364,1.6844358,0.3642851,1.1143055,0.56751126
3.3080206,7.565514599999999,1.8581017,0.34405676,0.7954513000000001,0.76660097
3.7791517,7.877689999999999,2.000825,0.37493163,0.3035651,0.8714603000000001
3.9152190000000004,8.028744999999999,2.2486055,0.40954152,-0.18135716,0.9023527
3.4753752,7.965834599999999,2.6553516,0.41432372,-0.33892548,0.95982635
2.9933555,7.736853,2.8846493,0.35948548,-0.007819075,0.92469287
2.4611628,7.4934397,3.0535266,0.22214551,0.49787262,0.7165623999999999
1.8190665000000001,7.514412400000001,2.9627671,0.05979498,0.8657181999999999,0.50150293
0.9978458,8.068517,2.4896439999999997,-0.110008106,1.1904193,0.45731118
0.05073792,8.690368,1.9200157,-0.23296654,1.6210792,0.59571576
-0.5982823,9.323482,1.6786512999999998,-0.27822295,2.0847259,0.8613374
-0.68123657,10.132529,1.8050365000000002,-0.30483920000000003,2.213025,1.0614918
-0.50477433,11.122034,1.9903095000000002,-0.36871827,1.8686018,1.0971663
0.26661828,12.350528,1.7205979,-0.43418556,1.3277593,1.0396752
1.6465881999999998,14.179784,1.0581702,-0.48209485,0.7869166,0.9512917
3.0802937000000004,15.499889000000001,0.50720686,-0.49061206,0.43825218,0.82620394
3.315232,14.724148999999999,0.6220519,-0.47783625,0.26258478,0.7266853
2.778404,12.932663,1.0679576000000002,-0.47731265,0.21306979999999998,0.6526833000000001
2.258575,11.606649,0.86386627,-0.49699995,0.17208946,0.6021036999999999
1.3770107,11.015741,0.6859771,-0.5108404000000001,0.10766936,0.5323603
0.60592455,10.820067,0.49407703,-0.49061206,-0.03656465,0.43975314
0.2635633,10.876636999999999,0.22984336,-0.44483206,-0.22129029,0.32210052
0.09277053,10.704217,0.14888105,-0.3825587,-0.41877429999999993,0.15866788
-0.17092685,10.074274,0.260221,-0.2968456,-0.58485985,-0.012182398
-0.2519658,9.001576,0.43306320000000004,-0.19676842,-0.70942396,-0.16495107
-0.08354806,7.924396000000001,0.7628501,-0.099885195,-0.7541393,-0.26024604
0.19951361,7.039077799999999,0.93565404,-0.06901032,-0.70942396,-0.3427652
0.47308469999999997,6.6757812,0.85459596,-0.10520845,-0.642351,-0.45881215
0.64399236,6.813648700000001,0.59008455,-0.10840239999999998,-0.64715064,-0.5972168000000001
1.0736367,7.172358,0.3574735,-0.05784021,-0.67748445,-0.7643669
1.357407,7.5826283,0.21750844,0.096516706,-0.67483157,-0.8830667999999999
1.6515874,7.903997,0.19700448,0.2950828,-0.624793,-0.92298245
2.061331,8.015232000000001,0.2706597,0.4755324000000001,-0.6769608,-1.0390469
2.336195,7.9647619999999995,0.6385719,0.5772153,-0.8334645,-1.2360072
2.5882661,8.052992999999999,0.9523943000000001,0.49097857,-0.72113514,-1.3115975
2.6722642999999997,8.764205,0.91974694,0.30892327,-0.36660640000000005,-1.2924337
2.9473867,9.733752,0.6194854000000001,0.15241960000000002,-0.11321951,-1.1822511
2.9966787999999998,10.039817,0.7759225000000001,0.028920105,-0.08234464,-1.0182773999999999
2.7651974999999998,10.20855,1.3972658000000002,-0.06049311,-0.19786797,-0.8990540000000001
2.6755874,10.958702,2.0298712,-0.1020145,-0.508746,-0.83782786
2.8263648,12.539660000000001,2.7766707000000004,-0.06422812,-0.99581504,-0.83569854
2.6067686,13.986045,3.1548586,-0.03600614,-1.3615313999999998,-0.8687027
2.4668226000000004,13.909354,3.946765,0.010279989,-1.5563624,-0.8990540000000001
1.9208776,12.506217999999999,4.3122063,0.09386381,-1.5473042,-0.9208706
0.6083666,10.527352,3.8099220000000003,0.119415425,-1.5371988,-0.8346339
-0.43109995,8.718064,3.5912068,0.0837409,-1.5047182,-0.68825316
-1.1155256000000002,8.058778,3.3326905,0.010803588000000001,-1.2870058000000002,-0.49928632
-1.4379575,8.643939,2.6792743,-0.016842427,-0.8201476999999999,-0.3369009
-1.4487506,9.711495,1.9768923999999999,0.06403613,-0.22235495,-0.25706956
-1.2706986999999998,10.158186,1.8568470000000001,0.15348426,0.21574014,-0.22352432
-0.68380314,10.21694,1.7875205,0.20404644,0.49254936,-0.21928316
0.18212213,9.770516,1.6265919,0.21149899,0.59315014,-0.203837
1.058352,8.872289,1.64225,0.23066272,0.58037436,-0.13622294
1.5905733999999998,7.8326883,1.616565,0.278572,0.59901446,-0.010070549
1.7846571,7.316527400000001,1.6537517,0.31370547,0.72464323,0.17355554
2.3513265,7.3102064,1.6885825,0.31370547,0.8827351999999999,0.36093408
3.0008060000000003,7.554626,1.7657332,0.33978070000000005,0.9263859,0.5195671
3.717975,7.6595016000000005,2.1853887999999997,0.40153044,0.77946407,0.63667864
4.0450610000000005,7.749198,2.5202037999999995,0.45476300000000003,0.49413761,0.7324972
3.6446836000000005,7.852665400000001,2.5106175,0.43985787,0.31899384,0.885807
2.9476167999999996,7.867107400000001,2.4096682,0.30731758,0.44568726,0.9768433000000001
2.149131,7.779996400000001,2.4732868999999997,0.14601424,0.65435886,0.8937831
1.5483876,7.694591,2.6523254,0.017732546000000002,0.77201146,0.77084213
1.2022245,8.026791000000001,2.595104,-0.14355333,0.9354440999999999,0.7500727
0.9536680000000001,8.861466,2.1852932000000003,-0.30270990000000003,1.2484341,0.84109163
0.7654454,9.817692999999998,1.9892657,-0.3617893,1.5960511999999998,1.0332698
0.548435,10.72001,2.2549837000000004,-0.39906952,1.7259387,1.2153251
0.32094753,11.770997,2.4263605999999998,-0.4368559,1.5465362,1.2435296999999998
0.16474023,12.847219,1.9816041000000002,-0.47359508,1.0993829,1.1461228
0.5005605,14.196256,0.86197966,-0.46560147,0.6985505999999999,1.0135650999999999
1.2481548,14.609754,0.18299362,-0.41184536,0.47230354,0.90497065
1.4687566,13.167582999999999,0.8427207,-0.35859534,0.42867032,0.82620394
1.2477334,11.477669,1.3238978000000001,-0.36339499999999997,0.45101053,0.75379026
1.1072704,10.594897999999999,0.93676496,-0.41769218,0.45261624,0.6840643
0.83447504,10.404415,0.58545893,-0.47678906,0.3647738,0.58290505
0.57377523,10.832441000000001,0.23487118,-0.47837728,0.28598964,0.49933869999999997
0.43597454,11.38735,-0.23970747,-0.430468,0.17100736,0.36945128
0.55703497,11.411455,-0.14743493,-0.36552429999999997,0.051766466,0.22837633
0.57610244,10.768899000000001,0.26933809999999997,-0.2872812,-0.10843731,0.066549405
0.38211459999999997,9.637294,0.77936053,-0.20530307,-0.26068237,-0.09046041
0.3707565,8.419057,1.1785219,-0.10309660000000001,-0.32775540000000003,-0.15221016
0.6266583,7.5986595,1.1537563,-0.052516956,-0.32775540000000003,-0.18095574
0.8435443000000001,7.2837167,0.7222158000000001,-0.049323004000000004,-0.37247070000000004,-0.27358037
0.9482571,7.359986999999999,0.31178254,-0.019512782,-0.5113989000000001,-0.41837287
1.1263762,7.4463506,0.25060588,0.030508353999999998,-0.68760735,-0.6302384
1.3099444,7.588441400000001,0.31340100000000004,0.14229669,-0.8185594,-0.81761694
1.540142,7.7055182,0.33032322,0.2854835,-0.8627511,-0.9751853000000001
1.6658473000000003,7.8817697,0.44169189999999997,0.41217697,-0.87978554,-1.1226307
1.8479310000000002,8.042525999999999,0.60303235,0.49150217,-0.9436646000000001,-1.2466712
2.0503943,8.398333000000001,0.76680535,0.42655846,-0.86327475,-1.2370894
1.9618088,9.221843,0.76439196,0.20191714,-0.5486791999999999,-1.1939796999999999
1.9493303,10.111288,0.6037219,0.028902652,-0.29955086,-1.0736742
1.9810008999999997,10.230692,0.83190846,-0.06370452,-0.11749557,-0.9038710999999999
2.0160232,10.492694,1.4767052999999999,-0.124913216,-0.12281882,-0.8256104999999999
2.2656523999999996,11.258101,2.0683987,-0.15100588,-0.3421369,-0.76171404
2.4152324,12.698041,2.7455842,-0.1595231,-0.7158293000000001,-0.73031557
2.5849717,13.892795999999999,3.215796,-0.1637817,-1.0394832,-0.73192126
2.4843194,13.593694000000001,4.047867299999999,-0.14407693,-1.1901226,-0.73989743
2.0131693,12.00153,4.5069795,-0.08660324,-1.2460254,-0.751085
1.0809342,10.219306,3.6602940000000004,-0.034417894,-1.2273853000000001,-0.74576175
0.39393237,8.677228999999999,3.1208227,-0.024836035,-1.1603123,-0.6723008
-0.02555092,7.946499,3.1025598,-0.035482544,-1.020843,-0.55360097
-0.16661727,8.382166999999999,2.6067397999999997,-0.047193702000000004,-0.77065015,-0.4556531
-0.5169465,9.161719,2.0202177,-0.03070034,-0.4326322,-0.40029126
-0.7150236,9.655989,1.6671208999999998,0.024644048999999998,-0.07490953,-0.3869744
-0.40623856,9.689124000000001,1.5313792,0.08906415,0.15823156,-0.37739253
0.1613213,9.324946,1.5507053,0.15826645,0.29237756,-0.33587116
0.8021149999999999,8.631327,1.8388618000000003,0.22425735,0.3908665,-0.22675318
1.2975999,7.8971114,2.1612169999999997,0.31264082,0.5707925,-0.037227873
1.6528802,7.4573636,2.2274215,0.36693802,0.74698347,0.15971509
2.0208786,7.516136599999999,2.2102122000000004,0.36800268,0.803951,0.34442326
2.5916371,7.822048,2.2529724,0.3765199,0.669805,0.48656288
3.1161206000000004,8.103779,2.285026,0.43826962,0.38234928,0.60686845
3.4816672999999994,8.100648,2.441195,0.53302354,0.07785914,0.7319562
3.4155777,7.9629520000000005,2.569419,0.571351,0.07731809,0.8943066999999999
2.8595674,7.757194500000001,2.638439,0.45476300000000003,0.45207518,0.9800198
2.3603094,7.518569,2.726536,0.27537805,0.8183151,0.8980416999999999
2.0196528000000002,7.373375,2.7839012000000003,0.16411331,0.93755597,0.78892374
1.5692077,7.618608500000001,2.6781347,0.050195668,0.9694955,0.7457965999999999
0.815082,8.307803999999999,2.3193493,-0.10681415,1.1190877000000001,0.79583526
0.22424093,9.146425,2.0288754,-0.250542,1.431554,0.9054943000000001
-0.11099519599999999,10.09315,2.2679508,-0.33677873,1.6593893,1.0263408
-0.16704825,11.256464,2.691351,-0.38683477,1.6790939999999999,1.0811616000000002
0.22810996,12.592582,2.6497397,-0.4150393,1.4890451,1.0321877
1.0234351000000002,14.295482000000002,1.5332085,-0.42088616,1.1909428999999998,0.97043794
1.6778950000000001,15.1387005,0.6535021,-0.40385175,0.9583254000000001,0.93584555
1.7180598999999999,14.032464000000001,1.1869973,-0.38309976,0.8284379999999999,0.9124232
1.2724223999999997,12.116413,1.9505754000000002,-0.3868173,0.7395309,0.8991064000000001
1.1088506,10.962303,1.615272,-0.42408009999999996,0.64051837,0.8815309000000001
1.1613122999999999,10.735686,0.6688921,-0.45869,0.51595426,0.8314923000000001
1.2282447,10.926179,0.14626656,-0.48157126,0.4041659,0.7543138
1.1955878,11.070022999999999,-0.13613431,-0.4666835999999999,0.28279570000000004,0.6265383000000001
1.21794,10.879425,-0.13470736,-0.42887977,0.14013249,0.43970078
0.99902374,10.300421,0.059242126,-0.35861279999999995,-0.042970005,0.23902284
0.70378995,9.425694,0.26731740000000004,-0.24788912,-0.28729865,0.05588544
0.5133168,8.470361,0.4698956,-0.11639601,-0.54920274,-0.0686438
0.513652,7.727266999999999,0.53578407,-0.020053834,-0.76586795,-0.16713274
0.57180244,7.4039826,0.37928942,-0.01420698,-0.8718094000000001,-0.28850293
0.5994984999999999,7.422935000000001,0.17415424,-0.020053834,-0.9633519,-0.47535786
0.7434954,7.540068600000001,0.06929777599999999,0.035290558,-1.0426772,-0.6967878000000001
0.9224955,7.708707,0.06958508,0.16517796,-1.0857868,-0.9187761999999999
1.034956,7.9079237000000004,0.20822851,0.29347712,-1.024037,-1.0481225
1.1345068,7.917146000000001,0.42613915,0.42495278,-0.88191485,-1.0673038000000001
1.2632096000000002,7.7333193,0.8782219000000001,0.5159891,-0.8387878000000001,-1.0539869
1.2144731000000002,7.778579700000001,1.206352,0.47764426,-0.8824385,-1.1434176
1.2919399999999999,8.401321000000001,1.2507118,0.28867745,-0.79567814,-1.2094258999999998
1.6010218999999999,9.493651,0.90016234,0.13323843,-0.44753733,-1.1727041999999999
2.127277,10.152142999999999,0.747556,0.0927817,-0.16114625,-1.0486636
2.4901614,10.443527,1.194017,0.056583576,-0.13133602,-0.9129119000000001
2.8505652,10.856891000000001,1.8958917000000002,-0.022724187000000003,-0.41772709999999996,-0.8171108
3.1937501,11.532772999999999,2.5689785,-0.10576695,-0.87126833,-0.79475313
3.0697498,12.463295,2.8946283,-0.18561576,-1.2880704,-0.78463024
2.7096522000000003,13.335751,3.0664072,-0.23937191,-1.5297462,-0.8069879
2.4529746,13.046427,3.1436923,-0.25960028,-1.5159056999999998,-0.8394685
2.159369,11.567853999999999,2.9962475,-0.27504644,-1.3450379,-0.8069879
1.3010571000000002,9.717797000000001,2.8722757999999997,-0.30377457,-1.1065562,-0.71542794
0.6813515,8.691038,3.2306974,-0.30485666,-0.8696801,-0.5956634
0.09456139,8.809159,3.2865207,-0.28302258,-0.5215218,-0.47214648
-0.4575128,9.627678999999999,2.616355,-0.22553144,-0.14782938,-0.36569884
-0.8199758,10.522909,1.9596732,-0.09777334,0.08796459400000001,-0.28105035
-0.6638451,10.844201,1.7189411,0.032096606,0.20188223,-0.21771237
0.09112331,10.417957000000001,1.7016646,0.10503391,0.36264452,-0.2022662
1.2146552,9.514375999999999,1.9059857,0.18805923,0.6011263000000001,-0.16235052
2.1828032000000004,8.388613000000001,1.9809529,0.32381094,0.84493136,-0.02607522
2.662563,7.547903,1.9975398999999998,0.42921138,1.0743549,0.20493656
3.0089371,7.183802,1.983328,0.44038147,1.141969,0.39924407
3.309304,7.0477924,1.8639148,0.44943973,0.9694955,0.5392369
3.6397996,6.9583163,1.6757209,0.52768284,0.6053849,0.65050167
3.6749847,7.014752400000001,1.8813255000000002,0.62563074,0.25457373,0.7468438000000001
3.3756519999999997,7.1265326,2.164885,0.6671521,0.08955284,0.84850925
3.1567166,7.1274333,2.1655265999999997,0.6038140999999999,0.24872687,0.9608561
2.9844298,6.975544999999999,2.2746642,0.4632802,0.5888741,0.95019215
2.514448,7.00644,2.7239695,0.28016025,0.820968,0.8527679
1.8873396,7.7488722999999995,2.854645,0.08745845,0.9364913,0.7873005999999999
1.0137528,9.000494,2.3417687000000003,-0.09670869,1.0887364,0.8128522
0.19285774,9.906460000000001,2.0139737,-0.24150121,1.3511641,0.9225111999999999
-0.2561796,10.422209,2.4220414,-0.35063663,1.6338376000000001,1.0731680000000001
-0.33195126,11.176909,2.8286057000000002,-0.41662756,1.7072985,1.1817625
-0.09827719,12.128680000000001,2.6715557999999997,-0.44804347,1.5066031000000002,1.1812214
0.48840755,13.339371,2.0077105,-0.4427202,1.1845549,1.1178659
1.379903,14.484173,1.004291,-0.42622685,0.9482025,1.0348232
1.9010153000000003,14.404523999999999,0.67930204,-0.38683477,0.8614246999999999,0.9491275
1.8110508,12.969092999999999,0.9772365,-0.3415784,0.85344857,0.875143
1.5266483,11.488605499999998,1.09076,-0.33466688,0.86461866,0.79794705
1.4553011999999999,10.686625,0.75442255,-0.37990582,0.8145800999999999,0.7042578
1.5311016000000002,10.615038,0.22190419,-0.4336794,0.7060031,0.58927554
1.6359293,10.85082,-0.10945332,-0.45603707,0.49998447,0.44554764
1.6977572,10.985345,-0.13272496,-0.41451570000000004,0.20879374,0.27466246
1.5930923000000001,10.646114,0.013991713999999999,-0.3128328,-0.12707742,0.07930776
1.3987213,9.923755,0.26398468,-0.20052087,-0.42943826,-0.103271134
1.0511886000000001,8.899707000000001,0.53571695,-0.080215335,-0.6812369,-0.26935667
0.89993256,7.8838477,0.89161026,0.0076096356,-0.84519315,-0.36252233
0.8026800999999999,7.197947500000001,1.0638491,0.020909045,-0.86114544,-0.44607124
0.8359595,6.977709299999999,0.74855196,-0.03176499,-0.84732246,-0.58768725
0.81797427,7.159247,0.35982937,-0.0035604715999999997,-0.92769486,-0.73939127
0.964576,7.4946847000000005,0.060783993,0.09862856,-1.0166019,-0.91985834
1.0838072,7.8313665,-0.009279925,0.23331562,-1.0272484,-1.0566572
1.1068011999999998,8.062647,0.12766841,0.33552209999999993,-1.0112786,-1.0864848999999999
1.3094273,8.136953,0.35732982,0.4244117,-1.1401013999999998,-1.1120191000000001
1.6414455000000001,8.051383999999999,0.5513655,0.44676940000000004,-1.2955405,-1.2860982
1.885386,8.366997,0.58835113,0.31475267,-1.1922693000000002,-1.3962808999999998
2.0955107,9.33934,0.33311966,0.16463691,-0.86861545,-1.3409364
2.441856,10.10264,0.19104771,0.07307693,-0.6125581999999999,-1.1625987
2.5222914,10.049097,0.6739486,-0.02804744,-0.5082224,-0.99118996
2.3757854,10.156807,1.5768883,-0.14887658,-0.5252568,-0.90336496
2.431896,11.008357,2.2765603,-0.20210913,-0.69666564,-0.882072
2.3421519,12.38579,2.6084158,-0.21594960000000002,-0.9473995999999999,-0.9006946
2.0423497999999998,13.759909,2.8795831,-0.21594960000000002,-1.1172028,-0.93050486
1.9402418999999997,13.58765,3.4317337999999995,-0.20210913,-1.1629827,-0.95870936
1.7607726000000001,12.227006,3.6711924,-0.22500785,-1.1523362,-0.8943066999999999
0.9098350000000001,10.423866,3.5227612999999995,-0.23991296,-1.0022204,-0.74419093
0.36551797,9.090506,3.7687702000000005,-0.23937191,-0.77438515,-0.5988748
0.11466311,8.946931,3.5152626000000002,-0.21649064,-0.47574183,-0.48493972
0.076805994,9.867491000000001,2.4668705,-0.15793484,-0.1643402,-0.41093776
0.025139118,10.624577,1.723423,-0.07754498,-0.015830137,-0.34761724
0.23595338,10.764082,1.6860255000000002,0.0070685832999999995,0.022479841,-0.28639108
0.6215252,10.218175,1.8079478999999998,0.07201228,0.08742354,-0.22410028
1.1553843000000001,9.300142,1.8519150000000002,0.140691,0.27693140000000005,-0.12349949999999998
1.6087023999999999,8.089663,1.8011675,0.23809782,0.5367062,0.05534439
1.8045098000000002,7.4754353,1.859519,0.31688198,0.73420763,0.282115
2.2475424,7.251634599999999,1.9370624,0.34136894,0.81086254,0.48172832
2.6336696,7.3035507,1.9033616000000002,0.39247218,0.7491128,0.6398377
2.8664245999999998,7.3275885999999995,1.9379914,0.49361402,0.6240076,0.8021881999999999
2.7846289,7.4096713,2.1083052,0.6000791,0.46165705,0.97146773
2.4449492000000004,7.5276003,2.3908403,0.64640015,0.38339648,1.1333121000000002
2.280611,7.458034,2.576391,0.56548667,0.4653746,1.1460879
2.19125,7.265492,2.7595856,0.43186426,0.595262,0.980526
2.022047,7.177424,2.9855504,0.32752848,0.7592182,0.81869906
1.5924601999999999,7.514825,2.9100947,0.21095794,1.0312451999999999,0.73619735
0.996936,8.338650999999999,2.4104247,0.060301125,1.38258,0.75801396
0.55283076,9.050571000000001,2.1603646,-0.1004437,1.7163393,0.86927867
0.38546646,9.681874,2.3005117999999998,-0.26120597,1.8819013,1.0353643
0.33473814,10.680525,2.3588153999999997,-0.3729943,1.7647897000000001,1.1572405000000001
0.43205765,12.316711999999999,2.011091,-0.41825070000000003,1.3958793999999999,1.171622
0.9902418,14.496554999999999,1.1140507,-0.41397464,0.94233817,1.1018961999999999
1.7102644,15.61031,0.6710181,-0.38098790000000005,0.62029004,1.0028661
1.9569724999999998,14.596164000000002,1.4713709,-0.3208264,0.5010491,0.91292936
1.6192561,12.232196,2.4715056,-0.24630086,0.5399001,0.8155051
1.4104816999999998,10.550241,2.2023113,-0.23619539999999997,0.6075142,0.7244687
1.1695483999999998,9.846078,1.3831782,-0.30220374,0.6293308000000001,0.635038
1.039955,9.986436,0.47933835,-0.39056978,0.5808979000000001,0.5189911
1.00839,10.617488999999999,-0.23046584,-0.42409757,0.43769366,0.3885801
1.0539851,11.101138,-0.41521204,-0.39748130000000004,0.2242399,0.24698155
1.0464289,10.8214855,-0.29898793,-0.34211943,-0.0067718774,0.10325368
1.0027204,10.086331,0.032858025,-0.2894105,-0.26228809999999997,-0.013840461
0.90805364,9.10263,0.38846403,-0.22980749999999997,-0.48853509999999994,-0.13735741
0.95423305,8.095199000000001,0.8107725,-0.15419984,-0.64769167,-0.23635249
1.1557962,7.4589915,1.0637629,-0.105243355,-0.80154246,-0.37742746
1.1482303,7.152294599999999,0.7938598000000001,-0.06424557,-1.0181901,-0.6292085999999999
1.1375235000000001,7.197219400000001,0.38263175,-0.0024958209,-1.1496832000000001,-0.8533089
1.1904162,7.3677344,0.17841591,0.12685053,-1.1518126,-0.95340353
1.2612655000000002,7.6363259999999995,0.31128449999999996,0.29558897,-1.1353017,-0.9395631
1.2397752,7.8116193,0.37603334,0.44518113,-1.1874696000000002,-0.92783445
1.2463831,7.9212737,0.31032684,0.5319415,-1.2838293,-1.0976549999999998
1.3884838,8.248973,0.30120972,0.472321,-1.1842757,-1.2797103
1.7582442999999999,8.969992,0.38325423,0.27590165,-0.7467041999999999,-1.2914214
1.9619716,9.703968,0.39386532,0.10447541,-0.23034856,-1.1817799
2.1403396,10.045256,0.49580088,-0.034435347000000005,-0.05735152,-1.0540218000000001
2.3883026000000003,10.30361,0.9429994,-0.13397147,-0.18298031,-0.9427396
2.4272895,10.935784,1.6145538000000001,-0.16112879,-0.63119835,-0.8991064000000001
2.2176437,12.116863,2.3289835,-0.12918927,-1.1970515,-0.91134113
2.1718569,13.774579999999998,2.5725217000000002,-0.11163126,-1.5776729999999999,-0.95392716
2.464486,14.508660999999998,3.0289043999999996,-0.08234464,-1.6889203000000002,-1.0108947
2.738689,12.965368,4.0654883,-0.08288568,-1.6750797,-0.98373735
1.6874334,10.421577000000001,4.0439506000000005,-0.1004437,-1.6010951999999998,-0.8570614
0.6371161999999999,8.476403,3.7850127000000002,-0.108960904,-1.4115874,-0.7053399
-0.06864655,7.913094999999999,3.3503309999999997,-0.08447394,-1.1044268999999998,-0.5568124
-0.54466176,8.756209,2.4456964,-0.044558257000000004,-0.6354569,-0.44291220000000003
-1.1238574,10.144366,1.8361707999999999,0.026232297999999998,-0.21437879,-0.34974653
-1.1083047,10.881110000000001,1.6858148999999998,0.123115525,0.054419365,-0.26349235
-0.6207878000000001,10.737822999999999,1.6884293999999997,0.20242329,0.1662077,-0.20868902
0.37976828,10.039692,1.5331126,0.24342106,0.2290221,-0.1794024
1.3241564,8.809915,1.5187378999999999,0.29824185,0.37222636,-0.09475392
1.8074787,7.944708,1.4980904,0.3552094,0.6032556,0.040439277999999995
2.391501,7.4402113,1.5958312,0.38021997,0.8236382999999999,0.19427260000000002
2.8776200000000003,7.1515474,1.6479099,0.3695909,0.91839224,0.3172485
3.3965678,7.121773200000001,1.6335063,0.39299577,0.8268323000000001,0.433278
