accx,accy,accz,gyrx,gyry,gyrz
-0.6075143,6.097716,0.7693719,-0.15404277,-0.60091686,-0.38679987
-0.28269777,6.835992,0.4563157,-0.17268288,-0.658408,-0.65455085
0.28035143,7.922183500000001,-0.21782447,-0.09335766,-1.032083,-0.65242153
0.94134265,8.772902,-0.34040758,-0.08058185,-1.4510318000000002,-0.72694707
0.50097233,8.61815,-0.087666094,-0.010314896,-1.5777253,-0.94094193
0.52478987,8.371997,0.075359896,0.22334978,-0.9793915000000001,-0.8387353999999999
1.2056625,9.191972999999999,0.6710659999999999,0.3915646,-0.078173295,-0.5092346999999999
2.2488257999999997,10.015951,0.34688154,0.38784707,0.33756414,-0.3782652
3.4189775,10.746260000000001,0.51145893,0.34739032,0.1773429,-0.5869368
4.1807547,10.609263,0.7413789000000001,0.21537364,-0.19207348,-0.8531169
3.925696,10.266098,1.3083738,-0.024155356,-0.5088157999999999,-1.0500599
2.4541526,10.095727,2.0109763,-0.29510027,-0.75900877,-1.1820766000000003
1.3498988,11.961288,2.336655,-0.5048365,-0.95277524,-1.2917356000000002
2.2742617000000003,13.019458,2.2425625,-0.6267477,-1.0533934999999999,-1.3646729
3.0312605,11.621733,3.6874727999999997,-0.6932796999999999,-1.1827398999999998,-1.3864895000000002
1.9041278000000001,11.18777,4.458099,-0.74705327,-1.300375,-1.3774488
0.8847437,11.409013,3.4231532,-0.78005743,-1.4302624,-1.3130287
1.51801,11.72815,2.5516636000000004,-0.7103141,-1.5319453,-1.2060399
1.9382881999999997,11.845303999999999,1.9800335,-0.6246184,-1.5601498,-1.1032925
1.284154,11.300038,1.2316539,-0.5522222,-1.4664606000000002,-1.0687
0.38166448,10.129800999999999,0.5556654999999999,-0.46544442,-1.144936,-0.97820467
0.10322839999999998,8.810941,0.4255167,-0.3371627,-0.7803018,-0.8350004000000001
0.25965598,7.512765400000001,0.7747158000000001,-0.14179055,-0.4928286,-0.67423815
0.38808092,6.499204,1.0961709,0.028536132999999998,-0.3129201,-0.5166698000000001
0.36996162,6.1263695,1.1181113999999999,0.13711306,-0.19954349,-0.38360593
0.4861666,6.2661242,1.0564941,0.21910863,-0.16545722,-0.31864476
0.5763130999999999,6.656579499999999,1.0241725,0.31332150000000003,-0.15906931,-0.28883454
0.85978657,7.898911999999999,1.1766831,0.2893756,-0.06857399,-0.19620991
1.3428693999999999,9.021054,0.8874731,0.051417399999999995,0.063425265,-0.070598565
1.9075084,9.615832000000001,0.73898476,-0.16255997,0.58669245,0.09229301
2.2040064,9.532112,1.000173,0.10571459,1.2877737,0.33981562
2.1549443999999998,9.20653,1.4394228,0.40381682,1.4916457,0.51389474
1.8280113999999998,9.358283,1.6956407,0.4554611,1.1323347,0.6538876
1.4258813,9.821925,1.4230559999999999,0.39158207,0.7086037,0.70127326
1.1812418,10.456858,1.1115608000000001,0.44533822,0.774071,0.7332128000000001
1.027352,10.828438,1.3910023999999999,0.57150805,1.1472398000000001,0.81571454
0.5269255,10.479880999999999,1.9535919999999998,0.58641315,1.5943931,0.8167791999999999
-0.5496991999999999,10.369173,2.0075285,0.44162065,1.9734088,0.75981164
-1.3749613,11.298985,1.0429046,0.24572489999999997,2.221996,0.67572165
-2.3641975,10.619127,1.7056676,0.054628804,2.3124914,0.5453107
-3.2159781,9.322455999999999,3.1951196,-0.09707521,2.27097,0.47717303
-3.353817,10.001097999999999,2.3439137999999997,-0.15030776,2.0921087,0.57831484
-3.247878,11.525869,0.82282966,-0.09440486,1.7535671999999998,0.7981564999999999
-2.1049726000000004,11.899681,0.61763704,0.002443461,1.3921094999999999,0.9243089
-0.7896173000000001,11.552608,1.7391002,0.022148227000000003,0.92844534,0.9690416999999999
0.43125317,11.342741,2.2588048,0.015219271000000001,0.47596875,0.9530545
1.2330139,10.9716015,1.7563672,0.019495327,0.08098327,0.875876
1.2546575,9.74961,1.0470610999999999,0.033859387000000005,-0.2096315,0.71511376
0.9104957,8.150705,0.5801151,0.040788345,-0.38371062,0.5069832000000001
0.19864212,6.9446306,0.30065426,0.017889624,-0.5002986,0.32597515
-0.81209403,6.0371809999999995,0.25599763,-0.07524114,-0.6919358,0.1402023
-1.786448,5.7721715,0.30669725,-0.22696261,-1.0757337,-0.07164577
-2.1321323,6.4548154,0.17450857,-0.33236304,-1.5447211,-0.3010693
-1.8157147,7.6334715,-0.24053109,-0.17905332,-2.0972748,-0.27818802
-1.4295683000000001,8.584592,-0.70118505,0.0104370685,-2.3325452999999996,-0.21856758
-0.8825985000000001,8.86207,-0.5840703,0.06525786,-1.7672331000000001,-0.5608615
-0.33365595,9.10556,-0.25466645,0.2478542,-0.46781805,-0.7189535
0.34995568,9.718428999999999,0.026326641,0.33196163,0.7458665,-0.41552799999999995
0.5762364000000001,10.504589,0.10643663,0.14405948,0.86297804,-0.28244662
0.57366025,11.241686999999999,0.21306479999999997,-0.010838495,0.10868165,-0.38571775
0.64720064,11.491105000000001,0.27511293,-0.066723935,-0.6988473000000001,-0.43415064
0.5964722,11.306455,0.40043503,-0.14391986,-1.1087378,-0.44907323
0.1451365,10.658316000000001,1.0737803,-0.25675538,-1.2370195,-0.5267753000000001
-0.46402502,11.554724,1.7800601999999999,-0.34833282,-1.2583126,-0.6609213
1.1370159,13.770184,1.7384106,-0.43137556,-1.2503364,-0.75673985
3.9247956,11.956116999999999,3.3496702000000003,-0.49684290000000003,-1.1752698000000001,-0.7844208
2.4904485,10.144491,5.208088,-0.56550413,-1.0453824,-0.76899207
-0.23904668,10.422984,4.1619269999999995,-0.6043725999999999,-0.8830319,-0.73331755
-1.2729780000000002,11.771044999999999,2.3052619,-0.56072193,-0.72172856,-0.65559804
-1.6558970000000002,12.48987,2.1191845000000002,-0.47822022,-0.59718186,-0.56512016
-1.7574685,12.379124000000001,1.6375095,-0.4154058,-0.58119464,-0.500159
-0.9177071,11.595578,0.92916095,-0.35257396,-0.58013,-0.4474675
0.103123054,10.330817,0.60600114,-0.24612632,-0.5386261,-0.37561232
0.77890086,8.778253999999999,0.5660563,-0.091751955,-0.36880553,-0.28829348
0.93013775,7.438200500000001,0.50979257,0.03600614,-0.06538004,-0.22814944
0.9788167,6.4849825,0.45488873,0.13234831,0.28061405,-0.19460422
1.108956,5.7413625999999995,0.44864467,0.24253096,0.5419946,-0.1270076
1.163266,5.5348387,0.77697587,0.35859534,0.6905045999999999,-0.017872171
1.1663401000000002,6.0089383000000005,1.0705049999999998,0.45441392,0.6921103,0.08484045400000001
1.1927434,7.253090400000001,1.0209738000000002,0.49858820000000004,0.5148372,0.17694148
1.3862811000000002,8.539878,0.87869114,0.5049760999999999,0.4131718,0.29883528
1.5343098999999998,9.198475,0.8773313,0.45441392,0.85126686,0.44736278
1.6515203999999999,9.5150175,1.0532764,0.46877798,1.6955349999999998,0.62248915
1.9287019,9.662998,1.1866813,0.5001939000000001,2.5030813,0.8742878000000001
2.2219724999999997,9.901297999999999,1.1366711999999999,0.42406264,2.9981441,1.1479031000000002
2.2726528999999998,10.002036,1.1809256000000001,0.31866223,3.1360075000000003,1.369874
1.6700418999999997,10.111423,1.2592448,0.20528562,2.912431,1.4619751
0.91967034,10.327753,1.2712157,0.11107276,2.4003513,1.4241886000000001
0.35868973,10.404607,1.2704496,0.06686357,1.7370564,1.3570982
0.06791872,10.600844,1.1940267,0.048781954,1.2068603,1.2756611
-0.107672036,11.928363000000001,0.67173636,0.020018926,0.9183399,1.1580085
-0.50572246,12.453258,0.37787208,-0.026808257999999998,0.8683013,1.0893472
-1.110019,11.552741000000001,1.3718297,-0.13058554,0.9785014000000001,1.0627309999999999
-1.827274,10.863000999999999,1.6832675,-0.25090852,1.0056412000000001,1.0733774999999999
-2.1825542,10.7759,1.3021777,-0.33979815,0.9375036,1.087759
-2.3936367,11.5483265,1.1464204,-0.30946434,0.65962976,1.1106403
-2.2841067,12.579661999999999,0.9940916999999999,-0.19607028,-0.22560126,1.1830366
-2.113429,12.898628,1.21681,-0.11143927,-0.8452280999999999,1.1633492
-1.6595839,12.210322999999999,1.5191306,-0.011885692,-1.1278841,1.0531491000000002
-0.7488776,10.914849,1.6361495000000001,-0.011362093500000002,-1.1678171999999998,0.81679666
-0.13656527,9.236025999999999,1.6207213,-0.016144296000000002,-1.0192896999999999,0.47610837
0.045882482,7.5331926,1.3821534,0.023230333,-0.6796661,0.24136159
-0.14216769,6.1965485000000005,0.9027194,0.079656824,-0.23357742,0.06888814
-0.32444304,5.3871837,0.6314276,0.048240899999999996,-0.15746361,-0.15840608
-0.24779029,5.3236989999999995,0.47361138,-0.079499744,-0.5098630000000001,-0.50548226
-0.037148435,6.2890797,0.4533469,-0.23013912,-0.9570164000000001,-0.8030434000000001
0.03010948,7.346799400000001,-0.21398418,-0.19819959,-1.3892646,-0.8552113000000001
0.9807511999999999,8.817642999999999,-0.24884374,-0.1609368,-1.6783259999999998,-0.8514938
2.4013364,9.687774000000001,-0.58477896,-0.15613715,-1.7331468999999997,-1.2092165000000001
3.7210684,9.333,-0.7048913,0.05623451,-1.257789,-1.3156816
4.433602,9.069753,-0.17668252,0.2909813,-0.46888270000000004,-0.9244311
4.331158599999999,9.506685000000001,0.5775198,0.20795599,-0.09358455,-0.57468456
3.975476,10.124658,0.86895156,-0.028920105,-0.36985272,-0.67902035
3.7633786,10.536661,0.64261335,-0.23333307,-0.93094116,-1.0468485
3.8487462999999997,10.840744,0.6075718000000001,-0.43935174,-1.519152,-1.2970414
3.1325352000000004,10.705739999999999,0.9622200999999999,-0.62673026,-1.8859328999999998,-1.3428388999999998
2.2053757000000003,12.300384,1.5057517,-0.76672316,-1.9503356,-1.33591
2.686141,14.230185999999998,1.2142912000000001,-0.8918109000000001,-1.8225775000000002,-1.2981061
3.9369294999999997,11.685007,2.6598144,-0.97858864,-1.5936776000000001,-1.2331623999999999
1.963523,9.552491,4.780196,-0.9780476,-1.4004347,-1.1266973
-0.47610137,9.709684,4.346433599999999,-0.8875697,-1.2700236999999999,-1.0096030999999999
-0.797614,10.643702000000001,2.3218967999999998,-0.78162825,-1.187522,-0.8903448
0.31006828,11.471482,1.52231,-0.663452,-1.0326065999999998,-0.810496
0.7252994,11.836943,1.3059891000000001,-0.57402134,-0.7903898,-0.72213
0.077620015,11.198341000000001,0.9673533000000001,-0.46647415,-0.42786747,-0.6358933000000001
0.08254249400000001,10.318482000000001,0.72603685,-0.34829790000000005,-0.01160644,-0.5405983
0.8333450000000001,9.296465,0.6832668000000001,-0.21097539999999998,0.2955366,-0.40327579999999996
1.4098401000000003,8.06935,0.50402737,-0.08693485,0.31309462,-0.27232373
1.5083950000000002,7.3954687,0.6031856,0.023230333,0.24017476,-0.16479398
1.5846167,7.062492999999999,0.8769865,0.13929473,0.13531537,-0.06895796
1.783527,7.313289999999999,0.99584424,0.2569299,0.17416641,0.038013272
1.9582080000000002,7.755642999999999,0.92093444,0.38362336,0.36206856,0.16735962
2.2386456000000003,8.333134,0.76336724,0.5017996,0.6766816,0.37337828
2.4332464,8.661408,0.84149486,0.5752605,1.1286171999999999,0.62622416
2.7063386,8.556752000000001,1.201985,0.59655356,1.6263502,0.8034972
2.5562508,8.156959,1.4439813,0.54171526,2.0245295,0.96319485
1.8973091,8.212313,1.5456583000000002,0.4150393,2.281634,1.0957526000000002
1.5697343000000001,8.36764,1.3880048999999999,0.27876398,2.4738119999999997,1.1814482
1.2177773,8.873582,1.2541691000000001,0.20956168,2.54195,1.2522563
1.1174313999999999,9.343813,1.2410201,0.21273819,2.4583662,1.3549863000000002
0.939207,9.681434,1.3615155,0.25213027,2.3045327999999996,1.4774212
0.7978629,9.783704,1.5503031,0.22870794,2.136318,1.5088197
0.2809069,10.745752,1.4336958,0.12437216,1.9526569,1.3959666000000002
-0.58326584,11.594123,0.9288065999999999,0.035482544,1.7280155,1.2357453999999999
-1.1452041000000002,11.239597999999999,1.0469844000000001,-0.0251851,1.498051,1.1500324
-1.2868258999999997,10.84334,1.0391409,-0.07309439,1.3623167,1.1553556
-0.9816226999999998,10.71205,0.9680523999999999,-0.14229669,1.2510694,1.1878362
-0.794128,10.996798,0.94605446,-0.16891296,0.9353918,1.2453273999999999
-0.8764981,11.668171000000001,1.1432313,-0.14070845,0.2625324,1.2916484
-1.1279563,12.19795,1.3008273000000001,-0.11622147,0.18800686,1.2341572
-0.9310284,12.463476,1.3212066999999998,-0.12419763,0.13638003,1.1117223999999999
-0.16429970000000002,12.124161,1.0208205,-0.14761995,0.29180159999999994,0.9163502
0.65508235,10.987624,1.0250535,-0.11142181599999999,0.44193482,0.7534586
0.8601888000000001,9.598096,1.3011336000000002,-0.015603243000000001,0.6149319000000001,0.6656337
0.6090849,8.426594,1.4124066000000002,0.036547195,0.7368431,0.5596922
0.29995516,7.766723,1.1918144,0.00034906584,0.629837,0.35582027
0.25077826,7.494358999999999,0.8281448,-0.056059975,0.12041026,-0.0040142573
-0.096476756,7.4338045,0.6603783000000001,-0.04701917,-0.5822593,-0.38302997
0.38547605,7.586373,0.22142535,0.08604473,-1.2332846000000002,-0.5358161
1.2064958000000001,8.061191,0.35244566,0.19146262,-1.6117591999999998,-0.5746671
2.195416,7.8850255,0.08986875400000001,0.13130112,-1.6703150000000002,-0.8701164
2.7639716,7.5423865,0.39340565,0.27557003,-1.2992928999999998,-1.0218204
2.7540214,7.6228123,0.841198,0.56833154,-0.48377037,-0.6683738
2.5058097999999998,8.413436,1.0940353,0.67587876,0.2364572,-0.21429153
2.3131819,9.298256,0.9109649999999999,0.5779134,0.3886848,-0.27869418
2.4305456000000003,9.459942,0.63520086,0.39639917,0.019792033,-0.85573494
3.120775,9.542043,0.7502661999999999,0.1552645,-0.47312385,-1.3673084
2.9982493,10.286946,1.2913653999999999,-0.1470789,-0.91973615,-1.5738332
2.2383869,12.196648,1.787578,-0.43134066,-1.3631719,-1.6446412000000001
2.4002733,13.799517999999999,1.3992002000000001,-0.58571506,-1.7299354,-1.6419883000000002
3.4236989999999996,11.169314,2.2562189999999998,-0.6251071,-1.9029499,-1.5754389
2.0152667,9.276268,4.2929664,-0.6618463000000001,-1.9045381999999997,-1.5190125
-0.18213171,9.836999,4.6987166,-0.6873979,-1.9263723000000001,-1.4732323999999999
-0.6241492,11.498394000000001,3.18923,-0.6426826,-2.0158028999999997,-1.3955129
1.2661592,12.578188,2.1812136000000004,-0.5271593000000001,-2.0594535,-1.2901125
2.2815976000000004,12.672404,1.8196028000000002,-0.43772858,-1.9971628000000001,-1.187906
0.9931148999999999,12.031323,1.482959,-0.36053267,-1.8566289,-1.0803763000000002
-0.2140991,10.959487,1.0296504000000002,-0.28815386,-1.5420333000000002,-0.94092447
-0.38000768,9.486191999999999,1.0513898000000002,-0.25460863,-1.1316017,-0.77960366
-0.10699209,8.461501,1.3394696000000001,-0.19657643,-0.90643674,-0.61086524
0.35557726,8.134665,1.3025223,-0.13110913,-0.8718269000000001,-0.46979028
0.7746583,8.253589,0.8352700000000001,-0.06455973,-0.9154776,-0.3846182
1.1190499,8.260073,0.6153960999999999,0.024853487999999996,-1.0272659,-0.29518753
1.2836177,8.124608,0.78246343,0.11854276,-1.1188258999999998,-0.22120303
1.5760359,8.257008,1.0575093,0.19943877,-1.0650697,-0.17648770000000003
1.7557831000000002,8.192259,0.9111853000000001,0.22926645,-0.9713805,-0.08758062
1.7867066000000003,8.309374,1.0377045,0.25000095,-0.62378067,0.06569419
2.0149984,8.122875,1.1944768,0.25905922,0.33599332,0.25254914
1.9384797999999999,7.9421515,1.2893926000000002,0.31602678,1.2036837,0.47825512
1.3759861,8.60298,1.2488636,0.38416442,1.8701552,0.7710341
1.1965549,9.155877,1.0240864,0.40652209999999994,2.3050737,1.0409318
1.1379066999999998,9.6821995,1.0434889,0.41769218,2.511616,1.2698143
1.1297567,10.243984,1.0896491000000001,0.47572440000000005,2.4461312,1.4646628000000002
1.3594372,10.546994999999999,1.0622499,0.5635668,2.2449124,1.6195608
1.705543,10.455325,1.0195947,0.5630258,2.0468872,1.6674701
1.7768903000000003,10.194827,0.7845225,0.46455428,1.9505451,1.510984
1.4460499,10.78404,0.255921,0.29260445,1.8637673,1.2128642
0.6125517,10.6623955,0.36968390000000007,0.07754498,1.7796773000000001,0.94137824
-0.18582836,9.971228,1.1945535,-0.13430308,1.5507598999999999,0.8381071
-0.7818888,9.957274,1.3459148,-0.31635840000000004,1.2574573999999998,0.85727084
-1.0241054,10.43983,1.1910386999999998,-0.42388812,0.8603426,0.9286023999999999
-1.2541499,11.4210415,1.1638023000000002,-0.44251078,0.46268678,1.0116452
-1.4422575,12.690553,1.4520928999999998,-0.42121777,0.08953539,1.0260267
-1.2705071000000001,13.595235999999998,1.6403058999999998,-0.36213836,-0.6104638000000001,0.9594773000000001
-0.30225359999999996,13.1355095,1.4345865,-0.28176597,-0.7211875,0.71089005
0.8197363000000001,11.834663,1.4038163000000001,-0.18114772,-0.8079478,0.5235115
1.2393825,9.595366499999999,1.1617146,-0.042743113,-0.8042303000000001,0.43673372
0.6940408,7.864167699999999,1.3450817,0.07382743,-0.61152846,0.34677947
-0.04853525400000001,6.359814,1.0179763000000002,0.09138544,-0.42200315,0.15833627
-0.74091923,5.576785,0.781659,-0.010803588000000001,-0.43851396,-0.16158257
-0.860591,5.8285694,0.5254601999999999,-0.11355112,-0.70947635,-0.51878166
-0.37928942,7.076973,0.24581747,-0.09011135,-1.1065911,-0.67207396
0.48764142,8.428336999999999,-0.08030152,0.015271631,-1.4616434999999999,-0.6050009
1.4841657,9.244394999999999,-0.68123657,-0.0022863813,-1.7608104,-0.7263710999999999
2.6750224,9.6117525,-0.13826995,0.0418879,-1.7474935,-0.99253386
2.8230894,9.166679,0.00707726,0.22553144,-1.2673534,-0.9015148999999999
2.723117,9.327914999999999,0.43428904,0.29794514,-0.63599795,-0.5666734999999999
2.880761,10.124236,0.65437365,0.16432275,-0.2905275,-0.3713188
3.232383,10.5516205,0.46311525,0.07702138,-0.30489156,-0.45647340000000003
3.4524769999999996,10.59351,0.51145893,0.044540804,-0.5401794,-0.71040136
2.8853865,10.592523,1.165507,-0.029967302,-0.9942617,-0.95314175
1.7024977,10.972321,2.068552,-0.17741272,-1.3903118,-1.0941993
1.2471780000000001,12.649669,1.8135598999999998,-0.35892695,-1.6293171999999998,-1.1644663
2.6923277000000003,11.962275,1.9519736,-0.56175166,-1.7139657,-1.1517079
3.012078,9.701239,3.4165065,-0.7358308000000001,-1.7389936000000001,-1.1240268999999998
1.475489,9.061891000000001,4.188656,-0.8555953000000002,-1.7554870999999999,-1.0654712
0.40071273,10.102507000000001,2.7470974999999997,-0.9264033000000002,-1.7592046000000001,-0.98562235
0.45949520000000005,10.927452,1.4541901000000002,-0.9216037,-1.6687093000000002,-0.92759013
1.0824378000000001,11.699085,1.4709687,-0.87156504,-1.4680313,-0.91109675
1.2733322,11.851395,1.4651653,-0.7949102,-1.1858989,-0.87381655
0.8164706,11.420821,1.177363,-0.6975034000000001,-0.8244412,-0.77801543
0.4079241,10.449139,0.89661896,-0.57505107,-0.44064328,-0.66675067
0.5093616,9.208089999999999,0.8398189,-0.43345252,-0.23355997,-0.55655056
0.69578373,7.983618700000001,0.7372896,-0.27003735,-0.17022195,-0.43252748
0.79825556,7.287298700000001,0.8468292,-0.11140437,-0.0983493,-0.34468508
0.92225605,7.0096,0.8456991,0.09351474,-0.03874631,-0.2542072
1.307148,7.2915220000000005,0.8064055,0.30539772,0.11934561,-0.10461503
1.8426543000000002,7.984222,0.7916380000000001,0.46935394,0.36369172,0.040160026
2.4417026,8.425723,0.64808166,0.5577025,0.40573668,0.16365953
2.6240067000000002,8.539659,0.6046316999999999,0.6040234999999999,0.56384605,0.33026865
2.5525252999999997,8.556685,0.55311805,0.5901831,1.1882551000000001,0.5144707000000001
2.3403802000000002,8.573024,0.5931491,0.6114761,1.8499268,0.67043334
1.9613874,8.753958,0.6271468000000001,0.5987003000000001,2.4030216,0.87325805
1.9515042,8.862932,0.69408864,0.49651125,2.7969425,1.0648952
1.9840461999999999,9.224791999999999,0.8316020000000001,0.34424874,2.878397,1.2006295
1.7139229,9.652741,1.0791336999999999,0.19997983,2.7485096,1.2911248
1.3361657,9.906527,1.279902,0.1552645,2.4573188,1.3363637
1.1016201,9.922108999999999,1.4929379999999999,0.14144148,2.1885033,1.3145471000000002
0.8445499,10.273079,1.5148401000000002,0.08075638,1.9170173,1.2682436000000001
0.40487868,11.602292,1.1232445,-0.039531708,1.6354084,1.1804011
-0.22743000000000002,11.705003,1.1781579,-0.18486528,1.3900151,1.0600955
-0.71757096,11.124381,1.9272462,-0.2817485,1.0828546000000001,0.9696002
-1.1376193,10.820891,1.8239506,-0.30675906,0.87205374,0.9802466999999999
-1.3207280000000001,11.036322,1.5861107,-0.30410618,0.81988585,1.0286796
-1.4135271,11.462288000000001,1.2693579,-0.27960175,0.85023713,1.0281559999999998
-1.2974945,11.989195,1.3887901000000002,-0.24288002,0.62240183,1.0137919
-0.9754553,12.299866999999999,1.7810370999999998,-0.20669934,0.20186478,0.96905917
-0.41738597,11.611753,1.7036756000000002,-0.13428563,0.20718804,0.89029247
0.06306327,10.689899,1.5207298999999999,-0.10608111,0.12201597,0.8178962
0.5444223000000001,9.437407499999999,1.222805,-0.07733554,0.18376571,0.73963565
0.7515590999999999,8.372053999999999,1.1026639999999999,-0.032079153,0.21197024,0.62838835
0.6562986,7.650087400000001,1.0873411,0.0056897732,0.0011693706,0.37074283
0.55205506,7.6018205000000005,0.96081233,-0.032620203,-0.43744934,0.027384216
0.8075929000000001,8.055158,0.74265265,-0.12576842,-0.8931199000000001,-0.31009266
1.1573188,8.436649000000001,0.5116505,-0.16835445,-1.1789698999999998,-0.51822317
0.93744487,8.242604,0.33365595,-0.029408797999999996,-1.4275746,-0.53951615
0.97488064,7.894918400000001,0.39873993,0.07756243,-1.6687093000000002,-0.6401344
1.3129419,7.996586,0.8395412,0.22074924,-1.8119136000000002,-0.9307841
1.4871056999999999,7.659032300000001,0.7457651,0.4677657,-1.462167,-0.93610734
1.5503414,7.958000999999999,0.9194979,0.50715774,-0.8515985,-0.7481876999999999
1.7930943,9.109467500000001,1.062518,0.4092099,-0.5460437,-0.6789854000000001
2.1733892000000004,10.1694,1.0031705,0.27291712,-0.6509031,-0.82164866
2.1891717999999996,10.090009,0.9441965,0.08075638,-0.8989666999999999,-1.0223441
1.9393417000000002,9.463101,1.1932606000000001,-0.16249016,-1.0858041999999999,-1.1910825
1.381349,9.39071,1.9046162,-0.39299577,-1.2215559999999999,-1.3215108999999998
1.0681875,11.630132000000001,2.5170052000000003,-0.56440455,-1.3115276000000002,-1.4146591
2.2569373,12.785669,2.5958319,-0.6527706,-1.3700835,-1.4545923
2.8213847000000003,11.329956,3.921597,-0.70174456,-1.4222513,-1.43117
1.7275316000000003,11.183200999999999,4.3046117,-0.75017744,-1.4089345,-1.3699438999999998
1.1795561,11.084158,3.263086,-0.782658,-1.4057405,-1.3060646999999999
1.4579921999999998,11.236744999999999,2.70178,-0.7405956,-1.4147987,-1.2459208000000002
1.8049311999999997,11.487428,2.1180928,-0.6703461,-1.3605016,-1.1634016
1.5480716,11.482333,1.3692919,-0.5761156999999999,-1.222097,-1.0303202
1.347811,10.900743499999999,0.92977387,-0.48403215,-1.0208780000000002,-0.8631700000000001
1.1389313,9.765824,0.85008526,-0.42174137,-0.8803440999999999,-0.70879567
1.115267,8.657797,1.0673639,-0.34189254,-0.8153829,-0.58529615
0.9938906,7.772364,1.3010763,-0.24446827,-0.9053546,-0.5288696999999999
0.96592635,7.4080143,1.2873048,-0.107145764,-0.9756216000000001,-0.45434412
1.0720756999999999,7.6091275,1.1479814,0.06372197,-0.89736104,-0.33403856
1.1702571000000002,7.957416499999999,1.0941502,0.22076669999999998,-0.69881237,-0.21692698
1.4633361,8.37168,1.3055868999999998,0.31764993,-0.46671850000000004,-0.14346607
1.6596031000000002,8.356012,1.3948141,0.41027454,-0.22610740000000001,-0.040735986
1.5957736999999999,8.35993,1.4325083,0.5145929,0.35836846,0.12054989
1.3811,8.454511,1.2228338,0.57529545,1.1355636,0.28344148
1.3004441999999998,8.713247,1.0553257,0.5657135999999999,1.8786898999999997,0.45219734
1.3965954,9.122091000000001,1.0690111,0.49225265,2.5025752,0.6315823
1.5028596,9.551561999999999,1.0906833,0.42570326,2.9231124,0.83599526
1.3650494,10.013347,1.3026181000000001,0.4134685,3.0844157,1.0963111
1.3526951999999999,10.443067999999998,1.4545733,0.4619014,3.0146723,1.3789672
1.6071701999999999,10.727881,1.3954365,0.45818383,2.8874552,1.6360716999999998
1.8361803,10.693271000000001,1.3048686999999999,0.3554363,2.6979299,1.6669465
1.6250117,11.304722,1.244142,0.2378011,2.4115562,1.4721153999999999
0.888086,11.577114,1.0226018,0.15688765,2.0974844,1.2874072
0.22588813,10.453133,1.2461628999999999,0.03817035,1.8377095,1.2166166
-0.033911474,9.546084,1.258153,-0.14547320000000002,1.6417964,1.1963708
-0.29182446,9.05899,1.092005,-0.284925,1.3021726999999998,1.1527201999999999
-1.0900128999999998,9.319871000000001,1.0680053999999999,-0.37435567,0.9641548000000001,1.1266450000000001
-1.8967631999999999,10.284436999999999,0.9764895,-0.4121595,0.662335,1.1069402
-2.3466241,11.621704,1.0337588,-0.42599997,0.23539256,1.0489254
-1.8816988000000001,12.91847,0.7833445,-0.3562566,-0.61416394,1.0100744000000001
-0.6732783,12.979225,0.7450946999999999,-0.24553291,-0.7094589,0.8998743
-0.0044053313,11.487294,1.0792487,-0.16728981,-0.71904075,0.7673165
-0.025914839,9.894048,1.4671763999999998,-0.13267992,-0.53166217,0.61348325
-0.33790806,8.399722,1.2148753,-0.09382889999999999,-0.18990928,0.45272094
-0.44159612,7.442137,0.8727153,-0.05550147,0.069848076,0.24033184
-0.591952,7.3084636,0.69191474,-0.046984263,-0.058957222999999996,-0.09342747
-0.550178,7.552366,0.46443683,-0.09435249999999999,-0.5141042,-0.4410447
-0.10948206,8.199317,0.26906040000000003,-0.10925761,-0.9804038,-0.6060481
0.26273009999999997,8.604013,0.047251966,-0.06667158,-1.3823183,-0.64811057
0.6246185000000001,8.671453999999999,-0.1891994,-0.094876096,-1.6681682,-0.8945685
1.2549639,9.016832,0.48950889999999997,-0.035273105,-1.6080242,-1.2006643999999997
2.048345,8.782726,0.1833288,0.17657496,-0.9830741,-1.106434
2.499968,8.876944,0.36250129999999997,0.32456142,-0.13826498,-0.67312115
2.7289016,9.5950985,0.6041433,0.3107384,0.28277823,-0.37395424
2.9323514,10.340183,0.8023640000000001,0.23034856,0.16779596,-0.45434412
3.0012564999999998,10.654074000000001,0.8242374,0.12547173,-0.24314182,-0.79555595
2.536475,10.573264,0.8949143,-0.036861353,-0.69348913,-1.1453025
1.738516,10.782229,1.4065743999999998,-0.23862141,-1.0820867,-1.3699438999999998
1.8122191000000003,12.325706,1.4311101000000002,-0.43132323,-1.2870232,-1.426894
3.2903802000000004,11.891024,1.8586953999999998,-0.56333995,-1.3200275,-1.420506
3.3447093999999997,9.885534,3.4713339999999997,-0.6527706,-1.3359972,-1.3896312
1.3495252,9.151826,4.525596599999999,-0.7054621,-1.3690014,-1.3401337
-0.1560828,9.9662,3.7662612999999996,-0.7123735999999999,-1.4227749,-1.261873
0.0027964276,10.798108000000001,2.6470392000000005,-0.64530057,-1.4669492,-1.173507
0.84277815,11.473714,2.1112165000000003,-0.5675985,-1.32748,-1.0734298
1.058036,11.678265,1.6665846000000002,-0.5212775,-1.1177437,-0.9808051999999999
0.5628576999999999,10.913795,1.1438633999999999,-0.41055379999999997,-0.85053384,-0.8424181000000001
0.18908447,9.962465,1.0585243999999998,-0.29024825,-0.5934119000000001,-0.68111473
0.07305188,8.56087,1.0598940000000001,-0.15236725,-0.37248817,-0.5639857
0.23942016,7.590692,1.0968987,-0.005986479,-0.2787989,-0.44369759999999997
0.52305645,7.24292,1.0848702,0.15049975,-0.2175902,-0.27600637
0.6462333,7.220941000000001,1.0574709,0.33416075,-0.22504276,-0.093951076
0.8929319,7.742791,1.1270465,0.508746,-0.13241813,0.052935835
1.2067063999999998,8.524909,1.1271327,0.6162932,0.13053317,0.2020044
1.7061943,8.811255000000001,0.84207904,0.63226295,0.64156556,0.41493458
2.012317,8.706102,0.7325012,0.6162757,1.4278189,0.66193354
1.8731563999999998,8.7519,0.8924339,0.68282515,2.1789215,0.925967
1.7908244999999998,8.664674,0.7896939000000001,0.6870838,2.6873009999999997,1.2320454
1.7665568999999999,8.633252,0.85818726,0.55826104,2.8155825,1.4513633999999997
1.4495358,8.725812,0.84619707,0.4049513,2.6175575,1.5104603
0.89072925,9.014266000000001,0.9105341,0.2787989,2.2715634999999996,1.5019431
0.62142944,9.312228,0.9891213,0.2425833,2.0128357,1.4502988
0.719812,9.800751,1.187275,0.18509217,1.9388514,1.3864198
0.7371268,10.6503,1.1672596000000002,0.08077384,1.8185457999999999,1.3172348999999999
0.15970284,12.031572,0.7994144,-0.026738444,1.5236375,1.2341921
-1.0498573999999998,12.221826,1.2857438,-0.16992526,1.1999837,1.1532787
-2.0643764,11.908864,2.2400057,-0.25457373,0.9183747999999999,1.1495436
-2.7835276,11.75554,2.0827065,-0.28438395,0.72834337,1.2166166
-2.605763,11.754909,1.6061838,-0.3040887,0.6037792,1.2852780000000001
-2.0233974,12.062964,1.5563653,-0.30674163,0.14810865,1.2719785
-1.4864928,12.259586,1.9032276000000001,-0.27586675,0.052290063,1.1655133999999998
-0.720377,11.974006,2.2666004,-0.20347048,-0.025411992999999997,1.0760827
-0.11472057,11.101156,2.0064943,-0.13107422,0.025150195,0.93767816
0.28409597,9.826858,1.5839465,-0.08103564,0.09007644,0.7843684
0.51194733,8.821914999999999,1.0456245000000002,-0.045378562000000004,0.13639748,0.6422288
0.49995717,7.758621000000001,0.6132221,-0.024085544,0.13372713,0.46656140000000007
0.37482664,7.37259,0.57760596,-0.056548666,-0.02115339,0.17591174
0.38109946,7.280174000000001,0.31639853,-0.15236725,-0.4629835,-0.26003662
0.7941088000000001,7.5713754,0.07435432,-0.2844014,-0.94794065,-0.66301566
1.2659293,7.587484,-0.33138624,-0.26574382,-1.2332497,-0.7843684
1.5172153,7.799648299999999,0.13364433,-0.052831117000000004,-1.4770546999999998,-0.6869616
1.8920801999999999,7.755892299999999,0.16577452,0.124424525,-1.8550231,-0.81100214
2.223495,7.8396697,0.44497675,0.32990214,-2.092423,-1.1309209999999998
2.2248262999999997,7.972672500000001,0.56812495,0.5912651999999999,-1.683597,-1.1037636999999998
2.2826128,8.432503,0.7359680000000001,0.62374574,-0.9159837,-0.84398884
2.4048798,9.343986,0.77251315,0.48481756,-0.50131094,-0.7668104
2.715992,10.258235,0.61221653,0.32457888,-0.6130993,-0.97654665
3.0173838,10.570793,0.4994209,0.08396779,-0.8462578000000002,-1.2261986
2.4512317,9.863114999999999,0.94113195,-0.20985839,-1.0160608,-1.401866
1.1757063,9.75484,2.061216,-0.5143485,-1.0229899,-1.5338826
0.8178114000000001,12.143583,2.5664024,-0.73738414,-0.96869266,-1.5908501
2.5489243999999998,12.773085,2.6161156,-0.82203263,-1.0070200999999999,-1.575404
3.3182582999999997,11.554293,3.7681190000000004,-0.81937975,-1.1848167,-1.5205832000000001
2.1944772999999995,11.565439999999999,4.195905000000001,-0.79806924,-1.3705896,-1.4215707
1.4961365,11.691902,2.8623064,-0.7421838000000001,-1.5106,-1.3055238
1.9980282999999999,11.431776,2.2586133,-0.70385635,-1.4179753000000002,-1.2001233
2.407839,11.40771,1.840327,-0.68521625,-1.1384957,-1.1197335
1.7075639,10.802188000000001,0.9316126,-0.5936563,-0.92717123,-1.0223266
1.0827346000000002,10.30361,0.37597585,-0.48719120000000005,-0.7477689000000001,-0.8360127
0.6699455,9.127941,0.39055175,-0.37594393,-0.58541834,-0.65341634
0.3626258,7.9325646999999995,0.71019685,-0.2311514,-0.5348387,-0.46019095
0.18132725,7.410839599999999,1.2348046,-0.06932448,-0.48108256,-0.24087289
0.23501483,7.321871300000001,1.29624,0.11323696400000001,-0.42678535,-0.038589227999999996
0.34929487,7.768342,1.1599620000000002,0.31232667,-0.38100538,0.10192723
0.6833052,8.611934,1.0208493,0.4970523,-0.17446311,0.18018779
1.3428790000000002,9.054191000000001,0.918818,0.6120346,0.14491469,0.29197612
1.8322921000000003,8.884116,0.98347104,0.6737844,0.6032556,0.46071455
1.5090367,8.771991,1.2194818,0.6860366,1.244699,0.63585836
1.3787154,8.415014999999999,1.1551927,0.67326075,1.9202287,0.80566144
1.354649,8.350363,1.0299665,0.5966059,2.4812996,0.98984605
0.9537638,8.410275,0.83488685,0.47521824,2.9305822999999998,1.1644487
0.7281534000000001,8.806334,0.65784043,0.38154644,3.2185616,1.3518273
0.8027184,9.594522999999999,0.6030707,0.30808553,3.3005571000000002,1.5280358
1.1749783999999999,10.323061000000001,0.73020273,0.24153611,3.1967452,1.6680286
1.5616516000000003,10.543834,0.9274754000000001,0.17819811,2.8139944,1.734578
1.6069594999999999,10.953847,0.981345,0.12709488,2.3588647999999997,1.7404422999999998
1.22224,11.959824000000001,0.5841182,0.016894788,2.0479867,1.600432
0.32914525,11.810003,0.5987133000000001,-0.116692714,1.7530785,1.4237
-0.5538651,10.970568,0.8985247,-0.23273966,1.375651,1.2730431999999998
-0.77409333,10.280874,0.8189702,-0.32269390000000003,1.0158166,1.2219573000000001
-0.7916380000000001,10.0797615,0.7311892,-0.3610388,0.38765508,1.2347157
-1.2927826999999998,10.6761,0.68921405,-0.39137262,-0.16327555,1.2379097
-1.5514618999999998,11.660309,0.69821626,-0.31738812,-0.19734438,1.2512265
-1.3526281999999998,12.395845,0.7777611999999999,-0.27000242,-0.15156439,1.2533558999999999
-1.1861258999999997,12.253362,0.8602175,-0.2577502,0.13267992,1.1229448
-0.5795405,11.8902,0.93760765,-0.24390976,0.33283427,0.84187704
0.35496435,10.878707,0.9267189,-0.17737779999999997,0.4387583,0.5804965
0.64639616,9.193782,0.9882306999999999,-0.10391690599999999,0.51595426,0.38460076
0.43725786,7.8012570000000006,1.1018691,-0.11082841,0.55801666,0.23874359
0.32226914,7.112905499999999,0.9102946,-0.19334757,0.4600688,-0.007173303000000001
0.26528713,6.7893524,0.41913852,-0.24338616,0.053895768,-0.36596063
0.56957096,7.302459,0.16983510000000002,-0.21837559999999998,-0.51940995,-0.6417052
1.1670201,8.270694,0.17752527,-0.10231119999999999,-1.0618409,-0.7087781999999999
1.9438236,8.710834,-0.38366604,-0.06133087,-1.4376626000000001,-0.8642171999999999
2.8749382000000003,8.832286999999999,-0.14386279999999999,-0.09698795,-1.6452695,-1.3800318
3.3257856,8.540539,0.34238043,0.11112511,-1.4227575000000001,-1.6350243999999998
3.1230254,8.167436,1.0766149999999999,0.39645153,-0.68017226,-1.4237
2.6117485,8.293495,1.1947067,0.40071014,0.066147976,-1.0963111
2.4538363999999997,9.098264,1.0391027,0.30543262,0.49572587,-1.0196563
2.6309404,9.607894,0.9773035,0.26389378,0.67778116,-1.215552
2.785625,9.563092999999999,1.4578582,0.13508849,0.7443306,-1.4907556
2.1495907,9.597406,1.894752,-0.07623598,0.65542346,-1.8138858
1.8458433,11.326356,2.1207361000000002,-0.29607764,0.45846307,-2.0289452
3.3514898,12.85262,1.5355451,-0.43289402,0.41800636,-2.0773957
4.778185,10.411205,2.5136724,-0.5287126,0.6873630000000001,-2.0294688
3.5708847,9.034807,4.2905625999999994,-0.5675636,0.8417374,-1.9634604
1.7440035,9.608353,4.210108,-0.51487213,0.9769479999999999,-1.8415667000000002
1.1748827,10.435214,2.7302039000000002,-0.40041342,1.0929948999999999,-1.6509942
1.9593381,10.742784,2.4397585,-0.2604206,1.0376332000000001,-1.4529691999999998
2.5506964,11.19952,2.3902946,-0.11136946,0.96097827,-1.2522737
2.0690596,11.176986999999999,1.771106,0.0099832835,0.8555778,-1.0654362
1.4957535,10.370466,1.3723851,0.092484996,0.7624122,-0.8743401
0.8567794,9.583003,1.365078,0.102607906,0.75178313,-0.71836007
0.28807992,9.313607000000001,1.540506,0.053651422000000004,0.7954338000000001,-0.6188064999999999
0.26052746,9.080852499999999,1.3458669,0.0850499,0.8997696,-0.38512436
-0.09328768,8.726567999999999,1.4796261999999998,0.101543255,0.95511395,-0.05721189
-0.48244122,8.401244,1.8705994,0.04618141,1.1430336,0.19828686
-0.7601303,8.156384,2.0730627,0.020106193,1.1707145,0.255778
-0.9807321,8.099967,2.134498,0.023282692,0.9391441999999999,0.36596063
-1.153239,7.924817599999999,2.11476,-0.0347146,0.88006485,0.6315997
-1.2459043,7.8354173,2.0152857,-0.31737068,1.0067582,0.7380648
-1.2271625,8.320234,2.0775254000000003,-0.6649879,1.1691087,0.7274183000000001
-0.89939624,8.593211,1.9924066999999999,-0.9556376,1.3639573999999999,0.7359355
-0.5786498000000001,8.032106,2.5546706,-1.0780724,1.4438062,0.8626290000000001
-1.0567815,7.5741625,3.142677,-1.0876368,1.2819791999999999,0.98347557
-1.7650724999999998,8.392663,2.3604434,-0.9966179000000001,0.6884276999999999,1.042555
-2.3183342999999996,9.615325,1.5807574,-0.8704655000000001,-0.0935322,1.0265852
-1.8160595000000002,9.475886000000001,2.1540152999999997,-0.80658644,-0.6695083000000001,0.92598444
-1.6840335,9.875680000000001,2.3273458,-0.8646011999999998,-0.8728565999999999,0.68537337
-2.6492417,11.484305,0.68044174,-0.90134037,-0.7243465,0.3835361
-3.6208184,11.830067,-1.0928764,-0.9109222,-0.2665467,0.21212731
-3.9843922,10.829377000000001,-0.80128187,-0.89121747,0.24499187,0.23183209
-4.0647416,10.125011,-0.046418782,-0.84011424,0.65915847,0.31859240000000005
-4.564143700000001,10.239503,0.81114596,-0.7804938,0.8545132,0.34840262
-5.0323825,10.525858,1.1737716999999999,-0.7325845,0.8369552,0.36810738
-5.0944970000000005,10.802839,1.6444047999999998,-0.71076787,0.77838194,0.33030355
-3.9136386,10.840294,1.8192101999999999,-0.66392326,0.6282835999999999,0.26003662
-2.4300954,11.437723,1.6388406999999998,-0.5814041,0.45313984,0.26377162
-0.863828,11.121958,1.3491422,-0.44725809,0.22903955,0.29784045
0.23542663,9.89762,1.5982733,-0.28117254,-0.041364305,0.28932324
0.22920172,8.469479,1.9641073,-0.11454595599999999,-0.2926219,0.1945693
-0.33002633,7.4372525,2.2777479,0.023300145,-0.48692942,0.060423300000000006
-0.63479865,7.1577625,2.5169957000000003,0.14252359,-0.649821,-0.08009316
-0.8030344,7.1870966,2.6083007,0.23143066,-0.85849255,-0.30421090000000006
-1.1547905,7.289798299999999,2.3444022999999996,0.4230678,-1.0820693000000001,-0.48200756
-1.1780046,7.6405970000000005,2.2821627,0.72916365,-1.2433726,-0.5245936
-1.489318,7.894880000000001,2.4202027000000004,0.77707297,-1.3572727,-0.82960737
-2.0101047,8.099412,2.5973257999999997,0.6716725,-1.207698,-1.2948598
-2.1971972,8.326449,2.8637142000000004,0.6998945,-0.6753726,-1.2554677
-2.3725197000000002,8.564432,3.1499937,0.83402306,-0.07756243,-0.7439117
-2.4512603,8.594639,3.4634233,0.98520344,-0.08075638,-0.42291072
-2.6102355,8.887219,3.5741407999999995,1.1603472,-0.77757907,-0.5378930000000001
-2.248098,9.4914875,3.4706922,1.2274201999999999,-1.3450379,-0.6203947
-1.6876726999999998,9.900551,3.6936116,1.1576768999999998,-1.3594021,-0.52246433
-2.0384328000000003,10.857714,4.755105,1.0432357,-1.0804635,-0.42929864
-2.2470062,12.637938,4.9966702000000005,0.9335766,-0.963893,-0.52246433
-0.38294777,11.636614999999999,4.0025496,0.8366934000000001,-0.9979618,-0.66086894
-0.27201962,8.529544999999999,4.2385225,0.7009417,-1.1129441,-0.6821619000000001
-2.4279504000000003,6.9734955,4.3526487000000005,0.56733674,-1.1661767,-0.5794144
-4.2845674,8.13838,3.6893307999999996,0.47204176,-1.1172028,-0.42610470000000006
-3.4570167,9.705097,3.2681906,0.41509166,-1.1230495,-0.32815679999999997
-2.4845014,9.691517999999999,3.3109319999999998,0.38102284,-1.1954458000000001,-0.26747170000000003
-2.908687,9.784192,2.4395189999999998,0.35227725,-1.2013102,-0.16793558
-3.0295843999999996,10.351896,1.8078903999999998,0.31607914,-1.1230495,-0.046565384
-2.3217533,10.334025,1.7169394,0.29530972,-0.94951147,0.09342747
-1.5383034,9.328911,1.9456624,0.27881634,-0.7786436999999999,0.22437952
-1.2980788,8.288342,1.9220171999999998,0.28094566,-0.7786436999999999,0.30049333
-1.277479,7.7498584,1.6694194,0.30969122,-0.8371995000000001,0.35213763
-1.1064947,7.9944882,1.4760253,0.33046064,-0.7844906,0.40697587
-1.1095784,8.624516999999999,1.5017200000000002,0.33150783,-0.4980995,0.50597095
-0.8283938,8.822136,1.63048,0.24420647,-0.18456857,0.6092420999999999
-0.46004108,8.742485,1.9065506,0.11325441,0.09063495,0.6890909000000001
-0.04435977,8.793041,2.013198,0.017976891000000002,0.5761156999999999,0.8610406999999999
0.2202857,8.876761,1.9302917000000002,-0.03630285,1.2617508,1.2150284
0.29047412,9.203216000000001,1.8738939,-0.19280653,1.7419083999999998,1.5754215
0.56204367,9.430052,1.7553138,-0.41531855,1.6599302,1.8165561000000001
1.0044346,9.645788,1.8233953,-0.44245842,1.1414453000000002,1.8053861
1.3872483,10.009085,1.6799155,-0.26787314,0.5063724000000001,1.7340543999999998
1.5753751,10.322055,1.3557216,-0.05440191,-0.09833185,1.6100138000000002
1.4283615,10.783102,1.0544255,-0.03417355,-0.54281485,1.4013423
1.0402712,11.188785000000001,0.60156715,-0.11721631,-0.72487015,1.1618133999999998
0.14077905,11.748396000000001,0.61939913,-0.20184733,-0.7472278,0.9526007
-1.2261282,11.626387,1.0553163,-0.2881015,-0.60137063,0.8844631
-2.8386614,11.5022335,1.1747292999999999,-0.34557518,-0.3767293,0.9286548000000001
-3.498561,11.489621000000001,0.6125517,-0.30194196,-0.21916099,1.028191
-3.051956,11.716648,0.9008232,-0.17470746,-0.14941764,1.0830292
-1.755534,11.606113,2.1972642000000002,-0.07197738,-0.09300859,1.0526779
-1.4313208,11.386144,3.0120971,-0.03843215,-0.020071287,0.891392
-0.6671491,11.247931,2.6617587000000005,-0.032044247000000005,-0.029129544,0.62255895
0.56992537,9.868611999999999,1.9108698,0.031293754,-0.15048228,0.36810738
1.1803128,8.379754,1.6682031000000002,0.11486012,-0.4246386,0.14559537
1.2154788,6.905854700000001,1.6182121,0.15371114,-0.8340056,-0.07583456
1.092886,5.876405200000001,1.4488463,0.11911872,-1.2428315,-0.36063740000000005
0.95909804,5.3583765,1.3655378,-0.0059515727,-1.4706668,-0.69546133
1.0922252000000001,5.7107267,1.3067266000000002,-0.097511545,-1.5845844999999998,-1.0329556
1.6114128,7.2230476999999995,1.0518111,0.0025481808,-1.8395596,-1.2144698999999999
2.213813,9.168749,0.51846915,-0.0022340214000000002,-2.0716533999999998,-1.4971434
3.0013520000000002,10.162879,-0.048027687,0.060021874,-1.8709755000000001,-1.684522
3.4369242,9.800253,0.06574478,0.30702087,-1.0597116000000002,-1.2389743
3.0809066,9.5051155,0.5254124,0.37782887,-0.25961772,-0.61721826
2.6361597000000003,9.551352,0.84728885,0.2905275,-0.06000442,-0.56557393
2.489989,9.797265,0.7606379,0.109536864,-0.6232047,-1.1931943999999999
2.8795736,10.179867999999999,0.63627344,-0.09698795,-1.5334812,-1.7611768
3.3597447999999996,10.6125,0.66645,-0.28862509999999997,-2.2191162,-1.8655126
2.9745467,11.477238999999999,1.5927763000000001,-0.50420815,-2.4623804,-1.7824699000000002
2.1989784,13.467901000000001,2.3669363999999997,-0.6117379,-2.3479389999999998,-1.6467181
2.7104661,12.39369,3.0794412999999996,-0.6202551,-2.1653428,-1.4593396
0.7230201999999999,9.780169500000001,5.172347,-0.64156556,-2.0498369,-1.303377
-2.3742914,9.197576,5.6617312,-0.6527357,-1.9353782,-1.1974354999999999
-2.7609262,10.293650999999999,3.8335767,-0.6005678000000001,-1.7788745,-1.0478607
0.17584932,12.172025999999999,2.6485043,-0.49675559999999996,-1.5861726999999999,-0.86739373
2.1044650000000003,13.004308,1.5931976,-0.39828414,-1.3817598,-0.69120276
0.90487415,12.149071000000001,1.1448018999999998,-0.3344051,-1.3194864,-0.5384340999999999
-0.20990445,10.875729,0.66706294,-0.32002357,-1.4067878,-0.453262
-0.22290018,9.048579,0.33927754,-0.25935593,-1.4733196000000002,-0.41280526
0.33781227,7.556244400000001,0.7741507,-0.12414527,-1.3924062,-0.36435494
0.6583479999999999,6.845396000000001,0.830041,0.029147000000000003,-1.1943811000000002,-0.33028612
1.0195181,6.8141375,0.50618213,0.20109683,-0.55771995,-0.1418429
1.2050783999999999,6.7648934999999994,0.8111268,0.38102284,0.52927107,0.34522614
1.1948695,6.6343616999999995,1.1467938,0.64825016,1.6306436000000002,0.9078854
1.0447339,7.0869803,1.2150573999999998,0.8920551999999999,2.2460117000000004,1.3076531
0.8942535,8.052102,0.9929616,0.83297586,2.1560576,1.6105549
1.0703709,8.600805000000001,0.68282634,0.5848946999999999,1.7051691999999998,1.7606707
1.4615357,8.835514,0.45884398,0.37941712,1.0285923000000001,1.7047678
1.9137716,9.540549,0.7134050999999999,0.30543262,0.34934509999999996,1.5323118
2.4069675999999998,10.08432,0.724428,0.21067870000000002,-0.07384488,1.3475861999999998
2.4641316000000004,10.039414,0.9988896999999999,0.10367256,-0.015812684,1.1463671999999998
1.3859555000000001,10.035497,1.1239245,-0.009686577,0.29930650000000003,0.9350427
-0.6655880999999999,11.2604,1.5475832,-0.12095132,0.5819626,0.84507096
-2.1637168,11.90195,2.7984865,-0.21142918,0.72942543,0.8663639999999999
-2.6910732000000004,11.701805,3.487461,-0.2785022,0.7789229999999999,0.98028165
-2.9073558,11.995467999999999,2.896266,-0.27265534,0.5622753,1.1075162
-2.4359853,12.396391,2.4426794,-0.2785022,0.26204374,1.1910825
-1.4162086,12.350892,2.7785192000000003,-0.21835814,0.22211060000000002,1.0787531000000001
-0.60220873,11.982874,2.89459,-0.18854792,0.11512191599999999,0.7987499
0.58087164,10.978726,2.6743426,-0.18376571,0.08637635,0.439439
1.9807805,9.617681,2.51689,-0.11243411,0.052307516,0.12482595
2.2965088,7.9400826,2.2985198,-0.016615533999999998,0.03473205,-0.061994094000000007
1.7732223999999999,6.5137606,1.8763933000000002,-0.024068091,-0.16060519,-0.28185323
1.1395538,5.8015337,1.4400166,-0.15873769,-0.6125581999999999,-0.5852786999999999
0.80981475,5.7643566,1.0736367,-0.15502015,-1.1448836000000002,-0.7891505999999999
0.6536075,6.520388,0.5478987,0.1627694,-1.792715,-0.78169805
1.1659954,7.3519807,-0.022965182999999997,0.23942427,-2.4283116000000002,-1.0861882
2.2282262000000004,8.638442,0.0730423,0.3639884,-2.4309819,-1.5455937
3.0162058,9.4529505,-0.32694259999999997,0.6903126,-1.4935479999999999,-1.3108295
3.056725,9.883974,-0.016644489,0.75790924,-0.63543946,-0.8956156999999999
2.2814155,10.347271000000001,0.7411681999999999,0.58541834,-0.47734755,-0.8269544
1.1846031000000001,10.830162,0.98756987,0.3059562,-0.8036543,-1.1144101999999998
0.58355314,10.479775,0.8290736999999999,0.03820526,-1.3562254999999999,-1.3124353000000002
0.45990699999999995,9.201702000000001,0.9943981,-0.17844246,-1.7389588,-1.3039180000000001
-0.13845189,9.10718,2.3750672,-0.35198054,-1.9763758999999999,-1.3055062
-0.2695488,13.04815,3.354315,-0.43769366,-1.9950161,-1.3262757
2.4587781000000004,15.020273000000001,3.0551546000000003,-0.57290435,-2.1078691000000003,-1.2245928
2.8801289,12.182636,5.859866,-0.59845597,-2.2175279999999997,-1.0755591
0.48979620000000007,10.768018,6.8105080000000005,-0.6442359000000001,-2.2957711,-0.87646943
-0.11980586,10.405459,4.376859,-0.6420892,-2.1584312999999997,-0.64702845
0.9683684000000001,11.253389,2.1834927000000004,-0.6005852,-1.9236845,-0.52352893
1.5897309,11.221183,0.6572275,-0.59793234,-1.6426166000000002,-0.45219734
0.37275806,9.906630999999999,0.11292970000000001,-0.5835508,-1.2465665000000001,-0.3840597
-0.45760855,8.558409,-0.080023795,-0.49624947,-1.0160608,-0.3276332
-0.47235686,7.4564633,0.22371420000000003,-0.36157987,-0.97986275,-0.23448499
0.070016034,6.828081,0.6563178000000001,-0.26361454,-1.119873,-0.21425661
0.5044295999999999,6.411519,1.0282521999999998,-0.18856537,-1.1539419,-0.25843089999999996
0.7455257,7.1439724,1.3136985,-0.07944739,-0.7935488,-0.24991369
0.6856419,7.913746400000001,0.88444686,0.04405211,0.009704031,-0.072117
1.2724415,8.597817,0.9769013000000001,0.33203143,1.1627208999999998,0.23129103
2.1143482000000002,8.681174,0.7924233,0.7296698,2.257182,0.6156125
2.260538,9.358513,0.70387614,0.9287595,2.9529226000000004,1.0084686999999999
2.1988444,9.617661,0.82891095,0.88884383,3.013084,1.2608083
1.7060313999999999,10.239695,0.8405851000000001,0.84358746,2.528668,1.3582152
1.5704048000000002,11.004518,0.42022070000000006,0.9085485999999999,1.9516271,1.3848315
1.7415041,11.523475,-0.07060979,0.9085310999999999,1.5976393999999998,1.3401161
2.1297095,11.340251,0.10796892,0.6737844,1.6561953,1.2187459999999999
2.2522062999999997,10.904909,0.9313828000000002,0.33946654,1.8978536,0.9632298
1.440189,10.84719,1.5234784,0.11164871,1.9883488,0.69971997
-0.12600204,10.195172,3.5066434999999996,-0.09541715,1.8190694,0.5469513
-1.4188231000000002,9.680389,4.365434,-0.2833193,1.6178678,0.63212335
-2.2092736,10.35768,3.385794,-0.40523055,1.424084,0.8168314999999999
-2.4831128,11.555767999999999,2.3121762,-0.40948915,1.0546501,0.90997976
-2.386684,12.335386,2.1558254,-0.3301814,0.7059681999999999,0.8998743
-1.664813,12.325771000000001,2.3605776,-0.22104596,0.54255307,0.8498357
-0.36202246,12.096809,1.9193262,-0.12576842,0.41585959999999994,0.8083143
0.78027993,11.376529,1.2480303,-0.0315381,0.13479178,0.73750633
1.597306,9.54594,1.2183326,0.04775221,-0.2628466,0.5549274000000001
1.370125,7.878255,1.3529633,0.08340929,-0.6115109999999999,0.31909853
0.2953966,6.635051299999999,0.7355562,-0.082117744,-0.91439545,0.022060962000000003
-0.67501163,6.0087660000000005,0.21791066,-0.36264452,-1.129996,-0.30422834
-0.73084444,5.873676000000001,-0.22698948,-0.2870543,-1.3386675,-0.35798448
-0.43696097,6.106986,-0.31026940000000003,0.19093902,-1.6314465,-0.03754203
0.17948851,6.9182369999999995,-0.14131537,0.5007524,-1.9189023,-0.19563395
0.37595668,7.776203999999999,-0.23287919999999998,0.69985956,-1.4456737,-0.5730614
0.5893470999999999,8.504807000000001,-0.22886653,0.74190456,-0.20003219,-0.32286847
0.2733795,9.111182000000001,-0.15957834,0.5470734,0.21676989,-0.15200073
0.6053404,10.250153,0.21667525,0.3729943,-0.43212608,-0.29305825
1.0801489,10.9124365,0.27794766,0.17922786,-1.2162327,-0.44849727
1.2341343999999999,10.785228,-0.117200956,-0.11086331,-1.5984423,-0.56986743
0.77649707,9.761773,0.9887957,-0.4291939,-1.7006488000000002,-0.72050685
-0.93288636,10.125989,3.7044811,-0.61179024,-1.7118363,-0.91587895
-1.1314901000000002,14.245232999999999,4.6595283,-0.6692814,-1.7368468999999997,-1.0819645
2.9710702999999996,15.411419,4.404565,-0.7326194,-1.8576936000000002,-1.1474319
3.3657690000000002,13.471751999999999,5.6641164,-0.7970395,-2.0551775,-1.0734473
0.5872305999999999,12.415832,4.4129543,-0.8555953000000002,-2.1653776000000002,-0.92813116
0.1340274,12.326365,2.782273,-0.8827526,-2.0929813000000004,-0.7891855
0.35876632,12.3954525,1.7796963,-0.8066214,-1.8981503,-0.7050781
0.26163837,11.672327000000001,0.70901895,-0.66821676,-1.6617978,-0.66355675
0.5960795999999999,10.250603,-0.3907816,-0.52290064,-1.3828592,-0.556027
0.78794134,8.650729,-0.7387931999999999,-0.42495278,-1.1353366000000003,-0.379836
0.78835315,7.1824713000000004,-0.18610609,-0.39088395,-0.95061105,-0.30157545
0.7368108,6.133897,0.2876681,-0.34349826,-0.85692173,-0.3691895
0.7083293,5.5761724,0.33478600000000003,-0.26206118,-0.8398873,-0.35800195
0.5483776,5.6708584,0.3005489,-0.1603783,-0.70734704,-0.36599556
0.73924327,6.6922630000000005,0.20926279999999997,-0.03848451,-0.57585394,-0.35428438
1.2608633,7.810489,0.23478499,0.11641346,-0.25167647,-0.27869418
2.032524,8.318645,0.59747785,0.27822295,0.59576815,-0.13550736
2.545774,8.408724000000001,0.89591026,0.5816484000000001,1.8738901999999997,0.17163567
2.231961,8.960023,0.7293409000000001,0.8941322,2.9859092,0.5554336
1.882829,9.729356,0.36104563,0.9425650999999999,3.4996120000000004,0.87749916
2.30893,10.180203,0.14732002,0.8552636999999998,3.3856769,1.0930823
2.5726461,10.870116000000001,0.3526276,0.84355253,2.9124484,1.1915712
2.33291,11.211682000000001,0.59788007,0.85046405,2.4732711,1.2256225
2.265068,10.981926,0.8730696,0.6822491999999999,2.3226318,1.1734546000000001
2.1746342,10.265456,1.2548203000000002,0.38149408,2.397681,1.0094985
2.0011693999999998,10.934971,1.0903481000000002,0.14193018,2.3460367000000004,0.8226609
1.3300557,11.434659,1.507715,-0.08428195,2.0607276000000003,0.7364242
-0.1678431,10.587197999999999,3.2286862999999997,-0.27963665,1.6316735,0.7800749
-1.3808702,10.384744,3.0524921000000003,-0.37653732,1.0242814,0.9472251
-1.9067135,11.379009,1.7121702,-0.35683256,0.41104248,1.1165045
-2.099734,12.226221,1.320134,-0.29082420000000003,-0.10316641,1.2139114
-1.8010526000000002,12.626493,1.7687021,-0.27272514,-0.45663050000000005,1.1532263
-1.3089005,12.670824,1.6419339,-0.30625293,-0.7169289000000001,0.93071425
-0.43107122,11.950648,1.1609197,-0.24664994,-0.5364793000000001,0.6368706000000001
0.38133886,9.996146000000001,1.3027043,-0.13379695,-0.39009854,0.46172684
0.23798364,7.6967835000000004,1.5963771,0.01150172,-0.29321529999999996,0.36751398
-0.6059054,5.752327999999999,1.1091188,0.03440044,-0.35283577,0.26317820000000003
-1.3740706,5.019444,0.63450176,-0.2083225,-0.6594552,-0.027995082
-1.7972122,5.394979,0.061234105,-0.3946364,-1.1539768,-0.37133625
-1.3006932,6.7989297,-0.40557775,-0.22909191,-1.7086773000000002,-0.39955822
-0.3411833,8.743730000000001,-1.0020405000000001,0.03811799,-2.2069166,-0.28351128
0.76309913,9.646219,-1.6472394000000001,-0.08323475,-2.5561220000000002,-0.74183476
1.9711366999999997,9.331391,-1.4493827,-0.09599311,-2.1829705,-1.3343216
2.1606522,8.810853999999999,-0.17227718,0.012566371000000002,-0.9857794,-1.1235209
1.8033318999999999,8.610994999999999,0.49363652,-0.047560222,-0.16545722,-0.6902079000000001
1.3118597,9.437397,0.8110885,-0.1338144,-0.14097025,-0.5555383
1.1096168,11.09318,0.33772612,-0.18011798,-0.49071679999999995,-0.65561545
1.4914153,10.711495,0.06997773,-0.27380726,-0.81649995,-0.8355239999999999
1.1876007,9.119035,1.5940306999999998,-0.38666025,-0.92402965,-1.0010860000000001
0.17408718,9.787334,3.1737537000000002,-0.44947463,-1.1135375,-1.0623121000000002
1.0860482,15.132245000000001,2.5769942,-0.4750437,-1.3871528,-1.0676353
5.5252237,15.419435,1.9149783,-0.51389474,-1.9035084,-0.980334
5.0284557,11.708039,4.607908999999999,-0.56979764,-2.3698256,-0.8360825000000001
1.7937933000000001,10.184331,4.479378700000001,-0.65017,-2.5902083,-0.6646563
0.41774988,10.501667999999999,3.0996006,-0.7273485,-2.4459392999999996,-0.5140169
0.45265734,11.76548,1.9845921000000002,-0.74227107,-2.1036627,-0.42299798
0.60613525,12.140997,1.3004729,-0.6751981,-1.6799317999999999,-0.34634313
0.40850827,11.39706,0.58048856,-0.5671273,-1.2897459,-0.26862362
0.04663905,10.000005999999999,0.41044277,-0.44256315,-0.9942966000000001,-0.15042993
-0.5682302,8.481469,0.7114706000000001,-0.31799898,-0.89421946,0.012426743999999998
-0.55634546,7.329025,1.1465353,-0.1918466,-0.94958127,0.19128808
-0.5780082,6.748785000000001,1.1047517,-0.0800408,-0.97193897,0.27806586
-0.16944245,6.765554400000001,0.79524845,0.06365216,-0.95012236,0.31426397
0.5213997,7.1257953999999994,0.47819870000000003,0.21963224,-0.8447219000000001,0.36004397
1.4856405000000001,7.548947,0.42634985,0.4261745,-0.54820794,0.56180406
2.2719153999999997,7.877728,0.710781,0.6225938,0.045308746,0.73426
2.6567017999999996,8.054449,1.0051433,0.7301236,0.4940678,0.7773871
2.5351725,8.133697,1.0321691,0.73492324,0.7453254,0.8774643
1.9126128,7.9771160000000005,0.9885371999999999,0.68593186,0.9161931000000001,0.99775237
1.3056828,8.174705,0.91647166,0.64229864,0.97741926,0.98232365
1.2205257,9.045275,0.70124257,0.6092944,0.9609084999999999,0.8620181
1.6142666,9.924655,0.83909106,0.6055594,0.97529,0.70071477
1.7980455000000002,10.065703,1.2166758999999998,0.59437186,1.0450158999999999,0.5165301999999999
1.5439153,10.062714999999999,1.5203277,0.5310339,1.2244183000000002,0.3797313
1.0396199000000002,11.655327999999999,1.6683563000000001,0.45118508,1.4346781000000002,0.32436943
0.95837027,12.549045,1.8250330000000001,0.34737290000000004,1.5512487,0.30520573
0.7159142,11.668334,2.4598793999999997,0.22867304,1.5757531,0.3403392
0.30706117,10.833561999999999,2.5918862999999996,0.13976596,1.5289084,0.41966440000000005
0.517138,10.771514,2.6069887,0.107302845,1.4256372,0.46012115
1.3478302,11.597512,2.2968535,0.10463249,1.2430409,0.42444659999999995
2.0585058000000003,12.576272,1.8987647,0.13391912,1.0961192,0.31372294
2.7083497000000003,12.8856125,1.7272441000000003,0.17489944,1.0306344,0.22216296
3.0873997,11.795275,1.4518822,0.24783675,1.0258521999999999,0.15508996
2.9787126,9.887249,1.3262728000000001,0.27337092,0.9561088,0.07843509
2.7214699,8.091368,1.237132,0.24942501,0.7554309,-0.024818582000000002
2.2051172,6.867308,0.77104783,0.25316,0.38866737,-0.10307915
1.6809212,6.3751370000000005,0.28339687,0.2605951,-0.11863003,-0.14779449
1.3780451,6.741698700000001,-0.023587676000000002,0.1104968,-0.6908711,-0.3170565
1.4620816,7.4581966,-0.3720015,-0.24082053,-1.0869387,-0.6151762
1.7146218999999998,8.305016499999999,-0.66373014,-0.46493825,-1.1923392,-0.82171845
1.7844656000000003,8.793817,-0.76820356,-0.3403741,-1.1854101000000001,-0.73122317
1.654106,8.756811,-0.6056756,-0.059306286,-1.3232912000000001,-0.37775907
1.3818854,8.576644,-0.26665659999999997,-0.034278266,-1.7007011000000003,-0.45600218
1.2510086,8.245659,-0.17555244,0.08492772,-1.8071662,-1.0112263000000001
1.0647111,8.080728,0.068158135,0.383571,-0.73399824,-0.9404183
0.7915518,8.231035,0.23238121,0.42296308,0.6377782,-0.5544911
0.86185515,9.10173,-0.23620236,0.23664919,1.0487335,-0.43792057
1.5948831,9.963280000000001,-1.2560843000000002,0.03968879,0.6596123,-0.5752605
2.056849,9.484333,-1.5422969,-0.16203637,-0.047298424000000006,-0.6258227
1.6512808999999997,8.352642,0.067554794,-0.40479422,-0.6924943,-0.57419586
0.6187766,8.798767999999999,1.6109722,-0.5804616,-1.1167489,-0.539586
0.24232194,13.073528,1.3795965000000001,-0.64751714,-1.4345385,-0.4895474
3.3637385,15.279029000000001,0.7157514,-0.65498716,-1.7331816999999998,-0.38788196
5.081626,12.6670885,3.8138485,-0.65764004,-1.9237542,-0.25371853
3.3164193999999996,11.699612,5.684428700000001,-0.6986204,-1.9131078000000001,-0.11211995
1.9431245,11.349599000000001,4.6432,-0.7369653,-1.6410807,-0.015777776
1.0921199,11.752476,3.340553,-0.7263013,-1.1582704,-0.0061959187
0.09018479,12.225617,2.6998932,-0.6294181,-0.5844060000000001,-0.014695672
-1.1752753,11.744451,1.6982168000000002,-0.4926192,-0.12501794,0.03689626
-1.2343738000000002,10.504234,0.97366434,-0.39734167,0.15496778,0.14016739
-0.67771226,8.789431,0.8323298000000001,-0.33718017,0.25930357,0.23068017
-0.10179188,7.264937,0.9464758,-0.28288296,0.22949335,0.30305898
0.32828337,6.4011569999999995,0.78107476,-0.18387043,0.16613789,0.35524429999999996
0.9248322,6.552241,0.38803306,-0.04600688,0.16613789,0.38344884
1.9464765,7.224752400000001,-0.016203956999999998,0.12699015,0.15442674,0.44306928
3.226407,8.020949,-0.1394383,0.32927382,0.24918066,0.5985083000000001
4.00164,8.471634,0.16252798,0.41177553,0.7527604999999999,0.6437472
4.089430999999999,8.816025999999999,0.68054706,0.39154717,1.256864,0.57615066
3.5076108,9.169544,0.78723264,0.28562313,1.6704895,0.6618463000000001
2.9746711,9.390854,0.71086717,0.1679705,1.8482863,0.797057
2.6295424,9.596698,0.7665276,0.13711306,1.669966,0.8721235999999999
2.4418653999999997,10.015558,0.9195937,0.16318828,1.3159608,0.8848994000000001
2.2998414,10.446572,1.2144158,0.17968164,1.0609857,0.8582831
2.1295562,10.555633,1.610637,0.16744688,1.0034945,0.77150536
1.706606,10.794144000000001,1.9864117,0.14028956,1.0881254999999999,0.63470644
1.4826621000000002,12.526817,1.9605543999999997,0.14828317,1.2105603,0.51173055
1.8235103,12.593817999999999,2.0442270000000002,0.17331119,1.3037261,0.47926742
1.3474376000000001,10.697523,2.9120195,0.19139281,1.3292776000000002,0.5410172
0.5586343,9.254557,3.158728,0.16105898,1.3111786,0.6554584
0.25509740000000003,8.578234,3.0622222000000003,0.1221905,1.2478231000000002,0.69593257
0.18468872,9.194980000000001,2.5380453999999997,0.13763666,1.0865372,0.6469411999999999
0.44695914,10.56364,1.7076787,0.21162117,0.9864601000000001,0.6293831999999999
1.1856756000000002,11.463055,1.0345154,0.26804766,0.95664984,0.67676884
2.063572,11.149289999999999,0.8454309000000001,0.22652629,0.8656135,0.6549348
2.5466740000000003,9.923803,1.2171546,0.17650515,0.5920156999999999,0.5287824000000001
2.394757,8.252238,1.7297342,0.18606955,0.077248275,0.36960837
1.8624493999999998,6.887074,1.8060996999999999,0.14933038,-0.53705525,0.05073672
1.3142731,6.267685,1.4606259,-0.0758171,-1.1587938999999998,-0.44217917
1.1405402,6.288409,0.9882594000000001,-0.30897564,-1.7683151999999998,-0.96331704
1.4748569999999999,6.7864320000000005,0.7543938,-0.26532495,-2.144678,-1.1139739
1.5702227,7.372637700000001,0.63846654,-0.1929287,-2.2670953,-1.0852108
1.1520995,8.076245,0.62958884,-0.19877554,-2.0451245,-1.2949469999999998
0.63499975,8.847964,0.28332025,0.00082030473,-1.3834351999999999,-1.35085
0.52876425,9.511944,0.08752244,0.19458675,-0.49764574,-1.0421011
0.46119985,10.067293,0.49303317,0.22706734,0.16774360000000002,-0.6785142
0.42478886,11.2044325,0.95002884,0.09983283,0.22256438,-0.68704885
1.2953111000000002,12.218281,0.7455927,0.06895796,-0.106395274,-0.8919853999999999
2.455005,11.675603,0.22429839,0.037559487,-0.42633158,-0.9979269000000001
2.8563592,10.49029,0.9801287000000001,-0.03481932,-0.6429793,-0.9936683000000001
2.1685147000000002,10.769549000000001,2.1294603,-0.11360348,-0.7398625,-0.9372418
2.7880287,11.768937,1.912814,-0.18015288,-0.79841834,-0.874951
4.0708227,9.764052000000001,3.142246,-0.27117179999999996,-0.9740856999999999,-0.81852454
3.0193279,8.0421715,4.683796,-0.36220820000000004,-1.2333193999999998,-0.72057664
1.1991886,8.256912,4.2973237,-0.41170569999999995,-1.3834351999999999,-0.62421703
0.6274436999999999,10.718658999999999,2.6605616000000003,-0.44629815,-1.3440431000000002,-0.51775193
1.4496796,11.672595,1.8215374,-0.42608723,-1.1960567,-0.40811035
1.0758202,11.699861,2.0307715,-0.37018433,-0.9410815,-0.2861991
0.29350040000000005,11.329744999999999,1.6167756000000002,-0.32866296,-0.65469044,-0.14620623
-0.11772768,10.505231,1.2256206,-0.30897564,-0.4177969,0.019338248
0.011243171000000001,9.421192999999999,1.2116193000000002,-0.25254914,-0.30654964,0.16891296
0.2791256,8.356501,1.156773,-0.1263793,-0.20273745,0.286042
0.40761763,7.7961529999999994,0.9898396,0.059376102,-0.13566445,0.34566244
0.6622075,7.6239333,0.8644313,0.26911232,-0.16388641,0.3685437
1.1958559,7.937918700000001,0.92548347,0.40646973,-0.30442032,0.41273546
1.6427479,8.383365,0.9237979,0.46287876,-0.19795524,0.5159891
1.9451836,8.615085,1.1266538000000001,0.4735253,0.47436303,0.596379
2.0582762,8.499905,1.2191945,0.52675784,1.2302651000000002,0.69539154
1.9501540000000002,8.392577000000001,1.1393144,0.5863783,1.8695792000000002,0.8263436
1.7937071,8.472889,1.0922252000000001,0.51665235,2.2539182,0.97007143
1.8483044999999998,8.9455805,1.0710988000000001,0.4288274,2.3513424,1.0419440999999998
2.0283008000000002,10.042296,1.0821409,0.41976914,2.1857805,1.023304
2.1265109,10.977702,1.1963251,0.5129348,1.9989431,0.97858864
1.9807038000000001,11.194291,1.3007411,0.62311745,1.992014,0.9541016999999999
1.8497603,10.573704,1.021625,0.6422812,2.1197722000000003,0.91950923
1.9233962,10.786798,0.6471623000000001,0.5714906,2.1490588,0.8604124
2.1542835,11.068682,0.95678043,0.44052109999999994,1.9595509999999998,0.8316667999999999
1.5497476000000001,10.311683,2.0265768,0.26752406,1.660384,0.8433780000000001
0.84100646,9.754561,2.1146643,0.12060225,1.3654758,0.864671
0.62331605,9.965508999999999,1.4156052,0.039147735,1.1594571000000002,0.8976752
0.82988775,10.882767999999999,1.1449361,0.03968879,0.9428094000000001,0.8907636999999999
1.1452616000000002,11.692793,1.2631807,0.075363316,0.7516959,0.78004
1.4307941000000002,11.846117,1.6649278000000003,0.10356784,0.5637937,0.6256656
1.6678583999999999,11.241907000000001,1.8136173,0.08653343,0.31946507,0.47342056
1.7180408,10.122187,1.6106178,-0.008726646,0.08789478,0.27698374
1.4296736,8.641363,1.2098858000000001,-0.0763407,-0.09681341,0.08002335
0.83286613,7.444713,0.6832956,-0.10241592,-0.44441320000000006,-0.048781954
0.36004004,6.792675999999999,0.16918387,-0.19343483,-0.8963486999999999,-0.31866223
0.33019873,6.734659700000001,0.18171033,-0.2695661,-1.2940046,-0.6135705
0.51256984,7.215377,0.20903295,-0.14980161,-1.6203288,-0.69396037
0.9985065999999999,7.929222599999999,0.10653239999999999,-0.16151276,-1.8061015999999999,-0.8946383
1.4483197,8.60094,0.0046351743,-0.11732103,-1.7475458,-1.3215633999999998
1.5496518999999997,8.822882,-0.20968420000000002,0.10941469,-1.1023673999999999,-1.319975
1.4116978999999998,9.078679,-0.3410301,0.19673352,-0.26342255,-0.9659699
1.5903053999999999,9.847533,-0.1624035,0.049270645,-0.011641346,-0.8541815999999999
1.3231508,10.694852000000001,0.67641944,-0.043877575999999995,-0.41460297,-1.0160084999999999
1.2701527,11.034464,1.0123163,-0.08325221,-0.9437344000000001,-1.1725122
2.015056,10.621023,1.140703,-0.18598229,-1.2934635,-1.1650597
2.1665799999999997,10.070443,1.9047310000000002,-0.35260886,-1.4329503000000001,-1.0889459
2.1503189,12.252739,2.4322312000000004,-0.49687780000000004,-1.5048053999999997,-1.0836226
3.9024050000000003,13.097384,2.3451397000000003,-0.62782985,-1.6160527,-1.0905341
4.6595283,11.100036,4.357571599999999,-0.74227107,-1.7800089,-1.0426248
2.7612997999999997,10.470917,5.10666,-0.8343721,-1.8428234000000001,-0.96171135
1.3332831,11.182273,3.4809585,-0.87748176,-1.7065655,-0.9164724
1.5355643,11.755483,2.1298244,-0.8844107,-1.4654133,-0.8547226000000001
1.2899958999999999,11.977158,2.1454918,-0.85353583,-1.1960567,-0.7562337
0.5419228,11.037969,1.9398685000000002,-0.8018915,-0.96715677,-0.652439
-0.16400282,9.694075999999999,1.1710328,-0.67306876,-0.79309505,-0.5422389
-0.08883446,8.292471,0.7938024,-0.48036698,-0.58653533,-0.4272566
0.55270624,7.0478214999999995,0.8735101000000001,-0.27488935,-0.31717870000000004,-0.29523990000000006
1.0308763,6.395698,0.8828091999999998,-0.11145672,-0.030787607999999998,-0.23827235
1.4477068000000002,6.597912299999999,0.8028236999999999,0.09770353,0.31412435,-0.16002923
2.1785702999999996,6.930687,0.6808056,0.31810370000000004,0.59520966,-0.03440044
2.776958,7.5243725999999995,0.6422398,0.47141343,0.6463129,0.10133382
2.8339686,8.09402,0.54283255,0.5347514,0.9092642,0.29082420000000003
2.7864294,8.649159,0.50719726,0.6146176999999999,1.6971233000000001,0.59320253
2.9158409,8.932039,0.5746659000000001,0.8046491,2.6622205,0.95251346
3.0133805000000002,9.024723,0.7192374,0.94253016,3.3068752,1.34804
2.8795352000000003,9.403907,0.78348815,0.90526736,3.420793,1.7025686999999998
2.749894,10.082864,0.5462036,0.7913323,3.0204668,1.9058994999999999
2.8220837000000003,10.669310000000001,0.40961918,0.72853535,2.3572067999999997,1.9463737
2.3709683,11.164632000000001,1.1703625,0.6907314999999999,1.8743789,1.8430852
1.9639733,10.287014,1.8483044999999998,0.59332466,1.7444915,1.6152673
1.5528983,9.594733999999999,1.8859221999999998,0.43575636,1.6406968000000002,1.4209598
0.88332635,10.326728999999998,1.4877091999999998,0.26380652,1.5635008999999997,1.2846845
-0.34435323,10.725497,2.1237717000000003,0.09133308,1.4139261,1.2133528999999998
-1.5336299,10.410123,3.1933768,-0.03799582,1.1642742,1.2080469999999999
-2.4026005,10.596009,3.033923,-0.09815732,1.0109470999999999,1.3395053
-2.533142,11.531432,2.3200197,-0.08538151,0.9209928,1.5023968
-1.985004,12.536672,2.0339221999999997,-0.03269002,0.77352995,1.5982155
-0.8994824,13.08502,2.0402430000000003,0.031189033999999997,0.69954544,1.5332892
0.54203767,12.982252,2.1270087,0.07110471,0.68835783,1.3533632
1.8026615000000001,11.824972,1.9125074,0.124337256,0.6244788,1.1185989
2.0191262,9.925508,1.5201744,0.22708479,0.6244788,0.9179209999999999
1.6759411,8.099076,1.2489591999999998,0.28776988,0.62980205,0.7523591
1.2623188,6.5618463,0.9172379,0.1270076,0.26995006,0.42818162
0.80491143,5.383314599999999,0.5778454000000001,-0.14926055,-0.43696064,-0.08337438
0.55372137,4.930485,0.2958946,-0.31054643,-1.0911798000000001,-0.44374996
0.87869114,5.4895024,0.11001836,-0.1939759,-1.6857959999999999,-0.5507561
1.6507349999999998,6.7828693,-0.19277154,-0.06195919,-2.2655072,-0.67479664
2.3130767000000003,8.457603,-0.26501897,-0.16043067,-2.4438274,-1.1107625
2.8883936,9.462269000000001,-0.299869,-0.15884241,-2.024355,-1.5573747
3.132564,9.80734,0.0068186866,0.04448844,-1.1933863,-1.5142651000000003
3.0346217,10.412842999999999,0.61032987,0.07803367,-0.6978001,-1.276848
2.6906805,10.883936,0.5385134,0.022654373,-0.8101119999999999,-1.3173046999999998
2.79524,10.484938,0.15206054,-0.05290093,-1.1891277,-1.5728209
2.733192,9.552559,0.6612785,-0.23549728,-1.4537022,-1.7474236
1.8123341,8.806314,1.8580251,-0.52136475,-1.5351392,-1.8166259999999999
1.5124364,9.824655,2.8556507,-0.7715401999999999,-1.6091412,-1.8608003
2.8468876,13.244465,2.1860592,-0.8780228000000001,-1.7736211,-1.8522830000000001
4.999668,13.430332,1.9781085999999999,-0.92432636,-2.0318077000000003,-1.7878804
4.9924374,10.93205,3.7538974,-0.9924639999999999,-2.3144636000000003,-1.6840682
2.8123538,10.232809,4.299297,-1.1170281000000002,-2.4235990000000003,-1.5797324
1.6088653,11.097891,2.9226882,-1.2346633999999999,-2.2724187000000002,-1.4887135
2.0015526,11.538856,1.9793631999999999,-1.2980188,-1.9769694,-1.4248345
2.2159867,11.346103,1.027103,-1.2431805,-1.5457858,-1.3577614
1.5584817,10.696947999999999,-0.12252566,-1.0936059,-1.0805334,-1.1969992
1.1618487,9.594772,-0.7198406999999999,-0.9179385,-0.8543038000000001,-1.0069503
1.0218261,8.286725,-0.27656859999999994,-0.7550469,-0.8276875,-0.8174424
0.8142010000000001,7.2941270000000005,0.38177940000000005,-0.54583424,-0.86121523,-0.6055769
0.8945599,6.802836999999999,0.73815155,-0.28286552,-0.8729264000000001,-0.39531708
1.0637534,7.3369927,0.5392986999999999,0.02586578,-0.76433206,-0.18664551
1.4910896999999999,8.367064,0.29276296,0.22122048,-0.5812121,0.038519416
2.196182,8.761706,0.2669535,0.2941578,-0.055274576,0.25357887
2.820561,8.837439999999999,0.47143748,0.43362704,0.9055466000000001,0.5080304
2.822151,8.787831,0.8126781999999999,0.76473343,1.8227520000000001,0.8173201999999999
2.1853700000000003,8.716991,0.9166632,0.9739460999999999,2.246483,1.0648428
1.5460508999999998,8.837602,0.62987614,0.96914643,2.0931733,1.1558617
1.1198542999999999,8.986751,0.53342813,0.94040084,1.713093,1.1888834
0.5667363000000001,9.6014,0.74255687,1.1096803,1.515609,1.2772493
0.5116505,9.986761,1.3693302,1.2773715,1.6721127,1.3395226999999998
0.58087164,9.758555,2.1637168,1.216669,2.0133245,1.3001306000000001
0.53075624,9.941664,2.4025717,0.96595246,2.524898,1.1553381999999999
0.16801551,10.869197,2.3999382999999996,0.6534861999999999,3.0109024,1.0318386999999998
-1.0240672,10.534574000000001,3.9555275,0.4245688,3.0944688,0.9349554
-1.8758379,9.966621,5.1913767,0.22122048,2.8368232000000004,1.0094809999999999
-2.1922174,10.699793,4.298396599999999,0.032777283,2.5754602,1.2335813
-1.7394546000000002,11.440702,2.9250536,-0.07365289,2.368918,1.3384581
-0.9719597,11.473024,2.4336581,-0.12264428,2.0883737,1.3538868
-0.055037912,11.663947,2.609651,-0.16362461,1.7306683999999997,1.2623441999999998
1.0020118,12.093361,1.9961703999999998,-0.20460495,0.89118254,1.1388447
1.929784,11.848474000000001,0.87913173,-0.1316851,0.028291788,0.97488856
2.441693,10.258915,0.38955575,0.049811699999999993,-0.33475414,0.92376786
2.3323355,8.249528,0.65285087,0.10784389,-0.41619122,0.9434726000000001
1.5676371,6.735042599999999,0.75974727,-0.062482785,-0.41566762,0.7688699000000001
0.21940465,5.452047299999999,0.1131404,-0.31319934,-0.65200263,0.22589797
-0.46231076,5.394040599999999,-0.54832965,-0.37175512,-0.92935294,-0.31225684
-0.17537048,6.8856187,-0.48793828,-0.14285520000000002,-1.1124729,-0.40488148
0.08855673,8.3516655,-0.8726578000000002,0.010978121,-1.286011,-0.35219
0.31162929999999994,9.04698,-0.94723237,-0.031066861,-1.4840360000000001,-0.69978976
0.06459556,8.471969,-1.0161759,0.11955505599999999,-1.2865345,-1.0181204
0.39019743,8.57492,-0.15836208,0.30534536,-0.5199859,-0.9031380999999999
0.34588552,9.396992,0.6374514,0.22230259,0.007522369300000001,-0.6550744000000001
0.6171677,10.493219999999999,-0.11734461,0.09986774,-0.043022364,-0.66572094
1.778461,11.619606,-0.4819911,-0.019355701,-0.34218925,-0.8344768
3.2346146,11.1703205,0.14784674,-0.15350170000000002,-0.6908711,-1.0340902
2.8044434,9.789622999999999,1.9693075,-0.27434832,-0.9852384,-1.1756886999999998
1.1858098999999998,10.919772,2.986393,-0.36856118,-1.0650872,-1.2507553
1.3870473,14.312078,2.3425732000000004,-0.43563417,-1.1763518999999998,-1.3263456
3.3148199999999997,13.485282999999999,3.1186585,-0.49738392,-1.3786355,-1.3918128
3.0811749,11.831628,5.3024483,-0.56126297,-1.6959015,-1.4168408000000001
1.2753242,11.334189,5.110155000000001,-0.60226077,-1.9535470000000001,-1.3284748
0.47739425,11.216422999999999,3.4858046000000003,-0.66294587,-2.0057150000000004,-1.1772943999999999
0.88044375,11.754056,2.6275215,-0.70286155,-1.7837265,-1.1102214
1.1436144,11.863786,1.6138451999999999,-0.68423885,-1.3418964,-1.0639178
0.9477878000000001,10.923017999999999,0.85079396,-0.61875415,-0.92935294,-0.9483944999999999
0.63590956,9.513973,0.39849094,-0.536776,-0.61741024,-0.747699
0.5060672,8.050742999999999,0.23444024,-0.45799184,-0.41139156,-0.6034476
0.68880224,6.931711999999999,0.3886843,-0.36430258,-0.37573448,-0.47940704
0.72444713,6.292038400000001,0.45727336,-0.18863519,-0.33314845,-0.33726743
0.6236608,6.3161435,0.6164399,0.034924038,-0.18942058,-0.1855634
0.7690751,6.9342303,0.8269669,0.23401375,0.07407177,-0.01150172
1.3530592,7.5092893,0.71087676,0.40648717,0.34449309999999994,0.17427112
2.345427,7.810374700000001,0.77258015,0.5156225999999999,0.85978407,0.44256315
2.7191331,8.246234,0.9039165000000001,0.6093119,1.69927,0.7598291
2.2669451,8.600585,0.89083457,0.7258824,2.4764476,1.1100992
1.8667207,9.002935,0.8402403,0.72377056,2.8874204,1.4294945
1.7678976999999998,9.451963000000001,0.7535319,0.6050533,3.0045319,1.6184788
1.6981113999999997,9.940831,0.7602644000000001,0.47888345,2.884209,1.7036333
1.625548,10.493708999999999,1.10796,0.40168753,2.5786540000000002,1.6865988999999997
1.3659686000000002,10.835008,1.3505979,0.33515558,2.2550004,1.5551232
1.2099338,10.56315,1.3601843,0.22338470000000002,2.0809386,1.3895788
0.8194299,10.637314,1.3535476,0.03440044,1.9590273999999999,1.2213465000000001
-0.16373466,11.385233,1.0074801,-0.18704693,1.7886832,1.0818771999999999
-1.2741559,11.234475,1.8257225,-0.3919835,1.5598007,1.0265329
-1.8117212,10.998292,2.515473,-0.50057787,1.2313472,1.0664486
-1.9218066000000003,11.424968,2.1232545,-0.5442111,0.9353743,1.196877
-1.7991755,12.404522,1.6868299999999998,-0.55539864,0.8592605,1.324635
-1.5394526000000002,13.319538,1.6517981,-0.45479790000000003,0.49780280000000005,1.4624986999999998
-0.7336121,13.454992,1.9225535,-0.37227872,-0.12341223,1.5050846000000002
0.20587263,12.622193,1.9983157,-0.22642156,-0.17823303,1.3831909
0.7867634,11.153475,1.8289881999999997,-0.14285520000000002,-0.18301523,1.217629
1.1889606000000001,9.317936999999999,1.2143774,-0.05235988,-0.04728097,1.0414379999999999
0.94241524,7.510764,0.9214228999999999,0.063687064,0.10281735,0.8359603000000001
0.40407422,5.8985567,0.8301655000000001,0.11424925,0.028291788,0.4750437
-0.03877649,5.0875635,0.8365435999999999,-0.004974188300000001,-0.29640928,-0.055676002
0.06763141,4.9882235999999995,0.567761,-0.091751955,-0.7164053000000001,-0.49057713
0.64608014,5.677849299999999,0.43967122,0.017907077,-1.2333020000000001,-0.6497512
0.5727505,6.7207536999999995,0.1792012,-0.0039095376000000005,-1.7922436999999998,-0.84458226
1.1447445,7.859877,-0.27927884,-0.114633225,-2.0882165,-1.2523435
1.9973675,9.411415,0.2493226,0.046635196,-1.7720153000000003,-1.4535625
2.591139,9.563044999999999,-0.08507078,0.30641,-0.98630303,-1.2140161
2.9370917999999997,9.960789,0.6667852,0.39690533,-0.34271285,-0.8919504999999999
3.0342677000000005,10.944816000000001,1.0920242,0.34793139,-0.16386896,-0.9994976999999999
3.3739665,11.318866,1.1265581,0.27553514,-0.34590679999999996,-1.3316513
3.4729714,10.689527,1.13421,0.1648289,-0.6695607,-1.5823853
2.522713,9.935276,2.0702088,-0.004974188300000001,-1.053376,-1.7261131999999997
1.7417147000000002,11.254031,2.5449119,-0.17531832,-1.4249392,-1.7607056
2.5241783,12.733217,1.6825778000000002,-0.29668853,-1.6916255,-1.7628348999999999
3.748477,10.7042265,3.135504,-0.41434115,-1.9684346999999998,-1.7261131999999997
2.9525106,9.332358000000001,4.993835400000001,-0.52293557,-2.1813648,-1.6489173
1.1700846999999999,9.503994,4.841554599999999,-0.6522644000000001,-2.2468320999999998,-1.5333938999999999
0.83355564,10.835572,3.3079057,-0.6980619,-2.1073804,-1.3832957000000001
2.1810987,11.487992,2.2729880000000002,-0.7720464,-1.7879851000000002,-1.2645783000000002
2.2929174999999997,11.679998,1.6365039,-0.7677878,-1.3615837,-1.195376
1.4137761999999998,11.263216,1.0493306999999998,-0.6597344,-1.0624168,-1.1400142
0.68478954,10.166910000000001,0.69295853,-0.49151963,-0.8233940000000001,-0.9377305
0.29073268,8.853586,0.7653593000000001,-0.36960837,-0.6727546,-0.71947706
0.5473815,7.737016000000001,1.0771608,-0.27965412,-0.6764896,-0.54752725
0.48643476,6.950023,0.9943885,-0.10238101,-0.7147996,-0.387306
0.6683845,6.9268565,0.95050764,0.12224286,-0.58332396,-0.23080234
0.85904914,7.311796000000001,0.8373864,0.3117507,-0.25860542,-0.07588691
1.3637181999999999,8.224313,0.7701189,0.41928044,0.21940534,0.11465068
2.2270002,8.439954,0.5118612,0.4858124,1.0855075,0.43352234
2.5682697,8.36469,0.79535383,0.61889374,2.181557,0.8258549000000001
2.1459517000000004,8.499761,0.85819685,0.7887143,3.0556352,1.2293576000000002
1.5608472,8.868592999999999,0.6511654,0.8100073,3.4511616000000003,1.623802
1.4391258999999998,9.397299,0.18926643,0.68970174,3.46392,1.9059345
1.3132101,10.206415,0.106350444,0.5784545,3.1833932000000003,2.044339
1.365193,10.575944999999999,0.60150963,0.4943295999999999,2.6649084,2.0368865
1.407532,10.431585,1.0235116,0.37137115,2.1991322,1.8511137
1.598867,10.137346,1.1598278,0.15418239,2.0915852,1.5556643
1.4120138999999998,10.296283,0.96169335,-0.039025564,1.9734262999999999,1.3219821000000003
-0.08051222,10.783014999999999,0.96183705,-0.19128808,1.8238342,1.2064588
-1.4696664,10.72384,2.1004523999999996,-0.3147876,1.5805527,1.1745193
-2.2211297,10.809438,2.6432562,-0.42870522,1.2574398999999998,1.2186936000000002
-2.5674942,11.616675,2.079891,-0.47607344,0.86193085,1.3241114999999999
-2.462197,12.772271,1.5166407,-0.47980845,0.30935959999999996,1.4742273000000001
-2.0870830000000002,13.601326,1.5237273999999998,-0.41006509999999996,-0.5024105,1.5572700000000002
-1.1845264,13.671810999999998,1.7015686999999997,-0.33232814,-0.6775368,1.4635806999999998
0.13931382,12.917839,1.6579943,-0.26207864,-0.65039694,1.2320105
1.3166481,11.20496,1.607084,-0.14655529,-0.3980747,0.9674535
1.3767042,8.786002,1.5907459,0.03600614,-0.037681658,0.73907715
0.81735176,6.839123700000001,1.3376788,0.15098843,0.2247286,0.47610837
0.23383690000000001,5.647443,0.98952353,0.06794567,0.13583897,0.10454522
-0.11074619,4.9208317,0.48540044,-0.12473868,-0.25434682,-0.32023302
-0.030885202999999996,5.1019764,0.0064260372999999996,-0.16465436,-0.76377356,-0.562956
-0.003083732,5.7493596,-0.46464753,-0.0023038345,-1.3535901000000001,-0.5975658
0.9055540999999999,7.031981,-0.7803565,0.078592174,-1.8433293999999998,-0.74183476
2.0810306,8.705413,-0.47794970000000003,0.18240435,-1.8710103999999999,-1.0229025999999999
3.1248546000000004,9.338335,-0.5427941999999999,0.42833869999999996,-1.2285024,-1.0308787
3.664479,9.257497,0.32319808,0.55555576,-0.333131,-0.76899207
3.7703983999999995,10.054115,0.97476566,0.45441392,0.11880456,-0.74661696
3.7809234,11.00877,0.9691537,0.32026792,-0.059515726,-1.0915638
3.5308154000000003,10.747304,0.6487329000000001,0.14727089,-0.45130724,-1.4588683999999998
3.0133229999999998,9.827959,1.1250737,-0.08319984400000001,-0.77016145,-1.6691281999999998
2.0133321,9.800511,2.2978302999999998,-0.31477013,-1.0118371,-1.7729404
1.7747355,12.526359,2.7764599999999997,-0.52185345,-1.155565,-1.774546
3.0011606,13.078939,2.7086754,-0.6474821999999999,-1.1875045,-1.791563
3.7952309,11.285271,4.0687733,-0.7390422,-1.3386850000000001,-1.7750697
2.835233,10.944842999999999,4.9133806,-0.79758054,-1.6916080000000002,-1.6872272000000001
1.776287,11.556429,3.4499873999999995,-0.8375136999999999,-1.9678936000000002,-1.5568162
2.3659692000000003,11.707541,2.3916638,-0.87210613,-1.9849279999999998,-1.4498101
2.8603047999999998,11.767999,1.8398386000000002,-0.93652624,-1.8018081000000001,-1.4093533999999999
2.031346,11.033689,1.1137155,-0.83484334,-1.3770124,-1.3364334999999998
1.0148925,9.80326,0.56868994,-0.6458765000000001,-0.9713805,-1.2209101999999998
0.5187469,8.467880000000001,0.39881653,-0.45476300000000003,-0.54923767,-1.0026567
0.22178927,7.3011084,0.5473719,-0.28708920000000004,-0.37358773,-0.79719657
0.525307,6.5087714000000005,0.9665200999999999,-0.12739158,-0.33258995,-0.62098813
0.44404778,6.0702586,0.94223326,0.030159289,-0.38528144,-0.46022588
0.32639673,6.867327,0.82149845,0.19146262,-0.1409528,-0.27656487
0.5015278000000001,8.368894000000001,0.55102074,0.40756929999999997,0.3695211,0.04066617
1.3598108,9.196378,0.16580325,0.60135317,1.3442177,0.47240826
2.3197036,9.03631,0.19985838,0.8110894000000001,2.4227090000000002,0.8780228000000001
2.5675516,9.004286,1.1750934,0.8829446,3.0875747000000002,1.2660793
2.324157,8.871447,1.3764553,0.7440164,3.2776237,1.567393
1.7201574,8.970911,1.2716371000000002,0.5161811,3.1094089,1.764877
1.5712571000000002,9.4859705,1.0293535,0.35807174,2.7926838,1.8623011999999999
1.182228,10.1237955,0.77407414,0.26172957,2.4322908,1.8979582999999998
1.0301101000000001,10.497272500000001,0.59874195,0.123848565,2.1443114,1.8442022
0.9118078000000002,10.371624,0.8672851999999999,-0.016667895,1.9015712,1.7542304
0.20414878,11.05649,1.0478941,-0.17423622,1.703546,1.6238195
-1.2612079999999999,11.475093,1.2193669,-0.29295352,1.6391259999999999,1.4880677
-2.0179195,11.033897999999999,2.0944380000000002,-0.3605501,1.6098568000000002,1.4119538999999999
-2.2972748,10.920126,1.8773509999999998,-0.42549380000000003,1.4650468,1.4076953
-2.0416987,11.144328999999999,1.2260516000000001,-0.4734031,1.1664208999999999,1.430053
-2.101209,11.478799,0.9304251,-0.4606273,0.26518533,1.5157486
-1.8110412,11.95198,1.0801967,-0.43826962,-0.4113741,1.553535
-1.2391622,12.161645,1.0960943,-0.3440393,-0.6290865,1.5540935
-0.5424111999999999,12.047882000000001,0.9859131,-0.32806954,-0.73129296,1.5125722
0.09905291,11.1756735,0.76431537,-0.28921852,-0.63973296,1.2975127
0.80296737,9.698078,0.75065887,-0.17210692,-0.46780059999999996,0.9823586
0.78475225,8.040936,0.93456227,-0.06990044,-0.31342623,0.63634706
0.56210107,6.6375985,0.93413126,-0.120480075,-0.38688713,0.20676915
0.052203175,6.011074,0.6374035,-0.26099652,-0.6690195999999999,-0.23291420000000002
-0.08842266,6.097131299999999,0.40538624,-0.25460863,-1.1113733000000001,-0.46446702
-0.6836211999999999,6.36215,0.015926229,-0.07628834,-1.7352587,-0.47991318
-0.31680077,7.257917,-0.07165367,0.010471975,-2.1515372000000004,-0.6374814999999999
0.36011666,8.485788000000001,-0.07171113,0.08073893,-2.1259856,-0.9898809000000001
1.4846828,8.853433,-0.50896895,0.2888869,-1.4605788,-1.0947403
2.6691613,9.076313,0.09086475,0.40706313,-0.5577548999999999,-0.9254608
3.3516622000000003,10.066018,0.76232344,0.38789943,-0.18086848,-0.8376359
3.4171101999999998,10.756008999999999,0.9940150999999999,0.31922072,-0.39114574,-1.0478957
3.3852766000000005,10.055273,0.8634832,0.14142403,-0.7717497,-1.4002951000000001
2.871433,8.896758,1.3379853000000002,-0.094911,-1.0352421,-1.6824275000000002
1.8055824,8.988628,2.4575906,-0.3701145,-1.1960043,-1.8479896
1.5177995000000002,11.898149,2.8750722,-0.6096784000000001,-1.3472022,-1.8879226000000002
3.1663606,13.304273,2.6225605,-0.78267545,-1.4824128,-1.8948342
4.494271,12.037175,3.4814373999999995,-0.8827526,-1.6516924,-1.8863168999999997
3.7163181000000005,11.683963,4.274263400000001,-0.9636661,-1.9189023,-1.7894337
2.643601,12.175952,3.1166472,-0.9897413,-2.0573243999999997,-1.6638049
2.638688,12.543606,2.2490652,-1.0094459999999998,-1.8997560000000002,-1.5546868999999999
3.060556,12.336497999999999,1.4638053,-0.96686006,-1.5223285,-1.4726914
2.729907,11.148246,0.7850205,-0.7592357,-1.1789698999999998,-1.367291
1.9150741000000002,9.630044,0.34728375,-0.5324825,-0.99745566,-1.1224213
1.1975127,8.085784,0.11532391,-0.37224382,-0.98520344,-0.8850041
0.7174176999999999,6.9028377999999995,0.25143906,-0.21574014,-0.9793565999999999,-0.6710093
0.73433995,6.356251,0.6464249,-0.041678462,-0.95221674,-0.5033354999999999
0.7650528,6.374064,0.6970765999999999,0.13344787,-0.76855576,-0.35109043
0.62697434,7.2328644,0.36394740000000003,0.31550318,-0.46513024,-0.19991001
1.0874943000000001,8.533816,0.17020859,0.4507138,0.21090558,0.009285152
1.9790376,8.750894,0.09159258,0.57793087,1.2973729999999999,0.3244218
2.4551580000000004,8.124808999999999,0.6035974000000001,0.73178166,2.1719925,0.65818113
2.0594542000000002,8.242902,1.1430684,0.78873175,2.6228807,1.0036690000000001
1.2345270000000002,8.5108795,0.88873726,0.73604023,2.7117703,1.3007066
1.1101147,8.909849000000001,0.61501294,0.6444803000000001,2.605829,1.5455763
1.1142901,9.866572,0.44005427,0.57101935,2.4072802,1.7148558
1.3310422,10.638950999999999,0.44799343,0.5635668,2.136859,1.7893814
1.4408591999999998,10.928362,0.7131465,0.55876714,1.9840727999999999,1.765959
1.6966941000000002,11.090843,1.0783962999999999,0.44219659999999994,2.1458998,1.6216902
1.3743197,11.4885,1.0718267,0.27769932,2.2278778999999997,1.4433698999999998
-0.111933716,10.970825999999999,1.8896859000000001,0.07969173,2.1879623,1.3784261
-1.1592053999999998,10.088199000000001,2.5464346,-0.12098622,2.3114617,1.4231415
-1.7293702000000002,10.003664,2.1738873,-0.2125462,2.3093324,1.5173718
-2.099418,10.625161,1.4130673,-0.27429596,2.1182363,1.6408539
-2.0566673,11.585839,0.8838627,-0.32274628,1.7067400000000001,1.7015388999999999
-1.3234572,12.356330999999999,0.9643461,-0.36105627,1.176544,1.6280955
-0.3750373,12.445971,1.307081,-0.29239499999999996,-0.1585108,1.592962
0.78018415,11.717147,1.2245193,-0.19816469,-0.76962036,1.5312122
1.7817456999999999,10.379621499999999,0.87343353,-0.07201228,-0.95061105,1.4625336000000002
1.9411709,8.846919999999999,0.5999391,-0.122050874,-0.85105747,1.2187284999999999
1.2147126,7.303244,0.09348878,-0.20509364,-0.5795715,0.74282956
0.61393076,6.427062,0.13927549,-0.26843163,-0.477365,0.18549359
0.24108653,6.2630787,0.35397795,-0.22958061,-0.6674139,-0.15358898
-0.09474335,6.581592999999999,0.12006443,0.06904522,-1.1087029,-0.125367
0.32089964,7.0566607,-0.059548582999999995,0.32189107,-1.4328978,-0.031154128
0.63008684,7.451292,-0.27176106,0.2910162,-1.5766257,-0.44158575
0.52515376,7.8791839999999995,-0.5623405,0.3815115,-1.2742649,-0.81951934
1.0138774,9.422142,0.19288646,0.50181705,-0.48642325,-0.7577696
1.9260968999999997,10.476951,-0.33827198,0.36819467,-0.11379547,-0.70348984
3.3775485,10.356895,-0.45735955,0.20265017,-0.25698227,-0.92971945
4.5047,9.95693,0.31547916,0.023788838,-0.5375265,-1.2496383
4.2807755,9.07797,1.2281871000000002,-0.21361084,-0.65570277,-1.4684328000000002
2.7409015,8.261499,2.5778465,-0.47390926,-0.59234726,-1.5631866
1.7245339,10.53353,3.5090567999999998,-0.69163907,-0.46245990000000003,-1.5972555
2.8642982999999997,14.630506500000001,2.7067982999999995,-0.80236274,-0.37357026,-1.6419708999999998
5.7035728,13.451526000000001,2.6519232,-0.80768603,-0.45661303,-1.6941388
5.32978,12.304367,4.643075,-0.77946407,-0.67539006,-1.7058499
3.5160766000000003,12.40727,4.179462,-0.74539524,-0.89631385,-1.6983973999999997
3.2128656,12.450673,2.6476424,-0.7384837,-1.3184391000000002,-1.6866862
3.588688,11.95875,1.9005365,-0.712391,-1.7773037,-1.5844797
3.337651,10.897449,1.0333374,-0.6213721,-2.1717656,-1.4694973999999998
2.495419,9.663506,0.27566838,-0.5047841,-2.3990598,-1.3646206
1.7960534,8.273614,0.04647624,-0.43825218,-2.3096292000000003,-1.2831834999999998
1.3131909,6.8478765,0.34400848,-0.37224382,-1.9364776999999997,-1.2203691
1.0545022,5.749072,0.86545604,-0.27694884,-1.4414151000000002,-1.0947403
0.8911505999999999,5.14354,1.0757148,-0.17420131,-0.9841388000000001,-0.9520771
0.70837724,5.2063065,0.8708286,-0.047525316,-0.5561491999999999,-0.7481876999999999
0.7333248,6.4282684,0.61142164,0.11056661,-0.2175902,-0.49054223
0.49141467,7.9442580000000005,0.1491013,0.2910162,0.11295771,-0.20256291
0.28579107,9.14109,0.066223614,0.39856339,0.6255958,0.09765117
0.702047,9.74238,0.3820763,0.5523967,1.3868212,0.40001202
1.5994895,9.790283,0.58185804,0.63543946,1.9452218000000001,0.7476292
2.6042113,9.66455,0.71758056,0.56784284,2.1374,1.0611776000000002
2.9439678,10.0359955,0.89683926,0.45818383,1.918623,1.2272631999999999
3.089727,10.551084,1.0047123,0.40280452,1.4837044,1.2794136
2.5878257999999996,10.662271,1.0782048999999998,0.40973350000000003,1.0966951,1.2634438000000001
1.7119691000000004,10.930546000000001,1.2652686000000002,0.3682121,1.011523,1.204888
0.9506609,11.440549,1.3445166000000002,0.24204226,1.3064313,1.056378
-0.02992752,12.386766,1.0916793,0.022724187000000003,1.7865887999999999,0.830672
-1.1890755,11.576798,1.5607705,-0.17421876,1.8483386000000002,0.6922674
-1.7388033999999999,10.446678,2.7251666,-0.31314698,1.787671,0.70397854
-1.9497421000000001,10.132415,2.7672852999999997,-0.42439425,1.6444666000000001,0.8663291
-2.2275367000000004,10.577679,2.1415465,-0.42013565,1.4730579,1.0930997
-2.239929,11.381441,1.7219480999999999,-0.33656928,1.4256722,1.2767433000000001
-1.6216216,11.987941000000001,1.6190646,-0.24607398,1.4283426000000001,1.363521
-0.5676844,12.159097000000001,1.5752122,-0.20614083,1.3793687,1.3156117
0.67054886,11.541105,1.2724799,-0.16355479999999997,0.9354091999999998,1.1985176000000002
1.9624409999999999,10.197977,0.8158769,-0.056042522000000004,0.09539969999999999,1.098423
2.4237556000000002,8.4274845,0.65586764,0.04668756,-0.32192597,1.0111216
1.6535601999999998,6.674861999999999,0.4387614,0.041364305,-0.7259696999999999,0.8753873
0.91938305,5.793499,0.24421816,-0.039008107,-0.9846799,0.59803706
0.03829765,5.3023715,-0.054961298,-0.22158699999999998,-1.313116,0.09499827
-0.23306118,5.608465,-0.006435614,-0.25511476,-1.6820087,-0.28612927
0.06313031,6.7932505999999995,-0.03307829,-0.09276425,-1.9929042000000001,-0.3281917
0.48113877,8.267284,-0.22900061,-0.17685421,-2.1483257,-0.60871845
0.8854045,9.156701,-0.49639463,-0.13322099,-1.956706,-1.0840938
0.503424,9.114917,-0.2022909,0.18774506,-1.0230073,-1.0106329
0.21593784,9.339895,0.3594463,0.39056978,0.015009831999999999,-0.46446702
0.5298177,10.29953,0.80041033,0.31817353,0.37327355,-0.26218337
1.0308187,10.831617,0.44506294,0.17444566,0.11136946,-0.5613501999999999
2.0141175,11.404071,0.47532564,0.072239175,-0.28998646,-0.8727519
2.8789987999999997,11.043447500000001,0.71040756,-0.08478809,-0.6200281999999999,-1.0782295
2.2376497000000004,10.974025,2.1152102999999998,-0.26364943,-0.83030546,-1.1442378999999998
1.7200807,13.215572,2.215259,-0.38501963,-0.79463094,-1.1362617
3.9015720000000003,12.65824,1.9080733,-0.46165705,-0.68338364,-1.1277443999999999
4.4623995,10.309892999999999,4.432165599999999,-0.5303357,-0.62961006,-1.1330677
2.1168096000000003,9.7888565,5.7126703,-0.5702514,-0.8106007,-1.1027163999999998
0.34772426,11.337273,4.0521674,-0.56438714,-1.0751578000000002,-1.0345788
1.8176875,12.783821000000001,2.2886941000000003,-0.52927107,-1.2886289,-0.94940674
2.7404318,12.751346,1.7035894,-0.49946088,-1.2934111000000001,-0.8541118000000001
2.0176895,11.890037,1.3598298999999998,-0.49839622,-1.1225435,-0.7865151999999999
1.2803806999999998,10.494561000000001,0.71507144,-0.39512509999999995,-0.9372941999999999,-0.7162482
0.82931316,8.734124000000001,0.47215572,-0.24233897,-0.8292234,-0.6065891999999999
0.8594130999999999,7.198751400000001,0.73376536,-0.11831587,-0.6886895000000001,-0.47883108
1.0406253,6.0639386,0.75593567,-0.027279496,-0.47630036,-0.35266122
0.94481903,5.435125,0.65134734,0.043493606,-0.24207717,-0.25418976
0.77028173,5.475453,0.6838605999999999,0.11323696400000001,-0.100478604,-0.1839228
0.7044412,6.259496700000001,0.72757876,0.18935077,-0.058957222999999996,-0.11152654
0.8407382999999999,7.4980080000000005,0.66069436,0.2942276,0.08848819,0.019408062
1.3838965,8.463819500000001,0.51912034,0.38419932,0.6490180999999999,0.26694809999999997
2.0312886000000003,8.701783,0.7872231,0.49438196,1.5869756000000002,0.5767439999999999
2.1677675,8.926397999999999,1.2720106000000002,0.64076275,2.464789,0.9275551999999999
2.040195,9.440472,1.315949,0.6860191,2.9502697,1.2884718000000002
2.026232,9.76549,1.0672297,0.6311809,2.9811444,1.5381236999999999
1.9957682,10.176095,0.80987227,0.57529545,2.634592,1.6265073
1.9268248,10.904565,0.84645563,0.5321683,2.1320767000000003,1.6020028999999998
1.7885166000000001,10.831541,1.0393516999999999,0.46455428,1.5944281,1.4428462
1.6529856,10.312429,1.1937969,0.33255503,1.3059077,1.1995822
1.3258802,10.498948,1.2430024,0.13398893,1.3224186000000002,0.89029247
0.21015345,11.131698,0.94536495,-0.07944739,1.2606688,0.65554565
-0.94854444,10.790332000000001,1.8019048999999998,-0.27907816,1.0951068000000002,0.55918604
-1.6769563000000003,10.614741,2.3453407000000004,-0.38606682,0.8970818000000002,0.6076189000000001
-1.9115113999999997,11.447396000000001,2.0411623,-0.42174137,0.75495964,0.8003382
-1.8397813000000003,12.588741,1.645736,-0.43823472,0.71769685,1.0164623
-1.541569,13.307203,1.5325572,-0.4254589,0.5835508,1.075018
-0.8631575999999999,13.586348000000001,1.65628,-0.39139009999999996,0.34559265,0.92010266
0.027313054,13.015062,1.7474416000000002,-0.32431707,-0.41774455,0.78382736
1.1057190000000001,11.672125999999999,1.8079956999999998,-0.19549432,-0.58009505,0.7151487
1.6804136000000003,9.632285000000001,1.7033403999999999,-0.08264134,-0.57531285,0.69546133
1.3334363,7.333085499999999,1.2683618,-0.022497293999999998,-0.50769883,0.6129595999999999
0.5402756,5.8157744000000005,0.9756372,-0.013439035,-0.60086447,0.30421090000000006
-0.24402662,5.210740599999999,0.90108174,-0.12842132,-0.8579863999999999,-0.15730652
-0.65117496,5.592539,0.42869616,-0.21465804,-1.1667352,-0.4996005
-0.14434163,6.802233,-0.113446854,-0.14545573,-1.4722725,-0.5810376
0.969259,7.871149000000001,-0.53395486,-0.13109168,-1.7868855,-0.6827204000000001
1.7087609000000001,8.075681,-0.6135573000000001,-0.11510447,-1.9886281000000003,-1.0265852
1.5252118000000001,7.905721000000001,-0.56362385,0.13824753,-1.6122828000000002,-1.1021929
1.3217430000000001,8.931579,0.41186973,0.38950512,-0.7578918,-0.72528905
1.5036544,9.580455,0.33306220000000003,0.35437164,-0.17819811,-0.42346925
2.145971,10.012025,0.3965181,0.22076669999999998,-0.20214403,-0.55335665
3.0602112,10.614445,0.24791479,0.06904522,-0.57157785,-0.8828573000000001
3.4550724,10.493394,0.23893175,-0.12948598,-0.9367530999999999,-1.1522139999999998
2.6804044,10.2637415,1.010152,-0.36957347,-1.2982107,-1.268261
1.8817849999999998,12.225397000000001,1.7604468999999998,-0.61336106,-1.6340994,-1.2554851999999999
2.7777624,13.629357,1.9580548,-0.7693411,-1.9513653999999998,-1.2155695
3.6876836,11.397933,3.7395226999999998,-0.8752652,-2.2404268,-1.1522139999999998
2.4393467999999996,10.3314495,5.5169687000000005,-0.9561786,-2.3660555,-1.0883348999999998
0.63159996,11.063989999999999,4.569142299999999,-1.0216634,-2.3101528,-1.0255206000000001
0.72979105,11.731626499999999,2.708589,-0.9945235,-2.0402725,-0.9339780000000001
1.6751081,12.323847,1.9037638,-0.87952375,-1.6447459999999998,-0.81630796
1.331272,12.645273,1.2554811000000001,-0.75602424,-1.3354735,-0.6454401999999999
0.4782657,11.79515,0.85317856,-0.6245486,-1.2258146,-0.45380306
-0.33138624,10.162218,0.5708352,-0.5026374,-1.1667176000000001,-0.23928463
-0.42176260000000004,8.67314,0.6246089,-0.41107740000000004,-1.1241317,-0.016231561000000002
-0.074565016,7.7648363,0.6368768,-0.31899384,-1.1746938,0.15995942
0.517454,7.469948,0.5055692,-0.1678134,-1.3285446,0.22649138
1.2026075,7.4737306,0.27630046,-0.0027925267,-1.3743246,0.2568252
1.6752421000000002,7.668389,0.30364224,0.10897836,-1.3077927,0.31592205
2.0842292000000002,7.763611,0.63628304,0.22982496,-1.2066508999999999,0.42771038
2.0673356,7.4010525,0.9806937,0.47150070000000005,-0.7722733,0.5687679
1.753207,6.965068,1.1509406999999998,0.649821,-0.2287603,0.6007074
1.3550799,6.7857614,1.299994,0.75363314,0.14650294,0.64489913
0.9164525,6.883579300000001,1.1876581,0.8393288000000001,0.4046895,0.78543305
0.63086253,7.5526814,1.0679002,0.86648613,0.5718397,0.85782933
0.9272935,8.263617,1.1502798,0.85210466,0.6948156,0.82269585
1.4161032,9.025461,1.2807829,0.8664687,0.8427846,0.7369826999999999
1.6909671999999998,9.528961,1.3468533999999999,0.93195343,0.98918283,0.6613925
1.7679073,9.609368,1.1700943000000001,0.96017545,1.1100119,0.56930894
1.9844772000000002,10.528866,1.387641,0.8925614,1.2425697,0.49050733
2.1710045,12.537438,1.8871672,0.7397927,1.3745865,0.47242573
1.7800698,11.98703,2.3175392,0.5646489,1.3735218,0.48200756
1.2503574,10.595664,2.8128900000000003,0.41772709999999996,1.2782267,0.52724653
1.1787803999999997,10.552405,2.7858262000000003,0.31445596,1.2920673,0.6102893
1.6074479,11.708067,2.3070720000000002,0.19467403,1.357011,0.63903487
2.1164455,13.068978999999999,1.9332794999999998,0.03551745,1.3479701000000002,0.5517335
2.406211,13.466455999999999,2.1645691000000005,-0.08796459400000001,1.2489576,0.40428805
2.5061355,12.800915,2.354046,-0.079970986,0.8145800999999999,0.3111224
2.5718036,11.0931225,2.0323038,-0.024085544,0.5308419,0.19933406
2.3671472000000002,9.044097,1.4702889,-0.005986479,0.25563836,0.10723303
2.09983,7.303761,0.85775626,-0.023020892999999997,0.02300344,-0.019966567
1.8740183000000001,6.4100633,0.36783558,-0.03312635,-0.26761132,-0.20093976
1.4597161,6.1040173,-0.097731315,-0.11032226,-0.57744217,-0.41866958
1.4476014,6.8132277000000006,-0.5447095999999999,-0.31525883,-0.8175121999999999,-0.66141
1.8979316000000002,8.13724,-1.0328586,-0.5739864,-0.88938487,-0.8871334000000001
2.2068027999999997,9.165282000000001,-1.414887,-0.7267551,-0.83135265,-0.9685705
2.0667515,9.121008,-1.0184934,-0.6596820999999999,-0.92930055,-0.8322951999999999
1.6257683,8.561685,-0.5540374,-0.49412015,-1.3343915000000002,-0.67631507
1.5152806,8.580541,-0.2641475,-0.44729298,-1.86087,-0.98293453
1.6921643,8.65818,-0.3638995,-0.25298548,-1.7288533,-1.4141181999999999
2.0444088,8.788367,-0.37898296,-0.013439035,-0.6578146,-1.2709312
2.2826512,9.008749,-0.3977152,0.0376293,0.6841516,-0.95579463
2.5467603,9.489073,-0.7981119000000001,-0.022479841,1.4161078,-0.80674356
2.7653797000000004,9.717251,-1.035406,-0.07093018,1.3985323,-0.83335984
2.5503707,9.247689999999999,-0.47917554,-0.15662585,1.1275874,-0.9238550999999999
1.6350768999999998,8.643624,0.7152246999999999,-0.28918362,0.7778409000000001,-0.90840894
0.8788731,9.696017999999999,1.6206733999999998,-0.43184683,0.43449970000000004,-0.8487885000000001
1.5268207,13.45031,1.4261111000000002,-0.5340533000000001,0.069848076,-0.78757983
4.7802725,13.947988,1.6858723000000002,-0.54789376,-0.25750586,-0.6874852
5.5671797,11.817434,4.214025,-0.5010491,-0.41667992,-0.55335665
4.1589103,11.287645,5.0066013,-0.44514623,-0.44807836,-0.43090433
3.6103892,10.589678999999999,4.463635,-0.394043,-0.47363,-0.30742228
2.5801067000000004,10.450192,3.7585137000000004,-0.3349636,-0.52314496,-0.19083429999999998
1.4774235,10.612634,3.1284556,-0.28225464,-0.5119574,-0.10246828
0.19763656,10.562068,2.3718493,-0.24925047,-0.31873202,-0.040718533
-0.86234355,9.768285,1.6681743999999998,-0.23434536,0.07410668,0.01834341
-1.0472813,8.7555,1.4088824,-0.16887806,0.40842449999999997,0.11205014
-0.64029574,7.8442855,1.4020158,-0.06133087,0.51701885,0.22809708
-0.1953477,7.319333,1.4562396,0.06000442,0.49412015,0.31963959999999997
0.20564277,7.081972,1.4216291,0.17339846,0.47760934,0.38992402
0.4414045999999999,7.072375999999999,1.3750091999999998,0.26174703,0.549482,0.42610470000000006
0.58817875,7.324352,1.3737641999999999,0.34267795,0.6463651999999999,0.43355724
0.9934788,7.7997155,1.2965847,0.43902013,0.62985444,0.47987828
1.5811309,8.31352,1.1544745,0.60510564,0.5910034000000001,0.65393996
2.2603755000000003,8.723389,1.0301675,0.71743506,0.77199405,0.78169805
2.5242355,8.836194,1.1696441,0.7445748999999999,1.1297168,0.78169805
2.0674508,8.823303999999998,1.5356793,0.75948,1.6455313000000003,0.86474085
1.544509,8.948396,1.5947969,0.7530920999999999,2.1320767000000003,1.0505311000000002
1.3849595,9.195649000000001,1.4533954,0.7291462,2.3993042,1.2283278999999998
1.4700303,9.789173,1.3029723999999998,0.699336,2.4408429,1.2916833
1.5931113000000001,10.315236,1.235542,0.60032344,2.2694167999999997,1.1825478
1.4775481000000001,10.400192,1.3403124,0.48586476,1.9596033,1.0159212
0.923185,10.24095,1.5075523000000002,0.4054749,1.6827941000000002,0.8870985
0.39428672,11.304386000000001,1.4526867,0.32882002,1.5087324,0.7944739000000001
0.5539896,12.313705,1.0359519,0.2340661,1.3841683,0.7023903
0.52762455,11.364595,1.4022456,0.12335987400000001,1.2984726,0.6629982
-0.035731066,10.103952,2.0036118000000003,0.044034656,1.1856022,0.6896145
-0.27381048,9.835744,2.1677197999999995,-0.023544492,1.0951068000000002,0.7668104
-0.10554599,10.772557,1.9984593000000002,-0.062412973,0.9875771000000001,0.8178962
0.21311268,12.471396,1.6206256,-0.06667158,0.78955203,0.788086
0.6217454000000001,13.441076999999998,1.2424757,-0.042184606,0.48773226,0.7071725
0.70248747,12.894682000000001,1.349669,-0.0033161256,0.15289085,0.57143825
0.6943664,11.5211,1.5763328,0.00996583,-0.10580186,0.41971678
0.77479243,9.9284,1.6210086000000001,0.03338815,-0.22823670000000001,0.2802475
0.7424228,8.342653,1.4077715,0.06693338,-0.28359854,0.15781267
0.48614743,6.9491130000000005,1.0943034,0.06054547,-0.42198572,0.0066497047
0.21693382,6.144958,0.7953825,0.014748032,-0.6721961,-0.20308651
0.107011236,6.214524,0.40402633,-0.07942993,-0.97347486,-0.4420919
0.47635037,7.153128,0.114586495,-0.23860396,-1.2082391000000001,-0.6843087
0.7613849,8.211106,-0.07545566,-0.38606682,-1.3673956,-0.83121306
0.9888819,9.034453,-0.2770187,-0.37754962,-1.4925008999999998,-0.7620281999999999
1.3545531000000002,9.389781,-0.29238948,-0.39617229,-1.7245947,-0.78438586
1.6979296000000001,9.327331,-0.16474979999999997,-0.39777797,-1.9700055,-1.226216
1.8977305,9.071621,0.10617805,-0.20507619,-1.6229118,-1.3768553999999997
2.0749493,9.133477000000001,0.25161144,-0.060283672,-0.7962191999999999,-1.0553308000000001
2.4549472000000003,9.626453,0.18664239999999999,-0.11138691,-0.17978637,-0.746041
2.6823007999999997,10.112055,0.16065094,-0.20240583,-0.08077384,-0.8274954999999999
2.852289,10.0493355,0.2529905,-0.19123572,-0.26017624,-1.0409667
2.7801661,9.668917,0.32719159999999997,-0.21146409,-0.35119516,-1.1543434
2.3112187,9.609262,0.9312773999999999,-0.33548720000000004,-0.23727751,-1.1261388
1.6921356,11.420917,1.5284201000000002,-0.47069785,-0.14411184,-1.0883348999999998
2.910248,13.444956,1.3611037,-0.5670575,-0.13294172,-1.0862056
4.689216,11.524605000000001,2.9142032,-0.6277425999999999,-0.26602307,-1.0409667
3.3626275000000003,10.002946000000001,4.1559606,-0.65222955,-0.38367572,-0.9350252
1.5968463,10.362525999999999,3.3567474,-0.64690626,-0.41933279999999995,-0.8291011999999999
1.6601394,11.543432000000001,1.8667878,-0.6107081999999999,-0.47788859999999994,-0.72315973
2.624907,11.8626375,1.8075361,-0.5415059,-0.5407029999999999,-0.67153287
2.2715897999999997,11.820126,2.0484886,-0.45846307,-0.5428323,-0.6315997
1.3281498999999999,11.009622,1.7159435,-0.33709288,-0.39536944,-0.5533392
0.82420874,9.534621000000001,1.3377172,-0.19123572,-0.10419615,-0.4314454000000001
0.80255556,8.0938,1.3088527,-0.051766466,0.16514306,-0.29623473
0.78488636,6.9851694,1.3321626,0.097267196,0.27160814,-0.15250687
0.45949520000000005,6.4203677,1.3132579,0.26602307,0.31951743,-0.02581342
0.43530416,6.3985715,1.2644641,0.44647267,0.52019536,0.07850491
0.49699795,6.70953,1.222173,0.6019291,0.7831816,0.18496999
0.7497682,7.500574,1.1182358000000001,0.67326075,0.81725043,0.3127281
1.2447166,8.268002000000001,1.0508056000000001,0.68814844,0.70757395,0.46336746
1.6432172999999999,8.569863,1.1208215,0.65940285,0.9811892,0.58847266
1.7641243999999998,8.750079,1.2947555,0.66154957,1.6535249,0.7258126
1.7149474999999998,8.880984,1.4181241000000002,0.6439741,2.3806814999999997,0.9435424000000001
1.4863298999999999,9.048139,1.4037110000000002,0.53803265,2.946011,1.1798948999999999
1.2650484,9.634986,1.4996418,0.43849653,3.1488357000000002,1.4056008999999998
1.170803,10.501611,1.578229,0.39111084,2.8874552,1.5802037
1.1183698,11.151081,1.8093843,0.34693655,2.2907097000000003,1.6999681
0.7676864000000001,11.129858,1.9179088,0.24631831,1.7482789,1.6893216
0.14357549,11.175377000000001,1.6819936999999998,0.17179276,1.4970212,1.4827794
-0.21353406,11.624261,1.2467183000000002,0.1010022,1.4523059,1.1921297
-0.359657,11.15901,1.0494743999999998,-0.011292281000000001,1.4427241000000002,0.9951693000000001
-0.6094297,10.175808,1.6327498,-0.15023795,1.3096427,0.90041536
-0.88610363,9.565267,1.580106,-0.28012535,0.9024049999999999,0.8178962
-1.300923,9.803633999999999,1.0894864,-0.36316812,-0.15156439,0.8535707
-1.578229,10.751757000000001,0.73253,-0.3418751,-0.7025299,0.8865748999999999
-1.8114433999999997,12.091197,0.5309094,-0.29236009999999996,-1.1039033,0.93554884
-1.5779226,12.883065,0.29227456,-0.30515337,-1.2061098,0.8775166
-0.5252208,12.712886,0.37080437,-0.30728266,-1.0059555,0.6768387
0.63440603,11.439946,1.1399274,-0.21624629,-0.6301336999999999,0.5081003
1.0147680000000001,9.685417,1.6240541000000002,-0.06880088,-0.25164157,0.38460076
0.51057786,7.9327374000000015,1.6393483,0.017418386,-0.08555604,0.24459045
0.03577895,6.6539173,1.3351505,0.011047933999999999,-0.24579471,0.0061086523
-0.42779595,6.031655000000001,0.8555153,-0.19230038,-0.6897541,-0.34681436
-0.9549513000000001,5.9666667,0.13763787,-0.45579273,-1.1699116000000003,-0.72635365
-0.60593414,7.161833000000001,0.27926925,-0.48240900000000003,-1.5153822,-0.82643086
0.45753196,8.227808999999999,-0.56948483,-0.330705,-1.8331891,-0.7125132
1.8522215,8.996739,-0.8268615,-0.25722662,-2.156302,-0.7886270000000001
2.8779168,9.013672,-0.3626641,-0.12255702,-2.1653602000000003,-1.0297792
3.158546,8.849898,0.42130288,0.009442232,-1.5872548,-1.0574601000000001
2.9918327000000002,9.210561,0.7689600999999999,-0.0043807765,-0.7999368,-0.9568418
2.83213,10.150391,0.6114791,-0.10232865,-0.33522537,-0.89350384
2.9670098,11.003722,0.12536998,-0.17418386,-0.33203143,-1.0068804
3.1037664,11.101061,-0.24268587,-0.27108455,-0.46139523,-1.1495612
2.659824,10.246302,0.49703628,-0.42491785,-0.6040409999999999,-1.2671963
1.489768,10.330195,1.7692959,-0.6021734999999999,-0.6365215999999999,-1.3236228
1.2138411,12.367757000000001,1.9453080000000003,-0.71130896,-0.68656015,-1.328946
2.7837193,12.170263,2.0924654,-0.76347685,-0.77333796,-1.2778428
3.4596023999999996,10.969495,3.2900736000000004,-0.78316414,-0.7717321999999999,-1.1671191
2.9088595,10.5634575,3.4421532,-0.77838194,-0.7685383000000001,-1.017527
2.2725477,10.673954,2.6343977,-0.7081149999999999,-0.7733205,-0.8487885000000001
2.1770954,11.15743,2.032658,-0.62507224,-0.7546978,-0.71144855
2.1417859,11.75735,1.7730211999999999,-0.55267596,-0.67430794,-0.64915776
1.6699365000000002,11.615699000000001,1.238061,-0.44940484,-0.57531285,-0.60765386
1.297236,10.719933000000001,0.75780314,-0.30780625,-0.42945573,-0.48307222
1.0382790000000002,9.356243,0.6605986,-0.12255702,-0.29157472,-0.32178634
0.9007658000000002,7.934288499999999,0.98233134,0.062674776,-0.22769566,-0.15624188
0.6821751,6.8304276,1.1589756000000002,0.24633577,-0.15636405,-0.022078415
0.5583949,6.084988,1.1715883,0.40762165,0.07625344,0.04124213
0.56321204,6.076695,1.2278041000000002,0.56784284,0.44301692,0.10990338
0.63689595,6.8667717,1.2034981000000002,0.695601,0.61709607,0.19189896
1.0530082,7.7954636,0.9693548000000001,0.7062475,0.48401472,0.26375416
1.6696205000000002,8.278068,0.8115865,0.6115109999999999,0.6527531,0.40695843
1.8002961,8.518053,0.9928946,0.59554124,1.4193016999999999,0.6108303
1.6362165000000002,8.666215,1.2829473999999998,0.68814844,2.216725,0.9233140999999999
1.4166492,8.932172999999999,1.4316752000000001,0.75415677,2.858186,1.3390514999999998
1.3780833000000001,9.550901,1.4039598999999998,0.6673964,3.1105084,1.7010328000000001
1.6254236,10.315016,1.3260143,0.5279272,2.946552,1.8862821
1.9414773,10.7309265,1.5155776,0.46457174,2.528127,1.9091633999999997
1.7161925,10.645961999999999,1.904482,0.51621604,1.9377866999999998,1.8261205000000003
1.43858,10.221786,1.7882292000000002,0.5119574,1.6173269,1.6664404
1.0315658,10.520888000000001,0.88323057,0.39432225,1.4901098,1.4758679
0.22762156,11.018461,0.19258958,0.17606881,1.3341296999999999,1.2922069
-0.57478076,10.361817,0.9848214,-0.009162978,0.5468291000000001,1.2517501
-1.4530219,9.849392,1.5317432,-0.168337,0.12468632,1.1170806
-1.8558318999999999,10.339552000000001,1.3401399999999999,-0.23061036,-0.19202112,1.1074986
-1.7616918999999998,11.624884,0.6731825,-0.23328070000000004,-0.33787829999999996,1.2107698
-1.1778514,12.840879,0.7904121999999999,-0.14810865,-0.30806807,1.268261
-0.64725804,13.464310999999999,1.5440111,-0.07464773,-0.1707281,1.180436
-0.34153765,13.144760999999999,2.2431755,-0.06719518,0.040578905,0.90415037
0.40285793,11.668277,2.2367015,-0.008639379,0.1656841,0.5890137
0.9533520000000001,9.933916,1.72055,0.09567895,0.21837559999999998,0.41760492
0.8895609,8.069082,1.1471483,0.15475835,0.20559978,0.27227136
0.32235533,6.2520843,0.5744839,0.15371114,0.079970986,0.096603975
0.59368545,5.7309237,0.71039796,0.061086524,-0.31764993,-0.16261232
0.50669926,5.468529,0.22629037,-0.16461946,-0.81644756,-0.5155528
0.98251337,5.8707457000000005,-0.11241256,-0.40043090000000003,-1.1603298,-0.7801098000000001
2.0289613999999996,7.204507400000001,-0.31440654,-0.3525216,-1.4573673999999999,-0.7902326999999999
3.3821547,9.031245,-0.8284608,-0.18963002,-1.8757751,-0.79927355
4.3614025000000005,9.815786,-1.0182253,-0.11616912,-2.241474,-1.0840763999999998
4.1661024,9.559492,-0.39791632,0.007853981999999999,-2.2105992000000003,-1.3890901000000002
3.567399,9.467075999999999,0.0646626,0.0988729,-1.6005716,-1.4582924
3.3751252,9.856086,0.18033127,0.017959438,-0.79141957,-1.283166
3.2467577000000003,10.178028999999999,0.17443196,-0.09700539999999999,-0.4155978,-1.1357032
3.4127908,10.330702,-0.10257718,-0.19334757,-0.5832890000000001,-1.204382
3.5045269999999995,9.941415,-0.26816016,-0.35732126,-0.88884383,-1.3662088
2.6984662999999998,9.261146,0.6661914000000001,-0.6000441999999999,-1.1209377,-1.4710683
1.6724168999999998,10.273845,1.9560915,-0.8140390000000001,-1.2401786,-1.5280358
2.2203062,12.350843,1.9877908,-1.0104584,-1.3258742000000001,-1.532818
3.6571527,12.273626,2.1013048,-1.0951068000000002,-1.5760671999999998,-1.4976844999999999
3.9473875,11.382906,3.0030377,-1.1195939,-1.7453467,-1.3933487
3.2740324,10.688711999999999,2.9244215000000002,-1.1371692,-1.765575,-1.2485561
1.8250808,10.700769000000001,2.1162922,-1.1451453999999999,-1.5430629999999999,-1.1026989999999999
1.5209118000000001,10.932011,1.8859128,-1.1201348,-1.1746938,-1.0223266
1.6070744,11.479556,1.3475046,-1.0056762,-0.783967,-0.96535903
1.2719915000000002,11.536854,0.47131297,-0.8827176999999999,-0.6067113000000001,-0.84133595
0.8463120000000001,10.756143,-0.03358586,-0.70544463,-0.51780427,-0.6598043
0.88734865,9.669807,0.22542845,-0.499967,-0.5087635,-0.46284387
0.7849917,8.282588,0.58475983,-0.2646792,-0.5976531,-0.2712067
0.7087699000000001,7.396838000000001,0.9929041999999999,-0.019809486,-0.65301496,-0.112573735
0.9660890999999999,7.063258599999999,1.0194702,0.22556636,-0.54815555,-0.030072022
1.2318072,7.258328999999999,0.67502123,0.43743187,-0.21066125,0.042847835
1.7407953,7.922136,0.38940254,0.6056467,0.020350538,0.18125243
2.3033080000000004,8.337903,0.38486314,0.7195643,0.31792918,0.40109409999999995
2.2935877000000002,8.541725999999999,0.5748861,0.7531095999999999,0.98440063,0.6161536
1.9107932,8.338727,0.6698689,0.82869977,1.8110932000000002,0.84398884
1.303863,8.199575999999999,1.0689057,0.8441285,2.4525542000000002,1.1218628000000002
1.0119141,8.215511,1.1045793,0.7791848000000001,2.7559795,1.3465041000000002
1.0655252,9.025509,1.0651708,0.7110470999999999,2.8501925,1.5093956
1.1971486999999998,9.854103,0.9559377,0.7158468000000001,2.811865,1.6898627
1.5301917999999999,10.210264,1.186413,0.7371398,2.5824416,1.8410431
1.5675603999999999,9.823802,1.5103678,0.67804295,2.2806043999999996,1.7925928
1.1630266000000002,9.941071,1.5705197,0.52473325,1.9793081000000001,1.6137313999999998
0.6192555000000001,11.1942625,1.1326298000000001,0.32777283,1.8462266999999999,1.438064
0.029027302,11.1392145,1.5360049,0.13135348,1.7733067999999998,1.2975476000000001
-0.67550004,10.584498,2.3977162999999995,-0.06026622,1.558771,1.2879483
-1.0280702,10.80438,2.1401577,-0.18802431,1.1733673999999998,1.3214934999999999
-0.9251290999999999,11.547589,1.5203084999999998,-0.2881015,0.8183151,1.3528919
-0.9811247,12.381231,1.3280733,-0.27160814,-0.028605945,1.4151827
-1.1920156000000002,13.035164,1.6033203999999999,-0.24445081,-0.43956116,1.3821785
-0.8607825000000001,13.043677,1.6301354,-0.1752485,-0.42359140000000006,1.2309982
0.25348848,12.131649000000001,1.5366082,-0.18908897,-0.2851868,1.0079451
0.7620361,10.2907295,1.3761966,-0.13107422,0.009180431999999999,0.7950149000000001
0.8847533000000001,8.270980999999999,1.4857553,-0.064001225,0.26522022,0.63212335
0.5811781,6.717181699999999,1.2878793,-0.011309733999999998,0.27586675,0.3792775
0.08713937,5.907616,1.0639737,-0.052813664,-0.07810348,0.00026179937
0.109884284,5.735032,0.5730761,-0.16566665,-0.48747045,-0.3920533
0.56530935,6.334827400000001,0.14610375,-0.25455627,-0.8409344999999999,-0.6092246
0.58677095,7.3563766,-0.46469540000000004,-0.19708258,-1.2428315,-0.61189497
1.463518,9.008817,-0.46628517,-0.07464773,-1.6548513999999999,-0.6347937
2.507955,9.657617,-0.74565023,0.049375363,-2.0115093999999996,-0.87325805
3.189182,8.990897,-0.5232959,0.18404497,-1.8656522,-1.1133455
3.254285,9.395565,0.28248706,0.24633577,-1.1576594,-1.2118343999999999
2.9720376,10.323559,0.81733257,0.17872171,-0.46883035,-1.1740306999999999
2.9472337000000004,10.7001,1.1038994,0.09622,-0.3155206,-1.1591256
3.1670882999999996,10.205304,1.0903003,0.011588986,-0.6077585,-1.2549441000000001
2.9373693,9.383068,1.2265973999999997,-0.1693842,-0.87713265,-1.4103831
2.1157367000000002,8.931157,1.664334,-0.44673450000000003,-1.031507,-1.5631692
1.4893754,10.300364,2.1518222999999996,-0.6814986999999999,-1.2013102,-1.6579230999999999
2.234968,12.022953,2.3062866,-0.83587307,-1.4179753000000002,-1.6478002
3.5727522000000005,11.743703,2.7710586,-0.8901703000000001,-1.6745561000000002,-1.5583696000000002
4.0910779999999995,11.263503,3.2589395,-0.9513790000000001,-1.8986564,-1.3757907
3.8295162000000005,11.076803,3.0733314,-0.9929004000000001,-1.9476304,-1.2160757
2.729093,10.983611,2.3904285,-1.0040879,-1.6292997999999999,-1.1026989999999999
2.1125479,11.129102,2.1630175,-1.0487858,-1.1310432,-1.0153976999999998
1.8356918999999998,11.169823,1.5032905,-0.9678898000000001,-0.7131764,-0.9147969000000001
1.6833918999999997,10.604801,0.57796025,-0.7911577,-0.43689079999999997,-0.76201075
1.54856,9.411147,0.14778927,-0.6293308000000001,-0.20320868,-0.5741086
1.1921304,8.165846,0.39959225,-0.45366344,-0.11484266,-0.37821284
0.9370235,7.021111500000001,0.87585646,-0.26628488,-0.21650809,-0.20893337
0.925177,6.7881556,1.1284638999999999,-0.07677703,-0.36981782,-0.10459758
1.1246332,6.864242999999999,0.84275895,0.14519393,-0.44381976,-0.02846632
1.7901639,8.087039,0.76319486,0.36503562,-0.47095963,0.09820968
2.3538067000000003,9.258091,0.58859056,0.5007872999999999,-0.27080529999999997,0.25949556
3.0317297,8.9112,0.8517229,0.53112113,0.28811896,0.39737657
2.666777,8.433977,1.6331425,0.57053065,0.9774891,0.5251347
2.1691756,8.302458999999999,1.9308854,0.62748075,1.6641715,0.7535109999999999
1.7313238000000002,8.323212,1.7376637,0.6455798,2.2369535,0.98825777
1.4280072,8.827259,1.5299428,0.63812727,2.5946762999999997,1.1931943999999999
1.2361263,9.818361999999999,1.2803136999999998,0.63758624,2.726693,1.3736614
1.1756775,10.381910000000001,1.1200746000000001,0.68495446,2.6468441,1.5402706
1.1888552,10.373051,1.4714571,0.6897541,2.3652527,1.621184
1.221991,10.219113,1.5323082000000001,0.6035174,2.0277583999999997,1.4918376
1.2691663999999998,11.065742,1.0564655,0.48162362,1.6732296999999998,1.2565498
0.95252836,11.023527,0.8723896999999999,0.36822957,1.339453,1.1474143
0.2562562,9.966966000000001,1.8084746999999999,0.23727751,1.086066,1.1255977
-0.22589771,9.431632,2.1990936000000003,0.08876745,0.82735586,1.1814831000000001
-0.25919628,9.680216999999999,2.0519456999999997,-0.0027750734999999996,0.6426476999999999,1.2645258999999998
-0.43194273,10.780659,1.7826363999999997,-0.024609142999999997,0.5500231,1.3252110000000001
-0.6681355,12.163359,1.808762,0.0062482785,0.46430993,1.3065883999999999
-0.71318483,13.140529,1.8766901000000002,0.0312763,0.42278856,1.1777656
-0.07814674,13.057305,1.6234698,0.0099832835,0.52234215,0.92757267
1.1147785,11.890755,1.6077161,-0.021938787999999997,0.57609826,0.6800326
1.2548777,9.776809,1.6209607,-0.014486233000000001,0.54363513,0.48893654
0.7945876999999999,7.7652774,1.409457,0.0009250244999999999,0.45792204,0.35212016
0.40098090000000003,6.5542326,0.9851181999999998,-0.054419365,0.13267992,0.12960815
0.13313676,5.937217700000001,0.7188926,-0.16140805,-0.41613886,-0.23872614
0.32208717,5.801907,0.63087213,-0.2375393,-0.9117251000000001,-0.60178953
0.95292103,6.2859383,0.5160463,-0.21198769,-1.3301328000000001,-0.7502996
1.7279049,7.671232700000001,0.18892166,-0.19760618,-1.6537868000000002,-0.8503768
2.4755661,9.204288499999999,-0.38339788,-0.19228293,-1.8731048,-1.0925936
3.0741357999999996,9.953118,-0.6529946,-0.029932396,-1.7927324,-1.2602673999999998
2.7937174,10.081457,-0.37801573,0.17819811,-1.3120338,-1.1825478
2.344096,10.624624,0.27294856,0.26230553,-0.6886895000000001,-0.9408721
1.7985818,11.240738,0.7702338000000001,0.21491985,-0.4155978,-0.8189783
1.8062241,11.038457000000001,0.9482666999999999,0.14199999,-0.653556,-0.9903871
2.2778914,10.30902,1.1869398000000002,0.037123155,-1.1438190000000001,-1.2975302
2.1705257999999996,10.004239,1.5859767,-0.1603434,-1.5579681,-1.5301651
1.6100431999999998,10.930852999999999,1.7962642,-0.40414843,-1.7213832999999998,-1.6265073
1.9245455000000002,11.926822,1.7709814,-0.61123174,-1.6048127,-1.6009556
2.595037,10.751919000000001,2.6843022999999997,-0.7773173000000001,-1.4270161,-1.5200421999999998
2.2880237,9.536116,3.941239,-0.87739444,-1.2981933,-1.4359348
1.4382926999999999,9.324783,3.9310782,-0.92635095,-1.2103509,-1.342769
0.76909417,10.306655000000001,2.6901345,-0.9173101,-1.0511943000000001,-1.2112935
1.3776045,11.457079,1.5479758999999997,-0.9024049999999999,-0.8116479,-1.1011108
2.1037755000000002,12.262594,0.8021821,-0.8555603999999999,-0.6471680999999999,-1.0281734
2.2476957000000004,12.193334,0.36116055,-0.75176567,-0.7339284,-0.9312902
1.678661,10.980478999999999,0.08537724,-0.65540606,-0.8137772,-0.8147196999999999
1.2365669,9.455947,0.26418579999999997,-0.5516113,-0.8292234,-0.6960024
1.0726118999999998,8.241302000000001,0.64007545,-0.3578274,-0.7887491999999999,-0.5016949
1.0178134,7.1408119999999995,1.0164152,-0.09700539999999999,-0.6902776999999999,-0.30792844
0.9887287,6.9813776,1.3391249,0.14571753,-0.44434336,-0.15196581
1.0803596000000002,7.217579400000001,1.5221186000000002,0.3623827,-0.0988729,0.014102261000000001
1.1801403999999998,7.753889999999999,1.4046016000000001,0.50982815,0.09594075,0.19029325
1.3624636,8.411721,1.2255631999999999,0.5391148,0.5202127999999999,0.37873644
1.3935403,8.705232,1.0140209999999998,0.5337915,1.2707916000000001,0.52087605
1.2161681999999998,8.977872999999999,0.9227924000000001,0.6450388000000001,2.178398,0.80566144
1.3872483,9.036627000000001,0.7184329,0.6998770000000001,2.9550693,1.1793538000000001
1.3591212,9.000407000000001,0.7949899,0.64929736,3.3686773999999997,1.5232362
1.1961144,9.336352,1.2084686000000002,0.60245275,3.3053392999999995,1.8208147000000001
1.2431940000000001,9.762798,1.1584584,0.6338687,2.8965134999999997,1.9938116999999997
1.2016977,10.018680999999999,1.0997046999999998,0.699336,2.458401,2.0710077
1.0817481000000002,9.913892,1.2186582000000001,0.653556,2.2630463,2.0129755
0.8657815999999999,10.320532,1.1562941,0.49811697,2.2044904,1.8660710999999999
0.693945,11.491355,0.67822945,0.33470178,2.191191,1.7223432
0.09585425,10.631567,1.6447494999999999,0.17498670000000002,2.1209066,1.7148732
-1.1862983,9.80689,2.738555,0.0137008345,1.8669962,1.7255198
-1.8735586,10.111288,2.4186609,-0.12414527,1.4416594999999999,1.6973151999999998
-2.2430031,11.349972,1.9075370999999999,-0.25722662,0.90561646,1.6856041000000002
-2.259121,12.680802,1.7291212,-0.29450685,-0.23088960000000003,1.7681057
-1.6815915000000001,13.586520000000002,2.0311737,-0.22741639999999996,-0.69188344,1.7611941999999998
