accx,accy,accz,gyrx,gyry,gyrz
3.5337076,11.13616,-1.618557,-0.23127358,0.4271867999999999,-0.32410765
3.8212800000000002,11.367075999999999,-1.5648309999999999,-0.21423917,-0.5767614999999999,-0.76220274
4.5049295,12.375302,-0.2153728,-0.39894736,-1.4471048,-1.004402
4.170757,12.673419,0.81580985,-0.60815996,-1.8756355,-1.0549991
4.3043914,12.194627,2.062777,-0.64807564,-1.7659764999999998,-1.1465417
3.9202660000000003,13.068817,1.9921673999999998,-0.58739054,-1.367256,-1.2514011
4.3458304000000005,12.867407,3.1221442,-0.5687679,-0.9701586999999999,-1.282817
2.3583078,10.166441,6.6755133,-0.62200046,-0.87486374,-1.2333193999999998
-1.4968836,9.279456,6.13021,-0.6757565999999999,-0.9312902,-1.1742226
-3.236683,11.775871,3.0496385,-0.6714979999999999,-1.0542486999999998,-1.1598411
-1.0421768,14.205172,2.6330185,-0.6251944,-1.0755417,-1.1428066000000001
-0.094293244,14.118348999999998,2.207157,-0.54747486,-0.92703164,-1.0177189
0.21536323,12.557157499999999,1.125294,-0.44846234,-0.6848148000000001,-0.8292757
1.0993600000000001,10.377877999999999,1.0441784,-0.2845061,-0.3569024,-0.6440265000000001
2.4547653,8.160214999999999,1.1582573999999999,-0.052394785,-0.071575955,-0.5828003
2.6962542999999997,6.3448644,0.78406274,0.15254177,0.12217305,-0.56311303
2.0856657,4.9568596,0.24295402,0.25527185,0.16634732,-0.45610690000000004
1.5859575000000001,3.9888453,0.047692495999999994,0.33138567,0.14079571,-0.25169393
1.6988488000000002,3.5517406000000005,0.20629399,0.40964620000000007,0.02581342,-0.07443829
2.137304,3.5297620000000003,0.34161428,0.49907690000000005,-0.15568337,0.006998770400000001
2.4713142,4.151066999999999,0.31283596,0.573585,-0.44633305,0.049043752
2.5916946,5.529361,0.23248656,0.5917015,-0.7082371999999999,0.13421582
3.122307,7.3342443,0.50216943,0.45862016,-0.5096885,0.20128882
3.5633477999999994,8.623886,1.3339916,0.34150857,0.19776326,0.26996753
3.9659855000000004,9.27168,2.3056066000000004,0.39207077,0.9930574000000001,0.52974236
3.4894915,10.000053,2.4912817000000005,0.5107881,1.5519991000000002,0.86510736
2.3263689999999997,10.351791,2.4643996,0.6592981,1.6084256000000001,1.0503566
1.3727874,11.006787,2.415922,0.7678925,1.2134402,1.0780375
0.9485826999999999,11.9358425,2.2276514,0.80356705,0.9424778,1.0764319
0.72035784,12.131601,2.3877373,0.77482146,1.024997,1.1126299
0.7338803,12.007237,2.3494015,0.66196847,1.3002004999999999,1.1589508999999998
0.97010183,13.224181,1.5719945,0.48523644,1.5285768999999998,1.1616038999999998
1.407714,13.399313000000001,0.5383123000000001,0.2717652,1.6983799,1.1541513
0.70941156,11.532803,1.9791046,0.04977679,1.6579230999999999,1.1600156000000001
-0.069230735,11.699583,2.4039605,-0.12585570000000001,1.4748032,1.2009959
-0.076365456,14.104270999999999,1.7582442999999999,-0.24083798,1.222481,1.2819095
0.34159509999999993,15.771373,1.1338173,-0.31164598,0.9526007,1.3431356
0.6529275999999999,14.437736,1.2547437,-0.34306192,0.65289277,1.3154546
1.0158119,11.971708,1.6786418,-0.30897564,0.3398854,1.2068603
1.2702581,9.814656,1.528832,-0.20411626,0.014643312,1.0290636
1.3505212,8.124761999999999,1.089266,-0.12639675,-0.17858209,0.80068725
1.1453956,6.606158,0.74155134,-0.077422805,-0.20945697,0.52441907
0.76073366,5.4916186,0.44857764,0.041277036,-0.1482308,0.32372367
0.29114450000000003,4.788394,0.110353544,0.09609783,-0.1264142,0.17201965
-0.031727962,4.5599775000000005,-0.21552603,0.007731808299999999,-0.35531414,-0.1484228
0.054932564,4.749943,-0.5856026,-0.060388394000000005,-0.52405256,-0.46355945
0.6212474,5.3687487,-0.9341696,-0.0715585,-0.47027898,-0.4757942
1.4528111000000001,6.2165349999999995,-1.2023298999999998,-0.067299895,-0.35850808,-0.48219955
2.410559,7.4867550000000005,-1.2720298,0.18395770000000003,-0.20731021,-0.71959925
3.2773557,9.145841,-1.3244916000000002,0.3883532,0.107791536,-0.72546357
4.1433,10.4855795,-1.338311,0.19511035,0.38194785,-0.499234
4.5433807,10.716868,-0.7005913,-0.0076794485,0.030072022,-0.5572486999999999
4.507966000000001,11.389725,0.30836362,-0.09126326400000001,-0.77531016,-0.9320058000000001
4.4894733,12.297377000000001,0.09312487400000001,-0.26106635,-1.3571506000000002,-1.2077504
5.241453599999999,12.443767999999999,0.26902209999999993,-0.43195152,-1.5945677,-1.2742997
4.5612900000000005,11.821428,1.3553671999999999,-0.57035613,-1.5519817,-1.289205
2.7268713,12.187655,1.8707048,-0.6736098,-1.321476,-1.2859935
2.4688529999999997,11.914361,3.4658177,-0.7412239,-0.9749409,-1.2455542
2.4374504,10.53807,6.774049000000001,-0.773687,-0.7502821,-1.2024271
0.8207898000000001,11.215973,5.748354,-0.7417475,-0.65393996,-1.1763344999999998
-0.5346348000000001,13.666179999999999,2.71604,-0.6618987,-0.6762975999999999,-1.1715523
0.27279535,14.457664999999999,1.7363325,-0.57939696,-0.7657283,-1.1470653
1.300425,13.416185999999998,1.4706048999999999,-0.5304055999999999,-0.8434478000000001,-1.0091842
1.2088611999999999,11.147748,1.3431376,-0.49050733,-0.8200255,-0.7531445
1.1392665000000002,8.790963,1.2097996000000002,-0.38456586,-0.7220776,-0.48591712
1.4717923000000002,6.9276705000000005,0.87343353,-0.15140732,-0.6028366999999999,-0.3954218
1.7555915000000002,5.562611599999999,0.7574488,0.08970992,-0.30473449999999996,-0.41193262
1.6527365,4.465435,0.72936964,0.1828756,0.05989969999999999,-0.35177112
1.6644778000000002,4.036643499999999,0.5705286999999999,0.22652629,0.23396139,-0.19526744
1.8375306,4.3179717,0.42968258,0.28827602,0.13707817,-0.07017968599999999
2.0570502,4.9778709999999995,0.17552371,0.39795253,-0.17165314,0.008604473
2.139784,5.8041964,-0.20563320000000004,0.53208107,-0.5937958999999999,0.1086642
2.0572226000000002,6.408646,-0.22815785,0.5917015,-0.7486939,0.2529331
2.2068985,7.284732000000001,0.25457070000000004,0.496424,-0.4559149,0.32745868
2.9158792,8.2355175,1.2864811,0.42188100000000006,-0.04337143,0.41263074
4.064464,9.131312,2.491502,0.38090065,0.35587263,0.59894466
4.152551,9.774549,2.6972023999999997,0.43893287,0.72902405,0.71979123
3.0902727000000003,10.251598,2.344096,0.6098005999999999,1.0585247,0.77567667
1.7860553,11.084627000000001,2.0827448,0.7599338000000001,1.3459979,0.80229294
0.87501365,12.013137,2.0074232,0.7955909000000001,1.6680461,0.848614
0.15987521,12.113175,2.3229501,0.7269121999999999,1.9272798,0.93057466
-0.057029884,12.536863,2.325718,0.5331457,2.0438678,0.96944314
0.69379175,14.076967999999999,1.1573379,0.28935814,2.0545144,0.94816756
0.8105713999999999,12.697476,1.2969868999999998,0.04605924,1.9970231999999999,0.88479465
0.28778306,10.964122,1.6091813,-0.17802358,1.8224205000000002,0.87149525
0.80823463,12.462060000000001,0.8396370000000001,-0.3361155,1.6291951,0.92579246
2.084622,14.984360999999998,0.64458615,-0.45055676,1.3433275,1.000318
2.4412813,15.124412,1.3362135,-0.5053949999999999,1.0383139000000001,1.0636735000000002
2.4161517999999997,13.413553,1.7603033,-0.49422488,0.7247654,1.0775139
2.144161,11.471186,1.7124863999999997,-0.40160027,0.42240459999999996,1.0562035
1.6159139,9.847275999999999,1.1490636,-0.26371926,0.10088003,0.9731607
1.1895831000000001,8.272186999999999,0.5241960999999999,-0.16098917,-0.21690951,0.7793941999999999
0.90471137,6.8317966,0.30717608,-0.18865263,-0.5208412,0.40732494
0.51664,5.7323318,0.24585579999999999,-0.08752826,-0.6555281999999999,0.047996555
-0.030961817000000003,4.8891225,-0.013187262,0.045012042,-0.6230651,-0.16598082
-0.28830975,4.6261725,-0.24031079999999996,0.016266469,-0.558645,-0.40552726
-0.16485515,4.8061300000000005,-0.58057475,-0.06782349,-0.34732053,-0.6115459
0.26278758,5.2961946,-0.79702014,-0.067299895,-0.08594001,-0.5774771
0.8805778000000001,6.223995700000001,-0.90812075,-0.08166396,-0.09978047,-0.5966408000000001
1.5070447,7.617488000000001,-1.0223912,0.06895796,-0.10403907,-0.79731876
2.391731,9.311491,-1.2965176999999999,0.2664594,0.18020524,-0.6780779
3.4181921,10.790992,-1.5873078,0.12964305,0.5033181,-0.32302552
4.535949,10.804860000000001,-1.0209163,-0.026825711000000002,0.28134707,-0.24370033
4.5633197,11.000494999999999,0.96908665,-0.019373154,-0.65393996,-0.58492965
4.4699078000000005,11.8069,1.1124034999999999,-0.1412844,-1.6137139999999999,-0.9059132
5.174933,12.228261,1.0537648000000002,-0.36699040000000005,-2.1034534,-1.007596
4.730435,11.796548,1.7042119999999998,-0.49794245,-2.0970654,-1.0629579
3.1633150000000003,12.634327,2.3621194,-0.56182146,-1.7947046000000002,-1.1364188
2.9026535,13.062113,2.9611392000000003,-0.61770695,-1.3890726999999998,-1.1672937
2.0371497,10.848349,6.132939,-0.69329715,-1.1399443,-1.1358777
-0.38117605,9.757349000000001,6.34201,-0.7193898,-1.0856471,-1.0986148999999998
-2.4059044999999997,11.520544000000001,3.3566133999999996,-0.7161959,-1.1319681000000001,-1.0608286
-2.0200071,13.253612,1.9453846000000001,-0.6975732,-1.1069402,-0.9926908999999999
-0.84188753,13.455422,1.6846942999999999,-0.6544460999999999,-1.0143155000000001,-0.8963313
-0.005851429,12.10427,1.2736578,-0.50913,-0.9568244,-0.7792197
0.70027524,10.123652,1.4606736999999999,-0.31641075,-0.85090035,-0.6706253000000001
1.7179451000000001,8.1437235,1.4568716999999998,-0.082187556,-0.576203,-0.61313415
2.0359237,6.4025264,1.0106788,0.10037389,-0.24563764,-0.56309557
1.9916884999999998,5.1986930000000005,0.6321555,0.17116444,-0.022602014,-0.48857
1.5210458999999998,4.211104,0.45778096,0.14456563,-0.008761553,-0.38903388
1.6575537,4.2789173,0.40489784,0.12911946,-0.024731316,-0.24530603
2.0651522,4.8200645,0.32873347,0.18554595,-0.09393362,-0.07867944
2.496913,5.5611653,0.011434708,0.33194417,-0.22860323,0.07302458
2.8039357999999996,6.6045585,0.18563682,0.5294281999999999,-0.3217689,0.26464427
3.125726,7.5989949999999995,0.81128,0.5470036,-0.059864793,0.43127087
3.9248245,8.680667,1.5389258,0.40858158,0.38088320000000003,0.439247
4.695786,9.601592,2.5719185,0.31438616,0.7567224,0.5233719
4.3744845,10.001903,2.7422134999999996,0.28455848,0.82325435,0.70542717
3.3392315000000004,9.897112,2.4695137000000003,0.31862729999999995,0.6752679,0.74799573
2.3987985000000003,9.975777,2.2613907,0.38570032,0.66301566,0.7139444
1.4666591999999998,10.638606,2.2129607000000004,0.42828634,0.89510953,0.72883207
0.6598995,11.314136,2.3950922,0.43999750000000004,1.1825653,0.81719804
0.5747616,11.999260000000001,2.7125347,0.40221113,1.3912543,0.9284628
0.82983035,13.974332999999998,2.2744438999999996,0.29839894,1.5051545,1.0061823
0.5452938,14.407204,1.2928019,0.15414748,1.6031198999999998,1.0700613
0.047615882000000005,12.355852,1.7597383000000002,0.01680752,1.6425118000000003,1.1477808999999999
-0.7864281999999999,11.652714,2.2016504,-0.07527605,1.6313243,1.2638278
-0.65038013,13.440607,1.645487,-0.12957324,1.5530638,1.3862627
0.65247744,14.997826000000002,1.2130557,-0.16362461,1.4050947,1.4618528999999998
1.4174536,14.31996,1.6619016,-0.16842428,1.1373263999999998,1.410226
1.5312451999999999,12.174956,2.1454442000000005,-0.1285086,0.7301061,1.2670218
1.2375245000000001,9.964858999999999,2.0493124,-0.033213615,0.2520779,1.1051948
1.0260496,8.266200999999999,1.5255758,0.07695156,-0.11681489,0.9822189
0.8821005,6.8933860000000005,0.9636375,0.064175755,-0.33880332,0.7953814
0.72174644,5.9096556,0.5633556,-0.027366763,-0.4628264,0.45895177
0.4311191,5.388802,0.25757778,0.06419321,-0.46760859999999993,0.23643975
0.09932106,5.320557599999999,-0.043718125999999996,0.14137167,-0.61826545,-0.011065387
0.090156056,5.5375776,-0.41488642,0.07375761,-0.6363645,-0.30384436
0.50808793,5.813217,-0.68012565,-0.02841396,-0.50967103,-0.49867547
1.1319785,6.047543,-0.8274648000000001,-0.056635935,-0.35477307,-0.4997576
1.6759602999999998,6.6090789999999995,-0.90381116,-0.07847001,-0.37658969999999997,-0.70947635
2.1107473,7.8922367,-1.0536402,0.10091494,-0.30365238,-0.9245358
2.4638827,9.737716,-1.3315114,0.16425294,-0.033772122,-0.72438145
3.2719063999999998,10.61838,-1.6491644,-0.027890362000000002,0.14507176,-0.44224897
3.987562,10.2545,-0.33610759999999995,-0.111997776,-0.24031438,-0.576395
3.6432376000000004,10.896567,1.3871046999999999,-0.1465902,-0.9083741,-0.9309236999999999
4.2036147,11.798558,1.5572462,-0.32866296,-1.4928848999999997,-1.1784638
4.8038893,11.75168,1.6204531,-0.52454126,-1.6914334,-1.2306317
4.048499,11.435388,2.2377071,-0.6523168,-1.5524878999999998,-1.2444721
3.2340492999999997,13.162593,2.248596,-0.7023554,-1.1282332,-1.2263731000000002
3.5756059999999996,12.661775,3.990531,-0.7177840999999999,-0.64807564,-1.1933688999999998
1.7988881999999997,10.335635,6.531325,-0.70181435,-0.42502257,-1.1513064
-0.27196217,11.472278,4.528708999999999,-0.6858446,-0.33932692,-1.0863627
-0.4106343,13.657426999999998,2.3412897999999998,-0.68690926,-0.46921432,-1.0810393999999999
0.9341218000000001,13.635056,2.0440066000000003,-0.61770695,-0.61453044,-1.0326065999999998
1.4566994,12.298708,1.5392514,-0.51443577,-0.83226025,-0.87290895
1.5280465,10.298946,1.0576242,-0.38400733,-1.0249445,-0.6801897
1.8525183,8.407325,1.0029215,-0.16310102,-0.8743226999999999,-0.5572486999999999
2.3121095,6.6670283999999995,0.99878436,0.08494517,-0.54906315,-0.51785666
2.4547846,5.397747,1.0135134,0.23719025,-0.26905996,-0.4805764
2.2994583,4.418461,0.9301187,0.26061258,-0.09285152,-0.39540434
1.8206849999999999,4.0133715,0.94951165,0.29787534,-0.026843164,-0.26871088
1.6386585999999999,4.3474684,0.58119726,0.35110790000000003,-0.09658652,-0.1366942
1.9104197,5.025764499999999,0.38614643,0.37985346,-0.29619983,-0.073879786
1.5786313,6.107743,0.58240396,0.44053856,-0.5618389,8.726646e-05
1.4139676,7.37688,0.77900624,0.5028119000000001,-0.6124010999999999,0.14807373
2.3205945,8.478069,1.3451871000000002,0.4250924,-0.24085544,0.2582738
3.6615483999999996,9.154862,2.3078667999999998,0.36601300000000003,0.309028,0.36419785
4.2800183,9.688310000000001,2.6247826,0.41498694,0.78599155,0.6383542
3.8087153,9.963825,2.2186396,0.54648006,1.050025,0.92261595
3.0057669999999996,10.177675,2.1487768,0.6694385,0.99040455,0.9737191999999999
2.0464296,11.0433035,2.4729805000000002,0.7673864,0.8615818000000001,0.9369975
1.1871793,11.961910000000001,2.2686305,0.80677843,0.95314175,0.9502969000000001
0.8985056,12.099846000000001,2.2269714,0.75300485,1.3055412,1.0221521
0.83688843,12.425417999999999,2.3840792,0.5922426,1.6249365,1.0423805
1.1391133,13.823785,1.5322604,0.36547193,1.8346726999999998,1.000859
0.91496813,12.389563,1.5873556999999998,0.1291369,1.8756703999999997,0.97104883
-0.010515334,10.714780000000001,2.347419,-0.06408849,1.7894337,0.9950121999999999
-0.5302199000000001,11.918652999999999,2.1930982999999995,-0.20886356,1.6366476,1.0626262
0.087273434,14.380504,1.371169,-0.29777062,1.4322346000000001,1.1541687
1.2467469999999998,14.784358,1.1888936,-0.33822736,1.1724598,1.2292353999999999
1.7943584,13.055688,1.8384022,-0.32866296,0.8833984,1.2292353999999999
1.8762113999999999,10.881110000000001,2.0038414,-0.24240878,0.5746671,1.1786557
1.9094716,9.340691,1.4078671999999999,-0.0731293,0.29944614,1.1073416
1.9857125,8.174609,0.811462,0.08868018,0.07747517,0.919422
1.7893784,6.7570505,0.5589312,0.10889109,-0.055065135999999994,0.6170437
1.2052698999999998,5.57418,0.38250723,0.114214346,-0.21848032,0.25986207
0.6665936,4.9518027,0.12391431,0.1749169,-0.35688493,-0.048328165
0.43160754,4.701819400000001,-0.19818243,0.14350097,-0.5144707000000001,-0.3874282
0.44845313,4.974901999999999,-0.54201853,0.056740652999999995,-0.44099236,-0.6322979000000001
0.7921264,5.685874500000001,-0.8411501,-0.04811873,-0.265866,-0.6413386999999999
1.4340981000000002,6.571557,-0.9523464,-0.22005111,-0.15885986,-0.7297047
1.9485066999999998,7.752617,-0.97430605,-0.16894788,-0.09126326400000001,-0.93464124
2.5673215,9.306166000000001,-0.9464950000000001,-0.12210324,0.21642083,-0.7557799
3.4675220999999996,10.286475999999999,-0.97476566,-0.25146705,0.37290704,-0.41669735
4.3283434000000005,10.574491,-1.1651239,-0.26424286,-0.30791098,-0.58810616
4.991393599999999,11.642447,0.018579004,-0.23069762,-1.2618381,-1.0043845999999998
5.1329384000000005,12.653404,0.8028524,-0.43936917,-1.8250383999999997,-1.2199851000000002
5.338706,12.307327,1.2361263,-0.6325946,-1.9772835,-1.2370021
4.697845,11.492503,2.4156442000000005,-0.75715876,-1.7734116000000002,-1.2630948
3.4439445,12.419289,2.1641572,-0.8290314000000001,-1.4183417999999999,-1.2609655
2.8848502999999996,11.779137,3.439338,-0.87959355,-1.0781946000000002,-1.2082565
1.4134696000000002,9.657136999999999,6.1725874,-0.9264556999999999,-0.855159,-1.1497182
-1.2611027,10.773515,4.936758,-0.9365610999999999,-0.8184198,-1.1065911
-2.1924373999999998,14.2362585,2.2610362,-0.96104807,-0.8583354999999999,-1.052835
-0.27377218,14.945718,2.215307,-0.92059135,-0.9791646,-0.97776836
0.8942535,13.639107000000001,1.8859508999999999,-0.7342774999999999,-1.1931595,-0.8856673
1.016329,11.226891,1.6896552,-0.49525464,-1.3033595,-0.77229077
1.5207396,8.746441,1.5930251,-0.24933773,-1.1681489,-0.7147996
2.1314716000000002,6.783568400000001,1.2782356000000001,0.022130774,-0.851424,-0.69083625
1.8878279999999998,5.0623192999999995,1.136221,0.19940387,-0.50967103,-0.6062052
1.6691896000000002,3.9916992,0.98968637,0.2856406,-0.3371976,-0.5071926999999999
1.4813213,3.4691026,0.9335663000000001,0.37985346,-0.20624556,-0.3592062
1.5033959,3.3866847,0.87433374,0.43575636,-0.08168141,-0.17448056
1.3937798000000001,4.156593,0.17356047,0.46237263,-0.13117895,-0.076532684
1.7347142,5.932525,0.3101353,0.5033704000000001,-0.41863468,-0.015323991
2.2435297999999997,7.3579087,0.71849036,0.5315749,-0.53735197,0.086323984
2.8621244,8.365628,1.2131611,0.44481462,-0.053459436,0.23113395
3.9686480000000004,8.919513,1.9734063000000002,0.4565083,0.7939852,0.4488463
4.231004,9.16307,2.7311041,0.652439,1.4977368,0.7778409000000001
3.845308,9.613208,2.692366,0.89355624,1.7495180000000001,1.0807253
3.492154,10.191849000000001,3.0111876,1.0543185,1.495049,1.2084659
2.6248397999999997,10.799842,3.2380332999999997,1.1118096000000002,1.157031,1.2191125
1.6340139,11.133297,2.770781,1.10701,1.0793116000000003,1.205272
1.209273,10.932845,2.6481404,1.0324844000000002,1.2996943,1.1983606000000002
1.1313082,11.408878999999999,2.3897486,0.83765334,1.5972555,1.1749382
1.4641021,12.759304,1.6057431999999998,0.5682967,1.8054035,1.1376754
0.8443966,11.586423,1.5765626,0.3085393,1.9358319,1.141934
0.28157726,11.549016,2.2119357999999996,0.09613273,1.8964398999999998,1.2042248
-0.16910726,13.614523000000002,2.3501196,-0.060894538,1.7755933000000002,1.3458059
-0.1472817,15.741263,1.6193998,-0.16097172,1.5498873,1.4959391000000002
0.3327653,15.783525,1.164894,-0.22643901,1.2241042,1.5555596
1.1754668,13.916729,1.5271943000000001,-0.25357887,0.81847215,1.4719758
1.661011,11.5827265,1.8279252000000001,-0.21526891,0.3777067,1.2787329
1.7885453000000002,9.459501,1.5416073000000001,-0.11571533,0.0013439035,1.0732553
1.7341011999999998,7.6036779999999995,0.96788955,0.016824974,-0.20624556,0.8528899999999999
1.4117553,6.208491,0.5908985999999999,0.15735888,-0.26267204,0.6788109
0.81634617,5.361221,0.29550195,0.19353956,-0.29780552,0.50047314
0.22613715,4.9220095,-0.17311037,0.058346357,-0.4149170999999999,0.13158037
-0.16177142,4.907031,-0.5828253000000001,-0.002321288,-0.5666210999999999,-0.2990447
0.06397307,5.3554845,-0.9926169,0.05461135,-0.685321,-0.5343326
0.8937745999999999,6.18135,-1.3806403999999999,0.10093239,-0.62624156,-0.5417851
1.9039553,7.034308,-1.5566908000000002,0.1254019,-0.46176177,-0.8399048000000001
2.690891,7.944344,-1.5214481000000002,0.33515558,-0.030560715,-1.0027789
3.2494872000000004,9.070758999999999,-1.4540466,0.26541220000000004,0.43093926,-0.6621081
3.655333,9.726051,-1.1478856000000002,-0.033737216,0.4948183,-0.33471924
3.7029011,10.264068,-0.9493393,-0.11517428,-0.21848032,-0.7025474
4.291683,11.413294,-1.1477516,-0.23282692,-0.9174323,-1.2210497999999999
5.6769013,11.967761999999999,-0.8576126000000001,-0.47663197,-1.3076181,-1.4563202
5.489684,11.294426,0.9278968000000001,-0.6299416999999999,-1.4289882999999999,-1.4765486
4.383228,11.846788,2.2658150000000004,-0.699144,-1.16869,-1.5026412
4.0016110000000005,13.69966,1.9082267,-0.7332128000000001,-0.8338485000000001,-1.5766432
4.6133294000000005,11.263302000000001,5.0626926,-0.762482,-0.5847201999999999,-1.6405047
2.4375942000000004,9.570256,7.029769,-0.7938979,-0.48464300000000005,-1.6096298999999998
-0.9028246999999999,11.819311,3.7057836,-0.73480105,-0.56182146,-1.5569383999999997
-0.71303153,14.118751000000001,1.4679042,-0.66559875,-0.7566526,-1.5372336000000002
1.9591657,14.031908,1.7961493000000002,-0.6262066999999999,-0.97331774,-1.3684952
2.5652244,12.953416,1.0942843,-0.6230127,-1.1974181000000002,-1.0192896999999999
1.7311802,10.883572000000001,1.0140115,-0.5266706,-1.3235879,-0.6849894
1.5102528,8.858814,1.1118673000000001,-0.35845572,-1.1889181999999998,-0.49813443
1.9909799,7.1260924,0.9254643,-0.17798868,-0.7337713,-0.46938884
2.1985283,5.691219,0.70102227,-0.03213151,-0.31269318,-0.49068186
2.042618,4.843623,0.5196184,0.116361104,-0.15779522,-0.43160248
1.2815588,4.44179,0.48621450000000005,0.30906290000000003,-0.17856464,-0.27883379999999997
1.1424652,4.5138940000000005,0.43947968,0.45811403,-0.21689206,-0.109536864
0.87123084,5.0972266,0.20775925,0.5278399,-0.2578724,-0.021711895
0.51917785,5.853028299999999,0.041410115,0.57094955,-0.45111525,0.054925512999999995
1.1013709999999999,6.5649869999999995,0.31380323,0.60184187,-0.50806534,0.21994638
2.2903986,7.6736746,1.0814801,0.46982518,-0.08061676,0.32695252
3.5106468,8.424468,1.474177,0.45970228,0.56986743,0.5068611
4.1812816,9.010502,1.6253661,0.5911954,1.117098,0.8443728000000001
3.7192006,9.72542,1.8278964,0.7849618,1.3193816,1.1014773000000002
2.7910166000000003,10.466263,2.184872,0.92762506,1.1437143,1.1296992000000001
1.9049034,11.361941999999999,2.3481565,0.96755815,0.98029906,1.0887015
1.2240021,11.595771000000001,1.9749866000000003,0.93401295,1.1043396,1.0929601
1.0336918,11.531682,1.7556394,0.83606505,1.4588508999999998,1.1153177
0.93822056,12.644459,1.6842731,0.6279346,1.7468476000000002,1.1078652
0.6529083999999999,13.901664000000002,1.004789,0.36603045,1.9198621999999999,1.0541091
0.27591738,11.957065,1.26003,0.108384944,1.9512607,1.0125877
-0.19397822,11.531855,2.1191652000000003,-0.11836823,1.8096621,1.0131112
-0.677291,13.568956,2.0438436999999996,-0.29883528,1.5615983999999998,1.0684731
-0.058284447,15.594498999999999,1.3811288000000002,-0.4420221,1.2586966,1.1610978
0.9139913000000001,15.140395000000002,1.2467566,-0.49206066,0.96539396,1.2702332
1.6658664,13.173664000000002,1.5096112,-0.45320964,0.71413636,1.3335712
1.9146622,10.932088,1.5571983999999999,-0.34674457,0.4655491,1.3128191999999999
1.9822841,9.123287,1.1667998,-0.2008874,0.16051793,1.0871133
1.8790174,7.5199003,0.6745711,-0.043319073,-0.0694292,0.7416253
1.638132,6.119388,0.44352108,0.052499502999999996,-0.22593287,0.37220892
1.1400806,5.1095424000000005,0.13381673,0.13765411,-0.21582742,0.10070549999999999
0.5924213,4.524926,-0.23487118,0.18236946,-0.13704325,-0.06482153
0.29708213,4.343465,-0.74680895,0.17065829,-0.24457298,-0.34484217
0.2084871,4.463271,-1.0340462,0.13606587,-0.21209241,-0.551367
0.78788394,5.359449400000001,-1.1231966,0.11103784,-0.10295697,-0.50345767
1.6721104,7.1078677,-1.3691673,0.03864159,-0.18973474,-0.6652846
2.7910264,9.225961,-1.6518939,0.15255924,-0.13543755,-0.8931199000000001
4.1767330000000005,10.429889999999999,-1.6757974999999998,0.12487831,0.13816026,-0.7020238
4.573959400000001,10.4145565,-1.1837125,-0.08909906,0.2797588,-0.42734388
4.820007,10.283747,-0.7377876,-0.13540265,-0.45535640000000005,-0.70095915
4.863150599999999,11.319604,-0.0035146879999999998,-0.22804472,-1.3603271000000001,-1.1465068
4.598246,11.837432000000002,0.40761763,-0.5064247000000001,-1.8873118000000002,-1.3429261000000001
4.677734,11.592054,1.1881177,-0.72363096,-1.9708956000000002,-1.3711481
3.3741677000000005,11.556026,2.056648,-0.8434129000000001,-1.6813105,-1.4009757999999999
2.1279187000000004,12.507760000000001,2.3475627999999995,-0.9243089,-1.1734722,-1.4211867
2.281818,12.036264,3.9608428,-0.984994,-0.7571936,-1.3823357
1.1511034,10.729596,6.3650139999999995,-0.9685007,-0.5900435,-1.3589133
-1.2045133,11.819283500000001,4.3690443,-0.91366243,-0.69012064,-1.3966998
-1.8536868000000002,14.2345915,2.2648667999999996,-0.88226396,-0.99194044,-1.42651
-0.061052144,14.789682,2.1055949000000003,-0.8668178,-1.3097475,-1.2497778999999998
0.952174,13.566763,1.3472651000000002,-0.80719733,-1.543447,-0.9708394
1.1717511,11.326164,1.0500681,-0.58414423,-1.4518696000000002,-0.71160567
1.8356727,8.886185000000001,1.1614368,-0.24666739,-1.0861708,-0.5833065
2.239268,6.8152289999999995,1.0551918,0.09615019,-0.5378755999999999,-0.5391148
2.3569002,5.3142276,0.8125729,0.26382396,-0.20516345,-0.49974012
1.7685201000000002,4.097685299999999,0.71274424,0.28351128,-0.28501227,-0.48642325
1.6784408,3.8707057999999996,0.5889449000000001,0.32450905,-0.41969929999999994,-0.40179226
1.575988,4.0731497,0.0008427590400000001,0.3952996,-0.28448868,-0.2122844
1.2844222,4.963582499999999,-0.47740382,0.47410125,-0.10402162400000001,-0.025429446
1.0879635,6.397641999999999,-0.6746669,0.6007946999999999,-0.13969615,0.20451768
1.8816988000000001,7.475971,0.22980505,0.5688377,-0.17057103,0.3998724
2.90137,7.984260000000001,1.5994704,0.42299798,0.01998402,0.44938737
4.217281,8.379716,2.5162868,0.44162065,0.43839179999999994,0.6388951999999999
4.473901000000001,9.159919,2.587701,0.6465747,0.95209455,0.94445
3.5023627,9.957130000000001,2.1093874,0.8909033000000002,1.2736017,1.1371518
2.833375,10.549772,2.4556273999999996,0.9973684000000002,1.3145993999999999,1.1398221000000002
2.1386924,10.97888,2.9930203,0.99204516,1.3076705,1.1451280000000001
1.3347197,11.134608,2.878041,0.93614227,1.3971186000000002,1.215395
0.72196674,11.536087,2.6289868,0.800408,1.5663981000000002,1.2718214
0.00824563,13.867293,2.0852348999999997,0.56194365,1.7026734000000001,1.2659745
-0.43178950000000005,14.189926000000002,1.0984789,0.28405234,1.7851751,1.2223239
-0.45236048,11.662405,1.9134653000000001,0.03544764,1.7447183999999998,1.2052895000000001
-0.28432579999999996,12.1656275,2.3761303,-0.16838937,1.5717212999999999,1.2510694
0.15787366,14.170916,2.1245953999999996,-0.30307642,1.3800842,1.357011
0.973741,15.190176000000001,1.4441344999999999,-0.37069046,1.1543782,1.4411184
1.5077629,14.056828,1.2244043,-0.39091885,0.8839568999999999,1.442183
1.3614101,11.986121,1.4966441000000001,-0.31852257,0.58744293,1.3857391000000001
1.1893053,10.106241,1.3863481000000002,-0.17957693,0.28455848,1.2750329
1.232085,8.514576,0.8239597,-0.06939429,0.03169518,1.0594323
1.2897469,7.126475999999999,0.32572636,-0.090687305,-0.16683602,0.69053954
1.0516578,5.9078264,0.1856464,-0.08801696,-0.28553587,0.3099181
0.590324,5.0816360000000005,-0.11293928,0.0045727626,-0.27968899999999997,0.10389945
0.14684117,4.641495,-0.57520217,-0.004974188300000001,-0.512324,-0.20429079
0.1394862,4.737043,-0.7375769,-0.09707521,-0.6182479999999999,-0.49387583
0.6338409,5.268192,-0.9347251,-0.19237019,-0.5330759,-0.5439144
1.3067266000000002,6.0096664,-1.0423970999999999,-0.11836823,-0.42182863,-0.45022514
2.003602,7.232040400000001,-1.0492445,0.105732046,-0.34410912,-0.6961595
2.8435837999999998,9.148848,-1.2804861,0.34208453,-0.10508627400000001,-0.75152135
3.6469343000000003,10.609464,-1.5899510000000001,0.18132226,0.1195376,-0.55349624
4.675023599999999,10.583847,-1.6035883,-0.060353484000000006,-0.09443977,-0.56094885
4.892427,11.183105,-0.19121052,-0.13592625,-0.8029736,-0.97242767
4.442019999999999,11.956327,0.61760825,-0.29775316,-1.383732,-1.3535726000000001
4.8544836,11.887814500000001,0.9401168,-0.5335645999999999,-1.6259313,-1.4776132
4.2949486,11.255296000000001,1.5872121000000001,-0.730525,-1.480074,-1.4967768999999997
2.6037805,11.794958,2.1185236,-0.83060217,-1.0105631,-1.511682
2.1733606,12.876342999999999,3.3104627,-0.8556302,-0.5644918000000001,-1.5031648000000002
2.6795904999999998,11.857149,6.159285,-0.86095345,-0.31375784,-1.4515206
1.4028585,11.659753,6.0417013,-0.8338136,-0.42608723,-1.3966998
0.042377368,13.299053,2.8854822999999996,-0.8098502,-0.73694783,-1.3684777
0.7866964,13.907276000000001,1.8388331000000002,-0.77419317,-0.9791646,-1.2609481000000002
2.0023093000000003,13.018241999999999,1.5087492,-0.7039262,-1.1713428,-1.0879510000000001
2.178867,11.246149,0.8556398000000001,-0.56923914,-1.2245754,-0.9208008
1.761711,9.080200999999999,0.69791937,-0.3296927,-1.0643367,-0.8090125
1.9017624,6.952398,0.77369106,-0.012426743999999998,-0.7795513000000001,-0.74778634
2.050854,5.2521510000000005,0.87053174,0.21432643,-0.5117829,-0.6924245
1.7663175,4.0968714,0.86424935,0.3042807,-0.3249454,-0.5327443000000001
1.1677958000000002,3.7214419999999997,0.6416269,0.39318776,-0.2669132,-0.32033774
1.0427228000000002,3.9467745,0.5125411,0.45973718,-0.3451563,-0.13667673
1.2054327,4.759625,0.06337931,0.46026078,-0.6102718,-0.071733035
1.3768862,5.7609377,-0.039753325,0.48207740000000004,-0.9600009,-0.037664205
1.7379221999999999,7.1227407000000005,0.06659711,0.5475621,-0.9711885,0.08953539
2.56849,8.270052,0.90382075,0.45067890000000005,-0.39467129999999995,0.24230406
3.314035,8.651964999999999,2.1592443,0.40435788,0.4314803,0.42596504
3.7782898,9.3083315,3.0172784,0.51934016,0.9930749,0.7719766
3.2781792000000003,9.849153,2.7408438,0.65561545,1.1921645,1.1174645
2.2349777000000004,10.187634,2.480412,0.72909385,0.9552885,1.2175417
1.3797784,10.981858,2.449728,0.7839146,0.6103416,1.191449
0.7921838999999999,11.666628999999999,2.0260884999999997,0.82489496,0.5901133000000001,1.166962
0.7327119000000001,11.509847,1.9467541000000002,0.80786055,0.90844387,1.1722853000000002
1.0632075,11.520085,2.1379645,0.69926614,1.2794659,1.1451453999999999
1.4179325,12.992701,1.6369156999999999,0.48314205,1.508907,1.0913718000000001
0.93643934,12.039502,1.0368617,0.20954423,1.5270059999999999,1.0663613
-0.078386165,11.207583999999999,2.4339457,-0.0033684855,1.4264052,1.106818
-0.9286438,12.585255,2.626286,-0.16786577,1.2017639,1.1866668
-0.7943099,14.992251999999999,1.6479578000000001,-0.29616493,0.96912897,1.2707742
0.38022795,15.990767499999999,1.1731013000000001,-0.37599629999999995,0.7556752,1.3266597
1.304227,14.492170000000002,1.9864596,-0.39835393,0.5571090999999999,1.3149486000000001
2.0823903,12.101291,2.5085392000000004,-0.3403392,0.3920882,1.2558692
2.2425914000000002,9.818497,2.2335796,-0.23546237,0.23719025,1.1376928999999998
2.1147316000000003,8.000149,1.4125789,-0.11569787599999999,0.06897541,0.87578875
1.6904693,6.5482949999999995,0.68971205,-0.004974188300000001,-0.10667452,0.5585228
1.059396,5.4601207,0.25034732,0.056758105999999996,-0.21793926,0.32217032
0.5108173,4.8686185,0.08989748,0.09508554,-0.29937634,0.0980526
0.26643634,4.5602746,-0.34048423,0.12754866,-0.4510978,-0.20961404
0.45350012,4.6532364,-0.6911486,0.1717404,-0.5389228,-0.53537977
1.0287789,5.065039,-0.87005293,0.1892984,-0.37763688,-0.5652074
1.8131960999999999,5.923705,-0.9603526,0.14725342,-0.23710299,-0.72064644
2.5582333,7.2422304,-1.0169995,0.35273105,-0.13117895,-1.1406598999999997
3.3911089999999997,8.527208,-1.0770747999999999,0.42353904,0.28562313,-0.9234537
4.080054799999999,9.065013,-0.9864110999999999,0.10999065,0.69231975,-0.42200315
4.280823000000001,9.435769,-0.7316968,-0.020402899,0.13285446,-0.5950177
4.4925857,10.856728,-0.49897079999999994,-0.06885324,-0.9637184999999999,-1.1715174
4.876194,12.184619,0.18556978,-0.37812558,-1.7568834,-1.4967594
4.964185700000001,11.664465,1.2481836000000002,-0.68741536,-2.1194057,-1.5244578000000002
4.4914556,11.157373,2.3447855,-0.8471129999999999,-2.0911836999999998,-1.5287164
3.3382737999999996,13.065273,2.2396990000000003,-0.92802644,-1.8095921999999998,-1.535628
4.076368,13.273310999999998,3.7611184,-0.98923516,-1.352316,-1.5031648000000002
3.451663,11.058502,7.398983500000001,-0.9881705,-1.0073691999999999,-1.4179926999999999
-0.54384774,11.85418,5.432664,-0.8987398000000001,-0.883346,-1.3977469
-2.3397669999999997,14.461886999999999,2.1967182000000003,-0.7757814000000001,-1.0036516,-1.4206456
-0.23574267,14.91579,2.3091884,-0.7300014,-1.2719436000000002,-1.3040576000000001
0.8561857,13.762293,1.3956951000000002,-0.7555529999999999,-1.5237421999999998,-1.0033026
0.53044975,11.572814,0.728115,-0.6501526,-1.6360542,-0.7025474
0.97512966,9.302633,1.0617326,-0.3509857,-1.3778676,-0.52686256
1.6494613,7.4516845,1.1028746,0.016301375,-0.9674535,-0.5156924
1.9141451,5.8102293,0.9137709999999999,0.2515892,-0.59269637,-0.58861226
1.9396672,4.732475,0.8983523999999999,0.32559118,-0.38348374,-0.5652074
1.6822810000000001,3.941354,0.9840456,0.3703065,-0.31321678,-0.40975094
1.6426235,4.051238,0.81250584,0.4118279,-0.28340656,-0.22291344
1.3237828,4.4827213,0.30527988,0.45441392,-0.38667768,-0.10845476
0.8763928,5.51829,-0.31987494,0.54543287,-0.61238366,0.022462387
1.4002344999999998,6.678520699999999,-0.41675392,0.57365483,-0.6219655,0.20877628
2.690259,7.9332924,0.6512324,0.45813146,-0.14287265,0.2822372
4.033387,8.705987,1.9407878,0.47518334,0.48631853,0.47921506
4.853238,9.384476,2.5185852000000004,0.6167644,1.036743,0.9055989999999999
4.5744095,10.080297,2.5541918,0.7770031,1.1330853,1.2505458999999999
3.1946887999999998,10.220847000000001,2.742079,0.8898560999999999,0.77855647,1.3442352
1.8166723000000002,10.574366,2.8370237,0.93457144,0.45490262,1.3261361
1.0948014,11.174094,2.3701065,0.95001763,0.46289623,1.339453
0.85839796,11.486757,2.1100385,0.9015673000000001,0.718936,1.3591403
0.62344056,12.923547,1.8223418000000002,0.7738092,1.060689,1.3346533
0.44712195,13.917839,0.9286438,0.55342644,1.2965178,1.2319232
0.29256186,11.606333,1.6910342,0.2978928,1.2847892,1.1334343
-0.42236590000000007,11.390836,2.6370025000000004,0.051434852,1.0990163999999998,1.0860486
-1.3735535,13.205229999999998,2.1732744999999998,-0.16784832,0.80197877,1.0999063999999998
-0.90950936,14.779579,1.3998706,-0.32063442,0.52197564,1.1770848999999999
0.14492582,14.476273,1.1378205,-0.40634754,0.14350097,1.2500223
0.95133126,12.817005,1.4531751,-0.41912335,-0.17587683,1.2713152
1.3903511999999998,11.020549,1.6530334999999998,-0.36163223,-0.34835026,1.195184
1.6357761999999998,9.235192,1.4854969,-0.23652703,-0.34302699999999997,0.968937
1.8254255000000001,7.7154202000000005,1.1912302,-0.07737044,-0.18439403,0.58885664
1.6923271,6.314496,0.84623533,0.027488936000000002,0.011484266000000002,0.1795071
1.0976169,5.240141400000001,0.45275313,0.04452335,0.21322687,-0.06321582
0.5675406999999999,4.627293,-0.043823466,-0.08588765599999999,0.2446428,-0.26869345
0.22354183,4.363758,-0.5745701,-0.22800982,0.04075344,-0.51621604
0.36018372,4.636524700000001,-0.8556014999999999,-0.30892327,-0.21580996,-0.6072524
0.98047346,5.4747925,-1.0512652,-0.34140384,-0.35260886,-0.5204746
2.0661578,6.8822,-1.1167323999999998,-0.14709635,-0.38615409999999994,-0.61096996
3.6734235,8.747513,-1.1658325,0.2425484,-0.27169540000000003,-0.71265286
5.223008,10.381766,-0.9308752,0.23296654,-0.07527605,-0.5465673000000001
6.3279805,10.856651,-0.5133168,0.0024783674,-0.2498788,-0.54550266
6.266191,11.033334,-0.2928779,-0.15987216,-1.0813711000000001,-0.9362295
5.653965,11.728667,-0.17484376,-0.45690975,-1.7600772,-1.3152453000000002
5.2691684,11.5907135,-0.0025953148000000003,-0.8295375,-1.9570377,-1.4866540000000001
4.462064,10.771657000000001,0.7670543000000001,-1.1196462,-1.9022168999999998,-1.5515976999999999
2.8542044,11.088946,1.3418447,-1.3000958,-1.7238791,-1.5648971
1.8900115000000002,12.345882000000001,1.5772808999999999,-1.4055136000000001,-1.2596914,-1.5132703
1.8306448,11.417622,4.9268556,-1.3874146,-0.8258549000000001,-1.4616434999999999
0.8890819999999999,11.980595,6.0238304000000005,-1.3054364999999999,-0.72045445,-1.4877187
-0.5551771,13.922359,2.9810205,-1.2319756000000002,-0.82105523,-1.4728135
-0.029036878,14.625210999999998,1.8359599999999998,-1.2064238999999999,-0.95520127,-1.3072691
1.2375915000000002,13.858913000000001,1.6965122,-1.1153876,-1.1468383999999998,-1.119873
1.5164874,11.9515295,0.96350336,-0.88755226,-1.2533035,-0.94687605
1.5370678999999998,9.540050500000001,0.70808995,-0.53888786,-1.1857069,-0.77812016
1.739397,7.450506699999999,0.77697587,-0.1540253,-0.99139935,-0.67113143
1.8236346,5.7729473,0.7434666999999999,0.12330751,-0.69968504,-0.59606487
1.9104389,4.5506687,0.6298283,0.23828979999999997,-0.4851666,-0.5178217
2.0857615000000003,3.945175,0.7080133000000001,0.32452652,-0.36964327,-0.39751620000000004
2.0891805,4.2514224,0.3036997,0.39320523,-0.25040239999999997,-0.21491985
1.816701,4.8630834,-0.17462349,0.46612507,-0.258396,-0.05256932
1.4760541,5.804043,-0.6658275,0.61250585,-0.3792426,0.14330898
2.0437481,6.798795,0.08243716,0.68917817,-0.27169540000000003,0.3456101
2.3067653,7.654914,0.9510630999999999,0.695025,0.20258036,0.5297772
2.9307997,8.413991000000001,2.2598295,0.75783944,0.6593156,0.8182976
3.6310269999999996,9.028765,3.0927436000000004,0.8408822,1.0244908000000001,1.0945833
3.6661453,9.876542,3.1899290000000002,1.0133556000000001,1.1299086999999999,1.1786907
3.1558259,10.407432,3.3230274,1.146978,1.0729412,1.2186063999999999
2.3090446,10.894575,3.4839559999999996,1.192217,1.1655657,1.314966
1.3119267,10.865807,3.2299599999999997,1.1815704,1.3886014,1.4565645
0.69673187,10.697255,3.0624232000000005,1.0820343000000001,1.6840506999999998,1.541213
0.32722992,11.948493,2.764738,0.8882679,1.9438255000000002,1.5694175
0.24252306,13.049338,1.7806827,0.6402042,2.0098338,1.5353487
-0.7087603,11.401601,2.4601667000000003,0.36924186,1.8810111,1.5113853000000002
-1.0952036,11.927405,2.3224424999999997,0.13395402,1.6462468999999997,1.5230964
0.020475212,14.490255,1.8942348999999998,-0.03530801,1.3098347,1.5385426000000002
1.0231382,15.6327095,2.0901763,-0.16200146,0.89460343,1.5475835
1.1654973999999998,14.147491,2.202905,-0.23759167,0.5411393,1.5199025
1.4813118,12.105744,2.3692157000000003,-0.23492132,0.2574186,1.4278189
1.5924793,10.26535,1.885003,-0.15667820000000002,0.06471681,1.2542808
1.6291393,8.772307000000001,1.2536902,-0.029443703999999998,-0.031084314,0.9396853000000001
1.5247233999999998,7.310063,0.83907187,0.08817403,-0.04865978,0.5239304
1.1521473,6.0218004999999994,0.3853228,0.13981833,0.0050963615,0.1704663
0.63831335,5.0582400000000005,-0.100163825,0.09616764,-0.0055326936,-0.12070697
0.27074590000000004,4.620263,-0.33456573,0.038135443,-0.12103858599999999,-0.36451203
0.27275705,4.609863,-0.59535176,-0.06616543,-0.40903535,-0.5880711999999999
0.6084337,4.9685526,-0.9800138,-0.18435913,-0.5586101,-0.59554124
1.3843944,5.611482,-1.1566963,-0.21895155,-0.5857674,-0.64290947
2.4333517999999996,6.822105400000001,-1.1931934,0.12545426,-0.49153706,-0.8505164000000001
3.8623934,8.7797,-1.2009698,0.39214057,-0.14287265,-0.8292234
5.2081933,10.44165,-1.0919666000000001,0.18345156,0.13550736,-0.5832890000000001
5.575406,10.881053,-0.8575934000000001,-0.017208947,-0.34463271,-0.724364
5.645844,11.344044,-0.5458588000000001,-0.14870206,-1.3427341,-1.1693879999999999
5.488679,11.899699,0.012555193999999999,-0.4632802,-1.9852421999999998,-1.4722725
4.833433599999999,11.586596,0.8652358,-0.7954687,-2.1556040000000003,-1.5670263999999998
3.6963312999999993,11.161893,1.1868825,-1.023304,-2.029975,-1.6064185
2.69001,12.314002,1.1728045,-1.1830016,-1.758489,-1.6293171999999998
2.5376623,12.372314999999999,2.977343,-1.2830788,-1.3288937,-1.5782139
2.3144270000000002,11.429861,6.391771299999999,-1.3288587,-0.928585,-1.4909126
0.6248196,12.076698,4.8986325,-1.2772145000000001,-0.75717616,-1.4775957
-0.4359554,14.028326999999999,1.952462,-1.1920425,-0.92273813,-1.4792014
0.63361114,14.532708999999999,1.4416541999999999,-1.1382862,-1.0265329,-1.3721954
1.4707485,13.527766,0.99237746,-1.0786659,-1.1159636,-1.2210149
1.5478418,11.462912,0.36643735,-0.91790354,-1.0733774999999999,-1.0581234
1.5785928999999999,9.112053999999999,0.44810838,-0.6570640999999999,-0.9557423,-0.92930055
1.9643276,7.1181345,0.6244653,-0.27378979999999997,-0.660293,-0.83028805
1.821748,5.5098910000000005,0.48139733,0.0450644,-0.44416884,-0.71052355
1.6983796000000002,4.401165,0.39291725,0.1531352,-0.35845572,-0.5747718
1.8728498,3.8916410000000003,0.4778731,0.17921041,-0.40371209999999996,-0.44381976
1.9872162,4.3154435,0.44898945,0.22924899999999998,-0.38028979999999996,-0.30754447
2.1870553,5.094344,-0.03659298,0.35541886,-0.2764776,-0.12548918
2.0636678,6.169072,-0.48230714,0.5651376,-0.24562019,0.10711086
2.590143,7.3381515,-0.09424535,0.72218233,-0.20994565,0.36636207
2.9006232999999995,8.400948,0.61984926,0.6471157,0.038624137999999995,0.48825586
3.4900184000000003,9.204172999999999,2.0940166000000002,0.6423335,0.51187015,0.6862809
3.7136462,9.697407,3.4823282,0.7253763000000001,1.0974281000000001,1.0056762
2.9949355,9.97322,3.387374,0.8957204,1.4615387,1.2819618
2.340045,10.286209,2.7027664000000002,1.0820343000000001,1.3630673,1.38258
1.9457486000000002,10.798501,2.5187385,1.1618831,1.1208504,1.40972
1.441386,10.929482,2.601779,1.1624242,1.1197858,1.4634935
0.7945781,10.782863,2.9634185,1.0884222,1.4285345,1.540672
0.24149834,11.3545685,2.8716917,0.92605424,1.7915804,1.5747408
0.23000616,12.875069,1.5483494,0.6854606,2.0487025,1.5550535
-0.08103894,11.349339500000001,1.3800466,0.41716859999999995,2.067866,1.5231139999999999
-0.62653387,10.444686,2.0057952,0.16536994,1.8586534,1.4996916
-0.34805948,12.418074,1.7044034,-0.048066366,1.5030601000000001,1.4906333999999999
0.24003308,15.031305,1.4105295,-0.19978784,1.100622,1.5039327
0.7150523,15.047691,1.4856979,-0.28763026,0.68966687,1.491698
1.1581328000000002,12.943522999999999,1.7470202000000001,-0.30571187,0.32662090000000005,1.3996145
1.5468841999999998,10.828457,1.7715081999999998,-0.23226842,0.058869954,1.223406
1.6722158,9.085353999999999,1.4246458,-0.09705776,-0.082187556,0.9646958000000001
1.7195731,7.71678,0.9850799000000001,0.050911255,-0.12796754,0.634113
1.4628763,6.4908529999999995,0.57731867,0.16111134,-0.082187556,0.3376165
0.98835516,5.534772,0.16296852,0.14034192,-0.052377332,0.08529424
0.5311104999999999,4.9297566,-0.33249715,-0.008150687,-0.12157963,-0.2181138
0.30615136,4.772496,-0.7558782,-0.0853466,-0.2647839,-0.54337335
0.5170901,5.1090155,-1.0434984,-0.12100368,-0.42765802,-0.7057239000000001
1.2112937,5.945272,-1.2912504999999999,-0.19392353,-0.4372399,-0.58861226
2.215259,7.151911699999999,-1.4112383,-0.148161,-0.5623451,-0.5795715
3.3965678,8.7256775,-1.3132386999999999,0.13343042,-0.5793795,-0.7467216999999999
4.483497,10.084905000000001,-1.1877921999999999,0.23191935,-0.32545155,-0.7270169
5.0535087999999995,10.723668,-0.9419843000000001,-0.0012217305,-0.18385299,-0.63226295
5.076397,11.153408,-0.78835315,-0.14974925,-0.63952357,-0.8946907
5.121887,11.816391000000001,-1.081844,-0.29401818,-1.3267643,-1.2801118
5.5886892999999995,11.977664,-0.44637498,-0.5612281,-1.7483661,-1.4994123
5.0932617,11.580553,0.8978448,-0.81300926,-1.7834995999999999,-1.5723497
3.313508,11.30429,1.7387747,-0.994541,-1.4843327,-1.6181296
1.592393,11.510709,1.7276751000000001,-1.1217754999999998,-1.0451555000000001,-1.6442048999999999
1.5742451000000002,10.759456,4.1092830000000005,-1.1824605,-0.6251595,-1.5931016000000002
1.7945596000000001,11.070453,5.7606883,-1.1808549,-0.37922513,-1.546798
0.9717872999999999,12.915273,3.594214,-1.1265577,-0.44682175,-1.546257
1.0494073999999998,14.661985999999999,1.6141516000000002,-1.0701312,-0.6043900999999999,-1.5079296
2.2410781,14.281614000000001,1.8569811999999999,-1.0935535,-0.83435464,-1.3306738999999999
2.5404970000000002,12.826427,1.2296045,-1.0600257,-1.1132932,-1.1289139
2.2385497,10.658813,0.69820666,-0.8577421000000001,-1.1974006000000001,-0.9388824
2.2614574,8.508312,0.63063276,-0.47020915,-0.97275925,-0.8340056
2.4264371,6.667669999999999,0.66686183,-0.03635521,-0.52454126,-0.79141957
2.211639,5.0967,0.65563774,0.21914354,-0.09335766,-0.6599439
1.7718912,3.9934137,0.6913209,0.2681175,0.0040317103000000005,-0.46457174
1.647747,3.799924,0.7217273,0.33199653,-0.13116150000000001,-0.29529226
1.6624953999999998,4.2229023,0.24251348,0.43633232,-0.16310102,-0.12229522
1.459898,4.8485937,-0.3748745,0.5619611,-0.23123868,0.05496042
1.3838198,6.266708,-0.9155044,0.7067536,-0.42819908,0.2700199
2.070927,7.711810000000001,-0.1911435,0.7008893,-0.34196237,0.43610543
2.7458047999999997,8.072807000000001,1.2086217,0.67587876,0.17437585,0.5782276
3.8439577000000007,8.446944,2.6435626,0.76796234,0.7359879,0.8853880999999999
4.1758614000000005,9.104737,3.137927,0.8786860000000001,1.2539318000000002,1.2734444999999999
2.9141743,9.618639,2.3229406000000004,1.0336014,1.5174416000000002,1.4624288
1.7108869999999998,10.105696,2.2658627,1.1874348,1.4594094,1.4853101
1.2716945,10.7265215,2.8616648,1.2662189,1.3231341,1.5209846000000002
0.76779175,11.005772,3.1084015,1.2289736,1.382231,1.5944456
0.15964536,11.141456,3.0625287999999995,1.086834,1.647329,1.6253203999999999
-0.06567774,12.656622,2.4580119,0.86166906,1.9273322,1.5987041000000002
0.3760429,13.437275,1.2934148,0.5837952,2.1732664,1.5662235
-0.36938703,11.179888,2.6061077,0.31602678,2.272279,1.5662235
-1.0869293,11.057572,2.4613254,0.06848672,2.0625430000000002,1.5832579
-0.27833074,13.609303,1.3094751,-0.14336134,1.6744689,1.6146738999999999
0.95929915,16.174383,0.67731005,-0.30092967,1.2422206,1.6434195
1.3268282,15.610970499999999,1.1421683,-0.408983,0.84777623,1.5885812
1.2342396999999998,13.201303,1.6173024,-0.44464007,0.5081526,1.3996145
1.549556,10.961058,1.5238136,-0.4148473,0.20153317,1.1196113
1.9539368000000001,9.019274000000001,1.1636203999999999,-0.27164304,-0.012444196999999999,0.85344857
1.9935081000000001,7.38232,0.80954665,-0.08213519,-0.11571533,0.5574756
1.5199733,6.027249299999999,0.5899791999999999,0.08765043,-0.15777776,0.3040887
0.99006945,5.162234,0.2754864,0.1616524,-0.33503342,0.028885199
0.45707226,4.631554599999999,-0.35702336,0.12119567,-0.63526493,-0.35597736
0.2721058,4.602469999999999,-0.80116695,0.04612905,-0.7848571,-0.77599084
0.67184174,5.051746400000001,-1.1782153999999998,0.087126836,-0.6986204,-0.93940604
1.6869162,5.6768627,-1.4175494,0.13130112,-0.46013859999999995,-0.87339765
2.751225,6.652825999999999,-1.4857745,0.24682446,-0.13700834,-0.82281804
3.6833262,8.218241,-1.5633276000000003,0.53160983,0.34206709999999996,-0.7504392
4.4564424,9.773773,-1.1988918,0.5135282,0.8855626,-0.5087635
4.697394999999999,10.252680999999999,-0.9355582,0.36233035,0.814231,-0.42572072
4.6565785,10.752369,-0.716642,0.27717572,-0.21739821,-0.81964153
5.270002,11.587648,-0.83380467,0.00408407,-1.267144,-1.2444372
6.1469307,11.735486,-0.541511,-0.4025951,-1.8819711,-1.4312747
6.552787,11.174553999999999,0.82947594,-0.7012384,-1.9820483,-1.5249814
5.0410775999999995,11.394476,2.0692225,-0.8981988000000001,-1.7201442,-1.6372933
3.8032756,11.851413,2.2048776,-1.0424503,-1.3587038999999999,-1.7602518
3.3729322,10.8366165,4.4407845,-1.1547797,-1.1111639,-1.7810211999999999
2.2509707999999997,10.313665,5.5120845,-1.1728787,-0.81944954,-1.7341766
-0.2507591,12.010877,3.0457025,-1.1414628,-0.90516263,-1.765575
-0.69462496,13.632575,1.6523918000000002,-1.1020707,-1.3783913,-1.6734915000000001
0.7352880999999999,13.668018,1.0851766999999999,-1.055767,-1.7361138999999999,-1.3338678999999998
0.8516367,12.752438,0.18813637,-0.9807005,-1.7898875,-0.93462384
0.6129730999999999,10.75733,0.25421634,-0.80822706,-1.4284298,-0.6599439
1.34761,8.632419,0.677176,-0.48404962,-0.8407425,-0.55826104
1.9742205000000002,6.914291400000001,0.7131369000000001,-0.07361799,-0.35473818,-0.56145495
1.9603628,5.580376599999999,0.54501605,0.13449506,-0.059829887000000005,-0.47043604
1.1733886999999998,4.6316695,0.26303658,0.17390461,-0.023631757000000003,-0.339484
1.192006,4.547135,0.29638302,0.23457225,-0.22059216,-0.18989182
1.1260027,5.027,-0.07528328,0.342102,-0.41116467,-0.062133722
0.9980851999999999,6.2390695,-0.42830354,0.45282567,-0.5729916,0.06880088
1.5734694,7.152706599999999,-0.640018,0.5140518,-0.59800214,0.18538888
2.6896174,7.852924300000001,-0.4942973,0.39746383,-0.26265459999999996,0.25722662
4.0156220000000005,8.34725,0.32100500000000004,0.31815606,0.3548429,0.3456101
4.8613596,8.601428,2.0226599999999997,0.47572440000000005,1.0516481000000002,0.65062386
4.547604,8.974273,2.8843045,0.75466293,1.5781266999999999,1.0168636999999998
3.0462002999999997,9.260589999999999,2.2091392999999995,0.9510823,1.799033,1.2580159
1.6315719,9.798836,1.850536,1.0096380999999999,1.713861,1.297408
0.8108681999999999,10.874292,1.8217288,1.0240196,1.6254950000000001,1.311772
0.4630003,11.725545,2.0944955000000003,0.9798278,1.7303718000000001,1.3517052
0.57090217,12.340645,1.9598265,0.82332414,1.9044335,1.3495758999999998
1.5285158,14.095077499999999,1.0459309,0.56567866,2.0220861,1.3011255
1.4941447,13.520987,0.5469984999999999,0.28195795,2.070519,1.2383110000000002
0.7774069,11.309403999999999,1.8602947,0.02963569,1.9353083,1.2069126000000001
0.48701890000000003,12.1437645,2.4822509999999998,-0.18008307,1.6792685,1.2404403999999998
0.43119574,14.29326,1.8930378,-0.3333928,1.3726491000000003,1.3351943000000002
0.89950156,15.181422,1.0319488,-0.44411647,0.9856398000000001,1.4219722
1.5219462,13.790142999999999,1.1061691,-0.4909611,0.64283967,1.431554
1.4509149,11.651957000000001,1.5268399,-0.44518113,0.30373964,1.3399940000000001
1.5070255,9.868555,1.3528388999999998,-0.29080677,-0.06674139,1.1728438
1.5978136,8.416242,0.7905845,-0.09011135,-0.36325538,0.87261224
1.3829867,7.0293092999999995,0.41594946,0.12918927,-0.36430258,0.51223665
1.0405105,5.9250073,0.30452332,0.32452652,-0.21526891,0.2790607
0.48441404,5.0115237,-0.11878113400000001,0.32719687,-0.09389871,0.078906335
-0.038853105,4.525549,-0.522319,0.22870794,-0.008203047,-0.13454743
-0.13623965,4.5805387,-0.8646707,0.16697565,-0.14819591,-0.31871456
0.32503682,5.212081400000001,-1.1900043,0.09351474,-0.41648793,-0.43582615
1.2648663999999998,6.1102233,-1.3512586000000002,0.08445648,-0.5415757,-0.6349159000000001
2.3665345,7.443428999999999,-1.5165926,0.33145547,-0.34567990000000004,-0.8552985999999999
3.7221792000000002,9.98702,-1.7379509999999998,0.37723547,0.04181809,-0.76482075
4.999917,11.883399,-1.484156,0.13236576,0.30532790000000004,-0.5380501
5.0126157,11.203014999999999,-0.47961605,0.009389871999999999,-0.15032521,-0.70146525
4.5933237,11.009535000000001,-0.27398288,-0.08319984400000001,-0.9520073,-1.0895218
4.8719997,11.747667999999999,-0.52674353,-0.3392571,-1.5215955,-1.3748657
4.4718704,11.299081,0.61195797,-0.5622927,-1.7212087999999999,-1.454697
3.4153477999999997,10.873266000000001,1.6382468000000001,-0.6873979,-1.5892096000000002,-1.4781368000000001
2.7350497000000003,11.883429,1.7962642,-0.7603352,-1.3107946000000001,-1.4807896999999999
3.0550015,11.812828,3.9649989999999997,-0.8199556999999998,-1.0808301000000002,-1.4531087999999999
2.4307852000000003,10.769847,6.6916595,-0.8598714,-0.97862357,-1.4211693
0.42037395,11.821477,4.6600075,-0.8455073000000001,-0.9418844000000001,-1.3615488000000002
-0.37949055,14.444545000000002,2.1957223,-0.78004,-1.0025870000000001,-1.3572901000000002
0.76701605,14.571101,1.6804806,-0.8023802,-1.1457738000000002,-1.2625363
1.6058868,13.383837,0.9104287,-0.82154393,-1.2389219999999999,-1.0506707
1.4293864,11.153887,0.5495363,-0.7012384,-1.2538445,-0.78185517
1.3485771,8.83538,0.77258974,-0.46436229999999995,-1.1148989,-0.56573105
1.5252596999999999,6.897896,0.80404955,-0.22959806,-0.75132936,-0.46352455
1.5925081,5.521546400000001,0.6583384,-0.052342422,-0.34356806,-0.47949430000000004
1.4593903999999998,4.611212999999999,0.51195693,0.058904864,-0.17268288,-0.41400954
1.4787356000000003,4.1912894,0.42023987,0.14140658,-0.25413739999999996,-0.31021482
1.4236785,4.1335893,0.49153918,0.22071433,-0.36644933,-0.19896753
1.5379777000000001,4.8465157,0.24461079999999996,0.32717943,-0.46919686,-0.094631754
1.4907928,6.0765796,-0.29904538,0.45600218,-0.67839205,0.020874137
2.1299297999999998,7.4265075,0.09457097,0.5342627,-0.77740455,0.15130259
2.6663362999999998,8.294224,1.0654963,0.4379031,-0.5224293999999999,0.21411699
3.4687864999999998,9.111719,1.7613279999999998,0.38414696,0.023195425,0.29714229999999997
4.331542,9.874464,1.9438045,0.40863395,0.6731560000000001,0.5718222
4.0249690000000005,10.291965,2.467694,0.5603554000000001,1.2092165000000001,0.89655817
2.6581001,10.527927,2.5303552000000002,0.8020136999999999,1.4295992,1.0887189
1.7345034,11.0074,2.3402363999999998,0.9393710999999999,1.3210046999999998,1.0993655
1.0657166,11.340634,1.9643085,0.98035145,1.2246451,1.0860486
0.7671979999999999,11.4707155,2.0273526,0.94841194,1.3593322,1.1121413
0.82807773,12.147117,1.8556979,0.80786055,1.6132427,1.1169235
1.3592075000000001,13.767167,0.9142306999999998,0.58163095,1.8283021000000002,1.0668848999999998
1.2242606000000003,12.252423,0.9579296999999999,0.33569664,1.8756878000000001,1.0152581
0.4098585999999999,10.156433999999999,1.8865926,0.108926,1.7479297999999999,1.0035468
0.19975303,11.166767,1.6411103,-0.0832173,1.4982604,1.0354863
0.56049216,13.790870000000002,1.4284956,-0.24291493,1.1517253,1.0983008
1.1559494,15.380486,1.0875517,-0.3451214,0.7753625,1.1547273
1.5497188999999998,14.082637,1.2222111,-0.38823104,0.35856044,1.1643091
1.5419617,11.856603999999999,1.688075,-0.3797313,0.01680752,1.0961715
1.4958016,9.825497,1.5931305,-0.26741934,-0.14660765,0.9258273000000001
1.5169948,8.193906,1.0550481000000003,-0.077911496,-0.08592256,0.6718994
1.2805436000000001,6.8728240000000005,0.72375757,0.10732029400000001,0.15519467,0.45683992
0.7064332,5.639485,0.39597222,0.1653525,0.31489229999999996,0.32217032
0.16893488,4.858745,0.07156747599999999,0.10733775,0.29839894,0.17205456
-0.11870452,4.4918385,-0.35314474,0.046635196,0.05778785,-0.06801548
-0.054281342999999996,4.5961013,-0.7955262,0.020018926,-0.20783381,-0.29850367
0.52817047,5.270413400000001,-1.0675746000000002,0.0024609142000000003,-0.27117179999999996,-0.29691540000000005
1.5719275,6.678396,-1.4046016000000001,0.0072431164,-0.31642818,-0.31873202
2.8565125,8.387386,-1.5461753999999999,0.1733461,-0.29352948,-0.6232222
4.135658,10.145296,-1.2430024,0.27394688,-0.1263793,-0.71371746
4.976262,10.842392,-0.6541916999999999,0.016301375,-0.014067353999999999,-0.547632
4.582933000000001,10.79716,-0.37700057,-0.20460495,-0.4532271,-0.66847855
4.449959,11.5868635,-0.6546321999999999,-0.30255282,-1.2107348,-1.0788927
4.4168997,12.300077,-0.34993652,-0.53944635,-1.6797049,-1.3583723
4.4464445,12.029053999999999,0.56998277,-0.7709991999999999,-1.8388789,-1.4472793
3.4922303999999995,11.270379,1.5589604,-0.9099273999999999,-1.7308081000000002,-1.4744191999999998
2.1448982000000005,12.181085000000001,1.884773,-0.9738239,-1.3986370000000001,-1.4802834999999999
2.0124988999999998,11.925194,3.041144,-1.0254507,-1.0717893,-1.4398093
1.9569343000000001,10.667807,5.6731377,-1.026498,-0.8199905999999999,-1.3998936000000002
0.14999194,11.516943,4.372895,-1.0078927,-0.8375661,-1.3924412
-1.0460075,13.596471,1.6593255,-0.9429315999999999,-0.8093615,-1.3243035
0.524809,13.970741,1.4424683,-0.8359429,-0.78752744,-1.1513064
1.7140090000000001,12.850648,1.322557,-0.7566351,-0.731642,-0.890467
1.7252617,10.928649,0.9023363000000001,-0.5995904000000001,-0.72684234,-0.6844483
1.6405836,8.751064999999999,0.8648239999999999,-0.3509857,-0.68692666,-0.5801125
1.8340733,6.957942999999999,0.6629161,-0.058224183,-0.5527807,-0.58756506
2.186117,5.618023,0.5225967,0.14458308,-0.36327282,-0.57798326
1.9608033999999999,4.533143,0.32727779999999995,0.21910863,-0.1886701,-0.502393
2.0020697,4.2304296,0.34112585,0.27925268,-0.08433431,-0.36611772
2.0268066000000005,4.2225676,0.09437943,0.35803685,-0.09498082,-0.2149373
2.008898,4.6891875,0.16253756,0.46237263,-0.22806217,-0.045134213
1.7637796000000001,5.7967260000000005,-0.008188169,0.60716516,-0.39786527,0.18961257
2.1448886000000003,7.243485000000001,0.04707958,0.644969,-0.36966074,0.37219146
2.5182597999999996,8.646238,0.86304265,0.5672495,0.03436553,0.44832269999999996
3.1578755000000003,9.475455,1.961512,0.5470210999999999,0.5714732,0.59737384
3.6535518,9.711534,2.8822357999999997,0.6039711999999999,1.0644065,0.8427671
3.2869900000000003,9.967789,2.781641,0.7790975,1.3103409,1.0024648
2.5252795,10.118452,2.5654445,0.9686228000000001,1.2874596,1.0839193
1.5918568000000002,10.450758,2.5015576,1.0623121000000002,1.3236402,1.1744146
0.5751351,10.740925,2.4487799999999997,1.0596417,1.5818268,1.2936555
-0.113762885,10.926763000000001,2.6273777000000003,0.97342247,1.9140153000000002,1.3665928
-0.22651063,12.383424,2.2623386,0.7812443,2.1242752,1.3969266000000002
0.25659138,13.992586,0.8150149999999999,0.5299866999999999,2.1684494,1.3724396
0.026451139,12.290683,1.4430332000000001,0.27127653,2.10937,1.3798921999999998
-0.25365132,11.801614,1.8210202000000002,0.031712633,1.8479896,1.4245901
0.21095789999999998,13.753855999999999,1.476485,-0.16734217,1.5030427,1.4927451999999999
0.73114127,15.473544,1.4760158,-0.30948177,1.145861,1.5438484
0.8440423,14.898772,1.6902776999999998,-0.41542327,0.7732158,1.5092386
1.1354166,12.942604,1.878414,-0.4675737,0.36812484,1.3772218
1.3420075,10.722451,1.8658301,-0.40369466,0.029565877999999997,1.2372290000000001
1.3940479,8.977613999999999,1.4689769,-0.24986133,-0.19612265,1.0743200000000002
1.2596375,7.374888400000001,0.92115474,-0.04173082,-0.27384216,0.8491549999999999
0.7728003999999999,6.1755176,0.49804184,0.14617133,-0.25148448,0.6159965000000001
0.15600619,5.355159,0.09330683,0.13871877,-0.29991737,0.33759904
-0.24427559999999998,4.964444,-0.40538624,0.048747044,-0.45057420000000004,-0.037681658
-0.22472936,4.8883185,-0.82520473,-0.024678955,-0.5650329000000001,-0.37782887
0.24216871,5.098108,-1.0602004999999999,-0.028955012999999998,-0.6544635999999999,-0.5529727
1.0908556999999999,5.5047107,-1.3804872,0.013613568000000001,-0.558645,-0.48855257
1.9622206999999998,6.2453613,-1.4760733,0.017348573,-0.40425315,-0.53859115
2.7409682,7.946297599999999,-1.4617847,0.281382,-0.18388788,-0.67594856
3.6055623999999997,9.97568,-1.3377267,0.34473744,-0.03694862,-0.62269855
4.277260299999999,10.66116,-0.81195045,0.09985029,-0.03536037,-0.55777234
4.2918652999999996,10.914821,-0.6156545999999999,-0.10241592,-0.64434063,-0.89791954
5.2512126,11.625707,-0.8888521999999999,-0.28872982,-1.4790268999999998,-1.360519
5.798067,12.020961,-0.14042471,-0.61557764,-1.9533376,-1.62827
5.372253400000001,11.332522,1.0383652,-0.87535244,-1.970372,-1.7086598999999998
4.1485195,11.508391,1.9041182,-1.0265329,-1.6845044999999998,-1.7272825
3.0022905,12.79222,1.7060698,-1.1047759,-1.1606963,-1.7187653999999999
3.1057775000000003,11.946253,3.274425,-1.1175518,-0.59217274,-1.6708560000000001
2.0612736000000003,10.606773,5.992888,-1.0680368,-0.27490679999999995,-1.6106945
0.32761297,11.876035,3.8054209,-0.9418844000000001,-0.2594781,-1.5734317
0.40982029999999997,13.937835999999999,1.4818864,-0.8151909,-0.50328314,-1.5351044
2.0177567,13.632133999999999,1.2371223,-0.7497235999999999,-0.6778859,-1.2796056
2.660255,12.417709,0.47395617,-0.7465297,-0.77848667,-0.9937381
2.4504273,10.414442,0.10064266,-0.60226077,-0.7449589,-0.77229077
2.4920287,8.270444,0.3200186,-0.34941490000000003,-0.44472733,-0.62856287
2.4554357999999996,6.590969,0.36680126,-0.067282446,-0.022060962000000003,-0.5503023
2.5847514,5.4824634,0.30151618,0.08868018,0.1679705,-0.46247736
2.3752205,4.607478599999999,0.44331998,0.15947074,0.030089477000000003,-0.3528183
1.9746321,4.340592,0.5345103,0.2467721,-0.18334684,-0.2144137
1.7618164,4.70566,0.530421,0.3596251,-0.3015231,-0.06642723
1.3604045,5.3239384,0.22471020000000003,0.49218285,-0.41385248,0.07408923
1.2236094,6.1600704,-0.013235146000000001,0.6092770000000001,-0.7013081999999999,0.20556487
2.1174607000000005,7.2985033999999995,0.34541625,0.6886021999999999,-0.85194755,0.33067009999999997
2.6770047999999997,8.178851,1.5112776,0.60664153,-0.54852206,0.39615482
3.3026195,8.7515545,2.4951892000000004,0.55499727,0.1184555,0.5255012
3.33406,9.457652000000001,2.7853472000000004,0.5837428000000001,0.84189445,0.84329075
2.2835512000000002,9.992727,2.2927353,0.67797315,1.382737,1.1600331
1.1173165,10.311664,2.0298616999999997,0.82808894,1.5099541,1.3149486000000001
0.6302496,11.004976,1.869115,0.94891804,1.3140584,1.3484763000000002
0.34754232,11.539679,2.011618,0.9904219999999999,1.1846945,1.391586
0.16322709999999999,11.67068,2.2827659,0.948377,1.3332222,1.4357777
0.3399479,12.361934,1.960698,0.81742495,1.5743742,1.4544003
1.1096742,13.742335,1.1442848,0.59651864,1.7548238,1.3905213
1.2566781999999999,12.329497,0.8687121999999999,0.33567917,1.8128561,1.3096077
0.31687740000000003,10.072645,1.8736064,0.08759808,1.7047852,1.2648925
0.02231396,10.83879,1.6299534,-0.117844634,1.4652388,1.2420111999999999
0.50790596,13.2998,0.9608601999999999,-0.26902506,1.1362617,1.2185888
1.0962379,14.792231,0.655542,-0.34622097,0.8567995999999999,1.187714
1.2749603,13.581223499999998,1.0641651,-0.37868407,0.5789257,1.1275525
1.4045632,11.622728,1.3430897,-0.33718017,0.38407716,1.0594149
1.6791878,9.925632,1.1947832,-0.22752112,0.30211648,0.9497558
1.902586,8.437464,0.7977193,-0.10241592,0.20310396,0.75546575
1.8517236000000001,7.317705,0.41105568,-0.0007330383,0.16104153,0.56169933
1.3295959,6.2699738,0.20597796,-0.04759513,0.03541273,0.31415927
0.82096213,5.495650299999999,-0.045432374000000005,-0.054506633,-0.19079939999999998,-0.011065387
0.70920086,5.216620400000001,-0.35882379999999997,-0.021502456,-0.46441466,-0.31183797
0.8806544,5.3466260000000005,-0.6452469,0.0019024089,-0.73057735,-0.5529727
1.4013643999999998,5.930466,-0.83410156,0.07962192,-0.66669834,-0.54445547
1.9428085,6.730695,-1.0332896,0.18715166,-0.47293186,-0.62165135
2.5280182,7.9889054,-1.113936,0.49483573,-0.08274606,-0.70469415
3.279606,9.334868,-1.0982969,0.47460738,0.31382766,-0.49654618
3.7471843000000002,9.903108,-1.0222188,0.14191271,0.37716565,-0.32887238
3.699664,10.334447,-0.94163954,-0.034278266,-0.45485026,-0.5891708000000001
4.472302,11.019917,-1.185647,-0.23282692,-1.3677796,-0.99054414
4.843307,11.746117,0.05911763,-0.5426403000000001,-1.8559133,-1.2231791
4.593506,11.303371,0.89513457,-0.76623446,-1.8915879,-1.3051572
3.9259063999999997,11.508410000000001,1.9145377000000001,-0.87694067,-1.6743990000000002,-1.3732948
3.3304972999999998,12.749775,2.3258615000000002,-0.96106553,-1.4577514,-1.4116222999999999
3.7901745000000004,12.176028,4.342929,-1.0212096,-1.2724847,-1.3551958
2.561317,11.164268,6.639925999999999,-1.0371794,-1.1457912000000001,-1.2556421999999998
0.285657,12.312336,3.6172269999999997,-0.9716946,-1.0127099,-1.1795284
-0.5134988,13.922589000000002,1.4662282,-0.84660685,-1.0249621,-1.1481125
0.6398073000000001,13.726265,1.2768948,-0.7140491,-1.045714,-1.0783865
1.4922101,12.587295,0.8019522,-0.5671273,-0.957889,-0.8484219999999999
1.5048516,10.554369,0.8356530000000001,-0.44949209999999995,-0.76305795,-0.54232615
1.730414,8.583577,1.0346304,-0.35793212,-0.5133886,-0.32300809999999996
1.9532377,6.970469500000001,1.0918614,-0.21472786,-0.35582027,-0.22560126
1.7239593,5.545804,0.85430866,-0.11677998,-0.26480135,-0.2724459
1.3200862,4.5442715,0.6290526,-0.043319073,-0.10829768,-0.30171508
1.4989426000000001,4.2337914,0.58453,0.042900192999999996,0.01733112,-0.25699973
2.240379,4.881672,0.67675465,0.123272605,-0.076358154,-0.20537289999999997
2.623231,5.6054773,0.55013967,0.21963224,-0.36060247,-0.17873918
2.5899612999999997,6.211105,0.5131349000000001,0.34578463,-0.68692666,-0.08346164
2.3197419999999997,6.6689243000000005,0.9502586999999999,0.47141343,-0.79126245,0.018727383
2.7411885,7.3863993,1.0669042,0.4373446,-0.49795988,0.08313003
3.5883815,8.175605000000001,1.7607821,0.33674383,0.16264723,0.22526965
4.0615239999999995,8.760508999999999,2.2322772,0.36868334,0.9659175999999999,0.5505291999999999
4.163191,9.136273,2.1492459999999998,0.48047170000000006,1.4487455,0.8273209999999999
3.2344133999999998,9.572325,2.0488334,0.6210055999999999,1.3976423,0.8869589
2.2716186,10.448067,1.8900881,0.66093874,0.98562235,0.8209504999999999
1.4385033999999999,11.179983,1.7834598999999998,0.6092770000000001,0.6012659,0.80389863
1.0491871000000002,11.4221525,1.9415443,0.4996354,0.51982886,0.8571312
1.2496775,12.572106,1.7193146000000001,0.32981488,0.6837850999999999,0.89387035
1.9450783,14.46139,1.1164929,0.14458308,0.9084264000000001,0.9529671999999999
1.6255863000000002,13.503738,0.7776463,0.032777283,1.141585,0.9987472
0.85418415,11.9906225,1.6158947,-0.04597197,1.2150633,0.99394757
0.39106890000000005,12.592945,2.2010949,-0.1444609,1.11071,1.0253634
0.67237806,14.105879999999999,2.0892856,-0.2115339,0.93823665,1.0870957
1.0010828,14.553557000000001,1.6262184,-0.23389158,0.67687356,1.1009537
0.99901414,13.724513,1.1101242,-0.22322759999999997,0.35695472,1.0274928
0.78458947,11.6896515,1.2666283999999999,-0.17107718,0.092903875,0.894935
1.009089,9.391333,1.4601278,-0.08058185,-0.01993166,0.7315024
1.4778161,7.437310000000001,1.5111339,-0.044401175999999994,0.033283427000000004,0.57499874
1.733402,6.141769,1.2122322,-0.03960152,0.08066912,0.36580357
2.0120583,5.407496,0.8687216999999998,-0.06674139,0.10515609,0.21781708
1.7476236,5.0263963,0.18128896,-0.1338144,-0.38350120000000004,-0.15318754
1.1649132,4.8474445,-0.42678082,-0.1939759,-0.8402364,-0.6072699
0.9845531999999999,5.0890765,-0.5519688,-0.27701867,-0.82852525,-0.8617214
1.3767331,5.761464,-0.66546357,-0.32492796,-0.48518407,-0.80848885
2.0849759999999997,6.7287793,-0.76266813,-0.33929202,-0.31483993,-0.7217110999999999
2.7876458,7.877259,-0.6423547,-0.24134412,-0.50008917,-0.91868895
3.260893,9.133861,-0.4514315,-0.1402023,-0.5815263,-1.0405828000000001
3.5705495000000003,10.417823,-0.66374934,-0.23443262,-0.30312878,-0.91868895
3.9304172999999993,11.554666000000001,-0.23901795,-0.27860692,-0.11095058,-0.8452105999999999
3.6051028,11.766477,0.09076898,-0.11732103,-0.48251373,-1.0821041
4.695336,12.164221000000001,0.62441736,-0.16788322,-1.0616838,-1.3296267
5.5173516,12.02414,1.4165725,-0.43298128,-1.4380466,-1.4376975
4.6963987000000005,11.475311999999999,1.6955162,-0.62568307,-1.4859558000000002,-1.4738957000000001
2.1955883999999997,11.196378999999999,2.3024175,-0.72788954,-1.2389393999999998,-1.4744191999999998
1.2573292999999999,10.419709,2.945366,-0.77579886,-0.93979,-1.4440853999999999
1.3261100000000001,8.736863,4.853640599999999,-0.80082685,-0.7726398,-1.3631719
1.1906078000000002,9.0187,4.5713835,-0.76089376,-0.66350436,-1.2694827
0.26875395,11.472029,2.5585685000000002,-0.66294587,-0.60601324,-1.1677998
0.26774836,13.886417999999999,2.2145312,-0.54796356,-0.44418630000000003,-1.0230247
0.8567315999999999,14.044089999999999,2.9592332999999997,-0.42339942,-0.19027579,-0.8367108
1.2832538,12.832452,1.811252,-0.21313961,0.11526154,-0.6168517
1.5970091999999998,10.73425,1.3703357,0.07431612,0.41177553,-0.36027086
1.9311823000000001,8.47262,1.2598002000000001,0.26328292,0.56028557,-0.19418533
1.9319197,6.509279,1.0568581,0.27977628,0.55550337,-0.13456489
1.9297648999999997,5.383113400000001,0.7906612,0.18610446,0.51345843,-0.062692225
1.882896,5.0139947,0.82121116,0.19249237,0.562956,0.11189306
2.0177567,4.810459,0.87454444,0.31651545,0.6571688,0.36632717
2.1533449,4.9866624,0.7974128,0.4384267,0.5901133000000001,0.58512163
2.1670208,5.5711637000000005,0.7902110999999999,0.46237263,0.11419689,0.6064147
2.3160262,6.294537999999999,1.0602004999999999,0.46982518,-0.26267204,0.5813866
2.2322772,7.1480618,2.0001736,0.4150044,-0.03375467,0.5915095
1.9984785,8.315379,2.6147172000000003,0.42830379999999996,0.7269121999999999,0.8305324000000001
2.1499642999999997,9.227617,2.4330451,0.57787853,1.5280532,1.3330301000000002
1.8768625,9.501207,2.1758313,0.8270068000000002,2.013534,1.6982054
1.4104146999999998,9.492914,2.5711906000000004,1.0660296999999999,2.1083055,1.8132051
0.8542224,10.313838,3.3186796000000003,1.1203268999999998,1.8176383000000003,1.7301624
-0.035625722,11.426653,3.1916337,0.9915040999999999,1.4625858999999999,1.5938696
0.019785683999999998,12.39506,2.4157016,0.83445936,1.3699613000000002,1.5209496999999998
1.0768737,12.985336,1.8251956999999999,0.6598741,1.5855618,1.4719758
2.0025294,13.291123,1.282957,0.4426853,1.6627401999999998,1.3916034
1.4484538,11.123136,1.3099444,0.21430898,1.52273,1.3766809
-0.40959045,9.652674000000001,1.9272653999999998,0.031730086,1.2267745,1.4208726
-0.7539916,10.992297,2.2976002999999996,-0.10346312,0.9015148999999999,1.3777628999999998
0.33028492,13.518218,2.132276,-0.22909191,0.70881313,1.212201
1.2268751,15.420154,1.5508393,-0.31321678,0.6396108,1.0413158000000002
1.7448368000000003,14.836322000000001,0.9408158999999999,-0.33981562,0.61512387,0.93486816
1.7173417000000002,12.409636,1.0346686,-0.30841714,0.5310164,0.8379849
1.2799882,9.846413,1.314886,-0.2136632,0.37557740000000006,0.66442937
1.1308293,8.015088,0.96738195,-0.086969756,0.16051793,0.39454913
0.57759637,7.0645226999999995,0.2577406,-0.0017976891000000001,0.004537856,0.15074408
-0.19167021,6.587664999999999,-0.15212758,0.008831366,-0.04707153,-0.044069562
-0.20530759,6.3754816,-0.34084815,0.034382987999999996,-0.027907815,-0.16118115
0.85820633,6.426775,-0.60557026,0.023736477000000002,-0.14927801,-0.3592062
1.6773968999999997,6.1246743,-0.78869796,0.018413223,-0.37871900000000003,-0.6072699
1.8498656000000002,5.67172,-0.79153264,0.14458308,-0.44312164,-0.5971469
1.9252352,5.6814313,-0.8506982,0.21324433,-0.48199013,-0.61526346
2.4684793999999997,6.4972315,-0.8570093000000001,0.38306487,-0.63156486,-1.0325891999999999
3.4522855000000003,8.103185,-0.8364383,0.61994094,-0.3590142,-1.1007441999999998
4.2408019999999995,9.757062,-0.8302708000000001,0.40542254,-0.17109463,-0.8111418
4.4291105,10.897161500000001,-0.9382877000000001,0.17119935,-0.14556046,-0.74939203
4.533574,11.459415,-0.44651863,0.19568631,-0.51180035,-1.1614118999999998
4.111553,11.540099,0.3658436,0.020559978,-0.8886693000000001,-1.5361688999999998
4.1066113,10.998656,0.8439753000000001,-0.28605947,-1.1500498,-1.6804379
3.5539818,10.716236,1.602966,-0.49525464,-1.2384158,-1.7102481
2.1260128,12.668775,2.0688777,-0.59161425,-1.0403907,-1.7278236
2.419111,11.982731,2.417751,-0.65868723,-0.731642,-1.7001252
3.2796254,10.060408,5.429953599999999,-0.63739425,-0.38669515,-1.6729853
1.5459074,10.098809,5.5077940000000005,-0.64004713,-0.36433747,-1.6442398
0.13642162,12.716610000000001,1.5470086,-0.6613576,-0.58951986,-1.3599780000000001
1.3374012,13.368227,1.1304176000000001,-0.65442866,-0.823202,-0.98415625
3.1763682,12.610959,1.6923366999999998,-0.6368706000000001,-0.8801694999999999,-0.6392094
2.9229562000000002,11.487523,0.63535404,-0.5804267,-0.75454074,-0.46247736
1.8663855999999999,9.739947,0.24400747,-0.45588,-0.6049486,-0.43160248
1.5521419,8.262151,0.391021,-0.28286552,-0.512865,-0.4135034000000001
1.6674082,7.100388000000001,0.48950889999999997,-0.12688543,-0.43779838,-0.30649728
1.3947278,6.2812166,0.46761632,-0.03960152,-0.42395790000000005,-0.23305382
1.0636193,5.6289883000000005,0.653981,0.10145599,-0.50806534,-0.17821556
0.3100108,5.408980400000001,0.61530024,0.28085837,-0.6411467,-0.048328165
-0.411592,5.366334999999999,0.81603974,0.42245695,-0.7364242,0.13744467
0.20243454,5.774546599999999,1.0235308,0.5385039,-0.7231248,0.35463345
0.8937459000000001,6.3824819999999995,0.8137795999999999,0.5097583,-0.58578485,0.49782026
2.2565925,7.51085,0.99969417,0.36229545,-0.350497,0.49036769999999996
3.0325532,8.70165,1.4190912,0.31386256,-0.021519909,0.630378
2.8006222000000003,9.569405,1.6309972,0.39423496,0.5161113,0.8848296
2.286568,10.139128,1.2064288,0.5794842,0.96804684,1.0349454
2.1633239,10.438239999999999,1.273744,0.7008544,1.1703305,1.0120466000000001
1.6111828000000001,10.695694,1.9736648999999997,0.751434,1.3273753000000001,0.95455545
0.6887544,11.1034355,2.1766357000000003,0.74504614,1.6158956,0.9907536
0.42273942,11.612817,2.021568,0.6651973000000001,1.9289029999999998,1.0514386999999998
0.47662812,13.476567999999999,1.7299832,0.49750609999999995,2.1104347999999997,1.0839193
0.18673816,14.069278,0.63091046,0.28670523,2.0965767,1.1201173999999998
-0.07280289,12.292828,1.2880421999999998,0.103602745,2.0433616999999997,1.2148713
-0.19781853,12.190192999999999,1.8891019,-0.054506633,1.8969634999999998,1.3287715
0.13708241,13.819409,1.7535803,-0.17798868,1.6893566000000002,1.4246075
1.0747954,15.237466,1.4117745000000002,-0.24132667,1.459392,1.487422
2.1384244,14.649517000000001,1.5015285,-0.25785494,1.1192273000000001,1.5086975
2.334768,12.672097,1.8449621999999999,-0.23867378,0.7418173000000001,1.4144846000000002
1.8664718,10.498642,1.6005621,-0.19024089,0.4208338,1.2170006000000002
1.4760158,8.785974000000001,1.0299281,-0.14072590000000001,0.13868386,0.9364564000000001
1.0728418,7.392529,0.4902942,-0.15243706,-0.008744099,0.6676408
0.38465244,6.34293,0.19581696,-0.16894788,-0.031625368,0.44619343
-0.29199684,5.726375,0.057834335,-0.043319073,-0.11307988,0.20450023
-0.53232676,5.2326427,-0.28344476,0.037035886000000004,-0.2642603,-0.04993387
-0.5078198,4.813475599999999,-0.32257559999999996,-0.019355701,-0.47719046,-0.32885495
-0.27533320000000006,4.579102,-0.36049017,-0.03160791,-0.5506514,-0.44757223
0.4239748,4.820907,-0.51145893,0.050893802,-0.48677233,-0.5263564000000001
1.8357397,5.981913,-0.6588268,0.28405234,-0.32707470000000005,-0.86917394
3.053172,8.048347999999999,-0.9116736999999999,0.51347584,-0.12639675,-0.82552326
4.0102972999999995,9.919656,-1.4100507,0.31864476,-0.016737707,-0.44279003
4.199315,10.771053,-1.7030531000000002,0.27021188,0.017313666999999998,-0.51729816
4.5410247,11.478435000000001,-0.90881026,0.41074579999999994,-0.53839916,-1.0144901
4.9282722,12.297568,0.5456865,0.22814944,-0.9759880999999999,-1.3184566
4.881921,12.059689500000001,0.8025173000000001,0.002443461,-1.3257172,-1.3908528999999998
4.463721,11.103178,1.0781665,-0.21526891,-1.5759101,-1.409493
3.2184486,11.398632000000001,1.6892241999999997,-0.4798259,-1.6062614,-1.4323742
2.9345062,11.874435,2.8290749,-0.7709991999999999,-1.5301301,-1.476025
1.9382689999999998,8.458006,6.7390740000000005,-0.9658303,-1.2863251,-1.4685723999999998
-1.042014,8.089222,5.8117137,-0.99511695,-0.91102695,-1.4712253
-1.4459925,13.445013000000001,1.5612686000000002,-0.92376786,-0.5224293999999999,-1.4584495000000002
2.1837704,15.271367000000001,2.130399,-0.84500116,-0.31323424,-1.2689416
3.384003,14.7078495,2.2318556,-0.79602724,-0.21582742,-0.93359405
1.7685201000000002,12.315947,1.1686002,-0.6837153,-0.24670228,-0.63495076
0.19240762,9.274122,1.089266,-0.50218356,-0.21315706,-0.46141270000000006
0.41260713,6.995187,0.8114524000000001,-0.30522317,-0.13278465,-0.4028569
1.2919399999999999,5.639255,0.33942118,-0.17374752,-0.03642502,-0.39327505
2.1994095000000002,5.094938,-0.10437762,-0.09335766,-0.008744099,-0.37304667
2.8064833,5.3352394,0.14190912,0.043964844,-0.055588737,-0.20163789999999998
3.1069746,5.714002,0.41705078,0.2441192,-0.14449582,0.036826447000000005
2.66467,5.6102176,0.4499184,0.42989203,-0.20357521,0.26040313
1.7527183999999998,6.185085,0.45570278,0.5815961,-0.16311847,0.46533969999999997
1.8880578000000001,6.648113700000001,0.6592578,0.62898177,-0.2009223,0.55477035
2.5507345,7.709827400000001,1.3976008999999998,0.5890661,-0.3015231,0.66123545
3.2025895,9.038742999999998,2.0276302999999998,0.6178116,-0.12904964,0.82466805
3.2132964,9.931321,2.583382,0.70298374,0.37077776,0.8858768
2.5645156000000005,9.913642999999999,2.5202804,0.83233005,0.8200603999999999,0.91622806
1.6604075,9.623349000000001,2.591982,0.9063319999999999,1.1277443999999999,0.93965036
0.5984259,10.071707,2.656185,0.8887565999999999,1.4620448,0.9875596999999999
-0.20846793,10.428232000000001,2.6912935,0.7828151,1.7079792,1.0327985
-0.44331998,10.922654,2.181654,0.5805489,1.858636,0.99660045
-0.38783193,12.904326,1.3164086000000002,0.30852184,1.8905755000000002,0.9258099
-0.75491095,13.54646,0.45924620000000005,0.058869954,1.8911166000000001,0.8933468000000001
-1.0277638,13.004624,0.90404093,-0.16097172,1.8288258000000002,0.9231396000000001
0.36106476,13.951607999999998,1.3367403,-0.34461525,1.6829686000000001,0.9907536
1.6235368000000001,15.532307000000001,1.366754,-0.4622679,1.5216653,1.0812489
2.1210616,16.371035,1.5375563,-0.5256059000000001,1.3028883,1.1696149
2.1865096,15.152692000000002,1.7143921000000002,-0.55435145,1.0452428,1.1988841000000001
1.9437950000000002,13.116855,1.5853446000000002,-0.5069832000000001,0.74979347,1.1775911000000001
1.6528994,10.771360000000001,1.1690313,-0.37388444,0.47724283,1.17335
1.6100431999999998,8.603975,0.73992324,-0.26902506,0.0636347,0.98968893
1.1906652,6.597386,0.389709,-0.2695661,-0.2855533,0.5824513000000001
0.5802204000000001,5.340535,0.32793859999999997,-0.124773584,-0.6108129,0.28382543
0.05362054,4.4679155,0.08710106,0.03968879,-1.0803239,-0.0046774824
-0.28424922,3.951601,-0.26242363,0.08868018,-1.4508223999999998,-0.38475785
-0.29364404,3.7877707000000003,-0.42452070000000003,0.11262609999999999,-1.4401758999999998,-0.6748839
-0.02024537,4.0198455,-0.61450535,0.189822,-0.94191927,-0.70788807
0.5908985999999999,4.530969,-0.87483174,0.37613592,-0.30738738,-0.7100174
1.1629978,5.905145,-0.9600174000000001,0.57789594,0.28827602,-0.6764722
1.7522971999999999,8.498985000000001,-1.4722998999999999,0.46928412,0.81154317,-0.34323645
3.3359275,11.46995,-2.2678933,0.17863445,0.9238726,-0.11114257
4.134298,12.036093,-1.800114,0.068451814,0.15838863,-0.44544294
3.4641129999999998,11.977013000000001,-0.15469415,-0.008726646,-0.8476889999999999,-0.8995252
4.2091694,12.876487,0.29657456,-0.29778808,-1.5200247,-1.1087204
5.271601,12.745542,0.89116013,-0.5559571999999999,-1.7180498,-1.1912396
5.5082054000000005,12.397253,1.8937562,-0.66613984,-1.4753094,-1.3349673999999998
4.726259,12.310746,3.400408,-0.7113961999999999,-0.9898286000000001,-1.4403678
4.215968599999999,11.076956,5.851726,-0.7358832,-0.5277701,-1.501053
2.1126146,9.8114,6.787379700000001,-0.7635641,-0.42821652,-1.4078873
-0.7932948000000001,11.142662,4.2264557,-0.7470707,-0.59590775,-1.320586
-0.9897438000000001,13.570038,2.0459026999999996,-0.7076611999999999,-0.84343034,-1.2418017
0.48159844,14.105554999999999,1.7752335,-0.64112926,-0.9477661000000001,-1.0799749
0.6140074000000001,13.069573,1.3259376,-0.56660366,-0.9019862,-0.8819498
0.45578897,11.187357,0.85694224,-0.41116467,-0.81149083,-0.7201229
1.173494,9.010060000000001,1.1801977,-0.12264428,-0.7284480999999999,-0.60461694
1.8678221999999998,7.008000999999999,1.2300355,0.18076375,-0.60442495,-0.54393184
1.787578,5.3181734,1.0149883,0.32716197,-0.50328314,-0.5939705
1.3253343,4.141825,0.7140466999999999,0.30691615,-0.40160027,-0.6120694999999999
0.42719263,3.56149,0.5242919,0.28775242,-0.28396508,-0.5066691
0.6738816,4.0416517,0.30093202,0.3212802,-0.14981906,-0.32887238
1.059396,4.74073,-0.046983816,0.42936844,-0.13650220000000002,-0.10742501
1.3967773,5.8160042999999995,-0.27015212,0.59278363,-0.29300588,0.1635199
1.9750439999999998,7.35765,-0.09707051,0.52890456,-0.18334684,0.3881612
2.8119132999999996,8.550756,0.7809982,0.44053856,0.22492059,0.516984
3.1280627,9.385817,2.0585631999999996,0.41976914,0.66994464,0.7437545999999999
3.5693142,9.970758,2.50943,0.42563343,0.97656405,1.004053
3.7134546999999998,10.213339,2.0596933,0.52199304,0.99733347,1.0759257
3.1045902,10.29389,1.8391012,0.6013183000000001,0.86638147,0.96680766
2.3057885,11.054892,1.8967247999999999,0.6263288,0.91322607,0.87896526
1.3100785,11.910388000000001,1.8629474999999998,0.58639574,1.2326039,0.8965233
0.43258435,12.637402,2.2766653999999997,0.48684213,1.6084256000000001,0.95082045
-0.28191248,14.205498,1.7780588,0.32023302,1.8006039,0.9641373
-0.50332826,13.679597,1.0826963,0.10782644,1.7361838,0.95933765
-0.80924976,11.495932,2.4460888,-0.10880382,1.5802209999999999,0.9843656999999999
-1.2381183,11.422419999999999,2.4298751,-0.28712413,1.4109416000000001,1.050374
-0.36353558,13.873957999999998,1.6902106,-0.41968188,1.2038758,1.1424576000000002
1.0913825000000001,16.235445000000002,1.013456,-0.46759117,1.0840938,1.2750153999999998
2.0797663,15.483379000000001,1.4639681999999998,-0.44256315,0.9893398999999999,1.3846744
2.2335124,12.869035,2.0126328,-0.33344516,0.86529934,1.4506828
2.0660427,10.452979,1.9135418000000002,-0.14926055,0.5618913000000001,1.456006
1.7525556,8.616809,1.4528303,-0.07953466,0.02370157,1.1398046999999998
1.2672413999999999,6.9749703,0.84468395,-0.138073,-0.47931978,0.57180476
0.6121303000000001,5.573347,0.47726974,0.006143559,-0.67682123,0.16510814
-0.015571888,4.576986,0.27925968,0.22654374,-0.6102893,0.040544
-0.252866,4.002914,-0.03268564,0.23399629,-0.73750633,-0.18673277
-0.33551386,3.8631594,-0.32233614,0.13178982,-0.7359180999999999,-0.4715356
-0.07331046,4.119358,-0.39630744,0.040770892,-0.41437608,-0.47951177
0.4600602,4.8229465,-0.57928187,0.123272605,-0.054524086,-0.37784633
1.2326404,6.638949,-0.92655605,0.35803685,0.06096435,-0.43320817
2.3210444,10.098389,-1.748543,0.3031986,0.17114699,-0.39913934
4.3247232,12.415727,-2.5571127000000002,0.039165188,0.22012092,-0.3624176
5.1927934,11.257431,-1.5931688999999998,0.03970624,-0.37604862,-0.62482786
4.538094,11.077665,1.1791252,0.019477874,-1.2629027,-0.96073395
4.041987000000001,11.550625,1.4372776000000003,-0.21259856,-1.8138683,-1.116714
4.7468114,11.677939,1.3835996000000002,-0.38241908,-1.9070340000000001,-1.1779401000000003
4.660515,11.592878,1.8767955000000003,-0.4713087,-1.7191144,-1.2545775
2.3842416,11.598691,3.2075023999999996,-0.5628861,-1.4699861,-1.3647777
1.2298343,11.189186,5.499500299999999,-0.66081655,-1.2852603999999999,-1.3456139999999999
0.3753342,10.72204,6.7119913,-0.7034026,-1.2815428999999998,-1.3344264
-0.5296453000000001,12.081275,3.8668752,-0.6938207,-1.2900601999999999,-1.3317735000000002
-0.61795306,14.478744,1.9696236,-0.6528404000000001,-1.1495262,-1.3147391000000002
0.32580298,14.752516,2.193223,-0.5958729,-0.85194755,-1.2572478999999999
0.8763639999999999,13.701785999999998,1.2250652,-0.5117654,-0.52883476,-1.1124379999999998
0.9675735000000001,11.046656,0.7904313000000001,-0.36644933,-0.19666370000000002,-0.8590684999999999
1.5079448,8.233267,0.9734537,-0.12796754,0.08705702400000001,-0.5646838000000001
1.8487546000000001,6.22728,0.6411289000000001,0.056740652999999995,0.20575686,-0.37943459999999996
1.9988711,4.9713970000000005,0.20284635,0.10304424,0.10142108,-0.3107733
1.7997215,4.110385,0.30809546,0.11262609999999999,-0.10403907,-0.23944172
2.3021781000000003,4.1624155,0.38990054,0.1796991,-0.2594781,-0.12339478
2.7749946,4.525596599999999,0.45757982,0.31703904,-0.36327282,-0.0073303827000000005
3.3167162000000006,5.138139,0.2855804,0.48631853,-0.48783699999999997,0.14435618
3.6522207000000004,6.1288023,0.24585579999999999,0.6396283,-0.50967103,0.38655552
3.7720263,7.650566599999999,0.60716,0.5390275,-0.44792129999999997,0.46853364
3.608081,8.986397,1.4178462,0.34791392,-0.21263346,0.492497
2.9462087,9.739077,2.2785330000000004,0.33194417,0.32021555,0.73204345
2.4834959999999997,9.821973,2.1573192999999997,0.4911182,1.0005275,0.97158986
1.8881537,9.531489,1.7184143,0.6406929,1.3587737,1.0423805
1.3675680000000001,9.961008999999999,1.7778383000000002,0.6934019,1.4482044,1.0131112
0.9767098,10.817655,1.8114914,0.6747616999999999,1.5088894,1.0157641
0.59411633,11.566724,1.9455092,0.6172706,1.6579406000000003,1.0743200000000002
0.36042312,12.42516,2.0104398999999997,0.4953768,1.8000802,1.0977423000000002
0.52834284,14.277639,0.9761735,0.29626963,1.8416016,1.0423805
0.55309886,13.522901999999998,0.05629247,0.07004006,1.8085973999999998,1.0136349
0.24503218,11.529555,0.90755564,-0.12583824,1.6584816999999998,1.0407921999999998
0.80924016,12.625985,1.5854979,-0.2727426,1.4881375,1.1259643
1.5081555,14.774849,1.5633276000000003,-0.36484364,1.272537,1.2212418
2.144563,15.575728,1.081461,-0.4154058,1.0271436999999999,1.2718214
2.1489685,14.170476,1.0947056999999998,-0.43032837,0.7551167,1.2420111999999999
1.8137515,12.113885,1.2296333000000002,-0.40742967,0.46926668,1.1616387
1.4355155000000002,10.284131,1.0052966,-0.33929202,0.14720106,1.0429215
1.2491891000000002,8.649753,0.6544119,-0.2770012,-0.13117895,0.8587369
0.85482574,7.349481,0.48968127,-0.29511774,-0.36168459999999997,0.5425356
0.31246245,6.082288,0.27636750000000004,-0.17055358,-0.49476594,0.2247286
-0.1860582,5.2569675,0.014221558,-0.02841396,-0.5820673000000001,0.06557202
-0.35508883,4.960125,-0.23278345,-0.018308504,-0.8077733,-0.19257963
-0.21854272,4.9720580000000005,-0.50899774,-0.04811873,-0.8769756,-0.4156327
0.32998803,5.1261106,-0.73976046,-0.06567674,-0.7055668,-0.43053782
0.9855492,5.4143147,-0.8461396000000001,-0.025220007000000003,-0.40533528,-0.37252307
1.598867,6.267101,-0.98767525,0.20046851,-0.2009223,-0.4970872
2.3802292,7.878848599999999,-1.2130653999999998,0.36442474,0.041277036,-0.51358056
3.3143702000000004,9.86663,-1.547497,0.2462485,0.28028244,-0.4065919
4.328707,10.712722,-1.3041983,0.074298665,-0.13330825,-0.5716128
4.71946,11.473944,0.29798234,-0.0768643,-1.0946878999999998,-1.0160958
4.4453716,12.202308,0.65786916,-0.37390187,-1.8729476999999999,-1.3573251
4.9397936,11.878612,1.2272198,-0.69542646,-2.230147,-1.5415097
4.482874400000001,11.149509,1.9028158,-0.9301732,-2.1630738,-1.6218821
3.2131624,11.877336999999999,2.1339135,-1.0722954,-1.6845044999999998,-1.6303993
2.3989136,11.385253,3.6166334000000004,-1.132998,-1.0989466,-1.5984598
1.9373306000000001,10.562586,6.126149,-1.1202221,-0.71940726,-1.5170226999999998
0.76549333,12.163052,4.9560933,-1.038244,-0.6358234,-1.4542084
0.09599791,14.682692000000001,2.8409214,-0.93071425,-0.714084,-1.3402907
0.84540224,14.786512,2.1584206000000004,-0.82531387,-0.7146076,-1.1848516000000002
1.5218982,13.660328,1.5693321000000002,-0.7225663,-0.64434063,-0.97298616
1.8060325000000002,11.371079,0.79714465,-0.590026,-0.60281926,-0.8265879
2.223361,8.901317,0.67683125,-0.34780923,-0.49689522,-0.75845027
2.4552922,6.725476,0.5879297,-0.04490732,-0.36592573,-0.7408748000000001
2.6886215,5.188532,0.69294906,0.172264,-0.23179717,-0.67860144
2.5928822,3.969433,0.81682503,0.22706734,-0.13863151,-0.509322
2.1392097000000003,3.3319337,0.80296737,0.28351128,-0.12000884,-0.2985211
2.091316,3.8165107000000003,0.59965175,0.37613592,-0.14182545,-0.104754664
2.0543592,4.4388595,0.37750813,0.5012236,-0.27225390000000005,0.045867253
2.1201231,5.285258,0.22541888,0.63006383,-0.5282937,0.21249384
2.4204133,6.712594500000001,0.22641487,0.6822316999999999,-0.62943554,0.3626096
2.9562166000000003,8.303666,0.9611665999999999,0.5486093000000001,-0.4111821,0.37697366
3.4816193999999996,9.460649499999999,2.5372696,0.4256509,0.06257005,0.44139376
3.6575167,9.886271,3.5049675000000002,0.4911182,0.69336694,0.70010394
2.8867846,10.105628999999999,3.1639853,0.6832789,1.233686,0.96146697
1.8779830000000002,10.239408000000001,2.6023536,0.8594874,1.4067005,1.0402685
1.0621348999999998,10.760452,2.5772909999999998,0.9558469999999999,1.3864546999999998,1.0418569
0.46775997,11.5276985,2.4126852000000003,0.96967,1.5046309,1.0897661
0.23836671,11.796672000000001,2.3867605,0.9004677,1.7745286,1.1925137
0.29622020000000004,12.929781,1.9497995,0.71523595,2.0034285,1.2361643
0.73184997,13.777021,0.9753499,0.46397832,2.1200166,1.1930372999999999
0.8009275,11.582573,0.9688664,0.20366247,2.0736953999999996,1.1360697
0.58066094,10.17101,1.8696226000000002,-0.036407568,1.8256318999999999,1.1121238000000002
0.71834666,12.0789,2.1227472,-0.23760912,1.3997715,1.127029
1.1448307,14.872570000000001,1.8170171000000002,-0.36219072,0.92333156,1.1738735
1.6944053,15.218743,1.8162988000000002,-0.40530035,0.47246063,1.2020781
1.721613,13.260017000000001,2.2412217,-0.37123153,0.10463249,1.141934
1.5690353000000001,11.072494,2.2749705000000002,-0.26689574,-0.14714871,0.9678723
1.3329096,9.278623,1.7178397,-0.14285520000000002,-0.26373670000000005,0.70329785
1.2520143,7.786403699999999,1.0817290000000002,-0.05183628,-0.23125613,0.39615482
1.0069438,6.5729647,0.79656047,0.015236723999999998,-0.13170254,0.16458455
0.5109322000000001,5.427933,0.43414540000000007,0.13500121,-0.05771804,0.048537605
-0.019814413,4.592931299999999,-0.034016818,0.13285446,-0.063582346,-0.08559094
-0.40093303,4.3886194000000005,-0.5577149,0.03757694,-0.06888814,-0.28307495
-0.19056888,4.772822,-0.9471461999999999,-0.03693117,-0.03588397,-0.32246703
0.78436923,5.8480387,-1.1240586000000001,-0.06407104,-0.067299895,-0.23994787
2.1272004,7.498161,-1.3321626,0.069516465,-0.15940093,-0.34430109999999997
3.4263132000000005,9.50863,-1.3881294,0.39051740000000007,-0.12585570000000001,-0.42147955
4.343666000000001,10.804419000000001,-1.3739654,0.38411206,0.07002261,-0.2857453
4.7136083,10.538039999999999,-0.79796827,0.16374679,-0.0034208453999999998,-0.30171508
4.649826999999999,10.461982,0.16505626,0.045029495,-0.7928682,-0.6876423
4.461241,11.558477,0.92175806,-0.20247565,-1.6429831999999998,-1.0586818
4.601129,11.875383,0.6955347,-0.53731704,-2.0997182999999997,-1.2178383999999998
4.2376413,11.152833,1.1326586,-0.77366954,-2.1034534,-1.2902521
2.4945092,11.282072,1.5913396999999998,-0.91046846,-1.8133273,-1.3573077
1.4022553,12.200258,2.0717125,-0.9594424000000001,-1.2133878,-1.3354911
0.96320647,11.232503,4.765591000000001,-0.9413433000000001,-0.76784015,-1.3067454
0.057623647,11.183048,5.6966004,-0.88599896,-0.6001664000000001,-1.3056808000000002
-0.7777324999999999,13.202959,2.9810588,-0.79709184,-0.6603104000000001,-1.3296267
-0.46030920000000003,14.630592000000002,1.645803,-0.7257603,-0.7795513000000001,-1.3243035
0.37014359999999996,13.808519,1.8278293999999997,-0.7092669,-0.94724256,-1.2178558000000002
0.9197181999999999,12.088248,1.1490923000000002,-0.58787924,-1.0547723,-0.96712184
1.2758222,9.672873,0.9301857,-0.35047957,-1.010057,-0.6919183000000001
1.8913715,7.730944,0.8155416999999999,-0.049165923,-0.77635735,-0.52581537
2.2249029,6.1979084,0.6492309,0.23240805,-0.3898891,-0.44011968
2.28675,5.051823000000001,0.6882563,0.36868334,-0.011938052,-0.31768483
2.2498217,4.4529276,0.6626384,0.41606903,0.065240405,-0.1563815
1.9835196,4.3499870000000005,0.34248579999999995,0.43523276,-0.119991384,-0.03181735
1.9642893,4.7492532999999995,0.0037253778000000005,0.43736205,-0.32707470000000005,0.018727383
1.7676102999999999,5.339558,-0.44362643,0.49750609999999995,-0.49370128,0.082606435
1.7052653999999998,6.374323,-0.44597274,0.5906718000000001,-0.5506514,0.24390976
1.9978368000000002,7.782487,0.4272022,0.5198638,-0.31642818,0.33546972
2.7885554,8.846269,1.3500233,0.42510983,0.11313224,0.33653438
3.680137,9.221314999999999,2.3311672000000003,0.42936844,0.6491927,0.5404063
3.9915557,9.52333,2.618481,0.55286795,1.1549018999999998,0.8422261000000001
2.9822657,9.791299,2.471477,0.73865825,1.3731552,0.98703605
1.7966856,10.442617,2.3631442000000003,0.8440586999999999,1.2927828000000001,0.97532487
1.1358093,11.279975,1.8760773000000002,0.8568344999999999,1.2911772,0.9604198
0.9930287,11.7477255,1.6930549,0.8051902,1.5679864,0.9721135000000001
0.7750893,12.209414,1.9616363999999997,0.6635916000000001,1.8900343999999998,0.98703605
0.86762995,14.405231,1.3586617,0.42191590000000007,2.098706,0.9907536
1.0290567,14.192751000000001,0.6903441,0.15788248,2.151415,0.9694606
0.48476836,11.567691,1.6298864,-0.08005825400000001,1.9996935000000002,0.9875596999999999
0.01046745,11.561763000000001,1.7378168999999999,-0.2770012,1.7127788000000002,1.0636908999999999
0.5999391,13.926917999999999,1.1924752,-0.4372399,1.2986296,1.1610978
1.6284785,15.532039000000001,0.72935045,-0.5452932,0.9260019,1.2681038
1.9403281000000003,14.384115,0.9852523000000001,-0.56765085,0.6289643,1.3335712
2.0242114,11.999528,1.4654334,-0.48141417,0.36812484,1.3506056
2.006925,9.844574,1.4952268999999998,-0.30307642,0.16957618,1.3170953
1.7961876,8.164324,0.97958285,-0.123691484,-0.045465827,1.0737964
1.3301802,6.715736,0.4818762,0.030124382999999998,-0.21422172,0.68999845
0.78339237,5.678558,0.23632686,0.11903145,-0.31323424,0.36315066
0.10434888,4.9005957,0.00050757074,0.15842354,-0.32281609999999994,0.10231119999999999
-0.23069570000000003,4.4681263,-0.36569038,0.14458308,-0.34463271,-0.16009904
-0.26859114,4.433285700000001,-0.77319306,0.09506808,-0.5373345,-0.4805764
0.08304049,4.759682700000001,-1.0266625,0.033318337,-0.6166596999999999,-0.6274982
0.91817635,5.779526000000001,-1.0855023000000001,0.01150172,-0.41170569999999995,-0.54497904
1.8339777,7.584687700000001,-1.2198458,0.057805302999999995,-0.17057103,-0.6067288000000001
3.057271,10.076419,-1.5073702,0.22762585,0.09876818,-0.6988298000000001
4.4189680000000005,11.199108,-1.5300194,0.12648399999999999,0.19458675,-0.5918237
4.7986603,10.850609,-0.90306413,-0.12316789,0.0024085543,-0.49441686
4.973178400000001,11.255985,-0.4734486,-0.20833996,-0.75293505,-0.74460983
5.2480807,12.203303,0.14146860000000003,-0.31107002,-1.4151479,-1.0714576
5.20803,11.905206,0.79735535,-0.5085715000000001,-1.7047328999999998,-1.2641593999999998
4.846391000000001,11.249846,1.4279306999999999,-0.66186374,-1.6940863999999998,-1.3067454
3.6382383999999997,11.684403,1.9117316999999998,-0.78483963,-1.4470874,-1.3152627000000001
2.5261986000000003,11.972934,2.7910645,-0.8732231,-1.0345439,-1.3381613
2.1286848,10.820172999999999,4.764021,-0.94719017,-0.710349,-1.3306913
0.7782305,10.469786000000001,5.833501,-0.9594424000000001,-0.61398935,-1.3301678
-0.8403456,12.411983,3.2387803,-0.914186,-0.75771725,-1.3860531999999999
-0.83592117,14.284497,1.7001417,-0.90355694,-0.9094386999999999,-1.3296267
0.57381356,14.043209,1.6786705000000002,-0.84604836,-1.041979,-1.1635412
1.4815893999999998,12.575486999999999,1.1673553,-0.64058816,-1.1133106000000002,-0.9447641999999999
1.6163542,10.355248,0.9598929,-0.35578537,-1.052102,-0.7536506
1.6161245000000002,8.071649,0.8730313000000001,-0.06352998,-0.7683638,-0.6407976
1.8393215,6.2412339999999995,0.5961371,0.15948819,-0.4590914000000001,-0.6035349
2.2160922999999997,4.9285026,0.38878006,0.2893756,-0.27490679999999995,-0.5433908000000001
1.9693744999999998,3.9691362,0.28249663,0.36761869999999996,-0.22539182,-0.44916049999999996
1.8520588,3.7903275,0.3380038,0.44429103,-0.12159709,-0.27721065
1.9362867,4.137601999999999,0.17453729999999998,0.4799481,-0.0066147977,-0.10314896
1.618241,5.0266843,-0.2681985,0.49644145,-0.12852605,-0.034487706
2.0115220000000003,6.4474800000000005,0.11588894,0.5491504,-0.52988195,0.046949357000000004
2.3876512,7.778867,0.89059514,0.56138515,-0.66828656,0.1651256
3.0333195,8.683328999999999,1.6603404999999998,0.42510983,-0.19612265,0.20078267
3.8567044999999998,9.105734,2.2148952,0.4272566,0.56243235,0.33334044
3.9346216,9.574049,2.1838279,0.6162234000000001,1.3130111999999998,0.7309788
3.4488955000000003,10.008644,2.2032306,0.8467116,1.6941388,1.1334168
2.7704169999999997,10.444283500000001,2.506145,0.91910785,1.4455514999999999,1.2521341000000001
1.8425968000000001,11.19952,2.3427358,0.8930326,0.98881626,1.2218003
1.1274487,11.683254,1.8944455000000002,0.8951619000000001,0.98084015,1.2052895000000001
0.7601399,11.66117,1.9387288,0.8302181999999999,1.3545326000000002,1.2218003
0.47711653,12.79787,1.7908533,0.6220876999999999,1.7298131999999997,1.2068777
1.0090985000000001,13.734204,0.674437,0.33993778,1.9182564999999998,1.1259643
1.1360774,11.625658999999999,1.0989959999999999,0.048223447,1.8884462,1.0248225
0.5877478,11.1312475,2.261132,-0.19502309,1.6765807000000001,0.99077106
-0.46245444,12.973097000000001,2.1991603,-0.38027233,1.2943711000000002,1.0205638000000001
-0.5448916,14.958953,1.0801585,-0.50855404,0.9089674999999999,1.0977597
0.40984902,14.905256,0.45370123,-0.56072193,0.5752082,1.1866668
1.1795753,13.066384,1.2901204,-0.51920056,0.31810370000000004,1.2335114
1.7425095000000002,10.924531,1.8368698,-0.39091885,0.15573573,1.2521341000000001
2.0292296000000003,9.333978,1.3985778,-0.18331192,0.07960447,1.1866493
1.9313451000000001,7.8649816999999995,0.6358808000000001,0.0024609142000000003,0.025848325,0.94286174
1.7253383000000002,6.791229700000001,0.2562179,0.108384944,-0.017784905,0.6266430000000001
1.1997728,5.6330204,-0.065131865,0.13765411,-0.07688175,0.32960543
0.58946204,4.8648167,-0.37747943,0.14831808,-0.07953466,0.10711086
0.29046455,4.684131,-0.71398926,0.14564772,-0.22326252,-0.16118115
0.28384697,4.812317,-0.8993483,0.14884168,-0.3898891,-0.29319787
0.78819996,5.260578,-0.9428558000000001,0.15310028,-0.36327282,-0.31874949999999996
1.5764285,6.3239775,-0.95864797,0.32346186,-0.23603833,-0.590218
2.3566317999999997,7.977355499999999,-0.99478126,0.5118876,-0.016720254,-0.67860144
3.543907,9.903461,-1.0905972,0.27075294,0.23664919,-0.4880115
4.4319835,10.579039,-1.0199395,-0.040107667,-0.09337512,-0.5699896
4.648448,10.951739,-0.9062245000000001,-0.16414821,-0.88921034,-1.0123608
4.9723263,11.944711,-0.25567199999999995,-0.3861192,-1.4795505,-1.3482668
4.4619203,11.829721000000001,0.7079270999999999,-0.6192951999999999,-1.7547715,-1.4526026
4.139958,11.022809,1.7661835,-0.76672316,-1.7244202000000002,-1.5036885
3.0725173999999997,11.99655,2.127727,-0.8449837,-1.3895962,-1.5505505
3.0419579,12.997058,2.808121,-0.8487186999999999,-0.9365786,-1.5702379
3.1058543,11.404952,6.1009145,-0.8359429,-0.64486426,-1.5414921999999998
1.2352741000000003,11.610538,5.8247385000000005,-0.78855723,-0.6411467,-1.5052941
-0.40624815,13.630803,2.4538653,-0.74118894,-0.7971093,-1.4792014
0.58888745,13.871439,1.6745813000000003,-0.7353246999999999,-0.9812939,-1.4318331
1.7099771000000001,12.950399,1.3803722,-0.77045816,-1.158026,-1.2790471
1.7820618000000001,11.301484,0.7052552,-0.71455526,-1.3017538,-1.0144901
1.6780863999999998,9.32598,0.72547185,-0.54262286,-1.1686724,-0.76588535
1.9630827000000002,7.530367999999999,0.72256047,-0.30255282,-0.75558794,-0.63866836
2.2960107000000005,6.104582,0.64688456,-0.10239847,-0.23923229,-0.60938174
2.3895378,4.9838276,0.7071897,-0.000715585,0.05778785,-0.51356316
1.7557063999999998,4.2813215,0.46770249999999997,0.1312662,0.051399945999999995,-0.3464304
1.6964642,4.5956220000000005,0.2850824,0.24572489999999997,-0.08646361,-0.14093533
1.7712495,5.055596400000001,-0.07884585,0.35964254,-0.22539182,0.028326694
1.7705218,5.948068,-0.5094478,0.5640555,-0.37072540000000004,0.25881487
2.0423307,7.0012300000000005,-0.36957854,0.6822316999999999,-0.2898119,0.5058139
2.6013862999999997,7.8611603,0.58260506,0.5874778,0.11047934,0.5931152
3.4967413,8.639889,1.7134153000000003,0.5592733,0.47513098,0.69851565
4.315548400000001,9.196598,2.5339367000000004,0.60611796,0.7689746000000001,0.9247627
4.059618,9.780582,2.5982451,0.7631452,0.90470886,1.0865722
2.6636834,10.064678,2.6347327000000003,0.8999616,0.8834158999999999,1.0791371
1.2048006000000002,10.493394,2.62914,0.9335068000000001,1.0484542,1.0136523000000002
0.21655075,10.865902,2.063371,0.9185841999999999,1.4955901000000003,1.0173699
-0.113954425,11.004642,2.0976176,0.81637776,1.9672304,1.0881778999999998
-0.2588228,12.696519,2.2225277,0.59973,2.2749145,1.134499
-0.18383639,14.387198000000001,0.7979491,0.33356732,2.3441167000000003,1.1467336000000001
-0.30903396,12.237962,1.4305738000000001,0.07379252,2.1759195,1.1717618
-0.5093425,11.624213000000001,1.9004215,-0.12367403,1.8538538,1.2452226
-0.04506845,13.910351,1.3522451000000002,-0.28017770000000003,1.466862,1.3650045
0.9872155999999999,15.802017999999999,1.1278988,-0.36962584,1.0697298000000002,1.4837044
2.0806665,14.828363000000001,1.4129238000000002,-0.38238418,0.7050956,1.5278786
2.6412737,12.492925999999999,1.8868417000000002,-0.32597515,0.3478965,1.4709285
2.4121487,10.254883,1.9554211,-0.19554669,0.05300565,1.3452998
1.7999321,8.464872,1.1667136,-0.07363544400000001,-0.18067649,1.1089473
1.2892967,7.194489999999999,0.49387592,-0.041695915,-0.27649507,0.7810348000000001
0.7563379,6.165213,0.22288103,-0.04171337,-0.34836772,0.39988983
0.050948612000000004,5.338639,-0.06943185,0.07698647,-0.38615409999999994,0.12575097
-0.51206225,4.854062,-0.49594453,0.10040879,-0.6480581999999999,-0.20429079
-0.6223679,4.7621245000000005,-0.7540969,0.004066617,-0.9248674000000001,-0.57370716
-0.25320122,5.0638514,-0.92465025,-0.13964379,-0.8993158000000001,-0.7280989999999999
0.69321716,5.8611875,-0.99860233,-0.12208578,-0.5761854999999999,-0.6391919
1.6678967,7.091117999999999,-1.1172111999999998,0.042917646,-0.33238049999999997,-0.7195818
2.69001,8.684038000000001,-1.2839625,0.27021188,-0.019914206,-0.76003855
3.6938128,10.083727,-1.4892796,0.21006782,0.27019440000000006,-0.5428498
4.405283,10.618466,-1.5163053999999998,0.057281705999999995,0.072151914,-0.51516885
4.877908000000001,10.948042999999998,-0.46775997,0.0008552113400000001,-0.8173377,-0.8499928
4.5791407,11.566704,0.73215646,-0.19448204,-1.5939918,-1.200804
4.979882,11.570181,0.81299424,-0.4590565,-1.8851825,-1.373801
5.1647334,11.272208000000001,0.98239845,-0.67251027,-1.7834995999999999,-1.444609
4.188838,11.580515,1.3528293,-0.8236906999999999,-1.4422877,-1.4824128
2.9963436000000003,12.146339999999999,2.7995784,-0.92802644,-0.9855524999999999,-1.511682
2.7467337000000005,10.858728999999999,5.082909,-0.9722181999999999,-0.593761,-1.511682
1.2192425,10.71636,5.511711,-0.96954787,-0.43460444,-1.4605788
-0.17866491,13.004603999999999,3.0094828999999996,-0.88969904,-0.5203001,-1.4174517
0.19198625,14.417432999999999,1.7388608,-0.8199556999999998,-0.66987485,-1.3216331000000001
1.214952,13.898715,1.4077618,-0.7693935000000001,-0.7199134,-1.1087029
1.858887,12.294963000000001,0.8155513000000001,-0.67730993,-0.6975732,-0.9000314
1.9865650000000001,10.123268,0.81113636,-0.49630183,-0.6246359,-0.74459237
2.144812,7.911017,0.7954111999999999,-0.2578375,-0.5181707999999999,-0.65676737
2.1736574,6.2086535000000005,0.62671584,-0.029984757,-0.43884557,-0.59767056
2.2650392000000004,5.009944,0.50785804,0.07752752,-0.37922513,-0.54124403
2.0397449,4.352544,0.58121645,0.17919296,-0.26371926,-0.4124213
1.5107604,4.212579,0.45806825,0.33569664,-0.11573278,-0.19896753
1.6587317,4.852443,0.1934515,0.49487066,-0.08805186,0.018744836
1.6679063000000003,5.6798987,-0.062392894000000004,0.6353871,-0.3105639,0.21251129
1.9323411,6.543296,-0.035098996,0.6960897,-0.5107182,0.41905355
2.3468156000000002,7.235258,0.6046796,0.553409,-0.38934806,0.46696284
2.6114995,7.937813,1.3179889,0.47357765,0.01680752,0.5127427999999999
3.0069354,8.734287,2.1462774,0.48687705,0.6917960999999999,0.7842288000000001
2.9913442000000003,9.728255,2.3574650000000004,0.6300813,1.3071643,1.0764666999999999
2.7048542,10.177904,2.356651,0.82650065,1.4253405000000001,1.1834729
2.2026944,10.747725,2.6241026,0.93136007,1.1996171,1.1573802
1.1883572,11.301063000000001,2.5744467,0.92231923,1.2294448999999998,1.1675031
0.41030872,11.50752,2.4290519,0.86589277,1.565857,1.2218003
-0.03272395,12.297473,2.0612353999999997,0.73706996,1.8964398999999998,1.261716
0.3577416,14.475038,0.75691247,0.52094585,2.0928593,1.2292528
0.7120451999999999,12.897411,0.7986291,0.27820548,2.076907,1.1781496
0.26586172,10.54122,1.7754346999999997,0.018971728,1.7963626,1.1478158
0.16300684,12.033316000000001,1.3998898000000002,-0.20725785,1.3721079999999999,1.1504687
0.61456287,15.160094,1.0572698999999999,-0.37069046,0.9558120999999999,1.195184
1.1138593,15.984810999999999,1.2366052,-0.46703264,0.61460024,1.2611923
1.365394,13.989752,1.7007738000000001,-0.47980845,0.34897858,1.2729036
1.6718806,11.749419999999999,1.9008620999999999,-0.41380012,0.11369075,1.2084834999999998
1.8499134999999998,9.8997555,1.7727148999999998,-0.27965412,-0.030037116000000003,1.0509151
1.6558394,8.225347,1.2293364,-0.090669855,-0.055047683,0.76347685
1.2845466,6.85504,0.72694665,0.081786126,0.00029670597999999996,0.46856853
0.6115556999999999,5.6415434,0.2716557,0.09775589400000001,0.060981803,0.24977407
0.0072304890000000005,4.860344400000001,-0.15897499,0.06049311,-0.006073746,0.016074482
-0.16642575,4.415358,-0.5511069000000001,0.037070792000000005,-0.2653075,-0.24794148
-0.07845319999999999,4.384769400000001,-0.7663456,-0.017208947,-0.61238366,-0.551367
0.5421621999999999,5.009494,-0.9182816999999999,-0.053407077000000004,-0.59321994,-0.58276546
1.5462806999999998,6.2595444,-1.0780228,-0.038519416,-0.37604862,-0.53166217
2.6885161,7.9607205,-1.2336746,0.14992379,-0.09283406,-0.6439741
3.9673644999999995,9.868497,-1.25709,0.34901348,0.16266468,-0.6487738000000001
4.9725269999999995,10.768699,-0.9051423000000001,0.1813048,0.2350435,-0.4874879
4.696811,10.916889,-0.5617276,-0.028920105,-0.26584855,-0.6684611
4.7719309999999995,11.476863999999999,-0.64246964,-0.13592625,-1.1420562,-1.1065737
4.654395,11.854573,0.29581799999999997,-0.38772490000000004,-1.6876985,-1.3647601999999999
4.5385633,11.345997,1.0421672,-0.6501526,-1.8463314999999998,-1.4286393
4.267185700000001,11.001616,1.5457731000000001,-0.8268846,-1.715903,-1.4818718000000002
3.2753923,11.877864,1.8275038000000001,-0.9344144,-1.2703553,-1.511141
2.8223999,12.004699,2.723711,-0.98391193,-0.74865896,-1.511682
2.1882908,10.5644245,5.604089,-0.984994,-0.4638736,-1.469096
0.5379866999999999,11.342291000000001,4.8656120000000005,-0.9498431,-0.46706757,-1.4728135
-0.5663149000000001,13.626062,1.9927897,-0.93867296,-0.7108726,-1.4318331
0.5461461,14.033278,1.4878623,-0.9583603,-1.0031105,-1.2582951999999998
1.615751,12.976056,1.3763020000000001,-0.88331115,-1.2469156000000001,-1.0011733
1.4100603,11.013241,0.93954223,-0.6900683000000001,-1.3049476999999998,-0.76747364
1.5592095,8.909677,0.8596812,-0.4207116,-1.1058581,-0.6509031
2.0190592,7.131302400000001,0.7537809,-0.10876892,-0.71459013,-0.62641615
2.1400332000000004,5.6121526,0.7033111,0.104667395,-0.3973242,-0.5763775
2.0139353,4.6442723,0.53672254,0.18292795,-0.3068289,-0.4582013
1.6892912,4.1815977,0.5761885999999999,0.26275933,-0.2642603,-0.28946286
1.4058561,4.5831914000000005,0.12735237,0.34103733,-0.20516345,-0.09089675
1.1768363000000002,5.208001599999999,-0.42046009999999995,0.41554543,-0.24401449,0.057595864000000004
1.3118119,6.3459463,-0.5763514,0.55021507,-0.47664940000000006,0.23006929999999998
1.8005737000000002,7.548189999999999,0.26587132,0.6636091,-0.522953,0.43608797
2.5116231,8.343084,1.0312306,0.6167644,-0.09976302,0.545747
3.5049197999999997,8.724969,1.9230324,0.61091757,0.42615703,0.6633821999999999
3.8189528,9.39911,2.707459,0.6998072,0.91856676,0.9188984
3.1584882999999997,10.060253999999999,2.634503,0.8930501000000001,1.2384856000000002,1.1568565
2.2874967999999996,10.114008,2.6997687999999997,1.0591356,1.2858713,1.2398993999999999
1.4807945,10.513705999999999,2.6749457999999997,1.1214263,1.2699015,1.2116948
0.7464736999999999,10.776703999999999,2.2312427,1.1022452,1.4157587,1.216477
0.36610216,10.806555,2.0710802,0.9904569,1.7404772000000002,1.2297764
0.14483963,12.121853,2.0335393,0.76422733,1.9975817,1.2037013
0.39855799999999997,13.737766,1.1372937,0.47464228,2.133857,1.1446043
0.26978824,12.074313,1.4718594999999999,0.19357447,2.148762,1.1147941000000001
0.10164823,11.175367,2.0995807999999996,-0.044889867,1.9502133999999998,1.1270463
0.29618192,12.9219,1.8293042000000002,-0.23280947,1.5988786,1.1861258
0.7620361,15.151332,1.3161597,-0.35150929999999997,1.2278391000000002,1.2643863000000002
1.4758242,15.361189000000001,1.0136571,-0.40845940000000003,0.8791747,1.2904790000000002
1.9985743000000002,13.766354000000002,1.3557981000000001,-0.39142498,0.549674,1.2297938999999998
1.9839121,11.635963,1.5307376,-0.27007225,0.31117475,1.1542037
1.9844293999999998,9.605413,1.1517546,-0.12634438,0.18873991,1.0455918
1.8833749,7.902914999999999,0.6085581999999999,-0.05553638,0.15095353,0.84119636
1.4533091999999999,6.558207,0.27039158,-0.038501963,0.07855727,0.5420119999999999
0.86246806,5.595345,0.06702807,0.016301375,0.013072516000000001,0.29129544
0.35821086,5.1037774,-0.36170644,0.039200094,-0.14660765,0.06665412
0.06405926,5.0774508,-0.81184506,0.0061959187,-0.42448149999999996,-0.2213252
0.23019771,5.368144999999999,-0.94571924,-0.023073252000000002,-0.5889788,-0.38208747
0.94389963,5.790463,-1.0047028,0.026424285,-0.48942524,-0.29476866
1.7465798,6.4576125,-0.9698431999999999,0.13980088,-0.29405308,-0.35599482
2.4557900000000004,8.012023,-1.0103531,0.40809290000000004,-0.019373154,-0.5785068
3.3836197999999995,9.924425999999999,-1.3790697,0.43525020000000003,0.29574603,-0.6029938
3.9590805000000002,10.486374,-1.4864545,0.11107276,0.38037705,-0.49333477
4.3269835,10.573982,-1.0048655999999998,-0.09653416,-0.19504054,-0.6695432
4.465138,11.506724,-1.9153613e-05,-0.19341739,-0.96532416,-1.0443003
4.340841,11.563573,0.5552441,-0.38131952,-1.4279063,-1.3258917
4.322971,11.04338,1.2348143,-0.5580516,-1.5593993999999998,-1.4547143999999999
3.6280010000000003,11.229362,1.9539751,-0.68368036,-1.4135422,-1.507406
2.7347145,12.357576,2.382968,-0.7630056,-1.1015995,-1.5489273000000001
3.6611462,11.6754675,4.3527355000000005,-0.7991863,-0.7566526,-1.5441451000000002
3.3603864000000003,10.761956,6.2590466,-0.80878556,-0.56979764,-1.5026238
1.6420105999999999,11.682249,3.7519727,-0.7603352,-0.526688,-1.412652
0.3206219,13.133203,1.3200958,-0.6623874,-0.5857674,-1.3354735
0.8890533000000002,12.923575,1.3258992,-0.6054373000000001,-0.61877155,-1.1938751
1.875091,12.175272,0.99113244,-0.55005795,-0.6134483000000001,-0.96178114
2.0558436,10.575965,0.70092654,-0.41112974,-0.5836380999999999,-0.7110470999999999
1.9733393,8.767452,0.7186819000000001,-0.22853342,-0.4729144,-0.48427650000000005
2.0553169999999996,7.134529,0.65445983,-0.08428195,-0.28714156,-0.38954005
2.1660824,5.852291,0.5395956000000001,-0.0039095376000000005,-0.14873695,-0.40922734
2.0781384,4.943537999999999,0.58665603,0.08550368,-0.13009684,-0.4055098
1.7194200000000002,4.762910400000001,0.4279875,0.21486749,-0.17374752,-0.27028167
1.8189611,5.051305999999999,0.5831414,0.3117507,-0.23017402,-0.09302605
1.7727244,5.4383526,0.42732668,0.41076323,-0.39145988,0.029932396
1.6462721999999999,5.7170762999999996,0.17607917,0.5587496999999999,-0.660834,0.18376571
1.903036,6.316402,0.73018366,0.6369928,-0.79817396,0.3423987
2.3074357999999995,7.350477000000001,1.4255746999999999,0.5305276999999999,-0.657099,0.39350194
2.5990784,8.24179,1.7809700000000002,0.44003242,-0.2024931,0.45312238
3.1833785,9.151109,1.9253883,0.46080184,0.42776275,0.7065093000000001
3.2672713,10.004086000000001,2.05117,0.5725901999999999,0.96699965,0.9199805
2.4016142000000005,10.47128,2.670186,0.70940655,1.1112686,0.89442885
1.1622701000000002,11.029571,2.5954102999999997,0.78126174,1.085717,0.7874227
0.4815793,11.478665,2.0054984,0.7785914,1.2970414,0.7485717
0.47730803,11.6214075,1.9972047,0.72216487,1.6787275000000002,0.7703883
0.45679453,12.677432000000001,1.7245052,0.56887263,1.9885409,0.7900931
0.905918,14.119239000000002,0.49816632,0.34421384,2.1434387999999998,0.7975456999999999
1.0536594,12.740399,0.45245624,0.09777334,2.057743,0.7927635000000001
0.63472205,10.797409,1.6733267,-0.13751449,1.780934,0.8230973
0.7784220000000001,12.198554,1.5445665000000002,-0.33606315,1.3784958999999999,0.8832413
1.7151773999999997,15.02012,1.1678819999999999,-0.48352602,0.9467713,0.9583079
2.6370602,15.716325,1.2412404,-0.5426054,0.57255524,1.0482622
2.667811,13.724368,1.8550561999999997,-0.4851317,0.2866878,1.0993655
2.571679,11.3476925,2.1033923999999997,-0.33341023,0.074298665,1.0903072
2.211189,9.477016,1.769564,-0.14603170000000001,-0.038013272,0.9274331
1.5930061000000002,7.7235894,1.0419278,0.03174754,-0.06408849,0.6426301999999999
0.94004023,6.419592400000001,0.5954571,0.14514159,-0.041207224,0.41214204
0.2730922,5.329886,0.19552007,0.15898204,-0.030019663,0.25457373
-0.31718385,4.525099,-0.17682615,0.110008106,-0.09815732,0.041119955
-0.5139393,4.1880717,-0.559659,0.065816365,-0.19451694,-0.25218263
-0.34099179999999996,4.289892,-0.8100734,0.08019788,-0.15671311,-0.32086134
0.37222174,5.123697,-0.8825315,0.104684845,0.03330088,-0.1638166
1.5208831,6.930246400000001,-1.0167983,0.14779449,0.079080865,-0.27827528
2.7792659,9.410169999999999,-1.2020425,0.33304372,0.14243633,-0.39910445
4.1086893,11.024427000000001,-1.2122705,0.23668409999999998,0.21270327,-0.22291344
4.5266595,10.94742,-0.83711827,-0.027314402,-0.046530478,-0.12709488
4.2921333,10.988935000000001,-0.42037395,-0.080564395,-0.89451617,-0.4768414000000001
4.6276946,11.742535,-0.100824624,-0.23013912,-1.69461,-0.85212207
4.998279,12.036638,0.41291359999999994,-0.5229180999999999,-2.0576558,-1.0288541
4.707355000000001,11.280952000000001,1.5901903999999998,-0.7071026999999999,-2.086925,-1.1369075000000002
2.9776974,11.538634,2.4466443,-0.8236906999999999,-1.8782536,-1.2577541
1.6564332,12.405805,2.5252411,-0.9040630999999999,-1.4768801999999999,-1.2401786
1.5658653999999999,10.801757,4.861436,-0.9109746,-1.0866944,-1.1683233999999998
-0.015782578000000002,9.938744,5.829814,-0.8465719,-0.87215847,-1.0746341
-1.9568481,11.937393,2.8539362,-0.7129495,-0.7694284,-1.0160784
-1.2942001,14.090001999999998,1.5161809,-0.5596398,-0.6666809,-0.94155276
0.5382836,14.050239000000001,2.0471287,-0.3903778,-0.49101347,-0.81698865
1.3758041,12.698299,1.2189264,-0.2700548,-0.254661,-0.6626141999999999
1.4655578000000002,10.166288,0.9990046,-0.21469295,-0.027366763,-0.48162362
2.0303502,7.936405000000001,0.97320473,-0.17105971,0.079080865,-0.32457888
2.2618694,6.3336687000000005,0.6378632,-0.08854055400000001,-0.0023387412,-0.20320868
2.2707949,5.167549,0.55571336,-0.052342422,-0.20675170000000004,-0.17926277
2.4949974999999998,4.9667234,0.5729229,0.013107423,-0.33663909999999997,-0.19683823
2.6560411,5.214897000000001,0.47275907,0.16215853,-0.34569737,-0.14199999
3.1576552,5.895703,0.4288973,0.28565803,-0.41435862,-0.023282692
3.2909260000000002,6.221611,0.5851908,0.36924186,-0.6001489000000001,0.07410668
3.1523783,6.193407,0.8510334,0.4203451,-0.73907715,0.16194909999999998
2.9633322,6.109801999999999,0.83979976,0.35379568,-0.70342004,0.16566665
2.8375504,6.8541875,0.9229743,0.13395402,-0.46333256,0.12414527
2.8287492000000003,7.987258,1.5048131999999999,0.100949846,0.17596409,0.33442253
2.4628196,8.932249,1.9424637999999999,0.26225317,0.8711810999999999,0.58939767
2.6082337000000004,9.69394,1.9545305,0.46986008,1.2342271,0.65701175
2.6898475,10.603996,2.465568,0.560879,1.3188756000000001,0.5744925999999999
1.8759336,11.325915,2.5732975,0.52735126,1.3055587,0.5329712
1.0922348,11.478665,2.323343,0.46080184,1.3843428,0.59259164
1.3156042,11.278625,2.1700852000000004,0.36072466,1.4540861999999999,0.6452831
2.200712,12.688618,1.3189945,0.19676842,1.4732499,0.62666047
2.5173976000000002,13.259070000000001,0.24429476,0.012583823999999999,1.5121008999999999,0.58407444
1.7768999,11.620486999999999,0.44755292,-0.15507251,1.5067776000000002,0.58407444
1.265374,11.975117,1.5635287,-0.29082420000000003,1.3848839,0.6186843000000001
1.9746609,14.460194,1.7447887999999998,-0.37547270000000005,1.1921821000000001,0.68148124
2.6513004000000002,16.125303,1.6196774999999999,-0.3972893,0.9127025,0.7187614999999999
2.3481085,15.011586999999999,1.7656854,-0.3557679,0.65559804,0.7304725999999999
1.5447197,12.497829,2.1256967,-0.25621432,0.48312458,0.7507010000000001
0.99084514,10.336764,2.2010376,-0.1412495,0.40327579999999996,0.8076511
0.7814196,8.658783,1.6004376,-0.11676253,0.32449162,0.7757116
0.7733846,7.2123504,1.0250822,-0.16786577,0.16160004,0.5563935
0.56943697,5.9884634000000005,0.6818878,-0.12419763,-0.063023835,0.26096162
0.14732958,5.140207299999999,0.16797718,-0.13166764,-0.254661,-0.0099832835
-0.07861601,4.77716,-0.18090588,-0.19926424,-0.35899678,-0.36397097
0.063427195,4.827744999999999,-0.42222226,-0.22746876,-0.2695661,-0.6056467
0.6336398,5.3680015,-0.5051190999999999,-0.21682225,-0.13702579999999998,-0.60618776
1.249802,6.335728,-0.46417826,-0.18596484,-0.15671311,-0.57585394
1.5683937,7.4151683,-0.38320637,-0.07417649,-0.31695178,-0.6860366
1.8734915,8.803077,-0.5332653,0.12383111,-0.37444293,-0.60779345
2.632396,9.964686,-0.84525853,0.15737633,-0.25891959999999997,-0.29583332
3.601004,10.510458999999999,-0.39383662,0.1781283,-0.066217795,-0.12655382
3.8830313999999997,11.41179,0.78498214,0.35805428,-0.14234905,-0.26549947
4.184672,12.34051,0.8666244000000001,0.45228463,-0.41594687,-0.36503562
4.887169,12.454905499999999,1.6909193,0.33517304,-0.7294953000000001,-0.39591047
3.9338267,11.27037,2.5348656000000003,0.14140658,-0.95094264,-0.45713663
2.2454548,11.345642999999999,2.7482752999999995,-0.066723935,-0.86044735,-0.5401794
1.5383798999999998,11.395616,3.1377162999999997,-0.22055726,-0.590026,-0.5928709
0.58146536,9.062657000000002,5.2037783,-0.32169908,-0.31695178,-0.58915335
-1.0368042,7.99672,5.8347370000000005,-0.36161476,-0.06782349,-0.51621604
-1.3650206,10.2176285,3.7709059999999996,-0.38344884,0.088139124,-0.50982815
0.323313,13.463582999999998,3.0195386,-0.3845135,0.19247492,-0.57744217
1.5799623999999999,14.068280999999999,3.6049782999999995,-0.36534977,0.295205,-0.6136403
1.0699017,12.984148,3.005317,-0.37278488,0.369748,-0.58754766
0.85039175,11.102527,2.3030209999999998,-0.42709953,0.4485147,-0.5423087
1.5188433000000001,9.235758,1.8063486,-0.48457322,0.5608441,-0.50769883
2.1479342,7.6096444000000005,1.6537038,-0.45956263,0.5384864,-0.46085417
2.2677016,6.2903724,1.6132993999999998,-0.37599629999999995,0.41498694,-0.38793433
1.9879153000000003,5.4734516,1.4756806,-0.20245819,0.17437585,-0.32990214
2.0926282,5.417504,1.2811086,0.065816365,-0.05185373,-0.22504276
2.7910932999999996,5.810785299999999,0.95403194,0.35753068,-0.16735962,-0.10845476
3.0355990000000004,5.753104,0.933844,0.6279520000000001,-0.16683602,0.025673794
2.709997,5.3125324,0.8454309000000001,0.8600459,-0.21633355,0.20186478
2.3858027,5.3390794,0.5328823,0.9303129000000001,-0.26796040000000004,0.33283427
2.4960895,6.127806,0.27233565,0.78445566,-0.0768643,0.34772193
2.6533884999999997,7.4598154999999995,0.5751447,0.5491679,0.23186699,0.5015727
2.3887045,8.755194,1.1654782,0.38362336,0.47141343,0.8300088
1.8864106,9.193485,1.7490218999999998,0.43205625,0.6390872,0.95724326
1.6963494,9.54755,2.433869,0.62475806,0.6449515,0.87365943
1.6089227,10.416387,3.1239448,0.75944513,0.48258352,0.7970046
1.903218,11.503651,3.3483870000000002,0.6923720999999999,0.15786503,0.7996749
1.4588733,11.902209,3.8949926,0.56728435,0.038100537000000004,0.7815759
1.1993802,12.120024,3.665743,0.42408009999999996,0.18661061,0.7762526
1.7456124,12.992517999999999,2.5547664,0.24574235,0.46767843,0.7703883
1.0245841999999998,12.42651,1.7182803,0.07220427,0.70935416,0.74377203
-0.9255313000000001,10.940888000000001,1.2330713,-0.0874759,0.83924156,0.637307
-0.7879031,12.384631,0.735901,-0.2168397,0.90366167,0.5138075
1.3114478999999999,15.126413000000001,1.0693271,-0.32702234,1.0165146999999999,0.4675039000000001
1.8260290000000001,16.132227,1.506585,-0.36695546,1.1517253,0.54415876
0.5747329000000001,14.672654000000001,1.5097357,-0.28017770000000003,1.1820591999999999,0.70544463
0.2548101,12.78248,1.3214173,-0.15613715,1.063883,0.81245077
0.6496523,10.762971,1.5127045,-0.14229669,0.80039054,0.6947981
0.79692435,8.608189999999999,1.3953981000000002,-0.22001621,0.48684213,0.31206486
1.0079876,6.9448705,1.0642897,-0.16999507,0.32981488,0.07410668
