accx,accy,accz,gyrx,gyry,gyrz
-0.66736937,6.5784235,0.12116576,0.4562116,-1.8274120999999999,-1.0928729
-0.062335435,7.681739,-0.10812215,0.5727996,-1.7592744999999999,-1.5091513
0.6343485,8.615785,0.11192414,0.5062502000000001,-1.5016288999999998,-1.5959116000000002
1.4989905000000001,8.882488,0.5518156,0.34068826,-1.2881751000000001,-1.3239020000000001
2.3174436000000003,8.551006,1.0633991000000003,0.3545462,-1.245048,-0.9698969000000001
2.4013174,8.018383,1.1861162,0.5429719,-1.0411761999999998,-0.73141515
2.125802,8.313386999999999,0.9966296,0.5589590999999999,-0.32145473,-0.7543138
2.0791247,10.555174000000001,1.0205524,0.39287362,0.3700098,-0.7351327
3.142026,13.5329,0.7816015000000001,0.2890789,0.21617648,-0.8229751000000001
5.1010957,13.900054999999998,1.0378865,0.21347122,-0.33423054,-0.9832138000000001
4.936844000000001,13.248478,2.3463752,0.03141593,-0.81227624,-1.0390992000000001
3.9119818,11.704869,2.3912424999999997,-0.19425514,-0.91500634,-1.0955257
1.6727808999999998,10.480139,1.9760592000000001,-0.3475823,-0.6578844,-1.1764392
0.16945203,9.749083500000001,1.7628986,-0.41146138,-0.34435347,-1.1711159
-0.23449770000000003,10.518763,2.6644783,-0.437013,-0.19901989999999997,-1.0683684
0.49171159999999997,11.638185499999999,2.9254558,-0.3933623,-0.29963812,-0.95870936
0.6580224,11.513342999999999,2.4709119999999998,-0.32522464,-0.44230133,-0.84587383
-0.75131005,10.623466,2.148231,-0.2576106,-0.55941296,-0.72874475
-1.4217727,9.392157000000001,2.5905838,-0.18256144,-0.5375789000000001,-0.6132389
-1.9148058999999997,9.238294999999999,2.0951178,-0.0782082,-0.39011599999999996,-0.53551936
-1.5421053,9.338776,0.97868264,0.030368729,-0.062203534000000005,-0.44928265
-0.4757949000000001,9.091789,0.608472,0.053249995999999994,0.24013986,-0.35292304
0.24475445,8.2513,0.789512,0.036756635,0.33648202,-0.24007004
0.23433489,7.3057914,0.9491669,0.06550220400000001,0.26089182,-0.09368927
0.13939999,6.6287303,0.9244013000000001,0.19699532,0.22469369,0.15809192
0.23765804,6.6065119999999995,0.9086379000000001,0.35508722,0.40249038,0.42797219999999997
0.65473753,7.550440299999999,0.50878704,0.47645742,0.79002327,0.6574131999999999
1.1347558,8.86957,0.28536009999999995,0.5488536999999999,1.1866143999999998,0.85011494
1.6500839,9.555537,0.32502726,0.46156980000000003,1.1807675,0.7979645000000001
1.7506403000000001,9.341610000000001,0.89181143,0.34922293,0.9539795,0.7313977
1.5138633,8.552059,1.255711,0.15866788,0.85070837,0.67551225
0.9880392,7.907367999999999,1.2800074,-0.10056587,0.88318896,0.6430491
0.4752299,7.9064107,1.3675585,-0.28366837,0.9832661,0.72982687
-0.08347145,8.508505,1.5245415,-0.38322195,1.1434872999999999,0.81339324
-0.4630482,10.516799,1.5773863000000001,-0.41462043,1.4421306999999999,0.91188216
-0.3682857,12.861757,1.2217036000000001,-0.43645447,1.8722496,1.1205363000000002
-0.4767909000000001,14.2606125,1.7543466,-0.43860123,2.456743,1.1966676
-0.6649082,14.346382,2.2587569,-0.45987680000000003,2.8884676,1.0960667
-0.9681386000000001,12.652494,2.6484852,-0.44975388,2.9150662,1.0236530000000001
-1.3476481000000002,11.613928,2.3727016,-0.42739624,2.535527,1.051875
-0.82052165,10.959593,1.0296887,-0.4561418,1.8259459999999998,1.031123
-0.48971003,10.182176,0.6521231,-0.50298643,1.0359751,0.96405005
-0.25639984,9.941071,0.8056776,-0.51736796,0.35938075,0.8618435999999999
0.47965437,10.031935,0.7625724,-0.50672144,-0.09414306,0.7282211999999999
1.0159748,10.239991,0.8115673000000001,-0.50885075,-0.3906396,0.59461623
1.3279678999999998,10.000053,1.1315093,-0.4699997,-0.66586053,0.46738172
1.4819822,9.754514,1.5253172,-0.36032322,-0.9437344000000001,0.363587
0.48100470000000006,9.583836,1.5708548999999998,-0.1984963,-1.1651818,0.24380504
-1.1165408,8.918258,1.2206885,-0.04998623,-1.3035864,0.059079394
-1.9561585,7.990591,0.68852454,0.014940018999999999,-1.3429785,-0.21556562
-2.1679592,7.617018700000001,0.6384187,0.038362335,-1.3653362,-0.42744857
-2.0813846999999996,7.1355352,0.8660019,0.086812675,-1.4116396999999998,-0.44765950000000004
-1.6150229999999999,6.6224675,0.8217379000000001,0.11768755,-1.4947,-0.5179439
-0.90929866,6.850078999999999,0.7161057,0.18743089999999998,-1.6304343000000001,-0.8112465
-0.34517685,7.634208999999999,0.52699256,0.26834437,-1.7049598000000001,-1.1258421
0.04991432,8.416864,0.6212666,0.31784192,-1.6964426,-1.2498826
0.58060354,9.275846000000001,0.7974033,0.44507640000000004,-1.4872299999999998,-1.0332174
1.3694643,10.192835,0.9386803,0.54195964,-0.87186176,-0.8059232
2.1490164000000003,10.822443,0.88321143,0.5893279,-0.061662484000000004,-0.6488785
2.5372217,10.429047,0.7902494000000001,0.40407863,0.45254642,-0.52431434
2.0276302999999998,10.34409,0.947874,0.11876965,0.15285593,-0.6605897
1.5707017,11.298150999999999,0.9463609000000001,-0.032934364,-0.5545958000000001,-0.7958003
2.2570810000000003,11.847822,1.0184455,-0.13409364,-1.2173496000000001,-0.8767138000000001
3.0377917,11.546152000000001,1.5798092,-0.25118777,-1.4968119,-0.9805084999999999
2.7202346,10.905588999999999,1.9987561999999999,-0.31559044,-1.2178733,-1.0332174
1.3594277,10.615297,2.5545173,-0.30654964,-0.7238753000000001,-1.0449287
-0.30522242,11.539353,3.324962,-0.25703463,-0.31079078,-1.0172477
-0.6467313,11.906757,4.34923,-0.18624409,-0.19633208,-0.95389223
-1.4981669,11.532314,4.772439,-0.11810643,-0.39383355,-0.87351984
-2.3302383,11.372496,3.0510845,-0.041975167,-0.7515562,-0.77396625
-2.501682,11.136409,2.1277654,0.045308746,-1.0980914,-0.65259606
-2.7627556,10.945849,1.7054952,0.14910348,-1.1987096000000002,-0.5152561
-1.7634444,10.623388,1.1199309,0.29708993,-0.9809972,-0.3933623
-0.39462188,9.564615,0.9142403,0.43710026,-0.6243217,-0.34650022
0.5939248,7.9851227,0.9863056999999998,0.5313131,-0.32037264,-0.36674604
1.0279074000000001,6.5004683,1.0074992,0.586675,-0.06218608,-0.29754373
0.8870995999999999,5.3774824,0.90770894,0.6186145000000001,0.38760272,-0.09791297
0.65689236,5.04873,0.85586965,0.53398347,1.3596289,0.10487683
0.6068631,5.7362294,0.7271095000000001,0.36950365,2.2400951,0.42694244
0.7583969,7.048625500000001,0.5764279999999999,0.25930357,2.0984967,0.71279246
1.19214,8.201319,0.42093897,0.09641199,0.8635190999999999,0.7042927
1.7085981,8.89897,0.5305072,0.0085870195,-0.5120098,0.6047391
2.207435,9.214306,0.82033014,-0.0850848,-1.0730634,0.43280676
2.392727,9.19158,1.2301600000000001,-0.23574162,-0.69991195,0.42216024
2.292161,9.143504,2.251201,-0.36456436,0.28700194,0.5403365
1.9301288,9.680945,3.4205574999999997,-0.39118063,1.331948,0.7527256
1.8366113000000002,11.321988000000001,3.5792549,-0.47048840000000003,2.0325058,1.038593
1.1658803999999998,12.871439,2.194037,-0.6062227,2.4179093999999997,1.2946328999999999
-1.1964784,13.974266,1.4849508999999999,-0.5247856,2.7037593999999996,1.2717516000000002
-3.2989419,14.231959,1.6149274,-0.5812121,2.6830075,1.2068079
-3.8675455999999997,12.491288,1.9586581000000003,-0.7174874,2.404069,1.2504586000000002
-2.7759907000000004,11.070817,1.6204339,-0.70047045,1.9723442999999998,1.2839863
-0.33619383,10.620804,0.6158749,-0.6365565,1.449077,1.1716744
1.0786166000000001,10.640934,0.13973518,-0.5593779999999999,0.91727525,1.0497632
1.6245041999999998,10.314077000000001,0.5550621,-0.51253337,0.46746898,0.95448565
1.2119832,9.982825,0.98175675,-0.45610690000000004,0.17362535,0.8357858
0.9606399,10.273194,0.529425,-0.42790237,0.08045968,0.7293206999999999
1.282162,10.312344,0.862334,-0.42629668,0.14329153,0.6159266999999999
1.1525590000000001,10.249597,0.89207953,-0.41671482,0.19385372,0.4871214
-0.3406949,10.753988,0.19636285,-0.34218925,0.12732176,0.35295793
-1.8357589,10.736127,0.65185493,-0.21123719,-0.032899458,0.25661576
-2.2256117000000004,9.348132000000001,1.0235883,-0.11487757400000001,-0.2745752,0.109693944
-2.0130734,8.287884,1.5058761999999999,-0.06218608,-0.5843885999999999,-0.1308997
-1.8924631999999997,7.436524400000001,1.6781056,0.009669124,-0.9048485000000001,-0.2836858
-1.2812713,6.662096000000001,1.5905544,0.13369222,-1.1848516000000002,-0.3039142
-0.57260686,6.562296400000001,1.3159108,0.21565288,-1.4387796,-0.4529653
-0.032771833,7.15896,0.91447014,0.31309462,-1.5782315,-0.8282459999999999
0.43775582,7.9340587,0.68840003,0.509514,-1.5430979999999999,-1.2573003
0.7583394,8.419469,0.6928340999999999,0.6362074000000001,-1.3983229,-1.5314566
0.8603898999999999,8.520217,1.0091656,0.6149144,-1.3977818000000002,-1.5208101
0.9401168,8.618811,1.1538999,0.6122615,-1.5340571,-1.5319802
1.4397292,8.670295,1.0579404,0.7315198,-1.180052,-1.3270261
1.7845901000000002,8.608687,0.9820058,0.6607118000000001,-0.18140952,-0.7989594
1.5753081,9.712453,1.1487668,0.29127800000000004,0.5680871999999999,-0.54876643
1.7748599999999999,11.967360000000001,1.1655262,0.14009757,0.36845645,-0.6829124
3.0937203999999996,13.440388,0.92575157,0.23005185,-0.41404447,-0.7915068000000001
4.0327263,13.268742999999999,1.4661708,0.19652407,-1.0831687,-0.72071624
3.8512459000000003,12.690629,2.1979919999999997,0.067701325,-1.1145847,-0.7324274000000001
2.139813,12.400853,2.432547,-0.03981096,-0.6711489,-0.7909832
0.745449,11.7254305,2.4273374,-0.13777629,-0.23891813,-0.7819424
0.48234546,10.544217999999999,3.7492337,-0.20163789999999998,-0.11327187,-0.74466217
-0.95913637,9.273423,4.727475599999999,-0.23305382,-0.2665816,-0.7137873
-2.4189005,9.343669,2.8751106,-0.25007078,-0.5715953,-0.6908886
-2.5740159,10.547522,1.3328137,-0.24528857,-0.9373116,-0.66481334
-2.622465,10.189484,2.4339836,-0.22238985,-1.1747288,-0.62648594
-3.344556,9.948521000000001,2.723893,-0.17343336,-1.2705473999999999,-0.5652772
-2.5207783999999998,9.875642,1.5308046,-0.11540117,-1.2604243999999998,-0.5061804
-0.48937482,9.242596,0.5544971,-0.058451075,-1.1821814,-0.49021062
0.41356483,8.146721000000001,0.11855129,0.008621926,-1.1209551000000002,-0.4779584
0.41270292,7.2924128,0.28253496,0.106569804,-0.99906135,-0.41887903
0.109529935,6.785646400000001,0.5851236999999999,0.2263343,-0.5614899,-0.25066417
-0.092799254,6.567429,0.81622165,0.31202996,0.2502802,0.009093165
-0.120993376,6.7883949999999995,0.9403754000000001,0.38124973,1.2611748999999999,0.34339353
0.016519992,7.528624499999999,1.0699401000000002,0.48610909999999996,1.9058123,0.7266678000000001
0.34246662,8.178621000000001,1.1429056,0.44087017,1.7759422999999999,0.84219116
0.73974127,8.675936,1.2888753000000002,0.32534683,1.1610978,0.73466146
1.2075204,9.01394,1.4025617,0.20291197,0.62931335,0.6233966999999999
1.5303067,9.163233,1.6338894,0.08367108599999999,0.6325073,0.6202026999999999
1.6460903999999998,9.075327,2.1489685,-0.04939282,1.1983606000000002,0.8059930000000001
1.9037830000000002,9.137758,2.7037241,-0.11325441,1.9095473000000003,1.0604446
2.0118093,10.121497,2.7326748,-0.13082989,2.3966339,1.2291831
1.9351183,11.491939,2.2791745999999997,-0.14947,2.6734430000000002,1.3313895
0.6448925999999999,12.052258,2.3205272999999997,-0.22610740000000001,2.8177117999999997,1.4389367
-0.8768524,12.556773,2.2456846,-0.35388297,2.8645391,1.5294145000000001
-1.2800263,11.715212,1.727541,-0.42945573,2.7149644,1.511333
-1.474876,10.992316,1.605724,-0.46513024,2.4248383,1.4005919
-0.9436602,10.768238,1.0019064,-0.43106142,1.9989778999999999,1.2478231000000002
-0.34113544,11.437292999999999,0.39247668,-0.43317327,1.4698639,1.0774964
-0.1754088,11.861316,0.305481,-0.49706978,0.9487085999999999,0.943333
-0.16247052,11.775086,0.79366827,-0.56094885,0.4877148,0.87893033
-0.09087432,11.604121000000001,0.9094806000000001,-0.6338687,0.08688249,0.86241955
-0.16182889,11.364261,0.76307034,-0.654097,-0.20696114,0.84273225
-0.43254605,11.114708,0.7277511,-0.5987352,-0.42839107,0.76660097
-0.94860184,10.82185,0.95154196,-0.45074874,-0.547632,0.55899405
-1.3833411,9.911995,1.1482208,-0.279881,-0.58650047,0.27314404
-1.6272048000000001,8.7592535,1.3042079,-0.19256218,-0.6344097,0.013910273999999999
-1.4680383,7.362266,1.3434441000000001,-0.15690510000000002,-0.82072365,-0.16175711
-1.5256907,6.278861,1.1362785,-0.077597335,-1.1805756,-0.28951523
-1.4562492,6.024338200000001,0.94132346,0.036320303,-1.6378344,-0.5050983
-1.3838487,6.6169224,0.493014,0.08155923,-1.9220960999999999,-0.9304176
-0.9481516999999999,7.839986,0.074890636,0.09646435,-1.9513828999999998,-1.4185687
-0.21010555,9.091042,0.21901199,0.13426818,-1.75814,-1.6001003999999999
0.74303573,9.600327499999999,0.5246940999999999,0.17366026,-1.4989063,-1.4973528
1.5743023999999999,9.373453,1.1718084999999998,0.28651324,-1.3211095,-1.2535478
1.8738267,8.850434,1.5063838,0.44355798,-1.0751578000000002,-0.9746093000000001
1.7369646,8.651276,1.4378521,0.60271454,-0.54124403,-0.72389275
1.5837069,9.247757,1.4536731,0.6314776,0.094876096,-0.50082225
1.9031892,10.776925,1.5263131,0.38020253,0.30246556,-0.457189
3.0649132999999997,12.141858000000001,1.514572,0.18271852,-0.0898321,-0.60091686
4.397957,12.183145,1.3902842,0.1667313,-0.8734151,-0.7632674
4.309017,11.64465,1.7518182,0.03260275,-1.4344861999999998,-0.9187064
2.8164144,11.231717999999999,1.9076137999999998,-0.19949113,-1.4733546,-1.1061025
1.4431481000000002,10.83586,2.1076732000000002,-0.36503562,-1.1640648,-1.21255
0.31170590000000004,10.921639,2.624907,-0.4092099,-0.73075193,-1.2535478
-0.34218886,10.426279,3.2791178,-0.36875317,-0.40229840000000006,-1.2370371
-1.0567911,9.777239999999999,3.8620483999999995,-0.32032028,-0.27560493,-1.1364362
-1.8415816999999999,10.100869,2.8518486000000003,-0.28305749999999996,-0.37887606,-0.98206186
-2.190618,10.440673,1.1989683999999998,-0.2181138,-0.650362,-0.83514005
-2.4510784,10.320675999999999,1.3394983999999999,-0.14943509,-0.96336937,-0.7467739999999999
-2.6937257999999997,10.130002000000001,1.5324711000000002,-0.050963614000000004,-1.1582005,-0.6536083
-1.7513393,9.9967785,0.7169485,0.030997047000000003,-1.168847,-0.53969073
-0.41716570000000003,9.182098,0.45595178,0.048572514000000004,-1.0953861,-0.43961352
0.21521957,8.032527,0.777924,0.10341076,-0.93303555,-0.35283577
0.38767870000000004,7.0706809999999995,1.0886913999999999,0.20561723,-0.70200634,-0.20165534
0.28856832,6.750107000000001,1.0550002,0.31579986,-0.36770597,0.026162485
0.12509225,6.997744,0.8701774,0.37754962,0.15875515,0.23748694
0.046141054,7.5264416,0.659095,0.4254589,0.7187614999999999,0.44083527
0.28175923,8.5225725,0.6942227,0.43929937,0.8800474,0.5701816
0.7521912,8.939221,0.623364,0.3456101,0.4909262,0.49300316
0.9642886999999999,8.833578999999999,1.1008921999999999,0.25832617,0.07571238,0.47544515
1.1110053999999998,8.873697,1.3638139,0.123115525,0.20933479,0.5020614000000001
1.1514673999999998,8.982872,1.7287860000000002,-0.024853487999999996,0.83641416,0.57817525
1.2664369,9.037595,2.1763678,-0.072239175,1.6024216,0.7645065999999999
1.042014,9.579871,2.5168328,-0.082362086,2.2380183,0.9279218000000001
0.7495861999999999,11.118683,2.2455312999999997,-0.10311405,2.7234990000000003,1.0711086
0.608721,12.220724,1.8517139,-0.14250614,2.960916,1.2670218
-0.23307075,12.311292,2.2128553,-0.22074924,2.9939202999999996,1.4847342
-0.8396273999999999,11.882088000000001,2.1268077,-0.32562608,2.882132,1.6428435000000001
-1.0129771,10.889653,1.8516374,-0.42570326,2.6665316000000003,1.6529490000000002
-0.857038,11.058894,1.3288202,-0.4682893,2.2704988,1.4975100000000001
0.22667345,11.930211,0.34411383,-0.52736866,1.7472316000000003,1.3154721
0.5291281999999999,11.886302,0.46410159999999995,-0.5880711999999999,1.1462275,1.1605393
0.36467522,11.547398,1.07311,-0.63224554,0.5111545999999999,1.0498155
0.33348358,11.311387,1.1583244,-0.6695083000000001,-0.039776053,0.9705078000000001
-0.09162131,10.911403,0.9793050999999999,-0.7184648,-0.4049513,0.89865255
-0.85156965,10.550394,0.77900624,-0.68439597,-0.6769608,0.76557124
-1.287209,10.131886999999999,0.78895646,-0.5582436,-0.7504392,0.6058736
-1.5915121,9.770536,0.9195171,-0.39481091,-0.71743506,0.38282052
-1.5940499,9.073355000000001,1.0222571,-0.28145180000000003,-0.6753726,0.10972885
-1.4122436999999999,8.147018,1.1533731000000003,-0.26546457,-0.7312755,-0.09145525
-1.5316283000000002,7.0976496,0.9447806999999999,-0.24097762,-0.8941495999999999,-0.15426965
-1.3371329,6.5018473,0.7957081,-0.16112879,-1.1342371999999998,-0.24104743
-1.033347,6.943338400000001,0.6093052,-0.06531022,-1.4477855,-0.68607146
-0.6049956,7.8414600000000005,0.13283029999999998,0.08798204,-1.6239765,-1.317933
0.15664783,8.569087,-0.04285621,0.20242329,-1.5100589,-1.6272228000000002
1.0258676,9.182463,0.25739583,0.2897421,-1.2593249,-1.4563376000000001
1.7382191000000002,9.474574,0.8485338,0.2833542,-0.94898784,-1.2327609
2.24715,9.238516,1.3039205,0.3248756,-0.6684435999999999,-1.384465
2.2758803,8.696067,1.3056828,0.5260946,-0.14782938,-1.3445493
1.8400493000000002,8.616445,1.0561686000000001,0.5207712999999999,0.26630235,-0.7611206
1.6646310000000002,10.02186,1.0678809999999999,0.2727077,0.13587388,-0.5886471999999999
2.7562242,11.752293,1.2517365,0.21628119999999998,-0.5673018,-0.9979966999999998
4.6884502999999995,12.173252,1.7520672,0.215234,-1.4765136,-1.2700063
4.896056,11.750368,2.6555720000000003,0.035290558,-2.004057,-1.3908528999999998
3.0593779999999997,10.722767999999999,2.8036773,-0.15367624,-1.9300549,-1.455814
0.6826348000000001,11.333107,2.5348563,-0.26544714,-1.369525,-1.4259864
0.11331277,11.838897,2.434405,-0.26705283,-0.66418505,-1.3030278999999998
0.049014095,10.212765,4.3705482,-0.22127284,-0.18243927,-1.1747288
-2.8265467,8.936281,5.93264,-0.14835298,-0.13398893,-1.0613521000000001
-5.1640916,9.509012,3.3859663,-0.047734755999999996,-0.48267079999999996,-1.0011907
-4.065546,10.953137,1.3301034999999999,-0.0056723203,-1.0256428,-1.0267423
-2.9131784,10.897745,2.2632484,-0.0030194195,-1.3748482,-1.073587
-2.86449,10.785255000000001,2.079891,0.031031952999999998,-1.3311975,-0.8824908000000001
-1.4475822,10.237233,1.2279669,0.043284167000000005,-0.96919876,-0.53115606
-0.16762285,9.036446,0.79953885,0.067788586,-0.508205,-0.28307495
0.37791994,7.618139299999999,0.84254825,0.12419763,-0.07808603,-0.17660987
0.42782468,6.551714,1.0148542,0.17264797,0.25672048,0.019792033
0.28613582,6.0363665,1.0987949,0.19926424,0.55162877,0.3104417
0.1665694,6.3337455,1.1632084999999999,0.22959806,1.0488207,0.51485467
0.51415,7.5572976999999995,1.2288861999999998,0.26207864,1.5433598,0.69851565
1.2196829,8.509683,1.1427908000000002,0.23492132,1.5444243999999998,0.8406378000000001
1.4541231000000001,8.380567999999998,1.556777,0.23120376,1.0860835,0.9306095
0.8947132,8.148694,1.9948872,0.23546237,0.75497705,1.0375983
0.9437943000000001,8.65029,2.1316439999999997,0.13219124,0.7528478,1.0594323
1.7034361,9.177349000000001,2.6708853,-0.014713125,0.8896641,1.1201173999999998
1.8351843,9.173509,3.1817889999999998,-0.11267845,1.0567969,1.3718987
0.88673574,9.796891,3.0136487,-0.15737633,1.3304296,1.6119860000000001
0.16592775,11.135288000000001,2.6175232000000004,-0.13501868,1.6386372999999999,1.7280331000000002
-0.2316055,11.730764,2.776297,-0.108926,1.8547789000000001,1.8233279999999998
-1.2347186,12.069802000000001,2.8092794,-0.11426671,1.9771961999999998,1.9340342000000001
-2.0428,11.739144,2.7176776,-0.13182472,2.0011596999999997,1.9936546999999998
-2.4404962,11.455892,2.6585118999999997,-0.13873622,1.8994942,1.9510862
-2.0520992,11.517748,1.7026125,-0.14672983,1.7014517,1.7945650000000002
-1.2472833,10.730544,0.720875,-0.19463912,1.4257071000000001,1.59654
-1.3265505,9.877308,0.57234824,-0.26277676,1.1563504999999998,1.4932863
-1.3750954,10.041319999999999,0.7077739000000001,-0.33517304,0.86678284,1.487963
-0.5066227,10.92842,0.92555046,-0.3703065,0.58410937,1.5145793
-0.0053151280000000006,11.792747,1.137284,-0.39214057,0.34988615,1.4416419
-0.12599248,11.687257,1.1497051999999999,-0.35857790000000006,0.19657643,1.173891
-0.46168828,11.302814999999999,1.4190433,-0.3069685,0.19657643,0.82201517
-0.5175306,10.487246,1.8072201,-0.26649433,0.15983725,0.5334948
-0.46413037,9.3906145,1.9726113999999997,-0.25265387,0.021450097,0.2944894
-0.32742146,8.121525,1.8085224999999998,-0.27768190000000004,-0.23884831,0.0011693706
-0.33269829999999995,7.039767299999999,1.512896,-0.22497293,-0.6583207,-0.279881
-0.73517317,6.5441957,1.1474163999999998,-0.1200961,-1.1704178,-0.5417851
-0.68789244,7.0493627000000005,0.82539624,-0.07431612,-1.5238819,-0.92132443
-0.124967754,8.471231,0.52707875,-0.07113962,-1.5132353,-1.4046758
1.0969753,9.741594000000001,0.4219254,0.027855453999999998,-1.1831936,-1.6767028999999998
2.3117263,9.8467865,0.7424994,0.20247565,-0.8031133,-1.5835371999999999
2.5260646,9.010214,1.3564686000000001,0.36430258,-0.4256858,-1.4627081
2.2826988999999998,8.281553,1.7366582,0.53197634,-0.061575215,-1.6192118
2.2842599999999997,8.001355,1.8169404999999998,0.58253855,0.38662532,-1.2487133
2.6332197,7.890867,1.9091747,0.46811476,0.72464323,-0.46884778
2.9756669999999996,8.801449,2.0128150000000002,0.29829422,0.5665513000000001,-0.25431192
3.9069157,10.300641,1.9234633,0.28019515,-0.11107276,-0.67006683
5.3793014999999995,11.495932,1.6719381000000002,0.31107002,-1.0277545,-1.1390542
5.967854,11.976764,1.7528142,0.14817846,-1.7091311000000002,-1.3828592
4.6349540000000005,11.967293,2.149658,-0.115854956,-1.9284491999999998,-1.5233932
2.9256474999999997,12.910618,2.2858593,-0.2856406,-1.6425816999999998,-1.5420158000000002
2.5988004,12.404982,2.3967009999999997,-0.35166640000000005,-1.1193146,-1.4802661
1.4919323999999998,9.743098,3.4791007000000005,-0.3601836,-0.7035597,-1.3817946
-2.8326566000000004,8.104439999999999,2.9867187000000004,-0.33674383,-0.5433384,-1.3354735
-4.9689455,8.396072,1.6438494,-0.2978928,-0.7158119000000001,-1.3354735
-2.944734,9.833331,0.8788540000000001,-0.23614305,-1.0729935,-1.3658248
-1.5231431999999998,10.29908,1.6005143,-0.16852899,-1.5180175,-1.3674131999999999
-1.8369656000000003,10.188066000000001,1.9299084999999998,-0.056217055999999994,-1.9066151000000002,-1.2667948999999998
-1.7878078000000002,10.230825999999999,0.9520208,0.07365289,-2.0641835,-1.0613172
-1.0210887,9.530886,0.39458358,0.12742649,-2.0764182,-0.86170393
-0.50869125,8.440814999999999,0.75534195,0.14231415,-1.9774231,-0.82337654
-0.110411,7.646812,1.1253993999999998,0.25251424,-1.5584743,-0.80314815
0.057815183,7.315894999999999,1.2737824,0.39943606,-0.63329273,-0.53325045
0.39035064,7.5631685,1.1545511,0.46118580000000003,0.64959407,-0.11271336
0.49713206,8.006412,0.9101223,0.5176122999999999,1.8648843000000002,0.45366344
0.68056625,8.270913,0.83848774,0.47502625,2.2604108,0.6979920999999999
0.6688059000000001,8.225557,0.90739286,0.37016687,1.7334087,0.67352253
0.49375144,8.398361,1.0321021000000001,0.24027948,1.2388695,0.7272787
0.5393083000000001,9.150907499999999,1.1207353999999998,0.09707521,1.1148465,0.7272787
1.2539871,9.906038,0.9881828000000001,-0.046635196,1.2112061,0.753895
2.557831,9.695176,1.8915343,-0.20313887,1.4629873,0.7778409000000001
3.1767895,9.149536999999999,3.2963657,-0.26595327,1.8531731,0.78051126
2.8616264,9.826761,3.1501374,-0.29256955,2.1816266,0.87791806
1.6219568000000002,11.175989999999999,2.561202,-0.34471998,2.470688,1.1243935
-0.47850516,12.624425,2.242055,-0.4176573,2.5313733,1.4938273000000002
-1.3023308999999998,12.133766,2.063572,-0.56456167,2.5079507999999997,1.8621964
-2.4320877,11.711103,2.413068,-0.641234,2.5287027,1.837186
-2.5756054,12.399485,1.7174278000000003,-0.6396283,2.5201857000000003,1.5034091
-1.7124958,12.062408999999999,1.1416511999999999,-0.6614623000000001,2.324831,1.3053841999999998
-1.0247566,11.495538999999999,1.1472824,-0.6859493,1.8159279,1.2899553999999998
-0.12974659,10.967541,1.5615367,-0.6928608,1.199495,1.2297938999999998
0.29499438,10.412469999999999,1.6660197,-0.73492324,0.70921457,1.1430336
-0.032053575,10.15584,1.1200267,-0.7881558000000001,0.28228956,1.0253809999999999
-0.71918947,10.119295,0.69024837,-0.77003926,-0.12330751,0.92956233
-1.2285799,10.005301,0.39774394,-0.6327168000000001,-0.54599136,0.85397214
-0.8723035,9.910136999999999,0.5860144,-0.45224970000000003,-0.92978925,0.7139793000000001
-0.053869538,9.313636,1.1700943000000001,-0.32183870000000003,-1.2241739,0.45153412
-0.40432322,8.127069,0.9485635,-0.25370106,-1.418464,0.20720549
-1.6114031,7.4259424,0.67335486,-0.19086921,-1.5616508,0.06295402
-1.8199763,6.923275,0.5172242,-0.13233086,-1.6846267,-0.14784685
-1.4861767,6.9018607,0.19219694,-0.058328904,-1.8043911,-0.73551667
-1.136949,7.5040507,-0.12077311,0.110933125,-1.7719281000000002,-1.387624
-0.7704158,8.106595,-0.20663877,0.22910938,-1.6047778999999998,-1.7288533
-0.5821358,8.613878,0.09256941,0.29031807,-1.3599082,-1.5702204
-0.22443247,9.161816,0.65399057,0.29192376,-0.9436296999999999,-1.1885343000000002
0.5411854,9.535942,0.938393,0.2988527,-0.34794885,-1.176282
1.2416713,9.436238000000001,0.9851085999999999,0.44203955,0.37812558,-1.1523362
1.3436548000000001,9.597416,0.96359915,0.4452335,0.91364497,-0.72699946
1.5952566000000001,10.904544999999999,1.0829262,0.24134412,0.84444267,-0.46830675
2.9939202999999996,12.411714,1.3679032,0.1934523,0.28763026,-0.5726425
4.9848905,12.632144,2.2518137,0.25891959999999997,-0.30429816,-0.7445748999999999
4.4325194,11.797975,3.2922091,0.1977109,-0.80042547,-0.93195343
2.5712577999999997,10.608487,3.6026127,0.05878269,-1.0607413,-1.1097502000000001
0.25898560000000004,11.360075,3.2239169999999997,-0.002443461,-1.012832,-1.1885343000000002
-0.0142598655,12.374211,2.855191,0.014590953,-0.8025547,-1.18267
0.90590847,11.126439,3.9159372,0.06569419,-0.60240036,-1.1416897
-1.3696461000000002,9.7343645,5.0583352999999995,0.11040953,-0.56833154,-1.0974979
-4.1590924,9.337175,3.5053987999999996,0.13596115,-0.8041605,-1.0570412
-4.382433,9.288708,2.19216,0.16151276,-1.1517601999999998,-0.9660223
-3.3863778,9.25585,2.6215935,0.20568705,-1.5584569,-0.85849255
-2.5107899,9.852418,2.1579897,0.2647839,-1.7101783,-0.7781026999999999
-1.3256694,9.821763,1.0399071,0.27010715,-1.4088821000000002,-0.6902776999999999
-0.42258617,8.757646000000001,0.83596903,0.21155135,-0.9223367,-0.6258576
-0.08247546,7.340546000000001,0.8659923,0.16631243,-0.5981418000000001,-0.5236510999999999
0.008705316999999999,6.3169866,0.9361233,0.21048671,-0.5001939000000001,-0.2777168
0.027839776,5.799101,0.84580445,0.28288296,-0.44376743,0.040055305
-0.1253604,6.2007236,0.81541723,0.28820622,-0.043458696,0.21200514
-0.105373606,7.562575,0.9080824000000001,0.31375784,0.6528055,0.43717006
-0.12846328,9.207391000000001,1.1381843,0.3382448,0.8981988000000001,0.58676225
0.37587053,9.879978999999999,1.3287723,0.27169540000000003,0.5223770000000001,0.5101074000000001
0.8411309000000001,9.608928,1.7304236000000002,0.15725416,0.23226842,0.45952773
1.2850925,8.996998,1.9414295,0.00075049157,0.41964698,0.48136179999999995
1.4362625,8.657136999999999,2.2487493,-0.118996546,0.96368355,0.58995616
1.0584478000000002,8.771168,2.6278183,-0.14187782,1.6184438,0.7975631
0.17030436,9.701382,2.7130904,-0.1679705,2.2593637,0.95884895
0.008599971999999999,11.280999999999999,1.985885,-0.22704989,2.8475919,1.0669198
0.48810109999999995,12.257230999999999,1.6285839,-0.29518753,3.2319310000000003,1.2058653999999998
-0.37236540000000007,12.616264,2.2935302,-0.37451276,3.31815,1.3815153999999998
-0.9072492,11.958836,2.639732,-0.47724283,3.0807505,1.5401658
-1.1368148,10.925997,2.503157,-0.57360244,2.6948058999999995,1.615756
-0.83826745,10.865022,1.6708560000000001,-0.64280474,2.237006,1.5247196
-0.12460384,11.221097,0.8586469000000001,-0.6225764,1.7983698000000001,1.3458583
-0.024171859,10.97753,1.2209567,-0.62789965,1.2825552,1.210124
-0.041228153,11.223481,1.8845432,-0.6417401,0.74171257,1.121758
0.20935857,11.395394,1.7898956999999998,-0.64280474,0.29349455,1.0381742
0.06531382,11.262592,1.5123502,-0.6507809,-0.08656833,0.9647133
-0.5090359999999999,10.903971,1.193251,-0.6167121,-0.38679987,0.8891230999999999
-1.1682076000000001,10.435597,0.94050944,-0.52248174,-0.52946305,0.8103389
-1.6019795000000001,10.01779,0.9518291999999999,-0.42668065,-0.51775193,0.6565055999999999
-1.547612,9.152372,1.1103733,-0.31435126,-0.46506044,0.5015902
-1.3329479,8.097822,1.3852084999999998,-0.25366616,-0.43631485,0.3466922
-1.3307069999999999,7.2940024999999995,1.4902086,-0.17222910000000002,-0.5257455,0.13854423
-1.4578965,6.811686,1.1920156000000002,-0.027436575,-0.77487385,-0.15262905
-1.2854564,6.7171245,0.96392477,0.14395475,-1.2236329,-0.5944590999999999
-1.0165971999999999,7.133581599999999,0.88423616,0.27225390000000005,-1.6707686999999998,-1.1209203
-0.5949783000000001,7.499693400000001,0.7074196,0.3185575,-1.9177678,-1.563815
-0.061674636,8.049364,0.7899238000000001,0.3057817,-1.8283371,-1.7378767
0.6381409,8.498573,1.0348793,0.26747170000000003,-1.3460503000000001,-1.6708037
1.3086514,8.818946,1.1882998,0.2850297,-0.75410444,-1.5212115
1.5011933000000002,9.539678,1.2581434,0.43195152,-0.07752752,-1.2082217
1.6897701,10.090247999999999,1.2063807,0.46814966,0.47396162,-0.6412863
2.0375900000000002,10.898089,1.5167555,0.3813719,0.44786894,-0.35702455
2.5729241000000003,11.980478999999999,2.1122317,0.39201840000000004,-0.24361305,-0.5502674
3.3920667,12.483338999999999,2.7745349999999998,0.36487854,-1.2177511,-0.8025722
3.7449434,12.392053,3.0754287000000002,0.23233823,-1.9922933999999997,-0.9851685
3.3129718,11.52946,3.0374086,0.049200833,-2.1685019,-1.1315667999999999
2.0198731,11.20448,3.053699,-0.11365584,-1.7697813999999998,-1.2050101999999998
0.82509935,10.892095,3.2465088,-0.21746802,-1.0894694,-1.1938401
-0.70673007,9.599139,4.021483,-0.27335346,-0.44109705,-1.1379371999999999
-3.1082196,8.6666565,4.8311543,-0.27974138,-0.10253809400000001,-1.0581058
-5.285545,9.466175999999999,3.2218294,-0.23396139,-0.13767157,-0.9532290000000001
-4.660965,10.653068,2.039314,-0.13761921,-0.46504298,-0.8259945
-3.7022017999999997,11.042059,2.239431,-0.03541273,-0.99578017,-0.69293064
-3.4412915999999996,11.059584,2.0973208,0.04441863,-1.5004246,-0.6476742
-2.3093033,10.413217,1.6237188999999999,0.09393362,-1.810238,-0.5736897
-0.84959686,9.283709,1.0652282,0.1434486,-1.8395072000000001,-0.38044688
0.18184441,7.9014406,0.8921562,0.2067866,-1.6505405,-0.22766075
0.56170845,6.805173399999999,0.8578041,0.23446754,-1.333798,-0.19997983
0.49658614,6.15126,0.8118642,0.24671975,-0.90209085,-0.096185096
0.107921034,6.0004826,0.89112186,0.23820254,-0.29630455,0.06988298
-0.28693068,6.7250156,0.9600749,0.29515263,0.48406705,0.3466922
-0.44496715,7.970901,1.1029034,0.35316738,0.91472703,0.5622927
-0.3760429,8.685062,1.0778121,0.3276332,0.60704297,0.51438344
0.025656266,8.544839,1.313124,0.25841343,0.15350170000000002,0.5846504
0.15575719,8.343975,1.7005535,0.13013175,0.010297443,0.60274947
0.5721567,8.679565,2.2983952000000003,0.0050440015999999996,0.3414213,0.63097143
1.506154,9.12388,2.8548942000000004,-0.08117526,0.9312204,0.83643156
2.1509987999999995,9.278029,3.1546001,-0.10355038,1.5556469,0.9849591000000001
1.852595,10.299291,3.0643485,-0.08332202,2.0602913,1.0600083
1.5151082,11.206445,2.8253112000000002,-0.106726885,2.3525292999999996,1.1643441
0.37471172,12.340109,3.0657754,-0.1823171,2.4595354,1.3219124
-0.29571265,12.423982,2.9040039,-0.27228883,2.4100203999999996,1.4438236
-1.0663007,11.566686,2.9238758,-0.35691983,2.223183,1.4369121
-1.7009845000000001,11.997096,2.3804877,-0.45008552,1.9745956999999998,1.3687744
-0.6620063,12.335952,1.522626,-0.55655056,1.6610473000000001,1.2851907
-0.43740150000000005,12.065483,1.5829121000000002,-0.6326644,1.3022599,1.238346
-0.324874,12.024341999999999,2.081289,-0.6640803000000001,0.90408057,1.2410164
0.16366763,11.748569,2.4651468,-0.6912202,0.5575454000000001,1.2474041999999999
-0.0038594531,11.30587,2.2715802000000003,-0.71518356,0.34461525,1.2026888999999998
-0.4808802,10.694603,1.7688650000000001,-0.6752504,0.22696261,1.1201698
-0.90064126,10.162505,1.5856701000000002,-0.55175096,0.11943288,1.0131811
-0.9061096,9.531738,1.5757582,-0.42132250000000004,0.05555383,0.8630653
-0.8158865,8.479496000000001,1.6138068,-0.36011377,0.01563815,0.64107686
-0.83880377,7.3461289999999995,1.5160850000000001,-0.35053194,-0.056740652999999995,0.4148473
-0.8496543,6.424074,1.4670806,-0.25045475,-0.24572489999999997,0.3115762
-0.8530253000000001,5.923868,1.3643597,-0.10299188,-0.54169786,0.16304865
-0.6992696999999999,6.2031374,1.2403209,0.027401669,-0.9201725000000001,-0.33997267
-0.22424093,6.861494500000001,0.88760716,0.13332570000000002,-1.2150983,-1.0650173
0.47931919,7.4895225000000005,0.75235397,0.18125243,-1.293865,-1.4839487
1.1173068000000002,8.073630999999999,1.0535253999999998,0.21690951,-1.3029232,-1.5419635
1.6737769,8.695769,1.5360718999999998,0.21849777,-1.1581306,-1.4067528
2.1758027,9.425991,1.7035607,0.20306906,-0.8419293999999999,-1.4668968999999998
2.4249146,9.347845,1.515951,0.3361504,-0.33834952,-1.4988538
2.2037668,9.151894,1.7207128,0.45008552,0.15936601,-1.0633941999999998
1.8628900000000002,10.29228,2.275995,0.37234855,0.2727426,-0.73443455
2.7627363,11.738072,2.5877874,0.33560935,-0.07271042,-0.8259945
4.7107353,12.467039,2.989697,0.382454,-0.8264832000000001,-1.0783168
4.9541683,12.048044,3.6535614,0.35424948,-1.6585165000000002,-1.2523785
3.0486424,10.739134,3.8510157999999994,0.20891590000000002,-2.1770015,-1.3290333
1.2334545,10.554149,3.9682171000000004,0.033789575,-2.1668787,-1.3737487
0.30906272,11.443603999999999,3.2800276,-0.07585201,-1.8315136000000003,-1.3758780000000002
0.5010585,10.87273,3.6555152,-0.11950269,-1.4572976,-1.3210572
-1.5771754999999998,9.845072,4.8064175,-0.120567344,-1.2736366000000001,-1.2231092
-4.43365,9.78063,3.7914577000000005,-0.07956956,-1.2747012,-1.1028037
-4.676000599999999,10.351341,2.4886482000000005,-0.020490166,-1.4626209,-1.0059205
-3.6548448,10.661265,2.567992,0.05721189,-1.767111,-0.9324595999999999
-3.1669064,10.60029,2.7865634,0.11789699,-2.0513727999999998,-0.8595223
-2.8138287,10.200707000000001,2.2227577999999997,0.1434486,-2.1439974,-0.7807381
-1.8865926,9.144309,1.4273177,0.15728907,-1.9321319,-0.64339817
-0.7662882,7.7710422999999995,0.9555834000000001,0.16261232,-1.4391985,-0.51509905
-0.11793838,6.620495,1.0013413,0.16580628,-0.84618795,-0.4320737
0.122755505,5.936586,1.0783771999999998,0.21158627,-0.33887312,-0.1690875
0.13975435,5.9487295,1.241269,0.25523695,0.23015657,0.13430308
0.20676325,6.641285400000001,1.3388567,0.3122045,0.8402014999999999,0.3557679
0.43825385,7.655489,1.3993247,0.4175875,1.2304046999999998,0.60062015
0.7153588000000001,8.388363,1.581964,0.4511327,0.94879586,0.6256482
1.206352,8.592312,1.7466849999999998,0.38885936,0.24399702,0.4856553
1.8669314,8.6717415,2.1294222,0.31379274,0.0017976891000000001,0.55005795
2.4239855,9.041616000000001,2.4784968,0.20999801,0.5719095000000001,0.72946036
3.083119,9.14223,2.6010513,0.1386664,1.6610473000000001,0.91790354
3.042724,8.800922,2.8401457999999997,0.14983651,2.7033405,1.1361569999999999
2.0179098,9.296216000000001,2.8919563,0.12482595,3.4789474,1.2990485
1.6451421999999998,10.372889,2.512973,0.04230678,3.878715,1.4363885
0.8685493000000001,11.195028,2.7715566000000003,-0.0678584,3.9197127999999997,1.6248316999999999
-0.19751208,12.165331,3.1416428,-0.17219418,3.6929421000000002,1.845738
-0.652487,11.834741000000001,2.9182062,-0.29089403,3.244183,1.9697784999999999
-1.0174687,11.010503,2.7904327,-0.386189,2.7171984,1.9133521
-0.40956170000000003,11.737114,2.2766082,-0.49476594,2.2215946,1.7701653000000002
0.48169422,12.724761,1.4883603,-0.5921901999999999,1.8377793000000002,1.6578358
0.76789707,12.545771,1.9982773,-0.6800326,1.4933735000000001,1.623767
0.58909816,12.17192,2.5045745,-0.68642056,1.0211921999999998,1.5625409
0.25848758,11.739509,2.0264907,-0.67416835,0.45959756,1.4864271
-0.36556587,11.422419999999999,1.2440847,-0.6736446999999999,0.04012512,1.4401059999999999
-0.98515654,11.231967,0.81561834,-0.60976565,-0.15681784,1.3267295000000001
-1.4122918,10.953214,0.7897993000000001,-0.49851840000000003,-0.29096383,1.0754719
-1.4332074,10.104699,0.7917241999999999,-0.36807248,-0.38358846,0.78323394
-1.1974936,8.823965,1.0047603,-0.28770009999999996,-0.40701079999999995,0.52663565
-1.1336354,7.374007000000001,1.07356,-0.27918285,-0.44160320000000003,0.25782004
-1.1660431999999998,6.1870866,1.1653538,-0.19346975,-0.58639574,0.016667895
-1.065458,5.6006794,1.0953760000000001,-0.06997025,-0.9121789,-0.38041195
-0.62430245,6.0623865,1.012029,-0.021013765,-1.3348453000000002,-1.0649998999999999
-0.26949134,7.1363199999999996,0.5104247000000001,0.044453535,-1.6744689,-1.5621918
0.22287144,8.156384,0.42593804,0.04605924,-1.8091560000000002,-1.7053787
1.2117151000000002,8.804591,0.7800309,0.01144936,-1.7798692999999999,-1.5957196000000002
2.0771997,8.918565,1.3326414,-0.0013089969,-1.6457233,-1.3173046999999998
2.2561138,9.016765,1.8910459,0.03593633,-1.4530215,-1.3817248
2.511527,9.05309,1.9667792000000002,0.29571113,-1.0266376,-1.5653683
2.8991005000000003,9.383001,2.2253529999999997,0.41175807,-0.5305103,-1.2965528
3.3901896000000002,10.654341,2.85023,0.24780184,-0.53796285,-0.9505412
4.6305585,11.597800999999999,3.2520921,0.07852236,-0.98244584,-0.9766338999999999
5.3926907,10.9647255,3.5746772000000004,0.0630762,-1.5318056,-1.1741179
3.9215875,10.473875999999999,3.7033415,0.028501227,-2.0721073,-1.3700136
2.5019217,9.99085,2.9158697,-0.17591174,-2.4229182999999996,-1.4908428
0.9133305,10.887872,2.688947,-0.42823398,-2.3691623,-1.5360992
0.16222152,12.086112,2.1807060000000003,-0.5852613,-1.9672478,-1.5419459999999998
1.0882508999999998,11.263254,3.5305089999999995,-0.6496813,-1.4221466999999999,-1.4956424
0.063321844,10.334553,4.9504529999999995,-0.6251944,-1.0835876,-1.523847
-2.5792544,10.219105,3.5669105000000005,-0.5464102,-0.9547648999999999,-1.5840085
-3.2155757,10.673016,1.8786343,-0.48411942,-0.94040084,-1.5754913000000001
-2.3774326,10.798194,1.8324645,-0.4410098,-1.0191851,-1.5536572
-1.664449,10.710605000000001,2.5154919999999996,-0.30686378,-1.1969816999999998,-1.5041597
-1.136288,10.464117,2.2188312999999997,-0.15941837,-1.4189527,-1.3098696
-0.6373173000000001,9.538289,1.3059413,-0.07744026,-1.5110537,-1.103851
0.108782955,8.295497,1.1603643,-0.040701076,-1.3641318999999998,-1.0176142
0.81472766,7.187603999999999,1.3018615,0.09929178,-0.9813812,-0.89624405
1.4181241000000002,6.573482,1.5275869,0.33403856,-0.3915646,-0.5651376
1.8898296,6.460255,1.8016272,0.5581563,0.3286455,-0.13875368
1.7328753000000001,6.885915799999999,1.8202732,0.6960373000000001,0.9759707000000001,0.21949259999999998
1.4021786,7.429275,1.5893095,0.7434055,1.0872178999999997,0.37599629999999995
1.4122436999999999,7.6158410000000005,1.6669581000000002,0.6704682,0.6741334,0.28763026
1.2538722,7.651533000000001,2.2034125,0.5581563,0.18865263,0.16893041
0.92635494,8.1928625,2.1534216,0.45010296,0.13009684,0.24452063
1.3362615,9.165627,1.962077,0.37344809999999995,0.5405285,0.45478043
1.9581505000000001,8.949497000000001,2.2546678,0.36651915,1.2682086000000001,0.7661995
1.7282688999999998,8.547894,3.2493818,0.42453387,2.0512505,1.1036938
0.8021246,9.084271000000001,3.6810086,0.40217623,2.7395560000000003,1.3336584999999999
0.022151154,10.695167,3.68935,0.26963592,3.258582,1.5013322
-0.57397634,11.720163000000001,3.8843527,0.09342747,3.5252682999999996,1.7094802
-1.2028853000000002,12.162583,3.9799197,-0.05560619,3.3708940000000003,1.9799016
-1.0534487,11.500337,3.212741,-0.17484708,2.9184175,2.1741915
-0.8216804,10.468484,2.429377,-0.23071507,2.4478416000000003,2.1678212
-0.2603072,10.366951,1.7592881,-0.29087657,2.0714965,2.0842373
-0.08429505,10.494495,1.7640765999999999,-0.43301618,1.7015215,2.0219464
-0.26203102,10.231850999999999,2.3797023,-0.62304765,1.4385527,1.9271926
-0.29739815,10.250334,2.9009106,-0.7534761,1.0164274,1.7126741
-0.015188815,10.360285000000001,2.5339751,-0.8130965,0.58044416,1.4635458000000001
-0.25820988,10.582381,1.8799368000000003,-0.8226783999999999,0.15351915,1.1271162000000001
-0.9397625,11.028507000000001,1.4535581,-0.8402364,-0.15467107,0.7651349000000001
-1.4799136,11.928794,1.2966517,-0.7917860999999999,-0.35004324,0.43509313
-1.3679702,12.208074,1.365892,-0.66884506,-0.5044175999999999,0.18968238
-1.386578,10.965358,1.7443866000000001,-0.5416105999999999,-0.63324034,0.029461157999999998
-1.8069233,9.119208,1.6150903,-0.47240826,-0.7487636999999999,-0.10414380000000001
-2.0942657,7.647156699999999,1.1959899999999999,-0.40957642,-0.78548545,-0.17280506
-1.5858235,6.9334354000000005,1.1439974,-0.2860769,-0.747158,-0.2409427
-0.67745376,6.909139,1.1622795,-0.15460126,-0.77377427,-0.5385039
0.32260429999999995,7.7199883,1.1095114,0.033283427000000004,-0.8962091,-1.0362369
1.4520928999999998,8.872624,0.9574604,0.20523326,-0.9611528,-1.4652911
2.0096354,9.24362,0.6748393,0.29359928,-0.9089849,-1.5722973
2.1203432,8.714722,1.1069448,0.38515925,-0.76790994,-1.4647502000000001
1.9673346999999999,8.132921000000001,1.5074469,0.47991318,-0.40859902,-1.4450628
1.9945998,8.093828,1.5670241000000003,0.6199235,0.23390903,-1.3029232
2.141642,8.230165,1.4023893,0.7098778,0.87269956,-0.9169959999999999
2.4832373,9.466731,1.5673689,0.7146774,1.1915712,-0.49005353
3.2813589999999997,11.54551,1.7353557000000002,0.7237182,0.9301906999999999,-0.436821
4.7474914,12.279458,2.049906,0.80730206,0.040142573,-0.8994205
5.0038624,11.742745,2.7164805,0.80517274,-1.124568,-1.2720483999999999
4.065708600000001,10.914323,3.1509035,0.7215889,-2.0801008000000003,-1.4242933999999998
1.9886143,10.840122000000001,3.260328,0.60821235,-2.5112843999999996,-1.4881723999999998
1.0734451,11.225071,3.503646,0.49108329999999994,-2.5123491000000002,-1.4897782
0.44270706,10.839202,4.0772204,0.41177553,-2.3148477,-1.425358
-2.3509624,9.397394,4.663474,0.34948474,-2.091271,-1.2986646000000002
-5.194546,8.473166,4.3629537,0.29731685,-2.0497495999999997,-1.1198032
-6.2495655999999995,8.669366,3.4490583,0.23130849,-2.2153115000000003,-0.9521295
-4.7636666,9.529278,3.3236883,0.1237962,-2.375009,-0.79934335
-3.7180230000000005,9.7980795,3.2637277,-0.0742114,-2.268544,-0.75516903
-4.0040536,9.673178,2.7213838,-0.18228218,-1.82352,-0.7205592
-3.3823366000000004,9.099308,1.9195272,-0.15618952,-1.1767359,-0.50817007
-2.0860488,8.353216999999999,1.0547704,-0.18441148,-0.5890486,-0.20155062
-1.27429,8.017885,0.649863,-0.18919370000000002,-0.24836035,0.09707521
-0.69719154,7.9392877,0.73787385,-0.0736878,-0.20896827,0.31319934
-0.50998414,7.8305526,0.8207706,0.07853982,-0.2994636,0.3834663
-0.5277395,7.726825999999999,0.6994517,0.21268582,-0.13924237,0.35259143
-0.17130034,8.138294,0.62829596,0.33937928,0.24349089,0.43882814
0.7461003,9.340892,0.3359448,0.36121333,0.2727775,0.48834312
2.1949275000000004,9.339475,0.32202014,0.31011009999999994,-0.063111104,0.40582395
2.6197546000000003,8.5301485,1.4818672,0.2781706,-0.38091812,0.3424685
1.7808073,8.467765,1.5493261999999999,0.21535617,-0.27604127,0.35843825
0.93763644,8.69688,1.0903386,0.12805481,0.30150563,0.46650904
0.535219,8.752541,1.5924219,0.09079203,1.0494316000000001,0.67785096
0.600801,9.399598,2.452917,0.010925761,1.7957518,0.77897537
1.1286651,10.745196,2.5922978,-0.08700466,2.4670055,0.7630056
1.0388728,11.360095,2.8794107,-0.18332939,2.8566852000000003,0.7997448
0.1499249,11.529575,3.0269508,-0.30044097,2.962609,0.8780053
-0.31989408,11.398517,2.675329,-0.43247512,2.8566852000000003,0.9024923
-0.41942585,11.229525,2.5712674,-0.5181707999999999,2.4941628,0.86627674
-0.13001472,12.016096000000001,2.2654417000000002,-0.5895024,2.040098,0.8572359
0.28612626,12.995296000000002,1.7768423999999998,-0.6374116999999999,1.5311948,0.8604299000000001
0.32914525,13.170704999999998,2.0174119999999998,-0.702879,1.0361322,0.8641648999999999
-0.006023811,13.416885,2.4462802000000003,-0.7667755,0.65125215,0.8380721999999999
0.43871352,12.839807,2.3755653,-0.8077558000000001,0.34730306,0.8088029999999999
0.22489215,11.653087,2.3383977000000002,-0.7917860999999999,0.10456268,0.7986800999999999
-0.635469,10.582765,1.9331262999999999,-0.69224995,-0.052464597,0.7960098000000001
-1.216628,9.757186,1.463633,-0.5761854999999999,-0.13870132,0.6996676
-1.3892787,8.838473,1.2381471000000002,-0.42980477,-0.13870132,0.53729963
-1.3691098999999998,7.729977000000001,1.31887,-0.28394762,-0.0636347,0.38933059999999997
-1.8413422,6.5457954,1.1987576000000002,-0.15618952,-0.07056366,0.30948177
-1.7622761999999998,5.776979,1.1293353000000002,-0.056653388,-0.21748547,0.24506168
-1.482097,5.5063477,0.9050273999999999,0.042341687,-0.50014156,-0.004049164
-0.95282525,5.8846126,0.83799934,0.21270327,-0.9036441999999999,-0.41020474
-0.52805555,6.69912,0.84080535,0.4075344,-1.2991707000000001,-0.8344768
-0.10408074,7.646170599999999,0.930291,0.46820202,-1.5254003,-1.2640722
0.47084373,8.759618,1.0524719,0.44586182,-1.4721677,-1.5057303999999998
1.3086228000000002,9.417181,1.1122406999999999,0.44160320000000003,-1.1192447,-1.382231
1.6495092,9.768228,1.4764563,0.52890456,-0.6183178,-1.2416971
1.5708262,9.709809,1.7376733,0.6848672,0.0023561944,-1.1426844999999999
1.0252068,10.051261,1.8720263,0.76312774,0.44844490000000004,-0.7530223
1.0024714,11.033631,1.8670846999999997,0.7263885999999999,0.31642818,-0.59864795
1.8177544999999997,11.564761,2.3294816000000003,0.697643,-0.3713188,-0.754628
2.2848248,11.374229,3.1303997000000003,0.66572094,-1.266149,-0.8834333000000001
2.1883385,11.218147,3.3896723,0.54913294,-2.0188745999999997,-0.95904094
1.8251669999999998,10.585523,3.2438464,0.3638837,-2.3387935,-0.9819222
0.038575377,10.112878,3.3486837999999994,0.22334978,-2.2669384,-0.95743525
-2.1931942,10.223797,3.8154093999999996,0.18980455,-2.071566,-0.9073966999999998
-2.9318917,10.561321000000001,4.1062856,0.22174408,-1.9262501,-0.87706286
-4.5290346,10.717097,4.5545855,0.27019440000000006,-1.8809936999999999,-0.8674635
-6.327463,10.657157000000002,3.7732042999999997,0.32662090000000005,-1.9800061999999998,-0.88184506
-5.802817,10.499331,3.0535650000000003,0.3351381,-2.264268,-0.8632224000000001
-5.3225784,10.268089999999999,2.5591909999999998,0.25635397,-2.591657,-0.8573581
-4.863131500000001,9.955483000000001,1.9728031000000004,0.17809339999999999,-2.7252617000000003,-0.7961494
-3.7830589999999997,9.455967,1.0476451999999998,0.22654374,-2.3973494,-0.5911954
-2.5207593,8.664185,0.47545972,0.28616420000000004,-1.7303543000000001,-0.4346917
-1.4859565000000001,7.656494,0.5315032,0.28455848,-0.9574178,-0.38412952
-0.7315531,6.827066,0.7991845000000001,0.2696708,-0.27497659999999996,-0.31970942
-0.22876118,6.619786,0.87171924,0.19619246,0.09285152,-0.25902432
0.13621092,6.970977,0.7498735,0.14508922,0.33930945,-0.19249237
0.41986635,7.722516499999999,0.5374217,0.18024015,0.6374291,0.034801867
0.77470624,8.553123,0.43926898,0.22654374,0.60974824,0.25253168
1.3871813,9.186800999999999,0.6795798000000001,0.2526364,0.26373670000000005,0.38933059999999997
1.8107060000000001,9.302297,1.6054751,0.13819517,0.21582742,0.5319938
2.3234386000000002,9.568914999999999,2.4952562,-0.05609488,0.6965085,0.6549696999999999
3.2910410000000003,9.8845,2.5763142000000006,-0.07632325,1.4428288,0.87374675
3.4916080000000003,9.8437605,2.6893494,-0.06408849,2.0475504,1.0723128
2.4963,10.086207,2.6000264,-0.118926734,2.4244368,1.1590731
1.2631137,10.687544,1.8926835,-0.22856832,2.5809405,1.2165643
-0.061492674000000004,10.855253,1.9124881999999999,-0.3371627,2.499486,1.3198353999999999
-1.3927071000000002,11.242166000000001,2.2558553,-0.41168827,2.2359936,1.3975549999999999
-2.0557957,11.163454,2.337392,-0.4974014,1.8447433000000002,1.3608332
-2.7206845,11.233163000000001,2.1321037,-0.6011960999999999,1.4034367,1.2820491000000003
-2.294258,11.907256,0.7315148,-0.6059958000000001,0.9637359000000001,1.2149761000000001
-1.6779428,12.176689,0.7144394000000001,-0.59800214,0.6241123000000001,1.1750428999999998
-1.6594499,12.29547,1.9748716,-0.6703984000000001,0.38404223,1.1601378
-1.4245691999999999,12.200880999999999,2.0842578,-0.75237656,0.2770361,1.1345862
-1.2453008999999997,11.899872,1.4877665,-0.7933743000000001,0.22326252,1.1026467
-1.4029831,11.498919500000001,0.93213934,-0.7390597,0.19985765,1.0760303999999998
-1.6481876,10.922262,0.74492234,-0.6214244999999999,0.16418312,0.99991655
-1.5390408000000002,10.11577,0.8476528,-0.49579567,0.13863151,0.83435464
-1.4111806999999998,8.883158,0.8732515,-0.4068886,0.082205005,0.58683205
-1.4946808999999999,7.4346285000000005,1.0871781999999999,-0.32279864,-0.025307272999999998,0.35793212
-1.289268,6.5404706,1.4882357,-0.2620961,-0.25366616,0.19024089
-0.9323978999999999,5.919386,0.98322207,-0.20568705,-0.5618913000000001,0.07367035
-0.629292,5.8819504,0.5505706,-0.13062043,-0.8956506,-0.14243633
-0.28187415,6.475875,0.37143648,-0.0076619955,-1.2762719999999999,-0.61833525
0.06732495,7.249681,0.5784104,0.11901400000000001,-1.6068374,-1.1394906
0.39839518,8.154383000000001,0.8373959999999999,0.22334978,-1.9161272,-1.5036011999999999
0.9177263000000001,9.046453,1.0370915,0.28457594,-2.0012991,-1.5706567
1.4725106000000001,9.672335,1.0801967,0.32876766,-1.7393951,-1.375302
1.6962248,10.034472000000001,1.262453,0.40755183,-1.3151231,-1.194835
1.3185731,10.126362,1.4963665000000002,0.46343729999999994,-0.8227308000000001,-1.0458013000000002
0.9312007999999999,10.207756,1.5044396999999998,0.4346917,-0.71891856,-0.8200953000000001
0.9159736999999999,10.983755,1.5687575,0.32822663,-1.157031,-0.8051902
1.8685787,11.866966,1.8987935,0.14084807,-1.5972555,-0.85788167
2.9515336,12.190211999999999,2.6322331,-0.035866518,-1.7846341000000001,-0.9159139000000001
2.583918,11.838619,3.138329,-0.14391986,-1.7883689999999999,-1.0143853
1.2487485,11.260821,3.3876614999999997,-0.2115339,-1.5557341999999998,-1.0537775
-0.28699774,11.412336,3.3560004,-0.26583108,-1.141585,-1.0292904
-1.9629006000000002,11.645636999999999,3.6011858,-0.28712413,-0.73755866,-0.9867044
-2.5482638,11.184896,4.136654,-0.26476645,-0.57573175,-0.95582956
-3.506385,10.5394,4.4180684,-0.21525146,-0.62416464,-0.91802573
-4.1367307,10.500939,3.7410360000000003,-0.22537437,-0.84880596,-0.9717993
-3.5660102,10.649016,2.5211517999999997,-0.31852257,-1.0569539,-1.0676179
-3.053718,10.445872999999999,1.4526291999999998,-0.2604904,-1.4199823999999999,-1.0681415
-1.8881537,9.75234,1.1902248,-0.077911496,-1.9017456999999998,-0.9904394
-0.99944514,8.780716,1.365643,0.056217055999999994,-2.0630490000000004,-0.8615992
-0.40850827,7.594139599999999,1.279902,0.09508554,-1.8250734,-0.7317118
0.08060799,6.5728307,1.0860098999999999,0.16214108,-1.3821961,-0.6023655
0.3328036,5.8368917,1.0028641,0.30373964,-0.8695754000000001,-0.39688787
0.27070759999999994,5.5854044,0.9568571,0.42510983,-0.16584119,-0.12594296
0.2831862,6.2412529999999995,0.9097200000000001,0.5012411,0.81896085,0.17535323
0.5768398,7.542424700000001,0.64704734,0.5805489,1.4061071000000003,0.47610837
0.74813056,8.308272,1.0432016,0.574702,1.1527201999999999,0.5788559
0.6298666,8.3373375,1.9799665000000002,0.45811403,0.22806217,0.42819908
0.6616137,8.918717,2.4408693,0.3021514,-0.59915406,0.3068289
1.2815874,9.6632185,1.9881546,0.16959365,-0.5294107,0.37070793
1.938882,9.555947999999999,1.8989563000000003,0.04717625,0.4021413,0.55808645
2.2430413,9.369028,2.5406406,-0.006038839,1.5753865,0.7161959
2.1221243999999997,9.952792,3.0359054,-0.015620696000000002,2.5963867,0.82105523
1.9325997,10.913986999999999,2.841812,-0.06939429,3.2277245999999997,0.9115506
0.7462821999999999,11.364213000000001,2.790423,-0.12742649,3.5859883000000004,1.1111813
-0.8533126,11.750196,2.8238267999999995,-0.16573647,3.6189926,1.4220594
-1.7682903000000003,11.659705,2.6272054,-0.2637018,3.4119093,1.7180322000000001
-2.163161,10.80123,2.4509156,-0.45108035,3.0494044,1.8138508999999998
-1.5473534,10.692801,1.8941008000000001,-0.60545474,2.6634597999999996,1.7095151000000002
-0.33927754,11.99815,1.3750091999999998,-0.6996676,2.238664,1.5641816000000002
0.77578837,12.996426,1.2299494,-0.78323394,1.6791987000000002,1.4848738000000001
0.9452596,12.640532499999999,2.0455198,-0.8402014999999999,1.2341746999999998,1.4497403
0.8234905,11.859677,2.2096374,-0.84126616,0.7891505999999999,1.3736091000000001
0.17977582,11.1331625,1.7989745,-0.8572359,0.47933722,1.2937602
-0.7398945,10.695024,1.4225198000000001,-0.86149454,0.24724334,1.21817
-1.4610856,10.433366,1.0825909,-0.7821693000000001,0.007696901999999999,1.0648601999999998
-1.6621313999999998,10.242979,0.6885437,-0.5910732,-0.20149826,0.8663116
-1.4579921999999998,9.48465,0.5464909,-0.37494907,-0.3308446,0.64112926
-1.3546585,8.270339,0.98556834,-0.34353316,-0.37236598,0.26371926
-1.6538186999999998,7.012856,1.3515652,-0.3472507,-0.46392596,0.08752826
-1.9161084,5.9298150000000005,1.2518036,-0.21364576,-0.8791398000000001,-0.11901400000000001
-1.407082,5.6737986,1.1014190000000001,-0.028396507999999997,-1.4306288999999999,-0.54593897
-0.58060354,6.359172,0.75991964,0.11477285,-1.8447781000000003,-1.1341499
-0.037790082,7.6595106,0.25090274,0.1850398,-1.9986289000000002,-1.5578809
0.44437340000000003,8.839526,0.12983276,0.16002923,-1.9757301999999999,-1.6840332999999998
1.0503364,9.255802000000001,0.4784477,0.13182472,-1.7760993999999999,-1.5754389
1.215498,9.180873,1.2041589,0.19038051,-1.3097998,-1.39286
1.2534412,9.33031,1.4169268999999998,0.3016278,-0.56986743,-1.3162051000000001
1.3005973999999998,9.507499000000001,1.431522,0.44322637,0.28131217,-1.1597015
0.17223887,10.320925,1.9143462,0.5826956,0.84238315,-0.78972656
1.0405105,11.757072,2.4966063,0.60185933,0.9222319999999999,-0.50865877
2.6715364,12.840688,2.7710779,0.67319095,0.4436627,-0.59969515
3.6590488,12.655712,3.138827,0.6827728,-0.5134234999999999,-0.8264658000000001
2.5071792999999998,11.664465,3.3234107,0.57046086,-1.6137489,-1.0628183
1.2601162000000001,10.591880999999999,3.2335706,0.355925,-2.3371703999999998,-1.2656254999999998
0.4992485,10.193697,3.4483303999999997,0.10147344,-2.512838,-1.3774138999999999
0.69869506,10.559474,3.9095492,-0.11302752,-2.1545916000000003,-1.3965776
0.69590825,10.580091,4.0862226,-0.2668783,-1.498243,-1.3705024
-1.1645493999999998,10.083046000000001,4.2998905,-0.3387335,-0.8291011999999999,-1.3071469
-3.3571496,10.074226,3.393053,-0.31850514,-0.3771482,-1.2672312
-4.064579,10.398812,2.6490788,-0.21364576,-0.30370474,-1.2155869
-3.7077184,10.225147,2.7843704,-0.12421508,-0.6231,-1.1889707
-3.7292182,10.201646,2.5356417,-0.13751449,-1.0670594,-1.2331623999999999
-3.1698275000000002,9.984577999999999,2.0743937,-0.104510315,-1.2421857,-1.1618308000000002
-1.9690393,9.085766,1.4809958,-0.053407077000000004,-1.1298738000000002,-0.898862
-0.8554674000000001,7.9359649999999995,1.1548958999999999,-0.016144296000000002,-0.8307068999999999,-0.66516244
0.10840946,6.863171,1.1479335,0.06421066,-0.35691983,-0.44477970000000006
0.6910432,6.185803400000001,1.1726226,0.17441075,0.26853636,-0.118996546
0.9504598,6.136856,1.1847277,0.25265387,0.9163851000000001,0.16737707
1.0576242,6.7111197,1.2992088,0.37615335,1.5354708000000001,0.4681322
1.0351188,7.733817599999999,1.289699,0.4368559,1.7398837999999999,0.75667006
1.1903683999999999,8.879788000000001,0.8018181999999999,0.36924186,1.2858188999999998,0.776881
1.5014996999999999,8.85642,0.8275988999999999,0.27342328,0.57622045,0.78487456
1.2646556,8.302162,1.4526197,0.1685639,0.18336429,0.8444950000000001
1.0382886999999998,8.470571000000001,1.8490995,0.052516956,0.34838519,0.9392488999999999
1.5616324,8.816275,2.442325,0.0024783674,0.8977450000000001,1.1825303999999999
1.4953610000000002,9.341178999999999,3.055959,-0.023073252000000002,1.4710507,1.4060895
0.9371001,10.751881,2.94347,-0.037437312,1.9501611,1.5061668
0.1895633,11.56634,2.9035057999999996,-0.04117232,2.3297005,1.5652636
-1.1705731000000001,12.145717999999999,3.2124631,-0.06777114,2.4808807,1.7084678
-2.275842,12.593176,2.81335,-0.1412495,2.4159372,1.920316
-2.7634547,11.589095,2.6510518,-0.25302038,2.309472,2.096001
-3.171398,10.945103,2.5640752,-0.34831536,2.203007,2.1162117
-2.1973407000000003,11.093629,1.8432863000000002,-0.3930307,2.0310745,2.0603263
-1.4506277,11.241342,1.3958291999999999,-0.45158648,1.8846763,1.9932531999999998
-1.2791071000000003,11.54509,1.5734788999999998,-0.51811844,1.7888577,1.8761417
-0.64789975,11.836943,1.7827897000000001,-0.5383468000000001,1.5152424999999998,1.7643533
-0.09444647,11.655999000000001,1.9072593,-0.5665513000000001,1.2203517,1.7036682
-0.14661133,11.1692,1.8102175999999999,-0.58093286,0.9626886999999998,1.6408539
-0.7267743,10.632017,1.3834176,-0.56231016,0.7439117,1.5285243999999998
-0.9416011999999999,10.231822,0.9396763000000001,-0.5649630999999999,0.5363048,1.2969716
-0.85051626,9.780936,0.8183956,-0.5159891,0.36063740000000005,0.97918206
-0.38530368,9.003281,1.0726023999999998,-0.4207116,0.2046573,0.60281926
-0.5576861999999999,7.949305000000001,1.2289245,-0.30092967,-0.034330625,0.24192008
-0.5861102,6.910461,1.1495328000000002,-0.2503675,-0.35533157,-0.07054621
-0.29908368,6.4907193,1.149303,-0.19020598,-0.8099375,-0.42188100000000006
-0.25961766,6.594081399999999,0.9676789000000001,-0.11194542,-1.3081766000000001,-0.8440063
-0.17526513,7.0640826,0.79964423,-0.045413468,-1.7116793000000001,-1.2991533000000002
0.12239160000000002,7.987439999999999,0.66634464,0.10307915,-1.8612715,-1.5722450000000001
0.8153981,9.013710000000001,0.54487246,0.2276433,-1.6669815,-1.6291951
1.6129162000000001,9.479804,0.68472254,0.24361305,-1.1756363,-1.5562751
2.2198942,9.663094000000001,1.4449965,0.33091444,-0.47403142,-1.4125473
2.3685646,9.127338,2.2123191,0.5837777,0.2717303,-1.1894943
2.173006,8.51718,2.5640080000000003,0.7519925999999999,0.8690169,-0.8200603999999999
2.4154142999999997,8.858115,2.4293103,0.7051479,1.1575372,-0.46872562
3.0668572999999997,9.826455000000001,2.6700714,0.6423335,0.9142558000000001,-0.45010296
3.8693459999999997,10.253753,2.9773240000000003,0.57897806,0.22382103,-0.6390872
4.432558,10.436392999999999,3.3626084,0.44643778,-0.6747094,-0.89619166
4.0705833,11.263513,3.4052634,0.26171213,-1.5642339,-1.2331448999999999
3.4634137000000003,12.281344,2.8943312000000003,0.063687064,-2.0859127,-1.4636506
2.9562645,12.414261999999999,2.5067675,-0.105574965,-1.9741243999999998,-1.5408291
2.183646,11.511207,3.3380343999999997,-0.27059585,-1.5211242,-1.6105723
0.7618254,10.640446,3.9737620000000002,-0.35842082,-1.1495612,-1.6398416
-1.2442379,10.364594,3.0267209999999998,-0.35787976,-0.92383766,-1.5812857
-2.1936345,10.348276,2.0104592,-0.33393383,-0.9659001,-1.4652388
-2.425671,10.331871000000001,1.7538676,-0.25886723,-1.3087176999999999,-1.4194589
-3.1628554,10.240977,1.6333915,-0.21521655,-1.8170798,-1.3907132
-3.273592,10.1868305,1.5869632,-0.17901842,-2.1758669999999998,-1.1980114
-2.6234610000000003,9.644639999999999,1.7050164,-0.12685053,-2.1764080000000003,-0.8461356
-1.8570098999999998,8.757444,1.6874620999999999,-0.08691739,-1.8186854,-0.51769954
-0.87905514,7.824758999999999,1.4927752,0.012060225,-1.2347332,-0.29518753
0.10927136,7.0585666,1.1746336000000002,0.23883085,-0.60020125,-0.07641052
0.13908397,6.7911534,1.5641223999999998,0.45230207,-0.092886426,0.20676915
0.043976694000000004,7.023629700000001,1.6478331999999998,0.5651550999999999,0.4575206,0.43195152
0.39711186,7.4194493,1.5550436,0.6391395999999999,0.98132885,0.6805388000000001
0.92932373,8.289474,1.6893008000000003,0.5784545,1.2251338999999999,0.7992561
0.87502325,8.510085,1.4196275,0.38522908,0.9600358,0.6927909999999999
0.5881883000000001,8.327139,1.3489028,0.29473376,0.41280526,0.58793163
0.99345964,8.291167999999999,1.2709476,0.27717572,0.30421090000000006,0.5176647
2.0035636,8.431258,1.4371436000000002,0.21966714,0.7998145999999999,0.5357463000000001
2.7153888,8.488671,1.9994456999999999,0.11639601,1.5993674,0.7013081999999999
2.415223,9.246042999999998,2.388331,0.09403834,2.2860672,0.9025271999999999
1.8799081000000002,10.756832000000001,2.2021867999999998,0.13397147,2.6767939999999997,1.0521194
1.3715903,11.421788000000001,2.5227895,0.13610077,2.814134,1.2235281
0.2368919,11.454042999999999,2.7615871,0.09032079,2.792841,1.4694451000000002
-0.43254605,11.422630999999999,2.4386572999999996,-0.0054803337,2.6996752999999996,1.6430006000000001
-1.0086389,10.308685,2.5244557999999997,-0.10395181,2.5053852,1.6435241999999999
-1.0462278,10.650386,2.7308743,-0.17369516,2.3339765,1.525889
0.1418804,12.203341499999999,1.9007664,-0.22479841,2.1503330000000003,1.3938723
0.47569916,12.926486,1.0454617,-0.23598596,1.8969285,1.3246526
0.16323668,12.869035,0.91351247,-0.3089058,1.5578459999999998,1.2682436000000001
-0.2558731,12.591184,1.4276625,-0.40791836,1.1522139999999998,1.1921297
-0.61033946,11.822682,1.4392025,-0.4952197,0.77267474,1.1804185
-1.1569261999999998,11.035133,0.9696804,-0.5031959,0.46816713,1.1362268
-1.3770202,10.722327,0.64609927,-0.45743334,0.14877187,0.9563008
-1.0000772,10.409232000000001,0.47083414,-0.34562755,-0.10086258,0.6981142
-0.42394608,9.458389,0.5255273,-0.23277456,-0.23020893,0.46497315
-0.14294343,8.228488,0.8058979000000001,-0.20669934,-0.30314624,0.22169173
-0.36955938,6.9375925,0.8934203000000002,-0.22319270000000002,-0.46123815,0.0018325957
-0.6669958,6.177261,0.77460086,-0.22586305,-0.7305948,-0.24087289
-0.64090866,6.1911087,0.15451221,-0.13643239999999998,-1.2049055,-0.6071302
-0.55551225,7.006995,-0.16818789,0.028588492000000004,-1.7020973999999998,-1.0574601000000001
-0.4979365,7.991357000000001,-0.27655903,0.21116738,-2.0949535,-1.484385
0.19054973,8.818448,-0.05388869,0.29155725,-2.3744156000000003,-1.6552702000000001
0.99436945,9.122665,0.177803,0.24895376,-2.5053852,-1.4881201000000002
1.4090068,9.309087,0.7460715,0.13877113,-2.3754804,-1.308194
1.4809573999999999,9.452853999999999,0.8852896,0.12705997,-1.8160151000000002,-1.3220346
1.5397302,9.559358,0.74673235,0.15421729,-0.7369826999999999,-1.1351796
1.5690831,10.333364999999999,0.70507324,0.07063347,-0.003979351,-0.81526077
2.1594455000000004,11.628504,1.0672202,-0.05391322,-0.002391101,-0.77747434
2.8248900000000003,12.472584,1.9066368000000002,-0.07840019,-0.42186353,-0.92759013
3.1632385,12.216146,2.7397997000000003,-0.11407472,-0.9493893,-1.0521543
2.7268807999999995,11.608325,3.058535,-0.23329817,-1.2735667,-1.1820242
1.3907341999999998,11.811076,2.625271,-0.37437314,-1.2900776000000003,-1.3252285
0.46139140000000006,12.629328,1.8551233,-0.4818854,-1.0249795,-1.3912368999999998
1.0175357,12.027464,1.9836631,-0.5606869999999999,-0.68907344,-1.4183767
1.3167918,10.512144000000001,3.395093,-0.5926266,-0.51874673,-1.4050773
-0.40269515,9.715853,3.7655718,-0.5542991,-0.5437573,-1.3465215
-1.7196209999999998,9.919599,2.7271967,-0.514366,-0.6566103,-1.2453796999999998
-1.7894838,10.120443,2.1648563999999997,-0.48401472,-0.7662693,-1.1447614
-1.9730233,9.887115,2.3631822999999996,-0.37330848,-0.82109016,-1.0739709
-2.0015047,9.83202,1.9555265,-0.20244074,-0.84824747,-0.9978396
-1.1948982,9.51407,1.4931103000000001,-0.037943456,-0.83121306,-0.87381655
-0.47658977,8.567497,1.3879092,0.095120445,-0.8045968000000001,-0.6757915
-0.18725531,7.454318499999999,1.3246256,0.19413297,-0.75988144,-0.49905944
0.09299079,6.5476913,1.3223271,0.2995334,-0.57356757,-0.26377162
0.026479872,5.9694824,1.440955,0.40599850000000004,-0.24830799,0.06305875
-0.08444828,6.292345,1.4281030000000001,0.51939255,0.32445672,0.3494498
-0.12858778,7.36602,0.99520266,0.61201715,0.86475825,0.52831113
0.3490842,8.662002000000001,1.0118663,0.64022166,0.89085096,0.5618564
0.8763065999999999,9.193313999999999,1.5890604,0.5880711999999999,0.39845866,0.41760492
0.72068346,8.954994000000001,2.3327472,0.5369505,-0.10086258,0.30527553
0.040145975,8.638767999999999,2.8308467999999998,0.45551348,-0.18442895,0.32389819999999997
-0.44234315,8.097095,3.0258207,0.3474427,0.28293532,0.53895766
-0.3811665,7.6086674,3.2488742000000004,0.27665213,1.1628778999999998,0.87699306
-0.59295756,8.266556,3.2869610000000002,0.28677505,2.0997708,1.2261986
-0.63985515,10.2572,3.0593395,0.22979005,2.8359506000000003,1.4689214
-0.5278257,12.043333,3.0248055,0.066392325,3.385869,1.6121432
-0.83897614,12.392091,3.2367310000000002,-0.10925761,3.6073163,1.6627053
-1.0794115,11.939252,3.179318,-0.25352654,3.4199202000000004,1.7185909
-1.0591853,10.709714,2.8377707,-0.38180822,2.9802196,1.7233904999999998
-0.8314870999999999,9.933946,2.216054,-0.49572587,2.4553466,1.5775332
-0.2932897,10.222322,1.4763509,-0.5910208,1.8990753,1.3534156000000002
-0.10765289,11.072417,1.0196139000000002,-0.6916216,1.3193641999999999,1.1415674999999998
-0.16509457,11.671054,1.3489506000000002,-0.73314303,0.7098603,0.96057683
-0.33279404,11.728993,1.7083395000000001,-0.7475245,0.07958701,0.82534873
-0.44801260000000004,11.568246,1.4620624,-0.73316044,-0.37926003,0.80405575
-0.6258443,11.3223715,1.1297375,-0.6804515,-0.6188064999999999,0.80992
-1.0990918,10.980039,1.2723075000000001,-0.5915619000000001,-0.65767497,0.7694633000000001
-1.8041363999999998,10.493182000000001,1.331023,-0.46539205,-0.5267229,0.6443581
-1.6679733,10.020557,1.5241103999999999,-0.28227209999999997,-0.36754888,0.4271867999999999
-1.5276155,9.030813,1.3470832,-0.14758503,-0.22327997,0.22596778
-1.4561534,7.8599057,1.0956825000000001,-0.1481261,-0.1918815,0.10086258
-1.3438941,6.8018217000000005,1.0414107,-0.1481261,-0.3169867,0.00024434610000000003
-1.1132655,6.1337532999999995,1.0434697,-0.07731809,-0.6273236999999999,-0.1998751
-0.7837467,6.1789365,0.73995197,0.08288568,-1.0020808,-0.5959426999999999
-0.43536162,6.9535756,0.558596,0.25377086,-1.2645084999999998,-1.1074986
0.31785423,8.294674,0.40572140000000007,0.32456142,-1.3374458999999999,-1.4609628000000001
1.1301877,9.328069000000001,0.6285641,0.36023596,-1.1367503,-1.5429409
2.0137823,9.372352000000001,1.1524825,0.40706313,-0.77956873,-1.4460577
2.444298,9.213845,1.7558213,0.45764279999999996,-0.41119957,-1.1878885000000001
2.1653159,9.397308,1.6815053,0.46509534,-0.14236651,-0.7811745
1.7303853999999999,9.939508,1.3682863,0.43743187,-0.24724334,-0.5623974
1.7031968000000002,11.3378,1.607467,0.45551348,-0.91371477,-0.8067261
2.514151,12.429767,2.1339617000000004,0.4108156,-1.7382781999999999,-1.1026989999999999
3.4129536,12.719369,2.9064362,0.26708773,-2.3089308999999996,-1.2394979
3.1629224,12.382916999999999,3.1459427000000004,0.08981464,-2.3563166,-1.2980711
1.7294851999999998,12.118453,2.9767876,-0.07360053,-1.9954001000000001,-1.3257521
0.036506787,11.665125,3.1803236,-0.16194909999999998,-1.5019256,-1.2964655
-1.9063591,10.504464,3.3616316,-0.18058921,-1.0909878,-1.2214163999999998
-4.227365,9.453122,3.3922486000000003,-0.1481261,-0.9089151,-1.1160159
-5.7543583,9.427983,2.8098254000000003,-0.09435249999999999,-0.84716535,-0.99462825
-4.7812019999999995,10.10696,2.5785935,-0.046984263,-0.86474085,-0.950995
-3.2000997000000004,10.349119,2.797845,-0.013439035,-0.9264905999999999,-0.95153606
-2.9355497,10.080815,2.438552,0.02115339,-1.0441258,-0.85782933
-2.2500612999999996,9.523808500000001,1.7015017,0.07278023,-1.1729485,-0.7843684
-0.9732813,8.9126835,1.0962379,0.12175417,-1.2245928,-0.7204894000000001
0.02759078,8.028821,0.85793823,0.1574287,-1.1617785,-0.67203903
0.33018914,7.210387,1.0627766,0.16861627,-1.021227,-0.6028366999999999
0.35291493,6.546724299999999,1.1722491000000002,0.20479694,-0.7103664000000001,-0.37128390000000006
0.22903891,6.3694196,1.2603078,0.23673646,-0.12054989,-0.0694641
0.46876553,6.8849196,1.3168492,0.30115655,0.6518456,0.24939009999999998
0.9037824000000001,7.675350999999999,1.2602693999999999,0.4155978,1.1091043999999999,0.5315226
0.8982949,8.620027,1.4229698,0.4155978,0.8855277,0.51768214
0.6112876,9.404338000000001,1.6787758999999998,0.3964341,0.4458269,0.5245936
0.7574105,9.521500999999999,2.1639466,0.3314904,0.42772785,0.62999403
0.85071737,9.402298,2.6951432,0.22341959,0.9132085999999999,0.7204894000000001
1.0700263,9.060627,3.1005678,0.14198254,1.6201367,0.8791223
0.91996723,8.864024,3.2332737000000003,0.053616515999999996,2.219535,1.0329732
0.41412026,9.639123,2.8911995999999998,-0.048572514000000004,2.6193204,1.1000462
0.29449640000000005,10.752542,2.2644935,-0.15875515,2.8572610000000003,1.159143
-0.43841663,11.634939,2.3895857000000005,-0.26682594,2.9142287000000002,1.3055238
-0.8992813000000001,11.86935,2.4043531000000002,-0.3605152,2.786994,1.5110013
-1.1470141,11.099701,2.3454080000000004,-0.45366344,2.5181785,1.5791389999999998
-1.7076021000000001,11.439888999999999,2.1352832000000004,-0.53085935,2.187072,1.5136542
-1.2049729999999998,12.370495,1.3331298,-0.5574756,1.7888926,1.4497752
-0.6914646,12.371367,1.0761458000000002,-0.5904798000000001,1.3273578000000001,1.4077302
-0.7498735,11.9582815,1.4940777,-0.60644954,0.8679697000000001,1.3736614
-0.61055017,11.432542999999999,1.5427756000000001,-0.68097514,0.53845155,1.3406572
-0.545696,10.75056,1.1898129,-0.7459188,0.37343064,1.2661316
-0.87003374,10.192059500000001,0.79976875,-0.75975925,0.35852554,1.1665780000000001
-1.4845871000000002,9.862282,0.5584045,-0.7091970999999999,0.35959017,1.0532013999999998
-1.8497218999999998,9.78154,0.48825434,-0.602191,0.30422834,0.9233140999999999
-1.4923346000000002,9.238218,0.6044018,-0.49146727,0.13016665,0.7242244000000001
-1.2985958,8.370502,0.98696655,-0.45312238,-0.09126326400000001,0.44476226
-1.3505596000000002,7.4925585,1.1495137,-0.38871974,-0.382454,0.21212731
-1.3292896,6.920660000000001,1.0683599,-0.27321383,-0.79021525,-0.02581342
-1.124863,6.9461536,0.7079270999999999,-0.13267992,-1.2826076000000002,-0.46443212
-0.6080505999999999,7.412075,0.28455567,-0.010786135,-1.6552353,-1.0595894
-0.018272547,8.035017999999999,0.27004677,0.082362086,-1.8042865000000001,-1.547723
0.51744443,8.72788,0.5021886,0.1031315,-1.7601122,-1.7340368999999998
0.8088763000000001,9.361817,0.7675523,0.13079497,-1.4955378000000001,-1.6509942
0.965888,9.82882,1.1256386999999999,0.15208799,-1.0105979999999999,-1.5370766000000002
1.2138124,10.1029,1.1573761999999999,0.23888321,-0.4356691,-1.5418588
1.318755,10.18933,1.3140048999999998,0.36875317,-0.009285152,-1.2230046
1.0811353000000001,10.753078,1.6885634999999999,0.37196457,0.025307272999999998,-0.7854156
1.7519043999999997,11.662108,2.0382893,0.36822957,-0.2685189,-0.67203903
2.9722674,12.009171499999999,2.4713237,0.39058724,-0.70610785,-0.8471828000000001
3.5379980000000004,11.701027999999999,3.0471196,0.38578758,-1.2426919,-1.0292381
2.5660956,11.027636,3.1134007,0.2942276,-1.7015563999999999,-1.124533
1.0270647,10.575323,3.0248823,0.17978637,-1.8340967000000001,-1.1985176000000002
-0.18258181,10.960569,2.848918,0.0898321,-1.6179726,-1.236845
-0.5549664000000001,10.999614999999999,2.9355307,0.0137008345,-1.2687671,-1.2618556
-1.3382629,10.092001,3.8842282,-0.06667158,-0.9802466999999999,-1.2544205
-3.8584476000000003,9.602578,3.8912002999999995,-0.10925761,-0.84451246,-1.1846771
-4.544606,9.532093,2.9024236,-0.058136917999999996,-0.9355314,-1.0798002
-3.3476492999999996,9.878495,2.5212380000000003,-0.009162978,-1.0957526000000002,-0.96907663
-2.2213689999999997,9.927251,2.3165432999999997,0.0371057,-1.2522737,-0.90680325
-1.9440918000000003,9.836377,2.063304,0.050963614000000004,-1.3874669,-0.9099972
-1.4925549,9.161518,1.5432545,0.0898321,-1.5109663999999998,-0.82269585
-0.6828645999999999,8.199796000000001,1.3248268,0.13348278,-1.4513459999999998,-0.6597868
-0.12349292,7.291723299999999,1.1960665000000001,0.1574287,-1.1154574,-0.51714104
0.13144168,6.681661599999999,1.1509023999999999,0.21066125,-0.5479984999999999,-0.27652997
0.03439989,6.5063767,1.1199214,0.26443484,0.13548991,-0.018867008
-0.15376522,6.6851954,1.3283031,0.30754447,0.8679697000000001,0.21799162
-0.28819486,7.2654442999999995,1.3978115,0.38313466,1.1511668,0.42453387
-0.10887872,8.119025,1.4359943000000002,0.37781143,0.7742804,0.49000117
0.42535388,8.990658,1.6285839,0.32777283,0.2499486,0.51396453
0.7675428000000001,9.325032,2.0803409999999998,0.24205971,0.16369443,0.62042964
0.49627015,9.240269,2.6280767999999997,0.12123057,0.70881313,0.77373934
0.855477,9.213308999999999,2.8175635,0.037664205,1.72449,0.9930574000000001
1.2683331,9.358427,2.9732347000000003,-0.0347146,2.7316496,1.2272806
1.1226603000000002,10.312469,2.9374842999999995,-0.15449655,3.4241962,1.3923014
0.8893597,11.439160000000001,2.56736,-0.2881015,3.6988763999999996,1.512066
0.06891470400000001,11.696872,2.6001604,-0.390308,3.5439781999999997,1.6733692999999998
-0.9896002,11.394982,2.7475283,-0.47760934,3.096825,1.8575540000000001
-1.5496231000000003,10.362153,2.4026772999999997,-0.58939767,2.5543766,1.8756529999999998
-1.725118,9.861334,2.0976462000000002,-0.64690626,1.9741419999999998,1.7808990000000002
-0.8929894,10.5543785,1.3893456,-0.6660699999999999,1.3486508,1.6510116999999997
-0.08063671,11.545548,0.9657539,-0.64530057,0.7519226999999999,1.5189948999999998
0.030607475,11.914305,1.2342014,-0.63678336,0.21214478,1.4247646
-0.289459,11.864754,1.311515,-0.6910805999999999,-0.05984734,1.384849
-0.5865411,11.72725,1.1993513999999998,-0.7299316,-0.0758171,1.3087176999999999
-1.1803415000000002,11.550692999999999,0.96079314,-0.7299316,0.011466813000000001,1.1665956
-2.1418624,11.506878,0.68580467,-0.6900159,0.15943582,0.99518675
-2.5174935,11.378472,0.575863,-0.6080378000000001,0.20682152,0.7827801999999999
-2.2698085,10.528051,0.7241407,-0.49944340000000004,0.09077457,0.54110444
-2.094141,9.340816,1.3454169,-0.464851,-0.14077826,0.29356438
-1.9183205,7.8134003,1.6452186999999998,-0.46591565,-0.44313909999999995,0.08117526
-1.7516267,6.630703,1.7254055,-0.38339648,-0.7960621,-0.0657291
-1.4093898999999999,6.158385,1.3570143999999997,-0.23008676,-1.211817,-0.35424948
-0.74257606,6.370664,1.0627861,-0.049619712,-1.567934,-0.90360934
0.18540698,7.3159046000000005,0.9760394,0.12548918,-1.6621643,-1.5243007
0.9548555000000001,8.431957,1.0138295,0.23888321,-1.4875441,-1.8697712
1.3620326999999999,8.990591,1.2400624,0.29211575,-1.2341746999999998,-1.8250558000000001
1.6198785,8.748567,1.6234124,0.32511994,-0.89772755,-1.6610996999999998
1.6353163999999998,8.539093,1.7982848999999999,0.41135666,-0.5298994,-1.6158607
1.6314186000000002,8.555679,1.5984552,0.5103517,-0.22647393,-1.4066482
1.4856691,9.498755000000001,1.7477479999999999,0.48747045,-0.16950637,-0.9797231
1.8059846000000002,11.186592,2.085752,0.4044277,-0.46017352,-0.85463536
3.238943,12.313934,2.4641602000000002,0.35545376,-0.92488486,-1.075018
4.645412,12.621905,2.9857132,0.24579471,-1.3629799999999999,-1.2874072
4.5880566,12.133777,3.4643142,0.06534512,-1.6174315000000001,-1.3683207
2.8291228,11.459952000000001,3.4723108,-0.10606366,-1.5322768999999998,-1.3997366000000002
0.7429687,11.629959,3.2551662999999995,-0.19814722,-1.208623,-1.4726739
-0.31118876,11.292760000000001,3.2399678,-0.24766222,-0.7854156,-1.5274947
-1.2445347,10.00624,4.073351000000001,-0.26148522,-0.49902454,-1.4923612
-3.6434674,9.486583999999999,4.1032023,-0.20294689,-0.52405256,-1.3768553999999997
-4.7880106,9.652482000000001,3.09554,-0.12520991,-0.7870039000000001,-1.2091641000000002
-3.5364754,9.9748,2.8374639999999998,-0.10658725,-1.0686127,-1.0978993000000001
-2.4801536,9.868094000000001,2.6465697,-0.03312635,-1.3544627,-1.0345613999999999
-2.267922,9.489955,2.218544,0.11857767,-1.6610996999999998,-0.96535903
-1.8819574000000001,8.831406,1.6548626,0.2378011,-1.8181269,-0.8152433000000001
-0.94034666,8.109899,1.4154904,0.26387632,-1.684522,-0.61721826
-0.25062504,7.4065970000000005,1.455282,0.2175902,-1.3752322,-0.541087
-0.13515747,6.716597599999999,1.4110371000000002,0.23354250000000001,-1.0404083,-0.42238712
-0.3285515,6.2641706,1.5357367,0.31393236,-0.55758035,-0.1301492
-0.84705895,6.3445864,1.5854883,0.4150742,0.24888395,0.21851522
-1.0884615,7.242029,1.3060753,0.54176766,0.85732317,0.55175096
-0.6241205,8.32395,1.231903,0.5758365,0.88980377,0.7242244000000001
-0.086306185,8.741125,1.9136279999999999,0.5039813,0.4176224,0.6800501
0.19187132,8.851258999999999,2.4123595,0.45127234,0.02528982,0.70347244
0.06924989,8.859159,2.3839831,0.36981782,0.15304792,0.78916806
0.39039853,9.023698,2.1778232999999996,0.23726006,0.8376184000000001,0.8881806000000001
1.0517632,8.806247,2.4981868,0.1702045,1.7718581999999998,1.0393785
0.797614,9.199978999999999,3.1131997000000005,0.12335987400000001,2.6783997999999998,1.1628604999999999
0.37288254,10.378195,3.021607,0.0365821,3.3698992999999997,1.2970065
-0.16327497,11.268339,2.8324938,-0.08051204,3.7622142,1.4545748
-1.1089846,11.823630999999999,3.0847467999999996,-0.23912756,3.8016237999999998,1.6345009
-1.4439527,11.435559,2.7074494,-0.39245474,3.5540837999999995,1.8213383
-1.6385055,10.513218,2.6866775,-0.54202944,3.1340877999999996,1.8650064
-1.3824024,10.893847000000001,2.284806,-0.6362598,2.66243,1.7963276999999997
-0.31267315,11.991052999999999,1.3687459,-0.7230201,2.1583264,1.7058325
0.54812855,12.243746,1.4652994,-0.79328704,1.6419708999999998,1.6414123999999999
0.87894976,12.180157000000001,2.1953776,-0.81192714,1.1389146,1.5780743
0.916328,11.808347,2.246355,-0.85983646,0.66994464,1.5024841
0.40040627,11.33938,1.6955928,-0.9002757,0.40219367,1.4572452
-0.27589822,10.7804,1.1682841999999998,-0.82203263,0.14241886,1.3694028
-1.016329,10.396074,0.8726961,-0.6660699999999999,-0.09180432,1.1314446000000002
-1.56576,10.091128999999999,0.73094976,-0.46910959999999996,-0.2802475,0.8195019
-1.5112584,9.197508000000001,0.81401896,-0.30993557,-0.44207445,0.53204614
-1.6458700000000002,8.056307,1.0645003,-0.22956316,-0.6358409,0.31859240000000005
-1.7844558999999998,7.086847,1.0379438,-0.16674876,-0.8631351,0.15090117
-1.8130715,6.345486599999999,1.0237894,-0.057072267,-1.1793364,-0.13864896
-1.5577538,6.262762,0.9573742000000001,0.11803662,-1.5988089,-0.6667331999999999
-1.1387781000000001,6.893855,0.42144653,0.276146,-1.9299153000000002,-1.2794311
-0.7540585999999999,8.152352,0.4090829,0.3155206,-2.0198869999999998,-1.70955
0.049205635,9.682286,0.82158464,0.27028167,-1.8713595,-1.7601296999999998
1.0083038,10.09539,1.109588,0.26069984,-1.4417816,-1.4955551999999999
1.3568037,9.948234,1.6143432,0.2942276,-0.81044364,-1.4327408000000001
1.1684948,9.699945,1.8316505,0.46031314,-0.06305875,-1.4497752
0.8232223,9.8242235,1.8518001,0.5523967,0.40376446,-1.1495436
1.0842956,10.871830000000001,1.9303108,0.48160616,0.31168088,-0.87645197
2.392727,11.816602,2.3872776,0.43902013,-0.15355407,-0.95631826
3.5761137,11.877137,3.2346334,0.43261477,-0.7806334,-1.201188
3.4677712999999994,10.956375,3.640125,0.3921755,-1.4151653,-1.395478
2.260155,10.243755,3.6548448,0.24738297,-1.8325083999999998,-1.4976844999999999
0.46977112,11.124017,3.3668318,0.03499385,-1.81228,-1.5370766000000002
-0.40165126,12.422219,3.1472452,-0.10819296,-1.574863,-1.5764686
0.07824251,11.528464,3.680022,-0.12896238,-1.2980537,-1.5775332
-1.5138249,10.6487,4.5415897,-0.11351621,-1.098423,-1.4731975
-4.005135500000001,10.284054,3.6176386,-0.07571238,-1.0047337,-1.3225582
-4.1276035,9.917397,2.4809674999999998,-0.05497787,-1.0936408000000002,-1.2331275
-2.843373,9.77249,2.3955808,-0.046443213,-1.2613145000000001,-1.2230046
-2.1191272999999997,9.42263,2.238588,0.045099307000000005,-1.4444344999999998,-1.2107698
-1.7978348999999998,9.036713,1.8235484,0.13398893,-1.599891,-1.0654536000000001
-1.2007208,8.405735,1.0106978000000002,0.15210545,-1.6110611000000001,-0.8706050999999999
-0.42433876,7.639917,0.53269076,0.12281882,-1.4290056999999998,-0.7353945
-0.038230613,6.8151717000000005,0.7981598000000001,0.12866567,-1.0723478000000002,-0.548557
-0.07885543,6.487693,1.2513535,0.16168729999999998,-0.5224469,-0.23820254
-0.23713131,6.564412599999999,1.3965092,0.18350391,0.1855285,0.072117
-0.27677929999999995,7.440499000000001,1.3800848999999997,0.26494098,0.777998,0.3920533
-0.05965393,8.535836999999999,1.2713976999999999,0.33042574,0.72157145,0.5533392
0.42770020000000003,9.167283,1.6097847,0.31286773,0.15943582,0.5150117000000001
0.5337921,9.296053,2.2959435,0.29794514,-0.26588345,0.5533392
0.26707800000000004,9.480234,2.4688146,0.24525367,-0.111509085,0.6230651
0.33233434,9.320503,2.4900846000000003,0.16275196,0.6901729999999999,0.71144855
0.64659727,9.086953,2.653532,0.14837044,1.7904810000000002,0.90734434
0.42552623,9.497042,3.0295177000000004,0.14571753,2.8199982999999995,1.1586018999999999
-0.012890381999999999,10.159450999999999,2.7914762000000004,0.07382743,3.6317858999999997,1.4125124
-0.67687917,10.732669999999999,2.5109717999999996,-0.08742354,4.1997857000000005,1.6605761000000003
-1.4276817,11.316721000000001,2.8296976000000003,-0.30780625,4.346184,1.8170798
-1.6783354,11.111452,2.620061,-0.54098225,4.0757449999999995,1.896405
-1.7511956999999998,10.484257000000001,2.2887228,-0.7145029,3.5056508,1.9320794
-1.1794795,11.039003,1.7709526000000002,-0.8097979000000001,2.7683713,1.8793706000000001
0.20667706,12.16558,1.1403486999999999,-0.87154764,2.0145986000000002,1.7904634
0.9643174000000001,12.179936,1.4076566000000001,-0.91200435,1.3731378,1.7324487000000002
0.705667,11.557808,2.0530376,-0.95778435,0.8477413,1.6696343
0.36933914,11.155745,2.0507006999999997,-0.96630156,0.47511354,1.6142725
-0.12305239,10.926648,1.5102146,-0.9359503,0.16317083,1.5487877
-0.6522955,10.842458,0.79615825,-0.84493136,-0.0689056,1.4753268
-1.2399476,10.698835,0.3874297,-0.7209081999999999,-0.15728907,1.3614091999999998
-1.6825109,10.295067999999999,0.30160240000000005,-0.5840919,-0.26162484,1.1074986
-2.1241167,9.667192,0.5490479,-0.45420447,-0.36808994,0.8200255
-2.071473,8.736365,0.6386293000000001,-0.37650242,-0.4825312,0.55599207
-2.0049715,7.8370169999999995,0.58516204,-0.30515337,-0.6464873999999999,0.3324154
-1.7617878,7.2596602,0.43833044,-0.20933479,-0.8828398999999999,0.011431906
-1.3720978000000001,7.032249,0.21244231,-0.051766466,-1.3443748,-0.6151064
-0.9005359000000001,7.364669999999999,0.25134328,0.08820894,-1.7409484,-1.2693256000000002
-0.49740016,7.9367023,0.28741914,0.08979719,-1.8910643,-1.6584642
-0.09845915400000001,8.636538,0.5766387,0.06054547,-1.83942,-1.7175436000000002
0.60503393,9.082912,0.87465936,0.11749557,-1.4694625,-1.547723
1.2514589,9.291437,1.3743867,0.18563321,-0.7896741999999999,-1.5008785
1.2914037,9.390470500000001,1.6305472,0.37035885,0.014643312,-1.4678743
1.3185731,9.525043499999999,1.7803284,0.48586476,0.54005724,-1.105893
1.3950438,10.309174,1.950087,0.46724209999999994,0.46711993,-0.8147196999999999
2.5011842,10.872978999999999,2.3878713,0.49649382,-0.044959683,-0.82590723
3.7433631000000003,10.844737,3.1805437000000003,0.57529545,-0.89294535,-0.99996895
3.479072,10.88225,3.4114212999999998,0.6061703,-1.7744763,-1.1889358
2.4721472,10.91211,3.1608633999999998,0.4927937,-2.4313657,-1.3582152
1.1825153999999998,11.261281,3.1700475,0.24151866,-2.5335897999999997,-1.4497926
0.394823,12.310611999999999,3.1319413,-0.0336674,-2.2221706,-1.5008785
0.5863783,11.401447000000001,3.6406806000000005,-0.19230038,-1.6834574,-1.4960963
-1.0705912,10.266873,4.558703400000001,-0.26363197,-1.2096877000000001,-1.3965427
-3.5189307,9.891088499999999,3.5722062999999995,-0.26417303,-0.89294535,-1.2421683000000001
-3.7550660000000002,9.789316,2.490669,-0.25672048,-0.65181065,-1.1564726
-2.9400222,9.959956,2.3248658,-0.2290221,-0.57622045,-1.1889358
-2.342669,10.113491,2.399718,-0.18750072,-0.6746919,-1.1814831000000001
-1.7697843,9.932279,2.1645307999999996,-0.12576842,-0.90306824,-1.0803587
-1.0557663000000002,9.182482,1.4908502000000001,-0.08850565,-1.1074812,-0.925967
-0.29050288,8.203702999999999,0.8604282,-0.061889375999999996,-1.1915886,-0.7625518
0.40288670000000004,7.402325599999999,0.87177676,-0.015044739,-1.102158,-0.57356757
0.5958019,6.881022,1.39762,0.06159267,-0.72101295,-0.322851
0.49002606,6.7355313,1.7579759999999998,0.1600816,-0.11683234,-0.096603975
0.48085147,7.3490496,1.7468766,0.31871456,0.63107616,0.23500858
0.8196502,8.222023,1.6314378,0.44273767,0.8897863000000001,0.47401398
0.97766745,8.742332000000001,1.6658664,0.40975094,0.6486516,0.47403142
0.7169389,8.88199,1.9701023999999998,0.36449456,0.33616787,0.50384164
0.25222436,8.902628,2.2099342,0.29635692,0.34203216,0.5937958999999999
0.1498866,8.569547,2.3236779999999997,0.20586158,0.8312305,0.7061253000000001
0.21653160000000002,8.39456,2.3528203999999997,0.12974778,1.6483587,0.87699306
0.37989277,8.850014,2.375479,0.05255186,2.5729992000000004,1.0329732
0.6858622,9.7242985,2.298041,-0.035273105,3.4284548999999997,1.1772245000000001
0.68814147,10.648806,2.3886569,-0.102869704,3.99272,1.3997366000000002
-0.26891676,11.35794,2.6915042000000002,-0.20240583,4.1545467,1.6744165000000002
-0.87411344,11.385415,2.4553785,-0.34880406,3.90116,1.9171569
-1.0917463,10.750176,2.2034605,-0.5191482,3.4721057,2.0316155
-1.3371998999999999,11.007439,1.9364400000000002,-0.6665936,2.9440389,1.9507022
-0.6545939000000001,11.623063,1.3808989999999999,-0.75710636,2.320677,1.7744936999999998
-0.014566323999999999,11.884913000000001,1.3165619,-0.79702204,1.695727,1.6020377000000001
0.32473993,11.994356,1.6302886,-0.8183151,1.0510896,1.4071891
0.5022555999999999,11.955532,1.6649948,-0.85931283,0.5267404,1.2517501
0.067937866,11.643942,1.5565854,-0.8875174000000001,0.11365584,1.1889358
-0.84664714,11.31516,1.192504,-0.87474155,-0.13651966,1.1687248
-1.769679,11.062246,0.67723346,-0.8012807,-0.29728192,1.1005697
-2.3321824,10.888504,0.33814746,-0.6559471,-0.36329028,0.9733527
-2.245177,10.325809,0.3722792,-0.50052553,-0.41226423,0.7369826999999999
-1.8185397,9.293179499999999,0.7486094,-0.39990729999999997,-0.45750317,0.49532443
-1.7835653000000002,8.102227000000001,1.115315,-0.3429572,-0.5479984999999999,0.38086575
-1.6184517,7.0677313999999996,1.3100976,-0.26417303,-0.7332477,0.24300219
-1.2899958999999999,6.509978,1.1629691,-0.10234611,-1.1042873,-0.20467477
-1.1295365,6.585338,0.7957943000000001,0.12175417,-1.5647401,-0.8014028
-0.9809044,7.224341000000001,0.56541467,0.30168015,-1.9027754000000001,-1.3411808
-0.41530779999999995,7.9624352,0.5344720000000001,0.3575656,-2.0465033,-1.6265073
0.30726227,8.491869,0.7825592,0.33787829999999996,-1.9671779999999999,-1.6419533
1.0150362,8.913219999999999,1.1469183,0.36770597,-1.6637526000000002,-1.5918974
1.6075915,9.393756,1.3678457,0.49492303,-1.0856471,-1.4763913999999998
1.3099731000000001,9.767346,1.3167056000000001,0.56199604,-0.46921432,-1.098964
0.8273787,10.451773,1.308278,0.54602623,-0.2972645,-0.7976678
1.4904002,11.598308,1.6068636,0.49438196,-0.6203947,-0.8791223
2.8747754,12.057400999999999,2.4230757,0.47521824,-1.1505908999999999,-1.1527376
3.16094,11.512078,3.215748,0.4044277,-1.6855866000000002,-1.4087949
2.5509453,10.897677999999999,3.6398761,0.21118484,-1.9810185000000002,-1.52643
1.1325915000000002,11.54551,3.5301737999999996,0.0067718774,-1.9496200000000001,-1.5179129
-0.14132494,12.041455000000001,3.3290608,-0.08370599,-1.5769923000000001,-1.4497752
-0.62163055,11.276106,4.043385,-0.08689994,-1.0824533,-1.3976073
-1.7188357,10.80937,4.637137999999999,-0.051225413,-0.76040506,-1.3358575000000001
-3.3447669,10.497875,4.3497477,-0.028867746,-0.8083143,-1.3033944
-3.176081,10.234149,3.5359583,-0.008115780999999999,-1.144744,-1.300724
-2.211505,9.98521,3.0852162999999995,0.030194197000000002,-1.5397295,-1.300724
-1.7539346999999998,9.697389,2.6642292000000003,0.001972222,-1.7164615,-1.3097823999999998
-1.4546212,9.305075,1.9036968,-0.009180431999999999,-1.7143322,-1.2560087
-1.1356752,8.476412,1.1228038999999999,0.0014486233,-1.6648171999999999,-1.0877940000000001
-0.69212544,7.5631013,0.8881435,0.019024088999999998,-1.6451299,-0.91532046
-0.12899001,6.9530009999999995,1.0099126,0.00837758,-1.4194239,-0.8083318
0.16832197,6.8039,1.0439103,0.02274164,-0.95097756,-0.6550220999999999
0.0094523085,7.240411,0.97766745,0.062674776,-0.18336429,-0.38138935
-0.07075345,7.811131,0.9847351999999999,0.16753416,0.7008194999999999,0.042847835
0.0072496426,8.24676,1.3822396000000001,0.3229732,1.0766412,0.41441098
0.26826552,8.605546,1.6926624,0.3373547,0.67792076,0.4947834
0.65603995,8.962675,1.7624293999999998,0.26176447,0.005602507,0.39046505
0.56855583,9.1013565,2.2208040000000002,0.2181138,-0.30684632,0.33829716
0.31540257,9.085555000000001,2.4488852000000003,0.19895008,0.16210619,0.5006477
0.7064906,9.243649000000001,2.5513093,0.15315264,1.3459979,0.80300856
1.2790209,9.522677999999999,2.6544034,0.14782938,2.7454727,1.1367678999999997
1.2338183999999999,10.216298,2.716471,0.052028265,3.932576,1.4098595
0.47117890000000007,10.817913,2.640613,-0.12150982,4.6490684,1.6030848999999998
-0.88694644,11.288393,2.626305,-0.28864256,4.883309,1.7851577
-1.6301927999999999,11.516216,2.858849,-0.48295006,4.6032887,1.9485728999999998
-1.5467021,11.01827,2.2287526,-0.7017270999999999,3.8777375,2.0752664000000003
-1.0067427,10.233182000000001,1.804529,-0.8742004999999999,3.0004654,2.0875185000000003
0.046686932,10.232387,1.5750495,-0.95511395,2.0625079,1.9331267
0.5912433000000001,11.174793,1.3690715,-0.94179714,1.169807,1.759065
0.6040762,11.495529,1.417147,-0.9226509,0.40537018,1.6302421999999999
0.42809284,11.311875,1.9567523,-0.87313586,-0.13065535,1.5418762
-0.002480393,10.930268,1.7555819,-0.81245077,-0.4873134,1.4391286
-0.7658668000000001,10.688032000000002,1.5268016000000002,-0.7570889000000001,-0.74337065,1.3204288
-1.7713549,10.579988,1.1595118,-0.6511474,-0.83438957,1.2033173000000001
-2.695373,10.592389,0.6042486,-0.49890235,-0.6981142,1.0393785
-3.442278,10.711266,0.34603876,-0.3525216,-0.48144907,0.79822636
-3.1182659,10.125749,0.59507406,-0.23647466,-0.34517378,0.59007835
-2.6272054,9.1671295,1.1333576,-0.20399408,-0.23764403,0.46499062
-2.2593603,8.278134,1.3911653,-0.19867083,-0.24083798,0.35161403
-1.8434588,7.3723598,1.2910302,-0.11030481,-0.46389106,0.13281955
-1.1733216,7.085774000000001,1.1275445,0.031799898,-0.8668700999999999,-0.30792844
-0.40813476,7.420292,0.8943492000000001,0.14571753,-1.207541,-0.88125163
0.21144632,8.158175,0.8613093,0.20374973,-1.3230643,-1.3699263000000002
0.79198277,8.549617,1.1610825,0.19202112,-1.1745542,-1.5551757
1.5143325,8.395077,1.7111933000000001,0.22556636,-0.8290663,-1.3480923
1.9812785,8.145572999999999,2.0393426,0.31819096,-0.42608723,-1.1112162
1.7601788,8.586,2.0533535,0.49813443,-0.055065135999999994,-1.2182049
1.5956683,9.470849000000001,1.8530546,0.63493335,0.1269727,-1.0872529
1.8640488000000002,10.547818,1.9689531000000002,0.6162932,-0.27438322,-0.87325805
2.6907954,11.571301,2.341079,0.57531285,-1.2490623,-0.9727941999999999
3.7849072999999995,11.649008,2.6380942000000003,0.5257979,-2.231735,-1.1782892
4.147581,11.170053,2.9531424,0.42945573,-2.7928061,-1.3363812
3.603379,10.777517999999999,3.1866539,0.19629718,-2.8119697999999995,-1.4279411
1.6056761999999998,10.601056,3.1823633,-0.07730063,-2.3403294,-1.4471048
-0.80301523,10.988677000000001,3.1385686,-0.25989696,-1.5088371,-1.4141006
-1.389202,11.201108999999999,3.1666956,-0.35037485,-0.68160343,-1.3699089
-1.4772512,10.310678,3.7244968000000003,-0.39084902,-0.09552187,-1.32467
-3.7912855000000003,10.182502000000001,3.2552907,-0.36847392,0.08492772,-1.1772071000000002
-4.099381,10.40115,2.5034633,-0.33335790000000004,-0.17004743,-1.102158
-3.086289,10.658938000000001,2.4259009999999996,-0.26202628,-0.7066314,-1.1213217
-2.099801,10.364842999999999,2.3226150000000003,-0.17205456,-1.2479976000000002,-1.0861882
-1.0890169,10.136141,1.7925963,-0.12627457,-1.6520414,-0.99249893
-0.0023558945,9.404922000000001,0.9022501,-0.11988667,-1.7238966,-0.89029247
0.7866196999999999,8.319161,0.7932852,-0.056531213,-1.3938549,-0.7242069
1.1835976000000001,7.296003999999999,1.033347,0.062674776,-0.92169094,-0.5038242
1.1924466,6.7102770000000005,1.1570793,0.20162043,-0.38510690000000003,-0.2046573
0.7397988,6.388448,1.1569549,0.29263934,0.26218337,0.040194932
0.1591378,6.831146,1.2393633,0.36397097,0.8567995999999999,0.2579073
0.2665321,7.600403,1.0565708,0.40657446,0.9872105999999999,0.40591124
0.30011797,8.530033,1.0990822,0.39964548,0.66196847,0.43889794
0.33189383,9.4533615,1.1233594,0.39327505,0.48045424,0.5118353
0.61382544,9.651602,1.2587466999999999,0.33096677,0.8349655,0.5586799
1.1999356,8.9454565,1.9519351999999999,0.19575612,1.5429583999999998,0.65608674
1.6592584,8.394243,2.7038292999999998,0.07120943,2.25788,0.80461425
1.6706547999999999,8.91911,3.0582767000000004,0.027017696,2.8162808,0.9419542
1.4036821000000002,10.479363000000001,2.699242,0.038187806,3.2123307999999997,1.1426321000000002
1.0324467,11.895562,2.2215127999999997,0.013718287,3.3358479,1.4396871
-0.14689864,12.126977,2.5180202,-0.101787604,3.2283006000000003,1.71702
-1.0461991,11.560604,2.7229161,-0.26520279999999996,2.931263,1.876194
-1.3707857,10.770987,2.7976725,-0.37592646,2.5416182999999997,1.9443316000000002
-0.63339084,11.508764,2.0979240000000003,-0.39828414,2.1626027000000003,1.9251679
0.28925788,12.231929,1.050432,-0.40573668,1.8309551,1.8910991000000001
0.23347297,11.427267,0.8814014000000001,-0.47015680000000004,1.4753617,1.8474485
-0.05200206,10.580466,1.2472067,-0.570234,1.1793888000000001,1.7590824
-0.3035752,10.038409,1.5449495,-0.6607118000000001,0.94144803,1.6920093999999997
-0.95262414,10.334639,1.126855,-0.6745696999999999,0.72584754,1.6856215
-1.7079468999999998,10.839298,0.31538340000000004,-0.67031115,0.6864554,1.6153545
-1.9808762999999998,10.940927,-0.47043192,-0.6671172,0.65345126,1.3784610000000002
-1.9399066999999999,10.646795,-0.39158607,-0.57983327,0.48682470000000005,1.0851411
-1.6766403000000003,9.930919,0.36374629999999997,-0.49410272,0.22279128,0.8679697000000001
-1.3630095,8.936577999999999,0.8395699000000001,-0.45896924,-0.100304075,0.66888
-1.2034215,8.190353,0.7170155,-0.40840703,-0.4963542,0.43359214
-1.0786741000000002,7.7419386,0.28489083,-0.31576496,-0.9828995999999999,-0.0039618975
-0.7910729999999999,7.703334299999999,0.115151525,-0.11828096,-1.6083733,-0.69863784
-0.82188153,7.952475,0.15967411,0.08346164,-2.1391103,-1.4071717
-0.61365306,8.28208,0.3084019,0.17182766,-2.4409301,-1.875077
0.20639934,8.453419,0.26545949999999996,0.13241813,-2.5229084,-2.0385096000000003
0.99084514,8.739689,0.56926453,0.06908013,-2.1630738,-1.8202561999999998
0.9440815999999999,9.195909,1.056906,0.076532684,-1.4870031000000001,-1.5551581
0.64027655,9.476222,1.0268540000000002,0.23729496,-0.64646995,-1.4481694999999999
0.75623256,9.98226,0.8852513000000001,0.43692570000000003,0.1679705,-1.2107523999999998
1.3826132,11.107956,0.94071054,0.49867547,0.5725378000000001,-0.85622364
2.9971097,11.622403,1.6483696,0.42308527,0.5022709,-0.68533844
4.244249,11.201522,2.7130232000000003,0.38954005,0.02904228,-0.8833635
4.0658525999999995,10.952428999999999,2.9747381,0.36931166,-0.6352824,-1.1734896000000001
3.2639384,10.475533,2.6532257,0.23516566,-1.1473794,-1.302836
2.342851,10.553746,2.2495344,0.06588618,-1.3917255,-1.4034367
1.1102774,11.467326,2.1717708,-0.06609562,-1.2895191000000001,-1.5024493
1.305156,11.37648,2.6818123,-0.13744467,-1.0856297,-1.5274773000000001
0.890576,10.164296,3.8026242,-0.17044885,-0.8881457,-1.4109067
-0.7350678,9.569423,3.867718,-0.15927875,-0.7939154,-1.2309808
-1.9380008999999998,9.7186775,2.4958596,-0.12519246,-0.9019862,-1.137815
-1.7294180000000001,9.936722999999999,1.5324233,-0.13210396,-0.9759707000000001,-1.1223689
-0.9439666999999999,9.501025,1.6119874,-0.10815805,-0.999934,-1.0361322
-1.0701507,9.160608,1.433332,-0.058119465,-1.0073866,-0.8599412000000001
-1.0323797,8.7083435,0.74841785,-0.061837014,-1.0345265,-0.7060904
-0.314397,8.179464,0.43946052,-0.11402236,-1.0292032,-0.60442495
0.11506533,7.6272564,0.52055687,-0.09325294,-0.92113245,-0.46602038
0.022572534,7.2133083,0.75862676,0.050981067000000005,-0.71354294,-0.13491395
-0.23529257,7.449999000000001,1.0355784,0.21389009999999997,-0.36486107,0.25740117
-0.06275681400000001,8.155666,1.2535945,0.37037632,-0.0028797933,0.55122733
0.26026889999999997,9.034463,1.1753232,0.49602258,0.09292133,0.72584754
0.50299305,9.402614999999999,1.262386,0.4576777,-0.22593287,0.6417401
0.10181104,9.289684,1.7292458,0.3629412,-0.5910907,0.4516912
-0.22923045,9.128822999999999,1.9003450000000002,0.24635322,-0.54852206,0.31435126
-0.20480959,8.959946,1.8165575,0.11114257,0.024242622999999998,0.36438984
0.11050677,8.672708,1.8748418999999998,0.056321774000000005,0.93345445,0.58211964
-0.03892014,8.892389999999999,2.2483375,0.13775884,1.9060217000000002,0.84667665
-0.6898749,10.316194,2.197973,0.17289232,2.8407853,1.0010511
-0.8969254000000001,11.895697,1.8429607,0.09836676,3.6967644999999996,1.1069924999999998
-0.9806267,12.1997795,2.2538824,-0.0048694685,4.3344903,1.2677548
-1.0384035,11.680238000000001,2.525969,-0.13742723,4.590006400000001,1.5344585
-0.39031234,10.230012,2.0636103,-0.34451053,4.5963945,1.7324662
0.66726404,9.528626,1.4678947,-0.62397265,4.2647642999999995,1.6845743999999998
1.5805658,10.115876,0.73041344,-0.8166745,3.7771542,1.4737735
1.9045874,11.167696000000001,0.3202676,-0.8842885,3.1080124,1.23688
1.8860084,11.751614,0.9944173000000001,-0.9119693999999999,2.255751,1.0766412
1.9534866000000002,11.968642,1.7789589,-0.91409874,1.2906535,0.9425127000000001
2.082898,11.727393,1.6571228999999998,-0.9268745999999999,0.40751693,0.80143774
1.5942701000000001,11.112822,1.2699037,-0.9391093,-0.25893706,0.71678925
0.5116409000000001,10.477363,0.9189424999999999,-0.8965233,-0.80669117,0.63854617
-0.80184686,10.319086,0.26275885,-0.7336316999999999,-1.196877,0.52729887
-1.289498,10.540281,-0.12674904,-0.50260246,-1.4316412,0.3516315
-1.6265345,9.955110000000001,-0.27411693,-0.32693508,-1.5498174,0.13816026
-1.8566363999999997,8.86638,0.29438147,-0.24017476,-1.5732398,0.0029496064
-2.2841067,7.7090898,0.58474064,-0.21462314,-1.5977267,-0.026843164
-2.420988,7.0310235,0.5845204,-0.15287338,-1.7174913,-0.31162855
-2.1761953999999997,6.9179306,0.38002685,0.017976891000000002,-1.8623011999999999,-0.97544706
-1.6313612,7.440709599999999,-0.00018195933000000002,0.22188371,-1.8793181,-1.5280008
-1.1869495,8.390404,-0.26056576,0.35177112,-1.7834995999999999,-1.5248069
-0.49513048,9.180738999999999,-0.084218435,0.38901645,-1.5716516,-1.2826076000000002
0.25648606,9.506867,0.5186128,0.35548866,-1.1101166999999998,-1.1558966999999998
0.8295621,9.500844,0.9924349,0.32567844,-0.47186720000000004,-0.9046565000000001
1.0533721,9.596535000000001,1.0108607,0.30597368,-0.18174113,-0.6363645
0.6882659000000001,10.594467,1.003975,0.32196090000000005,-0.49687780000000004,-0.7449414000000001
0.90699065,12.247854,0.88453305,0.31768483,-1.0004575999999998,-0.99035215
2.6149087000000004,13.085194,1.7248691000000003,0.26925194,-1.4470698999999998,-1.1681489
3.7633786,12.716438,3.287919,0.17821556,-1.6988686000000002,-1.2538445
2.1741072999999997,11.666255,4.3650036,0.09358455,-1.6823578000000001,-1.2836548
-0.35618059999999996,11.128546,4.343838,0.057386424000000005,-1.4454817,-1.2677025
-1.2270473999999998,10.683494,3.9306184999999996,0.017994344,-1.0685953000000001,-1.292713
-1.4605780000000002,9.500269,4.1071095,-0.052255157,-0.7992385999999999,-1.3203938999999998
-3.0779855,8.915921,4.224588,-0.04108505,-0.7582408,-1.2208403
-3.2528102000000003,9.405449,3.8293629,0.045675267,-0.87002915,-1.0111040999999998
-2.1233025000000003,9.72451,3.220163,0.11222467,-1.0355911,-0.80988514
-1.7816308999999997,9.475408,2.445265,0.09943141,-1.1665431,-0.68638563
-1.5194945,9.080345,1.8471171000000002,0.061103977000000004,-1.2511742000000001,-0.6203773
-0.8085793000000001,8.760959,1.3732566000000002,0.07550294,-1.3480573999999999,-0.50911254
0.052049946,8.328307,1.2058828000000001,0.07867944,-1.359245,-0.44577456
0.6041241,7.921245,1.1267592,0.091996305,-1.1468383999999998,-0.35847318
0.90782386,7.564222,0.8186446,0.153205,-0.6507111,-0.14873695
0.5303827,7.313654400000001,0.9985545,0.22134265,0.08546878,0.07853982
-0.035644874,7.3291683,1.68502,0.29534462,0.8046491,0.28881708
-0.22432712,7.6724205,1.8785290000000001,0.37465240000000005,1.0766586999999999,0.42828634
-0.06409757,8.234876,1.6568642,0.37679914,0.8403236999999999,0.4245688
0.34792540000000005,8.617842999999999,1.5274048999999998,0.375717,0.44053856,0.48790678
0.626371,8.689888999999999,2.0259638,0.32409018,0.32501522,0.5933071999999999
0.737146,8.687304,2.5160856,0.18940313,0.63057,0.63854617
1.178742,8.493967,2.7484,0.10210176,1.2076107,0.72745323
1.3177686000000002,8.927758,2.9554505,0.065903634,1.8267139,0.86212283
1.2668488000000002,10.343019,2.8537257,0.037175514,2.4037547000000004,1.057495
1.0712137,12.205976,2.503387,-0.0011519173,2.881783,1.3023646999999998
0.14680287,12.763949,2.8618755,-0.05438446,3.1096182,1.5078423
-0.741082,12.185883500000001,3.1391622999999997,-0.10868165,3.0329632999999996,1.6568933999999997
-1.3702782,10.840926,2.8667404999999997,-0.17840755,2.7423136,1.7431301
-1.6506776,10.554905,2.2748077,-0.26677358,2.331882,1.6994794999999998
-0.71750396,11.266338000000001,1.2137357,-0.34288737,1.9267911,1.5733271
0.22781308,11.126688,0.92424804,-0.39985493,1.4594094,1.421082
0.38411614,10.618563,1.4746943000000001,-0.47225118,0.99256873,1.3289809
0.33651942,10.417803999999999,1.63614,-0.52761304,0.6406929,1.2613668
-0.00983538,10.602167,1.5082417,-0.5984036,0.38784707,1.1682187
-0.34640267,10.674700999999999,1.3896808999999999,-0.60000926,0.256895,1.1064688999999999
-0.71447766,10.263933,1.347926,-0.52441907,0.22122048,1.0053271000000001
-1.187141,9.934558,1.3248268,-0.43605307,0.23240805,0.7620631
-1.2626061000000002,9.661100999999999,1.2415564,-0.31946507,0.16479398,0.43202135
-0.97848153,9.011258,1.2373521,-0.24335125,0.03757694,0.186087
-0.8404510000000001,8.204815,1.3431281000000002,-0.24176301,-0.16097172,0.03117158
-0.8724758,7.6091175,1.2661496,-0.22258183,-0.45959756,-0.12583824
-0.83468574,7.331974499999999,1.0794306999999999,-0.14008012,-0.84447753,-0.36007887
-0.32510385,7.488909700000001,0.99139106,-0.027750734,-1.1835601,-0.68690926
0.21908861,8.034586000000001,0.75041944,0.0877377,-1.3411285,-1.0441083
0.5692454,8.970939999999999,1.0401849,0.16119862,-1.3001481000000001,-1.2793961999999999
1.31389,9.462239,1.131289,0.22827162,-1.0909355,-1.2543681999999998
2.136212,9.528549,1.4454848999999999,0.31876692,-0.69703215,-1.1186339
2.2727485,9.618619,1.7257981,0.39648643,-0.29405308,-1.0462376
1.7697363999999998,9.712405,1.5409465,0.4433311,-0.00020943952000000002,-0.7742106
1.4775863999999999,9.85872,1.5035969,0.36028832,-0.018308504,-0.45642105
1.6238242,10.538778,1.7904988999999998,0.27511624,-0.480908,-0.59056705
2.2375062000000003,11.060273,2.2287624,0.26926940000000005,-1.2048531999999998,-0.9749059999999999
2.8462843999999996,11.248055,2.467177,0.21710149999999998,-1.9554319,-1.2309458
2.9109182000000002,11.353305,2.8221605,0.09946632,-2.4606175,-1.3693503999999999
1.9645479,11.221059,2.8416874,-0.05169665,-2.4813695,-1.4284472
0.36953068,11.561849,2.9672396,-0.15976743,-2.0528562,-1.447611
-0.61055017,11.226383,3.2703166,-0.22792254,-1.4593047,-1.4172597
-1.8516276999999999,9.64734,3.8755040000000003,-0.27155578,-0.88599896,-1.3336934
-3.9649034,9.185478999999999,3.5421257000000006,-0.27155578,-0.5080479,-1.2352045
-4.0873046,10.029254,2.3178554,-0.2624975,-0.39039525,-1.1569438
-2.3394701,10.823822,1.9561107,-0.21247639,-0.568733,-1.115981
-1.7028233,10.709954,2.1425137999999997,-0.11665781,-1.0052398,-1.0701835
-1.5956972,10.324717,1.8545486,-0.032532938,-1.4619576,-0.9924639999999999
-0.87508076,9.684766999999999,1.3390003000000001,0.03291691,-1.7558186999999998,-0.8844107
0.047462653,8.785341,0.9225434000000001,0.079220496,-1.7946872,-0.7108726
0.87345266,7.933149,0.98297304,0.14044665,-1.5455413999999998,-0.4622679
1.0975499,7.135401,1.0299665,0.26394615,-1.0211921999999998,-0.17214182
1.0119716,6.7081985,1.1867386999999998,0.35124752,-0.17694148,0.018936822
0.77976274,6.8995047000000005,1.1102008999999997,0.39702750000000003,0.91059065,0.25370106
0.53905934,7.5364394,1.083338,0.37466982,1.4205583000000002,0.383571
0.36338237,8.092630999999999,1.2871228000000001,0.30333823,1.0239673,0.302675
0.23256317,8.547875,1.5983979,0.24849997,0.38943532,0.3606723
0.42159018,8.68375,1.8456038000000001,0.11489502,0.17544049,0.40381682
0.6313797,8.45314,2.1824584,-0.052778757999999995,0.5624498,0.404864
0.8841404,8.369036999999999,2.3631537000000002,-0.14699163,1.1863351999999998,0.52092844
1.2289245,9.053741,2.6869645,-0.21832323,1.8900694,0.64015186
1.7047578,10.815088000000001,2.7970595,-0.25665066,2.5607994,0.7727096
2.1023006,12.36383,2.628431,-0.26836184,3.01647,1.0303551
0.77469665,13.197376,2.7172945,-0.33278194,3.1947904,1.3162051000000001
-0.347504,12.359653999999999,2.6428540000000003,-0.46584582,3.092584,1.5200945
-1.7028712,10.960444,2.8901079,-0.5967979,2.8200507000000004,1.6435939999999998
-2.2920363,11.297998,2.1819222000000003,-0.66388834,2.3888495,1.6904386000000002
-0.81341565,12.159212,0.8935351999999999,-0.6766641999999999,1.9209443,1.6643459999999999
0.05280651,11.852466999999999,0.8289588,-0.6894225,1.4615562,1.5791913
0.011329363,11.248026,1.4182581,-0.703804,1.0553831,1.4828317
0.27992046,10.774654,1.7093833999999999,-0.6846403,0.73331755,1.4184116000000002
-0.15064317,10.288363,1.7481216,-0.6489658,0.4996354,1.3827546
-1.0305411,9.965146,1.4828153,-0.6292959,0.3335499,1.3534680000000001
-1.5686331,9.523492999999998,1.0045974,-0.6026621999999999,0.21270327,1.2762895
-1.8308653000000001,9.141149,0.7747158000000001,-0.5366538000000001,0.14137167,1.1139215
-1.8764794999999999,8.954257,0.95192504,-0.41954225,0.06738716,0.898862
-1.6660197,8.6867485,1.2903886,-0.34821063,-0.014573500000000001,0.69444907
-1.4713328,8.346188,1.3760148,-0.31946507,-0.12210324,0.5352925000000001
-1.2310315,7.709473,1.2720393,-0.25506239999999997,-0.26050785,0.3681423
-0.9318806999999999,7.234502,1.2851787000000001,-0.16297884,-0.41277036,0.03223623
-0.6407937,7.272378,1.4190242,-0.0048694685,-0.6331356,-0.5320113000000001
-0.3086988,7.9323254,1.3288969,0.16812757,-0.77579886,-1.0222743
0.05914636,8.585664999999999,1.0746901000000002,0.29588565,-0.7646113,-1.1787778999999998
0.6283247,8.79963,1.1912878,0.35070646,-0.6480408000000001,-1.0627309999999999
1.2174612,8.707137,1.6345693000000001,0.42844343,-0.45746824,-0.91207415
1.5331126,8.795502,2.0516393,0.52797955,-0.1939759,-1.0148216
1.5596309,8.998033,1.8098345,0.6025050999999999,0.17065829,-0.92219704
1.6412827,9.68763,1.8423381999999997,0.58227676,0.36016613,-0.59321994
2.2625015,10.9671,2.053229,0.49391073,0.20792107,-0.50272465
3.5986767,11.509089999999999,2.4569395,0.47794095,-0.16523032,-0.7193898
4.4023333,11.013021,3.2077419999999996,0.51094514,-0.6134483000000001,-1.017492
3.4702517999999998,11.153303,3.5976616999999997,0.5114862,-1.1367155,-1.2149761000000001
1.7670549,11.331228999999999,3.5826354,0.46143013,-1.4960438999999999,-1.3847966
-0.15087302,11.549141,3.3343186,0.35124752,-1.4843327,-1.5828216
-0.8965136,11.486661,3.5302696000000005,0.26446974,-1.1681313999999998,-1.6121082
-1.2742038,10.270378,3.9785597000000004,0.14097025,-0.8205142,-1.5210719
-3.4614123999999995,9.213232000000001,3.8647873,0.07761479,-0.7427946999999999,-1.3821261999999999
-4.601962,9.440261,2.8598163,0.14309955,-0.8732231,-1.2192521
-3.4971433,9.777967,2.048345,0.24958208,-1.0797653999999999,-1.1415151000000001
-2.2824020000000003,9.540817,2.1092918,0.2650108,-1.1462973,-1.1218103000000001
-1.5960994,9.094682,1.9492824,0.19315559,-1.1079698999999998,-0.97862357
-1.034908,9.180594000000001,1.6033585,0.10264281,-1.1063816999999998,-0.79817396
0.5166113,9.142039,1.042014,0.051539574000000005,-1.1638728,-0.6336767
1.3994588,8.384944,0.7121409000000001,0.093060955,-1.299607,-0.37976620000000005
0.7748594,7.948098700000001,0.53572655,0.12552407,-1.4795505,-0.42076397
0.17793708,7.720620599999999,0.38555267,0.19261454,-1.5034964,-0.50485396
-0.25576776,7.9783993,1.0789901000000002,0.20804325,-1.1814308,-0.25359634
-0.18159541,8.587321000000001,1.8212788,0.28789207,-0.6720041,0.080145516
0.052116983,8.881233,2.0455484,0.2783102,-0.25837854,0.15734144
-0.40302074,8.252182000000001,1.8149389999999999,0.22348939999999998,-0.27276006,0.108367495
-1.0981629,7.499377000000001,1.6150421999999998,0.14629349,-0.28288296,0.09344493
-1.2913846000000002,7.1289940000000005,1.7030243999999999,0.050474923,0.09611528,0.13870132
-1.3611898,7.775668,1.8223323,-0.027227135,0.84777623,0.28775242
-0.83378553,10.509808,2.1101727,-0.06874852,1.6111133999999998,0.5405983
1.1803893,11.923948,2.3521116,-0.10548769999999999,2.1258807,0.7439465999999999
0.62241584,12.110847999999999,2.479397,-0.12676327,2.3904552000000003,0.8482997999999999
-0.6158845000000001,11.248122,2.4586153,-0.1086642,2.4213302000000003,1.0255555
-0.4305062,11.753882,2.5720334,-0.12091641,2.3042185,1.103275
0.47273034,11.631617,2.356948,-0.13316862,2.2248932999999997,1.0436546
0.1941506,10.682468,2.494088,-0.1688257,2.1620789,1.124568
0.36951151,10.797888,1.8264886000000002,-0.2790258,2.0896828000000003,1.2060225
0.62221473,11.091436,1.1556811000000002,-0.45841074,1.904957,1.1852531000000002
0.08957188,10.93587,1.0994270000000002,-0.63568383,1.6553050999999999,1.113904
-0.7693432,10.540415,1.4422288,-0.7139269,1.3502914,1.1027513999999998
-1.2248448,10.421403999999999,1.684637,-0.75012505,1.0095857,1.1511843000000002
-1.6555904,10.511024,1.8541846999999998,-0.78260565,0.6880611999999999,1.216128
-1.9874269,11.402099,1.9932112000000002,-0.75012505,0.38889426,1.2996943
-1.1604697,11.857714999999999,1.7748505,-0.59842104,0.073234014,1.3619851
-1.2914516000000003,10.977634,1.944743,-0.4131718,-0.24134412,1.0420663000000001
-2.1259552999999998,9.096042,1.4896148,-0.23431045,-0.4101,0.49535936
-2.1687252999999997,7.4080048,1.3562003,-0.10709339999999999,-0.5250823,0.28029987
-1.6817351999999999,6.286139,0.930789,-0.101229094,-0.69649106,0.32021555
-1.5229805,5.914578400000001,1.0539371000000002,-0.15872024,-0.81786126,0.34630823
-1.4874792,6.295907499999999,1.0691451,-0.16563174,-0.8322428,-0.04759513
-1.3263015,7.141626,0.66796315,-0.009669124,-0.6778684,-0.6741509
-0.8903366,7.965461,0.19721518,0.11648327,-0.35208526,-0.98715824
-0.36332488,8.957809,0.15714583,0.13191198,-0.06515314400000001,-0.91263264
0.8034941,11.049097999999999,0.62571985,0.098907806,0.182352,-0.6305002
2.9861155,11.533856,0.94925314,0.16385151,0.2579422,-0.5575629
2.5999496,10.028047,1.8935741000000001,0.45343652,0.20790362,-0.7199309
0.761653,9.015845,1.9460073,0.6158045,0.11634365,-0.6938382
-0.11872367,9.721809,1.6468276000000002,0.49602258,-0.25626668,-0.6390174
0.9204269,11.369805,1.4151744,0.35761797,-0.79498,-0.75239396
3.4165163,11.6054325,2.2065825,0.30173249999999996,-1.1558966999999998,-0.929126
4.0199795,11.469835,3.4161046,0.27829275,-1.352316,-1.0781946000000002
1.7993671000000002,11.201866,3.089018,0.22451915,-1.4140832,-1.1314271999999999
-1.1516398,11.162497,2.5475168,0.17236872,-1.3358226999999998,-1.1032051999999999
-3.4014422999999994,11.564339,1.8909979,0.13138838,-1.1500324,-1.0340029
-3.706866,11.378739999999999,3.1787815,0.12711233,-1.017492,-1.0068629999999998
-3.6922996,10.475503999999999,5.370482,0.15959291,-1.084565,-0.9812939
-5.2476783,9.742946,4.359621,0.21121974,-1.3108121000000001,-0.9664063
-5.207944400000001,9.519939,2.7189322,0.25382322,-1.5492765,-0.99194044
-4.110749,9.218786999999999,1.8696129000000001,0.29267427,-1.7765881000000001,-0.9323374
-2.5135574,9.076476,1.6308056,0.22240731,-1.8085276000000001,-0.92966706
-1.3664476,8.998732,1.2357817,0.17236872,-1.5689812,-0.95202476
-0.7204153,8.730188,0.8233754999999999,0.15266395,-1.2554326999999998,-0.8274606
-0.5121102,8.1297035,0.5847311,0.08876745,-1.0792418,-0.6837502
-0.5342422,7.348198,0.51777965,0.061645027000000005,-0.9924639999999999,-0.53202873
-0.587403,6.9028089999999995,0.810782,0.12018337,-0.7885920999999999,-0.2855533
-0.54916286,7.2627726,1.0856172,0.20113175,-0.38241908,0.0013613568
0.13635457,8.1797905,1.4492582,0.28576276,0.15521213,0.30956906
0.5464621999999999,8.584936,1.6559926,0.30757937,0.42350414,0.5512448
0.5105204000000001,9.610114999999999,1.587624,0.17449802,0.25048965,0.36760125
1.1799008999999998,9.480694999999999,1.6120543,0.09250245,-0.03323107,0.09131563
1.0677373,8.506282,2.6722354999999998,0.05152212,-0.03429572,0.103026785
0.68139935,8.284991,2.7895036,-0.013927726999999999,0.45809656,0.31115729999999997
0.47910848,8.519411999999999,2.6415226,-0.051190507,1.2427442,0.6609038
0.35473449999999995,8.983083,2.786851,-0.09005899,1.8746058,0.9669822
-0.020360291000000003,10.043111999999999,2.6730017999999998,-0.16990781,2.3675392000000004,1.1485139
-0.46189895,11.164575,2.2902167,-0.2705086,2.7534838,1.3034118000000001
-1.1770853000000001,11.721886999999999,2.2394214,-0.38444367,2.9280865,1.470021
-1.0387963,12.437475,1.975341,-0.488762,2.8083044999999998,1.5552106
0.32818758,11.322448,1.9517342,-0.559029,2.433024,1.5222063
0.3702585,10.657866,2.225899,-0.6149319000000001,1.9198621999999999,1.4008361
0.196382,11.594631,1.6294553,-0.6905220999999999,1.3593148000000002,1.2304746000000002
-0.16516161,12.557052,1.1427046,-0.75386006,0.8360476,1.0872878000000001
-1.0395433,12.395002999999999,1.6344161,-0.7996575,0.3968704,1.0351199
-1.3116682,11.688713,2.090186,-0.8294676999999999,0.10143854,1.0798352
-1.3501861000000002,10.770316000000001,2.2264447,-0.85021967,-0.0694292,1.1240268999999998
-1.6600053,10.011727,1.9866703000000001,-0.81297433,-0.16257742,1.1543608
-1.9568385,9.825994999999999,1.681601,-0.697451,-0.191323,1.1309383999999998
-1.988691,10.176095,1.6655693999999999,-0.5302834,-0.15086626,0.9728465000000001
-1.8226099999999998,9.621233,1.7371273999999997,-0.37538540000000004,-0.092310466,0.77801543
-1.7594606,8.517364,1.7399238000000001,-0.31363568,-0.054524086,0.6167121
-1.6628306000000002,7.193264,1.5531954,-0.26626742,-0.11573278,0.47404888
-1.4618803,6.223841999999999,1.541952,-0.17896606,-0.2812947,0.38833576
-1.2773450000000002,5.8506339999999994,1.3258802,-0.0959233,-0.55330426,0.057770398
-0.88104707,6.4498262,1.0883945,-0.008080875,-0.77901024,-0.5911081
-0.24523330000000002,7.7691655,0.8450190999999999,0.12498303,-0.890275,-1.070201
0.38567716,9.165099,0.88363284,0.24474752,-0.9621301999999999,-1.2134053
1.2735908,10.095975,1.1034108,0.30225609999999997,-0.98661715,-1.0808475
1.9689436000000002,10.152564,1.528602,0.35016540000000007,-1.0345265,-1.0883001
1.719803,9.904976,1.7641532,0.46938884,-0.8466243,-1.0946878999999998
1.4635372,9.473042,1.7425,0.5604252,-0.41969929999999994,-0.7486764
1.119998,9.923038,2.0964396,0.46991244,-0.20411626,-0.48305479999999995
1.2368447,11.273961,2.1890857000000006,0.34749505,-0.21580996,-0.5820673000000001
2.8702838,11.97595,2.3418262000000003,0.33950144,-0.41011748,-0.8897514000000001
3.5939074,11.030814999999999,2.9346209,0.35707690000000003,-0.7779456,-1.1463323
2.1193473,10.193505,3.3953800000000003,0.31607914,-1.1596316,-1.2767433000000001
-0.11443326599999999,10.79604,3.5156362,0.22773056,-1.2634264,-1.3166764
-1.6840432,11.509732000000001,3.285314,0.16863371,-1.0797828,-1.3193293
-1.3769723999999999,10.3688755,4.134068,0.18512708,-0.76996946,-1.2884544
-2.3674630000000003,9.012426,5.232891599999999,0.22080160000000001,-0.51871186,-1.2671614
-3.7271497000000005,9.094662,4.588315000000001,0.24209462,-0.52349406,-1.2272457
-3.084565,9.658228999999999,3.0642717,0.30489156,-0.780616,-1.1452676000000002
-1.6689023,9.929089999999999,2.6604178,0.3836932,-1.045714,-1.0584898
-0.8646995000000001,9.615210000000001,2.8749382000000003,0.39486328,-1.225099,-1.0164448
-0.8736921000000001,9.474919,2.6038759999999996,0.3283139,-1.3731029,-1.0473198000000001
-0.65633684,9.034453,1.8514361000000001,0.28680995,-1.5301301,-0.9818524
-0.026250027000000002,8.237616000000001,1.2890096000000002,0.24635322,-1.5232012,-0.8317191999999999
0.51226336,7.4228683,1.0702465,0.20217894,-1.2160581,-0.625718
0.46802813,7.185277,1.1539382,0.22399555,-0.66989225,-0.32281609999999994
0.33142456,7.393764,1.1263952,0.2628466,-0.06304129,-0.013020156000000001
0.025388114,7.5172476999999995,1.309906,0.36611772,0.43093926,0.2547308
-0.1996477,7.6164436,1.6486759999999998,0.4763178,0.57733744,0.5161113
-0.11183795,8.05103,1.6354791000000002,0.38634607,0.31009266,0.5730614
0.06451894,8.909619000000001,1.481168,0.23729496,-0.11733848599999999,0.4703313
0.24259967,9.196636999999999,1.8097005000000002,0.11911872,-0.22752112,0.41921064
0.12919112,9.078392,2.4021792,-0.031503193,0.26698299999999997,0.48949504
0.29128814,9.041396,2.316955,-0.15660839,1.2246451,0.5938308000000001
0.565453,9.451542,2.2662267999999997,-0.19387117,2.2482982000000002,0.7072074
0.47080538,10.628973,2.1906752999999997,-0.24336872,3.0473275,0.77373934
0.12261186,11.879225,1.8410357,-0.3301465,3.5684652000000003,0.9068207
-0.59263194,12.142683,2.3762167,-0.42277109999999996,3.8223932,1.141585
-1.3483186000000003,12.257183,2.302657,-0.47174504,3.8064233999999995,1.4189352
-1.1617433000000001,11.414759,1.7159818,-0.53668875,3.5690062000000005,1.7345954
-0.69350445,10.49392,1.7975858,-0.63783056,3.2416174,1.8788468999999997
0.12873143,10.805271000000001,1.4446421999999999,-0.7517482,2.7965934,1.8218968
0.96688396,11.696422,0.80123395,-0.7719766,2.2946020000000003,1.7106321
1.5200021000000001,11.923641,1.1886637,-0.7597244000000001,1.7505827,1.5882148
1.5115458000000002,11.527344,1.717811,-0.7650475999999999,1.1628954,1.4375579
1.0433165,10.697599,1.4860138999999999,-0.7911403,0.6545159,1.244315
0.10529699,10.123039,0.9914389000000001,-0.8230798,0.30637509999999996,1.0803763000000002
-0.82997394,9.618207,0.6963775,-0.8124333,0.012531463999999999,0.9611179
-1.6657993000000002,9.3545,0.50469774,-0.73577845,-0.2685189,0.84187704
-2.400398,9.696363,0.30926383,-0.5952445,-0.56236255,0.65449846
-2.1343064,9.823046000000001,0.22243091,-0.4595103,-0.78965676,0.439439
-1.7880856,9.162533,0.5592376,-0.38763762,-0.9632122999999999,0.2611187
-1.8637424999999999,8.278737,1.0185891,-0.32002357,-1.1234335,0.16530013
-1.7903456999999998,7.6836824,0.9759915000000001,-0.20556487,-1.2479976000000002,0.018378316999999998
-1.4282563,7.445364,0.88692725,-0.019792033,-1.4678394,-0.46654397
-0.9282031999999999,7.751735000000001,0.6384378,0.18088593,-1.6429831999999998,-1.141009
-0.62628484,8.428299,0.5751639000000001,0.30330333,-1.6312719999999998,-1.5013846000000002
-0.41612184,8.815576,0.6577638000000001,0.37569958,-1.5040375,-1.4375055
0.063455924,8.992497,0.99923444,0.39701006,-1.249586,-1.3049653
0.72326916,9.086789999999999,1.3376213,0.42043236,-0.8348957,-1.2698143
1.0707826999999999,9.074896,1.481714,0.505587,-0.29832911,-1.0989466
1.0062255,9.418703,1.4483291999999999,0.4832293,0.025307272999999998,-0.84343034
1.116311,10.820212,1.5708646000000002,0.41776199999999997,-0.13330825,-0.8461006999999999
2.1195102,12.295212,1.956896,0.41671482,-0.664028,-1.0824357
3.8116648,12.576367999999999,2.9024906,0.42308527,-1.2171228,-1.2905837
3.6857681,11.909419999999999,3.6507169999999998,0.36292377,-1.5695223,-1.384814
1.3170983,11.126688,3.9259737,0.25698227,-1.6578883000000002,-1.3752322
-0.63949126,11.149731,3.8857798999999997,0.1579872,-1.4790268999999998,-1.3007066
-1.0636864,11.030911,3.8605256000000003,0.1366942,-1.2879133,-1.2549267
-1.5057709,9.944087,4.3120145999999995,0.17821556,-1.2064763,-1.2149935
-2.9465537,9.624949,4.2639008,0.2506118,-1.3863848,-1.1500498
-3.6010612999999996,9.965471,3.1708615,0.27563986,-1.624343,-1.0952115
-2.6461196,10.123566,2.6070175,0.23038346,-1.670123,-1.0968173
-1.8410071,9.631979,2.4595826,0.16011651,-1.4737036000000001,-1.0861708
