accx,accy,accz,gyrx,gyry,gyrz
15.934935000000001,-1.0098646999999998,0.53155106,0.34650022,-0.2564936,0.308836
14.422623000000002,0.038872257,-0.24992594,0.23471187,0.07566002,0.060248765999999995
11.802427,0.3969012,-0.026546909,0.057962384000000006,-0.019617502,-0.23944172
9.119916,1.1283681,0.13276328,-0.018657569,-0.08562585,-0.37091738
7.1486073,1.5046217,0.23184492,-0.07934267,-0.053145275,-0.4321435
5.509307,1.124681,0.14968549,-0.12086405,0.090024084,-0.37678167
4.726259,0.45084733,-0.37229836,-0.20657717,0.06660176,-0.22931881
4.9469857,0.30011797,-0.28715098,-0.25127506,0.061295964,-0.14947
5.3249059999999995,0.016309302,-0.48074612,-0.30398400000000003,0.19064231,-0.043545965
5.8339224000000005,-0.080904864,-0.37117788,-0.3455054,0.20715313,0.04960226
6.358578,0.13350068,-0.28198907,-0.27469736,0.14273302,0.11294025
6.4037904999999995,0.093871854,-0.5822411999999999,-0.20710076,0.018692477,0.17203711
6.0790024,-0.3057204,-1.6449316000000003,-0.21029472,-0.24106488,0.21036454
6.551828400000001,-0.30074048,-2.5175989,-0.19326031,-0.21177825,0.19120082
7.958853200000001,0.64663553,-3.1002709999999998,-0.33485886,-0.18570304,0.16458455
10.49346,1.5667943000000002,-3.3319053999999997,-0.5616295,-0.32730159999999997,0.20929988
13.415977,0.9352039000000001,-3.0601822999999997,-0.57547,-0.0068416907,0.13051572
13.298353,-0.7744285,-4.1209955,-0.49616220000000005,0.28379053,-0.02490585
11.491527,-1.5630882,-4.297822,-0.4147077,0.1155757,-0.06377433
13.715461999999999,-1.4331308999999999,-0.7867155,-0.2928139,0.31573007,-0.21069615
19.814001,-6.3993177,1.3448423,-0.08520697,0.43922955,-0.576936
13.753128,-7.6459402999999995,0.48847460000000004,0.5892581,0.26516786,-0.45554838
9.096204,-0.6943471999999999,0.7693528000000001,1.1721457,-0.36135298,-0.47738245
8.708708,2.0934806,0.85070777,0.8474271999999999,-0.6387031999999999,-0.45874235
11.008856,3.7800133000000002,1.8089918,0.3119078,-0.33527774,-0.39327505
13.537516,3.491158,0.70512116,0.086725414,-0.13405874,-0.24528857
13.555261999999999,0.48715302,-0.51446605,-0.16610299,0.13154547,-0.11433652
11.867109,-1.5969229999999999,-0.54415417,-0.2981197,0.33117622,-0.047787115
10.463954,-1.377796,0.1916319,-0.16079718,0.41367793,0.067701325
8.975584,-0.89531654,0.23610660000000003,-0.10595894,0.32159436,0.26892033
7.869339,-0.7638844,-0.09547118,-0.18952529999999998,0.25239205,0.3711268
6.664567,-0.95008624,0.022783223999999998,-0.26352727,0.1805194,0.32108822
5.7133884,-1.3168971999999999,0.6962913000000001,-0.26192155,0.10759955,0.24495696
5.3993363,-1.5549191,0.94841033,-0.13416345,0.1603085,0.17577212
5.2509246,-1.7391769,0.6622266,0.030839968,0.23375195,0.12838642
5.6232424000000005,-1.8220450000000001,0.3747979,0.18893189999999999,0.29338986,0.0400204
6.5282025,-1.6453912,-0.019737799,0.3315951,0.29604274,-0.09410815
7.4992523,-1.2618017,-0.97367394,0.37046358,0.14060372,-0.17767452
8.290402,-1.0840753,-2.1087458,0.35662309999999997,-0.07337364,-0.20802579999999998
8.596909,-0.83832496,-3.176598,0.33745942,-0.20326105,-0.23516566
8.616273,-0.66795355,-3.4495275000000003,0.35023522,-0.13992305,-0.27296948
9.190124,-1.3942968999999998,-2.7117975,0.3315951,0.07991862,-0.26125833
10.288631,-1.9998001,-1.7617397000000001,0.3071256,0.31787682,-0.1515993
10.533597,-1.2313091999999999,-2.1581142000000004,0.29220300000000005,0.19437732,-0.016388642
10.00375,-0.52434933,-3.090445,0.34491196,0.03361504,0.058119465
9.738349000000001,-0.8103511,-2.2122903,0.49076912,-0.020141099,0.10869910599999999
12.303774,0.26342922,-1.9046448,0.24111724,-0.14309955,0.24549802
16.834148000000003,4.6219873,-1.9038596,-0.258204,-0.52211523,0.82201517
15.881487,2.7292655,0.9059564,-0.52595496,-0.098401666,1.0226932
12.343528,-1.2854661,2.6396554,-0.7500727,0.005934119,0.68148124
10.049517999999999,-3.0564763999999998,4.56851,-0.6196441999999999,-0.5290442,0.44673450000000003
10.781464,-4.804952,3.3961367999999994,-0.15386823,-0.28098056,0.30831242
12.6578,-4.195149,1.3532507,0.12079424,-0.28523916,0.24017476
14.009642999999999,-1.8405759999999998,0.39738959999999995,0.13569935,-0.26446974,0.07195993
13.218828,0.038470034,-0.21870553,0.09897762,0.0085870195,-0.13828243
11.013826,0.67231095,-0.19794302,0.03031637,0.020839231,-0.28307495
9.105915,1.0544639,0.046753973,-0.03197443,-0.0031066859999999996,-0.40818015
7.537416,0.9469068000000002,0.3939132,-0.05057964,0.0021991148,-0.45821875
6.094354,0.41859266,0.3551559,-0.038344882000000004,-0.0052359877,-0.32833135
5.73373,0.29927522,0.009931149,-0.017051866000000002,-0.049410272000000005,-0.21813124
5.435594,0.27890533,-0.14235924,0.018064158,0.05703736,-0.1585108
5.320405,-0.28012162,-0.31532592,0.01860521,0.20289452,-0.048851766
5.6536393,-0.5346444,-0.32002816,0.0074176495,0.18479545,0.067701325
6.5791326,-0.0733775,-0.42838016,0.04522148,0.16510814,0.11243411
7.3809886,0.22557211,-0.95992166,0.05958554,0.15179129,0.12945107
8.053338,0.39270654,-1.4766191,0.004223697,0.06981317,0.16299629
8.589228,0.7012234,-1.820618,-0.07293731,-0.0031066859999999996,0.17257816
8.72177,0.9804448,-2.0196624,-0.16395622,-0.017994344,0.15660839
9.140104,1.283771,-2.1287133999999996,-0.24488714,0.043196898,0.13425073
10.069992999999998,1.4426118,-3.1104798,-0.42055455,-0.090931654,0.12466887
11.579978,0.5501491999999999,-3.559134,-0.5632003000000001,-0.17875662,0.042167153
13.083392,-1.3046101,-3.7170556000000006,-0.5057265999999999,0.083112575,-0.14467034
12.506112,-2.4813794999999996,-4.383735,-0.3130248,0.18160151,-0.27881634
11.403611,-1.1040335,-3.5170155,-0.016510814,0.12889257,-0.24528857
15.11111,-0.542143,-1.2322286,0.026057765,0.21034709,-0.33044317
16.396202,-4.4332476,0.26788244,0.23897047,0.28965485,-0.37782887
12.609494,-3.4635860000000003,0.6442318,0.78408915,0.16137314,-0.37037632
10.355613,-1.2322574,2.2781307999999996,0.8138994,-0.07763225,-0.4763178
9.58329,0.42198285,2.6545472,0.56157714,-0.20165534,-0.5274036
10.743128,2.7016459999999998,2.281502,0.45724136,-0.17397442,-0.45074874
12.368656,2.3239462000000004,1.2355996,0.26879814,-0.11435397,-0.28094566
11.829711999999999,0.37452975,0.45614332,0.105906576,0.035744343,-0.10421361
10.804725999999999,-0.680978,0.44606853,0.062255893,0.12463396,0.06930702
9.587121,-0.6419621,0.43441355,0.08833111,0.052778757999999995,0.20771164
8.609653999999999,-0.69791937,0.1819689,0.1319818,-0.051015973,0.3014009
7.763553,-0.88831586,-0.19147867,0.08728392,-0.082938045,0.31684709999999994
6.568846700000001,-1.2224123,-0.34253365,0.039374627,-0.11009537,0.27371999999999996
5.7553835,-1.4356782,0.026920404,0.024469515,-0.007347836,0.24710372
5.495325,-1.3379374,0.31089187,0.08089601,0.12838642,0.20347048
5.8260026,-1.2745676000000001,0.36807498,0.21024236,0.1666964,0.10072295
6.448543,-1.2137357,0.15980819,0.33852407,0.21673499,-0.060562924000000004
7.029586999999999,-1.1916516000000001,-0.39631698,0.42423720000000004,0.2209936,-0.20854940000000002
7.3624477,-1.0469652,-1.2925528,0.43114868,0.08843583599999999,-0.25113544
7.799983500000001,-0.712093,-2.1380796,0.44926520000000003,-0.06270968,-0.21546089999999998
8.554234,-0.52148587,-2.6808548,0.5067389,-0.10103711,-0.21067870000000002
9.079684,-1.0834816,-2.3049457,0.5695707,0.09058259,-0.23781857
9.029214999999999,-2.1465932999999997,-1.8659929,0.6377084,0.25666812,-0.18565068
9.435951,-2.0723445,-2.148164,0.7223394000000001,0.14327408,-0.06482153
9.861487,-1.0773813,-3.3871922,0.5908463,-0.23465952,0.09114109
10.427975,0.51960886,-3.9556332000000003,0.42636648,-0.37945202,0.23486896
11.901278999999999,2.4493449000000003,-2.3351702999999997,0.21078339999999998,-0.054733526,0.33121112
15.623304999999998,5.253989,-3.1708903,-0.3896622,-0.17610373,0.7671944
17.735518,4.7880683,-1.9627283,-1.0651919,-0.11913618,1.1025593999999999
13.6726055,-2.0946583999999997,2.0230045,-1.2153076999999999,0.13262758,0.5643697
10.086159,-5.7118564,5.934335,-0.85065603,-0.5742831,0.1624727
10.447032,-6.6512647,3.9980485,-0.12669346,-0.35496506,0.015550883500000001
11.894900999999999,-4.896908799999999,1.2697027,0.4455302,-0.30705577,0.21994638
13.805655999999999,-1.4942405,-0.058763288,0.42263147,-0.38851030000000003,0.40147808
14.550493,0.70961267,-0.85129195,0.26612779999999997,-0.056321774000000005,0.21144664
12.828478,1.1361636,-0.46028048,0.049480084,0.19383627,-0.10634291
10.034531,0.91647166,0.16325583,-0.055902895,0.07620107400000001,-0.38421679999999997
7.5556602,0.81384665,0.35834497,-0.06974336,0.04160865,-0.47842965
5.6362095000000005,0.35293406,0.45484084,-0.08197811,0.08684758,-0.43052036
5.018716,0.31200278,-0.1941506,-0.14372787,-0.019058995,-0.2931804
4.9530769999999995,0.7247344,-0.24088542,-0.18737854,0.0016755160999999998,-0.22664845
4.9612264999999995,0.5465867,-0.44106942,-0.22146483,0.16615534,-0.1590344
5.2507524000000005,-0.11702858,-0.30849767,-0.2491283,0.2247286,-0.035534903
5.96115,-0.20819978,-0.07683472,-0.1751438,0.21834070000000003,0.07037167
6.823187400000001,0.096591674,-0.34263899999999997,-0.064420104,0.12465142,0.13372713
7.393515,-0.006703765,-0.92487055,-0.03141593,-0.014276793000000001,0.16086699
7.4749756,-0.21935676,-1.9095387,-0.08091346,-0.19952604,0.17364279999999999
7.9481463,0.151371,-2.8268723,-0.19324285,-0.23518312,0.18270107
9.384072999999999,1.4456669,-3.3784006,-0.40617302,-0.21656045,0.20186478
11.555548,2.4933026000000003,-3.9888739999999996,-0.6515838,-0.18675023,0.18003072
13.274287,1.3209865,-4.238743,-0.7793244,-0.003630285,0.020333085
12.944021000000001,-0.77608526,-4.5742755,-0.78997093,0.19970058,-0.15796974
11.921687,-2.0141077000000003,-3.9868726999999997,-0.60259235,0.17362535,-0.27455774
14.330207000000001,-2.601798,-1.500542,-0.31087804,0.25506239999999997,-0.42413247
18.729094,-7.89058,0.6544406999999999,0.07876671,0.31415927,-0.62163395
12.619703,-5.9448605,0.5537789000000001,0.8309338,0.32054716,-0.3320489
11.597666,-0.1420432,2.6925862,1.135965,0.040544,-0.5731835999999999
10.243342,0.98656434,2.4680867,0.7915416999999999,-0.16971582,-0.5604252
10.376710000000001,3.2894223,2.0531332,0.45032984,-0.11116002,-0.32086134
12.085786,4.1280923,0.90937525,0.031922072,-0.15481070000000002,-0.116448365
11.927827,1.8147761999999998,0.19259916,-0.21666518,0.12571606,-0.029688051
10.591144,-0.565271,-0.095614836,-0.28267354,0.20395918,0.09005899
9.713171,-1.5506287,0.04378516,-0.27893853,0.11985176,0.3051359
8.7599535,-1.4549468,-0.03569276,-0.2901261,0.03202679,0.39137262
7.456109,-1.2131037,-0.26889759999999996,-0.37262779999999995,-0.043545965,0.33601078
6.1456,-1.0520027,-0.30439879999999997,-0.42957790000000007,-0.058974676,0.26522022
5.526459,-1.0304261000000001,0.21382137,-0.41362557,0.11452851,0.18057176
5.0731792,-1.2544084999999998,0.50227475,-0.29970795,0.32480577,0.13957398
5.0015735999999995,-1.7368017,0.5420281,-0.11391764,0.36791540000000006,0.10231119999999999
5.612545,-2.0687244,0.45916,0.070249505,0.3322583,-0.0014660766
6.629908,-2.1936153999999997,0.016625335,0.23898794,0.23643975,-0.13774139
7.674134700000001,-2.1744237,-0.95810205,0.35557592,0.050125855999999996,-0.22823670000000001
8.397654,-1.7913129,-2.2512583999999998,0.46362928,-0.14362314,-0.25485298
8.808871,-1.0382886999999998,-3.2339153,0.532308,-0.22081906,-0.24687682
9.120759,-1.0579882,-3.2938087,0.5317669,-0.12978268,-0.22397809999999999
9.723898,-1.8651118000000002,-2.7876074,0.55305994,0.035220746000000004,-0.20216149
10.031369999999999,-1.7110881000000002,-2.9101713,0.47481683,0.021903882000000003,-0.07120943
10.375933999999999,-0.6853642,-3.5441177,0.33161256,-0.25062928,0.024068091
10.468829,-0.09578723,-3.5001504,0.3257657,-0.10742501,0.06613053
11.317813000000001,0.3609211,-1.3208332,0.19427260000000002,-0.055798177000000004,0.17577212
15.333673999999998,3.8184737999999996,-1.8431522,-0.28799677,-0.63390356,0.80498075
17.751848000000003,4.226244400000001,-0.22429839,-0.7133335,-0.33101913,1.1557745000000001
13.327267,-1.8660216,2.644166,-0.76708966,0.046931904,0.6021734999999999
10.347672,-4.0156894,4.358836,-0.65847784,-0.5902529000000001,0.29981264
11.191352,-5.0857730000000005,2.8917167,-0.20282471,-0.3906396,0.18322466
13.445979999999999,-3.9696343,1.2511524,0.11016518,-0.35070646,0.30832985
15.258247,-1.1449646999999998,0.39931455,0.11922344,-0.20378464,0.30246556
14.263428,0.34920868,-0.20967461,0.023404865,0.08152433,0.0038397241999999997
11.742094,0.31866825,0.23811772,-0.066549405,0.016580628,-0.31127948
9.034031,0.84717387,0.29124027,-0.09955358,-0.017994344,-0.48162362
6.826635400000001,1.010899,0.293261,-0.1213702,-0.0132121425,-0.47842965
5.2795977999999995,0.6521422,0.23814645,-0.15756832,-0.056862827000000005,-0.3325725
4.592261,0.4612669,-0.19212031,-0.20334831,0.014451326,-0.18458602
4.5905657,0.3437978,-0.39029318,-0.28002062,0.059166662,-0.10101966
4.7972426,0.08375875,-0.55561763,-0.32737142,0.10494665,-0.019024088999999998
5.4485517,0.012909535,-0.6918764000000001,-0.32899457,0.15817920000000002,0.07304203
6.233658999999999,0.27421272,-0.6868773,-0.23157029,0.17469001,0.15022048
6.86907,0.37361038,-1.1335492,-0.13362241,0.17043139999999998,0.17896606
7.4160395,0.18974528,-1.7050738,-0.14053391,0.07993608,0.20132373
8.013919999999999,0.13198754,-2.0946583999999997,-0.24328144,0.008063421,0.21357594
8.651371000000001,0.29190105,-2.3285812999999997,-0.38327432,0.053319807999999996,0.20718804
9.877088,0.8331533999999999,-2.7463984,-0.5349958,0.047996555,0.19867083
11.600530000000001,1.1591672,-3.7783472999999996,-0.759096,-0.14416419,0.18322466
13.587238000000001,-0.14115256,-4.0243177,-0.7915766,-0.03876376,0.061854467
13.401401000000002,-1.7916003,-4.855373999999999,-0.7601607,0.14275047,-0.10580186
11.245355,-2.200683,-4.2457433,-0.59993947,0.24228661,-0.14786429999999998
12.323215,-1.2054998,-1.4178079,-0.26935667,0.5324127,-0.13561209
16.941956,-4.290275599999999,0.64830196,-0.012793263000000001,0.33278194,-0.25378832
14.746119,-5.083398000000001,0.16474979999999997,0.5828876000000001,0.25188592,-0.16488126
11.849814,-1.1097412,1.5072553,0.7617315,0.20024163,-0.37196457
10.155265,0.7798010999999999,2.2084022,0.5184675,-0.015341444,-0.45553094
10.480015,2.9534395,2.3280642000000005,0.36941640000000003,-0.030770155,-0.41400954
11.868507000000001,2.7939279999999997,1.3809948,0.17884389,0.015515977,-0.28520426
11.419145,0.23889345,0.8539254999999999,0.06332055,0.22738150000000001,-0.10473721
10.591623,-1.2442379,0.48798618,0.0675966,0.2896723,0.06293657400000001
10.047114,-0.98036814,0.565271,0.100059725,0.29551914,0.19919443
9.19338,-0.61784774,0.47125550000000005,0.12081169,0.24122195,0.25668558
7.822901,-0.8135975999999999,0.20146729,0.12241739,0.079395026,0.27426103
6.3145823,-1.3967485,0.22520820000000003,0.11550589,-0.11222467,0.30407125
5.421516400000001,-1.9652948000000001,0.5755182,0.18736109,0.005410521,0.30354765
5.0032496,-2.2255637999999998,0.76319486,0.33482397,0.2316401,0.25244442
4.9697595,-2.1941326,0.6790722,0.47802824,0.20982349,0.17685421
5.746457599999999,-1.6929879,0.41363186,0.6403788,0.14009757,0.014486233000000001
6.459307,-0.99016523,-0.46193728,0.7149043,0.09377654,-0.17287487
7.1648307,-0.46380475,-1.3254397,0.6707126,-0.06270968,-0.272411
7.8521485,-0.41261673,-2.026347,0.6265383000000001,-0.16385151,-0.2681524
8.529123,-0.42420465,-2.466928,0.6137625,-0.18088593,-0.19682078
9.228728,-0.57754844,-2.4735646,0.65793675,-0.09943141,-0.1547758
9.567096000000001,-1.3586998,-2.3745022000000002,0.71916294,-0.00041887903,-0.09993755
9.609196,-1.8310663,-3.0584105999999998,0.7356736999999999,-0.046739917,0.029932396
10.510986,-1.2753338,-4.108833,0.5701118000000001,-0.32726669999999997,0.19015363
11.973336,0.6553409,-4.2623878,0.47322857,-0.30438542,0.17259560000000002
12.085481,1.1448785,-3.7019050000000004,0.45938809999999997,0.16297884,-0.033405602
13.631502,1.5995853,-2.2455506,0.036180675,0.26785567,-0.014241886
15.986669000000001,4.076004,-1.5483207,-0.49823913,-0.4065919,0.6011263000000001
14.531751000000002,0.78779775,2.8513599999999997,-0.6856177,-0.054192472,0.7400545000000001
10.672183,-2.1356664,5.1141586,-0.50197417,-0.28576276,0.5500056
10.039931,-4.7001147,4.156726399999999,-0.057473693,-0.46195376,0.45046946
12.98841,-5.9800553,1.9035628,0.35664058,-0.30970868,0.2897072
15.693082,-3.9781098,0.08269572,0.40189695,-0.43799037,0.15981979999999998
15.458699,-0.7782784,-0.19821116,0.37048104,-0.08719665,-0.08450884
12.430753,0.623,0.004127603499999999,0.27094492,0.16404349999999998,-0.33096677
9.653095,0.9598546,0.20322941,0.18151425,0.0059515727,-0.47895324
7.3562710000000004,0.9980851999999999,0.27274746,0.130411,-0.07867944,-0.48267079999999996
5.609624,0.6859867,0.4647337,0.14425147,-0.10262536,-0.38207003
4.116341,0.6369439,-0.0038211459999999997,0.15224507,-0.0882613,-0.24738297
3.6368977999999994,0.838641,-0.08956230000000001,0.16821483,0.05651376,-0.24951227
3.5988202000000005,0.7721109,-0.63888794,0.060144044,0.13849187,-0.19043288
4.563837,0.35325009999999996,-0.75032365,-0.080372415,0.15446164,-0.030735249
5.9904556,0.42704898,-0.6916274,-0.12934636,0.17469001,0.08103564
7.139864,0.7123516,-0.88041496,-0.16074483,0.07941248,0.14172074
7.726424000000001,0.82053125,-1.7338904999999998,-0.25336945,-0.16650441,0.12735668
7.7718754,0.41320089,-2.6586175,-0.33321825,-0.30171508,0.10498156
8.647597,0.39150944,-3.1097615000000003,-0.42638394,-0.19472638,0.09007644
10.539582000000001,1.5150700000000001,-3.6062519999999996,-0.5690297,-0.22984241,0.0320617
12.889864999999999,1.5481578,-3.2326417000000003,-0.5828701000000001,-0.107948616,-0.08609709
13.600004,-0.653234,-4.051698,-0.5072974,0.17842501,-0.18032742
12.203102000000001,-2.1267693,-4.9643774,-0.40880847,0.15500268,-0.16168729999999998
12.90061,-1.4503691,-2.0702088,-0.24431118,0.29607764,-0.1574287
18.332373,-4.181215,1.0632458999999999,-0.13254029999999997,0.3147003,-0.35171875
16.130705,-7.289223700000001,1.5290521000000001,0.47165778,0.25029767,-0.26813492
11.954058,-2.083913,2.027592,0.90973544,-0.095713854,-0.37835246
10.852505,0.5712469,2.2786095,0.6020513000000001,-0.25434682,-0.48907617
10.710682,2.777475,2.3820584,0.3678456,-0.23038346,-0.36130062
12.965454,3.607296,0.99397683,0.10166543,-0.12765338,-0.18191567
12.8799715,1.3887615,-0.06343677,-0.21982422,0.09325294,-0.046163958
10.997871,-0.77699506,-0.18029296,-0.32417744,0.27956682,0.08529424
9.487666,-1.2460862,0.17925867,-0.25336945,0.25507987,0.25563836
8.228392999999999,-1.0932978000000002,-0.0677176,-0.20813051,0.15074408,0.38020253
7.0694550000000005,-1.1016201,-0.47478935,-0.25176373,0.121457465,0.36583847
5.514622,-1.2283117000000001,-0.12615527,-0.3348065,0.14915584,0.24446827
4.241386,-1.3786962999999999,0.41491517,-0.33482397,0.19971803,0.18963002
4.0107284,-1.4904288,0.68430114,-0.17245598,0.21781708,0.13213888
4.6204553,-1.5110284999999999,0.3396606,-0.0069115036,0.28221974,0.06293657400000001
5.941298000000001,-1.6000929,0.40555862,0.14425147,0.3567453,-0.13878858
6.7397447,-1.6723689999999998,0.060985107000000004,0.29277897,0.34503415,-0.33150783
7.179378,-1.9812785,-0.91675895,0.35824627,0.10974629999999999,-0.30593875
8.172991,-1.9228886000000003,-1.9604584999999999,0.43224823,-0.22985986,-0.24579471
8.8295,-1.2559120000000001,-2.9417365,0.5211553,-0.36878806,-0.25216517
8.884528,-0.9717107,-3.0079602999999997,0.5701293000000001,-0.25539404,-0.24738297
9.560803,-1.390332,-2.8870914,0.5738468000000001,-0.095696405,-0.11164871
10.866918,-1.529464,-3.1189554,0.45247662,-0.14308210000000002,0.025150195
11.439401,-0.8708956,-3.8178036,0.26031587,-0.283616,0.07625344
11.465047,0.21328506,-4.331446,0.18311994,-0.28094566,0.06080727
12.286823,0.48744032,-2.0154772000000003,0.11337659,0.05438446,0.013962634
15.184764999999999,2.559804,-1.6573908,-0.3433237,-0.1563815,0.36318555
16.796751,3.4945192000000005,-0.029324182999999997,-0.7463028,-0.30010936,1.0062171999999998
12.680372,-1.2357241,3.3344525999999997,-0.7074343000000001,-0.1579872,0.81937975
9.425186,-3.3900747000000004,4.699224,-0.49183378,-0.5545609,0.5686631999999999
9.808891000000001,-5.076043,3.0742123,-0.068120204,-0.37676424,0.37967893
13.065945,-4.553542,1.1711477,0.17781414,-0.37037632,0.36796775
16.030655,-1.5149646,-0.17145357,0.14212216,-0.39859828,0.27799603
15.154339000000002,0.88285714,-0.8929988999999999,0.014905112,-0.015323991,0.027820547999999997
12.076353,0.93733954,-0.40545326,-0.18788469,0.08367108599999999,-0.2665467
9.311404,0.75517905,-0.053429004,-0.260822,0.06983062599999999,-0.42837359999999997
7.0466433,0.5830552,0.24714865,-0.25389305,0.091664694,-0.41772709999999996
5.5505543,0.45484084,0.34052253,-0.24057618,0.017139133,-0.30113912
4.565379,0.63477945,-0.2460569,-0.27358037,-0.036075957,-0.17657496
4.420367,0.9340068000000001,-0.49263096,-0.34386477,0.067701325,-0.13772394
4.491082,0.8960444,-0.55574214,-0.47267008,0.20078267,-0.121213116
4.764777,0.36517322,-0.5664201999999999,-0.54986596,0.26200882,0.009180431999999999
5.7219887,0.28036103,-0.8286332000000001,-0.5360255,0.19600047,0.12948598
6.5542419999999995,0.11258494,-0.8072195,-0.43221334,0.15819664,0.19336502
7.1611814,0.035347994,-1.2453871,-0.41891393,0.046949357000000004,0.22104596
7.709751,-0.102433525,-1.7492516,-0.45085344,-0.062692225,0.18484782
8.844037,-0.3792703,-2.1780817999999997,-0.524838,-0.0052010813,0.11725122
10.370705000000001,0.51567274,-2.666777,-0.6451435000000001,-0.06323328,0.10128146
12.189407000000001,1.12629,-3.6719584000000003,-0.772378,-0.24848253,0.11990411599999999
13.58629,-0.8745731,-4.620655999999999,-0.6664365,0.01446878,0.037402406
12.706756,-3.0034685000000003,-5.716578,-0.51792645,0.15873769,-0.06426302
11.5568495,-2.0129490000000003,-3.861991,-0.17191494,0.17151349999999999,-0.028064894
15.92035,-1.431522,-0.71765715,-0.05427974,0.516984,-0.09300859
18.43454,-6.10712,1.5132792,0.20176005,0.64793605,-0.16753416
13.41339,-3.9236943999999996,1.0304644,0.8634493000000001,0.26040313,-0.30380946
10.310064,-0.43313023,2.2799504,0.8682315,0.08473573599999999,-0.4741536
8.486822,1.7415422999999999,2.6672747,0.564806,-0.15105824,-0.5891359
10.018766000000001,3.7475576,2.2154124,0.46259952,-0.25220007,-0.47202429999999995
12.332677,2.4573127999999995,1.1223538999999998,0.3156777,-0.13030629,-0.25642377
12.332677,-0.56882405,0.0057843914,0.17673203,0.06398377,0.009704031
11.052354,-1.576783,0.24154621,0.22626448,0.25190338,0.17900097
9.663342,-0.48934609999999995,0.3363566,0.23211133,0.17842501,0.23436281
8.495451,-0.22682668,0.099847786,0.18207274,0.029373892000000002,0.2742785
7.1919613,-0.7708467,-0.13041696,0.11393509,-0.028623400000000004,0.26736698
6.013899299999999,-1.3906671999999998,0.13228443,0.09583603,-0.07120943,0.23116885
5.2998433,-1.8156285,0.53338027,0.16345008,0.0959233,0.22958061
5.323057,-1.8298883000000001,0.44071504,0.26883307,0.23113395,0.18697712
5.717698,-1.5178281,0.16302599,0.39020327,0.21942279,0.045378562000000004
6.2396154,-1.3688321,-0.18624975,0.50145054,0.19919443,-0.12547173
6.613647,-1.1564378,-0.803293,0.5318193,0.07623598,-0.21542598
7.216842,-0.8031972,-1.6631466000000001,0.5131792000000001,-0.11753047,-0.20799088
7.999325,-0.42898348,-2.3008087,0.49879766,-0.212808,-0.19786797
8.523406,-0.43118617,-2.8072782000000003,0.48495720000000003,-0.1606401,-0.20212658
8.89194,-1.2443719,-2.6423464,0.46579346,0.0016929694,-0.14037684
9.838446000000001,-1.9343905,-2.1135919999999997,0.5179614,0.06930702,-0.030717794
10.4697,-1.2580764,-3.0739923,0.5062502000000001,-0.04033456,0.11245156
10.937717999999998,-0.51956093,-4.0240784,0.41043162,-0.19099139,0.22104596
11.060331,0.0025378538,-4.425768,0.33058283,-0.07227408,0.16835445
11.341333,-0.30665892,-2.3555593,0.28640854,0.14222687,0.032079153
14.397264000000002,1.0433165,-2.2322004,-0.136764,0.03843215,0.1433439
17.300320000000003,3.7919845999999997,-0.62677324,-0.49289843,-0.2905275,0.67245793
14.460443,-0.09321106,3.0862505000000002,-0.60681605,0.032567844,0.57983327
10.629135,-2.276675,4.0520334,-0.49024552,-0.5433908000000001,0.36531487
9.6190405,-4.647901999999999,3.4469225,-0.053738687,-0.5119749,0.25991443
11.721217,-4.969807,1.4280839,0.35187584,-0.2804046,0.2242399
14.423131,-2.257943,0.003974375,0.32473597,-0.31501448,0.24766222
14.71214,0.72376716,-0.5827869999999999,0.21240658,-0.037140608,0.11138691
12.382686999999999,1.3270773,-0.18875886,0.0047996556,0.15447909,-0.13185963
9.865375,0.8286523000000001,0.25145823,-0.136764,-0.012112585,-0.332014
7.730015299999999,0.6693996999999999,0.11321701,-0.22354177,-0.028099801,-0.38737583
6.274503,0.695755,-0.10516292,-0.27199212,-0.05736897,-0.36288884
5.066552,0.78059596,-0.29257146,-0.34012976,0.007557275699999999,-0.25483552
4.510915799999999,0.8789879999999999,-0.49668196,-0.39442694,0.11667526,-0.19254473
4.508215,0.65943015,-0.6808535,-0.48651052,0.20825268,-0.12227777
5.255186599999999,0.10938628,-0.5421909,-0.5557128,0.19174187,-0.0136833815
6.2356124,-0.077533826,-0.35409287,-0.51206213,0.20291197,0.045378562000000004
6.7846694,-0.11797669,-0.6009159000000001,-0.40985566,0.18748327,0.058695424
6.8446975000000005,-0.3534512,-1.0850233999999999,-0.36674604,0.10709339999999999,0.065083325
6.833013,-0.20684946,-1.7664421000000001,-0.45830600000000005,-0.07333873,0.13055062
7.7462860000000004,0.45316490000000004,-2.4920192,-0.54771924,-0.11911872,0.22052234
9.430158,1.0362775,-2.978253,-0.61533326,-0.097825706,0.25939083
11.171498,0.83929217,-3.9514287000000006,-0.7840716999999999,-0.19203858,0.24661502
13.277073999999999,-0.3641389,-3.8468597,-0.8271988000000001,-0.046722464000000005,0.08796459400000001
13.232341,-1.902337,-4.605017,-0.684012,0.13957398,-0.12601277
11.824866,-2.077583,-4.468222,-0.43860123,-0.022776546,-0.17870426
15.283520999999999,-1.4925452,-1.2642056000000002,-0.15114552,0.19973548,-0.37779397
19.769413,-6.701974000000001,0.16536272,0.033562682999999996,0.39189622,-0.5358859
13.208407999999999,-6.055194999999999,1.3567079,0.61751497,0.3791204,-0.32616714
10.159353999999999,-0.6945100000000001,2.4213805,0.9113585999999999,-0.15957545,-0.38044688
10.041081,1.5822034,2.3086328999999997,0.48656288,-0.23038346,-0.46509534
10.579346000000001,3.5912836,2.0027976,0.22146483,-0.28253388,-0.40866885
12.64782,2.897482,0.7493564,-0.015934857,-0.25113544,-0.27506390000000003
12.668583,0.3911934,0.013771448,-0.29593801,-0.013718287,-0.1691224
11.519855,-1.256027,0.25509740000000003,-0.30871382,0.15341444,-0.07808603
9.950197,-1.5368571000000002,0.38622305,-0.14051646,0.17842501,0.09115855
8.512546,-1.3833698,0.07369353,-0.086725414,0.12573352,0.26258478
7.579066,-1.1799775,-0.020446481000000002,-0.15488052,0.10869910599999999,0.3040887
6.3898660000000005,-1.2705263,0.35369065,-0.15273376,0.13905038,0.24342106
5.084997,-1.7710868000000002,0.91214293,-0.04309218,0.19015363,0.2258456
4.792828,-2.021434,1.0540138000000001,0.15332717,0.24603906,0.22797489999999998
5.1395183,-1.8100356,0.47045106,0.3588048,0.2343279,0.15557864
5.9073286,-1.6207691,-0.17479588,0.46207592,0.23858652,-0.0051661744
6.669441,-1.5317336000000001,-0.68862987,0.46314058,0.23912756,-0.14889404
7.423940700000001,-1.2756306,-1.1767118,0.434395,0.17418386,-0.23247786
7.778053,-0.8642973,-2.067968,0.47485173,0.006492625,-0.25377086
8.013316,-0.52865887,-2.9206197,0.4988151,-0.12763593,-0.23300146
8.625428,-0.7904217,-2.91224,0.51584953,-0.11857767,-0.21861994
9.527496000000001,-1.4693503,-2.3782563,0.5185024,-0.04511676,-0.17922786
10.49098,-1.6890421999999998,-2.3521693,0.53979546,-0.05152212,-0.055204764
10.99518,-0.71108747,-3.4620059999999997,0.47750464,-0.20003219,0.05708972
11.355345,0.8008029999999999,-4.6962843,0.30344296,-0.15957545,0.11086331
11.676234,1.2038428999999997,-3.6562717000000005,0.120322995,-0.0099832835,0.10288716
14.2394285,2.1665992999999997,-3.6585605,-0.45776495,0.13903293,0.26204374
16.610569,3.0244992,-2.3761494,-1.0199006,-0.045134213,0.7224965
13.552839,-0.56052095,1.8353279999999998,-1.1732103,0.18535396,0.64744735
9.522266,-2.3789172,4.2741003,-1.0236181,-0.4017748,0.4771032
8.84578,-4.3957734,3.9253127999999995,-0.5716826,-0.61418134,0.40044835
11.693348,-5.2309665999999995,1.7388129,-0.16605063,-0.31340876,0.4079009
15.100354000000001,-3.2451394000000002,0.15394717,-0.18147933,-0.2756224,0.35201547
15.406304,-0.67426467,-0.33339736,-0.25706956,0.032585297,0.13482669
12.767922,0.20757729,-0.053342815,-0.38589229999999997,0.19121827,-0.13238323
10.187375999999999,0.5273948,0.17153977,-0.5099328,-0.05258677,-0.3469191
8.225394,0.9551907,-0.022543802999999998,-0.5892581,-0.0919614,-0.41772709999999996
6.716492,0.97797394,-0.15384182,-0.6861413000000001,-0.088784896,-0.38685223
5.728155999999999,0.7032345,-0.34624946,-0.7622551,-0.0983493,-0.27717572
5.218536,0.6828838,-0.41679220000000006,-0.8016472,0.013421582,-0.20903808
4.9365760000000005,0.58808297,-0.55728394,-0.86020297,0.15819664,-0.13346533
4.8874083,0.19272366,-0.6694571,-0.948569,0.22581069,-0.043493606
5.3449406999999995,-0.08045476,-0.5816665,-0.977332,0.23539256,0.043249257
6.1394706,-0.008992621999999999,-0.64441377,-0.90545934,0.18907152,0.07679449
6.910969000000001,-0.21815008,-0.97127974,-0.8032354,0.14224434,0.08159414
7.164467,-0.56640106,-1.6329893,-0.77609557,0.031520646,0.1433439
7.5752063,-0.585344,-2.3302,-0.8250695,-0.07014478,0.21359339999999996
9.038791,-0.045748405,-2.4697533,-0.90333,-0.017453292,0.22478095
10.572852000000001,0.68992275,-3.2967966,-0.9970019,-0.07546803,0.18751818
12.341928,-0.08498458,-3.8662622000000004,-0.96932095,-0.012112585,0.10608111
13.132225,-1.782847,-4.700029,-0.8229402,0.08847074,-0.0376293
12.278663,-2.0372357,-4.6031113,-0.5621007,0.08847074,-0.12973033
14.085587,-1.5885049,-1.7730787000000001,-0.36514032,0.4163832,-0.25801203
20.076473,-6.67558,1.5526303,-0.0712967,0.59950316,-0.47413614
14.790372,-8.131953999999999,1.4728746000000001,0.40458477,0.43022367,-0.22607249
11.210600999999999,-1.5447389,2.9285011,0.90018845,-0.05311037,-0.43847907
9.651898,0.83687884,2.3616693,0.5435304,-0.25591764,-0.46455428
10.05899,3.6600928,2.3755558,0.22998203,-0.24155357,-0.2425833
12.567452000000001,4.493102599999999,0.89773947,-0.144234,-0.23516566,-0.07969173
12.614512,1.7207223000000003,-0.26428154,-0.49822170000000005,0.005969026,0.041119955
11.407758,-1.1882998,-0.67704195,-0.6227858000000001,0.12840387,0.18912388
10.101664,-2.0820267,-0.29922733,-0.5828526999999999,0.24816836,0.38767254
8.765182000000001,-1.6439548,-0.37331352,-0.5988225,0.33227578,0.44622833
7.271621700000001,-1.3120798999999999,-0.47466487,-0.7175398000000001,0.31737068,0.37383208
5.719939,-1.0325521,-0.1610819,-0.7771602,0.25349160000000004,0.25617942
4.674985400000001,-0.8276754999999999,0.6259784,-0.78567743,0.26413813,0.19922933
4.531256,-0.8434294,0.9132155999999999,-0.6302384,0.3493102,0.1518611
4.7692404,-1.4698483,0.57909036,-0.43593088,0.39137262,0.07414158400000001
5.5179453,-2.3724146,0.44803172,-0.25494024,0.31949997,-0.045081854000000005
6.815411,-2.6784892000000005,0.20693564,-0.06597344599999999,0.231675,-0.15741125
8.394444,-2.4217734,-0.45223597,0.08147197,0.13105677,-0.2255489
8.985793,-2.003037,-1.285217,0.18846065,-0.045657814000000005,-0.25481808
8.416519000000001,-1.3313582,-2.4248952999999998,0.2688505,-0.17287487,-0.22926645
8.112264999999999,-1.1731588,-2.7535232999999995,0.29972538,-0.26549947,-0.17870426
8.930391,-1.8528535,-2.2331965,0.37318629999999997,-0.09089675,-0.15634659
10.262784,-2.1787426,-2.2691095000000003,0.45197046,0.005969026,-0.09672615
11.317639999999999,-1.6057431999999998,-3.269675,0.4365242999999999,-0.17128661,0.020367993
11.57042,-0.9726684000000001,-4.481122,0.367322,-0.3235317,0.10128146
11.257545,-0.6221764,-4.0183134,0.27949703,-0.29159215,0.122050874
12.641978,0.36511576,-2.6483605,-0.034557517999999995,-0.14945254,0.16250761
15.969076000000001,3.0679684,-1.7788248,-0.47108182,-0.37676424,0.64531803
15.979879,2.3911371,1.7839102,-0.7457443,-0.071733035,0.9162804
11.659753,-0.48659757,3.7676019999999997,-0.84636253,-0.0073303827000000005,0.69802696
8.769012,-2.808389,3.7979797999999994,-0.7116929,-0.54710835,0.5415059
10.248992999999999,-4.8523765,2.6842449,-0.39707986,-0.16648696,0.39566615
13.973212,-4.3417125,0.62959844,-0.34117696,-0.22823670000000001,0.33337533
16.29825,-1.6449889,-0.13757083,-0.37739253,-0.21600194,0.033143803
13.786292000000001,-0.34374990000000005,-0.7270042,-0.40933207,0.07621853,-0.34372514
10.165732,0.27725816,-0.22543803,-0.4779933,0.09485865,-0.48106509999999997
7.720228,0.9729078000000001,0.17745824,-0.48649308,0.02300344,-0.47359508
6.058642,0.8985247,0.15349706,-0.45402995,-0.044593163,-0.37938222
5.210051,0.1462091,0.016175225,-0.4284958,-0.121789075,-0.18509217
4.758926,-0.19314504,-0.27276659999999997,-0.4252844,-0.09250245,-0.08288568
4.5373282,0.06820602,-0.38198054,-0.40666172,0.15502015,-0.06956882
4.5446258,0.33000717,-0.42028776,-0.45563567,0.27639034,-0.06743952
5.4157796,0.31679120000000005,-0.18551233,-0.46680576,0.29607764,-0.010489428
6.5638766,0.19676508,-0.2792118,-0.39920917,0.22635175,0.07840019
7.4340634,0.06897216,-0.66655535,-0.30658454,0.06665412,0.16835445
7.6037550000000005,-0.048784252,-1.4992393999999998,-0.29700267,-0.13402383,0.21306979999999998
7.909034700000001,-0.010572795,-2.5772049999999997,-0.40666172,-0.24261822,0.24022712
9.235671,0.6325289000000001,-2.81606,-0.588717,-0.19257963,0.27056095
10.854822,1.6604747,-3.6142485,-0.7596022,-0.18779743,0.24820328
12.423072,1.2203342,-4.3219557,-0.8894721,-0.1590344,0.09969321
13.029648,-0.8321478999999999,-4.505408999999999,-0.87509066,0.027803095,-0.10841985
12.077003999999999,-1.8269866000000001,-3.7278485,-0.6265034,0.2231578,-0.24790657
14.586414999999999,-2.0445526000000003,-0.67385286,-0.30551988,0.6043028,-0.37034142
20.296902,-7.860317,1.5996045,-0.060650192,0.59098595,-0.6125581999999999
12.17715,-7.674498599999999,0.76389396,0.8064992,0.23593360000000002,-0.19200367
9.783005000000001,0.21973984,0.83772165,1.2030729,-0.35173622,-0.22607249
11.064553,2.3968258,1.4504457,0.5893104,-0.31607914,-0.33414328
12.4833765,2.920514,2.4445853,0.20762436,-0.08344419,-0.26652923
13.897785,2.0107942,0.8608304,0.022916173999999997,0.0373675,-0.086079635
12.509530999999999,-0.06439444400000001,-8.6191256e-05,-0.25813420000000004,0.16193165,-0.0035604715999999997
11.179294,-0.7652635,0.42737457,-0.25494024,0.20238838,0.007592181999999999
10.198438000000001,-1.0354155999999999,0.47551718,-0.18414968,0.20080014,0.18858282
8.946997999999999,-1.0289513000000001,-0.016280571,-0.24750514,0.18802431,0.39193115
7.4800699999999996,-0.68948215,-0.13920847,-0.40346777,0.14756759,0.3946015
5.858956299999999,-0.5840989999999999,0.24399787,-0.5221676,0.06611307,0.3296578
4.925830400000001,-1.0459405000000002,0.8173996,-0.5413313,0.043231804000000006,0.27536058
4.4631658,-1.7283933,1.0238756,-0.39175659999999995,0.21675244,0.21413444
4.303491,-2.0461328,0.9600556999999998,-0.21076596,0.3509159,0.11459832
4.9610734,-2.010938,1.1258111000000002,-0.0058119465,0.386573,-0.10204939999999998
5.955107,-2.095549,0.82531965,0.22252949,0.39776054,-0.31976178
6.82878,-2.4395,-0.415892,0.40936697,0.19013616,-0.3527834
7.842782000000001,-2.2885218,-2.2316356,0.5382071999999999,-0.23942427,-0.24471262
8.957245,-0.8985629999999999,-3.8975690000000003,0.5877047,-0.49494046,-0.15262905
9.517258,-0.08205408,-3.9054407999999996,0.5520301999999999,-0.3320489,-0.14837044
9.759886999999999,-1.4949396000000001,-2.4504368,0.47059312,0.14969689,-0.12653637
10.627718,-1.9386522000000002,-2.1806006,0.35082862,0.21835814,-0.10311405
11.073652000000001,-0.9105053,-3.60901,0.2608569,-0.24314182,-0.08234464
10.526836,-0.2928779,-4.7382975,0.22359413,-0.32618457,-0.02539454
10.944939999999999,-0.3120794,-2.6148322,0.17463765,-0.070668384,0.05497787
14.222736,2.324023,-2.1069167,-0.3938859,-0.26923448,0.42334706
17.33107,4.8491683,-1.175553,-0.8985304000000001,-0.35493016,1.0152929
14.022848999999999,-0.7478241,3.0095692,-0.9006597,0.11030481,0.7645589
10.638531,-3.845969,4.3597746,-0.8426275,-0.38634607,0.42921138
10.391658999999999,-4.8391223,3.5832387999999997,-0.426349,-0.3405661,0.23116885
12.431624000000001,-4.135294,1.8777723000000002,-0.08566076,-0.19842649,0.33656928
14.433952,-1.5772617,0.3811186,-0.04626868,-0.18619172,0.38767254
14.975807999999999,0.14721468,0.15823758,-0.12557644,0.074630275,0.12789772
12.578915,-0.07156747599999999,0.3665044,-0.24483478,0.15714945,-0.17390461
9.970174,0.13295479999999998,0.60683435,-0.30232593,0.05120796,-0.34585443
7.720027,0.5341081,0.39903679999999997,-0.28475046,0.05014331,-0.3889641
5.888204,0.352369,0.46085509999999996,-0.26771605,0.049619712,-0.29740409999999995
5.199957,0.22810039,0.32292992,-0.22727677,0.042690754000000004,-0.17444566
4.85931,0.38309142,-0.15296075,-0.24057618,0.06824237,-0.08873254
4.8284535,0.41752005,-0.27275705,-0.24429373,0.15395549,-0.03817035
5.0438747,0.19762698,-0.5544971,-0.2794272,0.19228293,-0.001972222
5.824815,0.121615864,-0.88453305,-0.31349605,0.13744467,0.07892379
6.8665133,0.28934404,-0.8396370000000001,-0.30180234,0.16245525,0.12735668
7.151269999999999,0.16453913,-1.0033333,-0.25654593,0.15873769,0.15079644
7.0387807,0.116348624,-1.4648683999999998,-0.27570966,0.025132742000000003,0.18113028
7.462717,0.47149494,-2.046056,-0.32574826,-0.08344419,0.17154841
8.786538,0.8220826999999999,-2.8657062,-0.45724136,-0.11007792,0.1529083
10.53849,1.0301293,-3.68663,-0.6472728,-0.21013764,0.19551179
13.023634,0.04981855,-3.8765574000000003,-0.75054395,-0.14199999,0.18219492
14.135491,-1.5077724,-4.604787,-0.7106108,0.16353735,0.008133234
12.276442,-1.7026414,-4.7682347,-0.6046868000000001,0.18589501,-0.096185096
13.395856,-0.7712777,-1.6629453999999997,-0.40240312,0.33759904,-0.20265017
20.098882999999997,-4.8510165,1.062949,-0.14104006,0.49890235,-0.55133206
13.882664000000002,-8.091425,0.3173179,0.47537532,0.407866,-0.27719320000000003
9.62471,-1.1494753,2.195799,0.9416924000000001,-0.2037672,-0.24151866
9.819081,1.9656491000000003,1.8988031000000003,0.7489906,-0.29424506,-0.37620570000000003
10.9717455,2.867775,2.6405267999999995,0.26457447,-0.037681658,-0.3421369
12.617386,2.7726674,1.6416563000000002,0.11126474,0.009145525,-0.19308577
12.934866,0.47718355,0.5628576999999999,-0.07023205,0.18428932,-0.10684906
11.493383999999999,-1.1642716,0.55461204,-0.15700983,0.32056463,-0.07969173
10.367525,-1.3633255,1.1516110000000002,0.015969763,0.26892033,0.05708972
9.297096,-0.69296813,0.7823964,0.080389865,0.09857619599999999,0.26789057
7.957464,-0.2583248,0.1689253,-0.005305801,-0.07707374,0.36850882
6.702903,-0.29191065,-0.083212875,-0.112818085,-0.088784896,0.330705
5.387327,-1.0887296999999998,0.20133321,-0.15327482,0.0352382,0.26256734
5.0158815,-2.0121446,0.7245524999999999,-0.0755553,0.27743754,0.217852
5.026942299999999,-2.2617545,0.7984854,0.106482536,0.38177332,0.13535029
5.4487147,-2.0350043999999996,0.64648235,0.3029019,0.40041342,-0.065327674
5.7927613,-1.6923271,0.2702,0.44875905,0.35302776,-0.26867598
6.286149,-1.3076938,-0.37439570000000005,0.5467069,0.16831955,-0.3229732
7.1886864,-0.9825038,-1.2215886999999999,0.5908812,-0.012653636999999999,-0.2793225
8.228383000000001,-0.8954027,-2.1603553,0.6260321999999999,-0.12711233,-0.23993040000000002
8.737993,-1.0475589,-2.9326863,0.6702064,-0.15531684,-0.22448425
8.813019,-2.0402524,-3.1105563999999997,0.6750060999999999,-0.0951728,-0.16379915
9.390586,-2.1286464,-3.0552599999999996,0.63720226,-0.044593163,-0.016877335
10.644295,-0.50955313,-3.7598925000000003,0.36091664,-0.34376004,0.18697712
11.7186985,1.411516,-4.098998,0.19057249999999998,-0.2820103,0.26682594
11.236697,0.6813515,-2.7054669999999996,0.22465879,0.14116223,0.1614255
13.206503,0.35037705,-0.5720514,0.027157322999999997,0.49675559999999996,0.13852678
16.508863,3.5160098,-0.8014638000000001,-0.51101494,-0.32300809999999996,0.75124204
16.416342,1.2276412,1.6949798999999999,-0.8399745999999999,-0.105819315,1.0908657
11.611658,-2.964922,4.6589537000000005,-0.6706951,-0.24155357,0.5686631999999999
9.627842,-5.2592854,5.517725,-0.302867,-0.53380895,0.24553291
12.152001,-5.0663032999999995,3.0509696,0.14479251,-0.43640209999999996,0.20081758
15.1803875,-2.9062542999999996,1.2477525,0.32684782,-0.39701006,0.25937337
15.62094,-0.41206127,0.30347943,0.35294047,-0.1452114,0.13161528
13.321444,0.36977008,0.24092372,0.19802506,0.23219859999999998,-0.101525806
10.948856,0.31842884,0.50472647,0.066549405,0.12838642,-0.3155206
8.466586999999999,0.31771058,0.45451525,0.017575465,0.06291912,-0.3416133
6.566826299999999,0.62281805,0.17085981,-0.0005061455,-0.05311037,-0.29955086
5.443524,1.0681875,0.17283262,-0.059602994000000006,-0.09730211,-0.25590017
4.6615486,1.3165619,-0.37575558,-0.18203785,0.0016929694,-0.21650809
4.205281299999999,1.3774321000000003,-0.6956591999999999,-0.36568138,0.0400204,-0.14784685
4.259888,0.9221412,-0.55263925,-0.48279297,0.15447909,-0.07278023
4.945425,0.21043119,-0.38378096,-0.5317669,0.17416641,0.06932448
6.094843,-0.075829156,-0.27807218,-0.4604353,0.18216002,0.12255702
6.9370656,-0.31663796,-0.30301017,-0.36995745,0.13796827,0.118822016
7.053337599999999,-0.37093845,-0.75109935,-0.3837979,-0.010000736,0.11990411599999999
7.265664599999999,-0.023807941000000003,-1.6664792000000002,-0.46629962,-0.15479325,0.15929620000000003
8.341102000000001,0.5099170999999999,-2.2981078999999998,-0.5291140000000001,-0.17502162,0.16088445
10.228288000000001,0.9691440999999998,-3.386943,-0.6675186,-0.2767045,0.08316494
12.818307,0.16768987,-3.1572718999999996,-0.6797708,-0.16491616,-0.02115339
13.893811,-1.4907353,-4.3404865,-0.5701118000000001,0.020315632,-0.07970919
12.201464999999999,-1.7698226000000001,-5.537511,-0.47588146,-0.06429793,0.012897983
13.362720000000001,-0.7910059,-2.3682485,-0.44820055,0.15926129,0.0011868239
19.97201,-4.159485,1.1677191999999998,-0.3630285,0.34876913,-0.3480012
15.432651000000002,-7.962205,1.6837175,0.18524924,0.3844262,-0.2878397
11.634125,-2.3208625,2.8809139999999998,0.6643420999999999,0.15446164,-0.44701374
8.1522665,0.59401107,2.5316672000000002,0.52539647,-0.576936,-0.53325045
8.863689,3.5915036,2.350043,0.36623988,-0.506128,-0.45766023
12.615642999999999,4.1070995,1.4528016000000001,0.06227334599999999,-0.32407275,-0.33841935
14.001589000000001,1.1540626,0.35668817,-0.16447982,0.011798426,-0.18139207
12.653471000000001,-1.7792366000000002,0.042568903,-0.2022662,0.22792254,-0.016894788
10.597972,-2.046621,0.8678598,-0.055361845,0.23909265,0.11616912
8.948128,-1.612897,1.0903288999999998,0.12028809,0.07194247,0.18748327
7.5319476,-1.426676,0.6366278000000001,0.17406169,0.010192723,0.23380429999999996
6.180124,-1.3805829,0.6620255,0.124023095,-0.041416664,0.20772909
5.007339,-1.6871651,0.82635397,0.1969604,0.04108505,0.17791887
4.4823474999999995,-2.042934,0.74745065,0.33747685,0.12784536,0.21783455
5.0308304,-1.9930964,0.42789173,0.48281044,0.14542083,0.18430677
5.897139,-1.5799146000000002,0.16865715,0.5882109000000001,0.16563174,0.027262043
6.726787599999999,-1.5599566,-0.0027006594,0.6659304,0.19385372,-0.13613568
7.282825999999999,-1.43926,-0.8801948,0.684553,0.13103932,-0.21066125
7.918342999999999,-1.1321510000000001,-2.0414016,0.6776415,-0.046739917,-0.23781857
8.314622,-0.5836489,-3.1970065,0.65315455,-0.25382322,-0.25431192
8.783655,-0.326617,-3.5951428,0.620674,-0.30970868,-0.26708773
9.264249000000001,-0.87272483,-3.030092,0.63824946,-0.030770155,-0.2202431
10.11375,-1.2502138999999999,-2.1270566000000004,0.6440963000000001,0.2316401,-0.115383714
10.388163,-0.8899918,-2.736534,0.53496087,0.19491836,0.0006457718
10.327954,-0.3165805,-3.8888826,0.40720278,-0.094125606,0.14117968
10.806258,0.7586459,-2.9374654,0.34918803,-0.10423106,0.17044885
13.2564945,2.1078837000000004,-2.5172252999999998,-0.045256387,0.08897688,0.17151349999999999
16.266542,4.386359,-2.3809476000000003,-0.5935341,-0.46994734,0.72460836
14.888898999999999,0.5165442,1.0579786,-0.829363,-0.18195057,0.9040107
11.425217,-2.8413906000000004,3.6074777,-0.7936885,-0.35868259999999996,0.56171674
9.789316,-4.667611,4.643276,-0.40615556,-0.56309557,0.31258845
11.349838,-5.718053,2.299123,0.17884389,-0.35283577,0.23912756
14.232495000000002,-3.8062922999999995,0.36292267,0.30127874,-0.45450118,0.26309094
15.337764000000002,-0.5782093,-0.22275653,0.20811306,-0.26925194,0.16140805
13.499888,1.4209204,-0.32395464,0.05215044,0.08684758,-0.023823743999999997
11.362900999999999,1.6947596,0.07182605,-0.14213961,0.012322023999999999,-0.279881
9.119342,1.5644385,0.07126102,-0.27574456,0.03947935,-0.41294490000000006
7.386475999999999,1.0039271,0.15789281,-0.38168606,0.09430013599999999,-0.39538687
6.2720613,0.5148587,0.14309666,-0.43385395,0.09484119,-0.31660274
5.5448656,0.30057767,-0.35579753,-0.46153486,0.16936675,-0.23090705
5.3909283,0.19318335,-0.49736187,-0.52382565,0.19491836,-0.1414764
5.6924253,0.11984416,-0.43358994,-0.5749115,0.25399777,-0.10740756
6.031109,-0.10216537,-0.37900212,-0.5908812,0.29658379999999995,-0.060021874
6.231427,0.035606567,-0.5847119000000001,-0.539778,0.263056,0.015009831999999999
6.1167545,0.087254286,-0.5697338000000001,-0.43544218,0.21247639,0.10072295
6.062818,-0.21005768,-0.6528988,-0.34655258,0.08578293,0.18163641
6.4301075999999995,-0.40661207,-1.4261589,-0.33644712,-0.12126548,0.231675
7.862500999999999,-0.021902157000000002,-2.0817199,-0.37156314,-0.17875662,0.21942279
10.063768,0.81466067,-2.423861,-0.50731486,-0.16758652,0.16406095
12.267966,0.98647815,-2.8730326,-0.5972866,-0.12925908,0.07304203
13.426463,-0.56959975,-3.7278297,-0.61004496,0.0426733,-0.011588986
12.392235000000001,-1.9924451,-4.924930000000001,-0.5701293000000001,0.08471828,-0.06534512
11.336267,-1.6763914,-3.1026173,-0.3588048,0.14805628,-0.058433622000000005
15.5639105,-2.1814622999999997,-0.27807218,-0.17194983,0.3098832,-0.18619172
19.374866,-7.436572,0.9490711,0.17404424,0.40997785,-0.41509166
12.546747,-3.6321762000000004,-0.460405,1.0156595,-0.10264281,-0.3368311
9.708364,0.9300898999999999,-0.007929596,1.1269068000000002,-0.6179338000000001,-0.34376004
9.726569,2.7023737,0.5746372,0.59351665,-0.382646,-0.48642325
11.382227,3.1326118,2.2740989,0.12772319,0.19011872,-0.46141270000000006
12.715855,2.0457497,1.7087226999999998,0.04574508,0.3072303,-0.23783602
11.536547,-0.36190754,0.80793774,-0.0005410521,0.35885715,-0.0850499
10.053636000000001,-1.7069508999999998,0.8351646,0.08726646,0.26038566,-0.030229102999999997
9.3389,-1.696991,1.1658614,0.320425,0.18479545,0.11773991
8.607988,-1.3107103999999998,0.6572946,0.4386187,0.037873644,0.31471777
7.961678,-1.0795742,0.12813768,0.41198498,-0.058468528,0.38070866
7.201778,-1.2817311000000002,-0.0036104560999999998,0.36620498,-0.11116002,0.30459487
6.401339,-1.9744119999999998,0.27221116,0.3805865,-0.058468528,0.20984094
6.0942492,-2.1664748,0.45926535,0.46202356,0.11719886,0.16992526
6.0216856,-1.6605034,0.15557523,0.5503895999999999,0.19224802,0.12041026
6.201700700000001,-0.9446753000000001,-0.14474384,0.5988225,0.20395918,-0.029164452
6.402239,-0.50805914,-0.59596467,0.5791352,0.13580407,-0.18034486
6.6685605,-0.41164947,-1.3915389,0.5195147,-0.019600047,-0.25167647
7.4667106,-0.56031984,-2.4385998,0.42901940000000005,-0.21656045,-0.26764625
8.37556,-0.7243418,-3.0921307000000002,0.3997502,-0.24530603,-0.27829275
9.082777,-0.91157794,-3.235189,0.39547417,-0.15694001,-0.2820103
9.582189,-1.6099762,-2.6507452000000002,0.43380159999999995,0.013910273999999999,-0.2096315
10.057505,-1.7066921999999998,-2.342238,0.47640508,0.09375909,-0.08452629
10.207094999999999,-1.0889788,-3.5439260000000004,0.37152824,-0.09040806,0.05227261
10.502778,-0.64635783,-4.008708,0.1995784,-0.19315559,0.21036454
10.807043,0.2663023,-3.6387748999999996,0.12931144,-0.018011797,0.25560346
12.473658,1.3722893999999999,-2.747768,-0.119258344,0.18479545,0.27052602
15.646606,3.7858746,-3.1994102000000004,-0.54459506,-0.30066788,0.6804166
15.393510000000001,1.0104775,0.006540959,-0.8538674,0.016580628,0.91996306
12.117084,-2.315538,3.9504135000000002,-0.8400270000000001,0.03626794,0.5286951
10.909725,-3.3653858,5.228333,-0.572276,-0.48698178,0.40573668
11.2958145,-4.112961,3.5841296000000002,-0.039950587,-0.3533768,0.31204742
12.497167999999999,-3.6835942000000004,1.3767617,0.30710813,-0.24211207,0.35037485
13.505232999999999,-1.7064146,-0.020130448000000002,0.22884756,-0.21870720000000002,0.31363568
14.004739,0.044206537000000004,0.22619459,0.078731805,0.056496307,0.057054814
12.120550999999999,0.33436462,0.5351902,-0.034627332999999996,0.121963605,-0.27403414
9.472199,0.24961947,0.45841303,-0.09583603,-0.03291691,-0.44970155
7.4950676,0.37338054,0.6120729,-0.12299335,-0.057403877,-0.48431140000000006
6.160606400000001,0.6985515,0.5028207,-0.10115928,-0.041434117,-0.43692570000000003
5.1689663,0.79905045,0.040557776000000004,-0.048991393,0.028291788,-0.33311355
4.8374653,0.63990307,-0.46903370000000005,-0.07401941,0.039461896,-0.22451915
5.2363777,0.31399477,-0.510281,-0.11819369,0.12569861,-0.10901327
5.907453,-0.009653421,-0.55780107,-0.1719673,0.19809487,-0.004694935999999999
6.760803999999999,-0.06924031,-0.49187437,-0.14535102,0.21886429,0.032567844
7.2258252999999995,-0.23789746,-0.79594755,-0.05804965,0.18638371,0.028309241000000002
7.536707400000001,-0.15329595,-1.0647207,-0.013857913999999999,0.093235485,0.062378067999999995
7.6818347000000005,0.24495557,-1.8474903999999999,-0.035168383,-0.11650073,0.11452851
8.289655999999999,0.49040909999999993,-2.6435914,-0.07401941,-0.13725269,0.17523105
9.580867,0.8356051,-3.1995728,-0.21881193,-0.09201376,0.20291197
11.054594999999999,1.0524241,-4.0121746,-0.47378707,-0.22935371,0.20504127
12.785975,0.24542484,-3.8248233999999997,-0.5605649,-0.051557027000000005,0.08206538
12.465342999999999,-0.5752309,-4.5759419999999995,-0.5350132,0.09004153,-0.047787115
11.221796000000001,-0.92165273,-4.513808,-0.49029788,-0.05688028,-0.10049606
12.937700999999999,-0.8882201,-1.648609,-0.39873790000000003,0.12250466,-0.22399555
17.958714999999998,-4.520942,0.26407087,-0.21347122,0.10388199999999999,-0.4747121
14.611497,-6.5560136,0.47271118,0.32147220000000004,0.28059658,-0.36774087
12.297482,-1.9620962,2.7227342,0.66535443,0.14006267,-0.5428672
8.727909,-0.2735902,2.2783606,0.66057223,-0.24478243,-0.48909359999999996
8.816964,2.8207335,2.0806186,0.55623645,-0.2671401,-0.36772340000000003
11.42966,4.353128,1.1376193,0.18252653,-0.35604715,-0.27405159999999995
12.33032,2.3003299999999998,0.36402399999999996,-0.10117674,0.017627826,-0.16652186
11.466808,-0.84488505,-0.63051784,-0.23745205,0.22469369,0.043196898
10.442675,-2.0496092,-0.28295633,-0.25609216,0.34606388,0.26197392
9.102899,-1.5927857,0.20298043,-0.1922131,0.3694862,0.3530103
7.919511999999999,-1.1344493999999998,0.299869,-0.16290903,0.31573007,0.32960543
6.4836802,-1.1674893999999998,-0.041180268,-0.13898057,0.17041394,0.23057544
5.563847,-1.6053888,0.11801499,-0.121946156,0.16242033,0.17362535
5.4436483,-1.8073158,0.19816329,-0.049532442999999995,0.22684044,0.17523105
5.736421,-1.7722838,0.12415372599999999,0.069673546,0.22629939,0.15446164
6.5289019999999995,-1.7548636000000002,0.14618996,0.21820106,0.27794367,0.02724459
6.8362217,-1.6610013,-0.12018893,0.37896335,0.21298252,-0.12712978
6.6882887,-1.2068596,-1.3298929,0.41092032,-0.049427725,-0.2506118
7.15828,-0.7494809,-2.5115366000000003,0.36034068,-0.27406904,-0.29319787
8.666234,-0.63776743,-2.8468304,0.32627186,-0.30014428,-0.32567844
10.093772999999999,-1.341452,-2.5838032,0.31773720000000005,-0.0808262,-0.37039378
9.763085,-2.2673664000000002,-2.3483672,0.4140968,0.2390752,-0.26925194
9.621608,-2.0066186999999998,-2.728279,0.42102578,0.14219198,-0.03874631
10.484017,-0.7750127,-3.2615060000000002,0.2522699,-0.18357372,0.14008012
11.435378,0.3046382,-3.313901,0.1894555,0.058608155999999995,0.19917697
11.236697,-0.057575762,-2.4012597,0.20966639999999998,0.27366763,0.16776104
12.943802,0.20982784,-2.0127382,-0.0010995574,0.08948303,0.21886429
16.047903,2.2005684,-1.9531323,-0.35882223,-0.21338396,0.66336477
15.810839000000001,-0.12447933,0.25388116,-0.6202026999999999,-0.11437143,0.8933293
12.348555000000001,-2.2368452999999997,3.167864,-0.55791193,-0.20273745,0.43446480000000004
9.636288,-2.9006617,4.607191,-0.16559684,-0.39810959999999995,0.16723745
9.909839999999999,-3.2918644,2.7685974,0.22139502,-0.28632125,0.18427186
11.993083,-1.9265758000000002,0.7415896,0.34170055,-0.28206265,0.35833356
14.356563000000001,0.0068761474,0.09691728,0.16231562,-0.16973327,0.30457740000000005
14.030270999999999,0.5841565,0.18408537,-0.009093165,0.15709709,0.0048694685
11.72725,0.08165186,0.5873456,-0.11023499999999999,0.15603243,-0.32409018
9.261691,0.11605174,0.7987344,-0.13737486,0.031991884,-0.45504224
7.291148700000001,0.4762929,0.76890266,-0.105976395,0.08415978,-0.44704863
6.11256,0.77251315,0.7716321,-0.060196407,0.107058495,-0.38955748
5.3343387,0.7262188,0.09316318,-0.05487315,0.080965824,-0.30386183
5.023294,0.5344145,-0.29834625,-0.09639453,0.08522443,-0.21017255
5.0631523000000005,0.41997170000000006,-0.27215368,-0.13578662,0.18636626,-0.122871175
5.2835913,0.41748175,-0.42446320000000004,-0.18688986,0.24333379999999996,-0.0057595866
5.873312,0.6485318,-0.33438379999999995,-0.16399114,0.30827752,0.10016444
6.6339784,0.80972856,-0.4969022,-0.1166229,0.29869565,0.16402604
7.336888,0.69717234,-0.8578041,-0.19168949999999998,0.15283848,0.21141173
7.693164,0.49755340000000003,-1.5269549,-0.3247534,-0.068050385,0.23804545
7.959083000000001,0.3705458,-2.1520712000000004,-0.4179191,-0.1452463,0.27742007
9.025872,0.5597930999999999,-2.9201887,-0.530231,-0.19263199,0.21727604
11.271069,0.10949163,-3.6621134,-0.66970026,-0.30335566,0.050125855999999996
13.361494,-0.9778398000000001,-3.6006303,-0.63084924,-0.06539748599999999,-0.104248516
13.349484,-1.367501,-4.486121,-0.48766243,0.15390313,-0.14896385
11.866995,-0.8179359,-3.6871567,-0.29653144,0.27314404,-0.03609341
14.802342999999999,-0.18563682,-0.07581001,-0.22095868,0.55421185,-0.0850848
19.532175,-5.4089613,1.1290288999999998,-0.08733627,0.2454631,-0.32461378
13.818519,-5.5500370000000006,0.23030305,0.7132461999999999,0.22256438,-0.23839453
9.311989,-1.0842286,1.0138486999999998,0.9091594999999999,-0.16706291,-0.2532822
8.600518,1.7774936000000001,1.7767562,0.6004107,-0.31506684,-0.37784633
9.891491,3.643726,2.4410130000000003,0.26289895,-0.13459979,-0.40765655
12.329718,2.794292,1.5891274,0.12503539,0.029338984,-0.2570172
12.435578999999999,-0.19535728,0.47032657,-0.030386182,0.2390752,-0.11276572
11.124361,-1.6695056000000001,0.6230574999999999,-0.042638395,0.32422979999999996,-0.017470745
9.815891,-1.1384524999999999,1.0948876,0.037192967,0.2912431,0.09162979
8.727258,-0.41612184,1.1065521,0.10054842,0.12728687,0.22577579999999997
7.496696000000001,-0.5086625,0.8117206,0.13887584,-0.04783947400000001,0.28061405
6.2254510000000005,-1.6040288999999999,0.72497386,0.18997909,-0.11384783,0.2987131
5.450457599999999,-2.5841863,0.49782157,0.25598744,-0.053162728,0.28593728
5.917873,-2.7008509999999997,0.40325059999999996,0.35552356,0.044244096,0.21247639
6.704089999999999,-1.9122298,0.34105882,0.48754027,0.13313371,0.051173054
7.1094574999999995,-1.1105264,0.2517551,0.665878,0.27473226,-0.12341223
7.0023694,-0.62794167,-0.5626278,0.7659552,0.22842869,-0.19526744
7.2649083,-0.25405353,-1.3693492,0.6924943,0.014433873,-0.16704546
7.704302,-0.018732235,-2.2100205,0.63126814,-0.08084365,-0.12447688
8.092018,-0.12823345,-2.9904728,0.5966756999999999,-0.10053097,-0.14735815
8.169141,-0.74785286,-2.8735017999999997,0.5391670999999999,-0.054768432,-0.19526744
8.76207,-1.4607311,-2.0173638,0.52480304,-0.013770646999999999,-0.18942058
9.762377,-1.2597428999999998,-2.0133033,0.51202726,-0.0776497,-0.12925908
10.268932000000001,-0.42268196,-3.2325459,0.42633158,-0.3336895,-0.03609341
10.877069,0.520193,-2.8199577000000002,0.38322195,-0.39065704,0.052255157
12.580199,1.9046066000000001,-1.0180528,0.15165167,-0.19741419,0.19491836
16.488626,5.183303400000001,-3.1980405,-0.5126729999999999,-0.8335518,0.9364389999999999
16.30392,2.5287366000000002,-0.35838327,-0.91139346,-0.3289073,1.0455569
11.368675,-3.0801404,3.8638394,-0.8416676,0.118752204,0.47223374
9.179839,-6.0721264,4.9085827,-0.5861339,-0.41247365,0.18957767
12.0124855,-5.518855,2.8068566,-0.005375614,-0.39437459999999996,0.12463396
15.531386999999999,-3.0668669,1.2158043,0.27515116,-0.40769145,0.22896974
16.211742,-0.6328354,-0.07217082,0.35072392,-0.16975072,0.18905406
13.994319,-0.057240575999999994,-0.54924905,0.16495107,0.29443705,-0.13990559
11.099615,0.1756578,0.17308164,0.045710173,0.25769785,-0.41619122
8.136906,0.5866081999999999,0.5784391999999999,0.060091686,0.14325662,-0.45877725
6.016897,0.6335153,0.7529094,0.07658505,0.06445501,-0.40819759999999994
4.852424,0.8527189000000001,0.1364695,0.052098077,0.018151425,-0.3432539
4.2497463,1.4278349,-0.380793,-0.021345377000000002,0.06764896,-0.36402333
4.247639700000001,1.481714,-0.8439848,-0.1895602,0.13206907,-0.28150415
4.9969954,0.94931054,-0.90417504,-0.38864990000000005,0.11023499999999999,-0.10477211
5.974002400000001,0.5199823,-0.4257178,-0.43547709999999995,0.23162265,0.02883284
6.6187224,0.1963054,-0.24281037,-0.37320375,0.22149974,0.10175269999999999
6.982335000000001,-0.20390937,-0.6824528,-0.31464794,-0.03345796,0.13955653
6.8902826,-0.59745866,-2.3044957999999998,-0.2922903,-0.30548498,0.16776104
7.746583,-0.3618405,-3.09215,-0.28591985,-0.28206265,0.18531907
9.483845,0.9902418,-3.538994,-0.4285656,-0.33742452,0.17467254
12.162975,1.7478151000000002,-2.9705627,-0.49352676,-0.26183429999999996,0.12782791
13.319901000000002,0.41871715,-3.3899120000000003,-0.39929643,0.10012954,0.010716322
12.149500999999999,-0.7128591999999999,-4.0891433,-0.32531193,0.06925467,-0.09625491
12.973796,-1.0310295,-1.861128,-0.34554029999999997,0.23853415,-0.23413591
19.033472,-5.4899716,1.3166002,-0.42697734,0.21882938,-0.5780181
14.263964000000001,-7.804772,1.1788954,0.29003882,0.33700562,-0.4470661
12.095841,-1.2535273999999998,1.9346396000000001,0.73773324,0.08415978,-0.5780181
9.505163,0.84319955,1.6467223999999998,0.6062401,-0.59932864,-0.453454
11.199243,2.9960465,1.4209874,0.2229658,-0.42420226,-0.2777866
13.284525,3.7118937999999995,0.90480715,-0.22949335,-0.2639636,-0.11383037
12.529126,1.6260077,0.17089811,-0.41846013,0.14484487,-0.058468528
10.986713,-0.19116265,-0.14826813,-0.58880424,0.29761353,-0.025464353999999998
9.874761,-1.3311282,-0.16163735,-0.6489483,0.27101472,0.16989034
8.953127,-1.5985606,-0.036669593,-0.60850906,0.3588397,0.37269762
7.466117,-1.4783046999999998,0.0060621183,-0.63671356,0.23905775,0.42540655
5.9097514,-1.4965389,0.39646065,-0.61224407,0.005375614,0.36789796
5.2025809999999995,-1.4380437,0.80335045,-0.5137377000000001,0.0048520155,0.27794367
5.359947,-1.4752113000000002,0.7409001000000001,-0.3497989,0.086812675,0.15976743
5.408358,-1.7604758000000003,0.25618914,-0.18423696,0.2587625,-0.0094945915
5.4107137000000005,-2.336262,0.19691831,-0.041573743999999996,0.40674898,-0.117024325
6.2005706,-2.536561,0.07441179,0.13992305,0.32477087,-0.16226326
7.5704082999999995,-2.0760698,-0.53474015,0.31613147,0.13206907,-0.16919221
8.573167,-1.346365,-1.4540945,0.44760713,-0.022828907000000002,-0.16653931
9.396983,-0.82919824,-2.2141387000000003,0.5136155,-0.035063665,-0.16599827
10.232904,-1.0947152,-2.4130776000000003,0.48167595,0.06710791,-0.18676768
10.584632000000001,-2.4058185,-2.0127382,0.49658108,0.23212878,-0.20060815
10.084559,-2.8127560000000003,-2.168888,0.5221327,0.12833406,-0.10266027
9.840849,-1.1967944,-3.6751857000000006,0.45558329999999997,-0.26183429999999996,0.032009337
10.4274,0.6378632,-4.7638197,0.3320838,-0.37522835,0.15231489
11.702896,1.1718084999999998,-4.0095506,0.22509511,0.06286676,0.1688257
13.877319,1.4904958000000001,-1.8832504,-0.22682299,0.55047685,0.28433159999999996
15.275754000000001,3.2798553,-2.1125095000000003,-0.62660813,0.057543505,0.7208384
13.851548999999999,0.13449667,-0.26555526,-0.85498446,-0.010576695,0.80068725
10.155064999999999,-3.3730855,3.300407,-0.6612005,-0.21872467,0.43764132
9.001126,-4.293244400000001,4.835904,-0.25237462,-0.49340457,0.31360075
10.634613,-3.5306144,2.7055533,0.16334537,-0.24054128,0.45945793
13.91125,-1.8116923999999999,1.3891542,0.25597,-0.20807815,0.62289053
16.097416,-0.33414438,0.21611023,0.16175711,-0.16814502,0.38973203
14.353345000000001,-0.29979235,0.016290146999999998,-0.03626794,0.15388568,-0.03398156
11.237712,-0.43214384,0.6793978,-0.1113171,0.10651744,-0.365088
8.678761,-0.10344867,0.6172443,-0.10173524,-0.022287855,-0.46090654
6.880045,0.16349524,0.5737081999999999,-0.07991862,-0.061679937000000004,-0.41353829999999997
5.66856,0.50939995,0.40657377,-0.075118974,-0.15643387,-0.30227357
5.003958,1.1071459,-0.09816227,-0.11025245,-0.12503539,-0.20751965
4.5007257,1.3138517,-0.42593804,-0.16083209,-0.020699605,-0.1516342
4.383525,0.9716533000000002,-0.5328248000000001,-0.29604274,0.09107128,-0.06806784
5.01025,0.40529045,-0.2806579,-0.39664352,0.17039649,0.039985493
5.9084783,-0.04877468,-0.041161112,-0.38173842,0.23108159,0.14273302
6.5608883,-0.008025364,-0.01340753,-0.33648202,0.20340067,0.21779963
6.7340274,0.16379213,-0.9728408000000002,-0.35033995,-0.06328564,0.24387486
7.639734700000001,0.16832197,-2.463078,-0.42645374,-0.104265966,0.2390752
9.291217,0.62435037,-2.9927330000000003,-0.6846403,-0.0819083,0.2449395
11.477506,1.3329958,-3.3740813999999997,-0.87945396,-0.24640559,0.20500638
13.140787,-0.060870185,-3.531936,-0.86454886,-0.043057274000000006,0.06501351
12.898676,-1.8730509999999998,-4.608206299999999,-0.70910984,0.08948303,-0.07550294
12.053618,-2.3197612999999997,-4.202303,-0.50045574,-0.04464552,-0.0866905
15.422471,-2.257397,-0.19678423,-0.1773429,0.3657512,-0.18570304
20.48384,-7.6459694,1.3893169,-0.014974925,0.33114132,-0.41992623
12.631147,-6.076589599999999,0.9716341000000001,0.8814436,0.15707964,-0.22828907
10.326555,0.38559097,1.5434268999999998,1.1225958,-0.40077996,-0.44760713
9.753355,2.6545662999999995,1.7328179,0.6195395,-0.56953585,-0.56311303
11.247241,4.400696,2.4193025,0.24052383,-0.23630013,-0.44387212
12.681378,3.2702975,1.2924954,0.07072074,-0.014835299,-0.24958208
12.54963,-0.031335313,0.34313699999999997,-0.15763813,0.315189,-0.15109316
11.231344,-1.9808859,0.8515218000000001,-0.1629614,0.4535936,-0.012688544
10.112035,-1.4646097,1.2875059,0.064315386,0.43015385,0.16348499
8.595471,-1.1194521000000002,1.0038697,0.17983873,0.12833406,0.28379053
7.013019,-1.1539382,0.6669384,0.1542871,-0.17135642,0.32637656
5.8967656999999996,-1.6162299,0.8808077,0.16386896,-0.29644418,0.315189
5.335948,-2.2840493,0.8353370000000001,0.2783102,-0.17294468,0.29708993
5.264140599999999,-2.4933312,0.5208442,0.42418483,0.0021642083,0.28698447
5.600804,-1.8692968999999997,0.16340905,0.5183977,0.12246975,0.16189674
6.136799,-1.1998782,-0.054846372000000004,0.57697093,0.17571975,-0.052080624000000006
6.5260096,-1.0471854999999999,-0.425306,0.56152475,0.09426523,-0.19528489
6.8228045,-1.0051146999999998,-1.0113299999999998,0.5098805000000001,-0.077667154,-0.2123193
7.132633,-0.6532723000000001,-2.208814,0.5758888000000001,-0.21872467,-0.17612118
7.939489,-0.2179777,-3.1895554,0.6355093,-0.37896335,-0.1495049
9.460898,-0.9872825999999999,-3.1404552000000003,0.6285978,-0.35925856,-0.16706291
10.431269,-2.109531,-2.7396467,0.6679724,-0.014311700000000002,-0.1383348
10.67201,-1.7228580000000002,-3.4960612999999996,0.5487314999999999,0.03197443,0.009110618000000001
10.728667,-0.45010033,-4.238330400000001,0.29108602,-0.2522699,0.14590952
10.979818,0.9056116,-4.7991962,0.17240362,-0.18252653,0.16774360000000002
11.173174000000001,0.72680306,-2.3170127999999997,0.087214105,0.21776474,0.07086037
12.778171,1.8470117,-2.3898057999999995,-0.23216370000000003,-0.010053096,0.19755381
14.757016,2.4089692000000005,-0.9513120999999999,-0.55742323,-0.48488736,0.8581609
14.239543,-0.97466034,2.3309467,-0.74319607,-0.15645131,1.0785611000000002
12.150449,-2.0485651000000002,4.196413,-0.75225437,-0.43858379999999997,0.65535367
10.525591,-4.3068333,4.1633059999999995,-0.33491123,-0.45881215,0.29496065
12.099663,-4.834621,1.8573354,0.11276572,-0.4055796,0.17359045
14.840304999999999,-2.5097842,-0.081345394,0.14416419,-0.48010516,0.11770499999999999
14.941839000000002,-0.24150792,-0.16379213,0.122871175,-0.045727625,-0.07072074
12.470946000000001,-0.24809675,0.25900474,0.06857399,0.21402973,-0.30068532
10.132894,-0.1936526,0.19429424,0.040369466,0.053284902,-0.44973645
8.122148,0.21615810000000002,0.14423628,0.0063006384,0.027715827999999998,-0.457189
6.5972614,0.71299326,0.1941506,-0.009128072,0.034644786000000004,-0.45825365
5.245658000000001,0.83681184,0.013330915,-0.005934119,0.14109242,-0.41355577
4.497125,0.9233957,-0.35012805,-0.11772246,0.13311626,-0.37468728
4.515474299999999,0.75601226,-0.22712354,-0.19383627,0.24970426,-0.30600858
5.062645,0.20414878,-0.55164325,-0.26890287,0.26886797,-0.11756538
6.0619082,0.27844566,-0.36299929999999997,-0.25026277,0.2550275,0.014957472
6.958766499999999,0.32982522,-0.4741956,-0.13847442,0.22734658,0.06393141
7.1689487000000005,-0.22740127,-1.1580658000000001,-0.10653489999999999,0.07136651,0.123028256
7.2921257,-0.3505207,-2.1080754,-0.1688257,-0.13196434,0.20181242
8.391485000000001,0.50122136,-2.8774571,-0.32372367,-0.16016887,0.2885902
10.305496,1.7340341000000001,-3.5716605,-0.47918016,-0.14580481,0.3018896
12.16287,0.8835083,-3.940674,-0.5733756,-0.09150761,0.19703022
13.285195000000002,-1.4079342,-4.4256816,-0.5356065999999999,0.12566371,-0.0015358897
12.867148,-2.2348437000000003,-4.7235684000000004,-0.3567453,0.12407546,-0.18092082
12.105476,-1.3453593000000001,-3.3980522000000004,-0.06981317,0.046879545,-0.19156733
16.19755,-1.9332987000000001,-1.0881455,-0.007522369300000001,0.15547393,-0.25542894
16.379988,-5.075774,0.34363499999999997,0.21816616,0.35349899999999995,-0.33688346
12.499830000000001,-2.360817,0.83735764,0.6679724,0.27949703,-0.39865065
10.555833999999999,-0.67521274,1.8043662,0.49391073,-0.06435029,-0.49925143
8.384733,1.439193,2.0628347,0.38796923,-0.26665140000000004,-0.40662682
10.364949000000001,3.363729,0.87944776,0.06859144,-0.31880185,-0.35178855
12.304435,2.367626,0.35498348,-0.26570892,0.003228859,-0.32836625
11.847161,-0.4347583,0.04627513,-0.37643259999999995,0.3071954,-0.16601571
10.397214,-1.7325976000000003,-0.059692237999999995,-0.3322583,0.25768042,0.12409291
9.258080999999999,-1.1406167999999999,0.060467955,-0.30401890000000004,0.15334463,0.30668926
8.260168,-0.64006585,0.12755350000000001,-0.33543482,0.14962707,0.34447563
7.025353999999999,-0.5972384,-0.2547718,-0.37323865,0.15069173,0.31412435
5.8434706,-1.2195393,-0.20445524,-0.43444735,0.11608185,0.28326693
5.458081,-1.404908,0.21725945,-0.44031167,0.1794373,0.24333379999999996
5.49861,-1.2238393,0.21977814,-0.33117622,0.17304939,0.15070918
6.0415573,-1.4608364999999999,0.12075396,-0.1624378,0.20657717,-0.00045378560999999995
6.688461,-1.9728221999999997,-0.23963086,0.0062831854,0.19380136,-0.11171853
7.5726495,-1.926461,-1.0434122,0.11381292,0.096918136,-0.16282177
8.409719,-1.3530782,-2.0079691000000004,0.13936454,-0.011135201,-0.18943803
8.796928,-1.01676,-2.4353627999999996,0.18676768,-0.0020594885999999997,-0.20486675
8.620007000000001,-1.2711871000000001,-2.6314192000000003,0.27138126,-0.0026005406,-0.20008455
8.68806,-2.4216874,-2.186251,0.40180970000000005,0.058590703,-0.15056956
9.644447999999999,-3.3397197999999997,-1.6554659999999999,0.55831337,0.13046336,-0.074455746
10.41357,-2.4720802,-2.2802759999999997,0.6072873000000001,0.008028515,0.018151425
10.467526,-0.70429754,-3.6306345,0.5183802,-0.20968385,0.10651744
10.446505,0.7310169,-3.9023287000000004,0.41565016,-0.23097688,0.16613789
11.841501,1.5411188999999998,-2.0179671999999997,0.22561869999999998,-0.07127925,0.19648917
14.62275,4.0415177,-3.9084193999999997,-0.26038566,-0.535467,0.69153434
15.676848999999999,1.4345099,-1.2144731000000002,-0.6750759,-0.123447135,1.0630975
12.844126,-2.2405033,3.4692654999999997,-0.6495243,0.32208306,0.515867
10.797141,-3.97064,5.8648076,-0.39559633,-0.010594148000000001,0.21778218
11.6717615,-3.6226475,3.5685387000000004,0.17023942,-0.23150048,0.14271557
13.652073000000001,-2.7756939999999997,1.3415956,0.48111746,-0.24642304,0.25609216
14.890985999999998,-1.1343728000000002,0.299687,0.5008047999999999,-0.14208725,0.21350613
14.639365,-0.07711245,-0.13649823,0.36774087,0.14428636,-0.056897733
12.670182,0.020618865,0.24750300000000003,0.28469809999999995,0.24755749999999999,-0.41833797
9.541698,0.0853102,0.49394298,0.28202775,0.16824974,-0.56047755
6.7841716,0.11093773,0.46347916,0.28576276,0.12140510000000002,-0.48488736
5.1317797,0.37237498,0.5261880999999999,0.31983158,0.055920347999999995,-0.36564648
4.218689,0.92419064,0.28433537,0.3709348,0.08520697,-0.29164450000000003
3.5810074999999997,0.89712656,-0.24993551,0.34005994,0.17250834,-0.20114920000000003
3.4685278,0.50807834,-0.46033794,0.22560126,0.15386823,-0.079779
4.6478257,0.49894205,-0.47292188,0.12765338,0.11979939999999999,0.045291292999999996
6.454107,0.673125,-0.638524,0.09573131,0.09958848,0.13739231
7.9039493,0.55183476,-0.92436296,0.11433652,0.05326745,0.17837265
8.279849,0.43653959999999997,-1.6899712,0.07655014,-0.11492993,0.20020671
7.9365587,0.28365543,-3.0517453999999997,-0.030438542000000002,-0.2751686,0.21137683
8.731558,0.72305846,-3.4417991999999997,-0.17043139999999998,-0.24162339,0.18688986
10.66907,1.9821692,-3.7084748999999997,-0.3806912,-0.26556929999999995,0.12674580000000002
12.724895,1.8289115000000002,-3.367895,-0.46905723,-0.11651818,0.046896997999999995
12.882807000000001,0.03095224,-4.081932,-0.4302062,0.13365729999999998,0.01282817
12.2206955,-0.92984086,-3.848411,-0.41636574,0.14802137,-0.030264008999999998
15.622855,-2.1592347999999997,-0.16626294,-0.44083527,0.47806314,-0.25438175
19.069595,-8.185871,1.3685737,-0.23218115,0.31782445,-0.5695184
12.232341,-5.0263586,1.4061337999999999,0.72598714,0.32901199999999997,-0.33848915
10.831905,0.53774726,1.5793781999999998,0.87608546,-0.2703864,-0.5706005000000001
9.338372999999999,2.0856657,1.9071061999999999,0.6445326,-0.6350206,-0.47637016
11.818881,3.6238256,1.6362646,0.20802579999999998,-0.41144392,-0.28845057
13.479768,2.5202517999999996,0.7108385,-0.10388199999999999,-0.15379842,-0.129294
12.186783,0.23167253,-0.0075848307,-0.31307715,0.29494318,-0.11543608
10.019983,-0.85327435,0.27890533,-0.35568064,0.3689277,-0.04251622
9.077214,-0.8494053,0.40561607,-0.33332297,0.23904029999999998,0.14430383
8.216766,-0.7570562,0.27282408,-0.33812264,0.09424778,0.26195645
7.015585400000001,-0.99183154,0.27661648,-0.37910298,-0.0026179939,0.2922903
5.937687,-1.4962516000000001,0.39948690000000003,-0.38283798,-0.048921578,0.26408577
5.298023000000001,-1.9959598000000003,0.6520178000000001,-0.32693508,0.0074874623999999996,0.2624975
5.3375664,-1.8391970000000002,0.84218436,-0.17043139999999998,0.109693944,0.181043
5.4313519999999995,-1.4050803,0.8379323000000001,0.044069562,0.2496868,0.0064228117
5.7127566,-1.1966507,0.5658935,0.24528857,0.2933375,-0.18517943
6.2888684,-1.3327947,-0.37865737,0.38262853,0.16451474,-0.25385815
7.6188765,-1.548627,-1.7004291,0.45663050000000005,-0.051591933,-0.20062560000000002
9.07119,-1.7599393,-2.8200917000000003,0.52103317,-0.23310618,-0.15749851
10.10966,-1.7072668999999998,-3.0714447,0.57320106,-0.17135642,-0.20542525
9.854783,-1.9367464,-2.1861072,0.63814473,0.20977113,-0.28047442
9.550307,-2.201363,-1.346681,0.68711865,0.3018547,-0.22511257
9.335366,-1.6279709,-2.1209562,0.6594378000000001,-0.010594148000000001,-0.0840376
8.88718,-0.28091648,-4.0164266,0.5008047999999999,-0.45455354,0.15440927
9.926082000000001,1.9210212,-3.4198203,0.3182259,-0.5136504,0.3071954
13.999107999999998,4.3834386,-2.4521031000000004,-0.18535396,-0.24642304,0.5137377000000001
18.670895,6.692177,-3.0978767999999994,-0.79325217,-0.33585370000000003,1.0045418
16.49579,-0.85376275,0.015409082,-1.1728089,0.38809142,0.6654416999999999
11.835191,-5.999112599999999,3.7237115,-1.0423805,-0.16229817,0.20287707
10.253074,-7.013162599999999,5.208892,-0.40784854,-0.43060762,0.035709437000000004
10.617815,-4.822918,3.7342458,0.40392154,-0.08086111,0.036250487000000005
11.799277,-1.4994694,2.1097515,0.85587454,-0.11492993,0.24651030000000002
13.957593,0.82590383,0.33338779999999996,0.80370665,-0.13515829999999998,0.3652276
14.216204999999999,0.5322119000000001,-0.38545692,0.55349624,0.13309881,0.12885766
11.816478,0.27126306,-0.018483236,0.34749505,0.19273672,-0.23150048
8.804935,0.5140447,0.27048734,0.25221753,0.11821115,-0.3917217
6.920469000000001,0.6901909,0.6036166000000001,0.24581218,0.086795226,-0.39386845
5.931223,0.9463896999999999,0.40135440000000006,0.24155357,0.03195698,-0.35979962
5.249967,1.1531433,-0.41782650000000005,0.16756906,0.003228859,-0.29911453
5.0817504,1.1569644,-0.64678884,0.07974409,0.005881759300000001,-0.23202407
5.236559400000001,0.80128187,-0.6978619,-0.055990162999999996,0.040491637000000004,-0.10958923
5.7228794,0.31980790000000003,-0.3542844,-0.08580039,0.12405799999999999,0.005899213
6.270855,-0.013503298,-0.18266802,-0.010733775,0.19964822,0.060196407
6.481592,-0.25808537,-0.49409620000000004,0.08506735,0.11288789999999999,0.08894198
6.8521094,-0.12188402,-1.1760223,0.0871792,-0.011135201,0.11821115
7.332961,0.41717529999999997,-2.0081222,0.0009424778,-0.14156365,0.14482743
8.079751,1.1028746,-2.5519220000000002,-0.096446894,-0.15964526,0.18263125
9.460401,1.9182918999999998,-3.1307921000000003,-0.27796113,-0.14847516,0.23108159
11.341516,2.1561797,-3.8587542,-0.54360026,-0.19106120000000001,0.24064599
12.992941,0.54532254,-3.6839678,-0.6032206999999999,0.07241371,0.119816855
12.587448,-1.6100624,-4.2855635,-0.5207015,0.24010494,0.00057595863
11.997307000000001,-1.7013866999999998,-3.0746147999999995,-0.35568064,0.21190043,-0.0861669
16.821075,-2.1885204,0.31598675,-0.24390976,0.21987657,-0.40077996
18.037016,-7.569039,0.80152124,0.16065755,0.22361158,-0.53970814
11.53266,-4.162808,1.1566676000000002,0.95541066,0.20710076,-0.30017918
9.977395,-0.09074024,1.4836103,0.9953438,-0.36034068,-0.37096974
10.184206,2.2069845,1.9917555,0.618981,-0.3571467,-0.4140968
12.474901,3.9872940000000003,1.7986871,0.28148670000000003,-0.26930429999999994,-0.3310366
13.8249445,2.672676,0.6327013000000001,0.010000736,-0.043074727,-0.19956094
11.979445,0.38902906,-0.0041946415,-0.20397663,0.31196016,-0.16283922
9.929779,-0.62141025,0.55684346,-0.20717058,0.32847098,-0.016982054
9.293830999999999,-0.61672723,0.8239405999999999,-0.13690363,0.21348867,0.1943424
8.345345,-0.79166675,0.3200473,-0.11826351,0.16132078,0.35084608
7.070661500000001,-1.0538415,0.035434186,-0.23005185,0.035691983999999996,0.35671040000000004
5.842225599999999,-1.4152892,0.32269050000000005,-0.25773278,-0.13144074,0.31677726
5.366297,-1.7061943,0.5286493,-0.21729349,-0.083531454,0.30026644
5.451099,-1.6768606,0.6237566,-0.09642944,0.048467792999999995,0.25343925
5.526306,-1.6273004999999998,0.6929873000000001,0.07016224,0.16451474,0.13843952
6.1397867,-1.6430831000000001,0.8273116,0.2905275,0.21242402,-0.05157448
6.6031413,-1.297619,-0.106752664,0.43160248,0.15386823,-0.18624409
7.0433197,-1.1644632,-1.4212556,0.46621236,-0.06914994,-0.23575908
7.9403224,-1.2681798999999998,-2.498742,0.45875978,-0.3321187,-0.23204152
9.066363,-1.3001473,-2.9745467,0.53754395,-0.28314477,-0.26398104
9.817480999999999,-1.2709571000000002,-2.8387954,0.60514057,-0.02549926,-0.27515116
9.926264999999999,-1.6967611,-1.7969921000000002,0.6360154,0.21083577,-0.16655678
10.099959,-1.3859076000000001,-2.408069,0.5418026,0.07988372,-0.022305308
9.938483999999999,-0.1538131,-4.0440364,0.33206636,-0.36246997,0.13046336
10.314661,1.3993152,-4.582023599999999,0.17660987,-0.35023522,0.16240288
12.289658,2.1312609,-2.524705,-0.10016444,0.07030186,0.13950416
15.009651999999999,3.7731852999999997,-2.9300911,-0.46801004,-0.1995784,0.5525886999999999
15.220572,1.4537976000000001,-0.73302794,-0.92900383,-0.059044488,0.9502444999999999
12.795093,-2.9911528,2.9529316000000003,-0.99447113,-0.11173598,0.74583155
11.101598,-4.0396123,5.351500499999999,-0.6404835,-0.56475365,0.45357618
11.456533,-5.3409085,3.729017,0.04087561,-0.19052014,0.29813713
13.438118,-3.8863062999999993,1.3554534,0.38901645,-0.29487340000000006,0.30452505
14.828479000000002,-1.2515067,0.020934900000000003,0.33098423,-0.26558676,0.21137683
13.709716,-0.16512331,-0.12104126,0.17236872,0.13098696,-0.030822514
11.659321,0.11506533,0.46988599999999997,0.073879786,0.11819369,-0.29005626
9.418099,0.5321161,0.33637577,0.021711895,0.020245818,-0.43804273
7.5398005999999995,0.8305389999999999,0.09029014,-0.0394968,-0.02125811,-0.46945867
6.090772599999999,0.9239224,0.09411128,-0.08740609,-0.03775147,-0.39013344
5.3191977,0.99845874,-0.21784362,-0.13583897,0.005358161,-0.27302185
5.0024548,0.75084084,-0.17581102,-0.15926129,0.12938125,-0.19264944
4.9660150000000005,0.15115075,-0.37369657,-0.20025907,0.18633135,-0.10108947
5.49159,-0.2992848,-0.30039570000000004,-0.24815091,0.21935298,-0.015376351000000002
6.191607,-0.22834939,-0.18761922,-0.21303488,0.24862215,0.049549895999999996
6.5885463,0.0073645646,-0.4493342000000001,-0.12093386,0.18420205,0.108629294
6.894707,0.12513055,-1.4364635000000001,-0.11456341,-0.034557517999999995,0.16983798
7.328842599999999,0.080282375,-2.769517,-0.12999213,-0.23364723,0.21989404
8.391121,0.30393909999999996,-3.1730452000000002,-0.16830209999999998,-0.14261085,0.23427555
10.376872,1.4907448,-3.21774,-0.32908183,-0.12292354,0.20231856
12.637774,1.8282793999999998,-3.0355701,-0.47652724,-0.038816124,0.110758595
12.869418,0.6053786999999999,-3.6501806000000006,-0.49623199999999995,0.13309881,-0.019634955
11.310257,-0.69620514,-4.274876,-0.5143310999999999,0.009075712,-0.07340855
12.125349,-1.2185146999999998,-1.6654832,-0.42701226,0.26778588,-0.18252653
18.358126000000002,-5.398925,1.0522325000000001,-0.31098276,0.35934582,-0.49979250000000003
15.2507105,-8.974692999999998,0.6822038,0.36452946,0.30983084,-0.52853805
11.666953999999999,-1.6566726000000003,1.6888316000000003,0.9809623,-0.04626868,-0.62009805
9.478232,0.8150533,1.6111733,0.9160186,-0.48384017,-0.5077861
10.378328,2.4822412,1.8013495,0.56787777,-0.3294658,-0.24108233
13.231441,3.2989319999999998,0.74734527,0.087720245,-0.21183062,-0.07340855
12.923364999999999,1.7974134999999998,0.12428779999999999,-0.25720918,0.16077973,-0.08670796
11.313253999999999,-0.23553199,-0.095078535,-0.42542399999999997,0.28482029999999997,-0.09681341
10.71546,-1.3708146,0.14385322,-0.42648867,0.19751891,0.057526052
9.846652,-1.6153966,0.021279665,-0.38870227,0.16397369,0.21135937
8.352833,-1.3933103999999998,0.044369347,-0.40147808,0.13735741,0.27738518
6.8966227,-1.1052688,0.049789815999999994,-0.4238183,0.116605446,0.27312657
5.9931374,-1.1685428999999998,0.40131609999999995,-0.42383575,0.09157742599999999,0.2555511
5.5939856,-1.6352781,0.83340245,-0.3024481,0.19538961,0.21724114
5.2698584,-1.9840461999999999,0.6994517,-0.10550515,0.31250120000000003,0.15282103
5.092094,-2.0516107,0.4872009,0.07812094,0.34602898,0.052726395
5.7779365,-2.2709193,0.5017289,0.26071727,0.31995377,-0.06169739
6.843787,-2.1091577999999997,-0.19180429,0.38688713,0.17249089999999997,-0.124511786
7.926234200000001,-1.4380916000000001,-1.2410105,0.43268457,0.023457225,-0.14845770000000003
8.787649,-0.7953920999999999,-2.2326984,0.42947316,-0.12398819,-0.18039723
9.487321000000001,-0.753484,-2.5906699,0.3884754,-0.08513716,-0.24534093
9.430713,-1.484338,-2.3830926,0.36611772,0.13948672,-0.26185176
9.479804,-1.9208392,-2.485009,0.34590679999999996,0.22307053,-0.19690804
10.157621,-1.4738898,-2.7122283,0.29798007,0.049532442999999995,-0.13409364
10.364393,-0.7067013000000001,-3.4506671000000004,0.23516566,-0.12718214,-0.05105088
10.730649,0.09640971599999999,-3.8290752999999995,0.1515993,-0.23844688,0.06604326
12.059689500000001,0.44748586,-1.3714466,0.06588618,0.028763026,0.11768755
14.787098,2.1554425,-2.4814656000000004,-0.33279938,0.04740314,0.4328242
15.994053,2.3071772999999998,-2.1233888,-0.8193448,-0.16550957,0.97686076
12.857055,-1.9856935000000002,1.4894234,-0.92101026,-0.043598324,0.695793
10.001816,-4.147494999999999,4.366037400000001,-0.6271666,-0.47052330000000003,0.3524518
10.535214,-4.2815127,4.6735487000000004,-0.07675958,-0.5434606,0.25609216
12.134839,-3.396922,2.294871,0.29693288,-0.29539698,0.33700562
13.037328,-1.5855839,0.33088824,0.30545008,-0.30923745,0.39236748
13.337781,-0.20499155,-0.34558865,0.030229102999999997,-0.19799015,0.23532274
12.366128,0.49217126,0.13407529999999998,-0.21568778,0.07934267,-0.10002482
10.343373,0.41525033,0.7069599,-0.28862509999999997,0.07934267,-0.37629297
8.096088,0.20887972,0.83757794,-0.31257102,1.7453292e-05,-0.46252970000000004
6.7447534,0.43622354,0.6420100000000001,-0.32108822,-0.06702064,-0.44603634
5.8807626,0.7124953,0.19086576,-0.35622170000000003,-0.09737192,-0.34861207
5.699282,0.851426,-0.085769884,-0.39348447,-0.093636915,-0.24321163
5.872833,0.67296225,-0.2849483,-0.44406409999999996,-0.019128809,-0.15271631
5.9280624,-0.08674672,-0.35112405,-0.46268678,0.10117674,-0.021764256000000003
6.3737383,-0.5132211,-0.44949700000000004,-0.44032910000000003,0.16451474,0.07723082
6.859225299999999,-0.410347,-0.5084231,-0.3477045,0.14002776,0.11342895
6.9807453,-0.12591586,-0.8095562,-0.25986207,0.060720004,0.15229744
6.9689559999999995,0.04250187,-1.829419,-0.26785567,-0.17989108,0.22787018
7.549425,-0.23467965,-2.7073537999999995,-0.28382543,-0.33053046,0.26035076
8.931894999999999,-0.271943,-2.8180425,-0.28115508,-0.18786724,0.20018926
10.740456,0.28265944,-3.5030522000000004,-0.45204028,-0.10215412,0.11929326
12.304731,0.7664414,-3.2263975,-0.65271825,-0.005270894,0.10384709
12.337762,0.12444103,-3.8379629,-0.61919045,0.14109242,0.047944195999999994
10.75642,-1.4047643,-4.577943299999999,-0.51804864,-0.030839968,0.010157816
11.043906,-1.7289296000000003,-2.9083040000000002,-0.21940534,0.04314454,-0.02708751
16.877197,-4.191931200000001,-1.1348612,-0.16884315,0.26778588,-0.22617722
16.798417999999998,-7.3725033,0.7335451,0.17982127,0.5642999,-0.22191861
13.145298,-2.0909426,2.0007194999999998,0.7946484,0.41311944,-0.5194973
10.581118,-0.05229894,2.0020506,0.5353972,-0.12559389,-0.5093743
9.435941999999999,2.5307956000000003,2.3135746,0.39166933,-0.3310715,-0.19956094
11.358658,4.0022720000000005,1.3686789,0.06801548,-0.3124314,-0.0766025
11.574681,2.5805279999999997,0.7882956999999999,-0.20343557,0.03303908,-0.06593854
11.232914,-0.11550587,0.3615915,-0.3482281,0.31517157,-0.024958208
11.006471000000001,-2.1057099999999997,0.36598724,-0.3338815,0.3689277,0.15173893
10.093111,-2.0560064,0.45343307,-0.18001325,0.40779617,0.22734658
8.574211,-1.632836,0.5121485,-0.11402236,0.29014352,0.25129250000000003
7.3757977,-1.1695867,0.44590572,-0.13850933,0.12299335,0.27897343
6.4281440000000005,-0.9841030999999999,0.52289367,-0.12465142,-0.034016468,0.22788765
5.519018,-1.4286201,0.747125,-0.06983062599999999,0.033562682999999996,0.20338322
5.319380000000001,-1.8478831999999998,0.6219657,0.025446901,0.20071286,0.19860101
5.746284999999999,-1.9108508000000002,0.4011437,0.14201744,0.26726228,0.09904744
6.6662425999999995,-1.9499145,0.20448397,0.24637067,0.2555511,-0.045710173
7.781845,-1.5964249,-0.38076425,0.27935740000000003,0.15067427,-0.17987363
8.591746,-1.2679693,-1.0039366,0.28148670000000003,0.0591143,-0.2565285
8.996988,-1.0794306999999999,-1.6666995,0.29799749999999997,0.037297685,-0.29325023
8.799773,-0.9219305,-2.5091232999999997,0.3112969,-0.056915186,-0.3044378
8.54977,-0.9145563,-2.9206102,0.31929052,-0.12770574,-0.31187287
8.758871000000001,-1.4893754,-2.8438137,0.34538320000000006,-0.08086111,-0.29696777
9.725918,-1.861693,-2.1897273,0.400204,0.12566371,-0.19690804
10.357479,-1.1807628000000001,-1.8669601999999998,0.32726669999999997,0.16451474,-0.08831366
10.319201,-0.23300370000000004,-2.0883281000000005,0.33311355,0.13096951,-0.001012291
9.598278,-0.21826500000000001,-2.9194226000000003,0.41830307,0.0074874623999999996,0.040509094
10.385827,-0.7084443,-1.4178462,0.47951177,-0.13941689999999998,0.045814894
13.412865,2.0268639999999998,-2.8236928,0.057910025,-0.59669316,0.45944047
16.406048000000002,4.0161104,-1.9265088,-0.44991097,-0.34491196,1.0886492
14.007382000000002,-0.9783569999999999,1.9177172999999998,-0.51750755,0.11234684,0.70856875
10.688778999999998,-4.054293,5.0973797,-0.37432078,-0.39440949999999997,0.30506609999999995
11.06444,-4.838433,4.467245,0.11433652,-0.4093146,0.118752204
12.700809,-3.8439099999999997,2.1750173999999998,0.5364793000000001,-0.25919884,0.1794373
13.570795,-1.793621,0.5668799,0.6168517,-0.3044378,0.29335493
13.786446,0.31563237,0.07481402,0.4603655,-0.06169739,0.18423696
12.932663,1.0589171999999998,0.08672756,0.24261822,0.12405799999999999,-0.08564331
11.077272,0.66235113,0.5372876,0.10423106,0.08307767,-0.30283207
9.006077000000001,0.4239365,0.77529997,0.08026769,-0.0036826448,-0.41142645
7.1671867,0.3836756,0.7071418,0.09145525,0.012269665,-0.41195005
6.065164,0.43617564,0.21273918,0.0909142,0.040491637000000004,-0.31134927
5.5366297,0.46863148,-0.011597513,0.10049606,0.048991393,-0.20968385
5.2958207,0.48557284,0.01844493,0.10423106,0.15973254,-0.12716469
5.2383986,0.079142734,0.015524004,0.0882613,0.17250834,-0.031887166
5.694599,-0.09149681,-0.110411,0.09997246,0.13470452,0.059672805999999995
6.3973837,-0.34113544,-0.35830665,0.14734070000000002,0.12140510000000002,0.14910348
6.880304,-0.32467290000000004,-0.91661537,0.18512708,0.07773697,0.20924753
7.4169396999999995,0.195635,-1.3227677,0.13562953,0.018657569,0.23905775
7.819395500000001,1.1439591999999998,-1.7817171000000003,-0.010210176,-0.08192576,0.25982717
8.395133999999999,1.7882580000000001,-2.2728347999999996,-0.17364279999999999,-0.09311332,0.24544565
9.198829,1.3060083,-2.9146054,-0.31363568,-0.09950122,0.21776474
10.816821000000001,0.3566307,-3.1195586,-0.41903609999999997,-0.101630524,0.14695673
12.952459,-0.54004574,-2.8488127999999997,-0.42647120000000005,-0.012723451,-0.01802925
13.071622999999999,-1.7601213,-3.8247373,-0.3152239,0.025586527,-0.15219271
11.149653,-1.8991,-3.9366614999999996,-0.19652407,-0.07236135,-0.09628981
12.723792999999999,-0.6791967,-1.8708292000000002,-0.13370967,0.07775441599999999,-0.12503539
17.470968,-3.5527173999999997,0.5980141,0.008412487,0.08520697,-0.37468728
15.965983,-5.6529016,0.51005113,0.51785666,0.42057198,-0.4476246
11.768517,-2.28743,1.5972389999999999,0.7792197,0.0037524579999999997,-0.56899476
8.997639999999999,-0.045125917,2.1029902000000003,0.7190582,-0.24642304,-0.54929
8.314478999999999,2.473421,2.406345,0.56787777,-0.32307790000000003,-0.41407937
10.974177000000001,3.8336532,1.3205459,0.21495475,-0.29379126,-0.26450464
12.284849000000001,2.005843,0.48444277,-0.10389945,0.041556288,-0.10534807
11.771552999999999,-0.3023015,0.01946007,-0.25933847,0.23158774,0.07775441599999999
11.000283999999999,-1.1853405000000001,-0.039523482,-0.29606020000000005,0.18154915,0.23638739
10.079474000000001,-1.1506341999999998,0.06929777599999999,-0.3104417,0.17674949999999998,0.25396284
8.8976,-1.003161,0.021183897,-0.35835100000000003,0.16612044,0.21724114
7.4583693,-0.91557145,-0.05864836599999999,-0.40732494,0.07401941,0.18317229999999998
6.290133,-1.2443815,0.20805612,-0.3886848,0.0042935097999999994,0.18156660000000002
5.7273135,-1.8228877,0.49278417,-0.28115508,0.13044591,0.20659462
5.4273586,-2.350474,0.55969733,-0.13051572,0.27045622,0.21563543
5.7778215,-2.5281527,0.5307083,0.03715806,0.28269097,0.13578662
6.5282025,-2.2656902999999997,0.3758897,0.17448056,0.23956390000000002,-0.035604715
7.5364394,-1.386195,-0.3814921,0.23092452,0.09159488,-0.24214698
8.084233,-0.7679545999999999,-1.3211302,0.18301523,-0.10321877,-0.34168312
8.223163000000001,-0.5658169,-2.2922661,0.14947,-0.21767746,-0.3475474
8.422074,-0.46687892,-2.8609464,0.16704546,-0.2560049,-0.33210126
8.698824,-0.91019887,-2.6120167000000003,0.21547835,-0.09896017,-0.32625440000000006
9.500958,-2.0155060000000002,-1.9448676,0.2724459,0.13950416,-0.27141616
10.268339,-2.7248217999999995,-1.5526303,0.27031659999999996,0.15973254,-0.1553692
10.4117985,-1.8330104,-2.3078093999999996,0.3065147,-0.12505284,-0.041992623
10.406934,-0.04594952,-3.215911,0.38475785,-0.2778215,0.050614547
11.306388,0.5131445,-2.233091,0.39859828,-0.20809561,0.10012954
14.605769,2.2937697999999997,-2.8818335999999998,0.019582594,-0.4827755,0.38224456
15.853895999999999,3.0126624,-1.8527482,-0.37538540000000004,-0.34543556,0.8033227
12.2102375,-0.80966157,0.77270466,-0.5068785,-0.024975661,0.6436251000000001
9.574431,-2.5959852000000003,3.2535381,-0.48343876,-0.55463076,0.49457395
10.209173,-3.1575403,4.5184717,-0.11400491,-0.42580798,0.37800342
11.934215,-3.5860638999999996,2.931968,0.30330333,-0.10855948,0.44718826
14.115926000000002,-2.72713,0.8441380999999999,0.40926227,-0.21022491,0.47647488
15.242341,-0.9199096999999999,-0.27203879999999997,0.22453661,-0.16390386,0.20127137
13.80468,0.2958467,-0.05384081,0.06749188,0.09105383,-0.17081538
11.632219000000001,0.7272244000000001,0.17344554,-0.0027401668,0.10117674,-0.4130147
9.372189,0.5695326999999999,0.34410426,-0.060248765999999995,0.12566371,-0.49233994
7.7900233,0.42489418,0.70071584,-0.074612826,0.12618731,-0.48754027
6.3098707,0.42148483,0.45530054,-0.05438446,0.07827802,-0.35979962
5.779804,0.5667554,-0.06604165599999999,-0.060772362999999996,-0.040404372,-0.21872467
5.824671299999999,0.62345016,-0.12376108,-0.05066691,0.046879545,-0.15645131
5.743096400000001,0.18081012,-0.42307457,-0.088453285,0.20444787,-0.08990191
5.7553544,-0.13668975,-0.5524764,-0.11826351,0.2470339,-0.013247048999999999
6.4116817,0.11166556,-0.55158573,-0.10070549999999999,0.24649285,0.043685592999999995
6.9562097000000005,0.10499053400000001,-0.86226696,-0.061837014,0.22467624,0.059672805999999995
7.1500535,-0.11424173,-1.1243267,-0.03042109,0.13470452,0.09213593
7.4759910000000005,0.11835976,-1.4537401,-0.025638886,0.020786871999999998,0.15175638
7.802177,0.45621035,-2.2021484,-0.06716027,-0.12185889,0.20073032
8.666319999999999,0.69342786,-2.3885896,-0.07459537,-0.055309486,0.17519616
9.986569,0.7419918000000001,-3.1212442000000005,-0.1688257,-0.06702064,0.105976395
12.435464999999999,0.07650911,-2.8278875,-0.26890287,-0.047856927,-0.0036477381
13.617951000000001,-1.0367277,-3.3869336000000003,-0.24654521,0.067631505,-0.098419115
11.59147,-1.3720788000000002,-4.396683,-0.20821778,-0.017505653,-0.06752679
11.790792,-0.15382268,-2.4951699,-0.17414895,0.07562511400000001,-0.10480702
16.472166,-1.8736161,-0.13927549,-0.15711454,0.059655353,-0.32093114
15.362682000000001,-5.50924,0.37796783,0.30864403,0.21296507,-0.3789459
11.177196499999999,-2.5935047000000004,0.744003,0.7275929,-0.18200293,-0.31241393
10.220903999999999,-0.29982108,1.4710263000000001,0.6557202,-0.33478907,-0.37522835
9.162543,1.4790803,1.5737278000000001,0.4651477,-0.22832397,-0.32039008
10.911344999999999,3.2883402999999998,1.0831465,0.106901415,-0.122382484,-0.18252653
12.072303,2.5971632000000002,0.5028111,-0.22526965,0.026651177999999998,-0.04358087
11.775738,0.18660408,0.25369918,-0.35355136,0.311454,0.0021816615
11.206445,-1.5190827,0.22478679999999998,-0.3929434,0.3817035,0.08894198
10.257009,-1.7376733,0.47251007,-0.2795494,0.34178782,0.22043508
9.206769,-1.3633636999999998,0.49753428,-0.19226547,0.16983798,0.29335493
8.101747999999999,-0.91945004,0.19071253,-0.21195279,0.008552114,0.28857273
6.8793745,-0.9212408999999999,0.04094085,-0.25506239999999997,-0.054785885,0.24811599999999998
6.200389,-1.2810704,0.17607917,-0.23378685,0.076689765,0.22043508
5.9820757,-1.4877378,0.13462117,-0.16989034,0.17996089,0.20446531
6.131512,-1.6162488000000002,0.3827275,-0.050125855999999996,0.26939157,0.13046336
6.6990337,-1.4621773,0.5403809,0.08241445,0.3141069,-0.037734017
7.0207477,-1.4213035,-0.029017723999999998,0.20910789,0.26139796,-0.17559758
7.6355686,-1.496491,-0.79633063,0.2767045,0.108629294,-0.23256512
8.454817,-1.4688427,-1.397371,0.3310017,-0.05372123400000001,-0.26024604
8.798844,-1.3705368999999998,-2.0716453,0.42097342,-0.12077679,-0.29909706
8.744802,-1.4508767,-2.3730083,0.4694063,-0.0723439,-0.330513
8.777679,-2.0844111,-2.0509596,0.49604002,0.023457225,-0.2793923
9.531442,-2.1871417,-1.6087983000000001,0.45610690000000004,0.09852383,-0.1452463
10.118883,-0.9273892,-2.547469,0.29907963,-0.055833083,0.004310963
10.3584175,1.1093485,-3.894217,0.16653931,-0.23523548,0.15070918
10.795351,1.8158581999999999,-2.9144616,0.05312782,-0.2645221,0.21085322
13.345319,2.4795119999999997,-2.5635962,-0.30616567,-0.1266411,0.29708993
15.318830499999999,2.879564,-3.43906,-0.72296774,-0.16229817,0.7288146
13.789251,-1.0522708,-0.29338548,-1.0519623,0.0543321,0.7841764
10.354405,-3.746983,3.5407372,-0.81559235,-0.28953266,0.2960253
8.690598,-4.592529,5.275633,-0.26996753,-0.41516146,0.15442674
10.205524,-3.8439004,3.8859714999999997,0.33101913,-0.28101546,0.26782078
13.147817000000002,-2.2350063,1.647115,0.66264915,-0.32040754,0.473822
15.020273000000001,-0.7112024,-0.20800824,0.5556605,-0.22937118,0.38971457
14.5750475,-0.089140914,-0.26610115,0.31185544,0.009093165,0.059672805999999995
12.515028,0.020685903999999998,0.7127346999999999,0.19313814,0.14217453,-0.29749137
10.140852,-0.08074206,1.0825431,0.21123719,0.10649999,-0.48486993
8.123460000000001,-0.005717354,0.80905825,0.2655344,0.05806710599999999,-0.50989795
6.772353999999999,0.35284787,0.3893738,0.28576276,-0.022828907000000002,-0.40395644
6.275317,0.9286916999999999,-0.10920433,0.26555184,-0.062220987,-0.29003882
6.3113647,1.1924848999999997,0.011214441,0.24637067,0.09213593,-0.23787092
6.075908999999999,0.65881723,-0.08257123,0.2133665,0.20125392,-0.1601514
5.8511896,-0.056598928,-0.29840370000000005,0.18835594,0.19060741,-0.048363075
6.1524763,-0.18284039,-0.6053308000000001,0.18676768,0.13419837,0.06660176
6.6738467,-0.013464991,-0.9711457,0.19048524,0.08787732599999999,0.12676327
6.8011894,0.20659088,-1.3385023999999999,0.16547467,-0.022828907000000002,0.17093755
6.984566,0.54853076,-2.1743278999999998,0.07124434,-0.20223129999999997,0.18797196
7.3628979999999995,0.6572180000000001,-2.827332,-0.04478515,-0.29963812,0.16081464
8.546869000000001,1.1292875,-3.0468322999999997,-0.19757128,-0.21766001,0.13206907
10.592715,2.2807071,-3.1961539,-0.46478117,-0.196367,0.120898955
12.470544,2.1143482000000002,-2.6522584,-0.586675,0.06286676,0.05914921
12.13187,-0.16112019,-3.7486303,-0.5808456,0.25980970000000003,-0.004712389
11.2827425,-1.27542,-3.8819106,-0.5627465,0.14589207,-0.062203534000000005
13.707676000000001,-1.4644758,-1.1603451,-0.48396236,0.28642598,-0.29323277
18.841372,-6.1733150000000006,1.3050601000000002,-0.33969343,0.28483772,-0.5743005999999999
13.248938,-6.2675410000000005,0.39616376,0.45877725,0.1836959,-0.43589598
9.681644,-0.84598637,0.91213334,0.9506459,-0.31189033,-0.35552356
10.273462,1.1249588,0.71732193,0.54661965,-0.43324307,-0.26021114
11.514989,2.1957414,1.4355537,0.14631096,-0.13301153,-0.15269886
13.139484,2.566268,0.95430964,-0.18797196,-0.010053096,-0.043022364
12.475064,1.0052009,0.52884084,-0.41261327,0.23905775,-0.036651913
11.108454,-0.6290909,0.38015133,-0.4834213,0.41259584,-0.07230899
10.291925,-1.3725096,0.60981274,-0.4099604,0.39023817,0.054367005999999996
9.429486,-1.2604897,0.5702606,-0.2891138,0.42324233,0.27262044
8.147833,-1.1375235000000001,0.29063693,-0.29656634,0.244381,0.37854445
6.911275,-1.1921591999999999,0.29319394,-0.38226202,0.037315138,0.39133772
6.2253940000000005,-1.4729416000000002,0.6538086,-0.38706166,-0.035063665,0.31414179999999997
5.716903,-1.8431714,0.74004775,-0.26782078,0.10651744,0.23322834
5.7861533,-1.7941189999999998,0.67287606,-0.12569861,0.19860101,0.118246056
6.3293214,-1.5562599,0.5576766,-0.0021991148,0.23692845,0.009651671
7.217167999999999,-1.3666582,0.2604221,0.08402015,0.244381,-0.10637782
7.8759947,-1.2800169,-0.39996576,0.11171853,0.15974998,-0.15800466
8.528673,-1.2397847,-1.1005473999999997,0.16175711,-0.02815216,-0.17451547
9.008768,-1.2775077,-1.7789971999999998,0.23787092,-0.14898129999999998,-0.20432569
8.889355,-1.1875623,-2.2565541000000002,0.29749137,-0.14791666,-0.28098056
8.426996,-1.1401571000000001,-2.447621,0.33475414,-0.090425506,-0.3320838
8.749284,-1.6854221999999999,-2.286884,0.35817647,0.0032463125,-0.31185544
9.923669,-2.0117613999999997,-1.9400023999999998,0.33423054,0.08735373,-0.24158847
10.536537,-1.1889701000000001,-1.9841037000000001,0.25703463,0.035185836,-0.13884094
9.997545,-0.028433539,-2.1611022999999996,0.28099802,-0.040910516,-0.052080624000000006
9.212457,0.26874435,-1.4738802,0.38479275,-0.14578736,0.008045968
10.994835,0.95751786,-2.1785892999999996,0.22350687,-0.41462043,0.15604989
15.064681,3.0057093999999998,-3.1973032999999997,-0.24598670000000003,-0.7318689,0.6463129
15.281939999999999,0.8634065999999999,-0.42634028,-0.5845457,-0.27461009999999997,0.8975879000000001
11.92618,-2.5384285,2.312071,-0.6207438,-0.13248794,0.50152034
9.9261875,-2.958697,4.485000599999999,-0.4046197,-0.49925143,0.2316401
10.122177,-3.2084985,3.4659038,-0.01441642,-0.27141616,0.19703022
11.958607,-2.5122167999999996,1.7836802999999999,0.35287067,-0.2054078,0.30243066
13.989435,-0.93371946,0.13346238,0.32730159999999997,-0.29963812,0.30084240000000007
14.637613,-0.14341270000000003,-0.13088621,0.15697491,-0.11543608,0.05703736
13.164929,-0.2159953,-0.03601837,0.022305308,0.090024084,-0.24637067
10.770498,-0.005525817,0.2956552,-0.05274385,0.040509094,-0.4342903
8.663859,0.31004915,0.62711805,-0.015498524,0.09213593,-0.49178140000000004
7.058394,0.5507717,0.16121598,0.035604715,0.04691445,-0.38104028
6.4109445,0.65210396,-0.17568652,0.05794493,-0.05103342599999999,-0.23200661
6.458005,0.5663245,-0.31280726,0.05742133,0.0075049159999999995,-0.1564164
6.130593,0.16285361,-0.6011074000000001,0.008447394,0.06873106,-0.06538004
5.7946862999999995,0.042099643,-0.64300597,-0.044226642999999996,0.13473941,0.03255039
5.90843,0.19594146,-0.5301146,-0.036250487000000005,0.14964452,0.11665781
6.3785940000000005,0.31820855,-0.546759,0.005270894,0.1762608,0.12358677
6.80865,0.16287276,-0.8019522,0.020682152,0.13365729999999998,0.115052104
7.061008500000001,0.14524186,-1.0952514,-0.015481071,-0.05953318,0.14594443
7.211259,0.32140723,-1.5373743999999998,-0.05326745,-0.19102629,0.17681931
7.977355499999999,0.53565955,-1.8258468999999997,-0.051679197999999996,-0.07391469,0.17254324
9.283297,1.0495796999999998,-2.8333652000000003,-0.20446531,-0.11810643,0.18266615
11.436641999999999,1.1616188,-3.0164737999999995,-0.37374482,-0.21498966,0.18586011
13.426329,-0.20200358,-3.600075,-0.35456362,0.0021816615,0.08258898
12.891589,-1.4702601,-4.9655266,-0.31038934,0.03359759,-0.021188296000000002
12.053053,-0.70471895,-3.6838050000000004,-0.21935298,0.0085870195,-0.095713854
15.259972,-1.2001559,-1.2026458999999998,-0.19645426,0.13208652,-0.32407275
17.425987,-5.112406,0.36080619999999997,0.13461724,0.22149974,-0.47047096
12.321597,-3.9455294999999997,-0.31139943,0.59295815,-0.14098770000000002,-0.35602972
9.785542999999999,-0.4538736,0.68352544,0.83248717,-0.37414622,-0.336866
9.174667,1.2128643,0.48646346,0.54717815,-0.31133184,-0.30386183
10.416042,2.9363542000000002,0.884782,0.08299041,-0.073391095,-0.269793
12.262708,3.3828826000000003,0.92776275,-0.3407232,0.05862561,-0.20802579999999998
11.80327,1.1151137,0.55270624,-0.5020265,0.3604454,-0.1505521
10.576482,-1.1487379,0.013876793,-0.55311227,0.33330554,-0.041416664
9.892794,-2.1041583999999998,0.26595747,-0.4445179,0.24387486,0.16564920000000002
9.215848,-1.7761817,0.43886676,-0.29494318,0.18957767,0.32054716
8.291322000000001,-1.1555375,0.11657847,-0.26780329999999997,0.06925467,0.3673918
7.220999000000001,-1.0182539000000002,-0.31669542,-0.27365017,0.010175269,0.3104417
6.4915233,-1.3451103000000002,-0.27301559999999997,-0.28644344,0.02560398,0.24867451
6.27821,-1.5384853,-0.05132211,-0.25501007,0.104929194,0.21088813
6.293255,-1.7280486000000002,0.15672444,-0.15121533,0.25452137,0.15924384
6.6001053,-1.8054675,0.33837733,-0.00057595863,0.35405749999999997,0.06290167
6.6969175000000005,-1.5782003,-0.1539759,0.13995795,0.24174555,-0.044610616
7.263347,-0.92058975,-1.0865462,0.21926571,0.018692477,-0.13351768
8.159775,-0.61424685,-2.0014665000000003,0.19104373,-0.13831735,-0.20165534
9.254059,-1.1621455,-2.091297,0.16018632,-0.07285004,-0.27829275
9.585167,-1.8105241,-1.8863628000000001,0.23523548,0.12622221,-0.36507052
9.268289999999999,-2.1173556000000002,-1.7629656000000002,0.34224162,0.19118336,-0.3592062
9.189751,-2.1221821,-1.5746186000000002,0.46252970000000004,0.09960594,-0.2719223
9.2244,-1.2862129999999998,-2.1638124,0.50406855,-0.12500048,-0.14892894
9.479009,-0.20756770000000002,-3.3373926,0.49820423,-0.28523916,0.005410521
9.96006,0.096907705,-4.016436,0.48012263,-0.34060100000000004,0.11667526
11.322074,-0.25328737,-2.227297,0.45668286,-0.30174997,0.153397
14.914776000000002,1.5498528,-3.4652910000000006,0.11440633,-0.43161990000000006,0.43022367
16.968445000000003,2.1178248,-1.6020273,-0.17462020000000003,-0.12341223,0.7735648
12.860828,-1.3891542,1.6356419,-0.22945844,0.03679154,0.5542468
9.101002000000001,-2.2968535,4.1658635,-0.07189011,-0.54927254,0.45416957
8.880621000000001,-3.0038897999999996,3.9762422999999996,0.3486295,-0.6104987,0.42488295
10.790888,-3.4415212,2.4305074,0.7356214,-0.17931512,0.42542399999999997
13.203064999999999,-2.4785542,0.6951708000000001,0.8005825,-0.14896385,0.3956138
15.035778,-0.63139886,-0.5542769000000001,0.61852723,-0.21017255,0.15074408
13.771315,0.3956466,-0.8846671,0.44125414,0.039985493,-0.22825415
11.384458,0.5774431,-0.29869103,0.32574826,0.083112575,-0.46513024
9.042966999999999,0.7098138,0.19117221,0.2656042,0.14540339,-0.55562556
7.3037133,0.75551426,0.23893175,0.24696408,0.09321803599999999,-0.47472957
6.3865137,0.81862545,-0.034409467,0.22725932,-0.0866905,-0.35814157
6.102954,0.80416447,-0.30656317,0.20437805,-0.104248516,-0.28468066
6.1405816,0.49828124,-0.7518272,0.14475761,0.022968533,-0.18299778
6.312810400000001,0.29350040000000005,-0.9441965,0.04680973,0.117181405,-0.096761055
6.5805880000000005,0.20825724,-0.9052380999999999,-0.015446163999999998,0.14008012,-0.01956514
6.9367589999999995,0.40641096,-0.921739,0.016982054,0.15657349,0.01818633
7.076158500000001,0.41602606,-1.2341152,0.054262288,0.08578293,0.058660515
7.2032623,0.40208223,-1.6656556,0.040945426,-0.00842994,0.11348130599999999
7.535395599999999,0.46992436,-2.2769337000000003,-0.041538835,-0.09573131,0.14170328
8.177769999999999,0.5826146,-2.3531842,-0.1831374,-0.08241445,0.17257816
9.43622,1.3588818,-2.6100726,-0.42641884,-0.037175514,0.22794
10.582467,1.7748983,-3.2853522000000006,-0.6680946,-0.12873548,0.25987953
11.566483999999999,0.43162668,-3.3997377999999996,-0.7069456000000001,-0.052604225,0.19439477
12.143994000000001,-1.2829856000000002,-4.2229886,-0.635614,0.026162485,0.0049043754
12.133230000000001,-2.0234644,-3.5561175000000005,-0.44769440000000005,0.07140142,-0.16596335
14.933345000000001,-2.2950435000000002,-1.6217843,-0.2592512,0.19596557,-0.31501448
16.648531,-5.4882956,0.06495948,-0.023439772,0.33810517,-0.36772340000000003
11.266759,-3.3680387,-0.22901976,0.49982738,-0.17664477,-0.32405528
9.698336999999999,0.6403436,0.017276559,0.719128,-0.5748241999999999,-0.2772281
10.396065,2.053344,0.27098534,0.30499628,-0.3347367,-0.24581218
11.387742,2.534684,1.1987671999999998,-0.16290903,0.18160151,-0.23729496
12.878085,2.2394214,1.0504416,-0.39659116,0.27368507,-0.25007078
12.313283,0.5055596,0.47239515,-0.5233021,0.40198424,-0.28520426
10.830381,-1.4748666000000001,0.1093384,-0.50518554,0.36259216,-0.18832102
10.217352,-1.7905276999999997,0.22246923,-0.3114191,0.3152239,0.085817836
9.214832000000001,-1.2273635,0.13683341,-0.21827087,0.19650662,0.31204742
8.082423,-0.6926521,-0.099809475,-0.23209389,0.026703538,0.40041342
7.2720428,-0.7178199000000001,-0.29426655,-0.27787387,-0.017470745,0.362086
6.484197,-1.4059328000000002,-0.2539769,-0.33644712,-0.04462807,0.31630602
5.8541393,-1.8905383000000002,-0.042453982,-0.27469736,0.06075491,0.31949997
5.728616000000001,-1.8222078000000002,0.04643793400000001,-0.14213961,0.24548055,0.26146778
6.135707,-1.3322104,0.14595053,-0.023422317999999998,0.35088098,0.10869910599999999
6.461462,-1.0984118999999999,0.07060022,0.10910053,0.35142204,-0.062692225
6.912453,-1.0021554,-0.6339942,0.21448351,0.26729718,-0.16863371
7.856927400000001,-1.3309654,-1.2365476999999998,0.26028094,0.062360615,-0.23570672
9.606332,-2.1489685,-1.1455488999999999,0.3428001,0.05384341,-0.3490833
10.233460000000001,-2.8971949,-1.4480802,0.5173854,0.17201965,-0.40338048
9.247288000000001,-2.0964491,-1.8846964,0.6472728,0.016039576,-0.3379132
8.680877,-0.7437731,-2.4172149,0.6621779000000001,-0.21656045,-0.20748474
9.333566000000001,-0.16622464,-3.3530507000000007,0.5317669,-0.3714584,-0.030752702000000003
10.379430000000001,0.3793469,-3.7921953,0.35397023,-0.38371062,0.11349876
10.750243,0.7108576999999999,-4.365147,0.23952898,-0.24370033,0.164602
11.526405,-0.17538963,-2.574217,0.08834857,-0.105836764,0.17205456
14.080243,0.865389,-3.0996006,-0.21772982,-0.018535396000000003,0.3530452
15.383589,0.97929555,-1.9546453999999998,-0.58449334,-0.042481314000000006,0.7256729999999999
12.239082000000002,-0.79984534,1.6959279999999999,-0.5477541,-0.09731956,0.5712986
9.055703999999999,-2.325335,3.7367358,-0.35294047,-0.3310017,0.45312238
9.6272,-2.9378578999999996,3.3547937999999995,0.0,-0.49815187,0.39510763
12.1115,-3.1839054,1.9325613000000001,0.37261033,-0.13829988,0.39350194
14.918366,-2.0248435000000002,-0.03955221,0.3933623,-0.08880235,0.32749358
15.458345000000001,-0.6551302,-0.5827486999999999,0.18097319,-0.05099852,0.0352382
13.117391,-0.27307305,0.08976341,0.01860521,0.14859733,-0.35280085
10.676396,0.1057471,0.32919315,-0.0026529005,0.08791223,-0.5550845
8.372686,0.5750394,0.25913882,-0.004782202,0.10281735,-0.5556081
6.681872,0.78307635,0.5972958,0.024469515,0.07407177,-0.46404815
5.553973,0.48758397,0.6051297,0.14638077,0.008063421,-0.339484
5.0335220000000005,0.17869364,-0.03905422,0.21717131,0.0453262,-0.20322613
5.139049,0.06570648,-0.5049467000000001,0.21877702,0.10177015,-0.09354965
5.5885169999999995,0.1174308,-0.60625976,0.16339773,0.16297884,0.009162978
6.2974977,0.33084035,-0.54932564,0.12028809,0.20769417,0.09114109
6.869003,0.5812354999999999,-0.88313484,0.108053334,0.14594443,0.16301376
7.178496400000001,0.68548864,-1.2657378000000001,0.05108579,-0.023317598,0.22156955
7.4110116999999995,0.5611721,-2.0918810000000003,-0.0021293017,-0.22027801,0.19654153
7.8850064,0.20344011,-2.7919072999999996,0.013823007,-0.21017255,0.13105677
9.064362,0.81354976,-3.275948,-0.10166543,-0.26392868,0.13372713
11.496727,2.138204,-3.3292046,-0.33058283,-0.28202775,0.14756759
13.277639,1.8192486,-3.1611795,-0.44608869999999995,0.03202679,0.07517133
12.643482,0.30505959999999993,-3.929565,-0.46736425,0.23856905,-0.04457571
11.365994,-0.6540193,-3.8270166,-0.46312309999999995,0.13901548,-0.13348278
12.90628,-1.2941713,-1.529282,-0.37475708,0.19333012,-0.31021482
17.078386,-5.183648000000001,-0.04910987,-0.20441297,0.096446894,-0.53537977
13.002891,-5.0278525,-0.42651266,0.36409312,0.11294025,-0.42891467
10.434247000000001,-0.06922116,0.3722888,0.58182293,-0.39701006,-0.38419932
10.70098,1.450934,0.49477616,0.36835173,-0.36932912,-0.410292
10.845388,1.3821248,1.3593607,-0.007976155,0.0011519173,-0.27721065
12.256167999999999,1.8876078,1.1333385,-0.34492943,0.063442715,-0.14678219
12.386556,0.7312754,0.57388055,-0.53497833,0.20929988,-0.117513016
10.838637,-1.0383174000000002,0.117957525,-0.60630995,0.39933133,-0.1031315
9.832911,-1.9460167000000002,0.15040375,-0.5216789000000001,0.36791540000000006,0.08314749
9.35135,-1.6086639999999999,0.14263697,-0.39976767,0.4195597,0.3376165
8.424985000000001,-0.91715163,-0.11422257,-0.42425463,0.40997785,0.42118284
7.347028999999999,-0.7659434,-0.13908397,-0.50249773,0.26624998,0.36423275
6.1402655,-1.292438,0.0377805,-0.52113783,0.10442304599999999,0.28012535
5.392680599999999,-2.0299,0.29382600000000003,-0.46949357,0.20024163,0.21944025
5.1318660000000005,-2.2709672000000003,0.37493200000000004,-0.35611698,0.36419785,0.20612338
6.100004,-1.7513393,0.59742993,-0.22090632,0.49727920000000003,0.10871656
7.169455999999999,-1.4448911,0.63810265,-0.03991568,0.49782026,-0.08822639
7.635425,-1.3660836,-0.26085305,0.09847148,0.29606020000000005,-0.20266764
7.873849400000001,-1.4819149999999999,-1.4368945,0.18736109,-0.0877377,-0.19203858
8.467238,-1.6243126,-2.248481,0.26403340000000003,-0.26125833,-0.20266764
9.280491,-1.3385981000000002,-2.341989,0.35824627,-0.18462093,-0.31393236
9.314642,-1.4804306999999999,-1.8535240000000002,0.5275258,0.066636674,-0.35651842
9.275176,-2.3364632000000003,-1.8495495,0.7031930999999999,0.11454595599999999,-0.21865484
9.684709,-2.3657587,-2.816242,0.73726195,-0.2096315,-0.06586873
10.400872,-0.8777048000000001,-3.6694684,0.65688956,-0.58437115,0.036320303
10.976658,0.8384207,-3.024681,0.67179465,-0.41030946,0.053895768
12.8596115,1.8983243000000003,-2.297773,0.30661944,-0.31609657,0.18324211
15.905831,3.7863822,-2.840663,-0.23687609,-0.7015001999999999,0.75602424
14.962017999999999,0.6113834,-0.77348995,-0.64090234,-0.1452114,0.9114633
10.926724,-2.462494,2.9659657000000004,-0.6957406,-0.21121974,0.55054665
8.56177,-3.3058467000000005,4.9165220000000005,-0.38751546,-0.46886525,0.3461337
9.619759,-4.2600894,3.3944511,0.14053391,-0.2532822,0.26150268
12.865828,-3.7455466,1.4801817,0.43224823,-0.283616,0.31845278
15.698618,-1.5771563999999998,-0.16278656,0.31939524,-0.36452946,0.25298548
14.455472,0.41488642,-0.5104917,0.16660912,0.02883284,-0.040317107000000005
11.854392,1.1641375,-0.15552734,0.029269172000000003,0.07515388,-0.2766696
9.674012,1.1384045,-0.12119449,-0.100059725,-0.020647245,-0.40123373
8.209555,0.8571146000000001,0.054683565999999996,-0.21132447,0.044802602000000004,-0.40975094
7.252745599999999,0.64220154,0.09865069,-0.2586927,0.020856684,-0.35491269999999997
6.652471,0.6021034000000001,-0.22478679999999998,-0.27572712,0.020856684,-0.272411
6.4573345,0.46846867,-0.58023953,-0.3199014,0.044802602000000004,-0.16701056
6.300179,0.31416714,-0.50649816,-0.33641222,0.17577212,-0.08768534
6.028398999999999,0.0858465,-0.59935486,-0.3635521,0.28169614,-0.019547688
5.93468,-0.023501484,-0.4753831,-0.33215362,0.24549802,0.047507863
6.282327700000001,-0.060860608,-0.5198961,-0.23633504,0.16884315,0.10606366
6.42733,-0.32206804,-0.86635625,-0.14690436,0.018727383,0.17420131
6.6084179999999995,-0.45529097,-1.5118139,-0.11548844,-0.15053464,0.2088112
7.2935333,-0.11745953599999999,-1.9447047999999998,-0.11442378,-0.18727383,0.19175932
8.632074000000001,0.7700998,-2.4557805,-0.2086541,-0.18353882,0.17900097
10.692361,1.5040854,-2.950873,-0.394968,-0.20270254,0.19177678
12.838294,1.0110427,-2.9735506000000003,-0.47959903,-0.008936086,0.16622515
13.017906,-0.78006923,-3.8520792,-0.42636648,0.18748327,0.039514255
11.452511,-1.6506009,-4.2517004,-0.3380179,0.15606734,-0.050440013
12.601401,-1.1663018,-2.3026762,-0.2778564,0.23006929999999998,-0.17605136
16.860437,-3.5453148000000003,0.19539559,-0.11177088,0.21781708,-0.44860196
13.941935,-5.339884,-0.5634323,0.41575488,0.05333726,-0.50609314
9.259058,-1.696541,-0.40927440000000004,0.7223743,-0.47151816,-0.33094934
9.727632,1.3035662000000001,0.4011437,0.6382669,-0.39433968,-0.3884405
10.403275500000001,1.8532174,0.9204078000000001,0.18259634,-0.07972664,-0.39910445
12.495262,2.282814,1.322107,-0.12348204,0.17151349999999999,-0.29583332
13.146916000000001,1.7033021000000002,0.764143,-0.35397023,0.2928837,-0.20799088
11.831187,-0.09150638400000001,0.7116717,-0.44287730000000003,0.45204028,-0.19682078
10.57902,-1.5159318000000002,0.76528263,-0.37686893,0.4605575,-0.080232784
9.742179,-1.6936584,0.8785666,-0.20331341,0.40306634,0.19177678
9.030662,-1.2499648,0.5502066999999999,-0.097930424,0.24230406,0.40629518
8.240680000000001,-0.9656007,-0.0005841852400000001,-0.13039355,0.10018189999999999,0.44355798
7.4525175,-1.3287149999999999,-0.16884868,-0.19001399,-0.018517943000000002,0.39139009999999996
6.8821520000000005,-1.6040002,0.019297266,-0.19799015,0.05014331,0.33602825
6.6291137,-1.385467,0.063676186,-0.16393878,0.27104962,0.29131290000000004
6.469545,-1.1310114,0.08547300000000001,-0.08461356,0.46694538,0.21678734
6.576948599999999,-1.3361753,0.24441926,0.022357667,0.53881806,0.10021680599999999
6.976723,-1.5041811,-0.09688856,0.11287044,0.45045203,0.009180431999999999
7.613609299999999,-1.6495475,-0.5510686,0.18367845,0.25136232,-0.045081854000000005
8.295583,-1.6846561000000002,-1.04754,0.27893853,0.033632495,-0.09407324
8.254097,-1.3000516000000002,-1.8284518,0.34922293,-0.17767452,-0.15582299
7.867471000000001,-0.7114514000000001,-2.5818112,0.37690386,-0.31075588,-0.21809635
8.060081,-0.7928926,-2.9018776,0.34016466,-0.3512126,-0.21757275
9.223355,-1.1165982,-2.3658063,0.2427404,-0.18566813,-0.12494812
10.742237,-0.60703546,-2.1413453,0.08412487,-0.033405602,0.022497293999999998
11.184552,0.16068923,-2.4845397,0.026633725,0.025132742000000003,0.07785914
10.223261,-0.005267244,-2.705649,0.023963371,-0.08398525,0.05763077
10.535464,-0.41330624,-1.9210787,-0.06332055,-0.2841396,0.06827728
12.916727,0.6097649,-2.9996378,-0.33372440000000003,-0.44755477,0.32698745
14.401132999999998,1.4214950000000002,-0.85880977,-0.7276627,-0.37198200000000003,0.86357147
12.143208999999999,-0.34356794,1.7469436,-0.80590576,-0.35707690000000003,0.77572906
9.744669,-1.9799953000000001,2.8276958,-0.7074343000000001,-0.7403512,0.49679053
9.831914,-3.6991373999999997,3.3244352,-0.33213615,-0.5503023,0.32272884
12.4008255,-3.9563897000000003,1.6513096999999999,0.0069289569999999995,-0.28998646,0.36370915
15.388214000000001,-2.4563646,0.049799397999999995,0.044732787,-0.29213320000000004,0.28173104
15.108179000000002,-0.8721694,-0.36929125,-0.104841925,-0.0951728,0.029408797999999996
12.664006,-0.34554076,-0.034150895,-0.20491910000000002,-0.011588986,-0.23619539999999997
10.690685,-0.050278235,0.18398005,-0.23738223,-0.021711895,-0.39856339
8.940515,0.23136607,0.309781,-0.21608922,0.011815879,-0.45125487
7.524621499999999,0.43501687,0.26043168,-0.16392133,0.017139133,-0.416645
6.632542,0.24356693,0.20457017,-0.088854715,0.027262043,-0.31710887
6.5424914,0.01598369,0.18299362,-0.052132983,0.06133087,-0.25268877
6.4227433,-0.38344577,0.24340414,0.03621558,0.16032594,-0.19467403
6.1926120000000004,-0.7854418000000001,-0.33825279999999996,0.119258344,0.29714229999999997,-0.0935322
6.484542,-0.6284491999999999,-0.352302,0.15917403,0.30085987,-0.020612339
7.0669174,-0.30551928,-0.6491064000000001,0.22040018,0.2540152,0.025691247
7.3139606,-0.15048036,-1.4990958,0.20443042,0.042690754000000004,0.11938052
7.422953999999999,0.014020445,-2.4812070999999998,0.12777555,-0.25165904,0.21361084
7.8474364,0.46991476,-2.7964563,0.07986627,-0.21387264,0.15344934
8.829442,1.3822683999999998,-2.4116795,0.03515093,-0.08611455,0.027820547999999997
9.798653999999999,1.6921356,-2.4657693,-0.09897762,-0.105819315,0.016109388
10.805789,0.96701807,-2.7202537,-0.24431118,-0.09943141,0.10234611
10.978832,0.07493851,-3.353539,-0.3124314,-0.03926991,0.10395181
10.688224,-0.29247567,-3.7550947999999997,-0.30551988,-0.0062657319999999996,0.003874631
11.777873,-0.7074004,-2.0878491,-0.21235421,0.19387117,-0.17231636
16.109041,-3.6224656000000004,-0.7458130000000001,-0.16072737,0.19334757,-0.46722463
14.570220999999998,-6.1702794999999995,-0.5476688,0.25766295,0.23380429999999996,-0.37353536
12.108264,-1.2436633,0.16172354,0.5871811,-0.10634291,-0.44751987
10.838446000000001,0.9658783999999999,0.62344056,0.55789447,-0.2990447,-0.3453134
10.738368,1.3404657,0.5851429,0.3167598,-0.21387264,-0.21436134
11.704381,1.3628561000000001,0.68893635,0.011205014,-0.041922808,-0.07648033
12.052565,0.6963486999999999,0.6951613,-0.27197465,0.21144664,-0.095120445
10.784778,-0.25718516,0.6276352,-0.31403708,0.42224750000000005,-0.15421729
9.903711,-1.1151806999999998,0.08738836,-0.24696408,0.2902308,-0.0136833815
9.635369,-1.3381481000000002,-0.29680437,-0.18627898,0.21090558,0.25087363
9.230616,-1.1628159,-0.3927736,-0.23205897,0.26361454,0.3339164
8.312592,-1.1539093999999999,-0.34949600000000003,-0.30017918,0.21676989,0.32805207
7.4206270000000005,-1.3985201999999999,-0.1571171,-0.29113838,0.11136946,0.27110198
6.989393,-1.7184813,-0.04900452,-0.27623326,0.092729345,0.20455259
6.765755,-1.9062538,0.043833047,-0.22619466,0.1603434,0.1481261
6.918371700000001,-1.7927495,-0.13554054,-0.14474015,0.29607764,0.0927817
7.192507300000001,-1.4494114,-0.29368234,-0.069690995,0.33121112,0.010262536
7.564059299999999,-1.3003388999999999,-0.67861253,-0.006876597,0.25403267,-0.07436848
8.135553999999999,-1.2949662,-1.0559292,-0.0047472958,0.14702654,-0.13505358
8.651927,-1.2916622,-1.415318,-0.013264502,0.06717772,-0.19359192
8.79372,-1.2473887,-1.9843240000000002,-0.038816124,0.018203784,-0.23033111
8.767337,-1.1383566999999999,-2.242055,0.0010995574,0.029391345,-0.28302258
8.557691,-1.1782058000000002,-2.0791247,0.07189011,0.075694926,-0.33573154
8.576365,-1.7294564,-1.4885136,0.14748032,0.20771164,-0.35011303
9.032796000000001,-2.269598,-0.993814,0.26352727,0.2902308,-0.2947512
9.644869,-1.7718720000000001,-1.1570601,0.35189328,0.102852255,-0.14781193
10.037125999999999,-0.25198495,-2.3710162999999995,0.3976907,-0.11964232,-0.033894293
9.788425,-0.07662403,-3.1062756,0.43121850000000006,-0.2633702,0.05497787
11.209728,-0.57589173,-2.3413281,0.30930725,-0.2633702,0.13323843
15.108954999999998,1.4634606000000001,-3.0581713,0.008028515,-0.2633702,0.49042007
16.650494000000002,2.2889142000000002,-2.367224,-0.35927603,0.016091935,0.7970395
12.950417999999999,-1.3826802,1.4503978000000002,-0.521644,0.20025907,0.43558183
10.364068,-2.4066324,3.3585095000000003,-0.36938150000000003,-0.32192597,0.28494245
10.09293,-2.4727411,3.7123532,-0.054785885,-0.48055896,0.30143583
10.655117,-2.6172264,2.5218606,0.21722367,-0.20640263,0.3488215
10.857628,-1.7770436,1.0802254999999998,0.27365017,-0.08077384,0.36320302
11.234839,-0.40651628,0.33985215,0.095853485,-0.058957222999999996,0.27803096
11.896023,0.6867814999999999,0.07633673,-0.103759825,-0.03181735,0.065083325
11.577746000000001,1.003611,0.20526928,-0.25068164,0.083688535,-0.15845844
10.36899,0.85438526,0.51211977,-0.33053046,0.13000958,-0.31763247
9.183803999999999,0.49559018,0.31929073,-0.38161623,0.03790855,-0.35808920000000005
8.276392,0.26149473,0.05599559,-0.44125414,-0.013177236,-0.25694737
7.4740652999999995,0.42074743,-0.10962571,-0.47478190000000003,-0.00040142572999999997,-0.10576695
7.2475553,0.28335854,-0.09351752,-0.46732935,0.053354714000000004,-0.042952552000000005
7.1385994,-0.087848045,-0.26180118,-0.46680576,0.09594075,-0.042411502000000004
7.393064999999999,-0.38485354,-0.324874,-0.48169342,0.13213888,-0.06424557
