accx,accy,accz,gyrx,gyry,gyrz
6.187661,-1.5024095,1.0318626,0.4680973,-0.25261897,-0.15042993
7.395161999999999,-1.5198201,0.9150447,0.24397957,-0.24251350000000002,0.028955012999999998
7.71701,-1.2609973,0.23147142,-0.012583823999999999,-0.37079520000000005,0.17107718
7.166353,-1.0116173000000002,-0.16679925,-0.15896459,-0.25528932,0.101874866
7.0009521999999995,-0.68501943,-0.16648321,-0.14512412,0.2802126,0.009250245
7.2218313,-0.53344727,-0.24314556,0.05979498,0.36538467,0.0816465
7.483766999999999,-0.53792924,-0.30210036,0.19235274,-0.022654373,0.63048273
7.2858524000000005,-0.46934974,-0.64619505,-0.20635028,0.017243853,0.84126616
7.543756,-1.1666753,-1.2320466,-0.6135705,-0.036494836,0.5234766
9.276832,-1.843248,-1.6054846,-0.49274135,-0.083339475,-0.053546699999999996
12.562519,-0.3641868,-2.45919,-0.090826936,0.02310816,-0.2574186
13.196438,1.7078223999999997,-3.1554716,0.114633225,0.13650220000000002,-0.122207955
12.343411999999999,1.1886444999999999,-3.7000375,0.19821705,0.19664624,-0.07962192
12.159778,-1.1858673,-3.5558972,0.060318578,0.0768643,-0.11370819999999998
13.206885,-1.8180897,-1.6943381999999998,-0.12330751,0.13702579999999998,-0.2616772
12.981122000000001,-0.1313076,2.7012053,-0.24307199999999998,0.08379326,-0.48047170000000006
11.904728,2.2520627999999996,4.5059643,-0.2994985,0.053983033,-0.4767367
11.945879,2.999657,3.2578192,-0.32717943,-0.020001473,-0.40540507
9.51428,-0.88424575,1.8991669999999998,-0.28780478,0.13170254,-0.28883454
10.9461565,-2.5510027,2.578651,-0.24361305,0.1934523,-0.14191271
12.571991,-2.8007276,2.7066545,-0.17067574,0.10028662,0.014049901000000002
12.97846,-1.7333828999999998,1.5034245000000002,-0.07698647,0.0034208453999999998,0.17535323
11.308534,0.9134836999999999,1.0721905,-0.013648475,-0.07642797,0.2674368
9.7309265,1.5134611,0.06319735,0.022008602000000002,-0.14988887,0.33822736
8.676357000000001,1.2855523000000002,-0.18339585,-0.033353243,-0.10197959,0.4627915
7.796028,1.1465736999999998,-0.13805924,-0.19943877,-0.04075344,0.4500157
6.9895754,0.65119416,0.12263101,-0.26649433,0.06782349,0.27488935
6.8460282999999995,0.35216790000000003,0.17166427,-0.13341297,0.026302112000000002,0.0726057
6.1728554,0.33790806,0.08715851599999999,0.09546951,-0.26700047,-0.10252064
5.623376400000001,0.6552068,0.27016172,0.24026202,-0.4442561,-0.15041247
5.8013997,0.80655867,0.48364788,0.19607028,-0.24197245,-0.00083775807
6.387232,0.63488483,0.22594560000000002,-0.023230333,0.081122905,0.044383723
6.689007000000001,0.25188917,-0.41474277,-0.21432643,0.09337512,-0.21057397
6.850759500000001,0.034332852999999997,-1.3630861,-0.12117821,-0.16425294,-0.7306646
7.283448700000001,0.27475858,-1.6481588,0.4638387,-0.16638224,-0.8371296999999999
10.344503,0.39846218,-1.6736523,0.62140703,-0.41551054,-0.38145915
13.028258000000001,1.0960558999999999,-0.6328640999999999,0.3302163,-0.08600982,0.10028662
13.747937,-0.4096479,0.5130391,-0.029618237000000002,0.27276006,0.18598229
12.827318,-1.662007,-0.53436667,-0.25371853,0.2653075,-0.022671826000000003
11.669943,-0.44876915,-2.541857,-0.28672270000000005,0.17109463,-0.034382987999999996
11.790179,1.1186188,-3.5357760999999996,-0.1626996,0.15512486,0.013508848
13.662263000000001,1.0905302,-2.0623846,-0.04930555,0.14606660000000002,0.13967870000000002
14.750112,0.043402087,1.5382555,0.035831608,0.13967870000000002,0.3371627
15.124392499999999,-2.090588,5.8899374,0.16147786,0.17428859,0.46811476
10.41923,-2.7098150000000003,4.479015400000001,0.3557679,0.16151276,0.42285836
5.3173876,2.006992,0.9268050999999999,0.48139670000000007,0.16151276,0.25305527
7.705690400000001,3.538247,-0.61077046,0.47713809999999995,0.0789936,0.04490732
13.454820000000002,3.322941,0.7089614000000001,0.35205036,-0.053529248,-0.10784389
13.982004000000002,0.6231437,0.45407470000000005,0.20245819,-0.18395770000000003,-0.12274901
10.404817999999999,-0.8414278000000001,1.4062104,0.082693696,-0.12007865,-0.15042993
9.267868,-0.72394913,1.5890316,0.09492846,-0.079080865,-0.29628709999999997
7.2021804000000005,-0.46764505,1.2801605,0.25727898,0.019373154,-0.49750609999999995
5.807098000000001,-1.2464979999999999,0.9426068000000001,0.47980845,-0.023719024,-0.39795253
6.16483,-2.0758781,1.1961623,0.5383468000000001,-0.13178982,-0.15362388
7.640482,-1.9572311999999998,1.1667902,0.25514970000000003,-0.17064084,0.009773844
8.153636,-1.6098421,0.66455376,-0.14407693,-0.26700047,0.12210324
8.0352955,-0.9231466999999999,-0.004606444,-0.38894662,0.15193091,0.021485003
7.532082000000001,-0.22696073,-0.8197747,-0.342102,0.29991737,-0.13074261
7.1850853,0.29181490000000004,-1.4980997999999999,0.20724039,-0.06365216,0.03000221
7.3492317,0.056407392,-1.7182898999999998,0.44626322,-0.19938642,0.59374356
7.929989,-0.33541809999999994,-1.1611303999999998,0.14761995,-0.049811699999999993,0.9051452
8.233889999999999,-1.7994724999999998,-0.54802316,-0.28087583,0.06675884,0.78377503
9.904141000000001,-2.7722175,0.0032752678000000004,-0.3724358,0.16255997,0.17957693
12.125003999999999,-0.017650055,-1.1871601,-0.27555257,0.22858576,-0.12487831
12.475992999999999,2.06973,-2.7860081,-0.21486749,0.26052529999999996,-0.11103784
11.984301,1.9065314999999998,-4.349968,-0.2356369,0.18545869,-0.07803367
12.170752,-0.51814353,-3.9562936,-0.35327208,0.13383184,-0.17385225
12.844211999999999,-1.206534,-0.42300758,-0.47357765,0.16364206,-0.35058429999999996
12.58582,-0.34211227,4.2865405,-0.57578415,0.11306243,-0.51295227
11.516196,0.5763130999999999,3.086691,-0.6476568,0.058765236,-0.50389403
11.157737,0.7201184,2.409697,-0.64872146,0.04918338,-0.40116394
10.466866,-0.6629161,1.3656144,-0.6407278000000001,0.08805186,-0.2984164
11.780661,-1.1448307,1.8934400000000002,-0.5763252,0.10932742,-0.15683529
12.2832985,-2.2210624,2.2476382000000004,-0.42195079999999996,0.08485791,0.022026055
11.931446000000001,-0.61031073,1.5781237,-0.26012388,0.03960152,0.1513724
11.059842999999999,0.7952197,0.9530072,-0.08658578,-0.05461135,0.22855087
9.743607,0.83708954,0.29448682,0.03424336,-0.18236946,0.28710666
8.381219,0.8788923000000001,0.14846924,0.011868238,-0.28509954,0.43244022
7.4049687,1.0579882,-0.042645518,-0.104684845,-0.22921409,0.49099603
6.5721602,0.9084941999999999,0.07677726,-0.20902063,0.047054075,0.34407422
6.7341137,0.7032248999999999,0.2173935,-0.22020820000000002,0.14126694,0.14179055
7.155320599999999,0.53153193,0.16052642,-0.007801621700000001,-0.14137167,-0.12330751
6.7443029999999995,0.2500696,0.49336836,0.16465436,-0.31012756,-0.25104815
6.6692595,0.18884505,0.79665625,0.22746876,-0.058328904,-0.14512412
6.895616499999999,0.06356127,0.7009552,0.12313298,0.15936601,0.013491395
6.908526400000001,-0.33819535,0.31697315,-0.13610077,-0.074298665,-0.22284363
6.5765944,-0.57767296,-0.548435,-0.021642083,-0.30213395,-0.8222421
6.322071599999999,-0.1881651,-1.9794493999999998,0.36800268,-0.23986060000000003,-0.8275653000000001
9.521606,0.66844195,-2.2057397,0.36479127,-0.26806512,-0.24307199999999998
13.705732000000001,1.6316676,-0.80806226,-0.05412266,0.09442231,0.26633725
14.345711999999999,-0.29761845,-0.103257135,-0.4262094,0.31002283,0.1582839
12.978689,-1.8609748,-0.22071666,-0.567808,0.17959438,-0.06527531
11.625956,-1.2637267,-2.1506732000000004,-0.4719894,0.027890362000000002,-0.06633996
10.727153999999999,0.16001886,-2.5509644000000002,-0.32135,0.049706977,0.040107667
11.967350999999999,0.7101298,-0.9979319999999999,-0.21807889999999996,0.16948892,0.26900759999999996
14.41795,0.10002017,2.0769987000000003,-0.19997983,0.24347343,0.48141417
15.84521,-1.471122,4.912499400000001,-0.11267845,0.2136632,0.50003684
9.6336355,-1.358652,2.9617712000000003,0.05445427,0.18332939,0.34513885
5.9253907,2.6671598,0.3925725,0.11513937,0.20301670000000002,0.10185742
9.803212,3.6888328,-0.12403879999999999,0.066706486,0.18865263,-0.09243264
14.898734,3.1095507000000002,1.1099328000000002,-0.021642083,0.09496336400000001,-0.1669582
13.515039000000002,-0.4803343,1.0021361999999998,-0.10416125,0.02628466,-0.13021901
10.095046,-1.4201447,1.4038258,-0.14196508,-0.008290314,-0.17015214
8.592262,-0.88678354,1.3610175,-0.07436848,-0.13713051,-0.28087583
6.638097,-0.71364444,1.0271603999999999,0.13056809,-0.16533504,-0.35433674
5.820812,-1.1475600000000001,0.9584181,0.39194858,-0.2904228,-0.1653525
6.3358426,-1.612265,1.5182399,0.43240532,-0.14882423,0.024137903
7.531584,-1.723107,1.5542295,0.21308725,-0.22654374,0.14337879999999997
7.5193734,-1.5416169,0.7591821999999999,0.020909045,-0.25848326,0.18755308
7.4538199999999994,-1.2052029,-0.072831616,-0.059986967999999995,0.08909906,0.096516706
7.6668754,-0.5679621,-0.52235734,0.098087505,0.18011798,-0.011519173
8.103904,-0.093938895,-0.9435836,0.48616147,-0.1749169,0.3302163
8.111958,-0.07717949,-1.0767204,0.29078930000000003,-0.20633282,0.83060217
7.921963000000001,-0.60580003,-0.95913637,-0.15421729,-0.054087754,0.8540245000000001
8.123938,-2.2314439999999998,-0.7943195,-0.30112165,-0.06258751,0.33501595
10.929675,-2.6628025,-0.4880724,-0.081279986,-0.041835542999999996,-0.12330751
13.4539,-0.34823185,-1.7009845000000001,0.07998844,-0.08868018,-0.15524703
12.796635,1.1503756,-2.7804822999999996,0.19497073,0.07365289,-0.14885913
11.220042999999999,0.30370927,-3.7539742,0.23490386,0.123691484,-0.15631169
11.532305000000001,-0.9366979,-1.9752738,0.17900097,0.16947147,-0.26118850000000005
12.191716,-0.39154777,1.8507561999999997,0.09276425,0.13913764,-0.38734093
10.7855625,0.5984163,4.395132,0.010786135,0.085905105,-0.43737950000000003
11.59329,1.9698342,3.2890587,-0.07276278,0.08538151,-0.40383428
11.4134655,0.87555957,1.4882166000000001,-0.17816322,0.1332908,-0.29204595
12.152642,-1.4575326000000002,2.1006150000000003,-0.24097762,0.14179055,-0.16111134
12.003598,-2.848832,2.6770334,-0.18296286,0.020961404,0.02412045
12.301907,-1.9969078000000002,1.4355059,-0.08075638,-0.084421575,0.16571902
11.80171,0.30470526,0.9142976999999999,-0.024853487999999996,-0.16161749,0.28550094
10.473924,1.0826868,0.3458185,-0.022200587999999997,-0.053546699999999996,0.36960837
9.108128,0.89980805,0.3159676,-0.12705997,0.07419395,0.48404962
7.778072,0.79336184,0.2140991,-0.26068237,-0.047158795999999996,0.4670152
6.499281,1.0060626,0.30616096,-0.3474427,-0.045029495,0.25195572
6.1663237,1.1981926,0.2139363,-0.2846283,0.049706977,0.025726152999999998
5.7907696,1.2048101,0.37790078,-0.011013027,-0.16852899,-0.124913216
5.6251964999999995,0.93643934,0.6080601999999999,0.19657643,-0.33622023,-0.15685274
6.1151165999999995,0.73059547,0.7793701,0.18964748,-0.07538077,-0.00408407
6.623645,0.303489,0.15285541,-0.026459191,-0.017889624,0.09332275400000001
7.083667,0.25273192,-1.039074,-0.33946654,-0.27340582,-0.2335076
7.707768400000001,0.7581095999999999,-1.5997864,-0.14037684,-0.15735888,-0.772762
8.396915,1.0319393,-1.1967753,0.39299577,-0.095609136,-0.93830645
10.508065,0.54250693,-1.2248065000000001,0.59688514,-0.33993778,-0.44589671
13.087731,0.52734685,-0.69372475,0.36372662,-0.018413223,0.07628834
14.147079000000002,-0.53032523,-0.26987442,0.18114772,0.024678955,0.11674507
12.842556,-1.0588405,-0.8735963,0.032620203,-0.02321288,0.07895869999999999
11.381307000000001,-0.05146576,-2.6976044,-0.024853487999999996,0.03000221,0.07681194
10.489467,1.2435389,-2.7697945,0.028885199,0.18544123,0.07468264
11.374775,1.0839988,-0.9280883,0.13215633,0.27167794,0.17849483
13.295777,-0.5310914000000001,1.8997799,0.28759536,0.25251424,0.3333928
15.071279999999998,-2.9810205,5.2026769999999996,0.49413761,0.17427112,0.40578905
11.050419,-3.2537966,4.1065059999999995,0.669805,0.10239847,0.34458035
6.299489,1.7362751,1.2034023999999999,0.70120347,0.1316851,0.16624261
10.197422,4.119071,0.58397454,0.6069906,0.03799582,-0.022706734
14.510663000000001,3.245618,1.2883200000000001,0.45474553,-0.09986774,-0.07754498
12.864333,-0.073961675,0.59406847,0.29611257,-0.16639969,-0.08552113
10.400747,-1.1067437,0.77580756,0.15505505,-0.07431612,-0.19465657
8.92635,-0.9265655999999999,1.1710615,0.19868828,-0.11690215,-0.33625513
6.4455743,-1.299994,1.6823384999999997,0.36425019999999997,-0.07909832,-0.4150393
5.228716400000001,-1.9758963999999999,1.8000852999999999,0.49413761,-0.16481145,-0.16271704
6.11369,-2.191001,1.8273984,0.35414475,-0.0013788101,0.05766568
7.4855576,-1.7407666000000002,1.0606027,-0.08714429,-0.084421575,0.14123204
7.750700999999999,-1.0893521000000002,-0.02594357,-0.40388665,-0.025342181000000002,0.0879995
7.535319,-0.5425644000000001,-0.7373088000000001,-0.42996186,0.32651618,-0.099902645
7.318318,0.15366945,-1.314704,-0.120148465,0.23867378,-0.20582668
7.567286,0.5103959,-1.7652448,0.44942227,-0.20579177,0.21416935
7.800041,0.15674359,-1.214885,0.31899384,-0.2377313,0.79970986
7.824194,-0.58100575,-0.4946325,-0.08714429,-0.08602728,0.89606947
8.509317999999999,-2.1695203999999997,-0.6543066,-0.33681363,-0.09506808,0.48404962
11.649381,-1.7255107,-1.1657368000000001,-0.22661355,0.12529719,-0.047734755999999996
13.689882999999998,1.6537422,-2.97606,-0.09087929,0.15030776,-0.13503613
13.090968,2.4265907,-4.0962396,-0.11269591,0.13700834,-0.073809974
11.9782095,0.19115306,-4.4569790000000005,-0.22874285,0.13859660000000001,-0.10042624
12.381336,-1.6808254,-2.0983167000000003,-0.4139920999999999,0.108786374,-0.20369738
12.3090315,-1.3010666000000002,1.9160031000000002,-0.58700657,0.13007939,-0.35116026
11.1434965,0.20133321,4.4815435,-0.6987774999999999,0.10506882,-0.45389032
11.718803,2.2584313999999996,3.113506,-0.7472278,0.10665707,-0.46560147
10.118069,0.63537323,1.7817266,-0.81110686,0.09920452,-0.39694023
10.2319565,-1.7337276999999998,1.6166416000000001,-0.83931136,0.09335766,-0.23883085
12.242558500000001,-2.5500355,2.6085403,-0.7190233,0.001256637,-0.01844813
12.492436,-2.091929,1.952232,-0.4741536,-0.08016297,0.15240215
12.390741,0.39609674,1.1015913,-0.27612853,-0.12596041,0.23757422
11.066134,1.5689491000000002,0.36642779999999997,-0.15421729,-0.14458308,0.29880038
9.545089,1.2051357,0.06186617,-0.14995869,-0.08709193,0.41430625
7.9758806,1.0262028,-0.07420109,-0.24471262,-0.10464994,0.5127952
7.14085,1.0689822,0.093335554,-0.30646235,-0.029600783999999998,0.39355429999999997
6.5699762999999995,1.0921774,0.25159228,-0.23886576,-0.017889624,0.18860027
6.517639599999999,0.9030258,0.20440736,0.03473205,-0.19355701,-0.019512782
6.150733,0.42369708,0.29739815,0.2865307,-0.3782652,-0.12917182
6.078744,0.04520253,0.68050873,0.36798522,-0.25530675,-0.016318828
6.5067315,-0.23364535,0.63653207,0.14014994,-0.06154031,0.18701203
6.658409,-0.5579352,-0.21468328,-0.30806807,-0.26541220000000004,0.064577185
6.560936,-0.6587119,-0.9848214,-0.52099824,-0.4256509,-0.44963172
6.5709824999999995,-0.14089398,-1.3671082,-0.095137894,-0.053546699999999996,-0.99686223
8.764128999999999,0.5293197,-1.4402752,0.45846307,-0.23240805,-0.8211949000000001
12.553058,1.0867187,-0.52495265,0.54949945,-0.13500121,-0.21062633
13.876918,-0.3690614,0.03517561,0.30569443,0.12582079,0.13323843
13.410077,-2.0138013,-0.34388396,0.09009389599999999,0.055012777,0.15079644
11.840304,-1.3775375,-2.3957531000000003,-0.032847095,0.035866518,0.17210692
10.575974,0.46211922,-3.5443761,-0.03338815,0.14978416,0.17795376
11.003646,1.4581646000000001,-2.5916276000000003,0.04485496,0.23760912,0.19233528
12.520823,1.0653815,-0.5395765,0.15025539999999998,0.25411993,0.2854835
14.188222,-0.57323897,3.1288099999999996,0.3083473,0.27380726,0.37119663
15.473706,-4.221447,5.7095294,0.56066954,0.20886356,0.40952405
8.118058,-2.0131693,3.0484412,0.75391245,0.21844539999999998,0.30199432
7.713648299999999,2.3134692,0.78322953,0.71291465,0.20141099999999998,0.08478809
12.119036999999999,4.251767,0.974057,0.5585403,0.08962265400000001,-0.058904864
13.337389000000002,2.190139,0.34460223,0.37702602,-0.005637413399999999,-0.14194763
10.922500999999999,-0.49596369999999995,0.40681317,0.18804178,-0.008831366,-0.19997983
9.062101,-1.1654016,0.80142546,0.07093018,-0.06260496,-0.29473376
7.7620687,-1.4172716,1.0938054,0.17793632,-0.1765226,-0.41023964
6.4371467,-1.734082,1.0123259,0.41107740000000004,-0.23827235,-0.31496212
6.149019,-2.4538173999999997,1.2886839,0.44409904,-0.25902432,-0.047734755999999996
7.171726,-2.1258597000000004,1.4693215,0.16728981,-0.26275933,0.07894124
8.016428999999999,-1.1927242,0.76660424,-0.115366265,-0.26647687,0.21947515
7.488929,-0.9253014999999999,-0.11423215,-0.23993040000000002,-0.034382987999999996,0.08000589
7.5679474,-0.45232219,-0.8488976999999999,-0.20799088,0.28071874,-0.08234464
7.866916000000001,0.23764847,-1.545553,-0.029653143,0.42976987,-0.09192649
7.929989,0.24835533,-1.8135791,0.010786135,0.1944995,0.3504272
7.912099,-0.044618342000000005,-1.4668889999999999,-0.40228093,0.024678955,0.83697265
7.8456073,-1.1107947,-0.9336908000000002,-0.83507025,-0.0067020644999999995,0.64640015
9.089853999999999,-2.53047,-0.56588393,-0.68814844,0.01616175,0.023038346
12.380206,-0.78795093,-2.0084767,-0.3229732,-0.06633996,-0.24949482
13.990526999999998,1.7236528000000002,-2.8375025000000003,-0.13878858,0.009773844,-0.23670155
13.065533,1.4998332,-4.1178546,-0.076515235,0.007644542,-0.17442821
12.189992,-1.2083919,-3.6273690000000003,-0.1627345,-0.1115789,-0.1557881
12.293527000000001,-2.1117049999999997,-2.3077419999999997,-0.27080529999999997,-0.068451814,-0.2186025
12.03321,-0.9016276,1.281166,-0.32136747,-0.084421575,-0.38575268
10.408352,1.1792018,3.5113172999999995,-0.3117856,-0.095609136,-0.40119883
11.02823,3.6927977,3.6786718,-0.2883633,-0.013631022,-0.27396435
9.859045,0.053486465999999996,1.9689436000000002,-0.35171875,0.20727529999999997,-0.1052259
11.176775,-2.660887,2.8137712,-0.45766023,0.23654447,0.032620203
11.746423,-3.335985,2.4228172000000003,-0.47469464,0.15030776,0.13004448
12.385272,-2.1704682999999996,1.0738952,-0.4049513,0.03052581,0.15666075
11.083459,0.57401466,0.8598249,-0.34107223,-0.053546699999999996,0.12739158
9.451388,1.204724,0.041592073,-0.40015164,-0.06846926,0.17156586
8.885726,0.69800556,-0.18098250000000002,-0.508746,0.049165923,0.27164304
8.141473,0.43539992,-0.22813869,-0.51194,-0.048764499999999995,0.22853342
7.1538363,0.54419243,-0.0220075,-0.3155206,0.1316851,0.09916960400000001
6.857491499999999,0.7634726,-0.12923901,0.002268928,-0.005654866999999999,-0.024853487999999996
6.1680765,1.0400412,-0.1856464,0.31686452,-0.26223573,-0.20265017
5.8365464000000005,1.1627393,-0.17932571,0.43664646,-0.3021514,-0.21701424
6.373949,0.9563111999999999,-0.05032612,0.42174137,0.1577603,-0.031241393
7.4090679999999995,0.21181981,-0.47240472,0.2742785,0.24825563,0.056042522000000004
7.938694,-0.58248055,-0.9966296,0.18325958,-0.39264673,-0.4256858
7.521049499999999,-0.47727934,-1.9479224999999998,0.64690626,-0.25743607,-0.8302530999999999
7.834575,0.34649843,-1.5994704,0.85292494,-0.1871691,-0.5076639000000001
10.587035,1.0774290000000002,-0.8111843000000001,0.53085935,-0.06419321,-0.039741147000000004
12.330300999999999,-0.10387005,0.1344009,0.18006562,0.268484,0.10555751599999999
13.013712,-2.4565275,0.5407544,-0.027523842000000003,0.19182913,-0.033370696
12.667357,-2.5669383999999997,-1.2786857,-0.06798057,0.10239847,-0.012601277
11.430666,-0.96342677,-2.5768983,-0.0072954763,0.1402023,0.060301125
11.594275999999999,0.26793033,-1.9308470000000002,0.04431391,0.2578375,0.16090190000000001
13.540006,-0.11769896,0.7127155,0.10499900599999999,0.268484,0.36426768
15.585726999999999,-1.2674139,3.7710209999999997,0.21467550000000002,0.2637018,0.5085366
12.879388,-1.3533561,3.8666453,0.40043090000000003,0.12901473,0.5090602
6.927708999999999,2.05818,0.9235871999999999,0.5367236999999999,0.10133382,0.33978070000000005
8.393142999999998,3.2569091,-0.4626651,0.43451717,0.14285520000000002,0.07468264
13.651575,2.8520209999999997,0.7735283000000001,0.16088445,0.10665707,-0.15367624
13.637162,0.7370023,0.7161249,-0.14037684,-0.006178465699999999,-0.27344072
10.064179,-0.42155188,0.93184245,-0.30061552,-0.03651229,-0.30325097
8.808335000000001,-0.18278293,1.175802,-0.2904926,-0.14830063,-0.34051374
7.3198886,0.22993913,1.2625966999999998,-0.07862708,-0.16852899,-0.39055229999999996
6.027249299999999,-0.48563987,1.1017925,0.24872687,-0.13287191,-0.40652209999999994
5.974835400000001,-1.9156965,1.2198553,0.5452409,-0.15416493,-0.11321951
7.476862400000001,-2.0827544,1.29918,0.46593308,0.008185594000000001,0.13004448
8.683319000000001,-1.3442773000000001,0.4816751,0.14013249,-0.14564772,0.2812249
8.279456,-0.53533393,-0.87605757,-0.10098475,-0.13658947,0.26686084
7.620025999999999,-0.20531715,-1.3861088,-0.21596704,0.29510027,0.08478809
7.624182000000001,0.31613040000000003,-1.5182016999999999,-0.06691592,0.30628783,-0.010471975
7.517429400000001,0.27690378,-1.318209,0.16249016,-0.0072431164,0.45741588
7.288964999999999,-0.25189874,-1.0455191,-0.18243927,-0.055152405,0.8412312
7.6105350000000005,-1.4288788000000001,-0.77946585,-0.54654986,-0.1158375,0.6256482
8.673618,-3.0288377,-0.2630557,-0.52312756,0.016685348,0.06881833
11.770853,-2.2494195,-0.47607264,-0.22183135,0.10239847,-0.20477948
13.091561,0.4882352,-1.9047886000000003,-0.024870941,0.12636183,-0.08286823
12.239063,1.8615971999999998,-3.212712,0.12044517,0.15936601,-0.017383479
11.326653,0.52340126,-4.036815600000001,0.10979866,0.13913764,-0.058904864
12.670154,-0.4740328,-2.3665152000000003,-0.020612339,0.20195204,-0.23724261
13.220761999999999,0.2581907,1.8207330000000002,-0.17444566,0.2136632,-0.46879545
11.794564999999999,0.99375653,3.7274466,-0.2553591,0.12582079,-0.52841586
11.818421,1.5294543999999999,2.9760215,-0.25377086,0.08375835400000001,-0.45123739999999996
9.887611999999999,-1.3869035,1.5543061000000002,-0.23513076,0.16521287,-0.31124458
11.603595,-2.1925142,2.2638613999999997,-0.19573867,0.11676253,-0.11960741
12.833697,-2.4404194,2.6041636,-0.10311405,0.05235988,0.048589967000000005
12.504963,-1.2189072,1.7776182,0.012915436,-0.032794736,0.17743017
11.340625,0.31060457,1.2178538,0.08637635,-0.12170181,0.22479841
10.322092999999999,0.5679717,0.36322913,0.06721263,-0.20846212,0.26366690000000004
8.942946000000001,0.688898,0.09449436,-0.03338815,-0.21910863,0.37330848
7.409355000000001,0.8493287,0.09310571,-0.1776396,-0.13980088,0.43985787
6.376803400000001,0.9848214,0.3547249,-0.26494098,0.012967796,0.3115762
6.2152805,1.1323712,0.41480023,-0.12601277,0.100810215,0.09864601
6.1589117,0.97900826,0.45983037,0.19390608,-0.10997319,-0.113743104
5.920871,0.55870134,0.49537948,0.44568726,-0.20155062,-0.18029252
6.073132,0.29466876,0.6154918,0.49253193,0.04012512,-0.044017203
6.4910927,0.35097083,0.34816483,0.23542747,0.037454765,-0.02963569
6.862184,0.23482329999999998,-0.35249352,0.07838274,-0.34899604,-0.5529203
6.9468913,0.40676528,-1.432403,0.4754975,-0.30641,-1.0027266
7.281735,0.91628975,-2.038768,0.6511649,-0.5012411,-0.5348212
10.215666,1.323984,-1.4401411,0.4079009,-0.2611536,0.047001716
13.535601000000002,0.8311806999999999,-0.66305023,0.0336674,0.15030776,0.28867745
13.971623000000001,-0.96201897,0.5172720999999999,-0.14091788,0.18544123,0.05178392
12.695972,-1.8428745,-0.49505386,-0.15049975,0.05555383,-0.041346848
11.226383,-0.5022555999999999,-2.0465252,-0.014224433,-0.03811799,0.006021386
11.201464,0.5051287,-1.6743035,0.066147976,0.04384267,0.119397976
13.303938,-0.30496383,0.5550909,0.057613317000000004,0.20725785,0.30304152
16.620520000000003,-1.5798571000000001,3.5630796,0.06454228,0.29564133,0.40952405
14.630392,-1.7947606,4.3421435,0.21306979999999998,0.23015657,0.3770435
6.6287303,1.9010345000000002,1.359284,0.32538173,0.16627751,0.27536058
6.577379700000001,4.2811580000000005,-0.88671654,0.30515337,0.11304498,0.08159414
11.512097,3.445668,0.3605093,0.17259560000000002,0.03265511,-0.102573
15.195845000000002,0.6248005,1.3056155,0.024626596,-0.10412634,-0.17123425
11.759553,-1.4306408000000002,1.7427394,-0.07756243,-0.116361104,-0.17762215
9.682065,-0.7947313,1.7582442999999999,-0.085014984,-0.085486226,-0.24150121
7.9258995,0.0046926355,1.2195871999999999,0.048572514000000004,-0.06633996,-0.38364083
6.3236322,-0.45595178,0.7515495,0.25246188,-0.14299482,-0.41238640000000004
6.0018134000000005,-1.2504436,1.0137337,0.39831904,-0.16852899,-0.18081611
6.8230534,-1.6422979,1.5940212,0.31421164,-0.08974483,0.0022863813
7.4952397,-1.5866661,1.0400412,0.0017278759,-0.20207421,0.17688912
7.702999,-0.96962297,0.20421584,-0.23726006,-0.02427753,0.158249
7.4344463,-0.32141677,-0.43034340000000004,-0.26122344,0.3462035,-0.006754424
6.8805337,0.039092526,-1.1745284,0.12150982,0.07897615,-0.033894293
6.8895645000000005,-0.06341761,-1.5399697,0.44940484,-0.20900318,0.45209265
7.487971300000001,-0.33463278,-1.1572806,0.13533282,-0.092415184,0.9599310999999999
8.367647999999999,-1.2690992,-0.66726404,-0.33894295,-0.008848819,0.9216037
9.542005,-2.486972,-0.26367822,-0.46244243,0.039584067,0.30677652
12.257622999999999,-1.082093,-0.82550156,-0.29848620000000003,0.08908161,-0.1637817
12.782364999999999,1.1914601,-2.101956,-0.20532054,0.08110545,-0.19891517
12.079677,1.579024,-3.8398015,-0.13559464,0.06140068,-0.18081611
11.586030000000001,-0.3505207,-4.110279,-0.14570008,0.040648717,-0.20052087
12.837499000000001,-1.1378396000000002,-1.3305726999999998,-0.18722147,0.060353484000000006,-0.30483920000000003
12.485254,0.1008342,3.6132812000000007,-0.23460716,0.07311184,-0.42942079999999994
10.762597999999999,0.47895527,3.5111544,-0.30539772,0.057683133,-0.46560147
11.8343,2.3791852000000002,2.378716,-0.35171875,0.0821701,-0.4214272
10.527592,0.74591833,0.9265465,-0.42305034,0.12742649,-0.34742525
11.649094,-1.8597871,2.1457794,-0.4725479,0.09121091,-0.20636773
12.006241000000001,-3.7284330000000003,2.5515008,-0.41079813,0.0198793,-0.041346848
12.319393,-1.7788918000000002,1.6153487,-0.27665213,-0.057822755999999996,0.118333325
11.8174925,0.9644994,1.1389505,-0.11323696400000001,-0.10199704,0.2556733
10.538625,1.4425736999999998,0.37136942,-0.05681047,-0.04982915,0.34829790000000005
9.181227999999999,0.90080404,0.21225077,-0.14943509,-0.024818582000000002,0.4680624
7.924328999999999,0.56897724,0.100700125,-0.33096677,-0.063669614,0.46434486
6.739217999999999,0.33695040000000004,0.06406884,-0.41240385,-0.025342181000000002,0.22319270000000002
6.307869,0.8462641,0.18980274,-0.26122344,-0.022689281000000002,-0.016877335
6.1188902999999994,1.1920921999999998,0.27522784,0.037926003,-0.3005457,-0.14833553
5.8152669999999995,0.9811343000000001,0.44770613,0.22956316,-0.32824406,-0.17229891
5.9805913,0.61506087,0.5837255,0.22956316,-0.0013962634,-0.006754424
6.2752028,0.16963397,0.35389176,0.07731809,0.06352998,0.009721484
6.5360847,-0.32382056,-0.4654424,-0.11908381400000001,-0.3042807,-0.3889641
6.798374000000001,-0.035874717,-1.0502502,0.09648179999999999,-0.24413666,-0.86805695
7.768275,0.5861006,-1.3809372,0.3605152,-0.22176154,-0.72165877
11.051950999999999,1.1446678999999997,-1.303662,0.21359339999999996,-0.17971656,-0.16804029999999998
14.324470499999999,0.9887190999999999,-0.42254788,-0.14943509,0.11836823,0.15985471
14.043994,-1.0833571000000002,-0.025378538,-0.36077702,0.13966125,0.05445427
12.510451,-1.3294905000000001,-1.2106808,-0.339484,0.05555383,0.048066366
11.4284725,0.12137645,-3.024681,-0.17498670000000002,0.027872908999999998,0.117268674
11.43399,0.9900024,-2.5855749,-0.04722861,0.1412495,0.18380062
12.961739,0.37829345,-0.3925533,-0.0009250244999999999,0.23174481,0.2860071
14.240376999999999,-1.1797476999999998,2.5875478,0.061889375999999996,0.27806586,0.39514256
14.162651,-2.5760747999999998,4.437624,0.22265165,0.25144958,0.38449603
8.541352,-0.052768204000000006,2.3471127,0.37170276,0.23387411,0.33285174
7.664156,3.5182123,0.10758585,0.415336,0.13912019,0.15931365
11.814150999999999,4.1322584,0.46361320000000006,0.32164672,0.012967796,-0.033370696
14.229047,1.5735556,1.0989003000000002,0.11618657,-0.14564772,-0.13823007
11.476614999999999,-1.0938531999999999,1.5243308999999998,-0.06054547,-0.17706366,-0.18081611
9.403678,-1.1590331,1.5609812,-0.1643402,-0.1871691,-0.25640630000000003
7.987976,-1.0802924999999999,1.3618793,-0.040299654,-0.17971656,-0.32667327
6.3605704,-1.3613335,1.1526836,0.23647466,-0.17332865,-0.31070352
6.129453,-1.8579580000000002,1.2235806999999999,0.4776268,-0.21964969,-0.072221726
7.1613926999999995,-1.6803273999999997,1.4308228,0.37594393,-0.063669614,0.10075786
7.8645124000000015,-1.3589969,1.1287607,-0.02167699,-0.1850398,0.21895155
7.651801600000001,-1.1281383,0.48160803,-0.33894295,-0.077510074,0.16517796
7.2475834,-0.6159802,-0.50559795,-0.42837359999999997,0.2668783,-0.021118484
7.185507,-0.022467189,-1.3926305,-0.0967436,0.18809414,-0.13131857
7.5412083,0.26202142,-1.8433244999999998,0.33337533,-0.22762585,0.26738444
7.619364699999999,0.0063685765000000005,-1.6376722,0.17845991,-0.16854644,0.77255255
7.9610367,-0.8574497999999999,-1.1074427,-0.28145180000000003,0.06620034,0.95780176
9.21963,-2.832982,-0.24078007,-0.49171162,0.06033603,0.48563787
12.287942999999999,-1.7065869999999999,-0.64269954,-0.33522537,0.034260813,-0.05199336
12.908903,0.99026096,-2.2815115,-0.16805775,-0.064734265,-0.16858135
12.209596000000001,2.3076274,-3.8115883000000004,-0.06798057,-0.021607175,-0.21540853
11.497607,0.5538841999999999,-4.6458525999999996,-0.031799898,0.01616175,-0.23565435
11.650558,-1.2164172,-2.3334656000000003,-0.065327674,0.099728115,-0.29208085
11.974542,-1.2073002,2.2371995,-0.13878858,0.027331855,-0.40119883
10.748874,-0.43764094,3.349335,-0.21970205,-0.065798916,-0.43739697
11.29322,2.0732253000000003,2.9132453999999997,-0.26335272,-0.09986774,-0.3623478
11.150286,1.0301101000000001,2.1917002,-0.28731609999999996,-0.028536132999999998,-0.286234
11.891263,-1.1912016,2.5997488,-0.30593875,0.007644542,-0.18826866
12.100430000000001,-3.2001283,3.048336,-0.22608995,-0.06686357,-0.07648033
11.837058,-2.9040039,1.8252723000000002,-0.05148721,-0.10199704,0.04485496
11.161261,-0.48780423,1.0916313999999998,0.103934355,-0.062081363,0.17369516
10.136054,0.8892639999999999,0.40052122,0.10978121,0.16680111,0.3046472
9.084253,0.9761255999999999,0.22617544,-0.06054547,0.27965412,0.40578905
8.07705,1.0820258999999999,0.10955867,-0.2766696,0.028396507999999997,0.3658559
6.978733999999999,1.0414298,-0.00341892,-0.40762165,-0.06899287,0.094369955
6.4748019999999995,1.0712329,-0.12402923,-0.2926219,-0.024818582000000002,-0.12119567
6.7064652,0.80954665,-0.35698503,0.008115780999999999,-0.21432643,-0.20584413
6.4491559999999994,0.44675803,-0.41032785,0.22104596,-0.27394688,-0.15367624
6.4649954,0.23195983,-0.19506039,0.2151991,-0.09135053,0.004956735
6.804493400000001,-0.07513005,-0.37668455,0.09489355,0.05607743,0.048589967000000005
7.0318565,-0.09276095,-1.279787,-0.023282692,-0.07805113,-0.20265017
7.969943499999999,0.45069408,-1.3387418,0.046443213,-0.18771017,-0.6577797
8.670152,0.99027056,-0.96107084,0.4776268,-0.056217055999999994,-0.77010906
10.15698,1.3092836,-1.1006528,0.5399001,-0.1802576,-0.22926645
12.520391,1.0032088,-0.673872,0.11351621,0.07737044,0.16676621
13.157777,-0.7150236,-0.38379052,-0.25324726,0.18544123,0.11566297
12.785746000000001,-1.4057794,-1.2997546,-0.42146212,0.090687305,0.012391837
11.226986,-0.14733917,-3.1320755,-0.4044277,0.12901473,0.032079153
10.857485,0.8171123,-2.9285683999999996,-0.30220374,0.21258110000000002,0.08372344
12.286152000000001,0.3266936,-1.1626914,-0.1600816,0.28871235,0.25247929999999996
14.293614000000002,-0.8231553,1.6089514,-0.07278023,0.310529,0.43292892
14.766986,-2.316668,4.469965,0.046984263,0.20938715,0.44570473
10.325685,-0.8979693000000001,3.6800702000000003,0.19069467,0.12688543,0.36852628
5.649004,2.6695349999999998,0.47362098,0.21092305,0.18809414,0.19444713
9.233967,3.4774055,-0.22042936,0.12522738,0.17585938,-0.012077678
14.284248000000002,3.5386972,0.83356524,0.018221237,0.10079276599999999,-0.13079497
12.710280000000001,0.32590833,0.5977268,-0.05681047,0.052883476,-0.15315264
10.044845,-1.0626521,0.8604569,-0.08768534,0.06726499,-0.19041543
8.543353999999999,-0.8426632,1.2052889999999998,0.04483751,0.009773844,-0.2846283
6.804119999999999,-0.7409671,1.3322008,0.32005847,0.00019198621,-0.3623478
6.1258907,-1.4190242,1.0024427,0.5388354999999999,-0.15577063,-0.1648638
7.026225599999999,-2.0450792,1.4316752000000001,0.45366344,-0.10199704,0.044331364000000005
8.144078,-1.6965696,1.0367947,0.053895768,-0.24572489999999997,0.20509364
8.239195,-1.0395241,0.021691468,-0.27347565,-0.1892984,0.19390608
7.7108717,-0.7272053,-0.5580404999999999,-0.31977922,0.13805555,0.01558579
7.505094500000001,-0.53152233,-1.0030938,-0.19469148,0.31691688,-0.13131857
7.6312785000000005,-0.25560498,-1.3200191000000001,0.22743386,0.010297443,0.05284857
7.7259455,-0.43633848,-0.99583465,0.25937337,-0.20900318,0.588909
8.118412,-1.1015818000000002,-0.25660095,-0.13027138,-0.04024729,0.9136274999999999
8.442442999999999,-2.7645272999999997,-0.030482977999999997,-0.43210859999999995,-0.06792822,0.613396
11.249932000000001,-2.2753727,-0.40863279,-0.27560493,0.13060299,-0.014748032
12.643588000000001,0.8937745999999999,-2.2288294,-0.024888393999999998,0.08749335,-0.20584413
12.380973,2.6067302000000003,-3.8941977,0.030455995,0.049689524000000006,-0.12973033
11.695302,0.59126246,-4.574362000000001,0.0054454273,0.036390115,-0.10470230000000001
12.621839,-1.505024,-2.7435827,-0.11590732,0.03265511,-0.17390461
13.648722,-1.2097806,0.17331147,-0.21279055,0.14231415,-0.3080506
11.58716,-0.21111113,4.1553574,-0.29796259999999997,0.14231415,-0.45762533
10.296714999999999,2.4073026,3.1088326,-0.37248817,0.12953834,-0.48317695
9.697915,1.5897212,2.1138024,-0.4975759,0.113568574,-0.44539058
10.003339,-1.7526035,1.8753016,-0.59658843,0.076846845,-0.29206340000000003
11.825087,-3.052406,2.9740486,-0.5524142,0.015097098,-0.08553859
12.039358,-2.89798,2.170248,-0.3937812,0.016685348,0.06455973
12.131842,-0.12188402,1.3149243999999998,-0.18936822,0.02893756,0.11620402
10.9954,1.2382333,0.41684008,-0.038711403,-0.030665435,0.20776399999999998
9.628923,0.8773025,0.060621187,-0.026476644,-0.065798916,0.3259228
8.334245,0.55502385,0.13859555,-0.11110766,-0.04982915,0.4244117
7.2609625,0.60263014,0.46391967,-0.21704915,-0.1158375,0.36105627
6.311010400000001,1.1663688,0.6009829000000001,-0.24951227,0.026267204,0.13004448
6.363673,1.5166023000000002,0.6569977,-0.07703883,0.04543092,-0.06424557
6.1851519999999995,1.0163578000000002,0.76841426,0.12096877,-0.2409427,-0.21010274
6.389501999999999,0.39863458,0.69940376,0.19814722,-0.26117107,-0.24949482
7.0153174,-0.23666205,0.4717535,0.04590216,0.001256637,-0.008342674
7.318596,-0.57887965,-0.06829221,-0.332014,0.027872908999999998,0.04061381
7.4982567,-0.34904587,-0.88613236,-0.4571192,-0.24466026,-0.52258646
8.237107,0.054750602999999995,-1.496491,0.0043807765,0.058747783,-0.9984854
8.663045,0.9088485999999999,-1.7287093,0.29663616,-0.38465312,-0.5433384
11.221623,1.3654037,-1.4010388999999999,0.09754645,-0.16481145,0.017174039
13.679060999999999,-0.045662217000000005,-0.69751716,-0.31286773,0.17531832,0.26951376
13.465862,-1.6265153,0.14105679,-0.57316613,0.14924310000000002,0.093305305
11.790314,-1.3199043,-1.4862151000000001,-0.7105060999999999,0.14231415,-0.027506389
10.52041,0.57689726,-2.6564817,-0.7195469,0.19076449,-0.03176499
10.3659935,1.52186,-2.474599,-0.6035174,0.30787608,0.07094763
12.650464,1.0087633,0.28294674,-0.40762165,0.30307642,0.24820328
16.206888,-1.4135079,3.7100358,-0.21437879,0.23015657,0.3253992
15.244724,-3.8459879999999997,5.0126348,-0.08981464,0.16680111,0.30571187
6.239251599999999,1.1839709999999999,2.0099516,-0.029653143,0.24664994,0.21628119999999998
7.639964999999999,3.1420927000000005,-0.103439085,-0.07490953,0.23813272,0.08691739
12.190126,3.3975542,0.94084466,-0.19095647,0.13699089,-0.057316612
13.9826355,1.1721723,1.0412766,-0.28038713,0.06885324,-0.14622368
11.093188,-1.040568,1.1403008,-0.27134633,0.05023057400000001,-0.21382028
9.463417,-1.2486145,1.438695,-0.15423475,-0.07218682,-0.25961772
7.522514999999999,-1.4806030000000001,1.8987551,-0.017418386,-0.15896459,-0.30911526
6.0954175,-1.8910171000000002,1.8934113999999997,0.11351621,-0.21219712,-0.22979005
6.5000567,-1.9177746999999998,1.6470672,0.19708258,-0.22443189,-0.11428416
7.6414394,-1.5106549999999999,1.089764,-0.029670598,-0.30960396,0.019303342
7.993205000000001,-0.97444004,0.57227165,-0.32990214,-0.377218,0.11088077
7.419028,-0.5637483,0.038431726,-0.5241922,-0.07592182,0.029967302
7.292805,-0.52554643,-0.363708,-0.47417104,0.113568574,-0.054140113
7.737485400000001,-0.7697166999999999,-0.7979874,-0.11590732,-0.18558086,0.22425735
8.022433,-0.9643078000000002,-0.8239023000000001,-0.19308577,-0.40329322,0.74167764
7.664941000000001,-0.8158673000000001,-0.8232127,-0.42624432,-0.32025045,0.60700804
7.452202000000001,-1.6230198,-1.3165332,-0.45924848,-0.172264,0.17634806
9.804151,-2.1565342,-0.6575053000000001,-0.25590017,-0.020018926,-0.20423843
12.127982000000001,-0.32540074,-1.1526836,-0.15582299,0.07258824,-0.08234464
12.617806,1.0973583,-2.4633656000000004,-0.14145893,0.08908161,-0.028588492000000004
12.094616,0.80084133,-3.5487146000000003,-0.1664695,-0.03546509,-0.12332497
12.177369,-0.36796009999999996,-2.5285547000000004,-0.2351482,-0.04769985,-0.2308547
12.677959,-0.60493815,1.0460745999999999,-0.31819096,0.026808257999999998,-0.32295573
12.298631,1.0741155,4.7759247,-0.39111084,0.07098254,-0.36925929999999996
12.09907,0.87313664,3.062682,-0.44647267,0.09334021,-0.35009559999999995
10.571003999999999,-1.1154681,1.8028817,-0.5172806999999999,0.067788586,-0.29473376
10.26265,-2.4421717999999997,1.2561802,-0.5689075,-0.004590215999999999,-0.20052087
11.058645,-1.9861627,1.9875896,-0.54442054,-0.023753932000000002,-0.07969173
11.835966,-0.94732815,1.3957334,-0.42146212,-0.058346357,0.060301125
12.089300999999999,0.7467898000000001,1.1934904,-0.30009192,-0.08389798,0.14440854
10.897325,0.89688706,0.54056287,-0.27347565,0.00019198621,0.23012166
9.450077,0.49783114,-0.044024583,-0.33361968,0.10185742,0.33072245
8.232481,0.34002453,-0.30307722,-0.36130062,0.010297443,0.43240532
7.5669512999999995,0.7573435000000001,-0.22773646,-0.30539772,-0.04982915,0.31529373
6.967787700000001,1.1844212,0.06845502,-0.12548918,0.031066861,0.15292574
6.556195699999999,1.3429938999999997,0.13541605,0.18856537,-0.16428784,-0.019530235
6.304824,0.8868219,0.032637756000000004,0.32803464,-0.39371136,-0.105243355
6.340488,0.47707823,-0.011664551,0.27373743,-0.15522958,0.027838001
6.6323314,0.031689655,-0.19211075,0.025673794,0.09546951,0.21947515
6.9116100000000005,-0.23769635,-1.0106117000000001,-0.33520794,-0.15044738,0.07681194
7.1718020000000005,0.20886058,-1.3791943000000002,-0.4092099,-0.2558478,-0.42570326
7.679862,0.75193256,-1.073244,-0.06319837,0.0172264,-0.77808523
9.144577,0.6221668,-0.6014904999999999,0.1747249,-0.16428784,-0.49010590000000004
12.079561,0.01364695,-0.19755995,0.05974262,0.040648717,-0.08395033
13.520458999999999,-1.1962963,0.31935778,-0.14463544,0.18544123,0.043807764000000006
13.044837,-1.4238318,-0.65685403,-0.22237240000000003,0.08110545,0.054436818
11.755952,-0.20361249,-2.7080338,-0.18615682,0.0842994,0.09543460599999999
10.922148,1.50896,-3.4085483999999995,-0.10259046,0.19128808,0.15931365
11.594669,1.6418956999999998,-1.9533718,-0.019547688,0.31374037,0.24822073
12.714274000000001,0.4254209,0.42937613,0.08051204,0.3190462,0.35575047
13.769916,-1.1346505,3.4237660000000005,0.21146409,0.34513885,0.3738495
12.957219,-2.3635943,4.3980527,0.34454545,0.29881779999999997,0.3615973
8.003366,0.13093410000000003,1.5245893,0.42439425,0.2807362,0.28228956
10.45297,2.6465507,0.64393497,0.3397458,0.21525146,0.11088077
13.666659,3.3535678,1.2924284,0.15130259,0.09494591,-0.037088245
12.308266,0.68171537,1.3120034,-0.03764675,0.009232792,-0.12599532
10.364384,-0.66367275,1.3910983000000001,-0.16166985,-0.054087754,-0.22020820000000002
8.670199,-1.0091944,1.4954566999999999,-0.13878858,-0.13287191,-0.31176817
6.908823,-1.3760626,1.4348546,-0.029129544,-0.14725342,-0.38309976
6.218996499999999,-1.8542996999999999,1.1438825000000001,0.107651904,-0.12596041,-0.20265017
6.7693276,-1.7957087999999999,0.9594524,0.12842132,-0.03333579,-0.041364305
7.8011517999999995,-1.4585763999999999,0.89732766,-0.12868312,-0.079639375,0.026232297999999998
7.968189999999999,-0.99695516,0.2887599,-0.37140608,-0.15042993,0.08107054
7.525311,-0.49077305,-0.43387723,-0.49172905,0.11037462,0.03635521
7.3170156,-0.124967754,-0.95661765,-0.44434336,0.24186772,-0.042411502000000004
7.483086999999999,0.06502652,-1.5284008999999998,-0.04722861,-0.034924038,0.23064525
7.5639534,-0.30352733,-1.6795900000000001,-0.14943509,-0.09934414,0.73050755
7.4588094,-0.61509913,-1.6635392,-0.56199604,-0.028536132999999998,0.6921801
7.475703200000001,-1.6444334999999999,-1.4961175,-0.68282515,-0.016301375,0.094369955
10.438557000000001,-1.7498741000000002,-0.52874506,-0.3937812,0.079499744,-0.29846877
13.049338,0.2833873,-0.8540309000000001,-0.14304718,0.11569787599999999,-0.14090043
13.019621,1.3990566,-2.2155654,0.04485496,0.15882497,0.0012217305
11.774425500000001,0.74646425,-3.8822746,0.08796459400000001,0.15296066,-0.018989183
12.173998,-0.909902,-3.0185616000000004,-0.028064894,0.18118262,-0.18188076
13.423924,-0.8579190999999999,-0.06511271,-0.19467403,0.22909191,-0.37032396
12.803721000000001,0.42290223,4.340496,-0.31871456,0.15350170000000002,-0.47200683
12.174707000000001,1.3466426999999999,3.498915,-0.38472292,0.09546951,-0.43528512
10.722394,-0.44672929999999994,2.1241932,-0.42996186,0.11730358,-0.30911526
10.098696,-2.1076924999999997,1.6123319999999999,-0.49651125,0.0821701,-0.115872405
11.446017,-2.3465667000000003,2.8261156,-0.48692942,0.024137903,0.048066366
12.194071000000001,-2.2712833999999997,2.0682552,-0.4012163,-0.024818582000000002,0.15985471
12.048629,0.09966583,1.6751463,-0.30328587,-0.105732046,0.2120226
10.655184,0.5729420000000001,0.7852406999999999,-0.29103366,-0.23507840000000002,0.27909559999999994
9.391247,0.41713697,0.35177526,-0.36875317,-0.29843384,0.37863174
7.759167,0.7193236,0.47367844,-0.50928706,-0.34686673,0.39247218
6.747339200000001,0.9840073,0.60694927,-0.54974383,-0.25317746,0.103428215
6.229722,1.2148561000000002,0.69529533,-0.35651842,-0.15629423,-0.12971286
6.1448812,1.3376788,0.571314,0.06934193,-0.27234116,-0.23457225
6.023782700000001,0.9644802,0.31299877,0.31047663,-0.31440362,-0.18242182
6.2922782999999995,0.56926453,0.46470500000000003,0.2173284,-0.07164577,0.009738937
6.5078235,0.31589097,0.24697627,-0.04988151,0.07365289,0.12365658
6.720178999999999,0.015313314,-0.10076716,-0.34798375,-0.40489894,-0.16219345
6.609845,-0.105555564,-0.9085038000000001,-0.16753416,-0.34953707,-0.6950425
6.903728500000001,0.07701668,-1.5127523999999999,0.35358626,-0.23561946,-0.7371049
9.570514999999999,0.9225434000000001,-1.5551202,0.32272884,-0.24520129999999998,-0.1595231
13.797794,0.9732716999999999,-0.36941573,-0.15156439,0.10559242,0.24024457
14.450616,-1.5426799,0.42874405,-0.48373544,0.088558,0.058712877000000004
12.862102,-2.4878917,-0.35981979999999997,-0.63543946,0.18702948,-0.069027774
11.194224,-0.8885552999999999,-2.5602348,-0.6365215999999999,0.24186772,-0.007819075
10.482744,0.8291599000000001,-2.879382,-0.50076985,0.26954865,0.11620402
11.365984,1.2477717,-0.7402871999999999,-0.31019735,0.29829422,0.31529373
12.982635499999999,0.39601052,1.9353194,-0.10791371,0.18278833,0.46486846
14.561966,-2.3325843999999996,4.7343903,0.10234611,0.11995648,0.38821357
10.584124000000001,-1.8795728999999999,3.366621,0.20985839,0.16947147,0.22053981
7.123075500000001,2.7912752999999997,0.20058621,0.23329817,0.20354029999999998,0.042219516
11.571214999999999,3.9947063999999997,0.40409335,0.1523847,0.123691484,-0.11906636
16.64855,3.1019757,0.8316020000000001,0.022497293999999998,-0.046094145999999996,-0.16324064
13.132464,0.09706093,0.29258102,-0.08075638,-0.15044738,-0.16006415
9.855798,-0.69021004,0.9019724,-0.09993755,-0.1743933,-0.22500785
8.076139999999999,-0.867812,1.5892041000000001,0.07253588,-0.16959365,-0.3005806
5.551071599999999,-1.5075903999999998,1.8043088,0.30515337,-0.23827235,-0.21434389
5.4612126,-2.344163,2.0464199,0.43823472,-0.1892984,0.044872414000000006
6.466508999999999,-2.2973611000000003,1.7148134999999998,0.2327571,-0.09402089,0.20296434
7.5334034,-1.8180034999999999,0.99826723,-0.11217231,-0.09986774,0.2769663
7.387281,-1.179671,0.36934870000000003,-0.328279,0.17107718,0.18807667
6.9714174,-0.5782763000000001,-0.32162747,-0.29581586,0.098663464,0.003874631
6.853890400000001,-0.033365596000000004,-0.9853098,0.21306979999999998,-0.16109389,0.023579397999999998
7.357228299999999,-0.05464526,-1.6216502,0.39671335,-0.31173325,0.48616147
7.6740770000000005,-0.6009159000000001,-1.5600044,0.10445795,0.004974188300000001,0.85453063
8.545174000000001,-1.6347227,-0.7386208000000001,-0.24897122,-0.116361104,0.6453355
10.280586999999999,-2.5762281000000002,-0.3791266,-0.25696483,0.015097098,0.079482295
13.36271,-0.22329283,-1.4722329,-0.12920672,0.039584067,-0.16058774
13.730382999999998,1.6288711999999999,-3.0187054,-0.07543313,0.090687305,-0.16219345
12.4807825,1.3129993999999998,-4.0707464,-0.03551745,0.109851025,-0.18401006
12.032128,0.004711789,-3.1294706000000003,-0.08182103,0.09813987,-0.21861994
12.150019,-0.75541854,-0.24961947,-0.1579523,0.123691484,-0.32667327
11.724885,-0.96154016,3.8052964,-0.24577726,0.06993534400000001,-0.45708427
11.333231,0.40553945,2.886555,-0.29581586,0.035325464,-0.44217917
11.934799,1.803916,2.356019,-0.35437164,-0.0104370685,-0.36606535
10.801086999999999,-0.29190105,1.8841122,-0.4012163,-0.02427753,-0.26705283
11.645914,-1.9314791,2.024738,-0.35065409999999997,-0.09615019,-0.12067206
11.696096,-2.5467508,1.4890115,-0.22661355,-0.16109389,0.02677335
11.751843,-0.8400200000000001,0.92174846,-0.10737266,-0.20420352,0.16091935
10.074073,0.9277818999999999,0.56458145,-0.06426302,-0.10412634,0.27536058
8.924319,1.0657837,0.29857612,-0.14517649,0.077911496,0.37863174
7.764856,0.9235681,0.28162515,-0.2798461,0.0842994,0.43985787
6.865737400000001,0.9573838,0.30918720000000005,-0.4012163,0.00286234,0.29880038
5.828818,1.2334832,0.37812108,-0.35065409999999997,0.082693696,0.10236356
6.3051014,1.1595790000000001,0.16927963,-0.086079635,-0.03864159,-0.061575215
6.486352,0.7751467,0.21516213,0.16622515,-0.21591468,-0.16910495
6.641688,0.6667373000000001,0.34156640000000005,0.27694884,-0.017889624,-0.05199336
6.823619,0.36565205,0.20925324,0.16887806,0.18490018,0.1390853
6.9921417,-0.012392388999999998,-0.81751454,-0.106308006,-0.1270076,0.014538593
7.567669400000001,0.21076636,-1.4614781000000001,-0.14037684,-0.21272072,-0.41769218
8.978649,0.78862137,-1.2855043,0.16461946,-0.02480113,-0.72644097
9.755807,1.4361763,-1.2465651000000002,0.4776268,-0.11903145,-0.5449267
12.307796000000002,1.1457213,-0.9899258,0.45900413,-0.03544764,-0.13397147
13.4780245,-0.4323641,-0.33728555,0.24926792,0.074717544,0.066706486
13.054883,-1.29375,-0.51815313,0.08531169599999999,-0.03440044,0.08958775
11.814475999999999,-0.5018534,-2.3331783,-0.011030481000000002,0.000715585,0.118333325
10.833524,0.9758575,-2.6283642999999994,-0.039235003,0.08484045400000001,0.16091935
11.091436,1.0709072,-1.4074458,-0.040840704,0.16414821,0.22905701
12.548423,0.2941995,0.6362926,-0.014224433,0.13699089,0.29984757
13.456295,-0.8520868,3.1992664,0.09009389599999999,0.091751955,0.32328734
13.331854000000002,-2.9320447,4.7452984,0.22797489999999998,0.04384267,0.30305898
7.8597617,-0.62079734,2.0517063,0.27269024,0.048101272,0.22533946
9.103769,2.6618352,1.1623849,0.19497073,0.008185594000000001,0.086393796
12.7376795,3.8286254,1.4371628,0.029408797999999996,-0.070581116,-0.01792453
12.675717,1.3831016,0.67524153,-0.115366265,-0.116361104,-0.08234464
10.507002,-0.55628794,0.58246136,-0.17339846,-0.026947884,-0.18507472
8.947936,-0.81722724,0.7446255,-0.02539454,0.022026055,-0.32080898
7.3272724,-1.0501448,0.79193485,0.25139722,-0.05035275,-0.3761708
6.202457,-1.4265515,0.77328885,0.49626693,-0.15203562,-0.14568263
6.478355400000001,-1.6345981,1.1448402,0.49413761,-0.16214108,-0.009930924
7.385777,-1.3484432,0.80571586,0.19922933,-0.23666665,0.080546945
7.720783,-1.0812788999999998,0.14989617,-0.11269591,-0.21005037,0.140691
7.1680865,-0.58036405,-0.58549726,-0.2766696,0.27380726,0.01452114
6.9479446,-0.21839908,-1.2996972,-0.18828613,0.289777,-0.13023646
7.335911,-0.3523403,-1.6499211,0.31047663,-0.055152405,0.08958775
8.29567,-0.7954304,-1.0734164,0.22956316,-0.11370819999999998,0.65013516
8.53916,-1.2838379999999998,0.0033997665000000004,-0.13292427,-0.031730086,0.7943866
8.228727000000001,-2.2090437,-0.07440221,-0.30806807,-0.06154031,0.42975240000000003
10.609148,-1.8800708,-0.37995982,-0.20266764,0.05448918,-0.12438962
12.705051,0.6722151999999999,-1.9431628,-0.11908381400000001,0.10932742,-0.20476203
12.62611,1.9529023999999997,-3.4260836,-0.09087929,0.0864287,-0.09457939
12.384487,0.51926404,-4.580490599999999,-0.09672615,0.08323475,-0.05625196
13.107747,-1.2907716,-3.2985013,-0.20266764,0.10719812,-0.15419984
13.084341,-1.1606611,0.80213416,-0.32084388,0.16308357,-0.33145547
11.278682,0.5678663,3.8342278,-0.45924848,0.14498450000000002,-0.44963172
11.172102,1.8255022,2.6232214,-0.5603729000000001,0.10452777,-0.45176099999999997
10.106078,0.5167454,1.8259428,-0.6125581999999999,0.1402023,-0.40065777
10.035833,-1.7491462,1.5004845,-0.6088232,0.16468927,-0.28621656
12.212431,-1.878098,1.6289669,-0.52312756,0.13327335,-0.09564404
12.289408,-1.5990777,1.083539,-0.37301177,0.06407104,0.08693485
12.011097,0.54031384,0.8532169,-0.20106193,0.008185594000000001,0.18966493
11.083544999999999,1.5178951,0.16658854,-0.085014984,-0.0013788101,0.26312584
9.963614,1.0679576000000002,-0.05177222,-0.09246755,0.012444196999999999,0.3733259
8.714991,0.6511654,-0.1951849,-0.1776396,0.023090705,0.4781853
7.383478599999999,0.8536574,-0.13484144,-0.30487412,0.007120943,0.4419872
6.5270343,0.88409245,0.092713065,-0.27719320000000003,0.05235988,0.22108085
6.469219,0.9758095999999999,0.37749857,-0.001972222,-0.056740652999999995,-0.07328638
6.312265,0.6287748000000001,0.3807547,0.2737549,-0.23720770000000002,-0.23191935
6.12319,0.08889192,0.45634443,0.4185474,-0.12222540400000001,-0.17655751
6.493257,-0.102625065,0.33551386,0.34508649999999996,0.19875810000000002,0.031573005
6.7288559999999995,-0.34021607,-0.20926279999999997,0.18219492,0.033196162,-0.09777334
6.6104484,-0.23189281,-0.82591337,0.011309733999999998,-0.21591468,-0.61145866
6.867126,0.45952392,-1.3505403999999999,0.44251078,-0.14884168,-1.0399718
8.304461,1.2539008999999999,-1.2120407,0.5894326,-0.29682815,-0.54599136
11.7063055,1.2274402,-0.85032463,0.30995303,-0.022671826000000003,0.11993903
13.85604,-0.27441382,0.0869191,-0.031782445,0.26157248,0.30518827
13.477622,-1.8720359,0.10989386,-0.22608995,0.16362461,0.09810495400000001
11.983937,-1.4094379,-1.7715273,-0.20371483,-0.0008552113400000001,0.07361799
10.791117,0.7274255000000001,-3.0487572999999997,-0.05572836,-0.010960667,0.10822786400000001
11.687057000000001,1.3334553999999998,-1.9658311999999998,-0.020612339,0.1359437,0.19127063
14.172255999999999,0.6470186,0.83050066,-0.059463367,0.23495622,0.39727184
15.670472,-1.6891859,4.095253,0.0315381,0.21898647,0.48776716
13.209041000000001,-2.654145,4.483258,0.23116885,0.13114405,0.4105887
5.6648629999999995,2.0918906,1.060708,0.30675906,0.058224183,0.21415189999999998
7.492472,4.0846324,-0.44835737,0.18006562,-0.02586578,-0.009407325
13.28646,3.7410069999999997,0.74321765,-0.040840704,-0.11316715,-0.12758356
14.278970999999999,0.5247706999999999,1.0555078000000002,-0.18509217,-0.14671238,-0.14301229
10.706123,-1.4774811,1.5377669,-0.25164157,-0.10732029400000001,-0.14407693
9.177933,-0.8150725000000001,1.3104999,-0.17657496,-0.109449595,-0.19519763
7.373835000000001,-0.012191273999999998,0.8632245999999999,0.04431391,-0.10997319,-0.26598817
6.0795484,-0.5297602,0.7935725,0.31794664,-0.18184586,-0.10255554
5.9482408,-1.8455848000000001,1.5647545,0.39671335,-0.14299482,0.040072758
7.052408,-1.9602288,1.6171396999999998,0.14599679999999998,-0.256895,0.14974925
7.8648663,-1.3866353999999999,0.59788966,-0.11588986,-0.29311058,0.21361084
7.8000603,-0.6119101,-0.51417875,-0.20638518,0.13700834,0.0879995
7.664156,0.057384225999999997,-1.2754104,-0.010489428,0.31319934,-0.034958944
7.455295,0.3358969,-1.652727,0.5590813,-0.38625879999999996,0.24076816
7.458609,0.123358846,-1.4035958999999998,0.45313984,-0.14671238,0.7587295000000001
7.4947515,-0.48013320000000004,-0.88390094,-0.016353736,0.034801867,0.89978707
7.686029400000001,-2.1396596000000003,-0.49519753,-0.20851448,-0.04024729,0.30358258
10.597828,-2.350244,-0.06650134,-0.11856022,0.021485003,-0.2723761
12.941014,0.35301068,-1.5280753,-0.06105162,0.044383723,-0.29525736
12.700512,2.2062473,-2.9667702,0.0038571777,0.10718067,-0.17975146
11.437513000000001,1.2667912000000001,-4.0512,0.028885199,0.11943288,-0.14301229
11.677595,-1.0655921999999998,-2.4494886,0.007592181999999999,0.05235988,-0.19359192
12.503718,-1.217375,2.301326,-0.028588492000000004,0.04436627,-0.29899237
10.673486,-0.7520379,3.8975400000000002,-0.07543313,0.034801867,-0.33252013
11.407212,1.7074296000000002,2.3061717,-0.10684906,0.02841396,-0.32241467
11.942249,1.3218005,1.2684481,-0.16751671,0.12049753,-0.26172957
12.847679,-1.3056731000000001,1.5995662,-0.21436134,0.1402023,-0.14940019
11.894586,-2.8824656,1.8258853,-0.22502529999999998,0.086969756,-0.017383479
11.579642,-1.7408144,0.8799074,-0.18989182,0.050771628,0.11142181599999999
11.987749,0.6826348000000001,0.59856,-0.14782938,-0.015219271000000001,0.19020598
11.298496,1.3418063999999998,0.048899174000000004,-0.19999728,-0.002443461,0.29880038
10.080853,1.0264518,0.08095275,-0.3527834,-0.0067195175,0.43453459999999994
8.678301,0.50939995,-0.16513288,-0.48373544,-0.030124382999999998,0.43933427
7.311901600000001,0.44065762,-0.0719697,-0.40493384,-0.014695672,0.20244074
6.862462,0.85411704,0.10865845,-0.13824753,-0.028536132999999998,-0.023771385
6.253559,0.7487052,0.22019953,0.22104596,-0.30321604,-0.1706932
5.5332300000000005,0.47955859999999995,0.43952757,0.41587704,-0.21750294,-0.20476203
5.751993,0.47663766,0.37445316,0.36266196,0.10826277,-0.010995574
6.46581,0.49890375,-0.16191506,0.031555552,0.09388126,-0.01685988
7.029749400000001,0.64684623,-0.8514356,-0.034976397,-0.24572489999999997,-0.7573333000000001
7.106546000000001,0.7904791999999999,-1.3933103999999998,0.33711034,-0.06792822,-1.0783168
7.260206,0.80995846,-1.4491912,0.5638635000000001,-0.35964254,-0.60294145
9.391821,0.90487415,-1.0703326000000002,0.30995303,-0.14936528,0.045413468
12.73766,0.5595345,0.37646428,-0.016353736,0.19343483,0.24024457
13.71844,-1.6567588,0.83301944,-0.22396065,0.14817846,0.05445427
11.615767,-1.9047023999999997,-1.0704477,-0.303792,0.061418135,-0.017383479
10.903299,0.19045396,-2.5862453,-0.24577726,0.09761626,0.042219516
11.301992,0.9546735999999999,-1.9176023000000002,-0.16219345,0.22643901,0.14974925
13.709802999999999,0.30792308,1.1723927,-0.06743952,0.25199065,0.299865
17.583143,-2.0742981,4.4734989999999994,0.08105309,0.22163936,0.37226129999999996
14.315257999999998,-3.829966,4.602335500000001,0.29078930000000003,0.155631,0.33019885
6.467226999999999,1.9740577000000001,0.90326524,0.40577158,0.11039207,0.23970352
8.093685,4.211104,-0.7062512,0.3429572,0.04384267,0.12154472599999999
13.455528,3.366937,0.48549622,0.14864969,-0.049288097999999995,-0.010995574
13.701969,0.36376545,0.56947523,-0.026459191,-0.14297737,-0.10946705
10.807236,-1.4491816000000002,0.698743,-0.111090206,-0.13978341,-0.19092156
8.993637,-0.9505746999999999,1.0095007,-0.10311405,-0.045029495,-0.2728997
7.106124400000001,-0.7662786,1.2915378,0.036878806,0.070999995,-0.41608649999999997
5.735301,-1.3191285,1.2923805,0.27907816,-0.031189033999999997,-0.3415784
5.864875,-2.0081606,1.4949780000000001,0.42121777,-0.099326685,-0.13023646
6.753555,-1.9266044999999998,1.5328828,0.22532201,-0.09667379,0.039025564
6.843864,-1.2549065000000001,0.7183371000000001,-0.12707742,-0.11903145,0.16891296
7.337758999999999,-0.6254516999999999,-0.27457663,-0.36130062,0.18811159,0.13058554
7.819118,-0.17972794,-1.0628148000000002,-0.33840188,0.33503342,-0.0008901178999999999
7.953969,-0.03883395,-1.6042588,0.1587726,0.16788322,0.04967207
7.8563814,-0.07227616,-1.9383648999999998,0.39351937,-0.10677924,0.61074305
8.203895,-0.50546384,-1.3555108,0.08477064,0.009773844,0.85400707
8.317112,-1.6877302,-0.54507357,-0.29208085,-0.123290055,0.60913736
10.076544,-2.4694085,-0.021480778,-0.2777168,0.0172264,0.04967207
12.368274000000001,-0.6266679,-1.2282159,-0.091402896,0.014573500000000001,-0.26331782
12.893695,1.2954355,-2.690537,-0.03338815,0.03693117,-0.116937056
12.302922,1.1849096000000001,-4.2229314,0.011850785,0.015097098,-0.059969515
12.398632000000001,-0.7121409000000001,-3.7048737999999997,-0.053075462999999996,-0.03544764,-0.10416125
13.39914,-1.4690151000000002,-1.1526166000000002,-0.16432275,0.11091567599999999,-0.20263273
13.102336,-0.6418472,4.292028,-0.29742154,0.13540265,-0.33571407
11.902161999999999,1.3179411,3.583804,-0.40175733,0.10719812,-0.41610396
11.654658,1.9060911,2.9018776,-0.4831944,0.09016371,-0.42301545
8.864943499999999,-1.1568399999999999,1.3307931,-0.5353623000000001,0.0842994,-0.33890805
10.569912,-2.112519,1.9582941999999999,-0.48851764,-0.0051138145,-0.18346901
11.474021,-2.4452173999999998,1.9434788,-0.35330700000000004,-0.10252064,-0.016842427
12.168789,-0.47372633,1.1702571000000002,-0.20425588,-0.15362388,0.10716321
11.251551,1.2143487,0.9147383,-0.06852163,-0.14191271,0.23225096
10.091694,1.4237072,0.3389998,-0.05094616,-0.0077667153,0.32009340000000003
8.518618,0.93863237,0.21082382,-0.14728834,0.09920452,0.4105887
7.321420699999999,0.66755134,0.24107695,-0.30220374,-0.06047566,0.38716638
6.675254300000001,0.82960045,0.36363134,-0.33466688,-0.13446017,0.12952088
6.44228,1.0587064,0.42553583,-0.0977908,-0.064734265,-0.099885195
6.356902,0.8357488000000001,0.58615804,0.27588418,-0.20153317,-0.20582668
6.2536836,0.50361556,0.73911875,0.38287288,-0.22336724,-0.086062185
6.5610895000000005,0.38770747,0.5923351,0.13215633,-0.021607175,0.14388494
6.871397,-0.06074568599999999,-0.019900605,-0.21542598,0.010314896,0.10981612
6.757097999999999,-0.09525092,-0.9337004000000001,-0.43580872,-0.25050712,-0.2723761
7.495498700000001,0.35331714,-1.3636798,-0.14250614,-0.26754153,-0.7376285
8.018344,0.8069417,-1.1946108,0.54311156,-0.18875736,-0.7573158
10.435224,0.97706413,-1.2566016000000002,0.67460465,-0.1765226,-0.23083724
13.258419,0.80186605,-0.42297882,0.29665359999999996,0.07845255,0.13006194
13.560777999999999,-1.6624762,0.14235924,-0.029129544,-0.029059732,0.057124626
12.395693,-2.2928407,-1.1233977,-0.21383774,-0.058869954,-0.03122394
10.700952000000001,-0.25425464,-3.4771468999999997,-0.18029252,-0.057281705999999995,0.0076270886
10.646546,2.0331464,-3.897157,-0.03817035,-0.010960667,0.13219124
11.951433,2.8829732000000003,-1.7362272,0.025150195,-0.023736477000000002,0.38290778
13.363447,0.5568816999999999,2.103967,0.0060039326,-0.0019198620999999999,0.5138598
14.028557000000001,-3.6202339999999995,5.6120467000000005,0.07840019,-0.050893802,0.42708206
9.318645,-3.4701655,4.1075883,0.2700199,0.05183628,0.27590165
6.01005,1.47909,0.95008624,0.40257764,0.19343483,0.119397976
11.565498,4.0552316,0.647938,0.489879,0.2163161,-0.0024783674
16.178587,4.299775599999999,0.67262703,0.5095837999999999,0.14604916,-0.053581607
12.193688,1.0955197,0.60182565,0.45474553,0.17053612,-0.098837994
9.881952,-0.67702276,0.88303906,0.38873717,0.19928169,-0.18133971
8.790953,-0.8637800999999999,0.8281735,0.36157987,-0.008831366,-0.21382028
7.159228,-1.0923593,0.34028313,0.45209265,-0.049288097999999995,-0.21008529
6.7809443,-1.6424509999999999,0.53947115,0.5660103,-0.20526817,-0.047193702000000004
6.955050999999999,-1.7105325,0.9878093000000001,0.46912706,-0.15362388,0.010821042
7.587436,-1.6891092,1.0960177,0.26204374,-0.20633282,0.07415904
7.493775,-1.3333596,0.50707275,0.123115525,-0.07483972,0.07150614
7.2074857,-1.0505853,-0.027341782999999998,0.021432644,0.2764776,-0.05625196
7.6642036,-0.62203276,-0.6930448,0.19816469,0.23282692,-0.029094638
8.37983,0.15390886,-1.1220857,0.32166418,-0.07164577,0.5277003
8.030957,0.38791809999999993,-0.8518187,-0.10471976,-0.117425755,0.95143133
7.474640400000001,-0.19705239,-1.1184657,-0.55452603,-0.13339551,0.7006973000000001
7.9187455,-1.9620962,-1.0660136,-0.44326127,0.12688543,0.11248647
11.384496,-1.1565622,-1.2122513000000001,-0.10950196,0.16734217,-0.17015214
13.831408499999998,1.1106607,-3.0355318,0.026755897,0.17692402,-0.08765043
12.373503,1.0774386,-3.9444377,0.034208454,0.20460495,-0.06742207
11.735994,-0.12028469,-3.9988627,-0.10150835,0.19662879999999996,-0.16004670000000001
12.627661,-0.27340826,-2.0565522,-0.28729865,0.24932028,-0.37032396
12.835343,0.9446849,2.5526116,-0.44912559999999996,0.20621064,-0.5379977
11.927635,2.4137766,3.6551032,-0.5236510999999999,0.14498450000000002,-0.5326744999999999
11.414997999999999,1.6816394000000001,2.577157,-0.5247158000000001,0.11623893,-0.4384616
9.998733,-1.429894,1.401355,-0.49277624,0.16947147,-0.2894105
11.839021,-2.6355853,2.7074304,-0.42783254,0.20833996,-0.108943455
12.713047999999999,-2.7443202,2.6793032,-0.26919958,0.11571533,0.095452055
12.135269000000001,-0.96642435,1.3426492,-0.10684906,0.035325464,0.18327703
10.688406,1.0854065,0.6814952,0.084247045,-0.09880309,0.23972097
9.608324,1.0096444,-0.110545084,0.19922933,-0.24305455,0.30677652
8.630446000000001,0.9481709,-0.20215681,0.19284143,-0.31225684,0.42709953
6.912041,1.0492061000000001,-0.013235146000000001,0.06349508,-0.30586895,0.45317474
6.0179887,1.0891415,0.25407267,-0.070109874,0.007644542,0.24185027
6.354211299999999,0.92125046,0.3764068,-0.0051661744,0.10719812,-0.014730578999999999
7.0045532999999995,0.40266642,0.24524288,0.2189341,-0.2499835,-0.21327923
6.573759599999999,0.090213515,0.28659552,0.35627407,-0.36016613,-0.21753784
6.497844000000001,0.015064316999999999,0.36908057,0.33285174,-0.14671238,-0.020577433
6.924491400000001,-0.30965647,0.030061595,0.14919074,-0.07696902,0.043825217
6.789458,-0.6443466999999999,-0.5717258000000001,-0.13931218,-0.2377313,-0.19837412
6.6448193,-0.55319464,-1.532586,-0.06850417,-0.24466026,-0.6928956999999999
6.7196050000000005,0.20526928,-2.3330154,0.4792325,-0.02480113,-0.85793406
10.553248,0.99119955,-2.2031062,0.63893014,-0.21217968,-0.40013418
14.857851,1.6572281000000002,-0.7516644,0.29611257,0.14072590000000001,0.06777114
14.706642,-0.50289726,0.31182083,-0.044558257000000004,0.1423316,0.12472123
12.560921,-1.5960896999999998,-1.0068289000000001,-0.21490239,0.11571533,0.07415904
10.656591,-0.41003096,-2.9551822999999997,-0.21916099,0.13433799,0.11302752
10.242892,1.2038428999999997,-2.9464579,-0.13611823,0.23867378,0.1561197
12.326269,1.4186603000000002,-1.3083833,-0.05253441,0.24080308,0.278572
13.400816,0.12638512,1.5180675,-0.027523842000000003,0.19130553,0.42229986
14.710914,-1.7368209,5.4666996,0.01452114,0.12582079,0.44943973
11.564608,-3.5280957,4.068955399999999,0.13482669,0.12901473,0.3153112
7.1146193,1.7293702000000002,1.2676148,0.16941911,0.19289379,0.10770427
10.282042500000001,4.006639,0.46168828,0.10021680599999999,0.16095427,-0.075939275
13.405997,3.9898220999999996,1.095309,-0.05359906,0.03906047,-0.13449506
11.4830885,0.4781891,0.6398169,-0.19041543,-0.03918264,-0.14994124
9.287778,-0.84658015,0.89198375,-0.22129029,-0.10784389,-0.20156808
8.385921000000002,-0.99208057,1.0441784,-0.110025555,-0.15629423,-0.30164525
6.829144500000001,-1.0660421999999998,0.9348975,0.111927964,-0.10145599,-0.39214057
6.408828,-1.3000132,0.68449265,0.33124605,-0.10732029400000001,-0.13768902
7.08949,-1.1748538999999998,0.76898885,0.27162558,-0.10890854,0.07415904
8.223077,-1.2170876,0.8356434000000001,-0.014748032,-0.34951964,0.18222983
7.7778415999999995,-1.2263197,0.18058027,-0.22235495,-0.17598155,0.12259193
7.2516727,-0.9224285,-0.37759432,-0.27345818,0.20354029999999998,-0.10841985
7.668723599999999,-0.28746700000000003,-0.9096146999999999,0.108210415,0.05129523,-0.21275564
8.268213000000001,0.09876561,-1.2273731,0.4818854,-0.23188445,0.26686084
7.906583,0.03542461,-1.5410998,0.27108455,-0.16001178,0.75605917
7.997678,-1.1773438,-1.5493933000000002,-0.12280136,-0.108384944,0.82313216
8.99468,-2.7284992000000003,-0.7207026,-0.20957914,0.022026055,0.35149187
12.07531,-1.7925197,-0.25240633,-0.11962487,0.11836823,-0.03070034
12.607215,0.6148789000000001,-1.5822896,-0.11482521,0.123691484,-0.073809974
11.969266000000001,1.6667953000000002,-3.2597822999999995,-0.12866567,0.14817846,-0.13981833
11.401792,0.07971734,-4.4253945,-0.22874285,0.10826277,-0.23137829999999998
12.246868,-1.408164,-1.9015229,-0.3208264,0.13220869,-0.33199653
12.571062,-0.6494989999999999,3.2527337000000003,-0.37460002,0.10239847,-0.41716859999999995
11.404597,0.6803172,3.8411329,-0.41345105,0.09868091,-0.39639917
11.7423725,2.1746437999999997,2.7937174,-0.45710173,0.0837758,-0.35754815
10.464758999999999,0.18307024,1.5675603999999999,-0.51248103,0.08749335,-0.3170914
12.205869999999999,-1.4940968000000001,2.2950722999999997,-0.51726323,0.04544837400000001,-0.2287254
12.520726,-2.6914754000000003,2.1953967,-0.42942079999999994,-0.049288097999999995,-0.08232718
11.872645,-1.53657,1.2846041000000001,-0.27132890000000004,-0.1158375,0.057124626
11.47697,0.4155568,0.79966336,-0.11856022,-0.13339551,0.18327703
10.0716505,1.2000792,0.22542845,-0.043493606,-0.15097098,0.27272514
8.558542999999998,1.2201427,0.2934142,-0.06319837,-0.10145599,0.36213836
7.3168619999999995,1.1038803,0.007987056999999999,-0.11430161400000001,-0.041311942000000004,0.40205404
6.24993,0.7969626999999999,0.032216378,-0.17551029999999998,0.04171337,0.30571187
6.190764,0.8691048000000001,-0.02891238,-0.06743952,0.038519416,0.12952088
6.6560625999999985,0.7458130000000001,-0.12820472,0.19870573,-0.18236946,-0.06848672
6.641410400000001,0.2620406,0.052634127,0.32059953,-0.24572489999999997,-0.10841985
6.717297,0.026221296,0.2768272,0.29345965,0.12049753,0.075764745
7.036501400000001,-0.26944345,-0.034840424,0.020367993,0.06461209,0.18914133
6.886021,-0.5965104999999999,-0.75513124,-0.37618828,-0.31545082,-0.11267845
7.0325747000000005,-0.40029138,-1.6017017,-0.3405312,-0.27180013,-0.5598318
7.5374737000000005,0.48622406,-1.8299458,0.16144295,-0.10252064,-0.72218233
10.017828,0.93311614,-1.3379565,0.39458403,-0.23401375,-0.33997267
12.88613,0.6558293000000001,-0.49687347,0.23064525,0.06567674,0.043825217
13.718268,-0.6915412,0.74854237,0.0012042772,0.19982274,0.03689626
12.738437,-1.4667263000000001,-0.8298591000000001,-0.08447394,0.09442231,0.021991148999999998
11.090919,-0.4032889,-3.026271,-0.004642576,0.039584067,0.10981612
10.785753999999999,1.1161097,-2.7934015,0.11831587,0.07897615,0.17423622
12.331978,1.1239915,-1.2982606,0.15983725,0.11943288,0.29028317
13.406447,0.46663950000000004,1.0159938,0.19390608,0.18118262,0.37597883
13.826801000000001,-1.6866481,3.5398848,0.25511476,0.17160077,0.3818257
11.7387705,-2.7316403,3.9770752999999996,0.3259228,0.17266542,0.34297466
7.346091,0.48421293,0.8721598,0.32433453,0.18811159,0.19765854
10.241695,2.8031986,0.24527161,0.18751818,0.17746508,0.010803588000000001
14.113904999999999,3.1049254,0.9108021999999999,-0.00038397242,0.11730358,-0.099902645
12.347052,0.33824322,0.8363138000000001,-0.16060519,0.020961404,-0.14887658
9.785092,-0.9573838,1.2097038999999998,-0.21542598,0.015097098,-0.18879226
8.493603,-1.080532,1.1152288000000001,-0.12973033,0.01616175,-0.26277676
7.2871165,-1.1263857,0.74632055,0.036337756,0.0044505894,-0.32452652
6.6674875999999985,-1.3774225,0.7295228,0.21999875,-0.009896017,-0.1690875
6.540538,-1.3668306000000001,0.783038,0.26310837,-0.059411008,-0.020036379
7.1637770000000005,-1.0241725,0.7743806,0.04059636,-0.18397516,0.07363544400000001
7.298733,-0.7467802,0.17204733,-0.19680333,-0.041835542999999996,0.13271484
7.0730944000000004,-0.56001335,-0.43319726,-0.325085,0.34088024,0.020385446
7.251721000000001,-0.33668223,-0.96842587,-0.11376056,0.21259856,-0.037088245
7.634084700000001,-0.0077093295,-1.4761115,0.25565583,-0.22017328,0.42017058
8.014033999999999,-0.25003126,-1.5354878,-0.023265239,-0.13287191,0.8699768
8.390575,-0.82137394,-1.1807722999999999,-0.26600564,-0.14936528,0.6219306
8.744591999999999,-2.2147036,-0.89279777,-0.13505358,0.10719812,0.02677335
11.019563,-2.2384732000000005,-0.27836904,0.13802063,0.20886356,-0.23031364
12.931515,0.024085669,-1.2024734,0.17102481,0.30894074,-0.038676497000000004
12.539383,1.1266922,-2.8248804,0.09009389599999999,0.22057470000000004,0.0038920840999999997
12.082166,0.15155296,-3.5450559999999998,-0.09672615,0.062482785,-0.11800171
12.758317,-0.70965093,-1.9785587,-0.22661355,0.109851025,-0.29045770000000004
13.291698,0.016194379,3.021559,-0.2761111,0.11517428,-0.42408009999999996
12.256225,1.4451208999999998,3.9150464999999994,-0.2777168,0.12049753,-0.45975462
12.253246,0.74806356,2.775799,-0.2803697,0.090687305,-0.41076323
10.249002,-2.1217415,1.560828,-0.3160442,0.10293952,-0.30750957
11.821792,-2.784878,2.0048470000000003,-0.2990098,0.076846845,-0.15685274
11.719636999999999,-2.5692465,1.911837,-0.19680333,0.026808257999999998,0.013473942
11.597887,-0.060592457999999995,1.2281777,-0.06585127,-0.06312856,0.15666075
11.077618,1.7378744,0.914949,0.04059636,-0.1291369,0.21575761
10.072645,1.2586414,0.34006283,0.06295402,-0.19514526,0.28602457
8.565036,0.4330536,0.34940022,-0.07171558,-0.15149458,0.43188173
7.4056487,0.20764431,0.37371573,-0.26494098,-0.14723597,0.4776617
6.545958000000001,0.44455537,0.38798517,-0.32773793,-0.085486226,0.30307642
6.2374606,0.8174667,0.35162205,-0.18722147,-0.11477285,0.04701917
6.1939144,0.7645165,0.2671929,0.13802063,-0.26434755,-0.15524703
6.200628,0.57247275,0.36742377,0.33231068,-0.23081979,-0.1616524
6.5214989999999995,0.40731117,0.45984949999999997,0.29398325,-0.0072431164,0.042219516
6.9386453999999995,0.037627272,0.073932946,-0.06211627,-0.10625564,0.056059975
7.084213,-0.39414307,-0.42227972,-0.35330700000000004,-0.42458624,-0.52361625
6.998146,-0.08986875400000001,-1.2755733,0.002268928,-0.21910863,-1.0309310999999999
7.329753,0.7373854000000001,-1.6816394000000001,0.4121595,-0.33941418,-0.69715434
10.317725,1.5640074,-1.4976209999999999,0.29930650000000003,-0.19568631,-0.11426671
13.007850999999999,1.0086389,-0.32452926,0.004939282,0.1444609,0.12739158
13.645876999999999,-1.5536165000000002,0.43953714,-0.14037684,0.11198033,0.008691739
12.300594,-2.0415834999999998,-0.9829921999999999,-0.12547173,0.0044505894,0.031573005
10.930641,-0.17198029999999997,-2.592767,0.012915436,0.023614304,0.15027285
10.7346325,1.3964708000000001,-2.0628633,0.13055062,0.1471138,0.25460863
12.438299,0.9447711,-0.34651762,0.18964748,0.21205749999999998,0.37493163
14.973567000000001,-0.766135,3.1150765,0.3253992,0.24506168,0.44518113
15.371503,-3.5105989999999996,4.6801667,0.514366,0.19715239,0.37013197
7.828369,-0.10451169,1.9187802999999999,0.6490355999999999,0.16681857,0.25940830000000004
8.237461999999999,3.0735996,0.001982399,0.6314776,0.12742649,0.053407077000000004
13.720156,3.7745357000000004,1.0096923,0.4850968,-0.0077667153,-0.09936159
14.422201999999999,1.069509,1.242696,0.3035651,-0.117425755,-0.15418239
11.195727,-0.9628618,1.49063,0.11618657,-0.11210250000000001,-0.17921041
9.241139,-1.082706,1.5532431999999998,0.046460666,-0.10145599,-0.26970574
7.749293300000001,-1.1342483,1.3293566,0.16570155,-0.11796680000000001,-0.39053488
6.3416853,-1.4593617,1.1962485,0.36690313,-0.15468854,-0.31016245
6.375941,-2.0892188999999997,1.4488463,0.42706463,-0.18024015,-0.09829694
7.111669999999999,-1.7940328,1.447228,0.13322099,-0.15468854,0.025726152999999998
7.389158,-1.4876708,0.8553429,-0.19893263,-0.2462485,0.13219124
7.0659785,-0.89225197,0.018875888,-0.37460002,0.035866518,0.06351253400000001
6.8651146999999995,-0.09591172,-0.790393,-0.3596949,0.28338912,-0.1052259
6.979107400000001,0.52340126,-1.5752027,0.15718435,-0.031189033999999997,-0.08339183
7.0608745,0.4224521,-1.7837281000000003,0.5521698,-0.32025045,0.41112974
7.2414546,0.07919061,-1.3324690000000001,0.36531487,-0.08122762,0.8146324
7.950703,-1.1080940000000001,-0.7456596999999999,-0.08075638,0.0816465,0.8343197
10.082701,-2.262875,-0.3108823,-0.16751671,0.06939429,0.25356144
12.965694000000001,-0.09810481,-1.3016796,-0.06798057,0.063006386,-0.1094845
13.03618,1.6858819999999999,-2.5955732000000005,-0.028588492000000004,0.07897615,-0.090844385
12.160027000000001,1.6676381,-3.9717027999999996,-0.023265239,0.12955579,-0.06742207
11.698864,-0.69213504,-3.9482687000000007,-0.11747811,0.124756135,-0.15631169
12.594219,-1.466688,-1.0438528,-0.23832470000000003,0.18811159,-0.31974432
12.56049,-0.9280212999999999,4.2660365,-0.36075956,0.18065903,-0.4325973
11.031628999999999,-0.21842779999999998,3.2025799999999998,-0.46881288,0.10133382,-0.41662756
11.518734,1.8731755,2.2719633999999997,-0.5055346,0.061418135,-0.38308233
10.614933,0.5060672,1.4012975,-0.52258646,0.109851025,-0.33943164
11.96147,-1.1953578999999999,2.2879949,-0.49970523,0.09388126,-0.24096015
11.7372675,-3.0219421000000004,2.148183,-0.38205257,0.038519416,-0.077003926
11.892805000000001,-1.2702197,1.2027702,-0.21703169,-0.01308997,0.09332275400000001
11.81167,1.1276882,0.48070782,-0.073303826,-0.055152405,0.22694516
10.645531,1.4872111000000001,-0.2757354,-0.01155408,-0.08974483,0.31902874
9.267303,1.3580582,-0.27985346,-0.06637487,-0.08868018,0.43294638
7.709732000000001,1.1067628,-0.29181490000000004,-0.19839157,-0.12116075,0.4590215999999999
6.76587,0.9424056999999999,-0.08283938,-0.25907668,-0.09506808,0.2769663
6.572294,0.8853375,0.029994559,-0.042952552000000005,-0.018413223,0.028920105
6.4509273,0.5281992,0.14660177,0.28068385,-0.28405234,-0.13927728
5.972288,0.11534306400000001,0.2457313,0.4744503,-0.2936342,-0.15791739999999999
6.023706,-0.015820885,0.2818167,0.44357544,-0.031730086,0.008150687
6.3516639999999995,-0.16983510000000002,0.07038952400000001,0.23596852,-0.09080948,-0.012060225
6.543899,-0.16411774,-0.3596187,0.07731809,-0.35377824,-0.44484952
6.658859,0.08173805,-0.8489073,0.31953487,-0.14084807,-0.9335068000000001
7.222521,0.48649222,-1.147857,0.6107256,-0.099326685,-0.7738092
10.158157000000001,0.684962,-1.2655176000000001,0.49733156,-0.031189033999999997,-0.23511331
13.7802105,0.5534245,-0.52455044,0.10979866,0.29829422,0.09384635
14.471216,-1.2252566999999999,0.2203719,-0.14090043,0.24240878,0.023055799999999998
12.514866,-1.6417424999999999,-1.3247885,-0.21968459,0.17905332,0.066706486
11.244186000000001,-0.05303636,-2.819498,-0.16538739,0.14126694,0.20724039
11.140211,1.0554598999999998,-2.3030592999999997,-0.091402896,0.23441517,0.32381094
12.353324,0.8929798000000001,-0.65519726,-0.056793015,0.22218041,0.3892957
14.038573999999999,-0.75912476,2.2452058999999998,0.0017453292000000002,0.18385299,0.41006509999999996
14.445119,-3.003143,4.4705296,0.15772541,0.109851025,0.40952405
8.317860000000001,-0.88777953,2.1559021,0.31686452,0.15084879999999998,0.31635840000000004
9.182338,3.3574752999999995,0.63440603,0.31314698,0.16840681,0.12206833
13.687403,4.5994625,0.6678099000000001,0.17102481,0.100810215,-0.051452305
13.554897,2.1167328,0.73954016,-0.0009075712300000001,-0.019477874,-0.12597786
10.512356,-0.29237032,0.7414268,-0.14622368,-0.06899287,-0.16802284
8.665191,-0.59894305,0.7443094,-0.15367624,-0.13180727,-0.22125539
7.373825,-0.8950579,0.6038464,-0.032306045,-0.085486226,-0.31920326
6.4028044,-1.0538604999999999,0.57806563,0.1587726,-0.14617133,-0.24893631
5.987075,-1.4144752,0.7120835,0.25033256,-0.092415184,-0.032829642
6.7264714,-1.7686830000000002,1.1162438000000001,0.058171824000000004,-0.14723597,0.079482295
7.468922599999999,-1.4041994,0.8029864999999999,-0.18561576,-0.21591468,0.16730726
7.2005234,-1.0426078,0.019335573999999998,-0.2926219,0.1471138,0.05021312
7.27075,-0.45639232,-0.6080985,-0.21542598,0.20408134,-0.12330751
7.7156982,0.069949,-0.82977283,0.24980898,-0.03864159,-0.048781954
7.565467,0.023463177,-0.80591697,0.426541,-0.2414663,0.44413394
7.637408,-0.24451503,-1.1832432,0.06349508,-0.03757694,0.83857834
8.553621000000001,-1.4616505,-1.087159,-0.3362726,-0.09613273,0.74436545
11.071067,-2.4432638,-0.65648055,-0.2798461,0.024155356,0.16837192
13.827442999999999,-0.8177444,-1.3723468,0.020367993,0.08271115,-0.1685639
12.746807,0.9642695,-2.6418673999999998,0.15983725,0.13114405,-0.13343042
12.000726,0.6342336,-3.8323697999999995,0.154514,0.15404277,-0.11639601
11.948848,-1.3420266,-3.3847213,0.016109388,0.10719812,-0.19411552
12.594478,-1.8007174,-0.9454607,-0.14250614,0.09548696,-0.33677873
11.533942,-0.6907368,3.4897214999999995,-0.27930504,0.09601056,-0.44909066
10.432533,1.1475695,3.576947,-0.36501816,0.108786374,-0.45708427
11.214191,2.9150652999999997,2.9089357999999996,-0.44219659999999994,0.14126694,-0.41662756
10.424603,0.099531755,1.914394,-0.5523967,0.15830137,-0.31867966
12.614982000000001,-2.616326,2.5982451,-0.5907241,0.07045894,-0.18612191
12.353697,-3.9385383000000003,2.3048596000000003,-0.45444882,-0.03970624,-0.024294984
11.721926,-1.3745973999999999,1.2861843000000002,-0.25642377,-0.07696902,0.09332275400000001
11.142012,1.1660242,0.65867364,-0.06796312,-0.068451814,0.20352285
9.780764,1.5381213,0.14317326,0.028902652,-0.03970624,0.30518827
8.370292,1.3138803,0.08999325,0.009180431999999999,-0.060999255999999995,0.3983365
7.089144999999999,1.0278116,-0.02138501,-0.11747811,-0.032253683,0.36800268
6.361614,1.1259834999999998,0.12164460000000002,-0.18987437,-0.02693043,0.18329448
6.485040000000001,1.354601,0.09202354,-0.032829642,-0.1254019,-0.025883233
6.634879,0.9053339,0.066147,0.1587726,-0.2978928,-0.16589354
6.303282,0.48631024,0.30602685,0.2098933,-0.1270076,-0.079656824
6.248838,0.1654585,0.32038249999999996,0.053372167000000005,0.025743606000000002,0.0879995
6.6649694,-0.31875443,-0.011616666999999999,-0.14302973,-0.057805302999999995,-0.022706734
6.8436913,-0.7999985,-0.689578,-0.2601413,-0.24092525,-0.45814893
7.1355830000000005,-0.5365023,-1.065123,0.14599679999999998,-0.15097098,-0.9106254999999999
8.251845,0.23524468,-1.5016049999999999,0.7129321,-0.10306169,-0.72644097
11.297547999999999,1.2439506,-1.0782909999999999,0.6197664,-0.095609136,-0.110008106
13.744910999999998,0.80101365,-0.21911734,0.12630948,0.13062043,0.22586305
13.514101,-1.2539871,-0.15175408,-0.26279423,0.059288833,0.05820673
12.45934,-1.52661,-2.4042668,-0.37938222,0.0752586,-0.014189526000000001
11.050276,0.19573078,-3.568031,-0.24843016,0.09548696,0.06351253400000001
11.353956,1.3711498,-2.5317056,-0.009948377,0.15032521,0.19128808
12.855417,1.2330713,-0.24599944,0.158249,0.15510741,0.3978129
13.293536999999999,-0.5867039000000001,3.2157385,0.33923966,0.12901473,0.5426054
13.983603500000001,-4.0123370000000005,5.931635,0.5202303,0.06354744,0.5340882
8.447433,-1.6774639,3.2259092000000003,0.57346284,0.12688543,0.32063442
7.183716,2.8986888,0.51057786,0.46752134,0.11410963,0.07522369
12.067121499999999,5.255024,0.24183352,0.29613,0.024155356,-0.13980088
14.795525,3.5978818,0.101992995,0.16676621,-0.07590437,-0.17388715
11.830210000000001,-0.73017406,0.517636,0.035814155,0.014573500000000001,-0.15898204
9.468148,-1.7119212,1.2723745000000002,0.020367993,0.013508848,-0.23031364
7.6913443,-1.5561066000000001,1.4677893,0.16941911,-0.07377507,-0.2968456
5.990886,-1.630844,1.3959919,0.38449603,-0.15310028,-0.24202481
5.883789,-1.9044150000000002,1.6202903999999998,0.4680624,-0.21165608,-0.019512782
7.065192999999999,-1.2511428999999998,1.4210353,0.24342106,-0.20153317,0.047001716
7.887774,-0.5888491,0.7251175,-0.09672615,-0.28351128,0.09599311
7.369927400000001,-0.27069804,-0.18375976,-0.325085,0.10932742,0.0038920840999999997
7.1698394,-0.25131455,-0.5478604,-0.21010274,0.13966125,-0.14992379
7.383708500000001,-0.0858465,-0.9441869,0.2652377,-0.046635196,0.020926498
8.080843,0.21160911,-1.2142625,0.21574014,-0.117425755,0.6528055
8.300573,0.22305341,-1.0276488000000001,-0.1712517,0.12210324,0.8689296000000001
8.259047500000001,-0.7700519,-0.95332325,-0.5550496,-0.008290314,0.5074894
9.37059,-2.2337903999999997,-0.82552075,-0.47680649999999997,0.046513025,-0.022165682000000003
12.93432,-0.769506,-1.8450293999999998,-0.2883633,0.100810215,-0.13023646
13.470995000000002,1.3301896999999998,-3.0117047,-0.057334065,0.10026917,-0.05625196
12.335989999999999,1.3839252,-4.4836025,0.10660471,0.15084879999999998,-0.038676497000000004
11.855944000000001,-0.37559277,-3.5489059999999997,0.061365776,0.19343483,-0.15472344
11.981772,-0.67761654,0.2636974,-0.05146976,0.2578375,-0.31920326
11.464519500000002,-0.06656838,3.5465980000000004,-0.18029252,0.16362461,-0.44111452
12.154414,1.1758594999999998,2.844034,-0.2755875,0.13753195,-0.4278151
12.2545395,1.1859534999999999,2.1764827,-0.34424874,0.13700834,-0.32772046
10.877088,-1.08646,1.8508329,-0.35702455,0.13753195,-0.19624482
11.823497,-2.4905443,2.2901592,-0.2841047,0.0816465,-0.033353243
11.7236395,-2.5300486,2.1045992,-0.11906636,-0.04448844,0.1497667
11.814352,-0.69053566,1.7436397000000001,0.040072758,-0.08602728,0.24343853
10.390021,0.43347502,0.8194874,0.16783085,-0.11103784,0.31796408
9.194175,0.75924927,0.17441282,0.17156586,-0.08122762,0.4036772
7.7342386,0.85197186,0.093536675,0.056583576,-0.08655088,0.48459068
6.5524898,1.0919666000000001,-0.0012066776,-0.08340929,-0.14032447,0.35522687
5.850385,1.2557971,0.25899518,-0.07543313,-0.042900192999999996,0.10183996
6.0039105,1.1294503,0.3923522,0.14493214,-0.13606587,-0.10255554
6.3349905,0.60685354,0.5192928,0.40631264,-0.35164893,-0.21006782
6.485787,0.30057767,0.52001107,0.49254936,-0.16907005,-0.103620194
6.8632474000000006,-0.075857885,0.29595205,0.34828046,0.11304498,0.08002335
6.984375,-0.22858879999999998,-0.38095582,-0.041364305,-0.12487831,-0.048258353
7.1932163000000005,0.22100396,-1.0653048,-0.026459191,-0.24359560000000002,-0.59388316
8.285834,0.7778666,-1.3947278,0.4004658,-0.07803367,-0.8105309
9.23366,1.1799008999999998,-1.5070925,0.53407073,-0.26860616,-0.3506192
12.371022,1.1380311,-1.299678,0.21626374,-0.048764499999999995,0.13432054
14.088717,0.3001946,-0.64304423,-0.104178704,0.020961404,0.12419763
13.52566,-1.1781005,-0.32467290000000004,-0.30965632,-0.041835542999999996,-0.021642083
12.138314999999999,-1.0691546,-1.9394662,-0.35437164,0.039584067,-0.022165682000000003
11.018969,0.68432987,-2.602593,-0.26279423,0.15617207,0.07044149
11.615086999999999,1.3236583,-1.3304770000000001,-0.12386601400000001,0.25570820000000005,0.22692771
12.7481575,0.21729775,1.2328128,0.043266714000000005,0.2727426,0.38238418
14.634941,-1.3227677,4.243646,0.26312584,0.1316851,0.3978129
11.828908,-2.3161794999999996,4.3814945,0.4244117,0.060877085,0.31370547
6.484886599999999,1.555532,0.9771407,0.40364229999999995,0.17107718,0.12526228
9.799478,3.3820302000000004,-0.13961070000000003,0.26364943,0.12796754,-0.053040557
14.259606,3.6824067000000005,0.6991739,0.08000589,-0.03544764,-0.13714798
13.366014000000002,0.41545144,0.29713959,-0.06159267,-0.10199704,-0.16536994
10.577276,-1.0373693000000002,0.9141924000000001,-0.0999201,-0.14351842,-0.22392574
8.75437,-0.88652503,1.5035204,0.031031952999999998,-0.17917550000000002,-0.24787165
6.7039948,-1.3511055,1.6241403,0.28867745,-0.070581116,-0.2558478
5.538401599999999,-2.265432,1.5018348999999998,0.49254936,-0.08868018,-0.07007497
6.4132430000000005,-2.420375,1.6604267,0.38980183,-0.045570545,0.009215338
8.101192999999999,-1.6197731000000002,0.8429409999999999,0.07840019,-0.19141026,0.08002335
7.9619083,-0.81180674,-0.32981566,-0.10576695,-0.11475539999999998,0.07311184
7.0002246,-0.35202426,-0.70617455,-0.18242182,0.26316074,-0.09775589400000001
6.702299000000001,0.07109821599999999,-1.1910866000000002,-0.026441738,0.33503342,-0.18558086
6.9533076000000005,0.08676587,-1.4926795,0.42867032,-0.27127653,0.11674507
6.925037,-0.102117494,-1.4221941,0.37491417,-0.22228514,0.6959151
7.3464546,-0.9215091000000001,-1.0036494,-0.05572836,-0.07483972,0.9125803
9.015500999999999,-2.6782593999999995,-0.22011332,-0.30750957,-0.04342379,0.48459068
12.557789,-1.879228,-0.23572353,-0.13931218,0.138073,-0.043458696
13.413054999999998,0.73870695,-1.6433321,-0.006754424,0.10506882,-0.14407693
12.263330999999999,2.04212,-3.0787997000000003,-0.10629055,0.11945033,-0.14405948
11.534258,0.78947365,-4.251767,-0.22553144,0.0816465,-0.16002923
12.116126,-1.1766926000000002,-2.7096617000000003,-0.3032684,0.04118977,-0.25799456
12.438251,-0.96298623,1.2181411,-0.34850734,0.04703662,-0.40118137
10.871563,0.052088253,4.2700396,-0.42038000000000003,0.0060562924,-0.43525020000000003
10.888618,1.8124297999999999,3.1198459,-0.5023407,0.01616175,-0.43898519999999996
11.275646,0.8856630999999999,1.647747,-0.6348984000000001,0.0816465,-0.40598103
11.7114105,-2.0604978,1.7305671999999999,-0.7456221,0.12049753,-0.27768190000000004
12.422488000000001,-3.3651845000000002,2.673835,-0.7003656999999999,0.056635935,-0.104667395
11.971105,-2.3438852000000003,1.3401017,-0.52258646,0.022026055,0.06937684
12.230808,0.8720832000000001,0.60601074,-0.33466688,-0.018413223,0.19233528
11.269488,1.6280571000000001,0.23749524,-0.2308547,-0.008831366,0.28602457
9.874281,1.0475781,0.40083724,-0.20956168,0.00286234,0.38505453
8.572411,0.47341028,0.16655025,-0.20371483,-0.069516465,0.44891614
6.9776807000000005,0.3345945,0.069422275,-0.18455112,-0.058328904,0.35789722
6.386657700000001,0.831784,-0.026068067,-0.007278023000000001,-0.026389378999999998,0.14231415
6.269121599999999,1.206534,-0.041170694,0.33126348,-0.16746435,-0.06314601
5.8635244,0.81472766,0.20795079,0.613937,-0.2968107,-0.15364133
5.8463054,0.18030253,0.47348690000000004,0.6628935,-0.08655088,-0.03174754
6.293743,-0.32089007,0.5446713000000001,0.41748276,0.19130553,0.16039576
6.650776400000001,-0.77281,0.046801854000000004,-0.06531022,-0.14936528,0.00017453292
6.9467479999999995,-0.5799234999999999,-0.6124559,-0.20371483,-0.28776988,-0.58908355
7.5288353,-0.127429,-0.94590116,0.13482669,-0.070581116,-0.87388635
8.879529,0.32185733,-1.09144,0.29239499999999996,-0.21537364,-0.47783625
12.259366,0.20362207,-0.6530999,0.049113564000000005,-0.019477874,0.016144296000000002
14.021163,-1.2315199,0.09964667,-0.27398178,0.21207495,0.10131636
13.546288500000001,-2.2337806000000002,-0.41392875,-0.4107807,0.13062043,0.065659285
11.897746000000001,-1.2642343,-2.4738138,-0.38842303,0.10241592,0.05766568
10.79989,0.72415984,-3.1674043999999997,-0.30007446,0.11252138,0.10238101
11.965933,1.2464693,-1.8344373999999999,-0.22607249,0.22483331,0.19607028
13.040297,0.63494223,0.57559484,-0.13610077,0.27487192,0.31051153
14.258639000000002,-0.68839043,2.817554,-0.009407325,0.24827309,0.3509857
13.368867999999999,-1.5719562,4.112778700000001,0.15559610000000001,0.16414821,0.3238284
7.32688,1.1604313,1.1805617,0.18434167,0.1939759,0.18010053
9.214611999999999,2.7790265,-0.030904356,0.056583576,0.1465902,0.006021386
12.869216999999999,3.529379,0.79484624,-0.102031946,0.018832102,-0.108926
12.451506,0.7542406,0.89588153,-0.19465657,-0.06792822,-0.1685639
9.879405,-0.9835285,1.2790879,-0.18987437,-0.098262034,-0.20847958
8.307037,-0.9960071,1.3999376000000001,-0.099902645,-0.12753119999999998,-0.25797713
7.251060000000001,-1.2597237,1.2107956,0.08372344,0.04544837400000001,-0.34101987
6.428594,-1.8974144,1.0197,0.32646385,-0.0008552113400000001,-0.23989551
6.7728324,-2.2466135,1.1487571,0.4111123,-0.09028588,-0.009930924
8.30922,-1.5511075,0.9272264000000001,0.11779227,-0.18502235,0.13964379
8.324544,-1.0215868000000001,0.16751749999999999,-0.19626227,-0.10306169,0.22001621
7.5068474,-0.7113461,-0.411343,-0.41345105,0.19662879999999996,0.13590878
7.593249,-0.3987112,-0.75116646,-0.20690878,0.18065903,0.05873033
7.707097999999999,-0.32227870000000003,-1.1018786,0.18434167,-0.2819056,0.41273546
7.32981,-0.5703563,-1.5615846000000002,0.13110913,-0.36016613,0.7571413
7.4518,-1.059712,-1.5435992,-0.09351474,-0.21856758,0.5516637
8.746478,-2.385008,-0.47415727,-0.06318091599999999,0.0049916417,0.10876892
11.567001,-2.718865,0.21463539,0.11301007,0.08431686,-0.066881016
12.728659,-0.22492088,-1.4595915000000002,0.15240215,0.13700834,0.040631264
12.178385,1.3106242000000001,-3.2444115,0.12843879,0.09016371,0.0225322
11.713574000000001,0.8992716999999999,-3.6214885999999997,-0.02591814,0.014049901000000002,-0.10253809400000001
12.5472355,-0.16364847,-2.2524076,-0.12332497,0.17055358,-0.25425956
13.795027,0.08760863,2.807556,-0.173381,0.2099282,-0.38734093
12.405891,0.09681194,4.2501006,-0.20317377,0.1939759,-0.40437534
11.714618,0.017017987,2.8536682,-0.27024677,0.17320648,-0.32984978
9.396552,-1.7376828000000002,1.4986553999999999,-0.34318408,0.11677998,-0.23509584
10.152296,-1.8739417,1.990319,-0.36819467,0.10400417,-0.14407693
11.798147,-1.5746665000000002,2.1982603,-0.28782225,0.04279547,-0.019495327
12.441526,-0.32134017,1.5446049,-0.1573938,-0.00031415926,0.07737044
11.093074,0.72915894,1.075169,-0.071157075,-0.009354965,0.17212437
9.804160000000001,0.64388704,0.26131275,-0.094055794,0.08964011,0.28230700000000003
8.22708,0.6493361999999999,0.34386483,-0.20477948,0.0768643,0.40315359999999995
7.1956773,0.60824215,0.68590045,-0.34850734,-0.060999255999999995,0.44680429
6.599885499999999,0.7584831,0.6450458,-0.40439278,-0.05300565,0.26474899999999996
6.563091,1.2076735,0.6385623,-0.21062633,0.08803441,0.04808382
7.1163526,1.1978766,0.5654051,0.11885692,-0.10464994,-0.081786126
6.948739,0.74639714,0.39076245,0.2987829,-0.20207421,-0.09723229
7.093942599999999,0.14042471,0.30449456,0.25513223,0.03693117,0.04860742
7.1724057,-0.17100346,-0.06489244,-0.09459685,-0.06312856,0.11780973
7.411528999999999,-0.026317063999999998,-0.8688845,-0.37353536,-0.33887312,-0.29525736
8.196684,0.45667958,-1.1863844,0.060301125,-0.10571459,-0.8861210999999999
8.226716999999999,0.81292725,-1.4421713,0.48883182,-0.22015584,-0.73174673
9.452366,0.71539706,-1.8355004000000001,0.48403215,-0.36175440000000003,-0.14566518
12.522767,0.00040222588,-1.0391793,0.11513937,-0.05300565,0.20565215
13.804872,-1.3998802,0.33111809999999997,-0.1552645,0.011920598000000001,0.07895869999999999
12.590119999999999,-1.9548273999999997,-0.38752547,-0.23991296,-0.034382987999999996,-0.009930924
11.185394,-0.2571564,-2.1158807,-0.15048228,-0.05300565,0.010821042
10.673312,1.3381575,-2.0126233,0.036878806,0.05396558,0.061924282000000004
11.347702,1.1309443000000001,-0.13066596,0.25408503,0.12103858599999999,0.21097539999999998
14.145106,-0.6822709,2.6950476,0.49680796,0.15564846,0.3233048
15.520392999999999,-3.5959567999999997,4.9697595,0.76881754,0.15830137,0.3605501
7.8706603,-1.1912016,2.9489095,0.94928455,0.17214182,0.32169908
6.9235144,2.7255113,0.20568107,0.9285325999999999,0.11519173,0.19767599
12.011566,4.191864499999999,0.20155348,0.75710636,-0.013631022,0.020926498
14.353124,1.9439098000000001,0.3268277,0.5708099,-0.12807226,-0.07752752
11.637247,-1.3143306000000001,1.0968891,0.3818257,-0.03651229,-0.16215853
9.615813000000001,-1.8682244,1.5408028,0.31848767,0.033737216,-0.29525736
8.164448,-1.9407782999999998,1.7483227,0.41004765,-0.0013788101,-0.45760787
6.460878,-2.1064186,1.6525164,0.5713335,-0.02693043,-0.33463198
6.3914366,-2.3089009999999996,1.6764487000000001,0.5878269,-0.10519099,-0.13821262
7.231552000000001,-1.7979019,1.7058974999999998,0.28708920000000004,-0.18395770000000003,-0.017907077
7.9960494,-1.2078748,0.96233505,-0.06424557,-0.20259781,0.08908161
7.575149000000001,-0.57407206,0.15086344,-0.3123092,0.16894788,0.010297443
7.2021704,0.030492553,-0.86994755,-0.25853562,0.20994565,-0.12808971
7.193245,0.2770187,-1.6833918999999997,0.19765854,-0.088139124,0.00017453292
7.4188747,0.16177142,-1.9576334,0.31581733,-0.27977628,0.44999823
7.6358179999999996,0.06115749,-1.0668945,0.03741986,-0.10091494,0.7198785
7.900157000000001,-1.0366988000000001,-0.44360727,-0.33466688,-0.041835542999999996,0.6794218000000001
10.411617,-2.2325356,0.27315927,-0.36180675,0.09016371,0.26900759999999996
13.112065,-0.28172090000000005,-0.8870613000000002,-0.28408724,0.22591542,0.066723935
12.868202,1.9059568999999998,-2.4882746,-0.26759390000000005,0.24188519,-0.047717302999999996
12.190853,1.4046686000000002,-4.1810994,-0.28621656,0.15456636,-0.13768902
11.806134,-0.43349418,-3.5593927000000005,-0.40812778,0.12210324,-0.25000095
12.616427,-0.59380037,-0.00593762,-0.45282567,0.17214182,-0.3601836
12.14747,-0.053275775,3.908161,-0.4320737,0.16894788,-0.40756929999999997
11.296380000000001,0.8108778,3.024547,-0.39481091,0.15617207,-0.39692277
10.966631,1.6745716,1.8529972,-0.35808920000000005,0.15245451,-0.3639186
9.774856,0.032800563,1.3227485,-0.38257617,0.17481218,-0.32717943
11.545022,-1.5192263000000001,2.5856805,-0.36128315,0.10454522,-0.21806143
13.093506,-2.3236779999999997,2.3360512000000004,-0.22127284,0.0034033920000000003,-0.03494149
12.669981,-0.81558,1.5536741000000003,-0.023788838,-0.07749262,0.119415425
11.057994,0.44723687,0.93686074,0.13482669,-0.14936528,0.22481586
9.363377999999999,0.5941834,0.24001393,0.18221237,-0.18024015,0.32436943
8.104037,0.5136616,0.38867470000000004,0.09597565,-0.15414748,0.44573963
7.107599700000001,0.30575868,0.34349135,-0.029112091,-0.16533504,0.48459068
6.560065,0.39480385,0.36899436,-0.086062185,-0.100391336,0.3153112
6.5140195,0.737213,0.21190599999999998,0.023579397999999998,-0.15522958,0.059253927000000005
6.932842,0.54381895,0.08004295,0.3009122,-0.38624138,-0.14672983
6.662967699999999,0.19506039,0.26260559999999994,0.5101247999999999,-0.44055602,-0.19250982
6.49432,0.08266699999999999,0.62941647,0.5346118000000001,-0.13871877,-0.022689281000000002
6.8268933,-0.20750067,0.35117194,0.4031187,-0.009896017,0.07737044
6.9675674,-0.38947916,-0.57319105,0.07522369,-0.33461452,-0.15737633
7.1777883000000005,0.13139379,-1.2554811000000001,0.02942625,-0.30426323,-0.6114411999999999
7.5041943,0.7290248,-1.6390034,0.45689228,-0.04448844,-0.77860886
9.793194999999999,1.1574146,-1.6388406999999998,0.6756693,-0.15575318,-0.44696137
13.341123999999999,1.1064181,-0.4249325,0.49415508,0.04066617,-0.036529742000000004
14.191170999999999,-0.78357434,0.550676,0.18699458,0.1402023,0.06724753
12.678448,-2.0683892,-0.6636152,0.03741986,0.09868091,0.113568574
10.875594,-0.9646909,-2.453645,0.040072758,0.08431686,0.21151645
10.851566,0.6376334,-2.5971916,0.10822786400000001,0.14074335,0.27007225
12.523800999999999,1.3234860000000002,-1.0321307,0.109275065,0.22698008,0.2775248
12.9091425,0.46785575,1.1310878999999998,0.13004448,0.27860692,0.35363862
13.002823,-1.0490434,3.6473174,0.21467550000000002,0.27063075,0.39783034
11.78181,-2.692596,4.2502637000000005,0.3466922,0.24933773,0.36215582
8.198972999999999,-0.09020394,1.5032427,0.36798522,0.23282692,0.16893041
10.96778,3.0577402,0.35789484,0.21095794,0.14978416,-0.042917646
13.446746,4.310339,0.5256805,0.017715093,0.018308504,-0.13608332
11.647111,1.2760425,0.6069972,-0.14568263,-0.051940999999999994,-0.15631169
9.689028,-0.31284556,1.1360966000000001,-0.23298400000000002,-0.1142318,-0.22444934
8.624576,-0.67922544,0.9266614,-0.14302973,-0.17704620000000001,-0.33676127
7.211411999999999,-1.0598843999999998,0.6252026999999999,0.08000589,-0.1254019,-0.4331209
6.2784104,-1.6289766,0.5338590999999999,0.28654817,-0.10571459,-0.18931587
6.5268717,-1.7812478999999999,0.6342049,0.25726154,-0.09878564,0.036913715
8.040629,-1.1937969,0.683286,-0.008883726,-0.27658233,0.1455081
7.903815299999999,-0.6228564,0.18210298,-0.25108308,-0.10677924,0.104510315
7.128189599999999,-0.16423267,-0.35462916,-0.3373198,0.27808330000000003,-0.09934414
7.201298700000001,0.07760087,-0.8076025,0.024644048999999998,0.10826277,-0.20528562
7.7670107,-0.04785530599999999,-1.1343536,0.43931684,-0.22495548,0.23865633
7.876397,-0.28609753,-1.4730853000000002,0.26099652,-0.15734144,0.7385185999999999
8.013766,-0.7530051999999999,-1.6402197,-0.17549285,0.017767452,0.8279493
9.04245,-2.3974771,-0.8900110000000001,-0.39641663,-0.02745403,0.41858232
11.930738,-2.2448227000000003,-0.31373617,-0.24682446,0.060894538,-0.03546509
12.772999,0.16807295,-1.1030278,-0.033911746,0.12582079,-0.100949846
12.297098,1.7100441000000002,-2.7902982000000005,0.14175564,0.17055358,-0.080704026
11.664858,0.29693848,-4.2689285,0.13058554,0.138073,-0.13767157
11.985555999999999,-1.7196593,-2.418364,0.024644048999999998,0.18278833,-0.27340582
12.335099000000001,-1.0080354999999999,2.4148492999999998,-0.08234464,0.20195204,-0.44483206
11.359683,0.11652101,3.2137656000000003,-0.17922786,0.18172368,-0.5017822000000001
12.009564,1.996362,2.7942247000000004,-0.26652923,0.14765486,-0.4208687
10.528176,1.5340608,1.8211064,-0.3713886,0.16842428,-0.32452652
11.121717,-1.1739633,2.3259287,-0.44484952,0.16468927,-0.22923154
12.799862,-3.49269,2.7319949,-0.38522908,0.08857546,-0.06846926
12.664723,-3.0519369,1.8267471999999998,-0.21327923,-0.016283922,0.081629045
11.619013,-0.5283237,1.1298813,-0.029112091,-0.10997319,0.18968238
10.283853,0.9093561,0.14980042,0.065641835,-0.12114330400000001,0.30892327
8.626137,0.98157483,-0.0018387470000000002,-0.021118484,-0.08068657,0.41858232
7.307027000000001,1.1504618,0.092799254,-0.20158553,-0.09293878,0.45052183
5.861504,1.1498680000000001,0.19596061,-0.32028538,-0.12594296,0.24610887
5.463741000000001,1.1447445,0.16203956,-0.21169098,-0.04448844,-0.041852996
6.4138364999999995,1.0443125,0.09540415599999999,0.12206833,-0.26061258,-0.25052455
7.0386467,0.73814195,0.17640479,0.33552209999999993,-0.19514526,-0.25638887
7.1110854,0.41058642,0.37968206,0.30677652,0.10135127,-0.038135443
7.124158,-0.11038228,0.24811591,-0.08819149,0.056635935,0.06831218
6.869281,-0.42278728,-0.28797457,-0.15845844,-0.32981488,-0.5166873
6.910710000000001,-0.051542375,-1.1440549,0.21786945,-0.20738003,-0.8238478000000001
7.5338345,0.6827114000000001,-1.7039436999999997,0.36800268,-0.40540507,-0.33889058
9.761869,1.400292,-1.4780077,0.076270886,-0.1104968,0.18702948
13.376904000000001,1.1258016000000002,-1.0239042999999999,-0.29208085,0.21420425,0.23813272
14.469807999999999,-0.95289224,0.1653723,-0.51670474,0.18278833,-0.05729916
12.929091,-1.7651683,-0.7341196999999999,-0.53215086,0.10241592,-0.09773844
11.066775999999999,-0.2439117,-2.1325154,-0.39746383,0.062482785,0.041695915
10.93881,0.8672851999999999,-1.9007183,-0.26757643,0.12103858599999999,0.17318901
12.525716000000001,0.37477875,0.5219743,-0.19200367,0.11519173,0.32224014
16.233004,-1.2583828000000001,3.5924324999999997,-0.10470230000000001,0.1529781,0.3930307
13.336889999999999,-2.3451397000000003,4.1436067,0.016667895,0.10986847400000001,0.34992105
6.1749816,1.8076031000000004,0.76829934,0.10182251,0.11306243,0.26207864
7.854610000000001,2.9449449,-0.52824706,0.09543460599999999,0.09496336400000001,0.12953834
13.222714999999999,2.6658,0.8459194,0.008674286,0.023631757000000003,-0.004049164
14.334076000000001,0.43814849999999994,1.0968795,-0.072221726,-0.07377507,-0.07911578
10.905071000000001,-1.1294790000000001,1.7678881000000002,-0.098837994,-0.08122762,-0.12808971
9.235432000000001,-1.0320159,1.8807220000000002,0.008133234,-0.031189033999999997,-0.21964969
7.586564500000001,-1.1183987,1.5567483,0.2125462,0.026825711000000002,-0.38892916
6.597461999999999,-1.411516,1.0843148,0.43240532,-0.010419616,-0.33463198
7.229062,-1.6289573999999998,1.0612538999999999,0.47019170000000005,-0.061522855999999994,-0.11798426
7.8954644,-1.6798964,0.9196989999999999,0.18275343,-0.18769270000000002,0.05129523
7.826683500000001,-1.3879569999999999,0.46890917,-0.116937056,-0.22069688,0.15774286
7.2713823,-0.8916006999999999,-0.102213256,-0.35381314,0.16203637,0.05607743
7.026608500000001,-0.5461844,-0.49135724,-0.3367962,0.25785494,-0.12437216
7.019541,-0.1499728,-0.81852967,0.13962634,0.00286234,0.03637266
7.100340400000001,-0.26160008,-1.0595013,0.22692771,-0.22122048,0.6453704
7.477504,-0.72709036,-0.7410916,-0.07806858,-0.032253683,0.89608693
8.221344,-1.9864022000000001,-0.34850958,-0.2356369,-0.031712633,0.5080304
10.405880999999999,-2.4402182,0.030176517000000003,-0.058904864,0.17907079,-0.10412634
12.011747999999999,-0.36549884,-0.87171924,0.12630948,0.25199065,-0.16854644
11.962332,1.8272451,-2.4676461,0.18221237,0.25837854,-0.10253809400000001
11.6936455,1.5708165,-4.188626999999999,0.13058554,0.14126694,-0.13980088
12.065762,-0.42169553,-3.9998682,0.017732546000000002,0.09655161,-0.25691247
13.254079999999998,-1.2355038,-0.41821915,-0.040805798,0.12316789,-0.38308233
12.980030000000001,-0.05254794,4.036413,-0.088715084,0.12051498,-0.43045056
12.118673,1.0177273,3.2007604,-0.124913216,0.13542010000000002,-0.39851102
11.549141,0.94221413,2.2540357,-0.19943877,0.16681857,-0.34686673
10.407633,-2.3589206000000003,1.707401,-0.27928758,0.13967870000000002,-0.27555257
11.677211,-3.3132305,2.398674,-0.2808933,0.08058185,-0.16322319
11.287139,-2.7201004,1.7652737,-0.15472344,-0.014678219,0.002321288
11.527287,-0.06777506,1.5839943,0.022514747,-0.10623819400000001,0.120480075
10.845369999999999,1.3225284,0.6736805,0.120480075,-0.16107644,0.19022344
9.712702,1.2028565,0.32191479999999995,0.09916960400000001,-0.1818284,0.2855184
8.210761999999999,0.5939248,0.20477128,-0.04399975,-0.117425755,0.40369466
6.9625397,0.35223496,0.23534046,-0.16536994,-0.04342379,0.30894074
6.232835,0.80123395,0.16095739999999997,-0.14088298,0.00286234,0.12421508
6.459575,1.257157,0.16131173,0.029443703999999998,-0.18449876,-0.040264744
6.634888,1.1085441,0.2898708,0.23492132,-0.25209534,-0.14299482
6.422494,0.7087507,0.42755654,0.36746162,0.04118977,-0.025342181000000002
6.733338000000001,0.2911062,0.6075909,0.16837192,0.16788322,0.092816606
7.026561,-0.12237243,0.06963296,0.044889867,-0.24836035,-0.43629742
6.8913554999999995,-0.15083470000000002,-0.73016447,0.46008626,-0.20950933,-0.864287
6.9613905,0.35637212,-1.624667,0.5974262,-0.49431214,-0.33517304
8.419182000000001,1.2133334999999998,-1.6617388,0.25834364,-0.14243633,0.23708552
12.707216,1.6626293999999997,-0.5660563,-0.12119567,0.22430971,0.31372294
14.316206,0.21566011,-0.015179238000000001,-0.34794885,0.24773203,-0.044505894000000004
12.713804,-1.3505979,-0.40961918,-0.37350047,0.10880382,-0.12648399999999999
11.561264999999999,-0.8283267,-1.8155423,-0.26012388,0.007120943,-0.024818582000000002
11.40771,0.40161297,-1.5945096,-0.13023646,0.04811873,0.15988961
13.558182999999998,-0.30294309999999997,0.53086156,-0.044540804,0.18971729999999998,0.29988247
17.65831,-1.704346,3.7079383999999997,0.06511823,0.21472786,0.37175512
14.08959,-2.0757537,4.0448413,0.19924679999999997,0.19343483,0.32810444
5.554567,2.8946283,0.62967503,0.2716605,0.16790067,0.2099282
6.679497200000001,3.7011678,-1.0463619,0.26312584,0.110933125,0.035325464
12.637938,2.7669597,0.35721490000000006,0.17210692,0.02576106,-0.11211995
15.1922245,0.2614085,0.8983235999999999,0.08319984400000001,-0.09187413,-0.14618878
11.125874000000001,-1.4025905,1.5690545,0.043825217,-0.07377507,-0.16481145
9.049767,-0.7926723000000001,1.8986498,0.06990044,-0.0013788101,-0.27340582
7.4470973,-0.43064025,1.6446154999999998,0.22108085,-0.040770892,-0.43416809999999995
6.151528,-0.9843521000000001,1.3499755,0.40633009999999997,-0.16214108,-0.33995524
6.08539,-1.7094313,1.4846157,0.4648859,-0.20577432,-0.12487831
6.8793745,-1.8143356,1.36277,0.24928537,-0.19247492,0.0028448866
7.6453853,-1.4032223999999998,0.93364286,-0.081786126,-0.22654374,0.0800408
7.818409,-1.0401658,0.29468793,-0.26012388,0.12264428,-0.032794736
7.513273,-0.5367513,-0.37400302,-0.1712168,0.17535323,-0.15310028
7.191282000000001,-0.035156455,-1.1056423,0.29560640000000005,-0.07588691,0.08110545
7.4559940000000005,-0.11783303,-1.3586998,0.21521655,-0.20046851,0.80026835
7.8756595,-0.58522904,-0.79283506,-0.11746066,-0.09346238,0.8950223
7.822575,-1.3902649999999999,-0.4519295,-0.44963172,-0.06578146,0.54476964
9.5896015,-1.8917162,-0.24658361,-0.34316665,0.017784905,-0.045570545
12.367460000000001,-0.29344293,-1.1512088,-0.18772762,0.092310466,-0.14990632
12.909593,1.2973222,-2.4928906000000004,-0.06635742,0.12903219999999999,-0.045046947999999996
12.270561,0.93615204,-3.9946778,-0.020053834,0.09283406,-0.0051138145
12.06081,-0.6916561,-3.2912803,-0.09616764,0.060894538,-0.10997319
12.536969000000001,-0.51525134,0.37285382,-0.1754754,0.11360348,-0.27818802
12.077732000000001,0.7029472,4.681124,-0.29951596,0.12957324,-0.36709509999999995
12.189225,1.7106092000000002,2.9617329,-0.41076323,0.09442231,-0.35805428
10.569874,0.9717681999999999,1.7484568,-0.51138145,0.10613347,-0.33622023
10.329438,-1.5051101,1.8003631000000002,-0.60294145,0.14980161,-0.28618163
12.19841,-2.7229161,2.4916650000000002,-0.61997586,0.08431686,-0.15468854
12.345145,-2.8464568,2.0093959999999997,-0.5209633,0.026302112000000002,-0.0077667153
12.277744,-0.30247387,1.6687299,-0.34581953,-0.09346238,0.11517428
11.403362,1.3140337,0.71736985,-0.20847958,-0.15308283,0.2099282
10.290595,1.2113991000000002,0.24034911,-0.15631169,-0.10623819400000001,0.32119295
8.834939,0.7526125,0.037818807999999995,-0.1712168,-0.10304424,0.40210640000000003
7.4587045,0.5873647,0.112690285,-0.22019073,-0.04075344,0.35897929999999995
6.5326557,1.1528847,0.19158402,-0.13875368,0.07953466,0.20034635
6.3229427000000005,1.4470266999999999,0.10907025,0.13538519,-0.0029670596000000004,0.011903145
6.0124629999999994,1.0632745000000001,0.28095478,0.4105887,-0.15095353,-0.09506808
6.0468817,0.5701169,0.22423135,0.4601037,-0.04181809,0.020420352
6.281753500000001,0.16894445,0.41793185,0.26047292,0.18545869,0.25090852
6.442643599999999,-0.22768858,0.21347660000000002,-0.039741147000000004,-0.014137166999999999,0.08323475
6.3651385000000005,-0.75899065,-0.59763104,-0.2249904,-0.39315286,-0.43895029999999996
6.1036243,-0.63604367,-1.1531433,0.16519542,-0.19832176,-0.8355239999999999
8.049076,0.25549006,-1.134976,0.59370863,-0.24890140000000002,-0.5624498
11.805597,1.0049614,-0.7442711,0.4893903,-0.16318828,-0.10358529
14.331337,0.22193292,0.32728738,0.13538519,0.15299556,0.088558
14.258304999999998,-2.0674984,0.63368773,-0.12011356,0.13702579999999998,-0.043964844
12.36588,-1.6095357,-1.6042875,-0.1648289,0.081122905,0.01563815
11.091963,0.6911676999999999,-3.1291450000000003,-0.0035430184000000003,0.066217795,0.123691484
11.515402,1.8551233,-2.2902452999999996,0.12527974,0.13116150000000001,0.20142844
13.566332000000001,0.9460735999999998,0.04928225,0.16732472,0.20835741,0.31958723
13.922742000000001,-1.1051923000000001,2.9286356,0.25408503,0.23230332,0.38400733
12.792162,-2.6348572,4.716012,0.41858232,0.21526891,0.35259143
7.7698073,-0.8694974,2.2911935000000003,0.5090776,0.20090485,0.22483331
8.850472,2.3147428,0.26135105,0.48352602,0.13967870000000002,0.04118977
13.337732999999998,4.028196299999999,0.66282994,0.37226129999999996,0.008203047,-0.11370819999999998
14.123875,2.148078,0.9832699,0.25514970000000003,-0.12486085,-0.14777702
10.90601,-0.42225100000000004,1.6841293999999998,0.14390239,-0.18128735,-0.15575318
9.221661,-0.8396273999999999,2.0001830000000003,0.06831218,-0.25848326,-0.23347269
7.670408999999999,-1.0590511999999999,1.5008101,0.1497667,-0.2430371,-0.37507126
6.3751945,-1.4295107,1.1294790000000001,0.30147073,-0.18289305,-0.33993778
6.3759027,-1.8010143,1.3337715,0.3733259,-0.11794935,-0.11903145
7.139336999999999,-1.5065274,1.3464223,0.08854055400000001,-0.10782644,0.05609488
7.824097999999999,-1.0619049999999999,0.76769596,-0.2569299,-0.17118189,0.13220869
7.220136599999999,-0.74173325,0.22835897,-0.47783625,0.11412708,0.04597197
6.7378774,-0.46438894,-0.33795592,-0.45814893,0.21048671,-0.12754866
6.772736999999999,0.14426501,-0.9143648000000001,0.10079276599999999,-0.15786503,-0.04288274
7.017663499999999,0.36758658,-1.2111691999999998,0.32011083,-0.34098497,0.5069832000000001
7.2310443,0.20280804,-1.399181,0.15987216,-0.11634365,0.74118894
7.7428479999999995,-0.95852345,-1.3718488000000002,-0.12810716,-0.0019024089,0.6799803000000001
9.810673,-2.168668,-0.68170583,-0.12224286,0.052918382,0.23017402
12.882653,0.024650702000000003,-1.0683790000000002,-0.041329395,0.10295697,0.056635935
13.457463,1.9162233,-2.1522915,0.062465332,0.09283406,0.018832102
12.322486999999999,1.9912671000000002,-3.7500765,0.11250392,0.10934488,-0.06738716
11.615278,-0.23677698,-3.9521663,0.031573005,0.15725416,-0.22814944
12.569607000000001,-1.2648854999999999,0.24185267,-0.037594393,0.22752112,-0.40646973
12.298325,-0.78440756,4.128983,-0.12756611,0.17161822,-0.47886598
11.380215,-0.12174037,2.9018874,-0.22019073,0.11147418,-0.4304331
11.17868,1.0424929,2.1508837000000005,-0.30908036,0.13756685,-0.33885568
10.455795,-0.15866853,1.9447142,-0.40968114,0.16151276,-0.26274186
12.874130000000001,-1.2424662,2.3943741000000003,-0.45067890000000005,0.12264428,-0.16905259
12.918519,-2.6059449,2.1332335,-0.34688420000000003,0.031084314,-0.047682392999999997
12.374872,-1.0873603,1.6317058999999998,-0.1749518,-0.09665633,0.100810215
11.467326,0.23697808,0.57928187,-0.047717302999999996,-0.16266468,0.23017402
9.958758,0.6089796,0.0016280570999999998,-0.050911255,-0.122207955,0.36910224
8.357315,1.0718842,0.10736558,-0.20528562,-0.09292133,0.49420744
6.9113708,1.4251629,0.13024457,-0.34421384,-0.084404126,0.3973242
5.9637933,1.5906788,0.19508913,-0.3218736,0.05185373,0.16149531
6.128208,1.4522078999999999,0.20376572,-0.11531389999999998,-0.08227482,-0.035430185
6.5712504,0.85447145,0.2523297,0.13912019,-0.24888395,-0.15947074
6.3439646,0.42936656,0.2812804,0.28071874,-0.14934783,-0.09505063
6.2432733,0.2662065,0.6616233,0.2945592,0.046530478,0.03960152
6.3906225999999995,-0.11048762,0.31106427,0.12953834,-0.24197245,-0.17650515
6.471125,-0.18862478,-0.62390023,0.17585938,-0.3079808,-0.70244265
6.950731299999999,0.38165492,-1.4202309,0.5548576,-0.25048965,-0.75673985
8.146884,1.0522708,-1.693936,0.52824134,-0.23239058,-0.25795966
12.144186,1.2027799,-1.1652195,0.17957693,0.08698721,0.12210324
14.607417000000002,0.19314504,0.04751054,-0.13447762,0.30311134,0.022043508
13.574635,-1.6332669,0.2645976,-0.22284363,0.16683602,-0.124337256
11.612817,-1.0367084999999998,-1.5375563,-0.10732029400000001,0.03481932,0.007120943
10.806488,0.18214127,-2.3044860000000003,0.048101272,0.06304129,0.18865263
12.333615,0.6238236,-0.7181169,0.11515682,0.17694148,0.3302512
14.836217000000001,-0.6172731,1.1682268,0.12527974,0.21048671,0.41275293
15.100565,-1.6579273,3.4505712999999996,0.18596484,0.16735962,0.39891246
10.009047,-1.3014306,2.9711467999999996,0.27272514,0.1412844,0.28660053
6.454663,2.3623395,0.4315405,0.30255282,0.16044812,0.10986847400000001
10.136791,3.299344,0.021365857000000002,0.23493877,0.12531464,-0.088139124
15.013532000000001,2.803227,1.2347186,0.14870206,0.00022689281000000004,-0.16372934
12.5684185,0.025416845,1.3924773000000001,0.091751955,-0.08705702400000001,-0.13763666
9.68197,-0.8878849,1.6208936999999999,0.066723935,-0.04075344,-0.1940806
8.306338,-0.6494512,1.4979274999999999,0.17212437,-0.03223623,-0.302675
6.9383006,-0.82114416,0.99617946,0.35417965,-0.07110471,-0.40168753
6.2587495,-1.2785037000000001,1.0072024,0.49738392,-0.14402457,-0.22015584
6.4440800000000005,-1.5070158,1.2749507,0.3642851,-0.06949901,-0.055152405
7.412132300000001,-1.3765126,1.1991503000000001,0.062465332,-0.2435607,0.072082095
7.5643080000000005,-1.1812129,0.51191866,-0.22123794,-0.019460421000000002,0.12157963
7.228832700000001,-0.89938664,0.018646045,-0.33782592,0.1285086,0.020978857000000004
7.047658,-0.18082927,-0.41973230000000006,0.028396507999999997,0.06462954,-0.018936822
7.339578599999999,0.1504708,-0.8894651,0.22163936,-0.19406316,0.45588
7.894765,-0.21223160000000002,-0.93913996,-0.03546509,-0.11580259,0.7412064
8.438842999999999,-0.689645,-0.6474304,-0.24572489999999997,-0.19352211,0.49581313
9.054114,-2.0675464,-0.5045349,-0.16961110000000001,-0.039147735,0.09869837
11.850714,-1.3088621999999999,-0.95754665,-0.03440044,0.09176941,-0.08281587
13.047222,0.9054296000000001,-2.2329953,0.06407104,0.15992452,0.015655603
12.226939,1.6099569999999999,-3.2684875,0.14018485,0.067299895,0.0034033920000000003
11.890372,0.36174473,-3.7867078999999997,0.11410963,0.0034208453999999998,-0.066305056
12.449016,-0.62240624,-1.0364594,0.04703662,0.0758171,-0.20312142
12.905235000000001,0.05630205,3.1511526,-0.007784168199999999,0.10721557599999999,-0.3159744
12.525372,0.9010626,3.2607784,-0.04717625,0.12531464,-0.34843752
12.205181,0.9427983,2.429952,-0.13660692,0.12212068599999999,-0.31490976
8.965346,-0.5881883000000001,1.3369508999999997,-0.27073547,0.13170254,-0.24569000000000002
10.146818,-1.9886335,1.8973186000000002,-0.33889058,0.081122905,-0.14775957
11.473828,-2.2197504,1.7430075,-0.30534536,0.052918382,-0.011484266000000002
12.670757,-0.60172033,1.7444727,-0.20954423,-0.0019024089,0.11945033
11.720853,1.0724204,1.2437782,-0.12383111,0.041207224,0.24134412
10.314862,1.1601535,0.32677979999999995,-0.14245377,0.12744394,0.37709585
8.885495,0.68824685,0.151869,-0.25317746,0.13650220000000002,0.48996627
7.5752063,0.4973523,0.18593370000000004,-0.41126940000000006,-0.026912976,0.43938664
6.5999229999999995,0.93311614,0.2736285,-0.44800857,-0.08546878,0.21048671
6.5860753,1.3196361,0.25490588,-0.23507840000000002,-0.08599237,-0.021589722000000002
6.5245824,1.3876601,0.26107332,0.13966125,-0.34150857,-0.17863445
6.1753163,0.9178315999999999,0.32360032,0.36163223,-0.3920882,-0.10995574
6.1345387,0.562896,0.14665923,0.24932028,-0.16212364,0.13809045
6.3679633,0.21840866,-0.31205067,0.007644542,-0.014660765,0.10402162400000001
6.778138,0.14874697,-0.8271871,-0.26169467,-0.21800907,-0.24890140000000002
7.3654646999999995,0.58555466,-0.81306136,-0.16374679,-0.22226767,-0.69392544
7.905271000000001,1.1423598999999998,-0.6250781999999999,0.3296927,-0.045012042,-0.78175044
10.571789,0.8817940999999999,-0.7466749,0.4569272,-0.09185668,-0.35376078
13.258064000000001,0.079516225,-0.41402449999999996,0.21951006,0.20463985,0.03269002
14.072141,-1.5967506,0.25328737,-0.03918264,0.127985,-0.01680752
12.6708145,-1.7138653999999998,-1.1796328,-0.16427039,0.03269002,-0.010943214
11.160322,0.20290379999999997,-3.049265,-0.16002923,0.11679743,0.057700586
11.489305,1.6213918,-3.0883765,-0.07005752,0.20251055,0.17215927
13.448212,1.1946205,-0.82564527,0.011379546499999999,0.25680774,0.33665657
12.981831,-0.28785008,1.6493273000000002,0.12208578,0.22380356,0.40690607
12.34821,-1.5498049999999999,4.305646,0.30468214,0.14289011,0.36805505
9.717988,-2.2796534999999998,3.9420245,0.4553215,0.17802358,0.25413739999999996
7.476095699999999,0.5960221,1.3801328000000002,0.50696576,0.19664624,0.056635935
11.413687,3.0911155,1.0254940000000001,0.40795326,0.15353662,-0.10304424
14.522967999999999,3.8492824999999997,1.3275656999999998,0.20673425,-0.0040142573,-0.12911946
12.060169,0.740019,1.1596843000000001,0.024155356,-0.041277036,-0.13496631
10.098455,-0.6422398,1.3131909,-0.070598565,-0.10463249,-0.19832176
8.35155,-0.9298888000000001,1.4559427,0.014556046000000001,-0.19406316,-0.2733884
6.5979220000000005,-1.4261302,1.3848254999999998,0.29190633,-0.19352211,-0.29201102
6.019769999999999,-1.8791993999999999,1.51937,0.47502625,-0.21748547,-0.078016214
6.982918700000001,-1.9085618000000002,1.4212268999999997,0.29668853,-0.11260864,0.10348057
8.032106,-1.7558118000000003,1.0803213,-0.09080948,-0.20151572,0.18654078
7.821521799999999,-0.9529306000000001,0.12740026,-0.33728486,-0.03488913,0.06462954
7.1123977,-0.38493016,-0.5953326,-0.32398546,0.27862436,-0.12486085
7.0131817,0.3847578,-1.1953098999999998,0.056618482000000005,0.09178686,-0.16212364
7.233678299999999,0.5884373,-1.2070512,0.4808731,-0.20470966,0.26584855
7.016495699999999,0.18315643,-1.0183879999999998,0.2578375,-0.11047934,0.75398225
7.2025437000000005,-0.94535536,-0.78907144,-0.26754153,0.0715585,0.86578804
9.125174000000001,-2.4139395,0.06907751,-0.54115677,-0.013596115,0.31642818
12.545243,-1.3234093,-0.7480348000000001,-0.37561232,0.060370937,-0.16318828
13.510144,1.5932358999999998,-2.4868765,-0.16214108,0.045465827,-0.13390166
12.812542,2.5320504,-3.7304442000000004,-0.0077667153,0.08485791,-0.07747517
11.851450999999999,0.46911028,-4.1762347,0.011379546499999999,0.14714871,-0.073216565
12.261519999999999,-1.3091973999999997,-1.656481,-0.07112217,0.15353662,-0.15945327
12.348296000000001,-1.399363,2.597048,-0.18875736,0.06997025,-0.3319267
10.659885000000001,-0.683353,3.5450466,-0.27553514,0.018849555,-0.4006054
11.86078,2.745182,2.8405,-0.32183870000000003,-0.007749262,-0.36599556
10.344072,1.9143078000000002,1.6003034999999999,-0.38945276,0.0715585,-0.32447416
10.850666,-1.1390367000000001,2.0818923,-0.44001496,0.08592256,-0.20896827
11.890151,-2.9705912999999997,3.0382514,-0.38891172,0.03375467,-0.058852499999999995
12.164259,-2.7945599999999997,2.0000777,-0.27127653,-0.0040142573,0.08859291
11.892947999999999,0.026920404,1.30484,-0.15575318,-0.07162831,0.18760544
10.677958,1.2753338,0.36403358,-0.11477285,-0.13070771,0.258396
9.338794,0.8820526,0.27898195,-0.1765226,-0.14241886,0.35953779999999996
8.306500999999999,0.82250404,0.028107927999999997,-0.29150490000000007,-0.16212364,0.45268604
7.205464999999999,0.7488104999999999,0.096084096,-0.38571775,-0.07375761,0.34091517
6.719806,1.0700836,0.09971371,-0.2696708,0.019390607,0.09763372
6.656034,0.88451385,0.07563761599999999,0.040648717,-0.1221905,-0.10515609
6.130344,0.47816040000000004,0.19277154,0.29564133,-0.3106337,-0.18873991
6.1571684,0.24890122,0.33107020000000004,0.37123153,-0.091839224,-0.037018432999999996
6.619335700000001,0.059088897,0.31696355,0.23069762,0.12904964,0.12585570000000001
6.844055,-0.21330422,-0.14775097,-0.07110471,-0.19352211,-0.12377875
6.8734850000000005,-0.112153985,-0.73575735,-0.031712633,-0.32286847,-0.6518456
6.8058440000000004,0.33085954,-1.3484336000000001,0.35845572,-0.09983283,-0.8275304
8.8012295,0.83187973,-1.4962803,0.54583424,-0.17168804,-0.40858158
12.583302,0.87122124,-0.80273753,0.32545155,0.06250024,0.010873401999999999
14.663470000000002,-0.97795475,0.1987379,0.007120943,0.2498788,0.03481932
13.731025,-2.1688976,0.024181437000000004,-0.13446017,0.17961183,-0.04288274
11.846088,-1.1534115,-1.9450111,-0.099326685,0.054524086,0.041207224
10.947545,0.5897015,-2.4545833999999997,0.008709193,0.040683622999999995,0.16896532
12.010446,0.93213934,-1.2856001,0.076846845,0.11307988,0.26371926
13.566198000000002,-0.028146235,0.9633693000000001,0.10026917,0.13224360000000002,0.36007887
14.077658,-1.2125579,3.4553216,0.16043067,0.10828023,0.41064107
11.451208,-1.8756558999999997,3.6711156000000003,0.25305527,0.14821336,0.40957642
6.81884,0.8979693000000001,1.3654516,0.28180087,0.18280579,0.29194123
9.283154,2.5443375,0.37178123,0.23760912,0.15566592,0.08752826
13.505021,3.4053211,1.1480101,0.117844634,0.093392566,-0.10035643
12.865148,0.9947046,1.081911,-0.002443461,0.016737707,-0.13922492
10.184082,-0.7913315,1.5580603000000002,-0.11316715,-0.023177972,-0.16158257
8.95849,-0.9797551999999999,1.3706901000000002,-0.14990632,-0.12592551,-0.23397884
7.5134929999999995,-1.1231583,0.96143484,-0.08974483,-0.13390166,-0.3564137
