accx,accy,accz,gyrx,gyry,gyrz
7.073506399999999,-1.2019947,-0.7740263000000001,-0.22825415,-0.14503686,0.17858209
6.6578155,-1.3902076,-1.539644,-0.13456489,1.2251688,-0.16156512
6.7919765,-1.388953,-2.36301,0.003822271,0.40006438,0.055623643
7.5057453999999995,-0.7737294,-2.6256063,0.14702654,0.06096435,0.50223595
7.376104400000001,0.28327236,-2.5829701000000003,0.269985,-0.032166417999999995,0.6821619000000001
7.454212700000001,0.42525813,-2.8344285,0.06876597599999999,0.062028999999999994,0.7492349
8.581499,-0.43605119999999997,-3.9845262000000004,-0.0909142,0.30265754,0.83281875
11.607482000000001,-1.4922197,-3.9960375,-0.23729496,0.2542072,0.453262
13.385329999999998,-0.29142225,-4.955442,-0.32300809999999996,0.072151914,0.07691666
12.268875999999999,2.2163317000000005,-5.4003615,-0.45875978,-0.064647,-0.18338175
12.400241000000001,1.17381,-6.1857266,-0.50879836,-0.026843164,-0.25844836
13.445904,-1.0876476000000002,-0.80427945,-0.5284857,0.012531463999999999,-0.23554963
13.120895,-1.4498997999999998,0.8727056999999999,-0.58756506,-0.035901424,-0.19615756
12.788772999999999,0.5905059,1.4726542999999999,-0.6626316999999999,-0.020996312000000003,-0.14985397
9.022933,1.1305611,1.2104508999999999,-0.7036295,0.04447099,-0.19031070000000003
7.217675,-0.95124507,0.6731921,-0.7978424,0.13336061,-0.28824112
9.8247595,-2.9650847999999996,1.3247788,-0.96286327,0.17755234,-0.3574609
13.851109,-2.2023497000000005,0.65536964,-1.1630176,0.09822713,-0.31965706
14.325878,-1.6585976000000002,0.15113159,-1.3434671999999999,-0.031101767000000002,-0.18444639999999998
12.021479,-0.3146843,-1.003496,-1.4584495000000002,-0.12318534,-0.03111922
10.154413,0.3996593,-1.5351526000000002,-1.4675076999999999,-0.062517695,0.035395276
9.421797,0.26374528,-1.0746038999999998,-1.3759477,-0.16259487,0.072117
8.351051,-0.47724104,-1.2934339,-1.3269738000000002,-0.29674090000000003,0.063599795
7.3711147,-0.71526295,-1.246728,-1.3003576000000001,-0.31962216,0.04124213
7.248618,-0.09060617,-1.0129963,-1.2231617000000001,-0.031101767000000002,-0.107791536
7.786154700000001,1.1220473,-1.1900524,-0.7994306,0.0034906585,-0.28504717
7.603305000000001,2.2226236,-1.3004538,-0.37463492,-0.13278465,-0.2712067
6.6929617,2.684216,-1.4589306999999998,0.06930702,0.3154159,-0.21106267
6.053058999999999,1.7235188000000001,-1.8462551999999999,0.29714229999999997,1.2134576000000001,-0.0694641
6.258903,0.34310824,-1.9211744,0.6069557,0.84189445,-0.23342033
6.5737977,-0.8838722999999999,-1.3206034,0.72192055,0.36438984,-0.34520867
6.303358599999999,-1.6687874,-1.2982702,0.5814041,0.07375761,-0.42238712
7.214046000000001,-1.3538348999999998,-2.0056229,0.44992843,0.07108726,-0.35424948
9.67562,-0.39484218,-2.8343902,0.4036074,0.10569714,-0.33456215
13.879484,0.2768272,-2.393311,0.4185125,0.28934067,-0.22062707
14.29145,-0.8395507999999999,-1.6600915,0.54520595,0.1700998,-0.09501573
12.621225,-3.4765148,-2.7482752999999995,0.8140215999999999,-0.12320279,0.07424631
11.35409,-3.0829560000000003,-3.3765523,1.0370747,-0.30897564,0.30527553
13.358765,-2.505015,-1.408777,1.1467336000000001,-0.33613297,0.44793874
15.176088,-2.2000319999999998,0.98642063,1.2292528,-0.28501227,0.45008552
13.961567,-0.6791105,2.272557,1.2452052,-0.18069394,0.37501890000000004
10.579316,0.069958575,1.8115296000000003,1.1829318000000002,-0.06250024,0.31539845
8.314536,0.5872305999999999,1.1358572,1.0802017,-0.030560715,0.24832545
8.360696,1.7786428,0.7484083,0.99342394,-0.06517059,0.14718361
10.399282000000001,1.0300431,1.0292003,0.9167690999999999,-0.0715585,0.034330625
12.445176,-0.28243917,1.5776927,0.8199033000000001,-0.023631757000000003,-0.04548328
10.683589,-0.2647987,1.5624847,0.7235437,-0.030037116000000003,-0.08115781
9.117569999999999,-0.57628435,0.7989451,0.6506064,-0.04707153,-0.12587315
8.401838,-0.9712415000000001,0.22749704,0.6085614,-0.058241636,-0.18868755
7.9792323000000005,-1.0405009,-0.33341652,0.6479535,-0.1886701,-0.20252799999999999
7.4038963,-1.2024161,-0.88442767,0.6964038,-0.37711328,-0.113638386
7.2534738,-1.0947822,-1.2137357,0.57395154,-0.10882128,0.107791536
7.656637700000001,-0.55542606,-1.2457223,0.35463345,-0.09550442,0.24939009999999998
7.932019,-0.14649642,-1.1885201,0.069848076,-0.2988527,0.3691546
7.6827630000000005,-0.027102364,-1.3672328,-0.20374973,-0.17908823,0.33616787
7.1137958,-0.23809858,-1.6606758000000001,-0.33841935,0.88076293,0.082780965
7.173238799999999,-0.65182614,-1.9726595,-0.28572786,0.44638540000000004,0.11897910000000002
7.5131583,-1.0742017,-2.208431,-0.163293,0.13018411,0.36969563
7.460754,-1.0117992,-1.7111262999999999,0.040561453,0.04605924,0.5762379
7.3981886,-0.91308147,-1.3249799999999998,0.032044247000000005,0.12273155,0.67950904
8.166803999999999,-1.3637373,-3.0609007000000004,-0.13241813,0.35269612,0.6369229999999999
11.032788,-1.9474915000000002,-3.1901207,-0.31127948,0.55443877,0.36810738
12.913634,-0.27768909999999997,-3.7758187999999993,-0.45926595,0.34576717,0.1301492
12.048944,1.8270057000000002,-4.807729699999999,-0.6466445,0.026389378999999998,-0.101386175
11.754429,1.120314,-6.237067700000001,-0.8324173,-0.18387043,-0.25628415
13.486623999999999,-0.86813754,-1.9493303,-0.85212207,-0.13224360000000002,-0.27918285
14.60803,-0.6746573,0.9035620999999999,-0.7855727,-0.047054075,-0.32707470000000005
14.029389000000002,-0.12083057,1.5993267,-0.7270169,0.03010693,-0.3132517
10.824272,0.98159397,2.3460686,-0.6924245,0.058852499999999995,-0.26534240000000003
7.0315504,-0.9415245999999999,1.2834358000000001,-0.7371398,0.08866273,-0.29993483
8.230385,-3.1064095000000003,0.62298083,-0.8494517,0.084404126,-0.36913714
11.190853,-1.9522417,0.38108987,-0.96124005,0.04342379,-0.3931005
13.252625,-0.10281660000000002,0.5245025999999999,-1.0900803,-0.03429572,-0.32018065
12.516417,0.5321832,-0.5863305,-1.1752348999999997,-0.12212068599999999,-0.19027579
10.997775,0.19584571,-1.0691643,-1.1848167,-0.16950637,-0.081698865
10.320551,-0.56079865,-0.71379775,-1.081022,-0.028955012999999998,-0.009826204
9.1725025,-0.92366385,-0.79616785,-1.0751578000000002,-0.008203047,0.073722705
8.11463,-0.96520805,-0.7402105999999999,-1.1475539,-0.16151276,0.1881814
7.7364893,-1.0295353999999999,-0.8988503000000001,-1.0879510000000001,-0.23019147,0.13601351
7.858200999999999,-0.09000283,-0.9132155999999999,-0.9000314,-0.14927801,-0.13386676
7.5453844,1.1311741000000002,-0.8361414,-0.56040776,-0.18812904,-0.27705356
6.5823979999999995,1.605207,-0.6118718000000001,-0.16861627,-0.15725416,-0.27118927
5.720676999999999,1.2592542,-0.71365404,0.11988667,0.42189842,-0.21476276
5.7340555,0.5209304,-0.9353954,0.32429963,1.1570486,-0.22860323
6.4394355,-0.16493176,-1.0863546,0.53564155,0.5230403,-0.4111821
7.194212400000001,-0.068885975,-0.5359755999999999,0.4946612,-0.030560715,-0.61772436
7.1566997,-0.049406745,-1.2345558,0.35943309999999995,0.07110471,-0.53522265
8.504214,-0.23192152,-2.1837897,0.21889919,0.16212364,-0.30312878
11.717855,0.36078703,-2.5635388,0.06452482,0.30639255,-0.21956243
14.151121,0.3351595,-2.399881,0.04642576,0.24197245,-0.22008602
13.017427,-2.4521987000000003,-2.5950944,0.14863224,-0.008203047,-0.0662527
11.723142,-3.315893,-3.3120236000000003,0.38126716,-0.16310102,0.1775349
12.517344999999999,-1.3029723999999998,-2.6520476000000004,0.62613684,-0.24455553,0.41868705
16.127064,-1.8926258999999999,-0.28157726,0.8715301999999999,-0.3068289,0.49853584
15.825567999999999,-1.583094,1.7862182,1.0695727,-0.30150563,0.42188100000000006
12.557673,-0.45644018,2.4095054,1.1547447,-0.25944320000000004,0.32180380000000003
7.9547834,0.16004759,2.0213766,1.1387575,-0.22645646,0.23450243
7.529898599999999,2.3058174,0.9138955,1.1472921,-0.20090485,0.1871342
9.782602,2.6512911,0.9811151,1.1962662,-0.19664624,0.12058479999999999
12.452923,1.4079726000000001,1.3003867,1.1941369,-0.13967870000000002,0.043406337
11.118673,-0.1550868,1.358039,1.0945833,-0.11145672,-0.050806534
9.493689999999999,-1.1704581,1.4030213,0.9460732,-0.1529781,-0.13756685
8.439791,-2.3615255,1.1232731000000002,0.8060629,-0.15671311,-0.21263346
7.741536,-2.1679687999999997,0.97089666,0.71610856,-0.13861404,-0.2536138
7.280930000000001,-1.8695458999999999,0.3251613,0.7485717,-0.21793926,-0.24298474
7.2090564,-1.6102731000000001,-0.28589642,0.7714704000000001,-0.21685717,-0.109362334
7.320147,-1.2999748,-0.6162963,0.62507224,-0.032148965,0.09238028
7.751342999999999,-1.1786941999999998,-0.6326725999999999,0.25722662,0.12911946,0.25206044
7.927116000000001,-0.8765076999999999,-0.8701199000000001,-0.08981464,-0.11306243,0.31009266
7.36331,-0.36859214,-1.4397962,-0.47202429999999995,0.36494833,0.24408429999999998
7.1293679999999995,-0.26841873,-2.007701,-0.37514105,0.6614623000000001,-0.08646361
7.509701299999999,-0.61401695,-2.6138074000000002,-0.34372514,0.07377507,0.1919164
8.184683999999999,-0.88763595,-2.9393997000000005,-0.27612853,0.054070299999999995,0.63854617
8.0410795,-0.6201844,-2.484396,-0.3373547,-0.02576106,0.65345126
7.8718,-0.20132364,-2.6602166,-0.50982815,0.18341665,0.73221797
9.269669,-0.5534437,-3.234442,-0.6269397,0.38358846,0.64493406
11.743397,-1.3860608,-3.4877677000000005,-0.6455624,0.35271358,0.33459708
12.88454,-0.011271901,-3.8813553,-0.73021084,0.20151572,0.015725417
11.700080999999999,1.5622646,-6.039527,-0.9079901,-0.06195919,-0.22380356
13.122667000000002,0.07787859400000001,-4.5672174000000005,-0.9740158999999999,-0.11573278,-0.3132517
15.443348,1.0407499,0.35135388,-0.9447118,-0.027872908999999998,-0.32175145
14.160582999999999,0.86722773,-0.3539013,-0.95804614,0.11740830000000001,-0.28396508
12.594275999999999,1.5177515,1.8338053,-0.99637353,0.20525073,-0.24563764
8.37213,-0.06874232,1.2994194,-1.0549294,0.24197245,-0.23340288
7.4535613,-1.8504688999999999,1.2346898000000002,-1.1853228999999998,0.26169467,-0.24774949
10.80237,-2.1579992999999997,1.2240309,-1.3434496999999999,0.27499408,-0.23924974
13.305125,-1.0744793,0.9802148999999999,-1.4616084999999999,0.27073547,-0.19825195
12.806077,-0.4568616,0.19622877,-1.518035,0.19301596,-0.081140354
11.330903999999999,0.12078268,-0.36343983,-1.4733372,0.06684611,0.040212385
10.208455,0.21660821,-0.44048524,-1.3849536,-0.13009684,0.12592551
9.116785,0.09331640599999999,-0.5133073,-1.3088398,-0.3116111,0.16105898
7.891260000000001,0.20635146,-0.69433767,-1.2422905,-0.3760312,0.17222910000000002
7.482215400000001,0.07920019,-0.44494802,-1.1746938,-0.40477675,0.21109757
7.359928999999999,-0.00869574,-0.5496225,-1.0139141,-0.23015657,0.13070771
7.4430466,0.52937716,-0.7398945,-0.7254111999999999,-0.12264428,-0.055065135999999994
7.2651095,1.2759466,-1.0607942,-0.30433306,-0.1487195,-0.09337512
6.915709,1.3544861000000001,-0.998181,0.092240654,-0.14978416,-0.13756685
6.238476,0.63136053,-0.90855163,0.31421164,0.57468456,-0.042812925
6.1080203,0.10071927,-0.7542693,0.4254589,0.8169013,-0.06356489
6.084921,-0.24408408,-0.8904323000000001,0.59793234,0.116361104,-0.25094345
6.347411599999999,-0.93725336,-1.2953493999999999,0.53937656,0.014154620500000001,-0.35636133
7.726616,-1.4663719,-1.5167171999999998,0.41161844,0.049288097999999995,-0.47027898
9.791672,-1.2979733999999998,-2.0091853,0.48403215,0.27127653,-0.547981
13.644038,0.29541576,-2.0146058,0.5164953,0.32023302,-0.47719046
14.713997,0.13025415,-1.5689683,0.48562040000000006,0.14617133,-0.2062281
12.616601,-3.0498874,-2.4588642000000003,0.5787861,-0.16681857,0.07962192
11.333452000000001,-2.8774952999999996,-4.110557,0.7651,-0.29297096,0.29679325
11.951902,-0.6549674,-2.3700012999999998,0.9061575000000001,-0.29777062,0.4208338
15.68409,-0.8117684000000001,0.49244899999999997,1.0775663,-0.254661,0.38142425
14.098725,-0.27402118,1.5919238000000002,1.1728438,-0.19556414,0.28934067
10.405439999999999,-0.4305924,1.7877026000000003,1.1654087,-0.117844634,0.2499486
8.168125,-1.4461743999999999,2.0614555,1.1361221000000001,-0.10400417,0.24675465
8.773418,0.106024824,1.9864022000000001,1.1547447,-0.124756135,0.23984315
10.524173,0.8174763,1.7773021,1.1973482,-0.10665707,0.15627678
12.150133,1.1443421999999999,1.3703644,1.1957425,0.0072431164,0.04872959
10.691021000000001,0.91816676,1.0838264,1.1174819999999999,0.012548917,-0.026302112000000002
9.153723,-0.5418174,0.65254444,0.9870709999999999,-0.08058185,-0.08166396
8.739737,-1.9645861,0.41361270000000006,0.7996924,-0.20886356,-0.1412844
8.252678999999999,-2.2589676,0.29302156,0.680469,-0.20247565,-0.14554301
7.801553999999999,-1.7712495,-0.2926289,0.67725754,-0.37336084,-0.0736878
7.582772,-1.0965156999999999,-0.5542864000000001,0.70495594,-0.17212437,0.11369075
7.527628999999999,-0.6656264000000001,-0.44537896,0.61550784,-0.06780604,0.25422466
8.032478999999999,-0.48698062,-0.48677950000000003,0.39673078,-0.27434832,0.2781706
7.932268,-0.586091,-0.8932479,0.15985471,-0.37655479999999997,0.27710593
7.4893503,-0.89581454,-1.184517,-0.06850417,0.37028906,0.047682392999999997
7.2325479999999995,-0.9509003,-1.5998151000000003,0.01558579,0.7343996,-0.054524086
7.3442229999999995,-0.61084706,-2.309217,0.031555552,0.03227114,0.14189526
7.4208183000000005,0.11459607,-2.8931343999999997,0.19284143,0.13819517,0.45383796
7.315885499999999,0.17246872,-2.1108813,0.09756391,0.15416493,0.567232
7.796995599999999,-0.48433742,-2.8059566000000005,-0.111090206,0.22762585,0.75139916
10.599628,-1.5184027,-2.6553993,-0.19039796,0.20472711,0.46715483
13.315411,-1.2824972,-3.2038729999999997,-0.21490239,0.15203562,0.10196213400000001
12.718727000000001,0.7475847,-4.3401613,-0.33840188,-0.00286234,-0.19825195
11.949824000000001,1.1529996,-6.3663163,-0.44060838,-0.21579250000000003,-0.44790384
12.152019500000002,-0.93808657,-4.4528989999999995,-0.44539058,-0.12795009,-0.51975906
14.275131,-0.49247772,-0.20985657,-0.44219659999999994,0.089762285,-0.50007176
14.079457000000001,0.23383690000000001,0.087340474,-0.45123739999999996,0.19942132,-0.44256315
12.304462,1.53589,2.486934,-0.4879766,0.2499835,-0.36006144
8.876991,1.4730756,1.6265919,-0.5635668,0.34580207,-0.31375784
8.830582000000001,-1.4715722,2.1720387999999997,-0.66203827,0.43949136,-0.25359634
11.419355,-2.583152,1.4393365,-0.7897964,0.4208687,-0.16842428
12.852669,-2.6139224,1.1132847,-0.98942715,0.31918582,-0.0795172
12.531491,-2.1474838,-0.028960262999999997,-1.1203618,0.19994491,0.02851868
11.189167999999999,-0.6286791,-0.63988394,-1.1182499,0.1674818,0.10250319
10.038322,0.35336503,-0.98247504,-1.0000737,0.11424925,0.14617133
8.978725,0.574685,-1.0745082000000001,-0.8973261,-0.013491395,0.21057397
7.7189064,0.6313797,-0.8622956,-0.91861916,-0.11302752,0.27125907
6.982555400000001,0.5596398,-0.8240938,-0.97452205,-0.123691484,0.2824292
6.7246614000000005,0.75097483,-0.8394359,-0.9111665999999999,-0.09227556,0.053546699999999996
6.871454700000001,0.925675,-0.57805604,-0.6231698,-0.31956979999999996,-0.14978416
6.9555774,1.1567155,-0.7929022,-0.36393607,-0.48886672,-0.14500195
6.6553254,1.2231785,-1.0324756,-0.030159289,-0.025202554,-0.16043067
6.4188833,1.0419278,-1.0739717,0.19392353,0.7519751,-0.11677998
6.905481,0.5154333,-1.0997909,0.42868778,0.26810002,-0.34567990000000004
7.063412,-0.17682615,-0.68364036,0.5660276999999999,-0.20725785,-0.51389474
7.2761320000000005,-0.56538594,-0.83756834,0.5074719,-0.14444345,-0.52879983
8.239626,-0.67794216,-1.4232858,0.6181956000000001,0.041329395,-0.4457571
10.841137,-0.0637528,-1.5201073999999999,0.48937288,0.2324255,-0.30522317
13.771362,1.0929626000000001,-1.0446285,0.34936255,0.24413666,-0.2008874
13.0449705,-0.9002677,-1.2624433000000002,0.38025490000000006,-0.0023038345,-0.0816465
11.324651,-3.7545678999999996,-2.79026,0.5915793,-0.23068017,0.15788248
11.825422,-2.7419643,-2.1844697,0.7555356,-0.35897929999999995,0.3612308
15.3925905,-2.7536192,-0.34183455,0.8848819,-0.34353316,0.44001496
15.481013,-2.5267446,2.1249497,0.98815304,-0.30253538,0.37985346
13.042988000000001,-0.6588076999999999,3.3365211,1.0089225,-0.2541025,0.24837779999999998
8.7793455,-0.9387569,2.6118919999999997,0.9828298000000001,-0.22055726,0.17332865
7.3243035999999995,0.778738,2.3590739,0.9961466999999998,-0.22216296,0.14138912
8.67787,1.9588401000000002,1.1635915000000001,1.0520495,-0.20619320000000002,0.11210250000000001
11.956892999999999,1.6098995,1.4963281000000002,1.0754719,-0.10930997,0.056217055999999994
11.991934,0.66735023,1.4228454,0.977524,-0.04647812,-0.04117232
9.833255,-0.18333839,1.3577996,0.7773696,-0.105574965,-0.14498450000000002
8.827488,-1.4969602,0.6789669,0.5782799,-0.21043435,-0.25303784
8.098177,-2.0542345,0.47155240000000004,0.45797440000000006,-0.28071874,-0.3249105
7.660344,-1.8288732,0.03281014,0.48511428,-0.48778462,-0.3116111
7.3560987,-1.1711669,-0.49727570000000004,0.61128414,-0.3328692,-0.11304498
7.500507400000001,-0.61881495,-0.6290334,0.59957296,0.043982297000000004,0.17119935
7.766637299999999,-0.48453856,-0.7115663000000001,0.35257396,0.050387654000000004,0.29311058
8.118978,-0.73228097,-0.9295153,-0.03281219,-0.12740904,0.373483
7.703037700000001,-1.0062255,-1.5282476999999999,-0.44057345,0.34581953,0.22816689999999998
7.513235000000001,-0.8457756999999999,-2.0885866,-0.5193576,1.0250667,-0.11358603
7.809982000000001,-0.5911763000000001,-2.5986187000000003,-0.48900634,-0.019338248,0.09827949
7.9375253,-0.48895347,-2.5508304,-0.40385175,0.045046947999999996,0.36655405
7.4334407,-0.48761270000000007,-2.0353586999999997,-0.26862362,-0.06138323,0.43097416
7.108107,-0.6861878,-2.1831958,-0.41022217,0.12704252,0.59386575
8.564912,-1.3005878,-3.3296832999999997,-0.47356018,0.26918212,0.56033796
12.012131,-1.7518468999999997,-3.0637448,-0.43205625,0.36020106,0.29469883
13.277266000000001,0.9227828000000001,-3.63956,-0.45971972,0.18346901,0.0024609142000000003
11.792583,2.1696737,-6.132211,-0.5550147,-0.11887438,-0.23068017
12.137789,-0.019555839,-5.2631354,-0.62421703,-0.16146041,-0.31213468
14.718614,-0.32395464,0.75312006,-0.61728805,-0.06403613,-0.34672709999999995
13.986505,-0.5541715,-0.23350170000000003,-0.65137434,0.0056723203,-0.3509857
12.4451275,0.8166239000000001,2.1035552,-0.6976779000000001,0.021101031,-0.36004397
8.665191,0.68002033,2.0243359,-0.7296349,0.08391543,-0.37069046
7.835139999999999,-2.5464634999999998,1.7243425,-0.78072065,0.13768902,-0.35950290000000007
10.098235,-3.3979373,1.3473992,-0.9005025999999999,0.18825121,-0.25090852
13.538234,-2.2665715,1.0131304,-1.0176142,0.2510656,-0.098663464
14.248755,-0.7325012,-0.055124099999999995,-1.0947752,0.3043156,0.046652652
11.969266000000001,0.30736762,-0.6667469,-1.0426248,0.30803317,0.14086552
10.100964999999999,0.16838899,-1.1805329,-0.9473298000000001,0.15419984,0.1712168
9.147699000000001,-0.4341358,-0.949052,-0.84618795,-0.14388494,0.104667395
8.028323,-0.49154878,-0.97917104,-0.75834554,-0.36479127,0.0056723203
7.260751700000001,-0.09968498,-0.8355572,-0.6880786,-0.33019885,-0.094911
7.222453999999999,0.31837136,-0.7242746999999999,-0.6279346,-0.20457004,-0.28443632
7.2147255,0.9221123999999999,-0.81630784,-0.39903462,-0.2098933,-0.41325906
6.782467,1.4497371000000001,-1.1468897,-0.21326178,-0.26260224,-0.24771458
6.3670444,1.5494506000000001,-1.1814332,-0.09135053,-0.11568042,-0.10983357
6.372321,1.4006846000000002,-0.85665494,-0.10412634,0.4384616,0.025900686000000003
6.534753299999999,0.66434306,0.03539588,0.0172264,0.82864743,-0.15880750000000002
6.4883156,-0.5080113,0.4654424,0.18757053,0.081279986,-0.42603487
6.949803,-1.3639958,-0.10989386,0.21046926,0.06211627,-0.5841268000000001
8.351627,-1.5022275,-1.6330755,0.4526686,0.06370452,-0.5766741999999999
11.181095,-0.70081156,-2.4550815,0.60650194,0.21382028,-0.42870522
14.381835999999998,0.72237855,-2.551376,0.5452932,0.22181389,-0.17584193
13.341689,0.06648219400000001,-2.0610054,0.45427429999999996,-0.00015707963,0.054646257000000004
11.046761,-2.0007672,-2.8956720000000002,0.49792498,-0.24235642,0.21382028
11.011384,-1.7541646,-3.0299196,0.6560169,-0.37226129999999996,0.40172243
13.39507,-1.2142816,-1.8069519,0.7827104,-0.35840335,0.52361625
15.794826500000001,-0.6667181,0.5230180999999999,0.9520073,-0.33232814,0.46134287
14.283463000000001,-0.09986694,3.705027,1.0760303999999998,-0.38927823,0.3506192
10.553919,-3.0184085,3.019079,1.0733774999999999,-0.39992476,0.22286109999999998
7.4698424,-1.7649288,3.5582912,1.0025694,-0.36692056,0.16111134
6.9308023,0.5209113000000001,1.9571258999999999,0.98659974,-0.32326987,0.13981833
9.678867,1.8749856,1.2283499,0.98874646,-0.23542747,0.10150835
12.61093,1.9574323,0.7578701999999999,0.8742878000000001,-0.18858282,0.022706734
10.736385,0.99816185,0.720444,0.66987485,-0.18805923,-0.042743113
9.021496,-0.5515666,0.5843576,0.4974014,-0.11672762,-0.11089822
8.539294,-1.9276005,0.25830564,0.47822022,-0.061365776,-0.10183996
8.015787,-2.29241,0.24059811,0.50272465,-0.26951376,-0.042743113
7.5036864,-1.7845901000000002,-0.44584823,0.45214498,-0.24767968,0.08232718
7.2775974,-0.763463,-1.2145498,0.29192376,-0.05550147,0.2761111
7.724067999999999,-0.27262294,-1.512628,0.047054075,0.02539454,0.4022635
8.15672,-0.5467495,-1.5959364999999999,-0.15573573,-0.17048377,0.42301545
7.8220963,-0.75116646,-1.9642317999999999,-0.32396802,0.15793484,0.114807755
7.4503245,-0.6290717,-2.3538353,-0.36707765,1.0857868,-0.19072957
7.719203,-0.57678235,-2.7288728,-0.38091812,0.45284313,0.022706734
8.0552435,-0.31392774,-2.3729412999999995,-0.24357815,0.22448425,0.29633945
7.2803364,0.079774804,-1.8587911,-0.17329374,0.02380629,0.46561894
6.900233,0.25888982,-2.4209306,-0.19619246,0.05466371,0.5747369000000001
8.586096000000001,-0.34117374,-3.664565,-0.22919664,0.20532054,0.5624847
11.784568,-1.8572876,-3.4205669999999997,-0.29094640000000005,0.26919958,0.2995334
13.04883,-1.6293691000000001,-3.7618465,-0.35910149999999996,0.08660324,0.050387654000000004
12.570459,0.7152246999999999,-5.3859386,-0.5065469,-0.15770794,-0.18114772
12.995268,0.36501998,-5.6639247,-0.6023655,-0.25193828,-0.22692771
14.202884,-0.9059468,-1.1377151,-0.6124708999999999,-0.2173284,-0.26684338
14.902613,0.037263356,-0.8900493,-0.60821235,-0.11351621,-0.25832617
13.320285,0.67712814,2.2549452999999997,-0.5799904,-0.020367993,-0.19603539
9.326211,0.7071897,2.3090064999999997,-0.5603205,0.06318091599999999,-0.12472123
7.006114500000001,-2.4035964,1.6291202,-0.6103590999999999,0.14037684,-0.10822786400000001
8.812989,-3.613176,1.0905205,-0.739688,0.15688765,-0.11140437
11.523992999999999,-2.3835428,0.8904036,-0.91483176,0.10098475,-0.08904669999999999
12.782385000000001,-1.2652686000000002,0.42677125,-1.0628183,-0.035796702,-0.0070685832999999995
11.341324,-0.22156900000000002,-0.3518423,-1.1330853,-0.16355479999999997,0.095120445
9.723993,0.44798386,-0.65168256,-1.032467,-0.11990411599999999,0.108960904
9.52196,-0.1432403,-0.7009552,-0.98403406,-0.17048377,0.07808603
8.243284,-0.5753362,-0.90352386,-0.99626887,-0.23966861,0.01314233
7.3592496,-0.63895494,-0.7730303000000001,-0.98403406,-0.18910642,0.00036651915
7.198608,-0.36812288,-0.88560563,-0.9009913,0.15049975,-0.10981612
7.395526400000001,0.3996593,-1.1915942,-0.59596014,0.18828613,-0.26417303
7.366288000000001,1.3451775,-1.4588541000000002,-0.34150857,0.04670501,-0.21306979999999998
7.1008863,2.1746630000000002,-1.7309694,-0.12325515,0.19947368,-0.12470377
6.849533,1.9965345,-2.1356852,-0.007749262,0.8371995000000001,-0.056042522000000004
7.006239,1.2224411,-1.9898593,0.3249454,0.7360576999999999,-0.21574014
7.155828,0.14957057,-1.0381163,0.60547215,0.20373228,-0.33285174
7.110118400000001,-1.1562941,-1.5110765,0.5964314000000001,0.059463367,-0.43186426
8.065864999999999,-1.5866853,-2.3998232,0.618789,-0.019285886999999998,-0.47816786
9.96778,-0.5983972,-3.04123,0.61135393,0.15849335,-0.48242646
13.185539000000002,0.8878753,-2.665484,0.5320113000000001,0.3469191,-0.36479127
13.181526000000002,0.010726023000000001,-1.8246115,0.56555647,0.19947368,-0.17741272
11.647867999999999,-3.1382812999999996,-3.118802,0.72684234,-0.14545573,0.032306045
11.548422,-2.6950476,-3.0209942,0.9003979,-0.34667474,0.19947368
14.521446,-1.7680414,-1.1714924999999998,1.0393261,-0.42065924,0.32084388
15.335849,-2.5017110000000002,0.94365066,1.1516556,-0.415336,0.33361968
13.303065,-1.1839998,2.9351477999999998,1.2070173,-0.394043,0.2798461
10.022646,-1.275123,2.0493984,1.1899829,-0.35945055,0.19360937
8.050666,-0.45010033,1.8993968999999997,1.13408,-0.34508649999999996,0.12334242
7.748317,1.5799146000000002,0.94072014,1.098964,-0.36423275,0.09780825
9.445834,1.7491176,1.1294118999999998,1.1197158999999999,-0.32855824,0.04722861
11.845754,0.8869847,1.4788601000000001,1.1154574,-0.25457373,-0.0012042772
10.941942,0.32842702,1.0986896000000002,1.0361496,-0.19388862,-0.052831117000000004
9.282894,-0.45010993,0.6338409,0.9648180000000001,-0.08688249,-0.123098075
8.49773,-1.3588723,0.16995001,0.9312728000000001,-0.18217747,-0.17313667
8.091482000000001,-1.2852553,-0.06819644,0.8950921000000001,-0.29129544,-0.16088445
7.8264537,-1.1671924999999999,-0.65887475,0.8631351,-0.38126716,-0.026755897
7.6114836,-1.0902046,-1.0707923000000001,0.76892227,-0.13533282,0.18510962
7.5337385999999995,-0.8448466999999998,-1.216331,0.47347292,-0.035796702,0.307527
7.667373700000001,-0.6819932,-1.2724512,0.16046557,-0.24286257,0.36130062
7.452862700000001,-0.54441273,-1.4621294,-0.10726794,-0.1747249,0.43849653
7.066237400000001,-0.7554377,-1.8424915000000002,-0.093951076,0.55721384,0.24792401
7.233267,-0.7790253,-2.4085958,-0.1269727,0.64449775,0.2425833
7.711168300000001,-0.5992783,-2.4314267999999997,-0.28347638,0.20692624,0.4922352
7.4194107,-0.3326887,-2.4082222,-0.1296256,0.36877063,0.48959976
7.6333850000000005,-0.32456756,-2.8439667,0.022602014,0.25750586,0.7147647
8.810911,-0.8719587,-4.1427927,0.052412238,0.27986354,0.6652496999999999
11.682192,-1.6950468999999997,-4.296424,0.10990338,0.45074874,0.31977922
12.672251,-0.58376384,-4.5538099999999995,0.070511304,0.32190853,0.005707226700000001
11.349300999999999,1.5536071000000002,-5.487587,-0.14878932,-0.09700539999999999,-0.26469663
11.782852,0.31657094,-5.5118833,-0.42240459999999996,-0.42064179999999995,-0.42544144
14.011270499999998,-0.67254084,-2.4407642000000003,-0.54803336,-0.38711402,-0.55693454
14.304685000000001,0.27832118,-2.059904,-0.5804965,-0.16727236,-0.5665164
14.206465,0.19688958,0.55963033,-0.59646624,0.06747443,-0.50689596
10.697714999999999,1.8304821,2.249161,-0.54803336,0.18723892,-0.40362483
7.0651364,-0.7933714,2.3995264,-0.49480084,0.36344737,-0.2998301
9.363377999999999,-3.7928752999999995,1.5063549999999999,-0.5171585,0.48481756,-0.23380429999999996
12.224679,-3.3642267999999995,0.7919156999999999,-0.6427699,0.47310638,-0.18802431
13.238288,-1.7865725,0.37316987,-0.8690169,0.33417818,-0.14065608
11.747696000000001,-0.4100214,-0.5469601,-1.0265852,0.059498273,-0.08635889
10.022789,0.74202055,-1.2366531,-1.063848,-0.15980235,-0.05920157
9.83043,0.71435314,-1.3030107,-0.98347557,-0.1747249,-0.016091935
8.410831,0.6325673,-1.4320678,-0.85837036,0.03234095,0.11910127
7.249164,0.27296773,-1.2718958,-0.87112874,0.025970499999999997,0.25220007
6.8329844,-0.29971576,-1.0055264000000002,-0.88338095,0.012112585,0.24314182
6.9190035000000005,-0.33961272,-0.8603995000000001,-0.8019439,0.101543255,0.01850049
7.0246935,0.6250015999999999,-0.93234044,-0.60391885,-0.018744836,-0.052290063
6.994611999999999,1.7506403000000001,-1.0372353,-0.4420919,-0.1662077,-0.09327039
6.5195355,1.9724679,-1.2848244,-0.24565509,0.5204920999999999,-0.069848076
6.3577449999999995,1.1006145,-1.3971604,0.0045204028,0.94155276,-0.13159783
6.751150999999999,0.008734048000000001,-1.9918418000000002,0.29249972,0.14199999,-0.3381401
7.433527000000001,-0.69243187,-2.1581237,0.3707603,0.0871792,-0.4658982
8.272571000000001,-0.7792551999999999,-1.838383,0.3888768,0.0073303827000000005,-0.46535712
9.065617,-0.71358705,-2.3519871,0.50436527,0.08716174,-0.4738918
11.713928999999998,0.35759795,-2.3970077,0.47722536,0.20483184,-0.39296088
14.117956,1.4951215,-2.173552,0.36596063,0.117513016,-0.20825268
12.410938,-1.5689491000000002,-2.5669672,0.32656854,-0.0959233,-0.041102502
11.529555,-2.8539457,-3.8722572,0.50438267,-0.32215288,0.17393951
12.519941000000001,-1.1172494,-2.5119007,0.66833895,-0.39880773,0.33737215
15.900008999999999,-2.29693,0.21180066,0.81951934,-0.38444367,0.37250564
14.516207999999999,-1.2381661,1.7847146,0.9621825999999999,-0.32801718,0.32937855
11.816659,-1.2634584999999998,1.9327625,1.0084686999999999,-0.24870941,0.22556636
8.257831,-1.9146144,3.003143,0.97654665,-0.20078267,0.12976523
7.490988000000001,0.5710649999999999,2.1663504000000002,0.9685530000000001,-0.2343279,0.11697197
9.348237,2.1702,1.5577154,0.98984605,-0.2401922,0.112730816
11.809466,2.10118,0.9202162,1.0037040000000002,-0.23219859999999998,0.049375363
11.288785,1.2815204,0.92029285,0.9185319,-0.16884315,-0.05120796
9.717815,-0.23127988,1.0414011,0.79822636,-0.18535396,-0.1693842
8.71524,-1.9619334,0.6241492,0.6220353,-0.15287338,-0.24975662
7.839986,-2.5575054,0.4855824,0.47883108,0.00413643,-0.27265534
7.769213000000001,-2.2632675,0.066673726,0.50918233,-0.07302458,-0.26040313
7.7599525,-1.5133557,-0.5919137,0.6411816,-0.20877628,-0.17097245
7.782964999999999,-0.8873103000000001,-0.7653593000000001,0.7098603,-0.13638003,-0.037891097
7.9064393,-0.70577234,-0.7809216,0.5150292000000001,-0.11189306,0.077597335
7.8825354999999995,-0.7890235999999999,-1.0136763,0.24193753,-0.24336872,0.19364429
7.4973564,-0.9229934999999999,-1.3842603999999998,0.013578662,-0.08527679,0.3368311
7.370464,-0.7854897,-2.0715779999999997,-0.12852605,0.68446577,0.25274113
7.5989759999999995,-0.7085305000000001,-2.8562442999999997,-0.35636133,0.72438145,0.19577359
7.896642,-0.26085305,-3.6766894,-0.46123815,0.28626890000000005,0.4571541
7.7944192999999995,-0.23099259,-2.8739135,-0.26054275,0.034487706,0.54497904
7.362064999999999,-0.3580864,-2.0801015,-0.10990338,-0.0421497,0.64400905
8.726865,-1.1330416,-2.2367208,-0.028989919,0.28042206,0.6498559
11.116757000000002,-2.2008748,-2.3591602000000003,0.007731808299999999,0.41615630000000003,0.49122292
12.270934,-1.6851254,-3.7008803,0.014119713999999998,0.25115287,0.17982127
11.169794,0.35891956,-5.285823000000001,-0.12959069,-0.004886922,-0.10602875
11.972072,0.3216658,-5.535107,-0.33986795,-0.16617279999999998,-0.27583185
15.17559,-0.3121656,-2.406307,-0.36329028,-0.036285397000000004,-0.38763762
15.719754,1.6778566000000001,-2.0785022,-0.37126642,0.14627604,-0.38550833
13.952144,1.4617271,1.2818173000000002,-0.47614327,0.12391838,-0.3386637
9.183572999999999,1.2397463,2.3817422,-0.61294216,0.14042918,-0.27689648
7.1823273,-2.1177192000000002,1.985502,-0.8216136999999999,0.18195057,-0.24123941
9.117359,-3.8620867999999997,1.5150126,-1.0340029,0.21015509999999998,-0.25614452
11.842114,-2.91518,1.3302566999999998,-1.2032824,0.27138126,-0.23804545
13.363821,-0.6667085,0.92916095,-1.3906783,0.22238985,-0.11828096
11.678753,0.3353319,-0.29692888,-1.4721328000000002,0.17715092,0.11592477
10.330042,0.41945454,-0.8558121999999999,-1.4135596000000001,0.19366173,0.25434682
10.056747999999999,0.28099309999999994,-0.8647186,-1.3129414,0.30386183,0.32941344
8.443085,0.4691582,-0.731103,-1.2767433000000001,0.22827162,0.38423422
7.5065789999999994,0.26725036,-0.6450363,-1.3225232,0.03609341,0.40552726
7.1977839999999995,0.4342603,-1.1212621,-1.3363637,0.04993387,0.2937389
7.3160386,0.48482585,-1.5163053999999998,-1.2032824,0.25434682,-0.08792969
7.2680783,0.9743252,-1.7899243000000002,-0.8008443000000001,0.07548549,-0.39400807
6.7923979999999995,1.6287563,-1.7462828000000001,-0.28290042,-0.26038566,-0.52496016
6.3360634000000005,1.4608845,-1.8725243000000003,0.19671606,0.03876376,-0.4126482
6.436715,0.5792244000000001,-2.003736,0.4426504,0.34590679999999996,-0.23218115
7.206364999999999,0.1974929,-2.1651722999999996,0.6555806,-0.01977458,-0.42647120000000005
7.748440700000001,0.12947842,-1.6258353,0.5746671,-0.17149605,-0.47811549999999997
7.897073299999999,-0.1860199,-1.1726704,0.41709880000000005,-0.027227135,-0.49675559999999996
8.455535000000001,-0.73905176,-1.9085428,0.517176,-0.10175269999999999,-0.5238955
10.67429,-0.93845046,-2.0240101999999998,0.65718627,0.052604225,-0.56594044
13.542601000000001,-1.1601629999999998,-1.151429,0.6816732,0.13510594,-0.40624285
12.948896000000001,-2.860056,-0.64758366,0.66196847,0.11967722,-0.20608848
12.115034,-3.7223803999999996,-1.9706962,0.73277646,0.0030892328,-0.043196898
11.379019,-2.188214,-2.337555,0.8237954,-0.07513642,0.16013396
14.53425,-2.152263,-0.5019492,0.9068381999999999,-0.07513642,0.2767045
13.619991,-1.8807508000000002,0.068502896,1.0479131,-0.049584802000000004,0.26820475
11.580878,0.65147185,1.4364827,1.0989989,0.03609341,0.22080160000000001
9.952582000000001,0.16221195,2.6116142000000004,1.0835702,0.04782202,0.17929767
9.198494,-0.36832398,2.8636856,1.081982,-0.006475171500000001,0.1505521
9.683368,0.14618038,2.106093,1.0872878000000001,-0.051190507,0.12711233
11.128738,-0.00014365209999999998,1.3557119,1.1165918,-0.03042109,0.07443829
12.045774,0.6194662,1.3717052,1.0979518,0.013753194,-0.028291788
10.889365,0.88073105,1.0761266,1.0127796999999998,0.05312782,-0.14807373
9.543412,-0.34708264,0.48422250000000006,0.8280715,-0.001134464,-0.26942647
8.762932000000001,-1.0359806999999999,0.27080336,0.6422812,-0.15763813,-0.29338986
8.298418,-1.0919284,0.014384363999999998,0.5278225000000001,-0.36632717,-0.16350244
7.992141999999999,-1.0801681,-0.4011533,0.50387657,-0.32320008,0.035046212
7.691995599999999,-1.018704,-0.41909063,0.5028119000000001,0.06485643,0.20378464
7.4754059999999996,-0.92929506,-0.4488745,0.30478686,-0.04478515,0.22987731
7.5506034,-0.84149486,-0.5910135,0.049270645,-0.29925415,0.22347195
7.703966,-0.77207255,-0.8468962,-0.17055358,-0.006457718,0.17078047
7.395650999999999,-0.66795355,-1.2471972,-0.38721874,0.8367108,0.043022364
7.21622,-0.535219,-1.8609459,-0.49153706,0.41725585,0.19102629
7.425377,-0.29358658,-2.0862308,-0.53305846,0.23787092,0.53010887
7.01842,0.018090586999999998,-2.3331877999999997,-0.69807935,0.18622664,0.59559363
6.710899400000001,0.4762929,-3.0959613,-0.72788954,0.24904104,0.5833414000000001
8.195352999999999,-0.0017717092,-3.678557,-0.62622416,0.33953634,0.55353117
12.313005,-1.4587678999999998,-2.0882897000000002,-0.50272465,0.3214373,0.31024972
14.071519,-1.0364308,-2.8741147999999996,-0.36112607,0.29749137,0.09573131
12.049854,-0.030301016,-4.474819999999999,-0.34461525,0.11435397,-0.08098327
11.912188,0.1502601,-5.365243,-0.33557445,-0.06766641,-0.12409291
14.328866,0.6292249,-1.6453912,-0.329204,-0.05384341,-0.10920525
15.824429,3.1829953,-0.48449066,-0.29672343,-0.032009337,-0.13582152
13.3656025,2.5760077999999997,1.3776523,-0.31693435,0.004712389,-0.14538592
9.320752,0.89941543,1.8377603999999998,-0.36164966,0.035046212,-0.19010127
7.1058563999999995,-1.5197625,2.076309,-0.43352234,0.06592108,-0.24387486
8.794545,-3.3779216,2.6213252999999996,-0.55223966,0.10370746,-0.28274333
11.110331,-3.012873,1.967057,-0.7199134,0.10744247,-0.27740264
12.247164999999999,-1.6480631000000001,1.5019593,-0.8556476999999999,0.0888198,-0.21832323
11.387523,-0.5028781,0.46277043,-0.9567895000000001,0.10691887,-0.08363618
10.584478,0.35123897,-0.023453599999999998,-0.93816686,0.09094911,0.04782202
9.664253,0.30039570000000004,-0.22016121,-0.86683524,0.053145275,0.12447688
9.286611,0.01214339,-0.3311564,-0.85831803,-0.07140142,0.09307841
8.204747,-0.10595779,-0.3750373,-0.8982336999999999,-0.18638371,0.011100293999999998
7.9536915,0.00035434187000000003,-0.38464287,-0.8950572,-0.22471114,-0.07353072
7.8015065,0.42777678,-0.46136266,-0.8205142,-0.03785619,-0.18903661
7.6802735,1.0523474,-0.6286695,-0.5250648,0.019617502,-0.23109904
7.163518400000001,1.5239094,-0.67644817,-0.18969983,-0.21352358,-0.09960594
6.639092999999999,1.6114893,-0.72944623,0.07696902,0.46942374,0.16441001
6.4628315,0.9811247,-0.78875536,0.19727457,0.6488086999999999,0.10585422
6.675561,0.40973409999999993,-0.6789764,0.32768556,-0.17254324,-0.34660494
6.9398427,-0.05970181,-0.67213863,0.2648886,-0.32744122,-0.47275734
7.615123,-0.43097547,-0.84069043,0.48366565,-0.12995721,-0.40674898
8.814425,-0.9011392,-1.1375138999999999,0.6683913,0.088296205,-0.43603559999999997
10.769942,-0.93026227,-1.4228358,0.60238296,0.17292722,-0.26408577
13.256542000000001,-0.5074462000000001,-1.5991256,0.5970422,-0.06021386,-0.053825952
13.563305999999999,-0.94245356,-0.9953941999999999,0.73331755,-0.30455995,0.096272364
11.277341,-3.0070693,-2.4458015,0.8994030999999999,-0.3535339,0.252235
10.414528,-1.8786439,-2.8667597999999996,1.0032152,-0.34395203,0.33314845
15.345415,-0.67689824,1.3565642,1.1442902,-0.33541736,0.33262485
14.847326,-1.7052749,2.6081282999999997,1.2140161,-0.35138714,0.26768115
10.188956,-0.71895957,3.5706263,1.1490723999999999,-0.31946507,0.26448720000000003
8.960731,-1.3006643999999998,3.8282328000000003,1.0697646,-0.34925783,0.23521802
9.651649,1.3519483,2.6502376,0.9925861999999999,-0.41687188,0.20488420000000002
11.683703999999999,2.110029,1.8657918000000002,0.9622349,-0.47701594,0.16121607
12.891751,1.678594,1.6837846,0.89250904,-0.48713884,0.05742133
10.957764,0.1635527,1.1071556,0.8648280999999999,-0.20659462,-0.0021642083
9.171593,-1.3533081,0.46257892,0.8009316,-0.043179445,0.0020594885999999997
8.555477999999999,-1.5088928999999998,0.33380917,0.747699,-0.13154547,0.030264008999999998
8.029482000000002,-1.1330512,0.42378327,0.68649036,-0.21139428,0.09096656
7.275164999999999,-0.9094040000000001,-0.19089448,0.7306646,-0.3705683,0.13512339
7.016628999999999,-0.91644293,-0.7685675000000001,0.70139545,-0.18156660000000002,0.23362978
6.892409,-0.6693901,-0.80015177,0.36763614,-0.15603243,0.30389673
7.2971916,-0.8278383,-1.2826122,-0.008150687,-0.2885553,0.37629297
7.490346000000001,-1.0226498,-1.6777321,-0.24825563,0.05581563,0.35765287
7.1309667,-0.32628179999999996,-2.1935964,-0.37336084,0.98047364,0.11597713
7.1474485,0.37248990000000004,-2.4559817,-0.57936203,0.7318864,0.15910421
7.2072080000000005,0.52615935,-2.1266546,-0.6043725999999999,0.49392816,0.30654964
7.430567699999999,-0.12327266,-1.8466095,-0.29188886,0.0771261,0.35979962
8.195257000000002,-0.8393401,-1.9477596000000001,-0.04117232,0.21766001,0.5668655
9.587734,-1.4225198000000001,-3.1580863,0.0008726646000000001,0.30922,0.53544956
11.969027,-1.9927324,-3.7826567000000004,-0.049689524000000006,0.41940263,0.25970498
12.57995,-0.5953231,-4.7926459999999995,-0.16414821,0.26183429999999996,-0.015498524
11.223673,1.7822436999999998,-5.254334,-0.43722242,-0.0075049159999999995,-0.24970426
12.75963,1.2357817,-5.0585556,-0.56658626,-0.15709709,-0.33222342
15.191421,-0.3152685,-2.4442117000000003,-0.5447522,-0.09374163,-0.3614926
15.244860000000001,0.24871926,-1.0895437,-0.50696576,0.008447394,-0.36735690000000004
13.925826,0.7613274,2.4264371,-0.47820276,0.04358087,-0.31890655
9.294224,-0.2316821,3.2448807,-0.48033208,0.082449354,-0.2795145
7.2829413,-2.5774732000000005,2.3644369999999997,-0.5447522,0.16282177,-0.3055897
9.410161,-4.1077699999999995,1.6407175999999999,-0.69912654,0.21179570000000003,-0.3636219
11.776351,-2.6526701,1.0416118,-0.9163153,0.21711896,-0.36416295
13.204022,-0.61104816,0.7200801,-1.0818598,0.2027549,-0.27047366
11.053532,0.11847468,-0.32798648,-1.0973058999999998,0.17133898,-0.13578662
9.73877,0.644385,-0.42177215,-1.0014874,0.079779,-0.022410028
9.693318,0.02791639,-0.47712609999999994,-0.9258972,-0.054349552999999995,0.07393215
8.254125,-0.28120378,-0.6039039,-0.9919055,-0.04209734,0.17188002
7.3007827,-0.63937634,-0.6608189,-1.1095233,-0.008028515,0.22565362
7.23137,-0.74764216,-0.8746402,-1.1388098999999998,0.0728675,0.008464847
7.778742299999999,0.12516886,-1.0532764,-0.87903506,0.013788101,-0.30400145
7.920267999999999,1.3692438999999998,-1.3508468999999999,-0.47129124,-0.08841838,-0.33114132
7.3328557,1.8287773999999997,-1.442018,-0.019338248,0.15484561,-0.26567402
6.590729700000001,1.3985872,-1.3096473999999998,0.1706932,0.87135565,-0.067631505
6.19741,0.3680367,-0.8397614999999999,0.49699995,0.52054447,-0.18741345
6.227069999999999,-0.46748224,-0.6569977,0.501276,0.03721042,-0.37957420000000003
6.735636,-0.629541,-1.2044941,0.30695105,0.038257618,-0.5153259
7.6243157,-0.5947963000000001,-1.8860371999999999,0.4262094,0.05157448,-0.4509058
9.784097000000001,-0.18967824,-2.364121,0.4911531,0.12503539,-0.43708279999999994
14.424069,0.8495106,-2.107051,0.5390623999999999,0.12077679,-0.22413518
14.743858,-0.45754153,-1.3572825000000002,0.5108404000000001,-0.034644786000000004,-0.08147197
12.484048,-3.7309036,-2.012384,0.5401096,-0.14323917,0.10587167
10.916286,-3.4570835,-2.4374409,0.58749527,-0.20872392,0.26237535
13.133748,-2.9715395,-0.29873893,0.5811074,-0.20498893,0.3257308
14.509695,-1.7523544999999998,1.2555481000000002,0.6226461999999999,-0.14536847,0.26398104
13.217621,0.5174349,2.6741798,0.65296257,-0.101717785,0.14739305
10.9671,-0.48278597,2.6269562,0.68066096,-0.10543534,0.09150761
8.65072,-1.2467469999999998,2.9306178,0.6779906,-0.12672836,0.10108947
8.5297165,0.5280843000000001,2.3345477999999997,0.7280291999999999,-0.16824974,0.11119492
10.282579,0.9871389000000002,1.8630337,0.7583805,-0.17357299,0.06595599
11.682402,1.1091091999999998,1.2207747,0.7131241,-0.104911745,-0.022933627
9.836856,0.92590487,0.9396954,0.6088058000000001,-0.093724184,-0.10224139
8.879864999999999,-0.36701196,0.58239436,0.52841586,-0.086795226,-0.16877334
8.326488000000001,-1.3238786,0.33852097,0.54599136,-0.20125392,-0.18900171
8.006076,-1.6031479,0.2188875,0.6338163,-0.37905059999999996,-0.101700336
7.497864,-1.3902172,-0.037148435,0.64659214,-0.25022787,0.11705923
7.388717,-0.85459596,-0.24012886,0.66523224,-0.21935298,0.25120524
7.411663000000001,-0.654728,-0.35479197,0.46134287,-0.30452505,0.29433233
7.850778599999999,-0.76589555,-0.3506739,0.1595231,-0.1820902,0.124511786
7.529755000000001,-0.7198311,-0.85549617,-0.15027285,0.64673173,-0.053249995999999994
7.1139107,-0.65536004,-1.5286403999999998,-0.16517796,0.1974491,-0.08412487
7.423634,-0.65903753,-2.1563041000000003,-0.16943656,-0.041015237999999996,0.3353301
7.911600999999999,-0.8028236999999999,-1.9154474999999997,-0.06084218,-0.12725195,0.71167547
7.554616,-0.868693,-1.007844,-0.21947515,-0.10489429,0.7494618000000001
7.7290483,-0.9934021999999999,-2.0401568,-0.34351570000000003,-0.0005585053599999999,0.80056506
10.071114,-1.8681573,-2.7064822,-0.37119663,0.22565362,0.5056568
13.252529000000001,-1.6160861,-2.6153781000000005,-0.44943973,0.04998623,0.13304645
13.609888,0.7517505999999999,-4.4141994,-0.5580341,-0.19593066,-0.14641567
11.968748,1.9383743999999998,-5.79234,-0.6336243,-0.18580775,-0.25766295
13.381231,-0.058619633,-1.9068859,-0.65013516,-0.030386182,-0.27097982
16.086756,1.7482653000000001,0.07619308,-0.677275,0.06702064,-0.26778588
13.064939,1.1177282,1.3437409,-0.72837824,0.13357005,-0.19910716
10.337436,1.1717415,2.0637155,-0.7906691,0.11440633,-0.15545648
6.7577110000000005,-0.603109,1.2817694,-0.8406902,0.14102261,-0.17941985
7.818160000000001,-3.2695985,1.6714784,-0.9306619,0.17987363,-0.21081832
12.031255999999999,-3.534675,1.2645024,-1.0994004,0.17296213,-0.20762436
14.024065,-2.3914053,0.74376357,-1.3118068999999999,0.12185889,-0.09637708
12.268282000000001,-0.68732744,-0.41620803,-1.415078,0.119729586,0.03190462
10.090708,0.761088,-1.0156204,-1.4039078999999999,0.17774433,0.14421655
9.231582000000001,0.6740060999999999,-0.8766609000000001,-1.372492,0.118664935,0.21128955
8.285145,0.20496282,-0.88383394,-1.3762096000000001,0.040404372,0.1953198
7.409690400000001,0.035549107999999996,-0.81903726,-1.3597162,-0.07028441,0.12507029
7.3666806,-0.08066545,-0.8551993,-1.2585743999999999,-0.109693944,-0.07986627
7.5969169999999995,0.29745564,-0.96601254,-0.9264033000000002,-0.15653858,-0.24275784
7.672937400000001,1.0677564,-1.0962666,-0.5404587,-0.11979939999999999,-0.22413518
7.042103999999999,1.6440120999999999,-1.3626839,-0.25514970000000003,0.5743355,-0.07986627
6.300141,1.5313983999999998,-1.598752,-0.029967302,1.0342646999999998,-0.10861184
6.493458,0.9899928,-1.6371360000000001,0.2808933,0.06277949,-0.49986228
6.8437967,0.08222646,-1.0796605,0.42727405,-0.12299335,-0.7884001
7.372091999999999,-0.78828615,-1.0818535,0.52204543,-0.023980823999999998,-0.6771354
8.7471485,-0.83800894,-1.441252,0.78714347,0.05956809,-0.5078559
10.895236,-0.5933023000000001,-1.9000863000000001,0.794596,0.16550957,-0.33325318
13.483732,-0.4819241,-1.3808989999999999,0.72965235,0.11014773,-0.055379298
13.190929999999998,-1.8235103,-1.1544937,0.7328463000000001,-0.13044591,0.10697123
11.6556635,-3.224262,-2.1513913,0.8584751,-0.254469,0.27199212
11.216385,-2.4735169999999997,-2.135034,0.94951147,-0.25075147,0.3981445
15.135864999999999,-2.2000031000000004,1.0603249,1.0745993,-0.2523397,0.41572
15.297848000000002,-2.4074082000000003,1.9564171000000001,1.1980986999999998,-0.25288075,0.34917057
11.930594000000001,-2.0120009999999997,2.533506,1.2683656,-0.27417377,0.31403708
8.08159,-1.6687682000000001,3.284883,1.2630424,-0.28694957,0.24909338
7.7377057,0.43177992,3.0669246,1.2326912,-0.27471483,0.17722073
9.509798,1.7725425,2.007586,1.185864,-0.23104669,0.083025314
12.447991,1.0163099,1.3596193,1.118791,-0.24010494,-0.03515093
11.734777000000001,0.46697468,0.96650094,1.0091318999999999,-0.28588492,-0.15865043
9.688644,-0.53890604,0.76981246,0.93886495,-0.23317600000000002,-0.23157029
9.101280000000001,-1.5114404,0.31998983,0.9149016,-0.23797564,-0.25818655
8.460371,-1.5796368,0.3129509,0.868598,-0.29492575,-0.23689353
7.68306,-1.4151073,-0.025397692000000003,0.83931136,-0.36093408,-0.13468705
7.4145937,-1.2159096999999999,-0.3623672,0.7221998000000001,-0.12351695,0.05639159
7.504711599999999,-0.86624134,-0.8150149999999999,0.55771995,-0.03621558,0.19799015
7.960375999999999,-0.43799525,-1.0976745,0.18456857,-0.13522811,0.24485224
7.8152585000000006,-0.37825513,-1.3186496,-0.14653784,-0.3545462,0.3481059
7.2063746,-0.54945016,-1.4287543,-0.32059953,0.43488368,0.14371040000000002
6.9184575,-0.8028812,-1.6836313000000003,-0.32059953,0.7361799,-0.014905112
7.118498,-0.99957925,-2.1023867000000003,-0.32646385,0.182544,0.31031954
6.9087663,-0.6521996999999999,-2.6565106,-0.18484782,0.103777274,0.46097636
7.04604,-0.50600976,-2.7458427000000003,-0.24555036,-0.027698375,0.5471956
8.215061,-0.53635865,-3.4093912000000004,-0.46539205,0.11335913,0.6611307
11.294857,-1.0274094,-2.7118067999999997,-0.62243676,0.16550957,0.49663344
13.64264,-0.45292550000000004,-3.5390036,-0.68685687,0.14049901,0.17617354
12.10516,1.3434536,-4.6323685999999995,-0.7677529000000001,0.07716101,-0.06174975
11.171777,1.097071,-5.934163,-0.8779355,-0.08464847,-0.19750145
13.730919,-0.6466451,-3.2025034,-0.89231706,0.014329153,-0.23104669
15.352541,-0.3664948,-1.2507406,-0.871024,0.11707669,-0.2725506
14.215065,-0.48991114,0.34723586,-0.94074994,0.17137387,-0.26670375
11.592945,1.594433,1.9522226000000003,-1.0690491000000002,0.15807447,-0.25286329999999996
7.405333000000001,0.13630669,1.4250863,-1.2196884,0.12878785,-0.21134192
7.127845,-2.3421326000000002,1.4959548,-1.3868561000000001,0.13782865,-0.15226252
10.383491000000001,-2.7068079,1.3807169,-1.5002152,0.13943435,-0.043650682999999996
13.226509,-1.4045346,1.0847648,-1.6066803,0.15114552,0.010105456
12.755099000000001,-0.5251920999999999,0.026364949,-1.6886583999999998,0.09684832,0.083025314
10.723399,-0.06136818,-0.40899667,-1.6311847,0.026581364,0.17032668
9.935899000000001,0.09548077,-0.63986474,-1.3570284,-0.10487683,0.24059364
9.372005999999999,0.024641125,-0.8171984999999999,-1.1787081,-0.2459518,0.26401594
8.014169,-0.04394797,-1.1587936,-1.1350573999999998,-0.20495401,0.23739968
7.0769444,-0.010352529000000001,-1.184718,-1.1041826000000001,-0.053249995999999994,0.16074483
6.9297104,0.48022896,-1.2036992,-0.92745054,0.29167940000000003,-0.15278612
7.175153999999999,1.1229955,-1.0936903999999998,-0.49785516,0.09526007,-0.30236083
7.2938203999999995,1.4513843000000002,-1.3852468999999998,-0.05708972,-0.115523346,-0.29651397
7.235345,1.7788439999999999,-1.5825002000000001,0.20001473,0.3672871,-0.22144738
7.048501,1.2986437,-1.7086458999999998,0.4528606,0.9730734000000001,-0.15756832
7.194403599999999,0.47476062,-1.0526539,0.692407,0.39229766,-0.44289476
7.082134700000001,-0.5728367,-0.7615764,0.6737669,0.08513716,-0.6430491
6.9688315,-1.8265460999999998,-2.1597614,0.6460859999999999,0.08513716,-0.6132389
7.7873135,-1.909146,-2.6853845,0.847305,0.07449065,-0.5067738
10.075192999999999,-1.0092231,-2.7302136000000004,0.7850315999999999,0.022863812999999997,-0.45779985
14.223004000000001,0.33384746,-1.4088056999999998,0.6812369,0.07770206,-0.22303562
13.527603,-1.2285223,-0.55870134,0.7254111999999999,0.028187068,-0.10114183
11.735544,-2.734887,-2.7382293,0.8893674000000001,-0.15118042,-0.034068827
11.119286,-2.3165147,-3.3442016000000003,1.0458536,-0.25766295,0.050544735
13.241026999999999,-2.2870852999999998,0.36328658,1.1576594,-0.29918435,0.16074483
14.997882999999998,-1.2831389,0.93836427,1.2481722,-0.34016466,0.16341518
12.072925,-1.1424652,1.7529483000000001,1.3104455,-0.3721042,0.18257889
8.939805999999999,-1.971127,2.5440023,1.3327857,-0.33538246,0.20971876
7.3621893,-0.285159,2.636246,1.3311975,-0.29918435,0.20333086
8.029950999999999,2.0783875,1.3331202,1.3109691,-0.3199363,0.13999286
10.988447,1.1705635,1.3321626,1.2013102,-0.42053708,0.05588544
13.806509,0.02671929,1.3931858999999998,1.0346836,-0.56161207,-0.014905112
11.473101,-0.4666491,1.1887306999999998,0.8403934999999999,-0.51209706,-0.07452556
9.270004,-1.3385311000000002,0.8379323000000001,0.6120346,-0.32417744,-0.27413887
9.026418,-1.2447071,0.7190267,0.4411494000000001,-0.26244515,-0.3188542
8.546553,-0.94885087,0.31559408,0.49438196,-0.38807395,-0.22996458
8.162149000000001,-0.60005397,-0.33234394,0.5657135999999999,-0.38594466,-0.014905112
8.160531,-0.7022098000000001,-0.8264593000000001,0.6652496999999999,0.23260003,0.28370327
8.415446000000001,-0.8660880999999999,-0.9062819999999999,0.42997932,0.5040859999999999,0.46471137
8.304346,-0.97338665,-1.0733972,0.08609709,0.029251719,0.40242055
7.6333375,-0.81334865,-1.4382926999999999,-0.110845864,-0.051120695,0.38166859999999997
7.040849000000001,-0.10522038,-1.9878863999999998,-0.26734954,0.5573185,0.3188542
6.970526700000001,0.62410134,-2.7738742999999997,-0.28916615,0.5200558,0.45832345
7.0360125999999985,0.15763424,-3.5464830000000003,-0.33709288,0.12027064,0.5376312
6.819012,-0.15136144,-2.8995792999999996,-0.22848105,0.27625072,0.59459877
6.8451185,-0.18488024,-2.9382505,0.028605945,0.1964019,0.45832345
8.310131,-0.87763774,-3.5551214,0.038187806,0.32470104,0.532308
11.220464999999999,-1.4602620000000002,-2.9343145,-0.09274679400000001,0.30447268,0.5871462
13.209126999999999,-0.65138566,-3.420414,-0.19814722,0.34225908,0.30449015
11.749085000000001,1.5114499,-4.857921599999999,-0.36901495,0.19427260000000002,-0.017558011999999998
11.180406,0.33200872,-5.9116089999999994,-0.56545174,-0.095294975,-0.27307420000000004
13.0751095,-0.40206307,-2.821107,-0.65914106,-0.09208357,-0.42851323
15.758301000000001,2.262578,-2.8356254,-0.6761755,-0.030874874,-0.44181263
12.551497,-1.1363169,-0.031057585,-0.6224193,0.08300786,-0.46418777
11.209441,-0.7195821,0.92923754,-0.58088046,0.26188666,-0.45352380000000003
8.554464,-1.9894474999999998,2.7456226000000004,-0.61814326,0.34012976,-0.42318997
8.37078,-1.9449441000000003,2.2476192000000004,-0.70757395,0.3630285,-0.40029126
10.327102,-1.1313752000000001,1.3781598999999998,-0.8363966999999999,0.30234340000000004,-0.37261033
12.030624000000001,0.29383558,0.7022480999999999,-1.0030059,0.2517812,-0.30234340000000004
12.539699,0.7420876000000001,0.12283212,-1.1180055,0.08888962,-0.15383331
10.984425,-0.121855296,-0.6509643,-1.0280339,0.0675966,0.010105456
10.059343,-0.33016998,-0.9405382,-0.8177566,0.058538344000000006,0.11604694
9.67517,-0.41958863,-0.7474890000000001,-0.6889338,0.017558011999999998,0.15330972
8.751574,-0.1558338,-0.95390743,-0.74111915,-0.130411,0.17779669
7.8143773,-0.07572381,-1.1250257,-0.85610145,-0.23689353,0.15542157
7.593278,0.19290562,-1.265441,-0.9050579,-0.08304276,0.0069289569999999995
7.5592995,0.63770044,-1.2806681,-0.77091193,-0.046303585,-0.24750514
6.864885000000001,1.3511916000000002,-1.1174506000000002,-0.53829443,-0.13733996,-0.31353095
6.4877405,1.1601822,-1.3958579,-0.24658011,-0.19429006,-0.30979595
6.4776373,0.61372966,-1.4421713,-0.13796827,0.41308454,-0.11601204
6.9156322,0.26793033,-1.464696,0.21120229999999998,0.47855183,-0.11444124
7.427579400000001,0.15435898,-1.4957535,0.32672563,0.19057249999999998,-0.21450096
7.4780690000000005,-0.013867216000000002,-1.2673563,0.27881634,-0.00052359875,-0.28105035
7.7453094,-0.5196375,-1.5122544,0.33365458,0.009581857,-0.2703864
8.976466,-0.29915074,-3.0184752999999995,0.61257565,0.06227334599999999,-0.42903683
12.715672,1.1713679,-1.9580165,0.65144414,0.042044982,-0.43381903
14.059318,0.6615274999999999,-1.2826217,0.59075904,0.080372415,-0.20650735
12.448106,-1.5665643999999999,-2.2513732999999996,0.5188864000000001,-0.0037175512,-0.0707731
11.229965,-1.7114711999999999,-3.7153125,0.6274982,-0.1346696,0.09688323
11.489918,-0.04099831,-1.6987148999999997,0.73981017,-0.20706587,0.26618016
15.060956,-0.41249222,0.6030036999999999,0.9208008,-0.25336945,0.37903315
13.569655,-0.6959753000000001,1.3438845,1.0693108999999998,-0.31300735,0.35187584
10.817636,-1.5035969,2.4960222,1.0986148999999998,-0.39762092,0.2938611
9.286408999999999,-2.829228,3.3470267999999996,1.0384535,-0.41147882,0.20441297
9.413062,-0.8190085,3.1272488,0.95541066,-0.36941640000000003,0.08093092
9.267563,1.5430151,1.7503721999999997,0.90961325,-0.37048104,-0.0686438
10.786721,2.2507892000000003,1.126242,0.8648978999999999,-0.42851323,-0.25975734
11.716763499999999,1.8532174,1.0463619,0.80529493,-0.41306707,-0.35555848
10.386726,0.32712457,0.74492234,0.74141586,-0.29223794,-0.36726964
9.289703999999999,-1.4696951,0.43060195,0.73981017,-0.08834857,-0.33800048
8.695931,-2.0409133,0.50331867,0.8004778,-0.1362753,-0.26401594
8.198331,-1.6237572,0.013484145,0.75152135,-0.37048104,-0.14158110000000002
7.678779,-1.2562855,-0.74114907,0.66687286,-0.14425147,0.09262462
7.469363,-0.96244997,-1.1964401000000002,0.37836993,-0.022881266,0.2938611
8.043398,-0.48937482,-1.3761104,-0.055466562999999997,-0.17832029,0.3721042
8.00553,-0.53572655,-1.3728735,-0.35248670000000004,-0.20067796,0.3763628
7.315367999999999,-0.8105139,-1.7727818,-0.47333329999999996,0.47483426,0.14800392
6.634927,-1.0404052,-2.3001864,-0.29021335,0.695217,0.14852752
6.9181705000000004,-0.8754638000000001,-2.4582705000000002,-0.44087017,0.53443724,0.13042845
6.980755,-0.31521103,-2.0035255000000003,-0.14222687,0.53178436,0.32686526
6.6864214,-0.041879375,-2.2353704,-0.0394968,0.47322857,0.5791875
7.755518400000001,-0.45848003,-3.606118,-0.021921335,0.39870300000000003,0.59515727
11.330071,-0.29462087,-3.3072638999999997,-0.13477433,0.65102524,0.64891344
13.20452,0.84953934,-4.346271,-0.25507987,0.6904348000000001,0.42216024
11.917666,1.9259244999999998,-5.6157346,-0.4770683,0.48174578,0.08997172
11.964936,1.2281296999999998,-6.6258479999999995,-0.7458839,0.10752974,-0.118664935
12.765118,-0.47551718,-3.9492836000000002,-0.9348506999999999,-0.17936748,-0.18414968
16.56006,1.3771353000000002,-1.9237986,-0.9822364,-0.23527038,-0.22621213
14.104051,-0.55123144,-1.9750823,-0.93273884,-0.13147566,-0.24696408
12.436297,-0.39534974,1.5817246,-0.84489644,0.09155997,-0.19479620000000003
8.418578,-1.0059383,2.0922546000000004,-0.8039161,0.21293017,-0.15913913
7.5892553,-2.5076869,1.9377041000000002,-0.8236034,0.16554448,-0.11068878
8.835649,-2.1290102,1.3507607,-0.9146398000000001,0.073984504,-0.060650192
10.926466,0.16336118,1.2152393999999997,-1.0056412000000001,0.026616272000000003,-0.029234264
11.538846000000001,1.0421289,0.7904217,-1.0796607,-0.011693706000000002,-0.014346606000000001
10.554082000000001,0.35240734,0.27758375,-1.1030655,-0.036180675,0.014381513
9.6733885,-0.03959052,-0.06580224,-1.0226932,-0.05482079,0.04579744
9.702607,-0.28094518,-0.283665,-0.8779005999999999,-0.03031637,0.08625417
8.777603,-0.04852568,-0.4760822,-0.78101736,-0.02872812,0.10915289
7.8297577,0.31651345,-0.6758735,-0.7107504,-0.034051374,0.07827802
7.764769599999999,0.47570872,-0.66893995,-0.6990393,-0.034051374,0.015987216000000002
7.6172770000000005,0.48495033,-0.80435604,-0.6287723000000001,0.079325214,-0.16072737
7.717604,0.52028877,-1.0665977,-0.44830528,-0.024469515,-0.21608922
7.4751477,0.6744753000000001,-1.1675277,-0.28221974,-0.16339773,-0.19212584
7.151279400000001,0.75997704,-1.3681233999999998,-0.12891002,0.18685494,-0.11227703
6.8289337,0.14713806,-1.5846646999999998,0.032375857,1.0486985,-0.02549926
7.2931504,-0.41230068,-1.2615048999999998,0.19898498,0.30181979999999997,-0.20011945
7.4985247,-1.0803213,-1.2338183999999999,0.16650441,0.14479251,-0.26293385
8.048071,-1.3349398000000001,-1.4885422,0.19046777,-0.08407251,-0.33957127
8.86886,-0.699059,-1.8386798,0.22718951,-0.058538344000000006,-0.27570966
11.134541,0.004711789,-2.2993531000000003,0.08559094,-0.024993114,-0.19320795
13.485732999999998,0.49652870000000005,-1.7486197,0.027052603999999997,0.024504422999999997,-0.09630727
12.643339,-0.9154661000000001,-2.0701513,0.096778505,0.016510814,-0.119729586
11.532275,-2.3085754,-3.4822513999999996,0.31609657,-0.18627898,-0.0015533429999999998
11.211807,-0.9782708000000001,-3.1188689999999997,0.59822905,-0.27092746,0.12512265
14.510998,-0.78933,-0.6142850999999999,0.8585449,-0.260822,0.2347817
15.103667999999999,-1.2688311,2.7493577,1.099156,-0.24485224,0.27469736
12.805168,-0.39794505,3.3326905,1.1614294,-0.3438473,0.26352727
10.445442,-1.4209969999999998,3.9457593,1.1901749,-0.41413173,0.26405087
8.050073,0.071347214,2.4189768,1.2886639,-0.39175659999999995,0.29546678
7.4078135,2.2241367999999997,1.2381375,1.230108,-0.34065336,0.19805996
9.253599000000001,1.7739981,0.9339877000000001,1.0070549000000002,-0.40029126,0.055920347999999995
12.144962,0.2163688,1.1390271,0.7792197,-0.45244170000000006,-0.05318018
11.268071,-0.44147164,0.9759148999999999,0.63390356,-0.34651768,-0.118664935
9.071102999999999,-1.6824342,0.7494713000000001,0.49336967,-0.17456783,-0.15699236
7.9547257,-2.9720470000000003,0.7318883,0.45875978,-0.29967302,-0.11386528
7.353072,-2.4410898999999997,0.61202496,0.5002986,-0.49609238,-0.010053096
7.2587600000000005,-1.1790581,-0.18374062,0.622175,-0.33108896,0.114476144
7.3422410000000005,-0.6724834,-0.48585054,0.47792349999999995,-0.089936815,0.29068458
8.153703,-0.8016649,-1.0867568,0.17556266,-0.14369296,0.34869933
8.442635000000001,-0.43889546,-1.8091353,-0.033073988,-0.38802159999999997,0.40886083
8.084999,-0.052107405,-2.4493258,-0.17360789999999998,0.20069541,0.311454
7.5584755,-0.22126254,-2.6968384,-0.26624998,0.75166094,0.21987657
7.8301506,-0.44096407,-3.0058818,-0.4222126,0.43865360000000003,0.33698818
7.706877700000001,-0.31696355,-2.5196865,-0.25399777,0.6089803,0.4642052
7.2447777,-0.16054559,-2.0018113,-0.12678072,0.5621531,0.6026273
7.724863,-0.5703083999999999,-2.9697485,-0.13849187,0.3588048,0.69471085
10.165981,-1.6213628999999998,-3.1777759999999997,-0.15711454,0.2629862,0.64095473
12.255899000000001,-2.1048481,-4.0650673,-0.14594443,0.321542,0.34817573
11.733628,-0.20884143,-4.4736614,-0.15870279,0.26991516,0.07723082
11.469768,1.3596193,-5.642693,-0.24281020000000003,0.105417885,-0.19264944
13.126210999999998,-0.12395261,-4.733528,-0.34821063,0.0032114058000000003,-0.32466614
15.068282,0.43539038,-2.418412,-0.39931387,-0.075031705,-0.36990508
14.175178,0.5015661,-1.6268121000000002,-0.46214575,-0.08354891,-0.35767034
12.321874000000001,1.0292865,1.645937,-0.51750755,-0.09526007,-0.25281096
8.446791000000001,0.24381591,2.9429047,-0.48076838,0.027157322999999997,-0.20596631
7.7496095,-2.1527127999999998,2.3348063999999997,-0.47650978,0.17088519,-0.2522699
9.404175,-3.0765203999999997,1.44854,-0.56594044,0.25607470000000004,-0.26663396
11.255419999999999,-2.538687,1.0264708,-0.62182593,0.34070572,-0.25333455
12.041197,-1.2557013000000001,0.54010314,-0.70912725,0.31143656,-0.22991222
11.096732000000001,-0.41289443,-0.26961586,-0.8065515999999999,0.16982053,-0.12505284
10.052391,0.5698583,-0.62219554,-0.77567667,0.095294975,-0.06436774
9.636039,0.66783863,-0.38668275,-0.6383367,0.104353234,-0.02284636
8.502863,0.055593364000000006,-0.7789583000000001,-0.57817525,0.059096847,0.015463616999999999
7.7931266,-0.32774708,-0.6367619000000001,-0.5936214,-0.01966986,0.10009463
7.877536999999999,-0.43175119999999995,-0.6635099,-0.6612180000000001,0.019181168000000002,0.076689765
7.945417,0.060592457999999995,-0.9703221,-0.5536882,-0.050544735,-0.1282468
7.8793178,0.76101136,-1.2331192,-0.34662238,-0.0058293995,-0.15592772
7.568952599999999,1.0214719,-1.0990535,-0.22685789999999997,-0.054803338,-0.14102261
6.753574,0.65570486,-1.4608557,-0.13582152,0.37529814,-0.09098402
6.60611,-0.078979924,-1.5915313,0.13884094,0.5887694,-0.1372876
7.3726954,-0.50558835,-1.3788687,0.41032690000000005,0.041538835,-0.3278601
7.6561685,-0.7655316,-1.1053838,0.54182,-0.04096288,-0.45881215
7.904399400000001,-0.86465156,-1.1283299,0.5316970999999999,-0.14955726,-0.4428424
8.878925,-0.6367811,-1.7244095000000002,0.6040934,-0.073426,-0.36351717
11.899000000000001,0.53454864,-2.1341243,0.57163024,0.045256387,-0.29859093
13.731963,1.2264153999999998,-1.5771084999999998,0.52050954,0.14320427,-0.24801129
12.131411,-1.9311823000000001,-2.2299979,0.53649676,0.07295476,-0.19956094
11.243784,-2.5153675,-3.3369617,0.6583905,-0.043615777,-0.040927973
12.741999,-0.7702913,-1.4519684,0.7888189999999999,-0.18734364,0.16238543
15.416148999999999,-1.2751806,0.54503524,0.9187064,-0.26028094,0.25980970000000003
13.690189000000002,-0.92578036,1.8537824,0.99855524,-0.29860840000000005,0.27152088
11.575659,-1.0425790000000001,2.6308732000000004,1.0049257,-0.274645,0.25926867
8.655806,-1.9756186000000002,3.0155258,0.95490456,-0.22087142,0.18582520000000002
7.5462937000000005,0.122219205,2.1926674999999998,0.8963486999999999,-0.19266689,0.09852383
8.655269,1.6697354,1.6577069,0.88835514,-0.1969255,-0.015917404
10.902303999999999,1.4105391999999999,1.4933785,0.8979370000000001,-0.20970131,-0.11227703
11.513917,0.86652863,1.164061,0.8787733,-0.18842575,-0.16444492
9.904688,0.32145512,0.9924062,0.8234113999999999,-0.054803338,-0.18893189999999999
9.32915,-0.836965,0.61783814,0.8170235,0.060161497,-0.21235421
8.78537,-1.2505681999999998,0.2771528,0.8436398,-0.16339773,-0.14208725
8.242527,-1.265939,-0.34822226,0.7275929,-0.49822170000000005,-0.011658799
8.148282,-1.0186370999999999,-0.95699114,0.61741024,-0.3039142,0.14856243
8.156279,-0.80104244,-1.2966613999999999,0.36454692,-0.03031637,0.23958135
8.421441,-0.5783434000000001,-1.3851031,0.024399703,-0.08567821,0.28110272
8.025527,-0.5650411999999999,-1.4102327,-0.29764846,-0.18786724,0.33061773
7.198072,-0.7537043000000001,-1.5697823,-0.41367793,0.45781732,0.07829547
6.867317,-0.89508665,-1.9174683000000001,-0.25877997,0.7724129,0.08147197
7.2849330000000005,-0.67594063,-2.0088310000000003,-0.40304887,0.4391772,0.33061773
7.2685857,-0.6001880999999999,-1.1169622,-0.093235485,0.42694244,0.47858673
6.8365564,-0.32546777,-1.3464798999999998,0.17503907,0.18472564,0.6420194
7.6231194,-0.63134146,-3.3148297999999996,0.160675,0.32899457,0.7112217
10.694363000000001,-0.5267148,-3.331369,0.04728097,0.3343178,0.6335022
13.221874,0.5362054,-4.270614,-0.08578293,0.34922293,0.42535418
11.865013000000001,1.3302664,-4.956965,-0.22685789999999997,0.24115214,0.10543534
11.524144999999999,0.7340335,-5.8146443,-0.48129198,0.037803832,-0.1261175
13.299838000000001,-0.46294284,-3.1296334,-0.7554483000000001,-0.15648621,-0.27996826
16.06382,0.84797835,-0.76119334,-0.88318896,-0.29113838,-0.36299357
14.042041000000001,-0.9635799999999999,-0.252368,-0.86936593,-0.23579398,-0.337983
11.252317,-0.41437885,2.315097,-0.8118748,-0.11229448,-0.28049186
7.8490644,-1.4428321000000002,2.455905,-0.7623598,0.042603485,-0.2527935
8.20537,-3.0365276000000003,2.2934822999999995,-0.7543837,0.10807078,-0.2751686
9.211825,-2.4718313,1.6284785,-0.8347561,0.09742427599999999,-0.25120524
11.598021000000001,-0.8119695,1.621181,-0.97263706,0.07667231599999999,-0.16922712
12.680458,0.12873143,0.87224597,-1.0860311000000002,-0.036704276,-0.05372123400000001
10.531777,-0.32538158,-0.16144581,-1.0988069999999999,-0.12613495,0.03515093
9.796087,-0.22157858,-0.40616196,-1.0657853000000002,-0.11814134,0.10278243599999999
9.414547,-0.5442786999999999,-0.19094236,-1.0514213,-0.0005061455,0.16557938
8.181399,-0.35866097,-0.2505197,-0.99499476,-0.028710665,0.15493287
7.788951400000001,0.0015131354,-0.44278365,-1.0226756,-0.12027064,0.07030186
8.105714,0.3415185,-0.37022978,-1.0375807,-0.0691674,-0.058503438
8.280452,0.81290805,-0.63180107,-0.85924304,-0.012199851999999999,-0.23895302
7.9175773000000005,1.0306273000000001,-0.9891405000000001,-0.622908,0.023439772,-0.24855234
7.003250599999999,0.9938331,-1.2184763,-0.34396950000000004,-0.059602994000000006,-0.20118411
6.6241335999999995,0.5670331999999999,-1.2401868999999999,-0.062360615,0.5365840000000001,-0.12239994
6.7244697,-0.007661445500000001,-1.1749401000000002,0.3416482,0.7410144000000001,-0.21820106
7.0872107,-0.35054943,-1.3008943000000002,0.5971644,0.07134906,-0.42048472
7.659722,-0.5399883000000001,-1.5055889999999998,0.78028435,0.12351695,-0.45828855
8.259259,-0.89633167,-1.4756614,0.71003485,0.051120695,-0.23630013
9.931139,-0.31890765,-2.5885724999999997,0.40819759999999994,0.06335545,-0.08299041
12.886235000000001,0.10132261,-2.6115568,0.08667305,0.09690068,-0.06543239
13.43035,-0.4694359,-2.4863305,-0.0021991148,0.19111355,-0.13035864
11.594092999999999,-2.497794,-2.6399138,0.14309955,0.096359625,-0.24694663
11.529478999999998,-2.47231,-2.152962,0.38212240000000003,-0.08087855599999999,-0.092572264
14.239801000000002,-2.1504624,-0.6963486999999999,0.6504144000000001,-0.21663027,0.13737486
16.138538,-3.2715042000000003,0.6012894,0.8478984,-0.22195353,0.28590238
13.322995,-1.9575566999999998,2.644434,0.97459185,-0.20758946,0.33646458
10.1199465,-0.42702022,2.4572937,0.9564928,-0.15966272,0.32208306
7.433114999999999,0.029103916,1.9441971999999998,0.8638681999999999,-0.15062192,0.27630308
7.6451744999999995,1.5802976,0.82110584,0.781349,-0.17510888,0.17835520000000002
8.380415,2.4536161,0.4155568,0.71694636,-0.18788469,0.016004669
10.92977,0.8278383,1.041315,0.6663667,-0.18627898,-0.057438787000000005
11.722711,0.0040892963,1.3873057,0.5929232,-0.16446237,-0.10534807
9.910061,-0.7591726,1.1972637,0.50560445,-0.19905479999999998,-0.119729586
8.651563000000001,-2.6399426,1.0797563000000001,0.4433311,-0.24164084,-0.16125096
8.072645,-2.370231,0.5911571,0.4582362,-0.29860840000000005,-0.16018632
8.252535,-1.1964784,-0.06602251,0.513057,-0.42263147,-0.11918853
8.139357,-0.92507166,-0.6663063,0.5939705,-0.2868972,0.010681415
8.234952,-0.7746775,-0.9185976999999999,0.5854533000000001,-0.08035496,0.15121533
8.645184500000001,-0.47752833,-0.94558513,0.3666762,0.04740314,0.17198475
8.183553999999999,-0.34576106,-0.9136178,0.057403877,-0.23047073,0.2550275
7.30266,-0.5531755,-1.0081121,-0.16350244,0.21399482,0.2539454
7.000540700000001,-0.86657655,-1.4150690000000001,-0.06290167,0.8346863000000001,0.19271925
7.405936200000001,-1.0331841999999998,-1.8951830000000003,-0.13847442,0.46101126,0.33487633
7.7168470000000005,-0.7538766,-2.0850720000000003,0.03876376,0.24914575,0.40034363
7.465006,-0.6347507,-1.7892827,0.22773056,0.2400875,0.5094616
7.8780537,-1.2631999,-2.3722038,0.18835594,0.17090264,0.59198076
9.971343,-1.9297936000000002,-2.67847,0.14414674,0.16715018,0.60686845
12.404186,-1.6486568,-3.151095,0.10742501,0.22731169,0.48710394
12.148399000000001,-0.0750247,-4.074232,0.04621632,0.19165461,0.22734658
11.119861,1.5341278,-5.3716406999999995,-0.1629614,0.053249995999999994,-0.10587167
12.603528,0.23803154,-4.589407,-0.41954225,-0.11655309,-0.26771605
15.274289000000001,1.1366041,-0.84254825,-0.53825957,-0.20598376,-0.34491196
14.822494,-1.0595778,-0.76439196,-0.5834984999999999,-0.1335875,-0.32840115
12.748836500000001,-0.36686832,1.8701683999999998,-0.52974236,0.014381513,-0.2836858
8.836348,-0.495504,2.5857186000000003,-0.48609164,0.14639822,-0.2836858
7.853728299999999,-1.9430861000000001,2.5532246,-0.51375514,0.2518161,-0.31189033
8.892132,-2.7962456,1.3673382,-0.5888392,0.31461304,-0.3039142
11.246504,-1.9692788,1.4624741,-0.6793345000000001,0.32260665,-0.27836257
12.858262,-0.7466749,0.70969886,-0.7719590999999999,0.24914575,-0.20755455
11.144625999999999,-0.33473814,-0.30352733,-0.82410955,0.16290903,-0.10695378
9.826129,0.6003795999999999,-0.60861564,-0.76023054,0.1187173,-0.026040312000000003
9.4242,0.3758897,-0.4045818,-0.6377957,0.08518952,0.031450834
8.347451,-0.19444747,-0.5207102,-0.53773594,0.03515093,0.050597094
7.830342,-0.603176,-0.44996628,-0.55955255,-0.094719015,0.061784655
7.730637599999999,-0.38226783,-0.5065652,-0.6463303,-0.11122983,0.027174776
7.948165400000001,0.1586398,-0.74619603,-0.59522706,-0.06386159,-0.18627898
8.0860815,0.6555324,-0.840834,-0.33756414,0.03143338,-0.30124384
7.512641,0.9571635000000001,-1.0548183,-0.15446164,-0.089936815,-0.21554816
6.859914999999999,0.85317856,-1.2842306,-0.040002946,0.49082148,-0.022305308
6.991011599999999,0.4025994,-1.2579998,0.14203489,0.68298227,0.04103269
7.330317999999999,-0.38262215,-0.9665200999999999,0.30705577,0.11819369,-0.26984537
7.517104,-0.86623174,-0.7117483,0.44439572,0.0032114058000000003,-0.51523864
8.065529,-0.8929798000000001,-0.6675226,0.492305,-0.07983136,-0.55250144
8.788041999999999,-0.62402475,-1.5394238,0.5689599,0.03515093,-0.42048472
11.415889,0.15794070000000002,-2.0660524,0.44013712,0.026633725,-0.25439918
13.835804999999999,0.6725025,-1.9254745,0.2825688,0.054838244,-0.09683087
12.548662,-1.7041258000000001,-1.9221513,0.27563986,0.0010821042,-0.093636915
10.728705,-2.6063757,-3.3187754000000003,0.5114687,-0.10430088,-0.03562217
11.539276,-0.8297154,-1.9194601999999998,0.7334397,-0.16233307,0.09904744
14.718815,-0.7153204000000001,0.90810156,0.9357408000000002,-0.21130702,0.20392427
14.011903,-0.7444339,2.310079,1.063499,-0.22992967,0.23212878
11.892909,-0.9871389000000002,3.2555110000000003,1.0299537,-0.21183062,0.258204
9.250217999999998,-2.3545249,3.9430300000000003,0.9351997999999999,-0.22034782,0.2773677
7.630895599999999,0.008887276999999999,2.5369917999999996,0.8500277,-0.29220300000000005,0.25928609999999996
8.310169,2.2437882,1.2887605,0.8053123999999999,-0.33213615,0.11608185
10.905187,2.1905892000000002,0.7486381,0.7419569,-0.31084314,-0.05318018
12.196763,1.1881083000000001,1.0607942,0.6568023000000001,-0.26506317,-0.15964526
10.469222,-0.19162233,1.2703058999999999,0.5950350999999999,-0.15859807,-0.22245966
9.545509,-1.7161063,1.0688195,0.63016856,-0.17990854,-0.24268803
8.79123,-1.9226397000000002,0.7081187,0.654673,-0.34437090000000004,-0.16177456
8.518521,-1.1034396999999998,0.04491522,0.5822593,-0.58978164,-0.021781709
8.139462,-0.5179616,-0.43419325,0.6152809,-0.33267722,0.14802137
7.8452625,-0.28696904,-0.46703213,0.51946235,0.07347836,0.32262412
7.937066000000001,-0.23245783,-0.6495661,0.22881266,0.06122615,0.32155946
7.802703,-0.53032523,-0.9984108,-0.121963605,-0.17083283,0.38597956
7.2484836999999995,-1.0001346,-1.4024947,-0.45202282,0.37742746,0.20551252
6.959503999999999,-1.0938341999999999,-1.6997875,-0.43179446,0.8368329999999999,0.16186184
7.363463,-0.975302,-1.3985011999999999,-0.5228134,0.41097268,0.3742684
7.200992599999999,-0.5380633,-1.0133411,-0.16348499,0.32740632,0.5211902
6.960136,0.052883125999999996,-1.5315038,0.21443115,0.1900489,0.6601184
7.813678299999999,-0.26749936,-2.8489468,0.2671401,0.25286329999999996,0.6787411
10.65752,-0.5878914000000001,-2.862747,0.21975441,0.21240658,0.5467244000000001
13.19074,-0.49192226,-3.7188462999999996,0.10051351,0.26618016,0.37372735
12.375811,1.1639651000000002,-4.5878654,-0.08204792400000001,0.17835520000000002,0.15282103
11.6542845,1.6909863,-5.692521,-0.34129915,-0.097930424,-0.09152506
12.756345,0.4699818,-4.550822,-0.6782524000000001,-0.30977848,-0.28473303
15.500032999999998,1.6748303,-0.5714289,-0.7921875,-0.29595548,-0.3853687
14.195471,-0.29114450000000003,-0.37917449999999997,-0.7453254,-0.18147933,-0.36299357
11.721072999999999,-0.7953155,2.8625076000000003,-0.65057147,-0.07714355,-0.28953266
8.440778,-2.0296220000000003,3.3377855000000003,-0.5707401,0.05057964,-0.25759315
8.491582000000001,-3.2859172999999995,2.9796127999999995,-0.57285196,0.10115928,-0.29485592
8.611848,-3.0329652,1.7633296000000003,-0.67931706,0.1251052,-0.29485592
10.5933275,-1.3859076000000001,1.6429683000000002,-0.85604906,0.11499974,-0.23842943
12.000285,-0.13406572,1.1021372,-1.0120292,0.054838244,-0.14845770000000003
11.0376625,0.25364172,-0.020446481000000002,-1.0828372,0.0005410521,-0.07021459
10.062389,0.20642807,-0.57255894,-1.0578091,0.01972222,-0.03827507
9.967138,-0.5121293,-0.26150426,-0.9651844999999999,-0.03031637,-0.02391101
8.497164999999999,-0.53572655,-0.21539196,-0.8794714,-0.05532694,-0.02391101
7.888828,-0.32739273,-0.49544653,-0.88105965,-0.102695175,-0.0074001959999999995
8.244779,0.15869726,-0.67357516,-0.9162106,-0.05745624,-0.08299041
8.784498,0.8759809999999999,-1.0973488999999998,-0.74851936,-0.14156365,-0.25865778
8.165913,1.2387217,-1.4883123999999999,-0.5398478,-0.11814134,-0.24640559
7.2922020000000005,1.0852532,-1.5531665000000001,-0.36098644,-0.012740903500000001,-0.20701350000000002
6.7287216,0.81229514,-1.6376628,-0.111334555,0.6483898,-0.062220987
6.747521000000001,0.26043168,-1.2539966999999999,0.2777866,0.71918035,-0.04201007599999999
7.085065400000001,-0.49867392,-0.62591136,0.37199947,0.027698375,-0.25706956
7.337097999999999,-1.2599151000000002,-0.85818726,0.31559044,0.07614872,-0.44868925
7.9614773,-1.367951,-1.3795965000000001,0.33101913,0.013334315,-0.45773005
9.396514,-0.41842985,-2.2536237,0.29960322,0.044732787,-0.39973277
12.226757000000001,0.63118815,-2.2484236,0.1542871,0.046862092,-0.24429373
13.120120000000002,0.077658325,-1.8521258000000003,-0.07778932,0.07028441,-0.14580481
11.867080999999999,-2.8694506,-2.6171496,-0.07513642,-0.051591933,-0.08511971
11.395548,-3.2109022,-3.1011713,0.21603686,-0.2517463,0.057526052
12.926974000000001,-1.5834389,-0.5753554,0.46143013,-0.35875243,0.17676695
14.653501,-1.2480686,1.0509876,0.6488261,-0.43434262,0.3199712
13.167132,-0.4012682,2.2240121,0.7483623,-0.43380159999999995,0.33539993
10.777824,-0.61013836,1.7408814,0.7936012,-0.39866809999999997,0.34285247
8.514777,-0.9154374,2.389758,0.87186176,-0.3768515,0.33700562
7.721559,1.217327,2.0353586999999997,0.9362644,-0.3348065,0.31569517
8.833762,2.5216022000000002,0.47572790000000004,1.0012256,-0.30126128,0.24705136
11.193294999999999,1.4248853000000001,0.14996321,0.98471475,-0.2868972,0.111823246
11.840496,-0.0034668040000000004,0.8371374,0.9181828000000002,-0.33372440000000003,-0.03508112
10.834605,-1.3890296,0.97339624,0.8457865999999999,-0.3731165,-0.122365035
9.663161,-2.3097055,0.30166940000000003,0.7638083999999999,-0.25813420000000004,-0.18465583
8.803777,-1.7617015999999999,0.23371239,0.73823935,-0.10855948,-0.19264944
8.131102,-1.3770778000000001,-0.27191427,0.8202174999999999,-0.17083283,-0.16336282
7.325089,-1.0147489,-0.2617916,0.8745146999999999,-0.15062192,-0.06541494
7.4779160000000005,-1.2620125,-0.31203154,0.80105376,0.03195698,0.11608185
7.815756299999999,-1.3008081,-0.5128476,0.46622979999999997,0.15386823,0.26567402
8.059092999999999,-1.1918528,-0.7199076999999999,0.13672909,-0.0739496,0.30026644
7.5671525,-1.0176314,-1.3129611,-0.18744837,0.11232939,0.3891735
7.274571400000001,-0.9886425,-1.7341968999999997,-0.23429299999999997,0.5270196,0.37213909999999994
7.5532565,-0.97466993,-2.5245802000000004,-0.22205824,0.33644712,0.34765214
8.00259,-0.7686345,-2.923033,-0.26357964,0.058032195999999994,0.50626767
7.630809299999999,-0.9524709000000001,-2.5788425999999998,-0.10759955,0.29866076,0.516408
7.389023299999999,-0.997501,-2.6888417999999996,0.0009773844000000001,0.23797564,0.5259724
8.669797,-1.2131611,-3.0833583,0.012164945,0.2523397,0.5371600000000001
11.718306,-1.11656,-3.067643,-0.046373397000000004,0.26459190000000005,0.45944047
13.236056,-0.12670116,-3.8620292999999997,-0.14751522,0.21774727,0.27260298
11.818239,1.537633,-5.028503400000001,-0.35299283,-0.011135201,0.016004669
11.280999999999999,0.17376158,-5.4561944,-0.6143733,-0.16711527,-0.17242108
13.881639000000002,0.11513237,-1.8994351999999999,-0.7639481,-0.005270894,-0.22244221
13.777595999999999,0.18998470000000003,-1.6615664,-0.77352995,0.13416345,-0.24427629
13.510729999999999,-1.3908014,0.1570309,-0.753319,0.1762259,-0.23150048
11.848588000000001,0.59029526,2.6930842,-0.73839647,0.15812683,-0.20648989999999998
7.673655999999999,-0.99140066,2.401432,-0.73626715,0.14960963,-0.22884756
7.6326575,-2.3275182,2.3620236,-0.8017519000000001,0.15173893,-0.24427629
9.150822,-2.4386572999999996,1.5144188,-0.91514593,0.1219287,-0.23523548
11.767176,-1.2529336000000002,0.8746402,-1.0428866,0.06070255,-0.18359119
12.367861999999999,-0.062153477,-0.38583037,-1.1227353999999998,0.061767202,-0.0776497
11.025404,0.6719375,-1.374674,-1.081755,0.042603485,0.0069638634999999996
10.614263000000001,0.7150236,-1.483342,-0.98593646,0.10967649,0.06445501
9.674385000000001,0.4065546,-1.2169056,-0.8704130999999999,0.03249803,0.07616617
8.644275,-0.29196809999999995,-1.0719511999999998,-0.8145102,-0.12398819,0.07297221599999999
8.097161,-0.60364527,-0.988834,-0.8629606,-0.16763887,0.08468337
7.897073299999999,-0.18845241,-1.0495894,-0.8885122,-0.09737192,-0.016441
7.8669925,0.17868407,-1.1884243,-0.72774994,-0.054785885,-0.20008455
7.357276400000001,0.79348636,-1.0375129,-0.48394490000000007,-0.06010914,-0.13247049
6.814731599999999,1.2041013999999999,-1.1311933,-0.26782078,-0.06063274,-0.047315877
6.589034599999999,0.7809216,-1.3051752,-0.11397,0.42057198,-0.0031241393
6.8289337,0.14331691,-1.2993523999999999,0.0765676,0.35508722,-0.17772688
7.7393622,-0.23431574,-1.2928593000000002,0.2128429,-0.21767746,-0.48434633
7.9462023,-0.5609423000000001,-1.2358487,0.23148301,-0.13569935,-0.57910025
8.039059,-1.0022415999999998,-1.8325794999999998,0.42470843,-0.014870205,-0.59135246
9.235509,-1.0930104999999999,-2.546559,0.5705656,0.21987657,-0.65203756
12.139694,0.043469127,-2.454373,0.66374874,0.3055897,-0.5423611
13.679635999999999,0.90747905,-2.2086034,0.7238753000000001,0.21507692,-0.24692918
12.02165,-1.454899,-2.994428,0.862821,0.017592918,0.05274385
11.387216,-1.4980904,-3.201335,1.0619106000000003,-0.11386528,0.30986574
13.196551999999999,-1.4069958,-1.6622272,1.1673111,-0.13409364,0.42963025
15.279554999999998,-2.517618,-0.694874,1.2588711000000001,-0.1341111,0.4285656
13.450099,-1.2161874,1.517876,1.353625,-0.14847516,0.33115876
10.649084,-1.7558022,1.7395694,1.4281504999999999,-0.14315191,0.22043508
9.107917,-2.1767125,2.5307383999999997,1.4435966999999998,-0.09204867,0.1272694
8.757280999999999,-0.78076833,2.414332,1.4228273999999999,-0.032428216,0.10067059
9.927059,0.67504996,2.0021846,1.4339973999999998,-0.040421825,0.04209734
11.503421000000001,1.0267007,1.3781503000000002,1.4121808,-0.04733333,-0.057962384000000006
10.811649000000001,0.59017074,1.0466205,1.2514185,-0.09044296,-0.1356819
9.416864,-0.6653008,0.46000275,1.0475466,-0.054785885,-0.16708037
8.764818,-1.8216236000000001,0.03364332,0.83514005,-0.0015533429999999998,-0.19476129
8.226755,-2.0331464,-0.031862035,0.6312506999999999,-0.087790065,-0.18626153
7.6521177,-1.879343,-0.4397478,0.5476843000000001,-0.25441664,-0.15271631
7.404758500000001,-1.5447581,-0.9321106,0.45773005,-0.06595599,-0.03452261
7.491840400000001,-1.1528656000000002,-1.3416723999999998,0.31452578,-0.014852752,0.07670722
7.9358783,-1.0266433000000001,-1.35123,0.06752679,-0.09737192,0.23214625
8.231773,-0.9393028,-1.3537774,-0.1826487,-0.21608922,0.31464794
7.8412976,-0.50487006,-1.8490037,-0.34286994,0.43015385,0.11503465
7.166813,-0.375746,-2.4394810000000002,-0.27740264,0.93958056,-0.108524576
7.1998143,-0.29270554,-2.6935728,-0.30134854,0.19593066,-0.022287855
7.196721000000001,0.11111011,-2.2422178,-0.21245892,0.07456046,0.23321089
7.20535,0.4016417,-1.8624015999999999,-0.017086774,0.0042935097999999994,0.3758741
8.132691000000001,-0.030454246,-2.9171720000000003,-0.031991884,0.13631022,0.47647488
11.039999,-0.9740665999999999,-2.688631,-0.19703022,0.20443042,0.45146433
13.217392000000002,-0.13271539,-3.0993228,-0.31573007,0.37531559999999997,0.35351643
11.694018,1.2625201000000001,-3.8248043,-0.43549454,0.28588492,0.14432128
11.20924,0.87016785,-5.217348599999999,-0.6457718000000001,-0.0803375,-0.067544244
12.304598,-1.3058167999999999,-3.5183177000000003,-0.84538513,-0.29113838,-0.20647246
15.515804999999999,-1.1063128,0.36619794,-0.9241693000000001,-0.30337313,-0.29325023
14.098621,-0.22335987,-0.7118345,-0.86402524,-0.20703095,-0.30068532
12.147145,-0.2015439,2.5355077,-0.71389204,-0.07393215,-0.27673942
8.9008465,-0.32957622,2.8678036,-0.5472829,0.011746066000000001,-0.2570521
7.219639,-1.8750526,2.372788,-0.41578978,0.05326745,-0.24054128
8.255131,-2.1092823,1.2629031000000002,-0.38332665,0.06817256,-0.21818360000000003
10.478108,-1.0027492,1.4239658000000002,-0.44987607,0.04207989,-0.18146189
12.711258,-0.45243707,1.0535158000000002,-0.59041,-0.005270894,-0.11810643
11.857878,-0.85861814,0.101427965,-0.74370223,-0.06063274,-0.025481807000000002
10.894958,-0.7225509,-0.27068844,-0.80546945,-0.084596105,0.05009095
10.252239999999999,-0.5728367,-0.386405,-0.82780963,-0.05211553,0.11238175
8.987191000000001,-0.60224706,-0.5272511,-0.91512847,0.01972222,0.17039649
8.440758,-0.5655392,-0.55522496,-1.0902548,0.23958135,0.26621506
8.29837,-0.5287930000000001,-0.47286442,-1.2292005,0.27949703,0.2944196
8.251319,-0.39571366,-0.6553121000000001,-1.1115478,0.019198623,0.03783874
7.614385,-0.13095327,-0.81004465,-0.78524107,-0.10801843,-0.069673546
6.7791533,0.42564118,-1.0364691,-0.47753954,-0.09417797,-0.10478957
6.1540084,0.99452263,-1.2468427,-0.35564575,0.64254296,-0.038781215
6.0164566,0.8728780999999999,-1.4636712,-0.05914921,0.79052943,-0.09468411
6.794697,0.6534446999999999,-1.1791826,0.17825048,0.3061133,-0.33049554
7.787389999999999,0.71102047,-1.0352912,0.010035643,-0.014852752,-0.45505969999999996
8.305112,0.5232959,-2.0239048,-0.070842914,0.028239427,-0.48647562
9.016372,0.34407550000000003,-3.7379617999999994,-0.20659462,0.17250834,-0.41566762
11.177666,0.31998983,-3.6090195,-0.39983746,0.23371704,-0.32517229999999997
13.670997,-0.37837964,-2.5490967999999996,-0.44774675,0.25075147,-0.17613862
12.943055000000001,-4.045597600000001,-2.714948,-0.35990435,0.020786871999999998,0.06447246
11.990976,-4.435805,-3.5072467000000005,-0.11025245,-0.11067133,0.33915237
13.538359,-2.7975001,-2.3606540000000003,0.12662363,-0.10695378,0.5212077
15.183806,-1.5376041999999999,0.73845804,0.32463124,-0.08620181,0.6005154
14.177045000000001,0.40084684,2.61239,0.44760713,-0.10321877,0.52811915
11.117236,-1.4579826999999999,3.2714756,0.49073422,-0.123447135,0.4237834
7.8879657000000005,-1.5501115,2.9024813,0.49125782,-0.14580481,0.3401996
7.0900545,1.2518419,2.139152,0.51682687,-0.18519689,0.29443705
9.000886999999999,2.7763739,1.2203342,0.5663244000000001,-0.1931905,0.19010127
11.910511999999999,1.8935453999999998,1.0949067,0.5796413,-0.17242108,0.039461896
11.702589999999999,0.26914656,0.715828,0.5748416000000001,-0.17029178,-0.10800097
9.664463,-1.5885241,0.64357096,0.57751197,-0.12557644,-0.23254767
8.527371,-2.959894,0.42973047,0.61955696,-0.06382669,-0.27567476
8.071506,-2.6199653,0.29752263,0.69408256,-0.18519689,-0.25916395
7.8549447,-1.6428725,-0.15994224,0.7771253,-0.29644418,-0.15962781
7.7561216,-1.131586,-0.6443371999999999,0.76328486,-0.14528121,0.04103269
7.809359599999999,-1.0096349,-0.687337,0.59454644,-0.038816124,0.19594811
7.913976,-1.0312306,-0.62632316,0.30656707,-0.18891443,0.2369459
7.545211999999999,-1.1015434,-0.7521720000000001,0.05370378,-0.33691835,0.2475924
6.96276,-1.5014135,-0.9726492,-0.10758209,0.46369907,0.08363618
7.137919999999999,-1.8380189999999998,-1.1056998,-0.14271557,0.71548027,0.025080381000000002
7.601399000000001,-2.0571938000000003,-0.97029334,-0.14217453,0.40779617,0.10279989
7.4233375,-1.7908055,-0.72246474,0.079779,0.20818287,0.16774360000000002
7.068967,-1.1532679,-1.0033429,0.26237535,0.085748024,0.34128168
8.279657,-0.7513484,-2.1241932,0.1447227,0.1293987,0.51534337
11.346621,-0.87102014,-2.5126572,-0.010175269,0.10489429,0.47275734
13.670643,-0.39059007,-3.1771536,-0.10651744,0.28269097,0.2981546
12.48173,1.1724502,-3.9307237,-0.16826719,0.16079718,0.07351327
11.224649000000001,1.1828313999999998,-5.0294419999999995,-0.34552282,-0.16177456,-0.11704178
13.130453,-1.0563505,-2.9237225,-0.49192104,-0.36512288,-0.27406904
15.234966,-0.9383068000000001,-1.2767416,-0.54035395,-0.31028464,-0.31026718
14.966959,-1.4664295,1.2272103,-0.4865978,-0.15538666,-0.30761427
12.111672,0.22730552,3.3521218,-0.39503783,-0.06330309,-0.29270917
7.943894,0.35004187,3.6504107000000006,-0.33328807,-0.015393803999999999,-0.29057986
7.3858633000000005,-1.8334031000000002,2.7676876,-0.39236748,-0.036669366,-0.23200661
8.36559,-2.812622,1.7424042000000002,-0.54887116,-0.13515829999999998,-0.1473756
10.635992,-2.4553017999999995,1.7561374,-0.67875856,-0.21767746,-0.0824319
12.256675,-1.3870186000000002,1.2681893999999998,-0.7500901,-0.28047442,-0.0036477381
11.435071,-0.54896176,0.41284657,-0.7266678000000001,-0.31667253,0.030927233
10.562375,0.21071848,-0.080818675,-0.6612005,-0.31614894,0.02453933
9.328433,-0.38323507,-0.27510336,-0.6734353,-0.27888617,6.981316999999999e-05
8.257928,-0.8036186,-0.2651722,-0.7234739,-0.06063274,-0.019617502
7.680014599999999,-0.6706925,-0.25672546,-0.7426376,0.03143338,-0.00577704
7.5274754,-0.08215942,-0.35937923,-0.73412037,0.17037904,-0.0819083
7.5235009999999996,0.48455772,-0.6727706999999999,-0.59039253,0.15282103,-0.23787092
7.442165400000001,1.1380503,-1.0504799999999999,-0.40409607,0.01706932,-0.21977186
6.8005667,1.5461276000000002,-1.3576752,-0.20020671,0.07082546,-0.09468411
6.7384424,1.2309836,-1.5142463,0.018570304,0.77084213,-0.0052359877
7.3280478,0.10957782,-1.4625700000000001,0.24640559,0.7245385,-0.08189085
7.745999,-0.8100542,-1.7871375,0.21553071,0.19699532,-0.35765287
8.230547,-1.0958549,-2.538055,-0.012304571,0.025586527,-0.54874897
8.857876,-0.8479305,-2.7896662,0.07180285,-0.020699605,-0.48380527
10.047871,-0.26123613,-3.1588713999999998,0.016441,0.12407546,-0.35126495
12.650914,0.38629964,-2.8266711,-0.07990117,0.19114846,-0.19741419
13.308429,-0.6177806,-2.6234992000000004,-0.06925467,0.10330604,-0.047298424000000006
11.744679,-3.4536934,-3.1895458999999997,0.10693632,-0.09628981,0.12250466
11.36428,-2.802279,-2.7662702,0.3336895,-0.20170770000000002,0.31998867
14.296497,-1.5516438,-0.90230757,0.49713957,-0.16816248,0.45361108
14.463459,-1.2161492,0.116798736,0.6445850000000001,-0.17348573,0.48448595
13.206541,-0.28232425,2.8266423,0.7196342,-0.182544,0.44614106
9.90147,-1.4736983000000001,2.5164400000000002,0.72549844,-0.19317304,0.39344957
7.358904400000001,-0.29518592,2.6333826,0.7137873,-0.18784979,0.33808774
7.826636,2.2546196,1.2694633,0.75103265,-0.19212584,0.2454631
10.121861,2.34174,0.89135176,0.82557565,-0.19106120000000001,0.11876965
12.873728,1.1206013000000001,0.87940943,0.89477795,-0.15591027,-0.018011797
11.016612,-0.2246623,0.6414354,0.912877,0.00057595863,-0.10531317
9.267131,-1.880473,0.2898708,0.90968305,0.0037699111,-0.16653931
8.478635,-2.326647,0.18013974,0.9166120000000001,-0.1420698,-0.15056956
8.494809,-1.6821563999999998,0.170199,0.86762065,-0.32838368,-0.10957177
7.9613814,-1.1191744,-0.3360406,0.86016804,-0.22830652,0.021345377000000002
7.476785700000001,-0.9686078000000001,-0.41030872,0.7728666999999999,-0.056374136,0.1629614
7.573597,-1.2318646,-0.46671608,0.45828855,-0.03080506,0.23216370000000003
7.697636,-1.5393568000000002,-0.44427764,0.1378112,-0.22191861,0.25984463
7.228382000000001,-1.965745,-0.5925935999999999,-0.13418092,0.047420595,0.16774360000000002
6.904092299999999,-1.9323313999999998,-0.9767481,-0.23958135,0.8565552,-0.037716564
7.081972,-1.5248096000000002,-1.1703146,-0.34232888,0.44080037,0.07086037
7.0779595,-0.973741,-1.4230465,-0.20605357,0.17676695,0.21671753
7.181006,-0.39649895,-1.612878,0.022305308,0.18317229999999998,0.32318259999999993
7.925028,-0.37185782,-2.7931907000000002,-0.037297685,0.26300368,0.60159755
10.851958999999999,-0.9554301,-2.9560058,-0.096935585,0.24277529,0.6771703
13.908961999999999,-0.9469259,-3.4519693999999994,-0.13046336,0.27632052,0.45680502
12.8832,0.8010616,-4.047197,-0.14643313,0.20551252,0.13208652
11.360392,1.844311,-5.111544,-0.24651030000000002,-0.119729586,-0.13459979
12.0658,0.5063354,-4.7043386,-0.3811799,-0.33744195,-0.28098056
13.79744,-0.42363003,-1.3020242,-0.47753954,-0.30124384,-0.37362263
13.676791,-0.9384600000000001,-0.6733932,-0.4865978,-0.18839084,-0.39702750000000003
12.763585,-0.61825955,2.7215752999999996,-0.41366049999999993,-0.12025318,-0.3533768
9.334658000000001,1.0323030999999998,3.3807468000000003,-0.3284884,-0.08086111,-0.33475414
7.3827224000000005,-0.65356916,2.8000380000000002,-0.28909633,-0.047856927,-0.35391787
8.464872,-2.652354,2.9236555,-0.35404003,-0.03986332,-0.3187844
10.984243,-3.1470249,2.2394214,-0.49830896,-0.020699605,-0.23361231
12.891388000000001,-2.7551900000000002,1.8332210999999998,-0.64414865,-0.033475414,-0.13671164
11.944519999999999,-1.3070713,0.7906995,-0.7234739,-0.03614577,-0.013770646999999999
10.319699,0.040232167,-0.14211023,-0.7378554,0.01654572,0.06979571
10.0282,0.05716396,-0.6210751,-0.7005752,-0.04944518,0.10653489999999999
9.066085000000001,-0.24917895,-0.567014,-0.70961595,-0.1425934,0.09536479
8.06121,-0.46451342,-0.3934535,-0.7782946999999999,-0.22884756,0.046373397000000004
7.6396679999999995,-0.5738519,-0.45859498,-0.81768674,-0.16762142,-0.053145275
7.724413,-0.25975174,-0.5705479,-0.692599,-0.1287704,-0.26768115
7.542741,0.20582473,-1.0167696,-0.39556143,-0.10374237,-0.31826079999999995
7.0445647,0.9910271,-1.2479056999999998,-0.17411405,-0.16388641,-0.25862288
6.610678,1.436588,-1.4234774,0.02815216,0.64414865,-0.10107201
6.60363,1.0998676,-1.4488273,0.31880185,1.0109296,-0.063268185
7.105406299999999,0.44121307,-1.2174132,0.47424087,0.071907565,-0.26607543
7.3519516000000005,-0.12875059,-1.1944768,0.31454325,-0.10480702,-0.5152037
7.995561,-0.5519688,-1.8780214,0.23523548,-0.087231554,-0.5370204000000001
9.118356,-0.80918276,-2.7786817999999998,0.29859093,0.11929326,-0.47155306
11.894575999999999,-0.28302340000000004,-2.901868,0.2086192,0.17411405,-0.38957494
13.875547000000001,0.28034186,-2.5907369,0.1308997,0.16666149,-0.18835594
12.418781,-1.5873749,-2.79841,0.10800097,0.015481071,-0.020141099
11.513649000000001,-2.79773,-3.5626964999999995,0.25385815,-0.11599458,0.16667895
12.83206,-2.1203911,-2.4990485000000002,0.44177774,-0.17933258,0.31785935
15.4477825,-1.7833164000000001,-0.17837761,0.61318654,-0.15325736,0.39611992
13.866403,-0.39617333,1.8044331999999998,0.7281688000000001,-0.11810643,0.35459855
11.307030000000001,-1.0382886999999998,0.75023746,0.7420093000000001,-0.09096656,0.27209684
8.409863,-2.1317205,2.3352947,0.7223045,-0.09309586,0.22471114
7.835532700000001,0.17147273,1.7641723000000002,0.7324274000000001,-0.07819075,0.17360789999999998
8.379591,2.2148569,0.99015564,0.81705844,-0.08564331,0.104929194
11.133086,2.1745097999999996,0.6445191,0.9171355999999999,-0.1463284,0.018168878
12.015167,0.9221889999999999,0.30351773,0.94589865,-0.18572049,-0.05899213
10.108042,-0.49573383,0.36800796,0.9182176999999999,-0.20169024,-0.11222467
9.178948,-2.1017740000000003,0.14601758,0.85592693,-0.19795524,-0.16226326
8.566224,-2.3056834,0.061502255,0.8277224,-0.17188002,-0.1649336
8.410294,-1.5507245,-0.31673375,0.7973710999999999,-0.2778215,-0.118088976
7.7154875,-0.9769588,-0.67676425,0.80321795,-0.16816248,-0.00842994
7.6484785,-0.78845847,-0.648436,0.6765245,-0.057438787000000005,0.11451105
7.806256299999999,-0.94196516,-0.4585088,0.38748056,-0.05318018,0.17945476
7.5197085999999995,-1.1555375,-0.18285954,0.06914994,-0.21553071,0.25185102
7.0023217,-1.4885136,-0.39617333,-0.108629294,0.36416295,0.13048081
6.830332,-1.5294065000000001,-0.8819568999999999,-0.082030475,0.7160213000000001,-0.05581563
7.398744000000001,-1.0586298,-1.5124364,-0.16292648,0.16772614,0.047438048
7.734210000000001,-0.5846449,-1.8450197,-0.020804325,-0.014835299,0.18851301
7.6308,-0.18333839,-1.6447208,0.16336282,0.043685592999999995,0.36789796
8.233603,-0.37448190000000003,-2.4359088,0.10428342,0.21350613,0.58988637
11.043792,-0.9111278,-2.3074262,0.016458455,0.26780329999999997,0.5973389
13.298717499999999,-1.0337684,-2.9715395,-0.05487315,0.33539993,0.44828779999999996
12.035882,0.62442696,-3.7154849999999997,-0.11288789999999999,0.18688986,0.19118336
11.176727,1.5969708,-5.0597334,-0.33007666,-0.12503539,-0.037175514
12.962409,0.30639079999999996,-3.1913560000000003,-0.59890974,-0.33531266,-0.19954349
14.452503,0.54945016,-0.8895799999999999,-0.72665036,-0.34222415,-0.30014428
14.253057,-0.69337994,0.44905645,-0.72560316,-0.24375269,-0.3123965
11.972158,0.36647567,2.1864138,-0.6755646,-0.11971214,-0.28949776
8.060377,-0.42194453,2.5558102000000003,-0.6132738,-0.022828907000000002,-0.29907963
7.6658125,-2.20166,2.6023633,-0.59198076,0.017610373000000002,-0.30066788
8.981282,-2.6209326,1.6651291000000001,-0.6558773,0.020804325,-0.26235790000000003
11.311961,-1.7699854,1.8233186999999997,-0.7788357,-0.02708751,-0.19900244
12.689231,-0.43316856,1.362588,-0.86559606,-0.09416051,-0.10850712
11.237434,-0.12909535,0.39234263,-0.8640078000000001,-0.16601571,0.009110618000000001
10.116192,0.052097827,-0.27716234,-0.752202,-0.18997909,0.07513642
9.62493,-0.21603361,-0.3211103,-0.66970026,-0.20755455,0.091088735
8.785552000000001,-0.37902126,-0.44173023,-0.64947194,-0.1362055,0.06234316
7.9799604,-0.41137174,-0.6180966999999999,-0.7112217,-0.16283922,0.050631999999999996
7.978553,-0.052701168,-0.74923193,-0.7144331,-0.022828907000000002,-0.027593656
8.028036,0.43782288,-0.94523084,-0.60477406,0.021327923999999998,-0.20486675
7.728042599999999,0.52495265,-1.2293651,-0.39662609,-0.099483766,-0.21390755
7.07477,0.8320138000000001,-1.4037205,-0.24279276,-0.21659537,-0.16495107
6.6670565999999996,0.8518378000000001,-1.6121883,-0.18050195,0.6590538,0.05914921
6.8095026,0.34013945,-1.6228666,-5.2359880000000005e-05,1.3622644,0.06873106
7.425463000000001,-0.36509663,-1.5669188,0.17987363,0.55525905,-0.08402015
7.6522613,-0.8266700000000001,-2.1130266,0.03508112,0.20711823,-0.35072392
8.144711000000001,-0.9435836,-2.442919,0.0095294975,0.06499606,-0.5386261
8.98653,-0.8203492,-3.2653465,0.23897047,0.18688986,-0.5466022
12.070894000000001,0.48433742,-2.9285588,0.26450464,0.20392427,-0.45347145
13.514235000000001,0.397064,-2.2573204,0.22724187,0.17037904,-0.19154988
12.011125999999999,-2.5244462000000003,-2.8448767999999998,0.22937118,0.024521876,0.03413864
11.0120735,-3.1292887,-4.3896346,0.4172733,-0.17294468,0.17093755
11.220186,-0.89479935,-3.0371501,0.62383306,-0.2799508,0.28379053
14.677251,0.3809941,-0.104731955,0.81386447,-0.28047442,0.35192817
13.688226,0.19325997,0.8516463,0.9650449000000001,-0.24534093,0.28433159999999996
11.880181,-1.0969178999999998,1.8132438999999998,1.0023077,-0.19104373,0.2454631
9.193610000000001,-3.0355318,3.076578,0.9661095999999999,-0.17933258,0.23748694
8.231419,-0.91508305,2.6059546,0.9426872,-0.21820106,0.23162265
8.183917,1.9303298999999998,1.5213811000000002,0.9597216000000001,-0.25120524,0.18371336
9.917761,2.415127,0.6853738,0.99911374,-0.20488420000000002,0.07672467
11.953253,1.6045173000000001,0.62080693,0.9943141,-0.1420698,-0.041975167
10.825833,0.052988473,0.49771622,0.9698271,-0.044121925,-0.16069247
9.755796,-1.7994629,0.18516755,0.95492196,-0.03986332,-0.24691173
9.184550999999999,-2.391999,0.18443015,0.95811594,-0.1415462,-0.28684485
8.609252,-1.6622655,-0.18962078,0.9565277,-0.29537952,-0.24052383
7.920287599999999,-0.9782708000000001,-0.57346874,1.0491523999999999,-0.21659537,-0.102119215
7.6763372,-0.48919287,-0.6233448,0.96024525,-0.030822514,0.14219198
7.9098196,-0.28343517,-0.5757671999999999,0.6429793,-0.032951817,0.2912431
7.7623562999999995,-0.6077537,-0.7072376,0.2676986,-0.26876324,0.33808774
7.3496823000000004,-1.0536306999999998,-0.9517526,-0.09639453,0.10278243599999999,0.24972170000000002
7.154497,-1.0369,-1.2236956,-0.20498893,0.554718,0.0043284167
7.549626400000001,-0.7517505999999999,-1.4233146,-0.41207224,0.34178782,0.080965824
7.5406723,-0.6087689000000001,-1.242811,-0.25078636,0.10756464,0.25343925
7.238093400000001,-0.2045223,-1.3306973,-0.043703045999999995,0.29016098,0.47010443
8.040151,-0.42657970000000006,-2.3076944,0.0840376,0.26513296,0.62660813
10.425044,-1.0884615,-2.6319556,0.1441991,0.20764183,0.5510179000000001
12.704524000000001,-1.1353017,-3.6718147000000005,0.15803957,0.34924040000000006,0.33754668
12.700512,0.723748,-4.2215137,0.15165167,0.19432496,0.028274333
11.515315,2.003516,-5.2925553,0.059550636,-0.014329153,-0.15910421
12.847928,1.3144071000000002,-3.8998482000000005,-0.10173524,-0.17774433,-0.23415338
14.894548,2.0692608,-1.7619505000000002,-0.23375195,-0.203837,-0.30229104
13.724530999999999,0.33881783,-0.15940595,-0.32424727,-0.1388933,-0.32464868
12.078575,0.28885564,2.129403,-0.33541736,-0.046792275999999994,-0.29057986
8.195544,-1.0008146999999998,3.2182572,-0.33807027,0.035691983999999996,-0.26768115
8.417686999999999,-2.4134414,3.7062527999999997,-0.3700098,0.07936012,-0.26874580000000003
9.027223,-3.0882041,2.2911744,-0.44083527,0.07773697,-0.25066417
11.386775,-2.4425838,1.9372252,-0.50843185,0.05857325,-0.17667969
12.784788,-1.160144,0.9757617000000001,-0.5616644000000001,0.017592918,-0.09468411
11.099835,0.058763288,0.21859062,-0.5584704,0.011746066000000001,-0.0073827426000000005
9.592887,0.88340294,-0.35060690000000005,-0.44189993,-0.016999507,0.057002455
9.406406,0.59715223,-0.47630249999999996,-0.30508354,-0.059044488,0.121946156
8.532159,0.3418441,-0.78420645,-0.23109904,-0.09152506,0.16772614
7.8690133,0.37367743,-0.7936300000000001,-0.25396284,-0.14315191,0.20340067
7.842092999999999,0.39144242,-0.9246406999999999,-0.34821063,-0.18467329999999998,0.18954276
7.7542157000000005,0.4910029,-1.0387197,-0.39292598,-0.10323623,-0.0031241393
7.6675070000000005,0.7650815,-1.1671924999999999,-0.22045253,-0.08939576,-0.067544244
7.3055615000000005,0.8576222,-1.1213962,-0.057019908,-0.1974491,-0.07019714
7.157313,0.80165535,-1.300789,0.030264008999999998,0.52436674,-0.035063665
6.878139,0.5703659000000001,-1.3439037,0.1968906,1.1732801000000002,-0.036651913
7.149364,0.034601003,-1.1775737,0.40448004,0.2805617,-0.26398104
7.532464999999999,-0.41950244,-1.265623,0.40343285,-0.011135201,-0.5258676999999999
8.170884,-0.33236307,-1.7523162,0.43587852,-0.050527282,-0.5652772
8.729326,-0.26920405,-2.2626834,0.4869992,0.09902998,-0.36512288
10.729481,0.30961818,-2.8234917999999998,0.41566762,0.10915289,-0.23097688
13.3160715,1.2489784,-2.5460708,0.33634240000000004,0.09637708,-0.122365035
12.41993,-0.7234129,-2.0810592,0.4300317,-0.015393803999999999,-0.0766025
11.800274,-2.1834831,-3.2836285000000003,0.67277205,-0.18308504,0.003228859
12.958635000000001,-1.2781973,-2.6550740000000004,0.98206186,-0.30284953,0.15175638
15.3263,-1.3338768,-0.18613482,1.2412956,-0.28422686,0.27790877
14.968531,-0.59726715,1.4826428999999999,1.3818295,-0.23471187,0.30239573
13.010924000000001,-1.1290288999999998,2.1645212000000003,1.3578836,-0.18839084,0.28696704
8.173882,-1.4528111000000001,2.6307392000000003,1.2556771,-0.15221016,0.27471483
6.260512,0.17327316,1.6182983,1.1603822,-0.16231562,0.20498893
6.975535400000001,2.2299595,0.6457258000000001,1.1369598,-0.17828538,0.08840092
9.7515545,1.7730501,0.36430174,1.1279016000000002,-0.18202038,-0.017505653
12.850782,0.22866543,0.97082967,1.1044966999999999,-0.15859807,-0.07180285
11.203255,-0.95773816,0.95373505,1.0954385,-0.06757915,-0.11119492
9.807253999999999,-1.9171522,0.8966668999999999,1.1092788999999998,-0.06010914,-0.15378097
8.880334,-2.3796735,0.5550526,1.1412183999999999,-0.16872098,-0.14793411
8.688317999999999,-1.202349,-0.09292376,1.0134603000000002,-0.253352,-0.06169739
8.348562,-0.37041175,-0.7505151999999999,0.9298765,-0.28476793,0.0074874623999999996
8.324399,-0.18000565,-0.89571875,0.8117003,-0.09738937,0.13524556
8.335652,-0.07983226,-0.8955464,0.46090654,-0.08833111,0.28375563
8.162676,-0.3764451,-0.8068651,0.13247049,-0.28848547,0.34178782
7.3115854,-0.8908537000000001,-0.8613379999999999,-0.13795082,-0.09258971,0.25076889999999996
7.082814999999999,-1.2317498,-1.0908461999999999,-0.19703022,0.5946336999999999,0.0016406095
7.386083599999999,-0.8989653000000001,-0.947127,-0.3024481,0.44875905,0.028780478999999998
7.2450456999999995,-0.37746027,-0.7195246999999999,-0.2539803,0.050597094,0.14802137
6.914608,0.11076535,-1.4105774,0.016406095,0.10061823,0.29494318
7.561425,-0.37106296,-2.6822912999999997,0.12714724,0.2778913,0.5760109999999999
9.620477000000001,-0.83869845,-3.0849674,0.25382322,0.28321457,0.65479517
12.458966,-0.5583853,-3.4052540000000002,0.3262195,0.402438,0.4988151
13.257413,0.84318036,-4.0197496,0.30014428,0.3071605,0.1836959
12.015081,1.910956,-4.8259444,0.13831735,-0.05906194,-0.13409364
11.777211999999999,0.83538485,-4.6276665,-0.063425265,-0.37632790000000005,-0.30763173
13.765539000000002,0.40416040000000003,-1.727723,-0.20076522,-0.42530182,-0.38962729999999995
14.020933,0.26188737,-0.99168795,-0.24706881,-0.3481059,-0.38001055
12.696835,-0.71046495,1.8149294999999999,-0.24921556,-0.19373155,-0.29485592
9.496265,0.05668512,3.012126,-0.20874138,-0.10110693,-0.25439918
8.429811500000001,-0.79967296,2.853247,-0.20128882,0.016510814,-0.28049186
8.409719,-2.3725965,3.2711403,-0.25132743,0.07667231599999999,-0.2778215
10.184369,-3.1479921,2.5721004,-0.3402345,0.053791045999999995,-0.2565285
12.479882,-2.5914361,1.9345436999999999,-0.4286005,-0.015411257,-0.1931905
11.972665,-0.8271775,0.845067,-0.44617596,-0.06332055,-0.08937831
10.174371,0.82893014,-0.2626535,-0.40252528,-0.12239994,-0.038816124
9.883417999999999,0.81692076,-0.41129515,-0.26145032,-0.19586085,-0.021781709
8.934117,0.2959425,-0.73654264,-0.103340946,-0.20757201,0.003228859
7.909858,-0.037445318,-0.73215646,-0.1060113,-0.14475761,0.07881907
7.5873303,-0.21373516,-0.81791675,-0.2529331,-0.16233307,0.16077973
7.818974000000001,0.20099802,-0.8571242,-0.39507273,-0.06332055,0.009616764
8.1557045,0.59826314,-0.9418790000000001,-0.35566318,-0.061714843,-0.17509143
7.977422,0.9778494000000001,-1.0339791999999999,-0.19596557,-0.13144074,-0.16177456
7.2447490000000005,0.9002581000000001,-1.2215791999999999,-0.03361504,-0.0063529983,-0.18786724
6.836978,0.38384798,-1.2894788000000001,0.10316641,0.84906775,-0.10749483
7.0921520000000005,-0.10452127,-1.571372,0.4156327,0.6925641,-0.17882644
7.440853,-0.37959588,-1.6257491000000002,0.49443433,0.009581857,-0.28475046
7.7642336,-0.44258255,-2.0376284,0.42629668,0.12669346,-0.45190066
8.099219999999999,-0.47898397,-2.3940675,0.49815187,0.0074700094,-0.50726247
9.545874000000001,0.110411,-3.0018022,0.576936,0.13629276,-0.43486625
12.970445,1.9750439999999998,-2.5664787000000002,0.52424455,0.18472564,-0.39812705
13.294973,1.66533,-2.2172797,0.45343652,0.19804251,-0.23045327
11.757100999999999,-1.7234327,-3.4219174,0.46355945,0.0606851,-0.05424483
11.895697,-2.0454144,-3.8116074,0.60196406,-0.0755553,0.15653858
13.255057,-1.4361476,-1.934132,0.7712435000000001,-0.15913913,0.3103719
14.673326000000001,-1.2564483999999998,-0.3275651,0.8995426999999999,-0.16179202,0.35404003
13.1301565,-0.10762415,0.9508523999999999,0.9745744000000001,-0.15755087,0.28269097
11.387733,-1.4867035,1.5040758,0.9804386999999999,-0.15221016,0.22200587
8.736768,-2.4209785,2.831038,0.92561793,-0.15700983,0.16345008
7.404872999999999,-0.11604217,2.2120794999999998,0.87983793,-0.15221016,0.12725195
8.6609,2.100347,1.3170600000000001,0.9144304,-0.15700983,0.067631505
11.264087,1.9013218,0.9462746999999999,0.9655335999999999,-0.18682005,-0.014852752
11.701842,1.0952133,0.76459306,0.9703332,-0.19905479999999998,-0.09843657
10.117733,-0.45126869999999997,0.7074675,0.97246253,-0.12346459,-0.17987363
9.415054,-1.9638200000000001,0.3498695,0.9516931000000001,0.00853466,-0.26185176
8.861342,-1.9715581000000002,0.22629037,0.95116955,0.020769417,-0.28527406
8.468473,-1.4483867,-0.18771500000000002,0.9314648000000001,-0.12507029,-0.2522699
8.077786999999999,-0.7579851,-0.6605028000000001,0.8947430000000001,-0.14475761,-0.118664935
8.032547000000001,-0.3002712,-0.97818464,0.74515086,-0.0047647487,0.08998918
8.203387,-0.50960106,-0.9636565999999999,0.36507052,0.011711158999999999,0.22678809
8.009017,-0.92605805,-0.8678790000000001,-0.0453262,-0.22301817,0.3066369
7.353427000000001,-1.2826122,-1.1133517,-0.36206856,0.17194983,0.24010494
7.0042176,-1.3213121,-1.4819726,-0.45149922,0.6590189000000001,0.041538835
7.4674573,-0.9525571,-1.6550349999999998,-0.63941884,0.26883307,0.13257521
7.803478999999999,-0.4406959,-1.2812139999999999,-0.48982665,-0.038309976,0.21135937
7.3830285,0.025052927000000003,-0.81065756,-0.18692476,-0.031922072,0.35241687
7.65048,-0.050852842999999995,-1.7749653000000003,0.030246556,0.08677777,0.5366015000000001
9.336362,-0.71845204,-2.526084,0.11487757400000001,0.19057249999999998,0.501468
12.21561,-0.5997188,-3.0130262,0.097843155,0.34175292,0.46526986
12.863519,1.8863341,-3.7117405,0.04087561,0.42640138,0.33272958
11.585313000000001,2.7493383999999996,-4.89213,-0.12304571,0.12988740000000001,0.11395255
12.242224,1.260959,-4.080764,-0.41476005,-0.19959585,-0.055850536
14.610970000000002,1.3096666000000001,-1.6021326999999999,-0.6772052,-0.45191809999999993,-0.20116664
14.060246,-0.6331227,-1.5977752,-0.79909897,-0.47905797,-0.30604348
12.967236,-1.5183834999999999,1.347495,-0.76183623,-0.2895676,-0.28422686
9.141292,-1.5213236,3.03602,-0.65484756,-0.13412856,-0.2725157
7.939125,-2.5572277999999997,3.1066875,-0.5659579,-0.019146262,-0.29061478
7.85098,-2.3439715,2.9464387999999997,-0.5638112,0.019704766999999998,-0.2778215
9.168825,-1.4545253999999999,2.0312216,-0.6623001000000001,0.007993608000000001,-0.20809561
11.980988,-0.6692464,1.5972677,-0.7692888000000001,-0.058538344000000006,-0.113882735
11.795351,-0.76638395,0.77517545,-0.8161334,-0.12081169,-0.026022859
10.287942,-0.44413400000000003,0.09375694,-0.7815234999999999,-0.15859807,0.02984513
10.228547,-0.5170135,-0.12779291,-0.664953,-0.09897762,0.068696156
9.6548,-0.6911390000000001,-0.5715150999999999,-0.5627465,-0.08196066,0.0575086
8.361338,-0.39899850000000003,-0.6044305999999999,-0.51909584,-0.14849262,-0.0058119465
8.353514,-0.26238534,-0.68731785,-0.5430592,-0.1335875,-0.031887166
8.466931,0.24037786,-0.8640290999999999,-0.55264103,0.038868482999999995,-0.086725414
8.444579,0.77624804,-1.2290204,-0.42168900000000004,0.021293016,-0.28955013
7.850147,0.80593616,-1.5054454,-0.2705086,-0.03509857,-0.33372440000000003
7.378642599999999,0.73974127,-1.6129066,-0.14594443,-0.030857421,-0.26026350000000004
7.221430000000001,0.6284109,-1.7577080000000003,-0.06661922,0.41894883,-0.12185889
7.438076,0.30829656,-1.7569801,0.20219639,0.6686181999999999,-0.22406536
7.677132,-0.09121908,-1.4698195,0.39592794,0.28797933,-0.3640757
7.6156683,-0.5555601,-1.6328934,0.31503192,-0.010088003,-0.50193924
7.48596,-0.85096633,-2.3921810000000003,0.30812043,0.09902998,-0.5381374
8.636538,-0.6290238,-3.2471982999999995,0.21975441,0.053773593,-0.28900906
11.67861,0.74376357,-2.7076027000000003,-0.025638886,0.07187266,-0.18200293
13.441545499999998,1.2561323999999998,-2.0444471999999996,-0.15072663,0.13095206,-0.0755553
11.985613,-1.1982596,-2.7622,-0.14273302,0.15439183,-0.018587757
11.117265,-2.2369792,-3.4047080000000003,0.057403877,-0.026581364,0.044750242999999995
12.317995,-2.3088915,-2.5805854999999998,0.38371062,-0.14582226,0.2603333
15.523669,-1.8848017,-0.70958394,0.7020411999999999,-0.16179202,0.4269599
14.581713,-0.9610517,2.0209458,0.9266825999999999,-0.13624041,0.45677012
12.711602000000001,-0.9989950000000001,1.554603,0.9990788,-0.11016518,0.4338714
9.343946,-0.93235004,3.2736495,0.96607465,-0.07663741,0.37690386
6.4496727,0.38768828,0.7876253000000001,0.8803615,-0.040439277999999995,0.29440212
6.660334,2.4048703,0.0095385,0.85322165,-0.0005061455,0.1762259
9.218998,1.8396279999999998,-0.2101343,0.8830319,-0.029251719,0.06443755
12.42268,0.13753252,0.38824373,0.9378527,-0.053197637,-0.040945426
11.21922,-1.2417,0.49348328,1.007596,-0.013281955,-0.09950122
9.371891999999999,-2.1091577999999997,0.5130008,1.0507057,0.03195698,-0.14899875
8.634105,-2.4855549999999997,0.1887876,1.0773218999999998,0.04951499,-0.18147933
8.472975,-1.7296957999999998,-0.26139897,1.0970267,-0.09897762,-0.22404791
8.123650999999999,-1.1794125,-0.8257793,1.144936,-0.28743827,-0.1915848
8.012216,-0.8925776,-1.2005868,1.0682812,-0.18947294,-0.03933972
8.234914,-0.5889928000000001,-1.2128835,0.72972214,-0.02125811,0.15227997
8.157064,-0.60915196,-0.88000315,0.2921681,-0.12133529,0.21563543
7.597731,-0.91688347,-0.6786508000000001,-0.12623966,-0.23099433,0.28269097
7.3493276,-1.5266771000000001,-0.7420014,-0.28913125,0.41575488,0.15493287
7.850347999999999,-1.6912353,-1.0188094,-0.25984463,0.33325318,0.07562511400000001
8.217025,-1.3637277,-1.3196839,-0.29073694,0.104353234,0.21881193
8.176419000000001,-1.1464108,-1.181912,-0.18053685,0.010122909,0.36041048
7.934786999999999,-0.9782708000000001,-1.2567165,-0.024574235,0.21294762,0.45677012
8.415227,-0.950364,-2.2840203999999997,-0.06981317,0.3258006,0.5818753000000001
10.35838,-1.1299675,-2.522148,-0.17041394,0.39819688,0.554718
12.53401,0.3003095,-2.9485264,-0.372174,0.4455651,0.41577232
11.7968645,2.1337509999999997,-4.0034976,-0.53400093,0.3130248,0.1794373
11.3797655,1.4842231000000001,-5.0138893,-0.65215975,-0.0010297442999999999,0.0522028
13.484096,-0.14006081,-2.2557786,-0.8113338000000001,-0.15273376,0.033580136000000003
13.018452,-0.21402247,-1.6089705,-0.88105965,-0.12027064,-0.0749968
12.76915,-2.0524917,0.07735187,-0.90875804,-0.06012659,-0.109606676
11.869466000000001,-0.87234175,1.4475917999999999,-0.91193455,-0.07023205,-0.14686945
8.850864999999999,-0.608472,3.3173196000000003,-0.92366314,-0.04309218,-0.20116664
7.575168,-1.2172697000000001,2.9511982999999997,-0.9534734,-0.04309218,-0.24481733
8.147095,-1.2077216,2.548982,-0.99445367,-0.10110693,-0.27462757
10.851461,-1.2244233999999998,1.6610205000000002,-0.9971065999999998,-0.12398819,-0.23682372
12.588502,-0.6958125,0.94911903,-0.9614495000000001,-0.13517575,-0.16442747
11.156797000000001,-0.21461624,0.3906954,-0.8853357,-0.08728392,-0.07927285
10.045428,-0.056761734,-0.47950113,-0.7831292,-0.05799729,-0.0036826448
10.384391,-0.17638563,-0.85206765,-0.67879343,-0.0755553,0.039426986000000004
8.97523,-0.21260512,-0.94042325,-0.65535367,-0.16870353,0.03996804
8.554444,-0.42246166,-0.8355572,-0.70539224,-0.28262118,0.0069638634999999996
8.514596000000001,-0.25537515,-0.86077297,-0.78206456,-0.20277235,-0.054768432
8.600307,0.08173805,-1.0710605,-0.8214392,0.041015237999999996,-0.22830652
8.430291,0.25887066,-1.1887691,-0.69795716,-0.037768926,-0.32731906
7.7833295,0.16601394,-1.4144274,-0.49141490000000004,-0.08461356,-0.22139502
7.505487400000001,-0.16332287,-1.6386011999999999,-0.27581438,0.121387646,-0.06328564
7.477101299999999,-0.33228648,-1.6604936999999997,-0.26143286,0.71174526,0.05539675
7.8209853,-0.48031515,-1.4055592,-0.052237704,0.29599038,-0.16229817
7.806132000000001,-0.6495852,-1.1323233999999998,0.0850848,0.06976081,-0.4018446
7.530808,-1.0665306,-1.6475556,0.17345083,-0.04893903,-0.64990824
7.8703732,-1.2501563999999998,-2.8586384999999996,0.37466982,-0.11814134,-0.7542439999999999
9.954344,-0.24861391,-3.6909012999999997,0.4465425,0.06337290000000001,-0.62648594
13.143928,0.98593223,-2.857949,0.32730159999999997,0.17303194,-0.41196752
12.360315,-1.1695004999999998,-2.375326,0.2059314,0.22891739,-0.09789552
10.979617,-2.8312776,-3.029872,0.30068532,0.026110126,0.060720004
10.876332000000001,-1.5188049,-3.5818404999999998,0.53063244,-0.12931144,0.17198475
13.919486,-1.2004048999999999,-2.570616,0.7547501999999999,-0.17509143,0.25129250000000003
14.754660999999999,-1.3514024,0.30971393,1.0246304,-0.14156365,0.29548424
13.546623,-1.5123502,1.9140015,1.2061621,-0.13304645,0.2752559
11.569223,-2.0386243000000004,3.0991697,1.2934635,-0.12346459,0.25609216
8.846297999999999,-2.017766,2.7248123,1.3131683,-0.051068332,0.29496065
6.590366,0.5851046,1.9570109,1.3317908999999999,-0.05852089,0.27045622
7.5338345,2.6992612,0.48119622,1.3307263,-0.09843657,0.18688986
10.744267,2.4469507,0.5125028,1.2476835,-0.06810275,0.018675024
11.595989999999999,1.1751126,0.44893196,1.1108847,0.03143338,-0.07340855
9.793635,-0.802862,0.30365184,0.9666157,0.06389651,-0.15219271
8.827651,-2.4511836,0.27837864,0.8457865999999999,0.047926743,-0.20381954
8.351081,-2.1498976,0.391519,0.7478387,-0.068626344,-0.2091428
7.7815485,-1.5897499,-0.24127808,0.68289495,-0.31136674,-0.15323989999999998
7.730589999999999,-1.4425161,-0.89641786,0.69673544,-0.17083283,-0.012182398
8.433796000000001,-1.7088662000000001,-1.0255516,0.57910025,0.04314454,0.16187929
8.827086,-1.3175291999999998,-1.0274956,0.32888985,-0.0063529983,0.21989404
8.636814,-0.7238055,-1.3596959,0.039845865,-0.113882735,0.20020671
8.245094,-0.11507491,-2.0800443,-0.18212509999999998,0.57599354,0.059131755999999994
7.8719529999999995,0.08292556599999999,-2.5488672,-0.29391345,0.5988923,0.0027052604
8.039738999999999,0.14908215,-2.6194672999999997,-0.45361108,0.25713935,0.15920894
7.826645399999999,0.11526645,-2.2227864,-0.26940903,-0.093636915,0.29016098
7.383871000000001,0.12706508,-2.010239,-0.08522443,-0.104824476,0.42219514
7.5912565999999995,-0.4059321,-2.843804,0.087231554,-0.041469023,0.44188246
9.89831,-1.4392408,-2.9315564999999997,0.22403046,0.187396,0.40673152
12.6825075,-1.1705923,-3.0386634,0.28045696,0.42907175,0.33648202
12.223319,0.9717394,-3.6309602,0.09253736,0.27417377,0.1900838
11.163377,1.9154189,-4.852616,-0.2454631,-0.14634585,-0.031346112
12.413113000000001,1.4139868,-2.7837287999999996,-0.6489658,-0.47797588,-0.25918138
14.237743,1.9226493000000002,-1.113342,-0.8954236999999999,-0.5370727,-0.4044975
14.105985999999998,-0.23219927,0.7659243,-0.9699667,-0.36246997,-0.39652136
12.114901,-0.9708488000000001,2.388829,-0.9055466000000001,-0.22886503,-0.3491531
8.900319999999999,-2.396098,2.8603911,-0.80707514,-0.13782865,-0.31241393
8.068795,-2.8955187999999996,2.4199824,-0.7644890999999999,-0.09843657,-0.25066417
8.513589999999999,-2.5625715000000002,1.7652448,-0.7974758000000001,-0.09576622,-0.15962781
10.870232000000001,-1.3783514,1.5251063999999999,-0.8459087,-0.12983504,-0.09307841
12.459693,-0.31576648,0.75428843,-0.90128803,-0.13515829999999998,-0.033999015
11.422449,0.2731401,-0.10111192599999999,-0.89435905,-0.15379842,-0.005253441
9.71138,0.69731605,-0.47316128,-0.7288146,-0.19106120000000001,-0.004729842299999999
9.201922,0.17815733,-0.61911184,-0.540895,-0.15486306,-0.020158553
8.287902,0.03620033,-0.6441361,-0.40783107,-0.07288495,-0.027628561
7.502125299999999,0.19042523,-0.58952904,-0.40142572,-0.17987363,0.0075049159999999995
7.4527472999999995,0.553549,-0.7038666,-0.52811915,-0.06489134,-0.020158553
7.9170313,0.7775218,-1.0369096,-0.59625685,0.015463616999999999,-0.19954349
8.048109,0.75250715,-1.3069563999999998,-0.55686474,-0.09737192,-0.31613147
7.603199000000001,0.92506206,-1.4027723,-0.45252895,-0.013264502,-0.28153905
7.282156,0.89564216,-1.6975368000000002,-0.35512215,0.7543313,-0.12662363
7.5019817,0.088451385,-1.8505647,-0.06286676,0.7681892,-0.1404641
7.8490553,-0.73428255,-2.1452047999999997,0.1511106,0.31943017,-0.28845057
8.216383,-0.9933542999999999,-2.3806791,0.31773720000000005,0.24010494,-0.5109626
8.442463,-0.81603014,-2.2795862999999996,0.31932545,0.12512265,-0.59878755
8.739057,-0.22280441,-3.2523122000000004,0.36191148,0.42216024,-0.460924
11.12778,1.3285617,-3.6600832999999997,0.12714724,0.35082862,-0.32251940000000007
13.039282,2.0579313999999997,-2.9124696,-0.16400859,0.31569517,-0.07072074
12.223348,-0.3311564,-3.528517,-0.2587625,0.20231856,0.11664035
11.1517315,-1.299994,-4.5301933,-0.07777187,0.08094837,0.20179497
12.522412,-1.3921325,-3.7769778,0.2192308,0.00853466,0.29070204
14.70081,-1.8218246999999999,-0.13887328,0.5599365,0.0543321,0.36683330000000003
14.543922,-1.520299,1.7555052,0.8074591,0.101700336,0.35777503
12.937988,-2.0022805,2.2992668,0.8830667999999999,0.09211848,0.30721286
9.787392,-2.4295976,2.5313416,0.8851786,0.09637708,0.26195645
7.4561853000000005,0.43827298,1.9667697,0.88092005,0.11395255,0.2587625
7.58938,3.6071614999999997,-0.14858416,0.8804139000000001,0.008028515,0.24333379999999996
9.588817,3.5539532,-0.9139721,0.8197113000000001,-0.11705923,0.17624335
11.157009,1.540956,-0.02069548,0.73028064,-0.22671826,0.035709437000000004
10.633512,-0.8456319999999999,0.31662840000000003,0.6605373000000001,-0.20809561,-0.061156336
9.342807,-2.744732,0.4309563,0.64085,0.0010995574,-0.114388876
7.781682000000001,-3.1095796,0.68154305,0.69514716,-0.07553785,-0.104265966
6.987928,-2.371859,0.2957701,0.8447394,-0.24429373,-0.078173295
7.136195699999999,-1.678594,-0.42972088,0.9911201,-0.15271631,-0.016423548
7.7812796,-1.0412383,-0.6568253000000001,0.87454957,-0.09683087,0.14751522
8.526643,-0.6259784,-0.38013220000000003,0.52054447,-0.04998623,0.2981546
8.457432,-0.22627121,-0.38243064,0.17772688,-0.14899875,0.37693876
8.348505000000001,0.13859555,-0.7491456999999999,-0.055414204,0.39767328,0.2832495
8.510994,0.14706145,-1.1071556,-0.28270844,0.558453,0.15816173
8.502298,-0.5597548000000001,-1.6441845000000002,-0.47277477,0.15119787,0.22734658
8.307775,-0.9772365,-1.30484,-0.30506609999999995,-0.028169613,0.33595842
7.621711299999999,-1.1473396999999999,-0.8670937,-0.12142256,-0.097354464,0.35299283
7.8292694,-1.4444124,-1.6127439,-0.07670722,0.12034045,0.37854445
9.928419,-1.670607,-1.7210191000000004,-0.17571975,0.18102555,0.41100758
11.488022,-1.0059669,-2.8298123,-0.30133109999999996,0.20018926,0.39877284
11.955456,0.48491204,-3.8534296,-0.3929085,0.045291292999999996,0.2475924
12.01373,1.9124308999999997,-4.3389063,-0.5190784,-0.19903734,-0.012705997
13.956481,1.7863714,-2.565071,-0.67875856,-0.35234708,-0.17825048
14.396517000000001,1.9791429,-1.9320633000000003,-0.7378554,-0.4135732,-0.3187844
14.096839000000001,-0.051274225,0.12897086,-0.68888146,-0.31136674,-0.3294309
12.1776,-0.66843235,2.2036617,-0.5898689,-0.123447135,-0.30600858
8.009878,-2.2111123,2.7912562000000003,-0.52492523,0.0042935097999999994,-0.30016172
6.956066000000001,-2.5859005,2.657468,-0.53183675,0.049008845999999995,-0.26129323
7.712364999999999,-1.4055017,2.0631602,-0.5946511,-0.011117746999999999,-0.20964895
