accx,accy,accz,gyrx,gyry,gyrz
9.667432000000002,1.0341802,-5.6502300000000005,0.47099456,0.17544049,-0.17067574
11.447731,-0.8628033000000002,-3.7014934999999998,0.36824703,0.25633649999999997,-0.15257668
12.591766999999999,-0.17704643,1.7937455000000002,0.10901327,0.40167007,-0.090826936
12.424441,1.1842774,0.8542033000000001,-0.22368139,0.60288906,-0.031730086
12.633485,0.98705274,1.3895468,-0.5696929000000001,0.56882024,-0.053023104
11.79038,0.92937165,0.16982551,-0.83746135,0.3399203,-0.13873622
10.818947,-1.4181049,1.6867056,-0.9050579,0.036494836,-0.1142318
10.074964,-2.3321152,0.6946633000000001,-0.6969274000000001,-0.18973474,-0.014713125
9.331918,-1.4915493999999998,-0.7684525999999999,-0.33334044,-0.22485077,0.10346312
8.971208,0.03863284,-1.1264143999999998,-0.05279621,-0.057176985,0.20621064
8.614041,0.7143245,-1.8036288,-0.02565634,0.11794935,0.24080308
8.235039,0.6001306,-1.7909874,-0.18481292,0.14137167,0.27913052
7.9806595,1.132649,-1.2223454,-0.48932052,0.09450958,0.34939745
8.4771595,2.1139748,-0.92056096,-0.7245909,0.010419616,0.38240165
9.175625,2.7051127,-0.8193819999999999,-0.834791,-0.1982345,0.29881779999999997
9.16398,2.6983992999999997,-1.165373,-0.8273384,-0.33292156,0.27167794
8.223537,1.5930157,-1.8772936000000002,-0.7331081,-0.23497367,0.33662164
7.7267017000000005,-0.48617619999999995,-1.7190081000000001,-0.6287898000000001,0.019460421000000002,0.33288664
7.981761,-1.7617302,-1.4900266000000002,-0.42648867,-0.21846285,0.12740904
8.283487,-1.8953650000000002,-1.6827983,-0.3344051,-0.812538,-0.2898992
8.438556,-0.644749,-2.2157762,-0.12999213,-0.660293,-0.86854565
8.649780999999999,0.93788546,-2.4097736000000003,-0.05173156,-0.16629498,-0.7753974
8.836395,1.9600755,-2.6230778999999997,-0.21303488,0.15627678,-0.37400659999999997
9.359691999999999,2.012681,-3.0315862,-0.47813293,0.19247492,-0.07644542
10.070999,1.6333818000000002,-2.9577009999999997,-0.51804864,0.28455848,0.06620034
10.462133999999999,0.31193575,-3.0661585,-0.45151670000000005,0.33300883,0.14444345
9.985344,-1.1325243999999999,-3.0814237999999996,-0.2966187,0.33246776,0.15774286
10.392703,-1.7333446,-3.3034046000000004,-0.06557202,0.32768556,0.18650588
12.519989,-1.2691089,-3.6936786,0.25593507,0.32129768,0.24933773
14.716133,-0.5275863000000001,-2.2129893,0.6344097,0.12911946,0.286042
14.630775,-0.7109916999999999,1.9869383999999999,0.9277298,-0.04279547,0.27541295
14.689701000000001,-1.2213781000000001,1.7264205000000001,1.0544232,0.046076692999999995,0.24612632
10.437714,-1.6781343,1.8873012999999998,0.93996453,0.19141026,0.18491763
7.768533000000001,-0.5547460999999999,-0.07397125,0.6716725,0.21802653,0.07843509
7.5088296,2.1194048,-0.16746004,0.33471924,0.25048965,-0.055676002
8.598182000000001,2.8571062,-0.4975151,0.11325441,0.17596409,-0.22923154
9.517392,1.5725596000000002,-0.76671916,0.06588618,0.07962192,-0.36761869999999996
9.815547,-0.6899515,0.08249462,0.17554522,0.029565877999999997,-0.38041195
9.659866000000001,-2.9997144000000002,0.3545142,0.42147955,-0.059306286,-0.33676127
9.183114,-4.627341,0.33871248,0.6477265999999999,-0.18758799,-0.35379568
8.686316999999999,-4.9229383,-0.046907199999999996,0.8010363,-0.36273178,-0.40648717
8.994374,-3.2465377,-0.5431773,0.79145443,-0.4058414,-0.3820002
9.359231,-0.723997,-1.4776629,0.6775368,-0.37496653,-0.31864476
9.15468,1.1308677,-2.3066888,0.55723125,-0.35686746,-0.36761869999999996
7.9863100000000005,1.7058783,-2.5900185000000002,0.396469,-0.12051498,-0.42884484
7.392040700000001,0.9411894000000001,-2.7235386000000004,0.3453483,-0.37444293,-0.33356732
7.8930893,-0.2902634,-2.4487607000000002,0.69083625,-0.20090485,0.037978366
8.235,-1.1073183000000002,-1.9478459,0.5353972,0.7391644,0.6107604999999999
8.321095,-1.6069787,-1.6693331999999999,0.27668706,0.1903456,1.0930648
8.314947,-2.0533729,-1.7191901000000003,0.25912905,-0.26424286,0.71829027
8.704283,-2.4784107000000004,-2.0245657,0.4076391,-0.032148965,0.21418679999999998
9.388987,-2.367339,-2.1418722000000003,0.34376004,0.10037389,-0.19301596
10.852007,-1.3634979999999999,-2.326283,0.21121974,0.20312142,-0.27180013
11.970367,0.24055023,-2.4636720000000003,0.20270254,-0.26265459999999996,-0.21537364
11.094577000000001,1.5738908,-3.3281224000000003,0.20163789999999998,-0.20142844,-0.16852899
9.985019,1.2085834999999998,-3.6352026,0.16383405,0.16905259,-0.17119935
10.493202,0.24046403,-1.695861,0.10208431,0.27019440000000006,-0.17119935
11.321031,0.018751388,0.99472374,0.011588986,0.30052823,-0.15149458
12.162362,0.52145714,0.08569327,-0.18109536,0.42615703,-0.124354705
12.809324,0.78707945,1.1197107,-0.40147808,0.45277330000000005,-0.11903145
11.386622000000001,1.4296832,0.71725494,-0.53508306,0.3058515,-0.11103784
10.767222,-0.62732875,1.0951653000000001,-0.5398826999999999,0.16905259,-0.048223447
10.537552,-1.8741237000000002,-0.20502028,-0.35250413,0.075363316,0.0731293
9.899650999999999,-1.3598108,-1.0876093,-0.0959233,0.003490659,0.17640042
9.494829,0.27773696,-1.6528324,0.032882,-0.05024803,0.23174481
8.788463,1.3022447,-2.198787,-0.040561453,-0.1998402,0.25092600000000004
8.324705999999999,1.3820481000000002,-2.0718656,-0.2955366,-0.19929914,0.30415854
8.261021000000001,1.6945776999999997,-1.2496583,-0.5185897,-0.046530478,0.37123153
8.785083,1.9793918000000001,-0.5505898,-0.6223844000000001,-0.03960152,0.34300956
9.002208,1.7617302,-0.85764134,-0.580863,-0.11253883,0.21472786
8.470849000000001,1.0918326,-1.0515716,-0.49303806,-0.1269029,0.20086995
8.052936,0.6382846,-1.2230444,-0.43074727,-0.14873695,0.25623178
7.983906299999999,-0.13344322,-1.2086888999999998,-0.38922587,-0.45588,0.25146705
8.098789,-0.7893683000000001,-1.2794614,-0.49994957,-0.8593826999999999,0.04703662
8.113614,-0.9960167,-1.7303183000000002,-0.43074727,-0.6810624,-0.4245688
7.8401966,-0.39716935,-2.2458186,-0.36154497,-0.39200094,-0.83128285
7.8068789999999995,0.6971437,-2.7627459,-0.35569809999999996,-0.13009684,-0.6918135999999999
8.399108,1.7716900000000002,-3.0793647999999996,-0.7166147,0.07962192,-0.27872908
9.749773,2.4979183999999997,-2.5760558,-0.7251319,0.31916836,-0.041835542999999996
11.409818,1.9514371,-2.1638412000000002,-0.68148124,0.4655491,0.12849113
11.793416,0.13332829999999998,-2.1968045,-0.6484771,0.37559485,0.22589797
10.720048,-1.6112785,-2.543437,-0.58246875,0.35482544,0.23921482
10.2904415,-1.5604831000000001,-3.717113,-0.39828414,0.3814417,0.24773203
12.001184,-0.10614933,-3.8831173999999997,-0.074630275,0.23558454,0.27433085
13.756948999999999,0.38723820000000003,-0.5280843000000001,0.2713638,0.036494836,0.28338912
15.432804,-0.22808124,1.2215409,0.5178391999999999,-0.006073746,0.28764772
14.325457,-0.6049094,0.97366434,0.5950177,0.08281587,0.25890213
9.396628999999999,-0.8411213,1.0533626,0.4747121,0.16053538,0.15030776
7.515226400000001,0.998181,-0.3679122,0.23303635,0.23239058,0.033737216
8.419315,2.544883,0.40705258,-0.007016223,0.25155429999999995,-0.06525786
8.999431,2.0887017,-0.7410533,-0.13690363,0.13444272,-0.19568631
9.464691,0.00203986,-0.8222838,-0.10070549999999999,0.03330088,-0.31864476
9.699218,-2.0537558000000002,-0.39827067,0.11911872,-0.011920598000000001,-0.39690533
9.62244,-3.4724063999999997,0.05707777,0.4156327,-0.04173082,-0.41126940000000006
9.162006,-4.3218309999999995,0.18484195,0.68765974,-0.21048671,-0.43680355
8.842965,-4.1112466,0.022093692999999998,0.76855576,-0.36379644,-0.4309567
9.123681,-2.5741882,-0.45268607,0.7387454999999999,-0.28820622,-0.37507126
9.450824,-0.45732126,-1.4115255,0.68392473,-0.2695661,-0.35323718
8.861533999999999,1.0465343,-2.3843472,0.5747893,-0.22432716,-0.42884484
7.727803,1.4039791000000001,-2.7214317,0.40444514,-0.18013543,-0.4799481
7.4133773000000005,0.46866977,-2.5285835,0.46300095,-0.35847318,-0.35271358
8.061478,-1.0039654,-2.1641667,0.6817954,0.28297022,0.019896753
8.788673,-1.9086959,-1.7910256000000002,0.39912188,0.680085,0.70499086
8.682821,-2.2586994,-1.5515288999999999,0.35814157,-0.052918382,0.80934405
8.216852000000001,-2.6206646,-1.642068,0.39008108,-0.067282446,0.44469243
8.317285,-2.4213805,-1.5351813,0.55349624,0.009878564,0.11145672
9.309239999999999,-1.790068,-2.1603646,0.58437115,0.05300565,-0.12753119999999998
11.157536,-1.0813458999999999,-2.1225077999999997,0.509322,0.005096362,-0.13072516
11.856364,0.33807087,-2.3537972000000003,0.44650757,-0.22378612,-0.06897541
10.603919,1.2824302,-3.6254343999999996,0.44064328,-0.08698721,-0.033318337
10.6469,0.60641295,-3.6668443999999996,0.30490902,0.15892968,-0.03544764
11.414691,-0.12368446599999999,-0.79186785,0.0935671,0.23026128,-0.04024729
12.0532255,0.27704746,0.32518047,-0.14648548,0.25155429999999995,-0.054070299999999995
12.962083999999999,0.5910805,0.8347145,-0.4238183,0.25528932,-0.08759808
12.083403,1.0302536,1.1138496,-0.6484771,0.11794935,-0.11208504400000001
9.967952,1.2988927,0.71489906,-0.7059681999999999,-0.007661996,-0.08068657
9.160233999999999,-0.5364736,0.66993594,-0.5792748000000001,-0.054506633,0.000733
8.847446000000001,-2.0003938999999997,-0.7207121999999999,-0.36154497,-0.016720254,0.11145672
8.647923,-1.8746599,-1.4424298999999998,-0.15341444,0.089203775,0.23123868
9.285883,0.15765339,-1.2231306,-0.03309144,0.12805481,0.29672343
9.086789999999999,1.770244,-1.4253639999999999,-0.04907866,0.084404126,0.28605947
8.589074,2.726469,-1.9982006999999997,-0.2540152,0.061522855999999994,0.30841714
8.764426,2.9861155,-1.6290436000000001,-0.5356241,0.063111104,0.39252454
9.391783,2.5928535,-1.4433205,-0.6878692,0.024260076000000002,0.3973242
9.561178,1.76762,-1.5756336000000002,-0.75281286,-0.071017444,0.25624925
9.025441,0.69849396,-1.6076202,-0.78101736,-0.18120009,0.2110103
8.282271000000001,-0.36248216,-1.3751625,-0.7666533,-0.2024931,0.21526891
7.8626833,-0.855726,-1.4336671,-0.6490007,-0.46439719999999995,0.11253883
8.069924,-0.7051498,-1.731161,-0.5420119999999999,-0.72523665,-0.031712633
8.493286999999999,-0.19489759,-2.2593987,-0.47919759999999995,-0.9647831,-0.42298055
8.668074,0.6178668,-2.2669928,-0.45097563,-0.31321678,-0.81103706
8.576816,1.3845763999999998,-2.4295687999999998,-0.38550833,-0.028431414,-0.60981804
8.626767999999998,1.8666345000000002,-2.831632,-0.6367484999999999,0.08653343,-0.20790362
9.607318,1.8363144,-2.4696574,-0.8475668,0.2558129,0.012967796
11.091216000000001,1.3712552,-1.9406345,-0.91409874,0.42776275,0.17107718
11.29433,0.36077747,-2.270498,-0.87257737,0.4607669,0.1961052
10.242567,-0.9778686,-2.8990145,-0.68626344,0.4421268,0.21207495
10.669395,-1.3169641,-3.4029746,-0.41425390000000006,0.41498694,0.25411993
12.401342,-0.538025,-3.5553415,-0.058660515,0.23026128,0.28660053
13.685927,0.08717767,-0.6761896,0.28042206,0.0045553090000000004,0.30524063
14.681685,-0.670003,2.0875331999999998,0.5343326,-0.10454522,0.32545155
13.533551000000001,-0.8653698000000001,0.5106353,0.61631066,-0.028955012999999998,0.29192376
8.842945,-0.7411585999999999,1.4518726999999998,0.46513024,0.10143854,0.17587683
7.2066045,0.6958603,-0.6095829,0.20961404,0.19141026,0.034278266
8.069887,2.302523,-0.56149775,-0.008080875,0.18661061,-0.08281587
9.143131,2.4095914,-1.2605568,-0.06822492,0.11475539999999998,-0.21642083
9.92186,0.5625416,-0.81320494,0.026494099,0.016266469,-0.31545082
10.13728,-1.7667675999999999,0.010122685,0.27029914,-0.0726057,-0.36229545
9.815728,-3.6148328999999997,0.15185942,0.58224183,-0.13009684,-0.41711622
9.057945,-4.65111,0.029056031,0.83404046,-0.26158994,-0.48047170000000006
8.538605,-4.410838,-0.28527394,0.86756825,-0.33557445,-0.46343729999999994
8.96618,-2.6983802000000003,-0.76829934,0.7579267,-0.25891959999999997,-0.35217252
9.494292999999999,-0.28531224,-1.6830281000000002,0.65730846,-0.38348374,-0.2968107
9.10604,1.2780056999999998,-2.6512432,0.5545609,-0.275954,-0.38891172
7.898069400000001,1.4391450000000001,-2.7648048,0.44279003,-0.19451694,-0.45012042
7.372685400000001,0.23073400000000002,-2.390706,0.68446577,-0.325469,-0.27977628
7.9911656,-1.3073778,-1.9196900000000001,0.79518944,0.43947390000000003,0.16683602
8.680599,-2.2617161,-1.6084247,0.48111746,0.7338411,0.8977101000000001
8.863239,-2.6798491,-1.6072658000000002,0.5370029000000001,-0.04759513,0.84873617
8.577333,-2.5847514,-1.3959346000000001,0.6290865,0.06258751,0.41222933
8.400871,-1.8958056,-1.5733736,0.6328215,0.09079203,0.011920598000000001
9.012981,-1.2796625,-2.5390507999999996,0.53007394,0.17756979,-0.14563027
10.6128645,-0.7464259,-2.4800196,0.46727700000000005,-0.17694148,-0.13391912
11.461331,0.5301529,-2.6487916,0.43957862,-0.36112607,-0.10145599
10.515764,0.92714983,-3.7763648,0.34749505,0.02851868,-0.11154399
10.480244,0.07447883,-3.1159673,0.20854940000000002,0.30213395,-0.13498376
11.173988,0.03841257,0.15750973,0.013735741000000001,0.32288590000000006,-0.14563027
12.144024,0.76849085,2.8699999999999996e-05,-0.2247286,0.40807542,-0.109432146
13.513698999999999,0.8315829,1.3669934,-0.40997785,0.42563343,-0.08600982
12.439783,1.5057614,1.0804553,-0.51111966,0.32183870000000003,-0.11527899999999999
10.449167999999998,0.115094066,0.85819685,-0.49729666,0.22706734,-0.100391336
9.905492,-1.4961365,-0.10288364,-0.3567453,0.15147713,-0.01733112
9.07821,-1.6200701000000002,-0.85455763,-0.13638003,0.058328904,0.092310466
9.260303,-0.7995866999999999,-1.2991034,-0.000628,0.06471681,0.15140732
9.068412,0.81160563,-1.7973176,-0.01288053,0.039165188,0.16043067
8.768946000000001,1.8198231,-2.2663991,-0.15819664,-0.05024803,0.18971729999999998
8.236811,2.2419782,-2.1218084999999998,-0.35409240000000003,-0.10560987,0.28286552
8.367313000000001,2.3718302,-1.4589787,-0.51379,-0.1285086,0.35208526
9.014092,2.0833194,-0.99056745,-0.6010914,-0.0742114,0.34302699999999997
9.430608,1.4461936000000002,-0.88583547,-0.5813866,0.012025318,0.3142989
9.245191,0.7741891,-1.0731865,-0.55211747,0.033841934,0.35367352
8.653545,-0.00067,-1.1410096,-0.5643697,-0.30044097,0.34728559999999997
8.356693,-0.5465005000000001,-1.3935117,-0.58351594,-0.79498,0.21633355
8.26352,-0.6641228,-1.6990404,-0.62397265,-0.8018915,-0.13604842
8.306319,-0.34063745,-2.1435096000000002,-0.30511847,-0.74759436,-0.6806085999999999
8.036627000000001,0.37396473,-2.3739374,-0.12784536,-0.30311134,-0.78813833
7.6336727,1.0836636,-2.6506782,-0.27370253,0.025848325,-0.35217252
7.946662,1.5521992,-2.5278842,-0.61440825,0.15840608,-0.01574287
9.306061,1.679293,-2.4669375,-0.6825459,0.30426323,0.16681857
11.384831,1.3766085,-2.1828990000000004,-0.7075564999999999,0.28403488,0.20781635
11.647226,-0.11637736,-1.9164053,-0.70169216,0.29626963,0.21739821
10.270991,-1.3186879999999999,-2.8498662,-0.55850536,0.29414034,0.25307274
10.964927000000001,-1.0832614,-4.0956364,-0.2540152,0.24357815,0.26319566
13.369778,-0.5746372,-2.9240863,0.12711233,0.053529248,0.25998425
14.640985,-0.71287835,1.2656708,0.46247736,-0.10241592,0.23603833
15.252521,-0.46176490000000003,2.451701,0.68924797,-0.11732103,0.20090485
11.245307,-0.8444444999999999,2.1831095,0.7653618000000001,-0.026825711000000002,0.12316789
7.870832400000001,-0.12248736,0.15229996,0.61526346,0.05300565,0.03269002
8.093302,2.3382732999999996,-0.40227377,0.34536576,0.08974483,-0.051399945999999995
8.818506,3.124299,-1.0533531,0.096778505,0.040770892,-0.16531758
9.281152,1.7823395,-1.6991841,-0.030962141000000002,-0.0704764,-0.26326546
9.337731,-0.48553452,-0.78157276,0.04033456,-0.1939759,-0.29096383
9.559453999999999,-2.4822509999999998,0.040921696,0.33365458,-0.20940460000000002,-0.32447416
9.418205,-3.9037553999999997,0.24381591,0.67169,-0.25837854,-0.4208338
8.7442665,-4.5672846,0.08039729,0.8281936,-0.26104888,-0.42137483
8.602184,-3.8947532,-0.26592878,0.73768085,-0.18493510000000002,-0.31864476
9.168556,-1.9439578000000002,-0.7605516999999999,0.6306921999999999,-0.23869123,-0.30052823
9.215378,0.114490725,-1.7438504000000001,0.52902675,-0.29298842,-0.46396090000000006
8.408417,1.6237092,-2.5900857000000004,0.33845425,-0.3408977,-0.49164179999999996
7.609951,1.6140271000000002,-2.9380493,0.4065919,-0.47397906,-0.25048965
7.6190586,0.31784463,-2.881958,0.7424805,0.063111104,0.10400417
8.141828,-1.2292215,-2.4904006,0.5896944000000001,0.5480683000000001,0.66613984
8.697991,-2.31617,-2.0579216000000002,0.47685885,0.08653343,0.9930051
9.093628,-2.7487923999999997,-1.6698119999999999,0.5231624,-0.011920598000000001,0.6565754
9.353581,-2.9330409,-1.6603980999999999,0.63336253,0.15095353,0.23017402
9.855588000000001,-2.3684688,-2.2434626,0.5737420999999999,0.13817772,-0.13231342
10.9888115,-0.789512,-2.4288316,0.40338048,0.053529248,-0.23080234
11.354673,1.0531136,-3.1085835,0.31182054,-0.20462239999999998,-0.21855013
10.066181,1.707334,-4.499117,0.266058,0.06736971,-0.20205677
9.852485,0.60954463,-4.3567004,0.16598082,0.41498694,-0.20950933
11.267382000000001,-0.5702510000000001,-0.7729441,-0.05120796,0.5145231,-0.22069688
11.680813,-0.41037577,1.3872963,-0.3604803,0.5438097,-0.22015584
11.629452,0.30730057,0.5354105,-0.6319663000000001,0.4075344,-0.22708479
11.601382000000001,0.95942366,0.66116357,-0.79751074,0.19725712,-0.22973768
10.820939,1.7021146,0.32130188,-0.72087336,0.10250319,-0.16160004
10.309232000000002,-0.35801935,0.8808939,-0.40146065,0.03010693,-0.006684611
10.369479,-2.0341043,-0.67709935,-0.055990162999999996,-0.04759513,0.15458381
9.721302,-1.7274165000000001,-1.6196103000000002,0.15266395,-0.08751081,0.21792181
9.559567999999999,0.28799373,-1.7203488,0.22879522,-0.04865978,0.20355774
9.266882,1.806339,-1.7706080000000002,0.07600909,0.017872171,0.1870644
9.026811,2.6020472000000003,-1.6706740000000002,-0.28115508,0.13231342,0.24455553
9.198877,2.974336,-1.5469896,-0.59522706,0.050335295,0.3068289
9.438585,2.9130540000000003,-1.4004643,-0.6857224000000001,-0.09389871,0.23017402
9.469394,1.9656205000000002,-1.3926688,-0.6490007,-0.08485791,0.16203637
8.819530499999999,0.019163191,-1.6332287,-0.5574406999999999,-0.124773584,0.23390903
7.900501299999999,-1.6471055000000001,-1.5096973999999999,-0.5318891,-0.24455553,0.23762658
6.793097,-2.4888396,-1.2780823000000001,-0.49516737,-0.42448149999999996,0.09761626
6.961639999999999,-1.9302628000000002,-1.6021040000000002,-0.36845645,-0.6528404000000001,-0.073234014
8.075172,-0.2615426,-1.9809625,-0.036826447000000005,-1.1170281000000002,-0.58800143
8.690263,1.4062392,-2.0962577000000002,-0.04907866,-0.1332908,-0.7301236
8.345115,2.0595209999999997,-2.6044414000000002,-0.2502802,0.04448844,-0.32501522
8.153961,1.944877,-2.9204472999999997,-0.6165376,0.031712633,-0.04129449
9.225328,1.6375285,-2.5253658,-0.8395732,0.24357815,0.039077923
11.114737,1.3508182,-2.0465636000000003,-0.9556200999999999,0.43415064,0.066217795
11.589746,-0.13308889,-1.9333179,-0.8842885,0.42989203,0.10880382
10.7386265,-1.8119318,-2.7528436000000003,-0.6346191999999999,0.34419638,0.18067649
11.125347999999999,-1.6854316999999999,-3.8815086,-0.34557518,0.34204963,0.25891959999999997
13.021574000000001,-0.6432358,-4.314773000000001,0.020647245,0.19247492,0.32971016
14.436460999999998,0.04379474,-0.08594226,0.3235317,0.00296706,0.3840248
15.538312,-0.33496797,2.7981608,0.530615,-0.11786208,0.39467129999999995
11.90355,-0.35373852,0.20714633,0.5721364000000001,0.010943214,0.31747538
7.446331,0.21848528,0.10049901,0.38315213,0.12646656,0.18387043
7.204008999999999,1.540209,-0.2977046,0.073879786,0.16212364,0.053441983
8.2583685,2.6626875,-0.65181667,-0.19493583,0.16372934,-0.057805302999999995
9.190306,2.4700884999999997,-1.4067945,-0.30298916,0.08972738,-0.19566886
9.571941,0.49559978,-0.59217227,-0.2832844,0.0008380000000000001,-0.28562313
9.790139,-1.7762008000000002,0.3218669,-0.067701325,-0.15725416,-0.28776988
9.862876,-3.5634246,0.25390029999999997,0.27029914,-0.26797786,-0.28776988
9.414959,-4.623950499999999,0.1198729,0.60514057,-0.35421458,-0.34098497
8.947036,-3.9738672,-0.36978924,0.7280989999999999,-0.36857864,-0.33622023
9.357191,-2.1619546,-0.89143795,0.63814473,-0.24507913,-0.21696188
9.637064,-0.11946109,-1.7015592000000002,0.5455201,-0.27117179999999996,-0.21750294
8.827622999999999,1.4987798,-2.547536,0.42095596,-0.16470672,-0.32129768
7.629957000000001,1.7989936000000002,-2.878041,0.2186723,-0.10986847400000001,-0.27232373
7.381755,0.74618644,-2.551654,0.0062657319999999996,-0.022043508,-0.019477874
8.061986,-0.9016468000000001,-2.1697884,0.22027801,0.59117794,0.5761854999999999
8.541717,-2.2588717999999997,-1.8031211999999999,0.23357742,0.17065829,0.83170176
8.475128999999999,-2.872525,-1.5497093000000002,0.20483184,-0.00075,0.4505393
8.236332,-3.210318,-1.5138154,0.36985272,0.039165188,0.14819591
8.668648,-2.7295048,-1.4600321000000003,0.58224183,0.1104968,-0.05248205
9.703114999999999,-1.8191816000000003,-2.2487779,0.6583730999999999,0.2968107,-0.14988887
11.202411999999999,-0.65078235,-2.5834107000000004,0.6328215,0.12486085,-0.16852899
11.491228999999999,0.87633526,-2.9076237999999996,0.5806536,-0.08538151,-0.182352
10.657032000000001,1.5765243999999998,-3.8487654000000004,0.45980698,0.054070299999999995,-0.21909118
11.171077,1.1219038000000001,-3.8114445,0.3357839,0.24783675,-0.23558454
12.332322,-0.03556826,-1.4345194,0.20535544,0.383571,-0.25743607
13.421961999999999,0.59263194,3.165422,0.024364796,0.411793,-0.30426323
12.759103999999999,0.17740077,0.3248836,-0.13796827,0.35482544,-0.3649658
9.901039,-0.11122504,0.02696829,-0.24975662,0.26912978,-0.36177185
8.176074,-0.78266454,0.94119895,-0.21675244,0.16692328,-0.26328292
8.903969,-1.7366486,0.65113664,-0.057054814,0.10143854,-0.11529645
9.56858,-2.1007972,-0.48360002,0.13030629,0.13498376,0.016720254
9.920815,-0.65285087,-1.3443155,0.23090705,0.26220079999999996,0.12636183
9.558275,0.8276372,-1.7207031000000004,0.20003219,0.31011009999999994,0.17001252
9.323663,1.7747643,-2.0102580000000003,-0.005427974,0.2968107,0.18278833
9.271258,2.4772133999999997,-1.5488666000000002,-0.33972833,0.20364502,0.25411993
9.614808,2.6129935,-1.1536031,-0.6436774000000001,-0.00075,0.31906363
9.821514,2.162759,-1.0178709000000001,-0.76930624,-0.14873695,0.27115434
9.396705,1.2063137,-1.2302556999999998,-0.7432310000000001,-0.17641789,0.16948892
8.584334,0.000383,-1.3455606000000002,-0.61280257,-0.15193091,0.18174113
7.829815400000001,-0.9391974000000001,-1.4118511999999999,-0.5105960999999999,-0.26158994,0.1982345
7.6837883,-1.073493,-1.4998716,-0.4318119000000001,-0.38348374,-0.00296706
8.10602,-0.21800642,-1.9780224999999998,-0.21355848,-0.7800749,-0.20525073
8.748757000000001,0.8988311999999999,-2.3521883,0.17928022,-1.0733774999999999,-0.7695156999999999
8.788673,1.6864468999999997,-2.4089212000000004,-0.048537605,0.31330407,-0.7748389
8.113614,2.1045130000000003,-2.4951508,-0.31204742,0.080145516,-0.37507126
7.7095785,2.1852837000000003,-2.7223222000000002,-0.7075564999999999,0.19141026,-0.14775957
8.494148,1.7464168999999998,-2.7153215,-0.89441144,0.46874309999999997,-0.009372418
10.295566,1.3845669,-2.2260041,-0.9502969000000001,0.53209853,0.13007939
11.873248,0.373189,-1.8920993000000002,-0.8741655999999999,0.45970228,0.26371926
11.370227,-1.3116491000000001,-1.8907107,-0.7288495,0.48099529999999996,0.30895817
11.164660000000001,-1.6472874,-2.1584972999999996,-0.26626742,0.3079808,0.28818876
12.84631,-0.8907674999999999,-2.8404906000000003,0.32939598,0.09239773,0.35260886
14.600714000000002,0.12134772,1.0849181,0.6812544,0.005096362,0.53625244
15.987387,-0.017764976000000002,2.6008596,0.79623663,-0.06195919,0.607584
11.183125,-0.2871031,0.09409212,0.69190085,0.08653343,0.49473104
7.4172845,0.3693008,0.62228173,0.4156327,0.19353956,0.25944320000000004
7.4220443,2.704136,-0.85500777,0.01691224,0.18341665,0.005532694
8.264975999999999,3.9141269999999997,-1.0709263999999998,-0.31417670000000003,0.056723199999999994,-0.21272072
8.992937,2.8676692999999998,-1.1243842,-0.4605575,-0.03694862,-0.369748
9.618341000000001,0.20753899,0.042932822999999995,-0.39933133,-0.20090485,-0.4314803
10.526041000000001,-2.9308286,1.3828908000000002,-0.13370967,-0.40903535,-0.39318776
10.906326,-5.514948,2.15368,0.26871088,-0.47717303,-0.34845498
9.126725,-5.776174500000001,1.0236745,0.5428498,-0.38987166,-0.32396802
8.043197,-4.016934,-0.3335027,0.54925513,-0.25626668,-0.15414748
9.268386,-1.1282915,-1.0148925,0.46780059999999996,-0.16683602,-0.073234014
9.918565,1.4584614,-2.1317587000000002,0.35814157,-0.18067649,-0.256895
8.79647,2.7464560000000002,-3.138808,0.29372147,-0.39467129999999995,-0.38412952
7.1981864,2.2420259999999996,-3.2625787,0.47151816,-0.32173398,-0.26593579999999994
6.828052499999999,0.48755524,-2.4318385,0.43851396,0.520911,0.22696261
7.184128,-1.2247491000000001,-1.9243731,0.18460347,0.6263114000000001,0.9658303
7.684353,-2.3710642,-1.4817044,0.17289232,-0.06569419,0.8609709000000001
8.0819435,-2.7702446,-1.1786273,0.33843678,-0.19451694,0.34887385
8.813555000000001,-3.1905131,-0.93791413,0.48216465,-0.058241636,-0.049288097999999995
10.309739,-2.7890341,-0.9997898999999999,0.50186944,0.14137167,-0.17119935
12.034224499999999,-1.6017401000000002,-1.4433972,0.4571541,-0.17641789,-0.10784389
12.631656,-0.0066846119999999995,-2.2103846000000003,0.49600512,-0.3760312,-0.10625564
11.090266999999999,1.0157353,-3.9996958,0.5412615,-0.04918338,-0.14191271
10.720353999999999,1.2419586,-2.9684557999999996,0.49228758,0.22600268,-0.17065829
11.763939,0.50690037,-0.40583634,0.32300809999999996,0.32981488,-0.18449876
12.322832,1.0211846,1.2388654,0.052045718,0.37611845,-0.17385225
12.938955,0.5992687,2.1219618,-0.28382543,0.26752406,-0.20205677
11.528282,0.36647567,1.6731734,-0.55372316,0.07588691,-0.22282618
9.748969,-0.6583863,1.658722,-0.65112996,-0.054506633,-0.1802576
9.105983,-1.6596223,0.7154928,-0.53295374,-0.10082767,-0.07909832
8.539264999999999,-1.8774755,-0.3416909,-0.2976659,-0.10348057,0.08323475
8.990974000000001,-1.1050677,-0.89502925,-0.08899434,-0.13383184,0.22270401
9.533894,0.6504088000000001,-0.9303676,-0.08899434,-0.16735962,0.26583108
9.391897,1.6152912,-1.1925327,-0.30085987,-0.041207224,0.30255282
8.937966000000001,1.9317855,-1.2862322,-0.5286951,0.049270645,0.34567990000000004
9.006614,2.2645795,-1.1943427,-0.55372316,-0.010855948,0.24986133
9.20856,2.2947943,-1.1941321000000003,-0.42861795,-0.09656907,0.066217795
9.040333,1.9312876,-1.4479461999999999,-0.24656266,-0.059829887000000005,0.12103858599999999
8.599427,1.1406551999999999,-1.5956972,-0.20132373,0.099309236,0.21898647
8.267992,-0.043957542999999995,-1.4448048999999998,-0.15873769,-0.40425315,0.12423254
7.8538723,-0.82090473,-1.4075416,-0.21142918,-1.1564202,-0.030124382999999998
7.446513,-0.8314009,-1.6140558999999999,-0.12679817,-0.8301135000000001,-0.56831414
7.408378599999999,0.07273584599999999,-2.132238,-0.19971803,-0.045989424,-0.81264275
7.724499000000001,1.1885296,-2.6551123,-0.50953144,0.07162831,-0.40966368
8.095322999999999,1.9462944,-2.6814964,-0.93326247,0.11475539999999998,-0.025342181000000002
9.21488,2.0269887,-2.34423,-1.0897661,0.26539478,0.16681857
11.526473,1.1527219,-2.0890653,-1.0823135,0.39421752,0.205146
12.903378,-0.4121187,-2.0664546,-0.91996306,0.33246776,0.205146
11.088467999999999,-1.9218256,-2.2232939999999997,-0.6851988,0.31862729999999995,0.2849948
10.869589999999999,-1.6990021,-3.5194767,-0.2907544,0.17331119,0.35952038
12.961739,0.24689966,-4.048623600000001,0.16969836,-0.027890362000000002,0.42233476
13.629519,1.2633245000000002,0.2605562,0.5646838000000001,-0.13809045,0.43830454
15.865293,0.28974628,1.8217288,0.83562875,-0.115209185,0.37014943
12.420908,-1.92e-05,1.6326636,0.9043074000000001,0.049270645,0.24932028
7.811648,0.6032144,-0.20230046,0.77281433,0.14030702,0.12051498
7.5633693,2.1632762000000003,-0.062661044,0.5417851,0.08759808,-0.030665435
8.118719,2.9455097,-0.5255943000000001,0.2857453,0.052464597,-0.21643828
8.876425999999999,2.0771997,-0.5256518,0.11911872,0.020001473,-0.36283649999999995
9.327744000000001,-0.32623392,0.27188557,0.1585108,-0.063023835,-0.38732347
9.585981,-2.8457383999999997,0.7917241999999999,0.49919906,-0.17109463,-0.41924554
9.137911,-4.7533426,1.138261,0.85426885,-0.22378612,-0.47567204
8.109439,-4.9908953,0.82018644,0.9761627,-0.28660053,-0.4304331
8.234034,-3.8514182999999997,0.110458896,0.79997164,-0.38828340000000006,-0.1850398
9.495241,-1.9430575,-0.79629236,0.5199685000000001,-0.2653075,-0.070598565
9.793664,0.06455725400000001,-1.8601511999999998,0.20535544,-0.08005825400000001,-0.239337
8.933599000000001,1.140435,-2.7060513,-0.15022048,-0.20835741,-0.29682815
7.9949675000000004,1.010832,-2.9144044,-0.18694222,-0.45055676,-0.18397516
7.955176,-0.26701096,-2.650477,0.16489871,0.08972738,0.124756135
8.176026,-1.8216139999999998,-1.9582080000000002,0.13402383,0.59117794,0.81625557
8.525245,-2.9998772000000002,-1.4694365,0.062692225,0.26700047,0.991923
8.824309,-3.1796147999999995,-0.9086379000000001,-0.040561453,0.03330088,0.6230302
8.886664,-2.9334043999999997,-1.7488015,-0.060248765999999995,-0.091245815,0.30042353
9.307603,-2.1768658,-2.5477847999999996,-0.0400204,0.056723199999999994,0.048101272
10.772594999999999,-0.31899387,-3.0629501,-0.047472954000000005,0.10037389,0.026808257999999998
12.419366,2.017431,-3.5878549,-0.06717772,0.05300565,-0.0008380000000000001
11.046914,2.848372,-4.7208676,-0.008080875,0.41072834,-0.08974483
9.73446,1.266255,-4.505878,-0.00275762,0.75035197,-0.17756979
11.247375,-0.29041666,-1.3020053,-0.28808406,0.73277646,-0.17917550000000002
12.879292,0.1917085,2.7801566,-0.6202551,0.5768139,-0.1919513
13.667942000000002,1.2224793,1.9255893,-0.7437545999999999,0.17331119,-0.28244662
11.909219,0.61891073,0.78825736,-0.67509335,-0.007661996,-0.31864476
9.205648,0.15122736,-0.32976776,-0.47813293,-0.04279547,-0.25103070000000005
8.674796,-0.5608944,0.02245761,-0.18003072,-0.06888814,-0.08229227
8.664617,-1.1814907,0.062009823,0.13137093,-0.09763372,0.10773917
8.894335,-0.9849075,-0.30885202,0.32087877,-0.022567106,0.22643901
9.742485,0.59818655,-0.66858566,0.32672563,0.15360643,0.25197318
10.177694,1.756463,-0.29848033,0.15266395,0.21589723,0.2168397
10.116019,2.4068813,-0.3177776,-0.14861478,0.2968107,0.23284437
9.667192,2.7925967999999997,-0.8975095999999999,-0.46109852,0.25422466,0.24666739
9.781042,2.4854877,-0.9153129000000001,-0.5925741999999999,0.046617742999999996,0.23602088
9.540884,0.9955953000000002,-0.9782325000000001,-0.54785883,-0.052918382,0.18863519
8.604292,-1.1749592,-1.2348622,-0.41371286,-0.17428859,0.24986133
7.6854258,-2.3719069999999998,-1.5249723999999998,-0.2864958,-0.39838886,0.25996679999999994
6.966676700000001,-2.3788214,-1.3326702,-0.18109536,-0.9440311,0.0864287
7.224063,-1.4388100000000001,-1.248624,-0.14702654,-1.1404504999999998,-0.22176154
8.126380000000001,0.11744039,-1.4023606000000002,0.22877775,-0.82531387,-0.8722631999999999
8.415839,1.0567336,-1.7187207999999998,0.44757223,-0.20835741,-0.87493354
8.106317,2.1743758,-2.269119,0.28468066,-0.096028015,-0.369748
7.8145595000000005,2.7647188,-2.764939,0.033423055,0.05087635,-0.048764499999999995
9.223279,2.3442106,-2.3468347,-0.19600047,0.31490976,0.06780604
11.111212,0.7309019,-1.8843995,-0.40041342,0.49483573,0.085905105
12.090689999999999,-0.83477193,-1.9704185,-0.44991097,0.6039536999999999,0.05555383
11.543414,-2.0179865,-2.4965203,-0.30033624,0.5714906,-0.00137881
11.639728,-1.9486023999999997,-3.0982025,0.20429079,0.3223623,0.044383723
13.227619,-0.92995584,-2.543437,0.6844483,0.06684611,0.272219
15.287207999999998,-0.8239789000000001,1.3346428999999997,0.85426885,0.022130774,0.48993137
17.060038,-1.1206875,2.2538633,0.8920551999999999,0.038100537000000004,0.544246
11.212036999999999,-1.3617261999999999,2.449843,0.78719586,0.11901400000000001,0.42394048
6.2716403,0.17721881,0.30734846,0.52103317,0.11847295,0.15510741
6.538804,2.340179,-0.13414234,0.20429079,0.07375761,-0.07218682
7.8302655,3.618702,-0.9724002,0.005201081,0.11740830000000001,-0.25902432
9.18591,2.699242,-0.72097075,-0.03417355,0.13391912,-0.36177185
10.212027,0.25364172,0.51919705,0.10156071,-0.058241636,-0.38465312
11.015089999999999,-2.2934153,1.6438110000000001,0.40072759999999996,-0.18280579,-0.31651545
10.523226,-4.7851667,1.9792193999999999,0.66582566,-0.18280579,-0.2462485
8.297518,-5.0493809999999995,-0.0036870709999999997,0.78984874,-0.35580283,-0.27234116
7.9490657,-2.925504,-1.3544191,0.6535909000000001,-0.4276755,-0.29255208
9.137931,-0.21966322,-1.8558894000000001,0.40338048,-0.20729275,-0.26806512
9.502932000000001,1.2865291,-2.7303283,0.19364429,-0.17748253,-0.39849359999999995
8.560986,1.8033893,-3.4074662000000004,-0.13796827,-0.09763372,-0.42191590000000007
7.5068850000000005,1.1360391,-2.9929914,0.005742133000000001,-0.40051815,-0.21909118
7.645088,-0.29170954,-2.1409621,0.15266395,-0.09176941,0.15245451
8.151989,-1.8328859,-1.6834111,-0.06504842,0.4373446,0.86151195
8.534237,-2.6034932,-1.0802924999999999,-0.18587756,0.14775957,1.0659075
8.296435,-2.6326259999999997,-1.1314806,-0.07621853,-0.12264428,0.66455156
8.442282,-2.848334,-1.4400643999999998,0.19631463,-0.26584855,0.26422540000000005
9.700712,-2.3610467999999996,-1.5298183,0.27084020000000003,-0.039077923,0.005532694
11.418292999999998,-0.93695647,-2.4937812999999998,0.29639181,0.06736971,-0.033841934
13.04973,0.9266327,-2.4982154,0.33311355,-0.09283406,-0.050893802
11.6786375,1.9842665000000002,-4.482606400000001,0.25487044,0.20205677,-0.07004006
9.39684,1.1969093000000002,-4.022029,0.032882,0.4314803,-0.11794935
10.909018,0.27790937,-0.19076999,-0.38337899999999997,0.38250637,-0.13924237
12.453603,0.3858208,1.3447847,-0.8528726000000001,0.23451988,-0.18821629999999998
13.2328005,1.2121269,2.411957,-1.1137295,-0.054506633,-0.28722882
11.965339,0.5477741999999999,1.4413764,-1.0876368,-0.18013543,-0.3117158
9.940333,0.27205792,1.3221261999999998,-0.8608662,-0.18865263,-0.24570745
8.495786,-0.88380516,1.5650705,-0.5494471,-0.092310466,-0.053529248
7.966141,-2.2267606,0.29260018,-0.23965116,-0.04918338,0.15617207
8.350047,-2.3270586,-0.15986563,0.07600909,0.049270645,0.22910938
9.492331,-0.5461078,-0.5705095,0.26551694,0.2409078,0.17694148
10.058061,1.7592976999999999,-0.99832463,-0.11028735,0.26433012,0.082187556
10.128536,3.9810786,-1.0267582,-0.81615084,0.19938642,0.0837758
9.763353,4.421860700000001,-1.6158563,-0.9018639999999999,-0.04279547,-0.06684611
9.505163,2.9489765,-2.1497252000000002,-0.67774624,0.20631537,-0.24731316
9.312027,0.49411535,-1.9816711,-0.60376173,0.36175440000000003,-0.19940387
8.969551,-1.223121,-1.5938776000000001,-0.3232175,0.09185668,0.05131268
8.198503,-2.1025496,-1.8085703999999998,-0.25614452,-0.37870154,0.16364206
7.571107400000001,-2.2729497000000003,-2.2005107,-0.40254274,-1.0542138,-0.02480113
8.04764,-1.7942436000000002,-1.9858561999999997,-0.21462314,-1.2921719999999999,-0.23719025
8.83108,-0.7152534,-1.2874867,0.25274113,-1.1346036,-0.8829097
8.531747,0.3852941,-1.8710208,0.23357742,-0.0683471,-1.0127971
7.2970667,1.6230868,-5.166524400000001,-0.07728318,0.25048965,-0.45757297
7.0624447,2.8359702,-5.206383,-0.2747672,0.07695156,0.010332349000000001
10.109335,3.9079692,0.15995182,-0.42702970000000007,0.23984315,0.17746508
12.583484,1.3914813,-0.35368106,-0.59416246,0.46980770000000005,0.28075367
12.032194,-1.8369944,-1.6101103,-0.56489325,0.4655491,0.21313961
9.553612,-3.2427452000000003,-2.0252456999999997,-0.2928837,0.39688787,0.11465068
9.052553999999999,-2.4316470000000003,-4.4361396,0.18779743,0.28616420000000004,0.16414821
11.705875,-0.749184,-4.146489,0.63868576,0.274453,0.35847318
14.2595005,-0.19447622,2.0289040000000003,0.87927943,0.21109757,0.56286865
17.16814,-0.9841318000000001,3.7212407999999995,1.0198133,0.098244585,0.59534925
12.294139999999999,-0.35350868,2.3899209999999997,0.92560047,0.20896827,0.47663197
8.092133500000001,1.5182973,-0.20187908,0.58013,0.182352,0.23230332
8.183669,3.2815980000000002,-0.32628179999999996,0.11487757400000001,0.10197959,-0.03330088
9.046261999999999,2.9609284,-0.8856630999999999,-0.30564207,0.07482226,-0.26593579999999994
9.644409,1.0130825,-0.7821281999999999,-0.44298202,0.047141342999999995,-0.40592867
10.213425,-0.82911205,0.682041,-0.2928837,-0.03853687,-0.38784707
10.634822999999999,-2.9397826,1.6927866999999999,0.14786429999999998,-0.24774949,-0.31703904
9.787267,-4.7233386,1.6003993,0.6211103,-0.42500514,-0.2446428
7.818936,-4.355771,0.43853155,0.7595149,-0.37657225,-0.09239773
7.809302000000001,-2.427213,-0.5977268,0.5721364000000001,-0.43884557,0.1316851
8.842016000000001,0.07700710000000001,-1.1324288,0.3629412,-0.25094345,0.09869837
9.227866,1.4719646999999998,-2.7188938,0.036075957,0.08546878,-0.17011724
8.403609,2.1832627999999996,-3.8894284,-0.11028735,-0.1998402,-0.21163863
7.3943768,2.0812795,-4.0254,-0.028850293,-0.17800613,0.09176941
7.571308599999999,0.6820506,-3.160231,0.053651422000000004,0.23719025,0.7358832
7.9762070000000005,-0.94695467,-2.0274866,-0.11082841,0.2824292,1.0180155999999998
8.292921,-2.4871828999999996,-1.2901396,-0.14275047,0.06684611,0.6507111
8.589122,-3.4494126000000005,-0.94063395,0.069097586,-0.16203637,0.2818183
9.122732000000001,-3.232335,-1.5930251,0.22026055,-0.19078194,0.10454522
10.301492999999999,-3.328649,-2.6606095,0.36878806,-0.21526891,-0.0008380000000000001
12.605051,-1.3234476,-2.718434,0.47472957,-0.31428143,-0.18395770000000003
13.475351999999999,1.7162787,-3.521593,0.41402700000000003,0.009878564,-0.35751325
11.449886,3.0983652999999998,-4.549185,0.38688713,0.43415064,-0.41870448
9.674452,2.075246,-2.082601,0.28680995,0.57468456,-0.31916836
10.007945,0.89840984,1.3996598999999998,-0.026720991,0.6476044,-0.20312142
12.4308195,1.027735,3.4641129999999998,-0.34663984,0.44532076,-0.2574186
12.572106,-0.20438822,1.2366531,-0.5531821,0.107302845,-0.33405602
10.675315,-0.82512814,0.64296764,-0.559029,-0.06888814,-0.3058515
8.745778999999999,-1.1517738000000002,1.2841444,-0.32534683,-0.18493510000000002,-0.182352
8.847380000000001,-1.9216055,0.44196963,0.040352013,-0.27010715,0.02576106
10.116441,-1.8387468999999996,-0.49737146,0.29480356,-0.24455553,0.21580996
10.6537285,-0.26640759999999997,-1.7640957,0.37411132,-0.096028015,0.28075367
9.86797,1.2288767,-2.2140524,0.21174334,0.12273155,0.24560273
8.951106,2.1320462000000004,-0.8596046,-0.19385372,0.41551054,0.28872982
8.804131,2.6283738999999997,-0.29224584,-0.64739496,0.48258352,0.37550759999999994
9.525561,2.6824443,-0.5954571,-0.8427671,0.20577432,0.2653075
9.676807,2.2856772000000003,-0.8873582,-0.7969871999999999,0.037035886000000004,0.18760544
8.537339999999999,0.44279325,-1.305836,-0.60693824,0.031712633,0.29778808
7.6135902,-1.2728438,-1.3964995,-0.44458770000000003,-0.33292156,0.2903355
7.119312,-2.0528173,-1.3056538999999998,-0.21514674,-1.0606017,0.067282446
7.025402000000001,-1.6933806,-1.7807784,0.016388642,-1.2043295,-0.3787888
7.4551324999999995,-0.36076787,-2.4058757,0.24422392,-0.5506339,-0.93879515
8.153847,1.2294035,-2.4838405,0.17343336,-0.05131268,-0.83391833
8.606627,2.6341486,-2.438303,-0.047472954000000005,-0.0017976889999999999,-0.5496565
8.668811,3.709107,-2.9314702,-0.30511847,0.20844467,-0.28082347
10.004315,3.3559144,-3.0086207000000003,-0.46375144,0.3681423,0.032166417999999995
11.871476,1.2590628000000001,-2.7746977999999998,-0.5052728,0.567232,0.13596115
11.969917,-1.3337237,-1.9538697,-0.38762018,0.62311745,0.07792895
10.91462,-2.504172,-2.6201377,0.021188296000000002,0.44586182,0.055588737
11.996559,-2.0448973,-3.6599205,0.6695607,0.22654374,0.13170254
14.219987,-1.2388462,-1.3630574,1.1023325000000002,0.052464597,0.3297276
16.229996,-1.8226099999999998,3.3929,1.2402135,-0.023631757000000003,0.49581313
13.822885000000001,-1.6538858,2.2087374,1.2487306999999999,0.010960667,0.49474847
7.8689556,-0.39100185,2.2085745,1.1033971000000002,0.013072516000000001,0.3451563
5.731125,1.7912938999999999,-0.16526695,0.7967776999999999,0.023195425,0.09550442
6.976091,3.7715379999999996,-0.5929288,0.3528183,0.030647982,-0.16053538
9.420475,3.4094677000000004,-0.8608975,-0.04373795,0.09772099,-0.33033848
12.003943,1.0159843000000002,-0.18375020000000003,-0.17788395,0.01680752,-0.3644073
11.794775999999999,-2.1823914,1.2203246,-0.01818633,-0.15351915,-0.3271445
10.788752,-4.3025627,2.1850824,0.26392868,-0.17481218,-0.24675465
8.567469000000001,-4.642348,1.6497294999999998,0.49921653,-0.24879669,-0.16690584
7.0797215,-3.9005853999999998,-0.17866491,0.5535137,-0.37976620000000005,-0.06843436
7.6818056,-2.4768782000000003,-1.1378683,0.4619363,-0.34409165,-0.020525072
8.930956,-0.2699606,-1.8146613,0.34855970000000003,-0.14926055,-0.22174408
9.287473,1.4547266,-2.9748626,0.06962118,-0.10454522,-0.37611845
8.453610000000001,2.27906,-3.8320540000000003,-0.107617,-0.36325538,-0.25316
7.712183500000001,1.7399716,-3.8467542999999997,-0.059184115,-0.11253883,0.04918338
7.6905779999999995,0.0983538,-3.188023,-0.061837014,0.3654894,0.50059533
7.913947599999999,-1.2552991000000002,-2.1860020000000002,-0.22792254,0.19779816,0.88760465
8.2181835,-1.6287753999999999,-1.5297226000000002,-0.26412067,0.047682392999999997,0.7039611
8.412219,-2.31707,-1.3841455,-0.06716027,0.01839577,0.28394762
9.5297365,-2.7765844,-1.4821258,0.069097586,-0.008726646,0.0071383969999999995
11.439303,-2.6101587000000004,-2.2126062,0.120724425,0.07004006,-0.09131563
13.326739000000002,-0.5957157,-2.5287175,0.14734070000000002,-0.08271115,-0.06895796
12.793598,1.4821928999999998,-3.2626647999999996,0.09410815,0.0035081120000000003,-0.07749262
10.391342999999999,2.2351406000000003,-4.5316777,0.02703515,0.38517672,-0.11527899999999999
10.072742,1.3214843,-2.9995997,-0.18214256,0.5954364999999999,-0.15414748
11.44144,0.14752114,-0.23882640000000002,-0.48556805,0.60343015,-0.19938642
12.237789999999999,0.45137405,1.8276953999999999,-0.7176619000000001,0.3771831,-0.2824292
11.607923,0.37650259999999997,1.36481,-0.8305149,0.14828317,-0.33033848
10.001825,-0.16154158,1.0105636999999998,-0.7192675999999999,0.049811699999999993,-0.27230626
9.438125,-0.57071066,1.4857745,-0.39400807,0.000314,-0.10569714
9.685427,-1.4697813,0.6894631,-0.07035422,-0.11945033,0.11786208
9.512757,-1.4921144,-0.08912177,0.121789075,-0.09229301,0.2770361
9.428768,-0.31662840000000003,-0.78386164,0.14627604,0.063111104,0.2988527
9.326555,1.1417278,-1.2014391000000002,0.002548181,0.12753119999999998,0.22912683
9.60254,2.4883319999999998,-0.89260626,-0.32960543,0.19299851,0.17055358
9.342366,3.1042259999999997,-1.2863567,-0.66975266,0.16585864,0.18174113
9.094758,2.5743701,-1.1611303999999998,-0.8049633,-0.021502456,0.14821336
9.052113,1.2563334,-1.42455,-0.6617765,-0.11465068,0.06250024
8.673072,-0.387219,-1.536637,-0.35941565,-0.1918466,0.13011430000000002
8.148455,-1.4386662000000001,-1.3546776000000003,-0.1725607,-0.53731704,0.21474531
7.354470699999999,-1.8311716,-1.3022924999999999,-0.13423327,-1.0504788,-0.05565855
6.9465084,-1.4419128,-1.5492591999999998,0.055257123,-1.2516978,-0.6459986999999999
7.763362,-0.46101790000000004,-1.9748142,0.6711489,-0.52401763,-1.1719537
8.533203,0.6921733,-2.1343827,0.513057,0.18821629999999998,-0.7231946
8.608946000000001,1.6063752,-2.4260447,-0.08899434,0.18502235,-0.24410175
8.524699,2.3850942,-2.716806,-0.3737797,0.2696708,-0.07695156
8.956067,2.962202,-2.4892228,-0.44352308,0.50708795,0.051871184
11.047249,2.16364,-1.895231,-0.4169068,0.49696505,0.11040953
12.173414,-0.20910957,-1.6056186000000001,-0.3604803,0.3787888,0.118926734
11.147451,-2.5633470000000003,-1.4792334999999999,-0.019250982,0.2611536,0.07688175
11.289235000000001,-3.505504,-2.2690425,0.6056815999999999,0.08068657,0.052394785
14.056014000000001,-2.0171914,-2.1111975,1.0304773,0.068451814,0.21635102
17.060535,-0.7135486999999999,3.3967303999999996,1.2237027,-0.03853687,0.35208526
14.523083999999999,-0.039485175,3.666471,1.161953,0.007225663,0.3904127
8.838177,0.2568787,0.11834059999999999,0.92507684,0.17118189,0.23923229
7.9381766,2.2926207,-1.1964784,0.50506335,0.16639969,-0.05618215
8.681279,3.8711271000000003,-0.617771,-0.001692969,0.021607175,-0.28401740000000003
8.908336,2.6884202999999998,-0.676496,-0.34025192,-0.017243853,-0.39580578
9.021084,0.24304977,0.08907388,-0.38762018,-0.02576106,-0.35854298
9.532658999999999,-2.3003487999999996,1.2224315000000001,-0.107617,-0.1918466,-0.24462534
10.34118,-4.656512,2.5129158,0.35016540000000007,-0.31162855,-0.19086921
9.163357000000001,-5.775207,1.405722,0.6370800999999999,-0.41701153,-0.13709562
7.399644,-4.720686,-0.40666953,0.6072699,-0.35740852,-0.00561996
8.220932000000001,-1.5495273,-0.95273906,0.45502478,-0.21472786,0.019390607
9.206693,0.9966296,-2.0100856,0.26338765,-0.13274974,-0.27230626
9.51927,2.5684133,-3.3345196,0.047263514000000006,-0.1327672,-0.38624138
8.050042999999999,2.8574990000000002,-4.3724155,0.22027801,-0.2008874,-0.06843436
6.950137599999999,1.9253308,-4.1562095,0.031834807,0.35643113,0.5644918000000001
7.391676400000001,0.1529416,-3.0816345000000003,-0.24069835,0.21537364,1.2197931999999998
7.917453,-1.4873451000000002,-2.237257,-0.27317894,0.06365216,0.96106553
8.508936,-2.9834244,-1.6350961000000002,-0.08419468,-0.16310102,0.39308307
9.374583,-3.7019722,-1.2465458999999999,-0.04160865,-0.15032521,0.028972466000000002
10.60008,-3.1833115000000003,-1.8614918000000003,-0.05066691,-0.11945033,-0.10995574
11.897526,-1.3424193000000002,-2.7925394,0.023841197,-0.4079707,-0.182352
12.690609,0.52887917,-2.6320607999999996,0.058451075,-0.03693117,-0.21642083
11.490243,1.9202838,-3.8296022000000005,-0.019792033,0.5608441,-0.23345524
9.570132000000001,2.1365664,-2.419839,-0.31682962,0.72640604,-0.18181095
9.875891000000001,1.8951830000000003,0.63063276,-0.7261791,0.7327939,-0.14721853
11.412115,2.058027,1.035406,-0.9950121999999999,0.5416804000000001,-0.20683897
13.037051,1.7192762,2.2202102999999997,-1.0450507,0.21217968,-0.26804766
13.075712,-0.110458896,0.9518291999999999,-0.9694606,0.06897541,-0.20949186
11.1960535,-1.3083162,1.2441133999999998,-0.68626344,-0.01298525,-0.053529248
9.477217999999999,-2.083329,-0.21518128,-0.269985,-0.20301670000000002,0.14289011
8.375568,-1.8340830000000001,-0.60591495,0.045134213,-0.20303415,0.27808330000000003
8.853835,-0.2793363,-1.051246,0.1510757,-0.06887069,0.2685189
9.147909,1.680289,-1.2443528,0.032899458,0.08600982,0.25733134
9.0001,2.5855749,-1.070122,-0.24549802,0.20153317,0.25628415
8.79283,2.6829617000000003,-1.3676925,-0.5356065999999999,0.14617133,0.25202554
9.030364,2.66942,-1.7132332,-0.6292959,0.090268426,0.1993166
9.015682,2.3407726,-1.4993832,-0.5467941999999999,0.073234014,0.16737707
8.124455000000001,0.71289754,-1.0863643,-0.38922587,-0.1487195,0.2536138
7.4754925000000005,-1.3680564,-1.2192233000000001,-0.31789428,-0.5367935,0.24829054
7.2297134000000005,-2.7440042,-1.2882912,-0.17948966,-1.0904118999999999,-0.01839577
7.401598,-2.8568477999999997,-1.4975828000000002,0.08506735,-1.2059178,-0.4485147
8.151164999999999,-1.606155,-1.7258651000000003,0.5716128,-0.36803758,-1.032467
8.626232,0.36113182,-1.9494357,0.6125931,0.36494833,-0.7503345
8.466874,1.5569302,-2.3636708,0.18460347,0.28457594,-0.24623105
9.050742999999999,2.5530138,-3.0027025000000003,-0.057054814,0.22547908,0.000768
10.231573,3.416229,-2.6357098,-0.17416641,0.41446334,0.12904964
11.926744,2.1273343999999996,-2.0244317,-0.20717058,0.55499727,0.17908823
12.570708,-0.40710050000000003,-1.7663941000000003,-0.26731459999999996,0.5400921,0.10775663
11.430953,-2.2488356,-2.3318567000000003,0.01319469,0.46237263,0.035901424
11.292769,-2.5283248,-3.2366447,0.6088756,0.27232373,0.11840314
13.840066,-1.4762647,-2.2038052,0.96073395,0.21430898,0.350497
16.443348,-1.1666273999999999,3.2120610000000003,1.0688046999999998,0.010419616,0.47666687
15.993517,-1.7941093000000001,3.7414095,1.0373888,-0.019896753,0.4574857
8.791767,-1.5083183,1.3022542,0.7989069999999999,0.17065829,0.27331856
6.267139,0.7033303000000001,-0.41837236,0.39859828,0.09187413,-0.003490659
7.387711500000001,3.3818674,-0.21956745,-0.002740167,-0.043319073,-0.2398257
8.815777,3.7797837,-0.34174836,-0.24602161,-0.101874866,-0.40858158
9.719999000000001,1.4706146,-0.29426655,-0.23750441,-0.16255997,-0.43893287
10.253198,-1.4174248999999999,0.6867528,-0.00275762,-0.3329041,-0.37824777
10.661754,-3.92266,2.321734,0.36240017,-0.35952038,-0.26698299999999997
8.794477,-4.9772773,1.2860694,0.6136578,-0.4798259,-0.1700998
7.168862299999999,-4.0091004,-0.58190596,0.53167963,-0.42446408,-0.11473794
8.1426325,-1.5559821000000003,-1.1301589,0.3437775,-0.23708552,-0.13763666
9.506647000000001,0.8612709999999999,-2.151487,0.16172221,-0.31267574,-0.33777356
9.329333,2.1561605999999998,-3.487308,-0.055990162999999996,-0.38507199999999997,-0.37077776
7.723167999999999,2.6286802000000002,-3.9018879999999996,0.17821556,-0.2807362,-0.088121675
6.9029240000000005,1.5397111,-3.0115418,0.22293091,0.30532790000000004,0.48464300000000005
7.383383,-0.36041355,-2.0224778999999997,-0.13955653,0.45544368,1.2208403
8.007838000000001,-2.2376401,-1.6645063999999998,-0.19333012,0.11316715,1.1234335
8.533672,-3.1767035,-1.6451995,-0.035761796,0.0035081120000000003,0.59908426
9.184531,-3.3770504,-1.1878114,0.12817699,-0.09335766,0.12744394
10.833629,-2.3657491000000004,-1.39106,0.14042918,0.04022984,-0.15200073
11.929934,-0.40233123,-2.6561177000000002,0.11114257,-0.11358603,-0.20043361
11.965052,0.9979894,-3.035053,0.12871803,-0.08857546,-0.16584119
10.424546000000001,1.8182718,-4.2875557,0.16917476,0.31012756,-0.10143854
9.73287,1.4681628999999998,-3.2574456,0.020123646000000002,0.47727773,-0.07267551
11.458372,0.7229723000000001,0.6758927,-0.3913552,0.44586182,-0.103026785
12.584135,1.0647589,1.2018893,-0.74694854,0.25316,-0.22919664
13.214931,1.4348067,2.035991,-0.894935,-0.12796754,-0.40219367
12.197519,0.50910306,1.4789941,-0.8188038000000001,-0.17694148,-0.41444588
10.633627,-0.27975768,1.3259089,-0.55689967,-0.18704693,-0.24462534
9.895044,-1.981106,0.27018088,-0.18107791,-0.26850146,0.049200833
8.753259,-2.8186746,-0.7282012,0.09145525,-0.15884241,0.28290042
8.449415,-2.2527714,-0.98328906,0.16598082,0.09985029,0.33185690000000007
8.649944,0.13276328,-0.44468945,-0.04160865,0.3335499,0.22699752
9.023382000000002,2.462264,0.04837245,-0.4131718,0.55073863,0.16098917
9.060713,3.2006645000000002,-0.97517747,-0.7442781999999999,0.55286795,0.22273892
9.077376,3.0955975,-1.7839005000000001,-0.8720363000000001,0.17863445,0.10456268
9.500882,2.2005107,-2.1018027999999997,-0.6330309000000001,-0.07367035,-0.005078908
8.99653,-0.062890895,-1.7272729,-0.11454595599999999,-0.18917623,0.044401175999999994
7.8424087,-1.7770723000000002,-1.3762542,0.062168628,-0.37549013,0.16896532
6.7732635,-2.566182,-1.3751336,-0.15180874,-0.83435464,0.09976302
6.533652,-2.0303502,-1.6258066999999998,-0.26146778,-1.0142806999999998,-0.19619246
7.6361246,-0.5639398,-2.1082861,0.066968285,-0.82637846,-0.9968099
9.097794,1.2410488000000002,-2.3464804,0.26551694,-0.09229301,-1.3060822
9.761917,2.6673896,-2.5840044,-0.09697049,0.21750294,-0.7231946
9.688367,3.7295724999999997,-2.6704445,-0.4951499,0.20366247,-0.18873991
9.461014,2.785012,-2.5014045,-0.54838246,0.28509954,0.08059931
10.682142,1.0903100000000001,-2.5590758,-0.46533969999999997,0.40966368,0.1955816
11.492782,-1.6683276999999999,-1.3710061000000002,-0.4323355,0.4352153,0.20251055
10.698002,-3.6667678,-1.0044921999999998,-0.26572640000000003,0.45544368,0.25094345
9.656188,-2.8147385,-3.598217,0.11381292,0.22282618,0.332939
12.167333,-0.7708276,-3.8600373,0.52529174,0.047682392999999997,0.41170569999999995
15.494028,-0.018310853999999998,1.2978584,0.784543,-0.03160791,0.39573595
17.832014,-0.11972924,3.8830218,0.9011135,-0.043319073,0.35262632
12.553336,-0.018416198,2.8319192,0.82871723,0.08227482,0.29298842
7.145696000000001,1.0799286,-0.5903048000000001,0.6083345,0.068451814,0.14343116
7.3742366,3.0253419999999998,-0.4103853,0.29054496,0.00296706,-0.06843436
9.023421,2.918829,0.22757365,-0.054925512999999995,-0.06567674,-0.28827602
10.2989645,1.0478559,0.21904072,-0.20504127,-0.17320648,-0.38515925
10.274727,-1.263449,0.000192,-0.055990162999999996,-0.30735248,-0.30531046
9.6048,-3.226474,0.73809403,0.4108505,-0.40742967,-0.22439697
8.474076,-4.321256,0.98776144,0.78506655,-0.47452012,-0.25155429999999995
7.778886,-4.235639599999999,0.18013974,0.7797433000000001,-0.34728559999999997,-0.19723965
8.217408,-2.5394435,-0.6411671999999999,0.513057,-0.12636183,-0.017854718000000002
8.744162,-0.10144711,-1.3940095,0.31662017,-0.22910938,-0.11208504400000001
8.647962,1.4067658,-2.4641123,0.044069562,-0.034801867,-0.287735
7.8312325,1.9436034,-3.1577604,0.13617058,0.25476572,-0.11634365
7.044776,1.4594287000000001,-3.5154254000000003,0.19312069,0.69127256,0.47506118
7.071284299999999,0.04504930000000001,-3.1216654999999998,-0.02883284,0.5656437,1.1292803
7.371421300000001,-1.6577452000000001,-2.109761,-0.22420500000000002,0.14456563,0.9669124
8.020202000000001,-3.0708318,-1.6240348999999998,-0.07887143,-0.09815732,0.46973792
9.279199,-3.5136727999999997,-0.98515654,0.11859512,-0.04225442,0.06941175
10.823984,-3.0493414,-1.8640966,0.086655594,0.084421575,-0.059917152
11.183200999999999,-1.5388013,-3.2170026000000003,-0.02617994,-0.16416568,-0.03754203
11.651891,-0.049349286,-3.750699,-0.12784536,-0.23975588,-0.023195425
12.232349000000001,1.3752487,-4.318575,-0.2332458,0.037035886000000004,-0.09770353
11.811919,1.7868502,-3.5757019999999997,-0.40039600000000003,0.20259781,-0.12803735
12.797641,2.0207062,-0.51306784,-0.6484595999999999,0.12859586,-0.12859586
13.904135,2.8484967,2.6298772999999995,-0.8651247999999999,0.05087635,-0.123272605
13.975107999999999,1.719439,2.8214613999999996,-0.9577494000000001,0.01839577,-0.16744688
11.3259535,-0.32788113,0.22476766,-0.95294976,0.030647982,-0.1871342
9.026849,-1.2123471000000001,1.0080738,-0.85180795,0.027995082,-0.07853982
7.9151545,-1.8121711999999999,0.51509815,-0.66497046,0.00403171,0.0758171
7.0150394,-1.6235752,-0.30857429999999997,-0.4238183,-0.08272861,0.16470672
7.9413657,-0.4491331,-0.80773664,-0.21568778,-0.016179202,0.22539182
9.224419000000001,1.4476014,-1.7457943999999999,-0.18268362,0.06578146,0.22006856
9.496466999999999,2.7235386000000004,-1.8461783999999999,-0.3322583,0.13924237,0.23125613
8.553305,2.625702,-1.5342332,-0.513249,0.22973768,0.2903355
8.415014999999999,1.9007854,-1.6339756,-0.57021654,0.32555628,0.35154423
8.909007,1.2406274,-1.3756412,-0.45523423,0.22176154,0.27597147
9.307708,0.27083209999999996,-0.85827345,-0.31415927,-0.06567674,0.26797786
8.698145,-0.41592070000000003,-0.78089285,-0.2955366,-0.32599258,0.37337828
7.898308800000001,-0.96586883,-0.9952888000000001,-0.3604803,-0.8423483,0.22591542
7.810202,-1.3602417,-1.1738868,-0.36580357,-1.1186165000000001,-0.24781929999999996
8.071016,-1.2739833999999999,-1.5736609,-0.008080875,-0.84021896,-0.9765815000000001
7.899572999999999,-0.7086933000000001,-1.8668740000000001,0.3879518,-0.31799898,-1.3130111999999998
7.91185,0.56376743,-2.518911,0.4715356,0.16905259,-0.78120935
7.9689374000000015,1.7530824,-3.2566507000000002,0.23198916,0.29626963,-0.24570745
8.961228,2.4395766,-3.3223572,0.15053464,0.404864,0.08058185
11.194530499999999,1.5141314,-2.2026176,0.07016224,0.5384864,0.23816763
12.720039,-0.919565,-1.7916961,0.047804568,0.59651864,0.23390903
10.829357,-2.053363,-2.9149979999999998,0.21495475,0.4612905,0.1998402
9.200314,-1.190876,-4.0706887,0.7520624,0.22706734,0.10135127
12.395127,-0.25069207,-2.9897833,1.2630948,0.15468854,0.082187556
16.186957999999997,-1.0876093,1.4373063,1.5122231000000002,0.06843436,0.16097172
18.548551999999997,-2.3839164,3.2857547,1.5537444,-0.053983033,0.23177972
13.567146,-2.534186,4.100722,1.381271,0.13178982,0.23815018
7.5789413,-0.52099746,0.58457786,1.0304773,0.25583035,0.0715585
6.798432000000001,2.3239367000000004,-0.25890896,0.64187974,0.11582005,-0.14243633
8.024952,3.3641405,-0.5018343,0.29586822,0.000297,-0.34204963
9.531404,1.8844762,-0.8721981,0.14947,0.010943214,-0.45012042
10.109794,-0.94625556,-0.34295502,0.27190486,-0.11519173,-0.36920694
10.077463,-3.8028638,1.5970187,0.58597684,-0.30949923,-0.28136453
9.628559,-5.2313113,2.0845835,0.8558571,-0.5314701999999999,-0.31864476
8.01595,-4.61626,0.122918315,0.80370665,-0.48249626,-0.2664594
7.411577,-2.9334238,-1.2621082000000001,0.668496,-0.27862436,-0.19938642
8.502749,-0.13207375,-1.6676381,0.50506335,-0.28075367,-0.37559485
9.230605,1.6998544999999998,-3.0364318,0.1452114,-0.25040239999999997,-0.3963468
8.6753235,2.2987783,-3.8248425000000004,-0.09538224,-0.33983305,-0.16744688
7.3590007,1.7071903000000002,-3.7055057999999996,0.12604767,0.5358161,0.28075367
7.120682,0.25462815,-2.9708595,-0.09112364,1.1346909,0.98022926
7.034432400000001,-1.0732057,-2.0379157,-0.3434459,0.055676002,1.2453273999999999
6.960567,-2.1652586,-1.976902,-0.40200168,-0.27223647,0.773146
8.475752,-2.7567413,-1.6114893,-0.21142918,-0.052918382,0.17322393
10.751142999999999,-2.765935,-1.9352044999999998,-0.06983062599999999,0.083356924,-0.20790362
11.886312,-1.1823814,-2.7358735,-0.1576556,0.035430185,-0.22387338
12.353553999999999,1.154484,-3.052023,-0.17416641,-0.3233397,-0.18554595
10.890141499999999,2.4773667,-4.2689285,-0.16564920000000002,-0.12051498,-0.17596409
9.470074,2.2665908,-4.703208,-0.23219859999999998,0.4224395,-0.1749169
11.730574,1.4566706,-2.0628347,-0.407866,0.6193999,-0.18980455
13.342628,1.4289745,2.5290816,-0.6793519,0.5565855,-0.22389084
12.866833,1.1993132,1.9879248,-0.93113315,0.37400659999999997,-0.32023302
11.642600999999999,0.6974214,2.070678,-1.0455744,0.26326546,-0.32662090000000005
10.187673,0.24250391,0.6680589,-0.95294976,0.10890854,-0.21535617
10.499321,-1.5297896,1.1416416,-0.6399424,-0.15777776,-0.021066124
9.621445,-2.3811102,0.05264371,-0.24389231,-0.3020467,0.15032521
9.181371,-1.9636092,-1.1265006000000002,0.06749188,-0.19451694,0.22643901
9.094021000000001,0.008686163,-1.2336076,0.0903906,-0.11253883,0.18120009
8.880382,1.5612686000000002,-1.1500691,-0.14168583,-0.03694862,0.119991384
8.758613,2.1896124,-0.8116535,-0.4882384,0.123272605,0.14606660000000002
8.889643,2.5350957000000003,-1.0901854,-0.75173074,0.06258751,0.191323
9.052667999999999,2.4934175,-1.2945737,-0.6793519,-0.21952751,0.11145672
8.982911,1.3489985,-1.3242521,-0.38124973,-0.36805505,0.13009684
8.477897,-0.4549462,-0.9602856,-0.22900465,-0.38189548,0.22643901
7.824701299999999,-1.9223716,-0.8846767,-0.17470746,-0.72523665,0.12529719
7.281265299999999,-2.4621298,-1.2096177,-0.23537510000000003,-1.179319,-0.2866878
7.2786508,-1.7952298999999998,-1.5908992,-0.066636674,-0.58896136,-1.0681415
7.801937,-0.40873814,-1.7455933000000001,-0.07675958,0.14988887,-1.0245082
8.233105,0.9899258,-2.0734842,-0.5286951,0.23080234,-0.34524357
8.437627,2.1397173,-2.8775816,-0.86406016,0.36334264,0.09122836
8.860921000000001,3.2595236,-3.0394006,-0.943909,0.5432686,0.20462239999999998
10.985383,2.3415866000000003,-2.7994632999999998,-0.8731184000000001,0.5448743,0.23603833
12.309683,-1.1319404,-2.379367,-0.70488614,0.45490262,0.24294983
11.155621,-2.8606974999999997,-2.444097,-0.41105995,0.37611845,0.28927088
10.378912,-2.3569765,-3.6629657999999994,0.053651422000000004,0.22015584,0.35419709999999993
12.803233,-0.23396139,-2.6554666,0.5146452,0.07695156,0.39625955
16.271463,0.14337437,2.8364107999999995,0.8505513000000001,-0.02310816,0.3840248
18.148098,-0.3245484,1.6853744,0.93359405,0.02745403,0.33079225
11.894461,-0.072391085,1.9478939,0.73981017,0.19353956,0.25305527
7.2685759999999995,1.9800621999999999,-1.1794508,0.4970872,0.21003293,0.056635935
7.586593,3.4299622000000003,-0.5834381999999999,0.15639895,0.22334978,-0.20525073
8.1613455,2.90726,-0.37390727,-0.026703538,0.16425294,-0.40434042
8.922328,0.7307965999999999,-0.096313946,-0.07250097400000001,0.09398598,-0.42350414
9.586374000000001,-1.7233751,0.46305776,0.17928022,-0.08911651400000001,-0.31970942
9.444887,-3.92289,1.0925508999999998,0.64240336,-0.24082053,-0.3314031
8.217887,-5.0664563,0.6656168,0.9106953999999999,-0.36805505,-0.38037705
7.5889106,-4.6891303,0.015150508,0.86118037,-0.3760312,-0.24305455
8.124551,-2.7945599999999997,-0.4887715,0.6817954,-0.32599258,-0.15095353
9.086445,-0.034620155,-1.7737585999999999,0.505587,-0.106150925,-0.38304740000000004
9.135546000000001,1.6401718999999997,-2.690738,0.34323645,0.051399945999999995,-0.5070705
8.38235,1.9932400000000001,-3.2508373,0.48429397,0.10304424,-0.18715166
7.7416224,0.7650528,-3.0278127,0.11274827,0.9563531999999999,0.639541
7.968736,-1.030359,-1.9478555,-0.26146778,0.6539923000000001,1.383732
8.082557000000001,-2.5856805,-1.5240242,-0.45575783,-0.005009095,0.8577944
8.469374,-2.8479794999999997,-1.2787815,-0.47066295,-0.23975588,0.23071507
8.901575,-2.6409290000000003,-1.727359,-0.43394122,-0.08805186,-0.09613273
9.722508,-2.0787033999999998,-2.5218606,-0.39402553,0.08281587,-0.17650515
11.139138,-1.620731,-2.6365237,-0.34876913,-0.21846285,-0.18873991
12.728006,0.085425116,-2.2242997000000004,-0.26626742,-0.23603833,-0.13604842
11.762282,1.9154093,-3.2148957,-0.25720918,0.124337256,-0.10676179
10.540215,3.0764822999999994,-1.1858673,-0.40200168,0.23558454,-0.10997319
10.379918,3.1201715,0.42554542,-0.60854393,0.12166689999999998,-0.11582005
12.545052,2.9867953999999997,1.3841166,-0.8049633,0.035430185,-0.1237962
14.783152,2.0513232,3.031203,-0.965743,0.11794935,-0.16001178
12.636022,0.8896758,1.3555298999999998,-1.029081,0.1195376,-0.1818284
9.373951,-1.3731321,1.6612791,-0.968937,0.060981803,-0.10091494
8.1884575,-1.913647,0.8458427,-0.75068355,0.0061610119999999996,0.081122905
8.774471,-1.471735,0.31296048,-0.43819982,-0.047054075,0.25944320000000004
9.993025,0.21956745,-0.48861825,-0.19226547,-0.10773917,0.35419709999999993
9.766169,2.052664,-0.67315376,-0.14276794,-0.13702579999999998,0.3286455
8.625112,2.2130468,-1.020361,-0.20558234,-0.10880382,0.24082053
7.7846417,1.7419158,-1.5844731,-0.35250413,-0.017784905,0.24560273
7.758363,1.4552724,-1.629398,-0.46801004,-0.04811873,0.28766516
8.410208,1.2288,-1.3428886,-0.36686820000000003,-0.21739821,0.15936601
8.655461,0.94103616,-1.1339226,-0.16564920000000002,-0.25146705,0.05396558
8.245448,0.5914060999999999,-1.0258578999999999,-0.10337585,-0.074735,0.11145672
7.889249,-0.096687436,-0.8768812,-0.06611307,-0.1961052,0.09283406
8.021466,-0.6198971,-0.8487062,0.06855653,-0.51443577,-0.031189033999999997
8.087862,-0.92156655,-1.2969295,0.38262853,-0.6938382,-0.5549798
7.696324300000001,-0.7481593000000001,-1.8092504,0.58278286,-0.5453107,-1.3077054
7.7106794999999995,0.0967449,-1.8097196,0.26125833,0.22280873,-1.0660121
8.375502000000001,1.3721169,-2.112701,-0.05279621,0.32023302,-0.42563343
9.381248,1.9759921000000003,-2.2741467999999996,-0.21409954,0.5651027,-0.027471482999999998
11.4866705,1.9538984000000001,-2.1968331,-0.37538540000000004,0.70403093,0.17905332
13.310765,0.17867449,-2.278897,-0.39721948,0.53688073,0.27382470000000003
11.429038,-1.1649227,-3.2159588,-0.2263343,0.19886282,0.20781635
9.720861,-1.086163,-4.254985,0.07494444,0.14721853,0.061418135
11.014199000000001,-0.056139242,-4.386714,0.63121575,0.21057397,0.047577675
14.060917000000002,-0.20238666,-1.2202575,1.0778456,0.10250319,0.20355774
17.265383,-1.6687874,4.1993339999999995,1.3551784,-0.2903355,0.27541295
16.016827,-2.5038178,4.1737447,1.469637,-0.34782666,0.254661
9.5028925,-0.61770403,0.6647932,1.3871353000000002,-0.02310816,0.12424999
7.301664,2.9909804,0.6195906999999999,1.1033971000000002,0.18767525,-0.08655088
7.573358,4.9109097,-0.24843195,0.8638507,0.056723199999999994,-0.26700047
7.6080933,3.6418107,-1.1123941000000002,0.7419395000000001,-0.17535323,-0.39049998
8.295152999999999,0.94492435,0.20986615,0.83404046,-0.3281219,-0.39901718
9.882947999999999,-1.9414581000000002,0.6484073,1.0405828000000001,-0.36964327,-0.3425907
10.566378,-4.519151,1.2734663,1.2492543,-0.33450979999999997,-0.30000463
8.505823,-5.442413,0.69830245,1.2992928999999998,-0.4622679,-0.29361674
6.842925,-4.434004,-0.49233407,0.9005898999999999,-0.29991737,-0.12646656
7.988216,-1.8797452000000001,-0.70569575,0.48164105,-0.16470672,-0.25476572
9.897688,0.8152927,-1.5432642,0.11965977400000001,-0.19291124,-0.52038735
9.973986,2.1155262,-3.125228,-0.07250097400000001,-0.121056035,-0.43575636
8.439293,1.8594328000000002,-3.5467608,0.20322613,0.12486085,0.020437805
7.432129,0.58418524,-2.5744946,-0.09485865,0.75300485,0.7805985
7.331936,-0.9433441999999999,-1.7212874,-0.55957,0.5656263000000001,1.3959666000000002
7.985017299999999,-1.8913236,-1.6984947,-0.86831874,-0.08857546,1.140974
8.346226,-2.6685677000000005,-2.7382581000000004,-0.8624719000000001,-0.20942205,0.48834312
9.448641,-2.2227,-2.5453238,-0.7352373999999999,-0.12796754,-0.045029495
10.565114,-0.5770409000000001,-3.1293173,-0.6745523,0.047141342999999995,-0.24144885
11.2812395,1.2421885,-3.3905727999999997,-0.7059508000000001,-0.13648474,-0.17702875
11.894567,2.8594527000000003,-3.0964785,-0.697451,-0.13967870000000002,-0.04022984
10.650224,3.7650065,-4.008382,-0.6979746,0.40221113,0.10293952
11.025317999999999,3.0601057999999997,-1.4999865,-0.87737703,0.7386408,0.18545869
12.068194,1.922975,0.51588345,-1.2446816,0.6880611999999999,0.1465902
12.276432000000002,1.9110806,0.8975,-1.6252855,0.39741147,-0.06897541
12.37851,1.8485918999999997,2.26118,-1.9164762,0.065240405,-0.3031986
10.64985,1.5535305,1.1418043,-1.968103,-0.11519173,-0.39104099999999997
9.677565,-0.5418174,1.40916,-1.7306860000000002,-0.258396,-0.27019440000000006
9.353705,-2.115909,0.47965437,-1.32186,-0.29565877,-0.033841934
9.341045,-2.3352852000000004,-0.48671246,-0.75546575,-0.22272147,0.20888099999999998
9.045563000000001,-0.8295621,-1.0029024,-0.4531049,-0.13967870000000002,0.29618236
8.973467999999999,1.5913876,-0.5096968,-0.45151670000000005,-0.12531464,0.29831168
8.898767999999999,3.0629213,-0.26025929999999997,-0.52124256,-0.1332908,0.20566959999999998
9.162447,3.2342026,-0.9948962,-0.6282486999999999,-0.030019663,0.11571533
9.784366,3.0616956,-1.8523936999999997,-0.68626344,0.037559487,0.19662879999999996
10.075711,2.4147822999999997,-2.3989232000000005,-0.5377534,-0.11732103,0.30789354
9.379496000000001,0.18041746,-2.2903316000000005,-0.35941565,-0.43671629999999995,0.3845484
8.435165,-1.684771,-1.7096514999999999,-0.28808406,-0.60918975,0.29457667
7.358206,-2.3715238999999997,-1.449689,-0.045343652000000005,-0.67680377,-0.028536132999999998
6.7831564,-2.335036,-1.2344791000000002,0.23942427,-1.2596914,-0.60981804
6.717459700000001,-1.6202136999999999,-1.1083238000000002,0.49228758,-0.39892990000000006,-1.24435
6.836728999999999,-0.7677439,-1.829103,0.21547835,0.32981488,-0.7663392
7.108088,-0.2017546,-2.5111057999999997,-0.24762732,0.23931955,-0.18610446
8.338123,1.0801009,-2.2873917,-0.6133436,0.20258036,0.16521287
10.460162,2.4480042,-1.9814988000000002,-0.8140215999999999,0.4421268,0.27701867
12.040871000000001,0.84635025,-2.0896306,-0.6825459,0.520911,0.30361748
11.508669,-1.4472758,-2.6195917,-0.3349287,0.38995892,0.24562019
10.459491,-2.0526161,-3.8904052000000005,0.095696405,0.28509954,0.18915878
12.435551,-2.1574247000000004,-3.8811543,0.58597684,0.10250319,0.26689574
15.94864,-1.2522728,-2.2466807,0.9388999,-0.10773917,0.48036698
17.8572,-0.3789734,4.5640472999999995,1.2141209,-0.33238049999999997,0.51441836
15.093134,-0.45274353,1.7074201,1.2300906,-0.05024803,0.41914082
8.647617,0.5237843,0.47794970000000003,1.0283306,0.25528932,0.22218041
6.940877,2.3279014,-1.206534,0.7334223000000001,0.23132594,-0.023736477000000002
7.7283683000000005,4.184614,-0.5369524,0.4661949000000001,0.16105898,-0.20312142
8.18773,3.9909236000000003,-0.6720716,0.30223867,0.18502235,-0.23347269
8.91818,1.3204885,1.0333374,0.36985272,0.06578146,-0.13711306
10.021247,-2.4783722999999998,1.9278592,0.71638787,-0.14606660000000002,-0.110514246
9.92999,-5.770428,1.8005258999999998,1.070393,-0.2844712,-0.13817772
7.5819197,-5.914789,-0.15775874,1.1843106,-0.4010592,-0.07164577
7.1733923,-4.377204,-0.89919513,0.8755619000000001,-0.48197266,0.15617207
9.150505,-1.6230676000000002,-0.96320647,0.61844,-0.25733134,0.13222614
10.580227,0.9275808000000001,-2.2946603,0.44277257,-0.04811873,-0.22921409
9.898453,2.29173,-3.5992610000000003,0.21334904,-0.32866296,-0.31970942
7.996786999999999,2.1214638,-3.2226338,0.07920304,-0.38135445,-0.09719738
7.5072875,0.40768465,-2.0529609,0.19737929,0.26912978,0.23230332
7.824213,-1.5347983,-1.4573698,0.32087877,0.86798716,0.97275925
8.363338,-2.8806365,-0.87936157,0.23303635,0.41338122,1.1335216000000001
8.244424,-2.6533692,-1.312511,0.350689,0.09239773,0.65442866
8.07072,-1.7924335,-1.9691447,0.5348736,-0.015655603,0.18013543
8.814464,-1.4191008999999999,-2.8119419,0.6439916,0.20099212,-0.11794935
11.311568,-0.35458127,-2.92197,0.7131939,0.16053538,-0.22869049
13.368552,1.7967334,-2.9425027000000004,0.6306921999999999,0.23719025,-0.26275933
10.720871,2.449182,-4.387212,0.49494046,0.64015186,-0.31012756
8.997094,1.3882636000000002,-3.2994301,0.26923448,0.7870736999999999,-0.35004324
11.175147,0.12401007,-1.4590553,-0.17683676,0.64175755,-0.32077405
13.092710499999999,0.48481625,2.4479083999999998,-0.5931152,0.29894,-0.30799824
13.7189865,1.3112754999999998,2.264503,-0.68839276,-0.02417281,-0.33833209999999997
11.70304,0.025167849,0.68434906,-0.53508306,-0.12370893,-0.33248523
9.626894,-0.47116932,0.6899611,-0.21142918,-0.15138985,-0.16798794
9.730686,-2.065296,0.34361579999999997,0.17502162,-0.23336798,0.11465068
9.929606,-2.4200974,-0.041304767,0.48589966,-0.17374752,0.3329041
10.671435,-0.9248417999999999,-0.43740150000000005,0.5753303000000001,-0.0071383969999999995,0.37655479999999997
11.17078,1.8539835999999998,-0.8522591999999999,0.38262853,0.124337256,0.2807362
10.477132000000001,3.8626803999999995,-0.27769867,-0.091664694,0.2824292,0.22802727
8.808871,4.21526,-0.1936526,-0.6154729,0.23399629,0.27541295
7.5387854999999995,3.1398807,-1.2838284,-0.8986700000000001,-0.1285086,0.17640042
7.8136589999999995,1.679475,-1.5879111000000001,-0.8842885,-0.33185690000000007,-0.054070299999999995
8.401866,-0.75342655,-1.3579816,-0.40147808,-0.30417597,-0.14936528
8.012704,-2.2995064,-1.287525,0.11114257,-0.3552792,-0.03918264
6.6251583,-2.6905656000000002,-1.1639363999999999,0.11007792,-0.92964965,-0.09452703
5.9423895,-2.1754675,-1.1392378,-0.035761796,-1.0020459000000002,-0.39210567
6.9344893,-0.61604726,-1.4848264,0.5045223,-0.97384137,-1.0788053999999998
8.553678,1.50466,-1.9574515,0.77494365,-0.22059216,-1.1597188999999999
9.51927,2.9663392999999996,-2.4626856,0.41402700000000003,0.15414748,-0.7093716
9.498134,3.2704506,-3.1977724999999997,0.005742133000000001,0.18502235,-0.22497293
9.647043,2.7557645,-3.1976287,-0.23378685,0.46289623,0.08909906
10.908998500000001,1.5601481000000001,-2.9814131,-0.35463345,0.7317118,0.12796754
12.171882,-0.22216277,-2.3853432999999997,-0.4211654,0.69444907,0.12210324
12.112276,-2.0943232,-1.2011136,-0.22368139,0.5123938,0.18652333
11.7931,-2.9425793,-2.4280557999999997,0.34855970000000003,0.19779816,0.29989994
13.131373000000002,-2.4540567,-3.3827865,0.8931199000000001,-0.066217795,0.42924628
15.466945999999998,-2.4032614,1.3910694,1.1049854,-0.08911651400000001,0.47876126
16.312126,-2.230467,5.104093,1.1379895,-0.02417281,0.46544442
10.464347,-0.93407387,2.040722,1.0144901,0.15360643,0.37283725
6.1810627,2.2732754,0.10411904,0.77707297,0.15201817,0.1529781
6.344357,5.2333517,-0.21040244,0.48164105,0.032777283,-0.07590437
8.118834,5.0132,-0.36039440000000006,0.13508849,0.065240405,-0.27125907
10.358869,1.8520588,0.10476069,-0.010751228,-0.030560715,-0.37508872
11.558803999999999,-1.8516182,0.5513846,0.07494444,-0.20516345,-0.33834952
10.936522,-4.333189,1.399813,0.33365458,-0.29405308,-0.25635397
8.600911,-4.7390633,1.4699726999999998,0.615246,-0.3973242,-0.19355701
7.076408,-3.795432,-0.07974607,0.7435451999999999,-0.5421166999999999,-0.20366247
7.58304,-2.2954936000000004,-1.2261665000000002,0.6711489,-0.40425315,-0.15310028
8.874156,-0.42268196,-1.9624505,0.48270569999999996,-0.28340656,-0.21272072
9.178977,0.53454864,-2.8556793,0.122853726,-0.22113322,-0.24359560000000002
8.56676,1.2550118000000001,-3.2501385,-0.13425073,-0.29352948,-0.020559978
7.5792766,1.2234275,-3.2268572,-0.13850933,0.24251350000000002,0.54688144
7.464958,0.23332931,-2.8835285,-0.23804545,0.32820916,1.1414977
7.4821386,-0.98787636,-1.9785682,-0.45896924,0.08068657,1.0456790999999999
7.6660614,-2.0150845,-1.6478811999999998,-0.43926448,0.018936822,0.5165476
8.637112,-2.9153237,-1.1536986999999999,-0.21036454,0.023195425,0.13114405
10.319154,-3.6772160000000005,-1.4435695,0.014782938999999998,0.19566886,-0.063669614
12.07735,-2.9625757,-2.2185917,0.21760765,0.21322687,-0.15097098
12.588119500000001,-0.70199907,-2.9002209,0.24102996,0.32981488,-0.22230259
11.842871,1.358719,-3.422904,0.07546803,0.6886021999999999,-0.27659976
10.275406,2.7758088,-3.8378286,-0.25455627,0.68380255,-0.2819056
11.068146,2.8041754,-1.8732522,-0.74907786,0.3878296,-0.26221827
12.854230000000001,2.6572478,2.241605,-1.0509151,-0.09337512,-0.3308795
14.070053,1.4283329,2.0920918,-0.93806213,-0.3110875,-0.42671555
11.680534,-0.15531665,1.0607942,-0.67348766,-0.09496336400000001,-0.40915754
9.023995,-1.7012334999999998,0.81201744,-0.36421529999999996,0.03436553,-0.19036306
8.265752,-2.8869569999999998,0.58175266,-0.010210176,-0.0763407,0.07897615
8.281362,-2.9181201,0.41305724,0.2772281,-0.036407568,0.21046926
9.823342,-1.4907832,0.31061417,0.3576005,0.09772099,0.20301670000000002
11.383165,1.1664264,0.09911037,0.22560126,0.078016214,0.16577137
11.921209,4.1067165999999995,0.3808217,-0.082606435,0.029583331,0.16097172
10.00332,4.7111855,-0.3251613,-0.43767622,0.01839577,0.15936601
7.8389897,2.7599687999999998,-2.1056046000000004,-0.64315385,-0.022043508,0.11836823
7.8864527,0.7559836,-1.9990052,-0.5782101,-0.11945033,-0.012566371000000002
8.541784,-1.3510001,-1.0791336999999999,-0.23591615,-0.28820622,-0.060999255999999995
8.173163,-2.6389177000000004,-1.1611878999999998,0.07440338,-0.36325538,0.022567106
6.8923798,-2.868062,-1.5627625,0.015323991,-0.815732,-0.03598869
6.487147,-2.0364792,-1.4193784999999999,-0.05333726,-1.1260865,-0.16907005
7.4068265,-0.571946,-1.6042013000000002,0.20109683,-1.0073691999999999,-0.5416804000000001
8.295133,1.0367564,-2.0130734,0.43692570000000003,-0.46919686,-1.0857344
8.134377,2.1679592,-2.6516740000000003,0.21706660000000003,0.16638224,-0.8153130999999999
7.865546000000001,2.4287259999999997,-2.9503652999999996,-0.15500268,0.20099212,-0.28457594
8.774721000000001,2.4576290000000003,-2.7753394,-0.43926448,0.29094640000000005,0.08323475
10.816314,1.6126386000000001,-2.044562,-0.5680871999999999,0.46767843,0.19982274
12.951559,-0.09368032,-1.9314216,-0.48504445,0.6215291999999999,0.17266542
12.655377,-1.6772436999999998,-2.0023859,-0.3040538,0.6715678,0.09016371
11.384084,-2.3755078,-2.9979331,-0.016074482,0.47567204,0.07419395
12.005514,-1.5250107,-4.095062,0.5391322,0.10037389,0.16043067
13.2943125,-0.24575044,-1.821681,0.95221674,0.022654373,0.37069046
16.002901,0.18456422,3.7804252999999997,1.1992158000000002,-0.09550442,0.5080479
14.280320999999999,0.0889398,2.6526412999999995,1.2822585,-0.04918338,0.5112244
8.481517,0.6337164000000001,0.8524507,1.1108497,0.10410889,0.35365605
6.639437700000001,2.0154867,-0.53698117,0.7690793,0.063111104,0.08110545
7.562517,3.3319913999999997,-0.7609156,0.32407275,-0.011397,-0.18662806
8.948971,2.7327898,-0.5080305,0.03181735,-0.074735,-0.36442474
9.945035,0.6884958000000001,0.75380003,-0.030979594,-0.19664624,-0.38892916
10.323673,-1.9614831999999998,1.1836646,0.26497588,-0.41277036,-0.31332150000000003
10.290232000000001,-4.388543,1.5268878000000001,0.69190085,-0.45216244,-0.26010639999999996
8.661273,-5.082344,0.9540607,0.89844316,-0.47877872,-0.22443189
7.616367299999999,-4.3595157,-0.2856187,0.8036892,-0.59695494,-0.08602728
8.603468,-2.2757654,-0.96119535,0.59662336,-0.4053178,-0.10677924
9.480378,0.15463671,-1.9603531000000003,0.33950144,-0.23656192,-0.3963468
9.346005,1.7146411,-3.402879,-0.048537605,-0.33292156,-0.40383428
8.082279,2.3446035,-4.2218103,-0.14861478,-0.4702615,-0.059411008
7.013785400000001,1.3984723999999997,-3.8124406000000004,0.10208431,0.20151572,0.533041
7.245812,-0.31586224,-2.7230597000000003,-0.026720991,0.5235813,1.140974
7.5301375,-1.8304821,-1.5609716999999999,-0.15180874,0.09717993400000001,0.9051452
8.008049,-2.2586803,-0.93187124,-0.19812977,-0.054506633,0.4505393
8.581623,-2.9280223999999997,-1.4495934,-0.15767305,-0.15512486,0.048642326
10.128297,-2.9720182,-2.2081914,-0.005427974,-0.02310816,-0.16533504
11.960714,-1.4651173000000002,-3.1625586,0.059498273,0.01733112,-0.21111503
13.129361,1.1218367,-3.5617101000000004,-0.059725165,0.25422466,-0.17598155
11.226709,2.7210292999999997,-5.3165736,-0.17948966,0.7136128,-0.123272605
9.506905999999999,2.521506,-4.8893814,-0.39774308,0.9249546999999999,-0.07485717
11.433567,0.89980805,-0.8673714,-0.8188211999999999,0.93879515,-0.10677924
13.655089000000002,1.0634373,3.677398,-1.1935784,0.588525,-0.24359560000000002
13.772578,0.6377579000000001,1.9283667000000002,-1.3176013999999998,0.14669493,-0.34686673
10.661218,0.30366138,0.6899801999999999,-1.2297764,-0.044924773,-0.369748
8.148388,-0.41055772,-0.23346339,-0.90931654,-0.16364206,-0.19888027
8.733435,-1.5557235,-0.13435303,-0.37592646,-0.1961052,0.06832964
9.757033,-2.131165,-0.13726437,0.061103977000000004,-0.21474531,0.27167794
10.847859,-0.8098914,-1.4070148,0.24209462,-0.16310102,0.30255282
9.870757000000001,1.4146763,-1.8969452000000002,0.060562924000000004,-0.08911651400000001,0.22589797
9.365896000000001,2.7572202999999997,-1.1008636,-0.33812264,0.08494517,0.18917623
9.445806,3.6396656000000003,-0.9278968000000001,-0.65112996,0.22867304,0.15243706
9.340394,3.6454117,-1.5267537,-0.62931335,0.0019024089999999999,0.047577675
9.112667,2.431235,-2.0655255,-0.42542399999999997,-0.28075367,0.035325464
8.604502,-0.2510177,-1.6781151,-0.1635199,-0.34835026,0.16627751
7.816178,-2.2057972,-1.6082332000000001,-0.0421497,-0.6049310999999999,0.18811159
6.592377000000001,-3.0259645,-1.4606642,-0.062378067999999995,-1.0952115,0.02734931
5.9846425000000005,-2.9875615,-1.0943034,0.112730816,-1.5737633999999998,-0.34526104
6.4631186,-1.786266,-1.05161,0.37889352,-0.78592175,-0.8839744
7.6834145000000005,0.05796841,-1.868502,-0.10976376,0.23877849,-0.49911179999999994
8.229369,2.0823712,-2.8896291,-0.5090077999999999,0.29626963,-0.056199603
9.442425,3.0470622000000005,-3.2937992,-0.4249004,0.34524357,0.12370893
11.50933,3.0591195,-2.8062150000000003,-0.37379718,0.47619563,0.29562387
12.436738,0.43555316,-2.3912714,-0.3956138,0.43893287,0.33822736
11.372583,-1.5990872,-2.504086,-0.3839026,0.3920882,0.37760198
10.591958,-2.4256423,-2.1506157000000004,-0.2609442,0.40859902,0.43882814
11.451333,-2.2302754,-2.7342932,0.046722464000000005,0.16957618,0.49312532
12.587113,-0.91449887,-2.4013652999999997,0.36718237,0.011484266000000002,0.4590565
15.376837,-0.2611595,2.5538950000000002,0.55562556,0.1254019,0.39465386
14.781581,0.27496928,2.2774603,0.62163395,0.24675465,0.33981562
10.032721,1.2931754999999998,-0.34355837,0.5689424,0.20631537,0.26422540000000005
9.084425,2.624275,-0.12230539999999998,0.43425536,0.1237962,0.13966125
8.9360895,2.3473232000000004,-0.21821712,0.20163789999999998,0.063111104,-0.056217055999999994
9.224198,0.6362639,-0.68449265,0.031293754,-0.019914206,-0.25211279999999997
9.13252,-1.1333864,-0.8280681999999999,0.008936086,-0.19929914,-0.30747464
8.440154,-1.8070188999999999,-0.7505056,0.26338765,-0.34728559999999997,-0.277647
7.880112599999999,-2.4422486,-0.69413656,0.615246,-0.37070793,-0.355925
7.676356299999999,-3.5298674,-0.24036828,0.74406874,-0.33079225,-0.36815974
7.982479,-3.833912,0.017832015,0.5923647,-0.43832198,-0.13178982
8.672162,-2.7391775000000003,-0.5528691,0.38528144,-0.27914795,-0.14458308
8.832995,-0.860591,-1.5581848999999999,0.10156071,-0.09443977,-0.24890140000000002
8.341054,0.53649276,-2.5016917999999997,0.003071779,-0.53839916,-0.1168847
7.9101357000000005,0.8192767,-3.093481,0.11327187,-0.40957642,0.063006386
8.042363,-0.15115075,-2.9220273,0.17502162,0.6614449,0.6176895
8.404797,-1.7401631999999998,-2.3443353,0.24741787,0.6172706,1.0659075
8.345564999999999,-3.158766,-1.9958448,0.15318754,0.27551767,0.6240774
8.607347,-3.4882467000000004,-1.446481,-0.006492625,0.04129449,0.20195204
9.346934,-2.498158,-2.158162,-0.06930702,0.020001473,-0.08122762
10.312717,-1.8650353,-3.3050040000000003,-0.006492625,0.21642083,-0.15788248
11.949451,-0.9915825999999999,-3.6623433,0.03874631,0.15521213,-0.26434755
12.2407875,0.83543277,-4.1321816,-0.10869910599999999,0.44638540000000004,-0.3607072
9.895972,0.96129113,-4.642089,-0.20877628,0.7870736999999999,-0.36337754
10.324832,-0.020829555,-2.6324916000000003,-0.35835100000000003,0.8935388000000001,-0.31278044
12.588483,0.18847156,0.03784754,-0.67774624,0.8094314,-0.27288222
13.717856,1.3534327,2.6106567000000003,-0.9353918,0.42137483,-0.31438616
13.535753,0.16564046,1.7922611000000002,-0.9087755,0.10356784,-0.34473744
11.07753,-0.43157879999999993,-0.6696199,-0.6878692,-0.041207224,-0.3042807
8.553544,-0.37168545,-0.6360915,-0.33812264,-0.08485791,-0.109449595
8.507278,-0.7101298,-0.18865351,0.026494099,-0.07527605,0.16521287
9.816706,-0.9102372,-0.6004754,0.2820103,0.04022984,0.33503342
10.382638,-0.41200382,-1.8657153000000002,0.32833135,0.10091494,0.34355062
9.670842,1.0059286,-2.0894678,0.10527826,0.22174408,0.30469957
9.457039,2.5412726,-0.122324556,-0.27265534,0.34950218,0.32545155
9.506848,3.1423895,0.118714094,-0.5185897,0.13285446,0.24240878
9.451044,2.3542185,-1.2257163999999998,-0.5718222,-0.23230332,-0.0008380000000000001
8.742102000000001,0.9177071,-1.5748581,-0.32695252,-0.38189548,-0.14458308
7.573990299999999,-0.9468493,-1.0875231,0.02490585,-0.48781952,-0.09400343
6.728252400000001,-2.1265585,-1.1584488000000002,-0.02617994,-0.7257776999999999,-0.048747044
6.0491133,-2.550639,-1.2397559999999999,-0.067701325,-0.9147445,-0.19620991
6.4718337,-1.9631592,-1.3341450000000001,0.17502162,-0.9727766999999999,-0.5810899
7.4703693,-0.5760449000000001,-1.4518535,0.5465848000000001,-0.50485396,-1.0953163000000001
8.300669000000001,1.0601716,-1.8660023999999997,0.05045747,0.4985532999999999,-0.7019191
8.365102,2.0084574,-2.4804792,-0.32695252,0.21163863,-0.19353956
8.956795,2.774851,-2.688679,-0.5105960999999999,0.08494517,0.074717544
10.624069,2.0294785,-2.1353216,-0.69690996,0.39369392,0.17694148
12.162057,0.17313908,-2.3575895,-0.7283259,0.517717,0.12370893
12.23097,-1.8647766,-1.2915952,-0.58192766,0.45437902,0.11677998
11.563908999999999,-2.5361493,-2.2944880000000003,-0.14861478,0.32129768,0.18598229
12.594411000000001,-2.0172393,-3.873646,0.46247736,0.058328904,0.25199065
14.649392,-0.7708371999999999,-2.261199,0.8446870000000001,0.017872171,0.37496653
17.275517,0.32543907,4.2379766,1.0081022,-0.030560715,0.45694464
13.805666,0.43449970000000004,3.4136050000000004,0.978833,-0.005009095,0.42711696
7.902091499999999,1.0580456,-0.2950231,0.710541,0.19566886,0.26850146
6.9574929999999995,2.2083733,-0.19513701,0.27616346,0.24197245,-0.009372418
7.759962,2.5275779,-0.63611066,-0.14755014,0.16744688,-0.21430898
9.148311999999999,2.0642903,-0.5346444,-0.41477749999999997,0.11102039,-0.33728486
9.891453,0.7739305000000001,0.5303157,-0.44512877,0.0061610119999999996,-0.30532790000000004
10.364174,-1.688707,1.2768086,-0.14222687,-0.14660765,-0.24038419
10.085498,-4.345524,2.216054,0.39379865,-0.24294983,-0.25050712
8.400602000000001,-5.4801839999999995,1.5295788000000001,0.66847855,-0.27010715,-0.25424212
7.468137700000001,-4.6695075,-0.000776,0.622175,-0.39147735,-0.14137167
8.625811,-2.0462668,-0.78847766,0.46832418,-0.36538467,-0.019477874
9.863584,0.70667255,-2.1968331,0.38421679999999997,-0.052377332,-0.14243633
9.684,2.0871023999999996,-3.36461,0.10740756,0.15308283,-0.29202849999999997
7.953403999999999,2.2940955,-3.9100666,-0.045343652000000005,-0.25253168,-0.045553092
6.802224000000001,1.4075608,-3.2978212999999994,-0.097511545,0.31969196,0.38561305
7.254738000000001,-0.35706168,-2.324425,-0.12625712,0.75461054,0.9030334000000001
7.831922500000001,-2.2143207,-1.3038822,-0.3578274,0.15947074,0.81625557
8.678014,-3.099543,-0.47872543,-0.2848901,-0.1934523,0.44629815
8.75845,-3.2413087000000003,-0.86285114,0.21387264,-0.29778808,0.12742649
8.714828,-3.2558653,-2.4281897999999997,0.35440657,0.030647982,-0.07325147
10.382188000000001,-2.414677,-2.760208,0.30384436,0.12966052,-0.09719738
12.943236,0.6164495,-2.3565361,0.2942625,-0.010332349000000001,-0.12807226
12.838724000000001,2.3984728,-3.7760296,0.2213252,0.2430371,-0.16214108
10.554637,2.2078946,-4.7822547,0.081855945,0.4980297000000001,-0.20685643
10.765680999999999,1.1949459999999998,-1.868732,-0.19067723,0.49909434,-0.20472711
13.104233,0.6566241999999999,1.6942137,-0.5111371,0.38995892,-0.25317746
14.0594225,0.50700575,3.8203607,-0.6851988,0.25048965,-0.30586895
11.525648,-0.74690473,0.57619816,-0.6660351,0.083339475,-0.27818802
9.154039,-0.9066171000000001,1.1548958999999999,-0.4690747,-0.10295697,-0.14830063
8.894584,-1.4841369,2.3258522,-0.17364279999999999,-0.18332939,0.048101272
8.862117999999999,-1.8675157,0.27647284,0.071750484,-0.11519173,0.25677285
9.41878,-1.2266451999999999,-0.20381359999999998,0.12498303,0.014137166999999999,0.37283725
9.656858999999999,0.4815793,-0.8381334,-0.009686577,0.11901400000000001,0.3110875
9.2464075,1.6661345,-1.0821025,-0.35835100000000003,0.26220079999999996,0.24720843
8.839757,2.2034414,-0.8647857,-0.7682416,0.4006054,0.28660053
8.697894999999999,2.219425,-0.9435549000000001,-0.94284433,0.16585864,0.15351915
9.02909,2.1656127,-1.1366041,-0.7703709,-0.29672343,-0.09772099
8.670639999999999,1.0459789000000002,-1.1430781,-0.37805578,-0.49314278,-0.14830063
8.167953500000001,-0.44426808,-1.1727853000000001,-0.14915584,-0.5916316999999999,-0.012566371000000002
7.735264,-1.7618356,-1.1041389,-0.24390976,-1.0680542,-0.008290314
7.1463665999999995,-2.2509136,-1.1718754999999998,-0.28330183,-1.0813711000000001,-0.14990632
7.4433336,-1.4230465,-1.7714506,0.028623400000000004,-1.0835004,-0.8424530000000001
8.173316,0.25421634,-2.0099611,0.15957545,-0.35793212,-1.0697472
9.001902000000001,2.0481246,-2.1029997000000002,-0.33599332,0.19353956,-0.6252641999999999
8.692167999999999,2.9908848,-2.5985804,-0.59896207,0.06471681,-0.1855634
9.054872,3.1582775,-2.5778465,-0.6159965000000001,0.3425907,0.16842428
11.103244,1.6309493999999998,-2.1994095000000002,-0.70329785,0.6428222,0.33449236
12.352912,-1.2308591999999998,-1.4808903999999998,-0.7304552,0.64866906,0.28232446
11.816285,-3.014482,-0.80820584,-0.58192766,0.58107245,0.254661
11.411043,-2.773989,-2.4338305,-0.00275762,0.25209534,0.31586970000000003
12.351802000000001,-0.80920184,-3.5428631,0.6732781999999999,0.02904228,0.42819908
14.293106,0.08554004,0.4379857,1.0560114,0.021066124,0.49527207
16.590220000000002,-1.0488328000000002,5.0988164000000005,1.1316017,0.11102039,0.47930232
11.7262535,-0.74189603,1.6821948,0.91708326,0.18715166,0.40955895
7.934748599999999,1.259714,-1.0016766,0.52687997,0.12646656,0.18491763
8.334714,3.4206247000000003,-0.38688385,0.012653636999999999,0.036494836,-0.1312662
8.880334,3.095157,-0.6951324999999999,-0.4488463,-0.02469641,-0.42830379999999996
9.653115,0.9476155,-0.60365486,-0.6032206999999999,0.000297,-0.5475446999999999
10.403725999999999,-1.6483599999999998,0.49157748,-0.25029767,-0.2647839,-0.4889889
10.101952,-4.0571660000000005,1.572435,0.42041490000000004,-0.6235712,-0.44905576
8.936999,-5.217301,2.2273066000000004,0.7147996,-0.5069832000000001,-0.41181043
7.782964999999999,-4.567313700000001,1.0008242,0.6754074999999999,-0.49314278,-0.13444272
7.7251883,-2.9364982000000004,-0.43491152,0.43586108,-0.4926192,0.10932742
8.323969,-0.4222031,-1.6309876,0.24794148,-0.17268288,-0.056199603
8.428261000000001,1.3711976000000001,-3.1227857999999995,0.13508849,-0.08751081,-0.18769270000000002
7.9701443,2.4768496,-4.205894,0.055780724000000004,0.035971235,0.01563815
7.144719,2.3373346,-4.313135,-0.09060004,0.7231946,0.5421166999999999
7.417103,0.5220317,-3.3333418,-0.19865337,0.8472351999999999,1.1303276000000002
7.5900693,-1.6353833999999998,-2.0698736,-0.3626096,0.29839894,0.9541366
8.731922,-3.2314252999999997,-0.07909485,-0.0426733,-0.38508946,0.40212387
9.594083,-4.322894,-0.95282525,0.2841396,-0.38348374,0.02469641
10.283767,-4.0289435,-2.5541822999999995,0.36240017,-0.13222614,-0.16585864
11.126095,-3.0045697999999996,-3.3841273999999997,0.37144098,-0.21846285,-0.30799824
12.264413000000001,0.23782085,-3.2449956,0.32566097,0.06736971,-0.39158207
12.004748,2.3366642000000004,-3.2607972999999997,0.22506021,0.6076887,-0.33302626
10.599504,2.9721522,-2.9284822999999998,0.032358404,0.68753755,-0.24251350000000002
10.574106,1.6544125,-0.53936577,-0.3349287,0.5155877000000001,-0.17172295
12.213397,1.7653502,2.7989845,-0.6942571,0.25635397,-0.18715166
13.429882000000001,1.2714936000000001,2.76039,-0.8933468000000001,0.026912976,-0.22334978
11.472296,0.36019328,0.30022332,-0.8614072,-0.11412708,-0.19141026
10.225261999999999,-1.16725,2.384127,-0.55850536,-0.28979447,-0.08600982
9.746508,-2.792798,1.1163492,-0.08314749,-0.42128757,0.11412708
9.756861,-2.7056777000000003,-0.67176515,0.32246703,-0.30469957,0.31480503
10.123345,-0.41822872,-1.380104,0.40018654,-0.13170254,0.3973242
9.666427,1.9717879,-1.5374318,0.13508849,-0.031084314,0.35100317
9.033619999999999,3.2765129,-0.50298345,-0.30298916,0.21483257,0.28979447
8.694276,3.3037589999999994,-0.25264573,-0.7288495,0.35004324,0.26583108
8.455774,2.7139328,-1.0322936,-0.940715,0.07056366,0.14074335
8.181610000000001,1.7927495,-1.4815416000000001,-0.74056065,-0.13596115,0.05290093
7.548075,-0.08720641,-1.5239094,-0.3429223,-0.06515314400000001,0.048642326
6.836461,-1.7769669,-1.090195,-0.10922269999999999,-0.3068289,-0.034924038
6.9009132,-2.4500153,-1.0207248,-0.017139133,-1.1383212,-0.2733884
7.000540700000001,-2.2617161,-1.1881848999999998,0.49867547,-0.85034186,-0.93240726
7.7046657000000005,-0.96150184,-1.8073541000000002,0.66156703,0.14243633,-1.0127971
8.5551815,1.1176038000000001,-2.560187,0.3922104,0.12753119999999998,-0.57309633
9.171832,2.8688569999999998,-2.9359328999999996,-0.063442715,0.19353956,-0.07749262
9.664492999999998,3.84255,-3.3018053,-0.36154497,0.42296308,0.14819591
10.577210000000001,3.155031,-3.4266677000000003,-0.5334948,0.58639574,0.28234190000000003
11.792707,0.7816015000000001,-3.4087112,-0.5026199,0.50335294,0.24506168
12.544573,-1.705026,-1.8206658,-0.24975662,0.4937710999999999,0.1465902
12.407767999999999,-3.0483932,-1.7599393,0.4076391,0.28136453,0.11039207
13.390626000000001,-2.8024897999999996,-2.911378,1.0544232,0.08600982,0.29192376
14.900276000000002,-1.7655226000000002,1.4885998,1.3605016,0.013613568000000001,0.47610837
17.333542,-1.4474002000000001,3.6999322999999995,1.44515,-0.07953466,0.51070076
11.730238,-0.07590577,1.8855392,1.2764117,0.15095353,0.44577456
6.916015600000001,1.7310748,-0.29753223,0.87927943,0.16266468,0.17852972
6.5424623,3.6258652000000002,-0.9891788,0.41669735,0.089203775,-0.1142318
7.393745,3.9385480000000004,-1.0038505,-0.016074482,0.00561996,-0.34526104
8.4097395,2.0791342,-0.28212315,-0.23698081,0.0061610119999999996,-0.41285762
9.838799,-0.40874767,1.1482591999999998,-0.18374826,-0.12318534,-0.36016613
11.262029,-3.546445,2.8312392,0.1563815,-0.27808330000000003,-0.27605873
10.750463499999999,-5.9162545,2.8045967000000003,0.5071926999999999,-0.30576423,-0.19779816
7.8151245,-5.5199375,0.27480647,0.5865179,-0.3286455,-0.045012042
7.134491400000001,-3.6236913,-0.6340515999999999,0.52209777,-0.5575629,0.09548696
8.628741,-0.38281370000000003,-1.4936083999999998,0.47685885,-0.23336798,-0.13711306
9.630964,1.7948756000000001,-2.673203,0.35653585,-0.12370893,-0.47356018
9.095907,2.8285862999999996,-3.9460466,0.18353882,-0.50007176,-0.40701079999999995
7.535616,2.5001884,-3.905278,0.23996532,-0.28979447,-0.041835542999999996
7.2499970000000005,0.8123239000000001,-3.0844693,0.31874949999999996,0.6630505999999999,0.48036698
7.4419546,-1.1241828999999999,-1.9127468999999997,-0.10869910599999999,0.6151413,1.1420386999999999
7.7692614,-2.3526385,-1.4591223,-0.20024163,-0.119991384,0.93444926
7.940781599999999,-2.2708237000000002,-1.4800763000000001,0.09037315,-0.36325538,0.26583108
8.46832,-2.5437147999999996,-1.9853102999999999,0.3400425,-0.14341371,-0.1291369
10.160733,-2.8073354,-1.8921664,0.31288517,0.15840608,-0.1813048
13.004298,-0.9438805,-1.8484386000000002,0.25699973,-0.09922197,-0.13604842
13.068425,1.4249043,-3.0953388,0.18088593,0.066305056,-0.10356784
9.680629,1.9482960999999999,-4.5938697,0.08026769,0.5161287999999999,-0.09239773
9.131256,1.1012658000000002,-3.791228,-0.17948966,0.73809975,-0.109432146
12.171853,0.061885327000000004,0.9787591999999998,-0.60854393,0.6449515,-0.20683897
13.743742000000001,1.1654111999999999,2.3003970000000002,-0.94657934,0.25261897,-0.33674383
13.116585999999998,0.70978504,1.590449,-1.0402685,0.017872171,-0.38837066
11.634451,-0.086181685,1.0472716999999998,-0.90558153,-0.0742114,-0.34046137
10.834519,-1.0644046,1.3396803,-0.55264103,-0.32121038,-0.17011724
9.980871,-2.1824967999999996,0.6619106,-0.15713198,-0.44469243,0.066235244
9.2219095,-2.0661099999999997,-0.15852489,0.11646582,-0.31801644,0.27382470000000003
9.180796,-0.43369529999999995,-0.46754929999999995,0.21069615,-0.1269029,0.34143877
8.929328,1.4180952,-0.6583384,0.02703515,-0.04012512,0.28075367
8.996356,2.6093352000000003,-0.09141062,-0.37805578,0.109432146,0.20142844
8.937278,3.2899013,-0.6375376,-0.74321353,0.27178267,0.15032521
8.884413,3.4037886,-1.5214193999999999,-0.75600684,0.12966052,-0.014154621000000001
8.560764,2.065976,-1.6575346000000002,-0.43287656,-0.08325221,-0.07483972
8.228881,-0.33453703,-1.24736,0.010000736,-0.24614379,0.09496336400000001
7.389512,-1.9612439,-0.8792945,0.12763593,-0.6081251,0.08431686
6.6827917,-2.7101789000000003,-1.0005752,0.006806784000000001,-1.108511,-0.24837779999999998
6.383641000000001,-2.40171,-1.3716669,0.14734070000000002,-1.0701835,-0.796673
7.263289500000001,-1.0503364,-1.6893679,0.5247682,-0.16364206,-1.1628954
8.389445,0.6621404000000001,-2.3821635,0.22134265,0.3117158,-0.77003926
8.896949000000001,1.9710026000000003,-2.866664,-0.32056463,0.21909118,-0.29894
9.430521,2.7796872,-3.3134506,-0.58566266,0.20738003,-0.005637413000000001
10.927625,2.4974015,-2.8575659,-0.7309788,0.40062287,0.18387043
12.458103999999999,-0.22053471,-2.0516584,-0.82520914,0.45277330000000005,0.24347343
11.975278999999999,-2.4782286,-1.3218675,-0.8219976999999999,0.5129348,0.21207495
10.4154,-3.3645046,-1.3738408000000002,-0.4488463,0.39262927,0.17852972
12.169574,-2.4893377,-3.134537,0.2990447,0.080145516,0.21685717
15.223666,-0.81286025,-2.2890099999999998,0.8590684999999999,-0.017243853,0.34941490000000003
17.945404,-0.5228265999999999,3.9038224,1.1220373,0.046617742999999996,0.48569024
13.511294,0.13360603,3.32139,1.1262959,0.16160004,0.52827626
7.503974,1.1523963,0.27679846,0.8707796999999998,0.15892968,0.37763688
6.509557,3.2301227999999997,-0.7208270999999999,0.4763178,0.13763666,0.08698721
7.820228999999999,4.2428126,-0.85785204,-0.012339477,0.14030702,-0.21802653
9.526653,2.9130827999999998,-1.1787517,-0.35409240000000003,0.017872171,-0.39421752
10.348037,0.52356404,-0.6534350999999999,-0.36313320000000004,-0.13170254,-0.40379938
10.509138,-2.2443247000000004,0.66789603,-0.047996555,-0.3110875,-0.3750538
10.297289,-4.7318807000000005,2.0866232,0.42256168,-0.42661083,-0.34791392
8.703871000000001,-5.520080999999999,1.6090183999999998,0.6817954,-0.5069832000000001,-0.32396802
7.292499,-4.301672,-0.21436726,0.6455973,-0.46067965,-0.059393555
7.5815268,-1.9962950000000002,-0.97480404,0.46886525,-0.272219,0.043877575999999995
8.576547999999999,0.31951103,-2.0412676,0.25007078,-0.0034033920000000003,-0.18341665
8.880544,1.7239497,-3.367914,0.009459685,-0.031625368,-0.2616772
7.834919999999999,2.4386861,-4.2863297,0.019041541999999998,-0.006597345,-0.008290314
6.528375,1.7976720000000002,-3.7884027999999996,0.011065387,0.6044948,0.54956925
6.732783,0.012689269,-2.2812052000000005,-0.30831242,0.6497337,1.0425026
7.561674000000001,-2.001026,-1.1147596000000002,-0.54625314,0.33246776,0.79285073
8.987843,-3.3506949999999995,-0.41548976,-0.35728636,-0.04066617,0.33983305
9.986616999999999,-3.7736068,-1.5641223999999998,-0.11081095,-0.15245451,0.018308504
11.051501,-3.7512543,-2.868177,-0.040544,0.00403171,-0.079080865
12.200449,-2.3009044999999997,-3.3788983999999997,0.05258677,-0.18226473,-0.13498376
13.579529999999998,0.6451129,-2.878702,0.08133234,-0.11945033,-0.19566886
12.183451,2.191518,-3.8990437999999994,0.053651422000000004,0.3915646,-0.22814944
10.541986,2.425307,-3.4290809999999996,-0.06824237,0.634305,-0.18769270000000002
10.779003,1.4947575000000002,-0.43642464,-0.33651695,0.72480035,-0.10782644
12.438874,1.5411955,2.1955214,-0.65167105,0.62685245,-0.16905259
13.240797,0.79677117,1.7705792,-0.8353146,0.32607988,-0.26113617
11.089655,-0.03850834,0.38619432,-0.8118923000000001,0.10304424,-0.27656487
9.493604,-0.7412831,1.6235273000000001,-0.61280257,0.008813913,-0.13711306
8.881157,-1.7476907,0.9932201999999999,-0.28115508,-0.19025834,0.06250024
8.927259,-1.8812296000000002,-0.113983154,-0.002216568,-0.25785494,0.25785494
9.453074,-0.9673724,-0.43743983,0.14840534,-0.10402162400000001,0.37922513
9.393986,0.67640984,-1.1971009,0.040352013,0.053529248,0.35793212
9.041807,1.7942721999999998,-0.7242746999999999,-0.23537510000000003,0.25048965,0.3020467
8.702482,2.4153376,-0.40635347,-0.562764,0.40327579999999996,0.26104888
8.7677965,2.3686316,-0.7475463999999999,-0.72565556,0.21057397,0.19451694
9.046673,2.0127957,-1.2895936000000001,-0.62079614,-0.24242623,0.12316789
8.517027,0.9777153000000001,-1.2405221000000002,-0.32534683,-0.5032482,0.18174113
7.880419,-0.42356303,-1.2745581,-0.16297884,-0.69703215,0.18280579
7.242862,-1.6526408,-1.0701795,-0.21729349,-0.9062273000000001,0.08857546
7.204076299999999,-2.2329282999999998,-1.3639958,-0.16936675,-0.9600009,-0.14934783
7.414134,-1.5848083,-1.7728968,0.1558579,-0.83435464,-0.8637285
7.896986999999999,0.08331822,-2.0263565,0.20270254,-0.15564846,-1.1847295
8.516875,1.8443015,-2.1412017000000003,-0.29286626,0.13337806,-0.6071477
9.096731,2.9949355,-2.137754,-0.5052728,0.11156145,-0.07642797
10.155973,3.218803,-2.0421965,-0.4323355,0.36707765,0.15032521
12.07055,0.9258091,-2.1596658,-0.3737797,0.41072834,0.24242623
12.241975,-1.7457178,-2.5722058,-0.35993925,0.37185985,0.14074335
11.004938000000001,-2.6300687999999997,-2.3495068999999997,-0.11294025,0.38091812,0.053983033
11.221192,-1.8800038000000001,-3.0456736,0.4970872,0.20577432,0.10828023
12.827941000000001,-0.32861856,-1.9611002,1.0272833000000001,-0.055571284000000006,0.2940705
14.1973,-0.40723455,2.9348412,1.339226,-0.18174113,0.41170569999999995
15.682757999999998,-0.8497309000000001,4.3442407,1.3477433,-0.044924773,0.3813719
11.940861,-0.65279347,2.2928886000000004,1.0629403999999998,0.10677924,0.21954496
8.387673,1.157405,-0.8969733,0.6110049,0.052464597,-0.025848325
8.446408,3.2682290000000003,0.055660400000000006,0.17769197,-0.03693117,-0.24410175
8.504108,2.8393509999999997,-0.018942924,-0.07302458,-0.09761626,-0.43041566
9.015587,0.7893204,0.118216105,-0.13796827,-0.15138985,-0.45542622
9.781291,-2.1459612999999997,0.77996385,0.17875662,-0.29618236,-0.39154717
9.93407,-4.5516167,1.8651596999999998,0.6690195999999999,-0.42606977,-0.33724996
8.492875,-5.149794,1.7159339,0.89791954,-0.4686558,-0.26485372
7.595183400000001,-4.1568513,0.09248322,0.7573856,-0.35208526,-0.059393555
8.4516945,-2.0745756999999996,-0.7462248,0.58971184,-0.26424286,0.000227
9.243802,0.69189554,-2.2206794999999997,0.28042206,-0.06195919,-0.20736256
8.911429,2.1135247,-3.8135803,0.061103977000000004,-0.08964011,-0.19404571
7.521710400000001,2.738057,-4.286186,0.23144811,0.23612559,0.29672343
6.9645886,1.7437258000000002,-3.6736822,0.047804568,0.6225938,1.1383386999999998
7.781146000000001,-0.34070447,-2.250856,-0.2864958,0.16851154,1.2841784
8.122991,-2.48227,-1.9172289,-0.32534683,-0.13435544,0.6081251
8.731989,-3.1892107000000003,-1.4145421999999999,-0.096446894,-0.16842428,0.10028662
9.306693,-3.0860972,-1.3236775,0.02490585,-0.019373154,-0.053529248
10.30588,-2.442402,-2.9490724,0.17023942,-0.11625638,-0.1200612
11.239284,-0.58897364,-3.1212537,0.287351,-0.22059216,-0.20416862
12.280531,1.1680448,-3.0767407,0.23944172,0.13391912,-0.23293164
11.390444,2.432892,-3.9918141000000005,0.16065755,0.5299691999999999,-0.22759093
10.546009,3.0479817000000002,-1.26071,-0.096446894,0.7003134,-0.17596409
11.472325,2.8415630000000003,2.0515435,-0.47013932,0.66252697,-0.16371189
13.702945999999999,1.6899904,2.1177096,-0.7703709,0.33300883,-0.30426323
14.008645999999999,-0.13722606,0.6103969,-0.9087755,0.08388052,-0.37451276
11.560739,-1.6263237,1.0120578000000002,-0.7629183,-0.030019663,-0.32180380000000003
9.109631,-2.4128667999999998,0.9961124,-0.30138347,-0.14926055,-0.14987142
7.968592599999999,-2.2462017999999997,-0.23484245,0.25860542,-0.19929914,0.09656907
8.810941,-1.2932807,-0.7393966,0.65039694,-0.1348965,0.26158994
9.435825999999999,0.6699264,-1.4224143999999999,0.70095915,-0.028955012999999998,0.2706482
9.278125,1.8316697,-1.4830068,0.45928338,0.17863445,0.23497367
9.097095,2.2024932,-0.723614,-0.04108505,0.4176573,0.25041983
9.099336,2.5585494,-1.0701315,-0.577128,0.40167007,0.21368065
9.338716999999999,2.664239,-1.3085078,-0.84116143,0.10517354,-0.00403171
9.084022500000001,1.8457284,-1.2765023000000002,-0.59576815,-0.09229301,-0.06469935
8.027968,-0.20655257,-0.97860605,-0.2284636,-0.21739821,0.055571284000000006
7.5097585,-1.8570386000000003,-0.8221785,-0.25986207,-0.5256059000000001,0.03748967
7.07523,-2.6161060000000003,-0.89080584,-0.2742436,-0.8998394000000001,-0.14135422
7.007206,-2.6466846,-1.5031277,0.012130038000000001,-1.1372565000000001,-0.66676813
7.542396000000001,-1.3289543,-2.2928312,0.22506021,-0.09761626,-1.1325442
8.305638,0.7204056999999999,-2.462446,0.18620917,0.25583035,-0.8179311
8.858911,2.6822817000000003,-2.3300083,-0.05757841,0.100391336,-0.30691615
9.790686,3.9305801,-3.039937,-0.1635199,0.122207955,0.014608406
11.188459,4.197112000000001,-3.5443761,-0.30351275,0.4245688,0.18015288
12.53582,1.523488,-2.9988334,-0.35780996,0.5315749,0.15247196
11.817884,-1.7776374,-1.3821918,-0.2891487,0.37400659999999997,0.06569419
10.7159195,-2.8277533,-2.2854187,0.07761479,0.20153317,0.010890855
11.887182000000001,-1.7227718,-3.995032,0.67914253,0.20898573,0.15779522
14.216232999999999,-0.43251732,0.03251326,0.9809623,0.24996606,0.4021413
16.618864000000002,-0.57738566,4.1852655,1.0432530999999998,-0.004991642,0.50007176
13.334238000000001,-0.6760841999999999,2.3683636000000003,0.8654564,0.1796991,0.4543092000000001
7.850136999999999,0.15335341,1.6611356,0.5024105,0.31384509999999993,0.22432716
6.645125999999999,2.5342624,0.28449818,0.13350023,0.100391336,-0.037018432999999996
7.984719999999999,3.726958,0.005851429,-0.18907152,0.059393555,-0.23984315
9.04064,2.6059642000000003,-0.8892926999999999,-0.3477045,0.07164577,-0.376101
9.537139999999999,0.042511445,-0.30508834,-0.25082126,-0.020961404,-0.379836
9.984136999999999,-2.6694775,0.8993578999999999,0.082938045,-0.22005111,-0.28667033
10.692236,-5.152426999999999,2.1654022,0.5418026,-0.2849948,-0.22067943
8.889134,-5.1867985999999995,1.0155724,0.8436223,-0.44310418,-0.17807594
7.926522,-3.0826783,-1.0167313,0.80370665,-0.41168827,-0.041800637
8.726348,0.15893670000000001,-1.5701846000000002,0.60461694,-0.24666739,-0.06257005
9.373146,2.1504624,-2.9515815,0.24954717,-0.08005825400000001,-0.28881708
8.441984,2.734619,-3.635375,0.24902357,-0.22272147,-0.16903514
7.1197715,2.4145236,-3.7457763999999996,0.30916762,0.36442474,0.3813719
7.247105,0.49528372,-3.3217347000000004,-0.14116223,0.747699,1.0792418
7.978304,-1.5308621999999998,-2.195933,-0.562764,0.19673352,1.1857069
8.205389,-2.9868145,-1.3425055000000001,-0.5776690999999999,-0.21207495,0.6070779000000001
8.371652000000001,-3.2731993,-0.9936511999999998,-0.31628856,-0.29138273,0.048136182
8.975614,-3.3425832000000004,-1.0079589,-0.2625324,-0.06461209,-0.09398598
10.683483,-2.4150023,-1.4522556999999998,-0.25720918,-0.26211354,-0.07588691
12.43829,-0.4321151,-2.3607306,-0.20184733,-0.34887385,-0.12592551
12.910225,1.0154959000000001,-3.682493,-0.17416641,0.19460422,-0.20790362
11.318358,2.197676,-4.056582,-0.24336872,0.50548226,-0.23556710000000003
10.43962,2.8010627999999995,-0.12066776,-0.5015377999999999,0.48099529999999996,-0.18819885
11.66118,2.2306588,1.1688492,-0.82625633,0.34845498,-0.14721853
13.163387,1.6177428999999999,1.7746015,-1.0178934000000002,0.25103070000000005,-0.20790362
12.770805000000001,0.7217273,0.9646526,-1.04718,0.15734144,-0.2409078
11.509367999999998,-0.45943776,1.3926975000000001,-0.9050405,0.037035886000000004,-0.16477653
10.039433500000001,-1.9037447,1.3816077,-0.58032197,-0.16523032,0.027366763
8.602232,-2.1297,-0.06574478,-0.19278906,-0.30469957,0.24509658
9.055512,-1.1268071000000002,-0.7705786,0.011065387,-0.30522317,0.32281609999999994
9.301263,0.9794488000000001,-1.2551649999999999,-0.05386086,-0.25253168,0.27436575
8.865423,2.1316439999999997,-1.0715968999999999,-0.20769417,-0.07632325,0.16844173
8.277147,2.0548668,-0.8566166,-0.42648867,0.15521213,0.04333652599999999
7.8928113,1.7958523999999998,-1.0357125,-0.5052728,0.22495548,-0.04181809
8.121400999999999,1.7138078,-1.1633235,-0.3349287,-0.03267256,-0.00082
8.016036,1.3610271,-1.2215025,-0.18320721,-0.36219072,0.12852605
7.6192307,0.27353275,-1.1692995000000002,-0.11346386,-0.5602158,0.09393362
7.625455400000001,-1.076165,-1.1273434,0.12020083,-0.89451617,-0.22013837
7.6879253,-1.9499432,-1.2971401000000002,0.61526346,-1.2378573,-0.69336694
7.7590330000000005,-2.1702,-1.6018166999999999,0.8132885,-0.19078194,-1.1096629
7.8263006,-1.1941991000000003,-2.3113816000000003,0.26338765,0.41711622,-0.562956
8.327024,0.41068223,-2.3807654,-0.25614452,0.3958232,-0.05511749999999999
9.479746,2.0474064,-2.44968,-0.37538540000000004,0.43788564,0.05825909
11.293305,3.6916964,-2.5398169999999998,-0.3689975,0.51560515,0.044401175999999994
13.039444999999999,2.099868,-2.6721779999999997,-0.3359759,0.43627995,0.05825909
12.094598,-1.5745132,-2.5457257999999996,-0.20556487,0.38943532,0.11255628599999999
10.673801,-2.9467547,-2.4535396,0.15639895,0.34578463,0.16524777
12.501275999999999,-2.9051626,-2.2574449,0.54925513,0.25848326,0.30843458
14.408056,-0.79896426,-0.28600177,0.8249996999999999,0.08016297,0.42289329999999997
16.01245,0.06953719,5.1541414,0.9091071,-0.018849555,0.41383502
12.831791,-0.11960474,2.954847,0.83404046,0.12381366,0.3063053
8.427514,1.4364731000000002,-0.64420307,0.5476494000000001,0.15734144,0.08379326
8.338467999999999,3.546665,-0.7528710999999999,0.17289232,0.02851868,-0.18181095
9.240508,3.5209322,-0.44209415,-0.08206538,-0.034801867,-0.36332518
9.73264,1.1343153,-0.3213689,-0.13690363,-0.08538151,-0.44052109999999994
9.327877,-1.1720575,-0.1038892,0.1515993,-0.28818876,-0.35747835
9.078947,-2.8958635,1.0017340000000001,0.6376210999999999,-0.38187805,-0.20949186
8.583155999999999,-4.0511327,1.1442368,1.0113136,-0.52879983,-0.080145516
7.790177000000001,-4.173304,0.2036508,0.93518233,-0.62568307,0.045465827
8.020374,-2.6183374,-0.41239646,0.5700071,-0.22324507,0.13224360000000002
8.910136999999999,-0.016558299,-1.2126344,0.11913618,0.10464994,-0.09876818
9.16034,1.5470469999999998,-2.430469,-0.16404349999999998,0.002443461,-0.20203932
8.392366,2.3199527,-3.524581,-0.060772362999999996,0.28084093,0.17748253
7.1474967000000005,2.141508,-3.6801274,-0.22101104,0.55073863,0.82159626
7.067080000000001,0.40645882,-2.654298,-0.6080029,0.22708479,1.0718067
7.459278599999999,-1.885319,-1.4334277,-0.6000267,0.029583331,0.62678266
8.113844,-3.642979,-1.056724,-0.18161896,-0.07579965,0.118926734
8.24382,-4.885292,-1.1290768,-0.012863076000000001,0.03864159,-0.04392994
9.514472,-3.5945300000000002,-1.6979389999999999,0.0036128320000000003,0.022130774,-0.02157227
11.669636,-0.2651722,-3.501003,0.023317598,-0.1444609,-0.09131563
13.5933485,2.0049238000000003,-3.9096260000000003,-0.05066691,0.1142318,-0.1807463
13.575325,3.566489,-4.342268,-0.1725607,0.41924554,-0.23664919
11.937509,3.3354485,-2.2727106,-0.40945423,0.32503265,-0.25846579999999997
11.283030499999999,1.8386798,0.9557940999999999,-0.58725095,0.17224655,-0.22172663
13.246285,1.0688866000000001,2.1923802,-0.6000267,0.124337256,-0.2526015
13.015934,-0.019211073999999998,1.2025596,-0.4802448,0.11103784,-0.27710593
11.77908,-0.8275127,1.4612771,-0.3147003,0.08600982,-0.14241886
9.573905,-1.8591933,1.7525269,-0.10070549999999999,0.07962192,0.093392566
8.252823,-2.1733412999999997,-0.13866258,0.10103711,0.06258751,0.31058133
8.784709,-1.3938468000000002,-0.40941805,0.17236872,0.07483972,0.4154407
9.90532,0.77581716,-0.67701316,0.06005678,0.04235914,0.3286804
9.458264,2.4782763,-1.035971,-0.15552629999999998,0.09985029,0.21315706
8.192288000000001,2.5367718,-0.89891744,-0.43500587,0.20579177,0.21209241
7.191052,1.9763178,-1.3334458,-0.6921103,0.16959365,0.16793558
7.2906504,1.2205257,-1.2266166,-0.671882,-0.0731293,0.051871184
7.893999000000001,0.2915946,-0.75097483,-0.3689975,-0.37761945,0.11095058
7.8928304,-0.3348435,-0.7534553,-0.19865337,-0.6059958000000001,0.18069394
7.749274300000001,-0.7044603,-1.0339216,-0.29021335,-0.8348957,0.06517059
7.6351952999999995,-0.8980841999999999,-1.1752082,-0.29499555,-0.92059135,-0.20840977
7.948892999999999,-0.6120825,-1.6818308999999998,0.11007792,-1.0094985,-0.9100321
8.242461,0.06914455,-1.9422147,0.3549476,-0.17587683,-1.0665358
8.772393,1.568068,-2.139832,0.047804568,0.22334978,-0.47883108
9.018402,3.0054126,-2.3229597,-0.11986921,0.26380652,-0.08599237
9.827451,3.4098699999999997,-2.735404,-0.13529792,0.52890456,0.093392566
11.923191000000001,2.3826616,-3.3052337,-0.21940534,0.65027475,0.18919370000000002
12.916996000000001,-0.29692888,-2.728164,-0.2891487,0.5363571,0.15034266
11.410373,-2.1886451,-1.3043227,-0.009145525,0.35749578,0.068364546
10.773083999999999,-2.0226886000000004,-2.4259965,0.6173928000000001,0.20205677,0.09711012
12.8407545,-1.0750923000000001,-2.3028388,1.1289662,0.13978341,0.24724334
14.837164999999999,-0.6025630999999999,1.5822417,1.2950518,-0.010855948,0.34838519
16.216532,-1.0412766,4.6374059999999995,1.2833406,-0.05396558,0.35903168
10.940861,-0.80461454,2.9986610000000002,1.1364013000000002,0.21643828,0.25680774
7.7860203,1.0570591999999999,-0.10292194,0.7941248000000001,0.25848326,0.016720254
8.38528,3.0740495,0.25775018,0.39433968,0.055676002,-0.23876104
8.881674,2.8473667999999996,-0.24145046,0.07761479,-0.0017976889999999999,-0.42242205
9.407259,0.68435866,-0.49659574,0.09836676,-0.06461209,-0.43146285
10.10288,-1.9476256,0.49607858,0.4741885,-0.24347343,-0.33299136
10.233556,-4.140006,2.3571009999999997,0.943717,-0.34622097,-0.2547308
8.45112,-4.9270277,2.0417082,1.006514,-0.41435862,-0.107808985
7.1144853,-4.242602,0.06891470400000001,0.73289865,-0.38187805,0.10190977
7.9503202,-2.1238197999999997,-1.3382056,0.5620309,-0.16948892,0.020996312000000003
9.468033,0.5562688,-2.0309439,0.32302552,-0.17055358,-0.326586
9.740953,1.7389566000000003,-3.170603,0.079220496,-0.3201283,-0.24726079999999998
8.402203,2.1510372,-3.8112720999999996,0.11381292,-0.16416568,0.05400048599999999
7.095312599999999,1.6741598999999998,-3.5814002,0.26392868,0.42031019999999997,0.4223697
7.0530786999999995,0.12315774,-2.3216286,-0.0421497,0.6843435999999999,0.99089324
7.1700883,-1.8838918999999998,-1.2404742,-0.42062435,0.098262034,1.0116452
8.024196,-3.1835603999999997,-0.8240555,-0.34929276,-0.2637018,0.48092547
9.222082,-3.7832792,-1.1514578000000002,0.025987952999999998,-0.34674457,-0.003473205
10.263464,-2.0770946,-3.0497053,0.07548549,-0.100810215,-0.18978710000000001
11.853626,0.60415286,-3.5480727999999995,0.022776546,-0.1316851,-0.19139281
13.094482000000001,2.0632942,-3.2311285,0.07068583,-0.10454522,-0.24301964
11.268119,2.3704607,-4.5906425,0.08932595,0.28670523,-0.26003662
10.498335,1.6541443999999998,-3.84142,0.004153884,0.51241124,-0.21533872
11.9121685,0.232477,-0.43689390000000006,-0.24389231,0.53263956,-0.18872245
12.323665,0.641263,2.2895272,-0.50047314,0.33035590000000004,-0.21533872
11.687113,1.0112629000000002,1.4444985000000001,-0.61172044,0.040770892,-0.2499486
11.088726,0.3045712,0.73485714,-0.6362074000000001,-0.0816465,-0.23183209
10.482792,0.23906583,1.5190538999999998,-0.48663270000000003,-0.15671311,-0.10194468
10.659934,-0.8817556999999999,1.4476876,-0.22101104,-0.22698008,0.08487536
10.313646,-1.6372125,-0.40382522,0.024923302,-0.14287265,0.28448868
10.131467,-1.1951376,-0.6392518,0.064315386,0.014154621000000001,0.332939
9.359442999999999,0.42240420000000006,-0.7997112,-0.13529792,0.14723597,0.23764403
8.623991,1.4906683,-0.42283517,-0.44882888,0.34951964,0.20891590000000002
7.870296499999999,1.9000671000000002,-0.5034430999999999,-0.74694854,0.39955822,0.22966787
7.7203045,2.196297,-1.0423014000000002,-0.7660948000000001,-0.0726057,0.09286897
7.8962307,2.1425614,-0.9842468000000001,-0.47492155,-0.32173398,0.039636426
7.7979245,0.8948568000000001,-1.1147115,-0.10388199999999999,-0.33344516,0.14023721
7.491026400000001,-0.6053978,-1.306784,0.097843155,-0.51124185,0.12746139
6.981463400000001,-1.5324903,-1.2313476,0.076026544,-0.7374714,0.04441863
6.9029240000000005,-1.5032809,-1.5738621000000002,-0.15872024,-0.94242543,-0.28401740000000003
7.613225999999999,-0.3292219,-1.8151305,-0.008063421,-0.77527523,-0.98827523
9.1460705,1.3886848999999999,-1.9362484,0.15001105,-0.254661,-1.3763492
9.909189,2.7832117000000003,-2.4653957,-0.087388635,0.117425755,-0.7790626
9.749725,3.0801307999999996,-3.3010583,-0.09590584,0.38784707,0.028448867000000003
10.492991,1.7426533,-3.2642352999999997,0.03609341,0.525187,0.3744604
11.658623,-0.32224038,-2.9278022999999997,0.013735741000000001,0.56616735,0.44685665
11.515344,-2.2180459999999997,-2.3534523999999997,-0.12571606,0.5065469,0.34999087
10.378395,-2.3371623,-2.883318,-0.005410521,0.37133625,0.28822368
11.112064,-0.7208079000000001,-3.4975169000000004,0.5891881999999999,0.11901400000000001,0.24937265
12.676599000000001,-0.14485878,-0.77509886,1.2199851000000002,0.018936822,0.23605578
14.028394,-1.4743015,2.9360668999999997,1.522887,0.062063905999999995,0.26853636
15.547379999999999,-1.6179153,3.0104597,1.4973353999999999,0.123272605,0.25202554
13.360276999999998,-0.76386523,3.5082235,1.2838641000000002,0.21802653,0.16046557
9.07526,2.1502135,0.24187182,0.9841736999999999,0.09506808,0.006091199
9.12573,4.189039,0.89799803,0.6227159999999999,-0.004468043,-0.21853268
9.010875,2.6221871,-0.10248141,0.31342623,-0.05024803,-0.41390482
9.8586235,-0.034237083,-0.48974833,0.23253022,-0.17320648,-0.43305108
9.869483,-2.6688166,-0.43189484,0.46994734,-0.27382470000000003,-0.37662458
9.173575,-4.2561913,1.0356742,0.7472802,-0.36910224,-0.32339206
7.998089299999999,-4.6518574,1.9554211,0.77550215,-0.4627915,-0.20947441
7.4493092999999995,-4.0802464,0.65584844,0.5284857,-0.44256315,0.008744099
7.834202,-2.7118740000000003,-1.0972627000000001,0.2830924,-0.275954,-0.0630762
8.422647999999999,-0.060113615999999995,-2.4629726,0.12978268,-0.08058185,-0.38620645
8.284101,1.5649077,-3.1132092,-0.022968533,-0.25891959999999997,-0.36278415
7.622851,1.9413049,-3.2882636,-0.013386675,-0.35952038,-0.10674433400000001
7.3654646999999995,1.0639353,-3.0972063999999997,0.24795893,0.5688377,0.36913714
7.358712700000001,-0.57735693,-2.4146482999999996,-0.24176301,1.1522663999999998,1.2682436000000001
7.4660788,-1.9345723000000001,-1.864585,-0.60906756,0.15840608,1.3470277
8.035036999999999,-2.3435023,-1.6867534,-0.74056065,-0.10454522,0.7710341
9.141551,-2.703935,-2.009444,-0.50099677,-0.23815018,0.17167059
10.5335865,-2.1448407000000005,-2.8704085,-0.3157475,0.00296706,-0.22385593
12.406188,-0.41185057,-3.4939544000000002,-0.21834070000000003,-0.007661996,-0.27495918
13.075014,1.3309941,-3.8222758999999997,-0.0474555,-0.17959438,-0.21053907
10.405813,1.7742759,-4.606875,0.057927478,0.17011724,-0.13229595
9.507184,1.156457,-3.8382788,-0.12997466,0.5768139,-0.059376102
11.54733,0.27515125,-0.5716204,-0.601615,0.71308917,-0.058817595
12.7013645,1.7929794,1.9149017,-1.0498329,0.588525,-0.20947441
13.307959,2.3287346,1.6230388999999998,-1.3234483,0.25795966,-0.439439
12.1560135,1.7274932,1.0811641,-1.3165193000000002,0.04235914,-0.47404888
9.918316,0.47042233,0.7121313,-1.0498329,-0.13487904,-0.32339206
10.606036,-2.0575384999999997,1.5545646999999998,-0.58990383,-0.30948177,-0.019966567
10.714981,-3.3250482000000003,0.25911006,-0.07993608,-0.34302699999999997,0.27970648
9.576041,-2.6412354,-0.71217924,0.23253022,-0.16043067,0.44793874
8.896422,-0.12277467,-0.578918,0.28415707,0.031189033999999997,0.37765434
8.692867,1.6029084999999998,-0.071529165,0.15800466,0.19141026,0.16153023
8.72358,2.631601,-0.62532717,-0.1688257,0.4346917,0.063582346
9.03181,3.260893,-1.4550618,-0.44724062,0.3915646,0.03164282
9.508457,2.9704094,-1.9681773999999999,-0.45947537,-0.023631757000000003,-0.03700098
8.876828,0.9898203999999999,-1.9667983,-0.20556487,-0.30628783,-0.002408554
7.8794994,-0.9146424999999999,-1.0770171999999998,0.041416664,-0.31428143,0.08967502
7.2532725000000005,-2.3763218,-0.54854995,0.056321774000000005,-0.49153706,-0.007731808000000001
6.548525,-3.075036,-0.6714874,0.01160644,-0.64910537,-0.14878932
6.5076222,-2.7771015,-1.3429173,0.1489464,-1.1771722,-0.62575287
7.3200803,-1.0948205,-1.8873874,0.56309557,-0.5538279,-1.3715321000000003
8.654322,0.9322447,-2.0417464,0.47207665,0.19779816,-1.0079626
9.660882,3.2119555,-2.2529056,0.07176794,0.13871877,-0.19404571
10.177627000000001,3.2849597999999998,-2.5133083,-0.09536479,0.32183870000000003,0.21104520000000002
10.828897,1.8002672999999998,-2.4345967999999996,-0.21779963,0.6534687,0.31644565
11.322333,-0.5486361,-2.6248397999999997,-0.28115508,0.5619086999999999,0.27438322
10.663736,-2.1077112999999996,-2.4352,-0.22631684,0.4724781,0.19081685
10.372448,-2.0989199,-3.0130453,0.16439256,0.26860616,0.16580628
12.139905,-0.8728589,-4.102953,0.81915283,0.04448844,0.27227136
14.167143,-0.74472123,-1.2308303,1.2439485000000001,-0.016179202,0.4149170999999999
17.262665,-1.7858446,5.3503226999999995,1.4494261999999998,-0.09922197,0.4452684
15.111635999999999,-1.0977702,3.863801,1.3871353000000002,-0.030543262,0.37765434
8.4450865,0.7324725000000001,0.55721694,1.0831863000000002,0.08016297,0.22914428
7.206575999999999,3.7544532,-0.36888899999999997,0.6322979000000001,0.009896017,-0.013578662
8.517449000000001,4.4756339999999994,-0.48770848,0.11381292,-0.057700586,-0.21746802
9.061967,2.6228862,-0.45938027,-0.21460569,-0.10133382,-0.38034216
9.626712,0.33127132,0.26477954,-0.17681931,-0.20833996,-0.42559853
10.057774,-2.4931493,1.4097635,0.20111428,-0.37761945,-0.41334632
9.92501,-4.7738657,2.4474583,0.72333425,-0.36164966,-0.35426694
7.7304463000000005,-5.302477,1.4791092,0.9846973,-0.26104888,-0.16688839
6.809962,-4.5045657,-0.24591324,0.8452280999999999,-0.44469243,0.116291285
