accx,accy,accz,gyrx,gyry,gyrz
6.871703599999999,2.1824872,0.94506806,0.5825735,0.35363862,0.13165018
9.681386,0.78096944,0.9361806999999999,0.47984338,0.13805555,0.07468264
11.649065,-2.3686125,1.6525356,0.33663909999999997,0.019338248,0.08531169599999999
11.857255,-3.5972114,2.53002,0.24668483,0.12953834,0.07468264
10.00738,-2.3985784,2.1895356,0.19291124,0.16306610000000002,0.032620203
9.159527,-1.612514,1.0564749,0.17374752,0.019338248,-0.036023594
9.147373,-1.415136,0.2260701,0.16044812,-0.03174754,-0.110025555
9.24429,-1.6342343000000001,0.35149753,0.15460126,0.04597197,-0.1712168
9.411980999999999,-1.8703408,0.56147856,0.16842428,0.0225322,-0.22394319
8.9387045,-1.7652067,0.47613966,0.17641789,-0.26384142,-0.21062633
8.602883,-1.0361531,0.24313597,0.17322393,-0.34314920000000004,-0.11054915
8.275942,-0.48282427,-0.12597331,0.12264428,-0.06794567,-0.02963569
8.030593,-0.24940878,-0.3843843,0.10880382,0.00710349,-0.05359906
7.915632700000001,-0.3487107,-0.4040838,0.06462954,-0.07698647,-0.058904864
7.993645699999999,-0.70607877,-0.4733337,0.016179202,-0.03281219,0.025167647999999997
8.261796,-1.0757627,-0.7950282,-0.18289305,0.14657275,0.5138424
8.311786999999999,-1.4105774,-1.2725757,-0.66198593,0.09121091,1.0765191
7.7569933,-1.4535965,-1.3052325,-0.40912262,0.3238284,0.38023743
7.601533,-1.0300813,-1.0360094000000002,0.12744394,0.04117232,0.021450097
8.419393,-0.9009381,-1.2963645000000001,0.5069832000000001,-0.39212313,0.2189341
9.359586,-1.2319604,-1.4780651000000002,0.73694783,-0.036529742000000004,0.36267942
10.570314,-1.4770693000000001,-1.1692036,0.47078509999999996,0.06831218,0.338175
10.191139,-0.4166294,-1.2259653999999998,-0.04448844,-0.10147344,0.06935938400000001
9.977041,-0.48088977,-2.2059312,-0.24516639999999998,-0.06633996,-0.2771583
10.772289,-1.3986831,-2.1123946,-0.23719025,0.151896,-0.44165558
13.550597,-0.76286924,0.0018387470000000002,-0.27071799999999996,0.21949259999999998,-0.41610396
17.41841,1.1063893,2.9202461,-0.37453020000000004,0.19341739,-0.3889641
13.331413000000001,-2.1947262000000003,3.2551662999999995,-0.49909434,0.23652703,-0.34424874
8.523473,-4.3230853,4.387528,-0.5651027,0.1540253,-0.2308547
9.503439,-2.8679376,3.5498543,-0.57787853,0.07737044,-0.12119567
11.573830000000001,-0.038259342,1.6939455,-0.5342104,0.19500564,-0.06689847
12.241141,0.75091743,0.15037501,-0.48790678,0.30042353,-0.0061959187
11.754151,0.54867446,-0.20111294,-0.43627995,0.28071874,0.06351253400000001
10.827021,0.76764816,0.37116832,-0.33459708,0.23013912,0.13271484
9.462144,0.65357876,0.8902121,-0.277647,0.22003366,0.20350539999999998
8.699121,1.2971114,0.72956115,-0.27391198,0.23068017,0.31742302
8.568493,1.67393,0.12258313,-0.25527185,0.19554669,0.36161476
7.9571004,1.0257047,-0.18521544,-0.27391198,-0.16215853,0.274837
7.687839500000001,0.30685046,0.07451714,-0.18341665,-0.14247122,0.0858702
7.8604899999999995,-0.036401443,0.20370825,0.019914206,0.13006194,-0.073809974
7.8641768,-0.35098997,0.07035122,0.16203637,-0.1823869,-0.123848565
7.753727400000001,-0.433906,-0.022390574,0.14447835,-0.57843703,-0.15898204
7.588603999999999,-0.1445619,-0.10942459,0.0018151425,-0.53213346,-0.40439278
7.4484954,0.2411823,-0.29429528,-0.18554595,-0.49165925,-0.86058694
7.331964999999999,0.5237077,-0.5195035,-0.020001473,0.53197634,-0.6945014
7.033800599999999,0.6255569999999999,-0.8170453000000001,0.3196047,0.32915163,-0.31335640000000003
8.357364,0.83790356,-0.21575588,-0.22067943,-0.34794885,-0.15259413
10.41426,-0.36973178,-0.71260065,-0.5379454,0.037978366,-0.2808933
11.305918,-2.0502698,0.15569015,-0.3963468,0.55061644,-0.41608649999999997
10.266682000000001,-1.2439506,-0.1258967,-0.038624137999999995,0.30839968,-0.27077037
9.457775999999999,-0.0076997527000000005,-1.1349951999999999,0.31534609999999996,-0.12383111,0.13749704
11.304654,1.4080108,-1.9256084999999998,0.47078509999999996,-0.1845162,0.4755324000000001
16.080952,-0.03479254,-0.32202014,0.36911967,-0.09136798,0.5766741999999999
20.123054999999997,-3.8712611000000003,1.8483813000000002,0.24720843,-0.014713125,0.46807986
11.928613,-0.72695625,1.8192293999999998,0.25146705,0.14444345,0.31209978
8.673092,2.6612222,1.7626592,0.325469,0.20458749,0.20244074
10.359222,1.1195382999999999,1.2055955,0.35102059999999996,0.10185742,0.095452055
11.233422000000001,-2.2567937000000002,2.0692892,0.30791098,0.077911496,0.054471727000000005
10.134139,-3.5669487,3.1154597,0.28714156,0.12262683,0.043825217
8.664050999999999,-2.4146959999999997,2.9644144,0.2770361,0.08641125,0.02677335
8.180241,-0.9514845,1.9365548,0.28874728,0.023073252000000002,0.008150687
8.743183,-0.75998664,0.85686564,0.3057817,0.048624873,-0.023230333
9.03904,-1.2096848,0.34352964,0.29087657,0.09121091,-0.08126253
9.078372,-1.8945221999999997,0.48056418,0.26158994,0.039566614,-0.17921041
8.546610000000001,-2.2666004,0.6251835,0.26158994,-0.28885198,-0.22924899999999998
8.291723,-1.8732904,0.5706053000000001,0.16470672,-0.56299084,-0.14727089
8.421471,-1.2211291000000002,0.28279352,-0.04342379,-0.38521162,-0.089779735
8.331526,-0.86008346,0.06312074,-0.15680037,-0.05729916,-0.17655751
8.40859,-0.8285565999999999,0.13708241,-0.14880677,0.17905332,-0.22232004
8.435021,-1.0527111999999998,-0.013723563999999999,-0.10089748,0.15456636,-0.14301229
8.525379,-1.3896903999999999,-0.36749083,-0.10782644,-0.069533914,0.35522687
8.629717999999999,-1.4787834999999998,-0.88732946,-0.42296308,-0.41393974,1.0344741
8.084597,-1.7103697,-1.1998398000000001,-0.24623105,0.053948127,0.504278
7.3540106,-1.2241073999999998,-1.0409031,0.17215927,0.05448918,-0.021642083
7.3480544000000005,-0.27058309999999997,-1.0171047,0.5458516999999999,-0.32559118,0.14868459
8.6861925,-0.2471295,-1.416764,0.75080574,-0.00991347,0.39409533
10.492780999999999,-0.77819216,-1.3530687,0.5176472,0.15296066,0.38344884
10.507337,-0.5944899,-1.2262813999999997,0.031625368,-0.13182472,0.09119345
9.918181,-1.2118586999999998,-1.8108306,-0.20258036,-0.28192303,-0.29045770000000004
10.329486,-2.3136895,-1.754835,-0.21322687,-0.06049311,-0.4773300999999999
12.542342,-1.7383819999999999,0.37639725,-0.23664919,0.09121091,-0.4368559
16.943928,0.6448543000000001,2.833145,-0.33353242,0.118350774,-0.33571407
14.748609,-2.2677112,2.6023057,-0.4309567,0.10292207,-0.27078784
9.499808999999999,-3.9173641000000003,3.6499029999999997,-0.4777839,0.05714208,-0.17386970000000002
9.385672999999999,-1.7553903999999998,3.64296,-0.47300169999999997,-0.008848819,-0.04187045
11.4601145,0.5308328,2.2369025000000002,-0.41496947,0.0800408,0.027314402
12.04632,0.91736233,0.72684133,-0.36121333,0.24664994,0.06990044
11.948599,0.21380222,0.37052664,-0.32660347,0.2753955,0.10716321
11.519596,0.19431342,0.79284465,-0.26804766,0.27646014,0.12526228
9.772872999999999,0.5917604999999999,0.99132395,-0.21322687,0.30253538,0.19127063
8.459327,1.4194646999999998,0.7838233,-0.22333233,0.2668783,0.30147073
8.068852,1.8731947,0.33558092,-0.27178267,0.09759881,0.3461686
7.753373,1.3679607,0.16839857,-0.27710593,-0.07646287,0.274837
7.6359615000000005,0.48052585,0.3692338,-0.17329374,-0.19676842,0.109292515
7.775974799999999,-0.25201368,0.37413709999999994,0.008203047,0.03371976,0.00015707963
7.8400145000000006,-0.5666884,0.10352528,0.14234905,-0.08285078,-0.010995574
7.699063000000001,-0.28818527,-0.06331227,0.23177972,-0.22390829,0.044348817
7.7319593,-0.101763144,-0.13808799,0.114144534,-0.16641714,-0.19144517
7.9639196,0.06262274,-0.29527208,-0.07108726,-0.5661848,-0.7684859
7.6084857,0.56432295,-0.32180944,0.050265484000000006,0.32224014,-0.7434579000000001
7.05645,1.0752072,-0.33306220000000003,0.17376497,0.33875096,-0.39533454
8.050934,1.1450988000000002,-0.41060558,-0.49748865,-0.34473744,-0.30216885
9.837545,0.3788393,-0.5594483,-0.71413636,-0.13873622,-0.39585814
10.950733,-0.6563656,-0.41763500000000003,-0.45436156,0.42390558,-0.44643778
11.071881,-1.4911662,-0.20775925,0.04972443,0.17212437,-0.21327923
10.248907,-1.1553651000000003,-1.1944289,0.44790384,-0.33304372,0.19020598
10.737621,0.26877308,-1.695746,0.5538279,-0.30642745,0.44039893
15.140894,-0.34249532,0.28161556,0.45216244,-0.19196877,0.4606273
18.988682,-3.4416267999999994,2.0027497,0.36966074,-0.1115789,0.34353316
11.671685,0.021499932000000003,1.5452082,0.43460444,0.066723935,0.22481586
8.508724,3.3155959000000004,1.1524633999999998,0.5442635,0.15350170000000002,0.16146041
10.747696000000001,1.3879569999999999,1.6589999,0.59695494,0.05873033,0.09384635
11.575755000000001,-2.6261422999999997,2.4564414,0.54691637,-0.06101671,0.07309439
10.6392,-4.384904,3.1756692,0.4548327999999999,-0.07431612,0.061924282000000004
8.616972,-2.4966352,3.1293461,0.38721874,0.00017453292,0.018273598000000002
8.418808,-1.2215409,2.0000682,0.32759829999999995,0.0076270886,-0.015795228999999997
9.146319,-1.2621657,0.82010984,0.27810076,-0.004590215999999999,-0.06049311
9.253695500000001,-1.562686,0.49698842,0.21900392,0.07257079,-0.12226032
9.04197,-1.9634368000000002,0.7077835,0.19664624,0.09388126,-0.19411552
8.6238575,-2.258939,0.9273892,0.20142844,-0.19942132,-0.20263273
8.495087,-1.8642020000000001,0.80052525,0.191323,-0.51082295,-0.09775589400000001
8.327492999999999,-1.2097518,0.5821549,0.09869837,-0.22123794,-0.0024783674
8.173853,-0.54023725,0.16289191,-0.0024260078,0.12156218,-0.09349729
8.186015,-0.27141628,-0.019450495,0.005550146999999999,0.12688543,-0.13927728
8.325567999999999,-0.36049974,-0.32033459999999997,0.010332349000000001,0.011362093500000002,-0.1131846
8.418712,-0.7659147,-0.65315735,0.11040953,-0.29895744,0.09227556
8.579400999999999,-1.060459,-1.1770183,-0.056723199999999994,-0.23561946,0.68526864
8.087556,-1.3451391000000001,-1.3259473,-0.42029274,0.04490732,1.1196462
7.353809399999999,-1.1437773,-0.951293,-0.12805481,0.33129840000000005,0.31689942
7.734363,-0.54846376,-0.84110224,0.16577137,-0.08656833,0.1502903
9.382149,-0.38188472,-1.1302546999999998,0.38296014,-0.40755183,0.30892327
11.077157000000001,-0.8843415000000001,-1.5043248,0.43299875,0.07311184,0.2913478
10.72748,-0.92153776,-1.7411208999999999,0.16844173,0.050754175,0.15561356
9.771398,-1.2687928999999998,-2.0236464,-0.09238028,-0.24413666,-0.1062731
9.925747,-2.1530864,-2.9636388,-0.16531758,-0.15896459,-0.38201767
11.022962,-2.3661703999999997,-1.1585063999999998,-0.2350435,0.07417649,-0.44057345
13.829310999999999,-0.6340325,1.652162,-0.34576717,0.12953834,-0.37936476
17.266926,2.1465549999999998,3.714307,-0.43573890000000004,0.1582839,-0.33143803
11.170397999999999,-0.9716533000000002,3.8360762999999998,-0.4948183,0.19928169,-0.26544714
8.35224,-2.7667396,3.8321974,-0.49216540000000003,0.11782718,-0.15365879
11.217858999999999,-2.4102237,2.6150045,-0.44957936,0.04701917,-0.08232718
12.76642,-1.1733025,0.9912091000000001,-0.40219367,0.13114405,-0.022165682000000003
11.994616,-0.13713987,0.9015989,-0.36227798,0.22802727,0.041695915
11.69353,0.7354892,0.8698709000000001,-0.3037222,0.24664994,0.10930997
10.446850999999999,1.1312795,0.60716957,-0.20736256,0.30361748,0.17317156
8.863794,1.3724139,0.5216104,-0.1828756,0.29030059999999996,0.25302038
8.376421,1.8654567,0.32103372,-0.25155429999999995,0.10398672,0.30572933
8.226171,1.4527825,0.13399869,-0.34524357,-0.20580922,0.24558528
7.898720299999999,0.4647433,0.14003207,-0.34257323,-0.1871691,0.12473868
7.6913157000000005,-0.20891805,0.49476656,-0.14615387,0.0864287,-0.023230333
7.610363,-0.31870654,0.24497472,0.005009094699999999,0.014556046000000001,-0.05836381
7.4007454,-0.12791741,-0.09273222,0.13596115,-0.18397516,-0.024836035
7.5198045,-0.1033529,-0.2609584,0.059306286,-0.29311058,-0.06529277
7.637532000000001,-0.005995081,-0.34225592,0.04972443,-0.49220031,-0.44909066
7.5299845,0.48255616,-0.24560678,-0.022654373,-0.40435788,-0.8052251
7.105694000000001,0.79167634,-0.21692425,0.25200808,0.44947463,-0.56726694
7.8915663,0.9346675999999999,-0.4355915,0.068364546,-0.010978121,-0.35540140000000003
9.961019,0.53262365,-1.1701133999999997,-0.5405983,-0.27127653,-0.31761500000000004
11.189674,-0.084381245,-0.9516280999999999,-0.6326993000000001,0.10772172,-0.37137115
10.973785000000001,-1.1330608,-0.48057374,-0.316498,0.35578537,-0.38414696
10.351714,-1.2635447,-0.860093,0.1263793,0.01881465,-0.09669124
10.231707,0.06904878,-1.4678754999999999,0.4926192,-0.2276433,0.3248756
12.217564,0.5373163000000001,-0.9509674000000001,0.5644744,-0.1802576,0.5495169
16.112164,-1.4049653999999998,0.9780601000000001,0.45961499999999994,-0.1829105,0.55752796
15.699997,-2.8413906000000004,1.2801221999999999,0.39360666,-0.10625564,0.4121944
9.297153999999999,1.1512183999999999,1.2699325000000001,0.46122070000000004,0.0842994,0.27698374
9.668983,2.5488863,0.9309039000000001,0.52401763,0.18755308,0.14175564
11.298775,-0.08480263,1.5481770000000001,0.48783699999999997,0.15508996,0.04914847
10.951462,-2.71468,2.2607202999999996,0.39467129999999995,0.10239847,0.05873033
9.997995,-3.1776996,3.0320554,0.3206868,0.09759881,0.07363544400000001
8.83312,-1.6156648,2.6171594,0.2860769,0.05820673,0.07096509
8.782583,-0.93724376,1.5731438,0.27490679999999995,0.012426743999999998,0.03478441
9.1116705,-1.2702773,0.6901813,0.24083798,0.07098254,-0.037070792000000005
9.313042,-1.8490324,0.3682474,0.18067649,0.14817846,-0.13021901
9.112341,-2.3532896,0.36112222,0.14660765,0.0198793,-0.21273819
8.838080999999999,-2.246987,0.2677771,0.16418312,-0.36657152,-0.14034192
8.726616,-1.5904107,0.030013712,0.06197664,-0.34793139,-0.0056723203
8.427255,-0.77837414,-0.20552784,-0.15892968,-0.053564154,-0.037611846000000004
8.140037,-0.17196113,-0.20438822,-0.23451988,0.0055152406000000005,-0.12969542
8.013766,-0.19735885,-0.15823758,-0.23184954,0.05820673,-0.18612191
7.990083,-0.6540672,-0.42100602,-0.12166689999999998,-0.093479834,-0.11798426
8.455152499999999,-0.9737697,-0.9441582000000001,0.049741883,0.080564395,0.25197318
8.435836,-1.4580401,-1.3623295,-0.25048965,-0.12861331,0.8316667999999999
7.8033834,-1.8048162,-1.1225263,0.006073746,-0.026947884,0.49682543
7.817240700000001,-1.3042844999999998,-0.7188064000000001,0.3984063,0.082693696,0.11674507
9.005799,-0.46887088,-1.0533816999999999,0.6065368,-0.22443189,0.28124234
10.411876,-0.31970254,-1.7358154,0.63795274,-0.15577063,0.3946364
10.892134,-0.07815632,-1.8271589,0.3185575,0.02893756,0.30572933
10.132071,-0.55741805,-2.0324762,-0.10676179,-0.089762285,0.012409291000000001
10.5532875,-1.8757708999999998,-2.7818997000000003,-0.29572859999999995,-0.17386970000000002,-0.36498326
10.960828,-3.0413067000000003,-2.8265371,-0.33937928,0.066723935,-0.49806459999999997
12.81235,-2.8415343999999996,0.5569584,-0.3968704,0.19767599,-0.41448078
15.623545000000002,-0.62413967,3.7041364000000003,-0.47832492,0.17585938,-0.32505012
13.645033999999999,-0.35991555,4.051698,-0.5682792,0.1577603,-0.27235863
8.540242,-1.6261417999999999,3.8145761,-0.63163465,0.1561546,-0.15524703
9.047449,-1.1137061000000001,2.7653987,-0.6247057,0.12421508,-0.043458696
11.838628,0.044541727999999996,1.2995918,-0.5571090999999999,0.23919737,0.005497787
12.634604,0.38568673,0.11232637,-0.51665235,0.35417965,0.05021312
12.129246,0.55251473,0.22929749,-0.45116759999999995,0.3376863,0.09279916
11.280674000000001,0.7396071999999999,0.5081358,-0.3596251,0.31318188,0.14388494
9.275932000000001,0.9711361,0.55610603,-0.28029987,0.30201176,0.24877924
8.079282000000001,1.5856798,0.44641328,-0.27124159999999997,0.17479472,0.35789722
7.97272,1.7952203999999998,0.107825264,-0.2579422,-0.09456194,0.31264082
7.835742999999999,1.0513898000000002,-0.11434708,-0.15254177,-0.38306487,0.13912019
7.8038716,0.16905937,0.05502833,0.068364546,-0.30002209999999996,-0.03174754
7.9598393,-0.31362128,0.08982087,0.26958355,0.020420352,-0.040805798
7.812941,-0.5267148,-0.17844464,0.33238049999999997,-0.1669582,0.025708699999999998
7.665152,-0.5012787999999999,-0.27858934,0.10508627400000001,-0.3207915,0.03530801
7.695481299999999,-0.29250443,-0.22290018,-0.11102039,-0.6279346,-0.38095300000000004
7.6256949999999994,0.088738695,-0.26072857,-0.17116444,-0.38360593,-0.82332414
7.0819526,0.6255666,-0.11186668,0.10349803,0.35472070000000006,-0.64231604
6.7268543,0.6947207,-0.28870243,-0.024783675,-0.08656833,-0.4198215
8.453466,0.026163835,-0.41779777,-0.48310715,-0.22816689999999998,-0.4033107
10.70054,-0.77961916,-0.495753,-0.48897144,0.16893041,-0.43737950000000003
11.250469,-1.4173483,-0.3617543,-0.17170548,0.29562387,-0.36763614
11.045448,-0.9892171000000001,-0.92466944,0.2557431,-0.105732046,-0.048240899999999996
10.479219,0.60193104,-1.9538313999999999,0.53839916,-0.27714083,0.29028317
12.28101,1.1985662000000001,-1.6878068,0.5330759,-0.16481145,0.43614033
16.32224,-1.0124886999999998,0.45547292,0.44790384,-0.05623451,0.4025951
16.349123000000002,-2.2666863999999998,1.4269443000000002,0.4361927,0.05023057400000001,0.31477013
9.925297,1.3385503,1.7510233,0.52297044,0.19448204,0.25621432
9.814407000000001,1.7911884999999999,1.2205831,0.61931264,0.16947147,0.17423622
11.141810000000001,-0.86774486,1.9072306,0.64912283,0.031590457999999995,0.08588765599999999
10.9034815,-3.2145894,2.6428924,0.5932374,-0.020018926,0.07789405
9.881866,-2.9154098,3.0409427000000004,0.5171062,0.09653416,0.056059975
9.044317,-1.5443367000000001,2.3996508,0.44151595,0.20512855,0.012426743999999998
9.293564,-1.1831281999999999,1.223552,0.39147735,0.19235274,-0.04399975
9.433269500000002,-1.4404858,0.33935416,0.34143877,0.20406389,-0.10679669999999998
9.195995,-1.7903936000000003,0.32742146,0.30098203,0.24612632,-0.172264
8.879481,-2.2159772,0.5389444,0.31375784,0.11250392,-0.24734806
8.543038000000001,-2.3360608,0.47916594,0.3206868,-0.3729594,-0.15948819
8.500709,-1.8155134999999998,0.17717093,0.20038125,-0.4213923,0.017732546000000002
8.362257000000001,-1.0198246,-0.13169068,-0.0040142573,-0.12170181,0.012950343000000001
8.21102,-0.25585398,-0.41612184,-0.11102039,0.025202554,-0.05784021
8.202152,-0.21882047,-0.60642254,-0.16051793,0.10026917,-0.1105317
8.236178,-0.6119005,-0.7124282,-0.11102039,0.21205749999999998,0.07044149
8.48845,-1.012211,-0.92043644,-0.25101325,0.04543092,0.65174085
8.075863,-1.5663443000000001,-1.1427141,-0.40912262,-0.054105207,0.7805460999999999
7.385174,-1.6806433999999997,-0.79933774,0.03323107,0.16893041,0.21629865
7.413645699999999,-1.0199778,-0.32858983,0.39521235,-0.20100957,0.21097539999999998
8.701381,-0.042377368,-0.93193823,0.6975732,-0.28033477,0.41325906
10.351752000000001,-0.25969428,-1.8127267,0.64912283,0.092816606,0.4324228
10.902562,-0.3366535,-2.1983368,0.22113322,0.06140068,0.25782004
10.427333,-0.6112014,-2.4426315,-0.14028956,-0.16961110000000001,-0.11267845
10.895408999999999,-1.5937722,-2.6273875,-0.23397884,-0.10147344,-0.42406264
11.994806,-2.0002598999999996,-0.9075269,-0.27337092,0.10718067,-0.47144833
14.783879999999998,-0.24737849999999997,1.6156648,-0.35534903,0.11782718,-0.39372882
15.382028,-0.030368054,3.3398252,-0.4969476,0.114633225,-0.35966
9.901145,-3.3223474000000004,3.528718,-0.62151176,0.19767599,-0.27501154
8.337491,-2.3885033,4.2558755999999995,-0.6747443000000001,0.10505137,-0.13981833
11.047364,-0.37646428,2.786937,-0.64015186,0.061941735,-0.04399975
12.447713,0.57589173,0.82144105,-0.56508523,0.20725785,-0.0008726646000000001
12.036342,0.51376694,0.10059478,-0.5241049,0.27806586,0.03689626
11.663957,0.4718301,0.34696773,-0.46074948,0.268484,0.0874759
10.148541999999999,0.30597898,0.8390431999999999,-0.3665366,0.2626197,0.15987216
8.780006,0.9279255,0.9563398999999999,-0.28082347,0.31107002,0.2775248
8.491315,1.9337201000000002,0.5471708000000001,-0.2872114,0.23335052,0.37971383
8.204641,2.1462007,-0.11349474,-0.3191509,-0.053564154,0.33714524
7.606675599999999,1.1109958,-0.15110286,-0.18873991,-0.1786519,0.17849483
7.6639256,0.18817468,0.09948387,0.054524086,-0.13873622,-0.00726057
8.022424,-0.37022978,0.18393214,0.20357521,0.01829105,-0.03281219
7.921245,-0.673374,-0.035529952000000004,0.29194123,-0.27874655,-0.026965337000000002
7.7250357,-0.54813814,-0.11043016,0.10988593,-0.52572805,0.015603243000000001
7.8745389999999995,-0.15816097,-0.28422046,-0.12592551,-0.53478634,-0.27820548
7.883876299999999,0.25410140000000003,-0.36992332,-0.22067943,-0.61941737,-0.84034115
7.330586,0.77982026,-0.41912892,-0.038083083999999996,0.4052829,-0.79616684
7.1376133,0.6846076,-0.6119005,0.021519909,0.24825563,-0.57843703
8.725208,-0.28913337,-0.54713255,-0.379836,-0.2648886,-0.45067890000000005
10.888599000000001,-0.8241896000000001,0.10396581,-0.46661377,-0.20474458,-0.32826152
11.359634,-1.4077906999999998,0.35086548,-0.15360643,0.03213151,-0.19305086
10.844402,-1.3393356,-0.3767899,0.29565877,-0.18771017,0.07309439
10.099001,0.18692969,-1.5948831,0.5458516999999999,-0.32185617,0.35044464
10.959219000000001,1.5384948,-2.430967,0.55330426,-0.22975515,0.4973665
14.664294,0.006598419499999999,-0.20638019,0.46654397,-0.14138912,0.45797440000000006
18.557438,-3.042954,1.9059283,0.42980477,-0.053023104,0.33766884
11.322639,-0.23335804,2.0976176,0.49687780000000004,0.12634438,0.24397957
8.719223,1.3358401000000002,1.8008515,0.56875044,0.2168397,0.140691
9.648527,-0.014384363999999998,2.1729105,0.5714033000000001,0.09601056,0.05873033
10.523158,-1.9601521000000002,2.2978302999999998,0.5032657,-0.038659044,0.054471727000000005
10.375523,-2.6630132,2.57845,0.43193409999999993,0.022008602000000002,0.01881465
9.45319,-1.9122583999999998,2.1862892999999994,0.35634387,0.081088,-0.053581607
9.391256,-1.6360441000000001,1.1027215,0.29300588,0.04436627,-0.13927728
9.449521,-1.5864556,0.23376985,0.23657937,0.034260813,-0.20741493
9.294358,-1.7038958999999998,0.113829926,0.18599974,0.06511823,-0.25480062
9.107667999999999,-1.9563788,0.36053807,0.1412844,-0.026947884,-0.29951596
8.835139999999999,-2.1070602000000003,0.30916807,0.12266174,-0.42193335,-0.24521875
8.486429,-1.5892136000000001,0.20626526,0.08911651400000001,-0.41606903,-0.08232718
8.3155985,-0.8604282,0.12070607,-0.10250319,0.040107667,0.013491395
8.078372,-0.24906401,-0.10122684400000001,-0.16851154,0.09599311,-0.024836035
8.0209875,-0.19624792,-0.39876863,-0.23078490000000002,-0.06260496,-0.03122394
8.206452,-0.43357077,-0.74299735,-0.26698299999999997,-0.2414663,0.1561546
8.359805999999999,-0.7691517,-1.1644056,-0.38090065,-0.020559978,0.5394114999999999
7.963162400000001,-1.1071746,-1.4850563,-0.6454751,0.13220869,0.72946036
7.4198995,-1.05523,-1.1856756000000002,-0.32820916,0.24719098,0.26473153
7.495709,-0.8584937,-0.80446136,0.16098917,-0.11211995,0.2865656
9.088676,-0.4364151,-1.2701241,0.47080258,-0.33356732,0.5021487
10.272045,-0.7122175000000001,-1.9466296000000003,0.4532271,-0.007784168199999999,0.46436229999999995
11.161184,-0.8430559000000001,-1.8744109,0.051330134000000006,0.025743606000000002,0.14868459
10.569289999999999,-0.66830784,-2.0689158,-0.24410175,-0.18397516,-0.22977260000000002
10.8712845,-1.3965762,-2.7405374,-0.25474826,-0.08230973,-0.43737950000000003
11.725698,-1.7793708,-2.1162732,-0.20629792,0.16308357,-0.43792057
14.353976000000001,-0.4881394,-0.5146288,-0.24569000000000002,0.18757053,-0.36711255
15.935376000000002,-0.09957006,1.7420403000000002,-0.34417892,0.17373008,-0.29312804
11.401227,-2.0850720000000003,3.576286,-0.44106215,0.18757053,-0.20902063
7.971983,-2.1711197,4.844035,-0.5006826,0.1455081,-0.104667395
10.149375,-1.1434612,3.0955305,-0.5145231,0.14179055,-0.04612905
12.181133,-0.59215313,1.1929733,-0.5006826,0.21525146,-0.0067195175
12.947546,-0.008724471999999999,0.0769688,-0.4745899,0.29775316,0.037437312
11.514234,0.3598102,0.14908215,-0.40538759999999996,0.34088024,0.07415904
10.027262,0.6655211,0.7219284,-0.3042458,0.35950290000000007,0.14070845
8.847897,1.0570496,0.8293802,-0.23239058,0.40475932,0.23546237
8.556780999999999,1.5937531,0.33112767,-0.27071799999999996,0.29934140000000004,0.35044464
8.210033000000001,1.6333243999999998,-0.12650962,-0.295205,-0.042917646,0.34245107
7.6718655,0.9602856,-0.24682304,-0.2409078,-0.14990632,0.24397957
7.7407699999999995,0.2466315,-0.17426915,-0.029565877999999997,-0.0013962634,0.10238101
7.947475999999999,-0.13759956,-0.17373285,0.15566592,0.04649557,0.011344640500000001
7.9147043,-0.3288388,-0.24978228,0.28342402,-0.21539108,-0.027488936000000002
7.896010400000001,-0.29831752,-0.36456987,0.22167426,-0.35219,-0.062081363
7.895339999999999,-0.15792154,-0.54763055,0.15247196,-0.38093555,-0.3511428
7.662422,0.33307177,-0.60240984,0.030037116000000003,-0.45493752,-0.7908436
7.045982400000001,0.9392358000000001,-0.33762076,0.14608406,0.38772490000000004,-0.66840875
6.6946955,0.90938485,-0.34517685,0.12585570000000001,0.18702948,-0.5097583
8.97818,0.2977621,-0.49778327,-0.32979742,-0.29682815,-0.41448078
10.822395,-0.5197238000000001,-0.45508987,-0.46500808,-0.17067574,-0.31813863
11.06193,-1.4775673,0.11994951,-0.1700998,0.12421508,-0.21060888
10.464232,-1.3421032,-0.35492602,0.23977333,-0.09880309,-0.0030019663
10.236696,0.02759078,-1.4805264,0.4574857,-0.24520129999999998,0.23863886
11.81236,1.3117927,-1.6293308000000002,0.50007176,-0.19781561,0.39783034
15.5361185,-0.033786975,0.33019873,0.46972045,-0.16322319,0.3855607
17.950870000000002,-2.9565517999999997,1.7000747,0.47399652,-0.08124508,0.2855184
10.610949,-0.2960478,2.0631986,0.5581039000000001,0.113568574,0.17158332
8.613447,1.6088556999999999,1.7716327,0.5980196,0.16999507,0.07257079
10.069246000000001,0.25975174,2.050452,0.5559746,0.025202554,0.031590457999999995
10.941061999999999,-1.5384374,1.9167691000000002,0.44844490000000004,-0.06633996,0.049689524000000006
10.615611999999999,-2.122115,2.4100034,0.34356806,0.022008602000000002,0.031049407999999997
9.77634,-1.8508615000000002,2.0725455000000004,0.2600017,0.10718067,-0.020559978
9.196693,-1.6293788,1.0481431,0.18067649,0.12688543,-0.07752752
9.317763000000001,-1.5670625,0.57594913,0.099239424,0.19608775,-0.14727089
9.246666000000001,-1.60627,0.43183738,0.059306286,0.25516713,-0.22603759
8.919599,-2.1653736,0.46101790000000004,0.07527605,0.07737044,-0.26010639999999996
8.611838,-2.1842875,0.34204522,0.09976302,-0.28831095,-0.19888027
8.438842999999999,-1.5157690000000001,0.07612604,0.106150925,-0.1845162,-0.098837994
8.384504,-0.6840426,-0.12864524,0.03694862,0.065659285,-0.15259413
8.460199000000001,0.01226789,-0.38336915,0.058241636,-0.029077185,-0.17919296
8.250285,0.01826297,-0.60672903,0.02417281,-0.14299482,-0.13767157
8.366757000000002,-0.37174293,-0.87873906,0.02310816,-0.09189159,0.011885692
8.438316,-0.82453436,-1.2024447,0.016720254,0.40421826,0.34672709999999995
8.060587,-1.2727671999999999,-1.2193286,-0.48630109999999993,-0.19090411,1.0190454
7.594274,-1.4169843,-0.8277138,-0.39845866,0.026808257999999998,0.54476964
7.622726400000001,-1.2612847,-0.48769888,-0.038083083999999996,0.17373008,0.15987216
8.813095,-0.5347018,-0.8732610999999999,0.25148448,-0.16854644,0.3451214
10.08252,-0.7347805000000001,-1.2334448,0.47506118,0.038519416,0.4846081
10.666331,-0.71177703,-1.0664731,0.29194123,0.13699089,0.43828708
9.872164999999999,-0.50382626,-1.4124450000000002,-0.16264723,-0.063669614,0.12260938
10.20856,-1.1431930000000001,-2.5245612,-0.44638540000000004,-0.15205309,-0.31494465
10.480522,-1.9288168,-3.1399095,-0.47300169999999997,0.11836823,-0.50284684
12.857351,-1.8237782999999999,-0.3642347,-0.4490383,0.21099286,-0.46451938
16.417127999999998,1.3782079,2.7366585999999997,-0.48843038,0.11889183,-0.38945276
14.021317000000002,0.025541342999999998,2.1760802000000004,-0.5528505,0.10505137,-0.2947163
8.398381,-2.918934,3.3504171,-0.5661499,0.07417649,-0.13768902
8.659224499999999,-2.0256286,3.7623347999999996,-0.517176,0.020420352,-0.03494149
10.851863,-0.12177868,2.3996892000000005,-0.44371507,0.13592625,-0.0035255651
12.220447,0.5042189,0.9671234000000001,-0.38995892,0.26368433,0.027855453999999998
12.531385,0.3895845,0.22482511,-0.34737290000000004,0.31107002,0.053948127
11.46386,0.47011587,0.21039286,-0.3085044,0.32384583,0.09119345
9.5068865,0.69744056,0.8640960999999999,-0.27869418,0.29988247,0.17530087
8.828322,1.4427458999999998,0.94554687,-0.25261897,0.24186772,0.27007225
8.773351,1.482346,0.24298275,-0.24569000000000002,0.08375835400000001,0.33288664
8.15829,0.75142497,-0.13698664,-0.21322687,-0.09986774,0.30839968
7.9146466,-0.044694955999999994,0.09572019,-0.12644911,-0.11531389999999998,0.19767599
8.201406,-0.495504,0.26840916,0.03323107,-0.08337438,0.07897615
8.099623,-0.48023856,0.107288964,0.12479104,0.08962265400000001,0.06085963
7.967980000000001,-0.16949032,0.074852325,0.20835741,-0.11370819999999998,0.07737044
7.948634599999999,0.14158352,-0.09614156,0.11307988,-0.28831095,0.07417649
7.8549547,0.22570617,-0.17866491,-0.05778785,-0.21697932,-0.14299482
7.724882000000001,0.5376419,-0.007987056999999999,-0.18661061,-0.51455796,-0.72216487
7.2057905,0.72492594,0.020312406,-0.14348352,0.010838495,-0.8547051999999999
7.3670063,0.2899953,-0.40062657,0.17376497,0.50696576,-0.55499727
9.001136,-0.14495455,-0.6276255999999999,-0.14934783,-0.04769985,-0.36285394
10.696239,-0.30953200000000003,-0.40223548,-0.42774528,-0.22975515,-0.29417524
11.328731,-1.0831944,-0.15451221,-0.31115729999999997,0.074717544,-0.23347269
10.998369,-1.2030958999999999,-0.55002475,0.07475245,0.05927138,-0.080704026
10.080471000000001,0.0018291701999999998,-1.3375831,0.3984063,-0.16800539,0.15510741
10.846883,1.2652302,-2.0516294999999998,0.512324,-0.13341297,0.36056757
13.502876,0.9979319999999999,-0.07151002,0.4756022,-0.10040879,0.40156534
18.212587,-2.5122647000000002,2.2958,0.4628264,-0.08443903,0.32171655
12.8890505,-2.546291,2.0935473,0.5591686,0.07098254,0.24026202
8.124369,1.082773,1.6739588,0.65285784,0.16840681,0.18969983
8.630752000000001,1.0203799999999998,1.8953266,0.6571165,0.039584067,0.13700834
10.305601,-1.0767778000000001,2.0643287,0.5932374,-0.054087754,0.108786374
10.672680999999999,-2.3676836,2.3947186,0.5213822,0.020420352,0.07258824
9.789019999999999,-2.0726125,2.324176,0.45003316,0.10665707,0.00816814
9.222139,-1.8333935000000001,1.4793771999999998,0.39201840000000004,0.10718067,-0.05035275
9.077950999999999,-1.8759241000000002,0.7328939,0.33080970000000004,0.09494591,-0.12861331
9.358513,-1.6942807,0.48222095,0.26745427,0.08801696,-0.20048597
9.369451,-1.9534484,0.5283715999999999,0.21209241,-0.03544764,-0.25211279999999997
9.027922,-2.1215692,0.56930286,0.14289011,-0.35857790000000006,-0.18184586
8.8718,-1.608396,0.3809175,0.018867008,-0.34634313,-0.053023104
8.687773,-0.91197056,0.15816097,-0.13709562,-0.080704026,-0.042917646
8.370981,-0.46712790000000004,-0.20530759,-0.23024383,0.09601056,-0.09400343
8.2560215,-0.47896484,-0.3806206,-0.21162117,0.10772172,-0.108926
8.199786,-0.6610199999999999,-0.6151087,-0.14828317,-0.08018043,0.035325464
8.202544999999999,-0.7981024,-0.93304914,-0.14721853,0.08323475,0.46490335
8.163012,-0.86326295,-1.2140998,-0.40645227,0.007120943,0.87374675
7.570188000000001,-0.93935066,-1.0941023,-0.109938286,0.031590457999999995,0.34672709999999995
7.240813,-0.5304306,-0.87545425,0.34410912,-0.13393657,0.1269029
8.0007515,-0.15648502,-1.0895725,0.6778859,-0.34793139,0.3967657
9.692246,-0.43848370000000003,-1.2591777,0.77796304,0.09335766,0.56819195
11.147767,-0.25005043,-1.1973593,0.48890162,0.23069762,0.47769663
10.203062,-0.17706558,-1.4091791999999999,-0.0029496064,-0.05035275,0.14765486
10.213942999999999,-0.95493215,-1.9228505,-0.23130849,-0.1786519,-0.26808256
11.30384,-2.339566,-2.233752,-0.21800907,0.015097098,-0.49272390000000005
14.009633,-2.2384062,-0.019163191,-0.17329374,0.16947147,-0.4969825
16.940289,-0.6441935000000001,2.4607701,-0.22759093,0.1529781,-0.43149775
12.859353,-2.7368982,3.0799107999999995,-0.37716565,0.14498450000000002,-0.34154347
8.602961,-3.5105989999999996,4.156132700000001,-0.48523644,0.08749335,-0.20367992
9.458342,-0.9719693000000001,3.6029766000000003,-0.5326046999999999,0.01563815,-0.08283333
11.209116,0.83782697,1.9062921000000002,-0.5006651,0.16627751,-0.012566371000000002
11.886694,1.0557089,0.85038215,-0.46766096,0.33929202,0.035342917
11.320609,0.19019538,0.7566635,-0.4362625,0.36856118,0.06195919
10.858835000000001,-0.35878548,0.8683099,-0.36599556,0.30309388,0.11358603
9.666148,0.03326025,1.2005293,-0.29731685,0.23706807,0.22483331
8.613073,1.2548393999999998,0.91682607,-0.29305825,0.13062043,0.3227812
8.255533,1.9037064,0.22450908,-0.29147,-0.16694075,0.28340656
7.703047,1.5910236999999998,-0.18352036,-0.18872245,-0.27925268,0.15350170000000002
7.602050299999999,0.83010805,-0.047127467,-0.00986111,-0.21430898,0.027366763
8.041845,-0.05007712,0.040299203,0.16205382,0.010297443,0.013508848
8.090008000000001,-0.33835816,0.03148854,0.21263346,-0.12274901,0.011379546499999999
8.003424,-0.14816278,-0.08331822,0.12692034,-0.3042807,-0.012548917
7.9237447,0.08753201,-0.22092736,-0.02263692,-0.4778188,-0.22443189
7.726979300000001,0.1552113,-0.34840423,-0.12431980000000001,-0.57150805,-0.6822143
7.3121505,0.5107503,-0.2586408,-0.08173377,-0.008831366,-0.8302008
7.023027000000001,0.4717535,-0.5528691,0.15566592,0.45640358,-0.6247406
8.621999,-0.44015005,-0.7166515999999999,-0.15732397,-0.09667379,-0.44640285
10.480311,-0.82931316,-0.45868117,-0.42242205,-0.13180727,-0.36709509999999995
11.416674,-0.9483623999999999,-0.16533399999999998,-0.30051079999999997,0.21951006,-0.29094640000000005
11.360573,-1.1807245000000002,-0.28749573,0.10562733,0.14391986,-0.100391336
10.891779,-0.21004811,-1.3356389,0.45324454,-0.14351842,0.17214182
11.223355999999999,1.1118385,-2.0791535,0.58100265,-0.20259781,0.42926374
12.958809,0.59144443,-0.6807769,0.5123414000000001,-0.16374679,0.5075242999999999
16.574676999999998,-1.7101879,1.1112926,0.41332890000000005,-0.08389798,0.41277036
13.157565,-1.7909107,1.920983,0.4399277,0.08484045400000001,0.29085913
8.929012,0.99815226,2.068025,0.53361696,0.23495622,0.18971729999999998
9.5738,0.5950358,1.9323602,0.57726765,0.20354029999999998,0.07367035
10.576921,-1.4860427,1.8805113999999998,0.5240351,0.070999995,0.04279547
10.539717,-2.4353437000000002,2.5280375,0.40746456,0.10133382,0.036407568
9.694056,-1.8334893,2.7583694,0.3052581,0.11943288,0.0012740904
9.073833,-1.2058923000000001,2.0134566,0.23338543,0.025743606000000002,-0.04022984
8.828341,-1.3029821000000001,0.9504885000000001,0.198793,-0.031189033999999997,-0.08175122
9.078402,-1.4158639,0.3266936,0.16898277,-0.009896017,-0.17863445
9.029809,-1.9150261000000002,0.16310260000000001,0.12161454,-0.08122762,-0.27871162
8.72382,-2.4037592,0.15300864,0.09712757,-0.3867824,-0.24942501
8.607088000000001,-1.8298501,0.13153745,0.043895032,-0.37667695,-0.058852499999999995
8.492367,-0.791207,-0.007469909300000001,-0.109938286,-0.014695672,0.038013272
8.160177000000001,0.01277546,-0.31900346,-0.21640338,0.20247565,-0.00029670597999999996
8.072118,0.14693695,-0.57386136,-0.28399998,0.22856832,0.0071383966
8.072175,-0.25147736,-0.7691804,-0.46766096,-0.24040166,0.480908
7.9974,-0.7978151,-1.0911621999999999,-0.7503345,-0.24891886,0.88174033
7.907071000000001,-0.9646813,-1.3141294,-0.44423866,0.38027233,0.2647839
7.6674690000000005,-0.9989087999999999,-1.2246053999999997,0.051871184,-0.07590437,-0.02851868
7.803364299999999,-1.3670508999999997,-1.1769608,0.53895766,-0.41819835,0.18760544
9.006489,-1.3772023000000002,-1.5018061000000003,0.7758338,0.13327335,0.4314105
10.385902999999999,-1.3353037,-1.6490398999999998,0.5160589,0.23815018,0.49422488
11.133536,-0.5171763,-1.5465585,0.025795966,-0.022148227000000003,0.20462239999999998
10.393603,-0.24484064,-2.1548580000000004,-0.22225022,-0.14936528,-0.24996606
10.977988999999999,-1.3101646999999998,-1.3646088,-0.259513,0.02628466,-0.48097783
13.212401999999999,-0.72659236,0.74764216,-0.24727824,0.10400417,-0.48684213
17.278696,0.9165196,2.4235352999999997,-0.31061625,0.11410963,-0.408058
13.383070000000002,-3.4260068,2.4006276,-0.4266632000000001,0.16308357,-0.32288590000000006
8.984164999999999,-5.0740795,4.399767,-0.47883108,0.14924310000000002,-0.17863445
9.455430999999999,-1.8547688999999998,3.8188667,-0.45008552,0.060353484000000006,-0.020001473
10.978986,0.7406511,1.8204936,-0.38355356,0.11623893,0.047054075
11.881733,1.448923,0.7262284000000001,-0.32339206,0.22802727,0.08911651400000001
12.176297,0.94953084,0.5908124,-0.29038787,0.2551846,0.10243337599999999
11.054297,0.29976365,0.71730286,-0.2403493,0.2578375,0.121056035
9.549992999999999,0.34087685,1.1445528,-0.16688839,0.2653075,0.17482963
8.724357000000001,1.1545798999999999,1.1181784,-0.15571828,0.14500195,0.27223647
8.442377,1.7793611,0.33830068,-0.22970279,-0.08655088,0.3068289
7.7852254,1.6549009999999997,-0.050670885,-0.22863813,-0.25902432,0.21900392
7.321803999999999,0.85737324,0.13982138,-0.13229595,-0.29096383,0.07475245
7.637982400000001,0.09628522,0.30240682,0.027384216,-0.057805302999999995,0.025778513
8.020547,-0.3658915,0.21361068,0.12161454,-0.13287191,0.018849555
7.985965299999999,-0.47418599999999994,-0.00023942017000000003,0.038571775,-0.24198989999999998,0.030560715
7.903739,-0.22476766,-0.27367643,-0.13016665,-0.39317033,-0.22013837
7.919339,0.061272413,-0.4309563,-0.21320942,-0.52092844,-0.7695156999999999
7.53167,0.5422675,-0.41488642,-0.14772467,0.09122836,-0.8546703000000001
6.815459,0.95304555,-0.42363963,0.076358154,0.41966440000000005,-0.5847899999999999
7.62717,0.78413934,-0.75483435,-0.32445672,-0.09985029,-0.41016984
9.944786,0.20205146,-0.4229501,-0.5155702999999999,-0.046094145999999996,-0.35376078
11.403583,-0.212404,-0.18949628,-0.28028244,0.21418679999999998,-0.3058515
11.058923,-1.2430983,-0.19029115,0.13226105,0.088558,-0.08972738
10.300278,-0.6371641,-1.299611,0.44792129999999997,-0.15842354,0.19238764
10.610259,0.5878051999999999,-1.9800718999999998,0.46708500000000003,-0.21165608,0.38721874
13.6684885,0.10677182,-0.048113875,0.35903168,-0.11316715,0.4005356
18.255922,-2.0962481,1.6671879,0.30312878,0.05235988,0.29513517
13.638513,-1.5065945,1.8129948,0.3409326,0.23389158,0.20676915
9.542886,1.7014443,1.5805466000000001,0.4143935,0.27860692,0.15034266
9.936071,0.71109706,1.8531792,0.4564385,0.15404277,0.08806931
10.6365385,-1.9518011999999998,2.2203348,0.41385248,0.016702801,0.09604547
10.648385000000001,-2.9956539,2.701368,0.34039158,0.015097098,0.07740535
9.5510645,-2.2271726000000003,2.2684104,0.28131217,0.063023835,0.05771804
9.115366999999999,-1.4523323000000001,1.4265325,0.26001915,0.06515314400000001,0.013543755
9.386448,-1.3025318000000001,0.530105,0.23394394,0.10667452,-0.0625526
9.3128605,-1.3989608,0.11542925,0.18017034,0.15884241,-0.16584119
9.048445,-1.7409581000000003,0.2910679,0.17432348,0.08431686,-0.28082347
8.406798,-2.047866,0.46459004,0.21689206,-0.28297022,-0.2605951
8.242977,-1.5368955,0.53293014,0.23659684,-0.41659263,-0.10461503
8.138342,-0.9096243,0.42443450000000005,0.118420586,-0.19301596,0.034836773
7.9078565,-0.46130519999999997,0.1261457,-0.040735986,-0.060458205999999994,0.030578168
8.099805,-0.51169837,-0.121433906,-0.14027211,-0.035971235,0.017261306
8.217618,-0.72477275,-0.38114733,-0.1860521,-0.10464994,0.13704325
8.545624,-0.8410447,-0.8059075,-0.32606240000000003,-0.16852899,0.6283709
8.613121000000001,-1.1708412,-1.1930403,-0.5203525,-0.08176868,0.8466243
8.157313,-1.6792356,-1.0544063999999997,-0.14081316,0.30150563,0.20783381
7.7133517000000005,-1.4778258,-0.5578586,0.32869786,-0.12007865,0.055065135999999994
8.379236,-0.9899641,-0.7601591,0.7119546999999999,-0.3223623,0.2940705
9.322792,-0.8819568999999999,-1.2301408999999999,0.7997970999999999,0.047577675,0.42875758
10.547081,-0.8979309999999999,-1.3326221999999999,0.40320596,0.00020943952000000002,0.36753142
10.051884,-0.17654844,-1.5468458,-0.07958701,-0.1813048,0.05400048599999999
9.9861965,-0.73444533,-2.0814424,-0.24460789999999996,-0.14510667,-0.31168088
11.106846,-1.7407379,-1.3894414,-0.27974138,0.017767452,-0.47724283
14.689520000000002,-0.91150135,0.72676474,-0.34894368,0.07419395,-0.4575555
17.056686,-0.24918851,2.51395,-0.47989574,0.08325221,-0.38355356
11.73247,-3.8141263,2.7676492,-0.61563,0.09176941,-0.29199359999999996
8.931675,-3.5395591,4.6440043,-0.66566855,0.05024803,-0.14027211
9.790216000000001,-0.77039665,3.629514,-0.64278734,0.03906047,-0.017313666999999998
11.37353,1.1236372,1.5540476,-0.58529615,0.19130553,0.026319565
12.030557,0.76418126,0.09137231,-0.54110444,0.30202922,0.08435176
11.791779,0.5835723,-0.051120992999999997,-0.50279444,0.35686746,0.11095058
10.982969,0.848189,0.47380295,-0.42133993,0.32599258,0.13917255
9.462928999999999,1.0350422,0.8096807,-0.29092893,0.31906363,0.21048671
8.567469000000001,1.7183186000000001,0.5858229,-0.22170918,0.24507913,0.31909853
8.178104,1.9831747,0.060534995,-0.24193753,-0.038100537000000004,0.332939
7.667517,1.3532507,-0.11520898,-0.1945693,-0.18662806,0.25576055
7.593824000000001,0.51568234,0.09101798,-0.060423300000000006,-0.11955505599999999,0.11362094
8.012943,-0.2558827,0.14604631,0.11309733,-0.03970624,0.01993166
8.165856,-0.6744753000000001,0.03808696,0.16900024,-0.22973768,0.023666665
8.025546,-0.46897623,-0.10297939999999998,0.11576769,-0.38784707,0.038571775
8.177032,-0.14093228,-0.30935,-0.15463617,-0.42298055,-0.021031217999999997
8.249241,-0.032111034,-0.35429397,-0.30049333,-0.23560199,-0.4005705
7.6112823,0.35154542,-0.24228363,-0.40910518,-0.21270327,-0.8828748
6.894601299999999,0.34081940000000005,-0.16183846,-0.16741198,0.46972045,-0.7444527
8.117742999999999,-0.17530344,-0.50607675,-0.15995942,0.0752586,-0.53632224
10.170099,-0.3913562,-0.4117165,-0.40643483,-0.25635397,-0.4516912
11.119372,-0.38282326,0.018081011,-0.40695843,-0.13978341,-0.3398854
10.880142999999999,-0.95838934,-0.26402298,-0.070005156,0.0060562924,-0.19350465
10.203973,-0.4197802,-1.5893573,0.30366984,-0.15308283,0.03642502
10.525984,1.1098082,-2.8666449000000003,0.5128825,-0.19886282,0.29462904
11.7528305,1.6402773000000002,-2.4765048,0.5538628000000001,-0.16427039,0.46069709999999997
16.181604,-0.5736508000000001,0.6453523,0.5064945,-0.16160004,0.42769292
17.1998,-3.2508566,2.5071027000000004,0.5208586,-0.059934605,0.31538099999999997
9.909448,-0.53413683,2.6052265,0.56983256,0.054506633,0.22862068
8.267791,0.5879871999999999,1.9450207999999998,0.60177207,0.070999995,0.113638386
9.5652,-0.5417983000000001,1.8914673,0.55120987,-0.04235914,0.0667763
10.323155999999999,-1.9866225,2.1029902000000003,0.46177920000000006,-0.048747044,0.07689921
10.441822,-2.4490287,2.4315991,0.39577085,0.05715953,0.061994094000000007
9.861689,-1.9309523999999998,1.7918013,0.33295646,0.08805186,0.011431906
9.041597,-1.6708176,0.9896385,0.26588345,0.06941175,-0.042865288
8.941567,-1.6027936,0.49401000000000006,0.22062707,0.24240878,-0.115785144
8.979196,-1.9281464,0.41125682,0.17271778,0.27382470000000003,-0.20362756
8.768122,-2.3348447999999995,0.51987696,0.15036010000000002,-0.049811699999999993,-0.23821999
8.64484,-1.8903371,0.32061234,0.11948524,-0.4288274,-0.1344078
8.536296,-1.1319976999999999,-0.008341399000000001,0.019408062,-0.26912978,-0.015166911000000002
8.514863,-0.33196086,-0.29926562,-0.08330456,0.047577675,-0.081716314
8.669903,-0.08872912,-0.46096045,-0.08065166,0.13009684,-0.1344078
8.758152,-0.32178070000000003,-0.6454385,-0.017837266,0.16310102,-0.15091862
8.854525,-0.7341772,-1.0134944,0.09606292,0.01563815,0.064664446
8.881167,-1.0190297,-1.4568908,-0.019966567,0.03747222,0.5767614999999999
8.364833,-1.382163,-1.4132301999999999,-0.34362042,-0.26593579999999994,0.9850464
7.650326700000001,-1.3787249,-1.0824281999999998,0.081698865,0.20142844,0.37606609999999996
7.384235400000001,-0.8813631,-1.0681683000000002,0.36808994,0.0012740904,0.2020044
8.608275,-0.3947177,-1.5987331,0.5490805999999999,-0.23879595,0.32443926
10.276479,-0.8699954,-1.738516,0.45539132,-0.034906585,0.35105553
10.779164999999999,-0.66076136,-1.4730374,0.072640605,-0.0056199604,0.16528268
10.476155,-0.9307028,-1.9498475,-0.22544418,-0.12859586,-0.17859954
10.243755,-1.7412647,-2.5011652,-0.28398252,-0.03436553,-0.47935468
10.399339999999999,-2.2509040000000002,-1.7625442999999998,-0.28506464,0.124773584,-0.50438267
12.887844,-1.5114117,1.5811117000000001,-0.36491343,0.086969756,-0.40217623
15.4682665,0.30665892,3.5755486000000003,-0.48148397,0.043319073,-0.33616787
11.724836999999999,-1.368267,3.5269656000000005,-0.5778436,0.04173082,-0.23661429
8.934175,-1.5566813,3.2489893,-0.6076364000000001,0.04333652599999999,-0.11205014
10.97662,-0.56876653,2.0299096000000003,-0.5890137,0.1269029,-0.049759335999999994
12.291792999999998,0.19038692,0.41793185,-0.5405808000000001,0.2754304,-0.003979351
12.497676,-0.07739017,-0.06347507,-0.49958304,0.32651618,0.0641234
12.2497225,-0.09889010000000001,0.15844828,-0.43837434,0.32279864,0.11683234
10.885641,0.4281886,0.47915637,-0.35479054,0.2802126,0.20413370000000003
9.093972,1.0764234,0.43628100000000003,-0.29729939,0.18226473,0.30792844
8.488709,1.8148718999999998,0.13639288,-0.32445672,-0.01680752,0.34679693
8.15579,1.6456113999999997,-0.37108213,-0.3100752,-0.25954792,0.27759463
7.9376407,0.7187489,-0.32360032,-0.22331488,-0.25157174,0.1264142
8.056613,-0.1281281,-0.087340474,-0.020490166,0.04865978,0.014102261000000001
7.9571004,-0.49930596,-0.14946522,0.05668829400000001,-0.12805481,-0.020490166
7.6967645000000005,-0.37353379999999997,-0.30443709999999996,0.029007372000000003,-0.35695472,0.009843656999999999
7.728349000000001,-0.14414051,-0.39015913,-0.19509289999999999,-0.3553665,-0.057752945
7.707107499999999,0.07839574,-0.56513697,-0.36704275,-0.20205677,-0.47616073
7.4190564,0.52834284,-0.533725,-0.39364156,-0.13924237,-0.9919753000000001
6.828454499999999,0.8825793,-0.5299326,-0.05297074,0.5793795,-0.76361644
7.3151,0.45640188,-0.7148512,0.0034382986,0.13648474,-0.39046505
9.297385,-0.23541707,-0.83350784,-0.40163517,-0.17277014,-0.26003662
10.866103,-0.37572688,-0.54402006,-0.5389751,-0.23877849,-0.24884905
10.846950999999999,-0.72707117,-0.12126153,-0.24939009999999998,-0.030124382999999998,-0.23821999
10.122043,-0.16856137,-1.0817578,0.2632131,-0.04129449,-0.044977135999999994
10.041378,0.9550854,-2.2679603,0.6092420999999999,-0.14456563,0.22916172
11.611131,1.0982299,-2.1046948,0.6400995,-0.12381366,0.42877504
16.597363,-1.2438068000000002,0.843008,0.5597270999999999,-0.08866273,0.43676865
18.644644,-4.2713614,2.664392,0.5336344,-0.018936822,0.3105988
10.291371,-0.30022332,2.4627812000000002,0.5496042,0.10241592,0.20252799999999999
7.6233106,1.5245988000000001,1.3040258999999998,0.5655914000000001,0.08644616,0.10459758
8.838972,0.39361632,1.3207468999999998,0.5267229,-0.05300565,0.05136504
10.478769,-2.3336189,1.8393791000000002,0.45060912,-0.039165188,0.05614724
11.078958,-3.5269847000000003,2.2827947,0.40374702,0.07953466,0.03965388
10.061844,-2.9138873,1.7371561999999998,0.386189,0.11466813,0.02528982
9.083851,-2.0014951,0.81932455,0.39737657,0.08325221,0.008779005999999999
9.143207,-1.7373668000000002,0.18640298,0.41706386,0.14873695,-0.047106437
9.430253,-1.4574653999999998,0.26211718,0.42025784,0.21580996,-0.13493139999999998
9.276593,-1.7361793999999997,0.30071172,0.40163517,0.01298525,-0.22010347
8.742609,-1.8238836999999999,0.16833153,0.30899309999999997,-0.49961796,-0.16687092
8.828925,-1.2258313,0.10147584,0.19402826,-0.5501976,-0.047630034
8.783886,-0.7622468000000001,-0.29014853,-0.027401669,-0.079080865,-0.007173303000000001
8.49164,-0.5805364000000001,-0.57717496,-0.20202187,0.1375494,-0.07691666
8.4247465,-0.7123611999999999,-0.5914253,-0.2536487,0.061435588,-0.07956956
8.284091,-1.0319871999999999,-0.6396445,-0.25310764,-0.0013613568,0.24354324
8.581796,-1.216197,-0.9184636999999999,-0.41760492,0.15193091,0.80407315
8.495356,-1.264694,-1.1463054,-0.41334632,0.37070793,0.6869616
7.5197663,-1.2954928999999997,-1.0486891,0.07744026,0.17268288,0.17325884
6.664318,-1.1247672,-0.9410936,0.47349036,-0.22280873,0.21425661
8.007236,-0.57361245,-1.4443357,0.7055842,-0.04394739,0.42877504
10.053683,-0.37260482,-1.7080523,0.5788908,0.30150563,0.45593235
11.023192,0.17034267,-1.6862650000000001,0.10353293,0.21900392,0.20734511
9.87814,0.028423961,-1.9194698000000001,-0.20680407,-0.035430185,-0.1956165
9.814244,-1.4061816999999999,-2.2260617999999996,-0.22223277,0.032148965,-0.49637163
11.633722,-1.8088098000000001,-1.176434,-0.25097835,0.19238764,-0.5501451999999999
15.405327999999999,-0.74563104,0.7526795999999999,-0.36808994,0.1955816,-0.4782726
15.423829999999999,-1.550418,3.3907452000000005,-0.52246433,0.15458381,-0.3819304
10.924033,-3.626593,3.9612067000000004,-0.5890137,0.09337512,-0.25097835
9.598872,-1.8962363999999998,3.9906650000000004,-0.61030674,-0.04022984,-0.11843804
11.291525,0.4641495,2.1869693,-0.544822,0.08538151,-0.044436082
12.239245,1.1382802,0.3729017,-0.45964992,0.26052529999999996,0.011431906
12.0804615,-0.12926774,0.051312532,-0.42771038,0.28820622,0.07105235
11.778678,-0.355108,0.45098140000000003,-0.35053194,0.24294983,0.13653710000000002
10.597666,0.47391784,0.7699274,-0.22862068,0.16842428,0.20361010000000002
9.128391,1.5579358,0.43456677,-0.15463617,0.11838568,0.29358184
8.122856,2.241011,0.07421068,-0.13121386,-0.06365216,0.319116
7.3824344,1.8389096,-0.16191506,-0.096603975,-0.26433012,0.24726079999999998
7.183735400000001,0.70196074,0.0054683564,0.0061086523,-0.09398598,0.1370607
7.8735332,-0.17153977,0.10506715,0.08223991,0.15725416,0.09129817
7.9904850000000005,-0.6321555,0.10485646,0.031136672999999997,-0.14508922,0.068940505
7.7575009999999995,-0.55400866,-0.12876974,-0.008779005999999999,-0.31543335,0.07904596
7.736144500000001,-0.22035275,-0.24562594,-0.16156512,-0.33407348,-0.008779005999999999
7.6858664,0.17337851,-0.37995023,-0.12002629,-0.3223623,-0.39470622
7.435826,0.28261158,-0.47068092,-0.10831513,-0.5278399,-0.9392664000000001
7.0656056,0.1499728,-0.4768771,0.21052161,0.40744709999999995,-0.76466364
8.316930000000001,-0.30816248,-0.53505623,0.44315654,0.29085913,-0.40215877
9.917473,-0.49633715,-0.6834775,-0.13547246,-0.22760838,-0.23394394
10.654629,-0.025617959,-0.20139067,-0.5368458,-0.13763666,-0.21263346
10.408936,0.027159825,-0.20562361,-0.38885936,0.24774949,-0.29410544
9.790638000000001,0.10482773,-1.1198447,0.09075712400000001,0.2498788,-0.24192008
10.085344000000001,0.7519613,-2.026366,0.48254862,-0.107302845,0.07585201
11.48784,1.0108032,-1.9224578,0.5767614999999999,-0.1802227,0.41175807
15.824429,-0.9979894,1.1036313,0.45060912,-0.09878564,0.54803336
18.801159,-4.4999213,2.3127317,0.34201473,-0.03117158,0.45488515
10.372074000000001,-0.7700231,1.945873,0.3776718,0.106150925,0.31061625
7.8980117,2.5669577,0.9474718000000001,0.48200756,0.17055358,0.1839228
9.892488,1.7125437,0.7869454,0.5096885,0.09389871,0.10566223400000001
11.075932,-1.9268056,1.2581052,0.43942153,0.071017444,0.098750725
11.276575,-3.7968974,2.2536044,0.37128390000000006,0.14819591,0.057752945
9.9233055,-2.5948455000000004,2.3888197,0.33934435,0.110933125,0.006126106
8.706236,-0.9066171000000001,1.5380926000000001,0.33616787,0.026302112000000002,-0.030578168
8.732592,-0.6509068,0.48707637,0.33456215,0.052377332,-0.09180432
9.22756,-1.0504608,0.19822074,0.3105988,0.010332349000000001,-0.16845918
9.204527,-2.0868244,0.38654864,0.28452358,-0.21483257,-0.22115067
8.643701,-2.596368,0.5005222,0.17805849,-0.57094955,-0.17111208
8.56133,-1.9336339,0.43018058,0.021013765,-0.51026446,-0.064647
8.516425,-0.86648077,0.16622464,-0.17432348,-0.10463249,-0.08595747
8.356195,-0.20407218,-0.040088512,-0.22010347,0.22485077,-0.16048302
8.369525,-0.46450385,-0.11053551,-0.14557791,0.371249,-0.2009223
8.361864,-1.0647396999999998,-0.3788393,-0.13760176,0.18226473,0.16315338
8.365053999999999,-1.4211789,-1.0066756,-0.49851840000000003,-0.36707765,0.89085096
8.117435,-1.5159989999999999,-1.4210353,-0.40163517,0.030560715,0.5714732
7.688232000000001,-1.2010273999999999,-1.3519195,0.0034557518,0.12157963,-0.0108908545
7.295984700000001,-0.72505045,-1.4179037,0.47774896,-0.3314031,0.084910266
8.243658,-0.34429577,-1.9026816000000002,0.8120493000000001,-0.13976596,0.3728896
9.86685,-0.8075738,-1.9482002,0.65236914,0.18067649,0.47565457
11.004402,-0.92355853,-1.4021019,0.120567344,0.010855948,0.28667033
10.226248,-0.54085016,-1.4006558999999998,-0.24939009999999998,-0.09611528,-0.10937978
10.282752,-1.2273923,-1.1492934,-0.32337459999999996,-0.036494836,-0.39522982
11.626185000000001,-1.0170665,0.14681245,-0.32817426,0.053441983,-0.47240826
15.990385,1.3131716999999998,1.6217173,-0.3840597,0.09817477,-0.42982224
14.82233,-2.4064217,1.8030254000000001,-0.47403142,0.17694148,-0.35051447
10.182607,-5.5034366,3.3820684,-0.5006477,0.20729275,-0.23286183
9.147297,-2.5480533,3.9519267,-0.45858526,0.10454522,-0.12693779
10.484697,1.1319881999999999,2.0216734,-0.38885936,0.09976302,-0.05721189
11.465938000000001,2.1337987999999997,0.24269544,-0.31431633,0.21528636,-0.018849555
12.033296,0.88450426,-0.44876915,-0.26588345,0.29565877,0.015725417
11.746106,0.22012289999999998,0.27556306,-0.18284069,0.30150563,0.05403539
10.415716,0.19467732,0.83340245,-0.11311479,0.27488935,0.14613642
9.398966,0.8937841999999999,0.84857213,-0.091821775,0.20462239999999998,0.26483625
8.871186999999999,1.5629444,0.23351127,-0.14983651,0.057700586,0.33138567
8.185489,1.3946991000000002,-0.13500424,-0.20252799999999999,-0.22015584,0.28508207
7.740147599999999,0.6793882,0.1256094,-0.21851522,-0.18448131,0.14133677
7.9997272,-0.11657847,0.39012077,-0.16048302,-0.072151914,-0.009285152
8.090726,-0.6623128,0.3827275,-0.086498514,-0.01680752,-0.077422805
7.8657765,-0.590324,0.045317452,0.02846632,-0.29255208,-0.0641234
7.8996587,-0.2987006,-0.26800692,0.0673348,-0.18341665,-0.03218387
7.921849000000001,0.07912358,-0.47487554,0.017819813,-0.28775242,-0.38936550000000003
7.6179570000000005,0.45296379999999997,-0.66316515,-0.02953097,-0.29201102,-0.8924042999999999
7.1329303,0.84249085,-0.5582704,0.20999801,0.5224293999999999,-0.7321831
7.182633999999999,0.78736675,-0.68522054,0.17167059,0.15831882,-0.33400366
9.041807,0.4028005,-1.0649601,-0.35691983,-0.3010693,-0.18921115
10.715824000000001,0.75089824,-0.9106586,-0.5501451999999999,-0.2627244,-0.19772835
11.020682,0.36592020000000003,-0.7359201999999999,-0.30208158,-0.045012042,-0.22488567
10.573455000000001,-0.68092054,-0.72159326,0.19031070000000003,0.013002703000000001,-0.03642502
9.988667,-0.1671057,-1.3002143999999998,0.48520154,-0.09505063,0.25047220000000003
11.033593,0.59345555,-1.3186018,0.46977282,-0.15360643,0.4623377
15.668671,-1.2500798,0.8714703000000001,0.34147367,-0.13763666,0.46657887
18.506193,-4.1207275,2.9837403,0.29304078,-0.06843436,0.35266122
10.280481,-0.13722606,1.7990893000000001,0.34999087,0.15193091,0.23289673
8.031436,2.5596507,1.166685,0.41495204,0.20729275,0.108873636
9.738242999999999,1.5028499,1.4967303,0.41441098,0.020978857000000004,0.04925319
11.1751375,-1.9043002,1.8069711,0.34840262,-0.08066912,0.08970992
11.377103,-3.7034278,2.4274522999999997,0.27761206,0.03323107,0.11419689
9.876503,-2.8320724999999998,1.9762794,0.1977458,0.13116150000000001,0.08758062
9.021142,-1.7183281000000004,1.1198161,0.14186037,0.13170254,0.029024825
9.256473,-1.1396879,0.5435029,0.1285435,0.14500195,-0.05932374
9.409797,-0.9966200000000001,0.43082222,0.13173746,0.13861404,-0.15940093
9.092891,-1.3944118,0.53904974,0.17112954,0.0065973448,-0.23020893
8.477839,-1.7736724999999998,0.6936864,0.20467477,-0.32555628,-0.17910568
8.233286,-1.5203468,0.60765797,0.1775349,-0.41657520000000003,-0.006091199
8.185096000000001,-0.99881303,0.22587857,0.08703957,-0.03010693,0.023177972
8.203167,-0.4394988,-0.19451453,-0.0034382986,0.15938346,-0.05984734
8.199968,-0.21990263,-0.47129384,-0.02846632,0.10828023,-0.08967502
8.281965,-0.49927726,-0.7402105999999999,-0.16739453,-0.35482544,0.41336378
8.505746,-1.0473386999999998,-0.92153776,-0.5182057,-0.27230626,1.0319259
8.357565,-1.481781,-0.98683244,-0.30686378,0.37657225,0.38515925
7.862846,-1.5889168,-0.8233372,0.070005156,-0.010402163,-0.08859291
7.636143700000001,-1.5777693000000002,-0.6577638000000001,0.56826174,-0.37611845,0.07588691
8.3142,-1.5636531,-1.091957,0.87381655,-0.052464597,0.36226055
9.745693,-1.5288223,-1.5532431999999998,0.69654346,0.16364206,0.47565457
10.571952,-0.85004693,-1.6709516,0.20254546,-0.03223623,0.24408429999999998
9.662539,-0.556968,-2.2989889999999997,-0.092886426,-0.11740830000000001,-0.19453439
10.054546,-1.1708317,-1.3210918,-0.12534955,0.091245815,-0.45163885
12.794058999999999,-0.04148673,0.42921332,-0.12428489,0.17908823,-0.47506118
17.927256,1.4107115,1.7749845000000002,-0.17964675,0.16311847,-0.41542327
14.466035,-3.4946055,1.7633008000000001,-0.29621729999999996,0.21155135,-0.34943238
10.025939,-5.1480794,4.017174,-0.35053194,0.21687461,-0.23073253
9.147,-2.2575119,4.1221642,-0.35637876,0.10562733,-0.11733848599999999
10.108674,0.8030056999999999,2.1913555000000002,-0.31805134,0.16524777,-0.04972443
11.264652,1.3922378999999998,0.62698394,-0.28930578,0.24614379,-0.00022689281000000004
12.072761999999999,0.52218497,-0.022572534,-0.32389819999999997,0.17428859,0.035953782000000004
11.507864,0.5244164000000001,0.038690300000000004,-0.28982937,0.18654078,0.0636347
9.901077,0.5545545999999999,0.82463974,-0.19826939999999998,0.25200808,0.107808985
8.753306,1.3324786,0.9688568000000001,-0.12374385,0.1870644,0.18819885
8.499014,1.7572675,0.38418317,-0.10725048,0.026843164,0.28347638
7.9716573,1.1814524,-0.11625286,-0.17697638,-0.19725712,0.28775242
7.524813000000001,0.33769736,0.103640206,-0.20306906,-0.26539478,0.20790362
8.171717,-0.061760828,0.35659242,-0.12054989,-0.01733112,0.07161086
8.347288,-0.08098148,0.23380816,-0.013561208,0.009267698000000001,-0.03375467
8.165731,0.081345394,-0.059548582999999995,0.07426376,-0.28082347,-0.06408849
8.173967,0.14591223,-0.40277177,0.015707963999999998,-0.48949504,-0.08859291
8.214447999999999,-0.032618605,-0.67591184,-0.12109094,-0.5145231,-0.23445007
7.976379,0.05407065,-0.65258276,-0.22223277,-0.42189842,-0.664569
7.094144,0.36256832,-0.52017385,-0.15196581,0.22486822,-0.7822217
6.9142246,0.597813,-0.6334196,0.10353293,0.46600290000000005,-0.5559746
8.888551,0.28838637,-0.8349635,-0.1913579,-0.041277036,-0.40851176
10.886627,0.1710705,-0.65182614,-0.54801595,-0.2435607,-0.33665657
11.242816,-0.21717325,-0.06919243,-0.46123815,-0.051923542999999996,-0.3057817
10.687813,-0.51240706,-0.58101535,-0.08967502,-0.01839577,-0.15779522
9.9175205,0.29640216,-1.6593828999999998,0.2749417,-0.15625933,0.13763666
10.749103999999999,1.2260993999999998,-2.4241674,0.43305108,-0.16744688,0.40645227
13.498346,0.430918,-0.76841426,0.35533157,-0.20629792,0.48417178
18.035099,-2.3675113,1.8680232,0.26377162,-0.15999433,0.39367646
13.278731,-2.280477,2.4432447,0.27335346,0.009267698000000001,0.2797588
8.791135,0.67774105,1.7672561000000002,0.32339206,0.19505799999999998,0.16425294
8.734086,1.2001941999999999,1.7265164000000002,0.3617195,0.21954496,0.049270645
10.087059,-0.391519,1.8181471999999999,0.34733796,0.1348965,0.04288274
11.032146000000001,-1.9017526999999999,2.48453,0.33030355,0.07847001,0.07534587
10.486709,-2.6334207000000003,2.2782266,0.32977995,0.031101767000000002,0.060440753
9.331564,-2.234633,1.498416,0.3159395,-0.02104867,0.025307272999999998
9.129655999999999,-1.5540476,0.6359575,0.30209905,-0.07056366,-0.021519909
9.237424,-1.3515077,0.15083470000000002,0.27707103,-0.12644911,-0.082187556
9.377993,-1.6574962,0.18470787,0.23661429,-0.053529248,-0.17908823
8.919857,-1.9667026,0.12192232,0.21638592,-0.12805481,-0.19877554
8.67789,-1.7627932000000002,0.019124883999999998,0.24141394,-0.18661061,-0.11946779
8.531872,-1.1123557,-0.06673119,0.1344078,0.053983033,0.0045553090000000004
8.126936,-0.6101191999999999,-0.02785893,-0.051347587,0.07049385,0.03754203
7.797915,-0.4626268,0.030588321,-0.15409511,-0.05724680000000001,0.04766494
7.6645007,-0.64416474,-0.24782862,-0.19081685,0.005009094699999999,0.17755234
7.697646000000001,-0.8206556999999999,-0.6718896,-0.41332890000000005,0.022584561,0.61140627
7.9081054,-1.0421768,-1.0606314,-0.5346991,0.08379326,0.6870139000000001
8.071352000000001,-1.3507416,-1.3417872,-0.19242255,0.19612265,0.21961477
8.457517999999999,-1.4955716000000001,-1.2657666,0.25844836,-0.17596409,0.19671606
9.701573,-0.9234915000000001,-1.2802083,0.6885673000000001,-0.21429153,0.40540507
10.404865,-0.49913362,-1.7328465,0.77586865,0.09976302,0.5358161
10.606371000000001,-0.75493014,-1.8352802,0.39685297,0.09817477,0.42401028
10.108741,-0.8126974,-2.1406846,-0.047630034,-0.07853982,-0.04600688
10.056806,-1.2784175,-2.4045349999999996,-0.19242255,-0.15200073,-0.47239079999999994
11.321921000000001,-1.6055325,-1.4437323,-0.15674803,0.09018116400000001,-0.58683205
14.389745999999999,-0.117392495,-0.11473015,-0.12002629,0.17695893,-0.5059359999999999
15.61914,0.080876134,2.2730452999999997,-0.17430604,0.14714871,-0.38720128
11.216012,-3.5550926,2.1799880000000003,-0.23872614,0.191323,-0.2509609
8.94086,-3.8504891000000003,3.9714059999999995,-0.24404939,0.16044812,-0.12372639
10.010109,-1.1681502000000001,3.0009978,-0.23713788,0.16257742,-0.039618972999999995
11.216605,0.57819015,1.2150096000000001,-0.22649138,0.2647839,-0.011938052
12.232761,0.75539935,0.17266025,-0.24404939,0.33239797,0.014678219
11.953261999999999,0.44276450000000006,0.09051039999999999,-0.25895450000000003,0.3057817,0.04235914
10.884109,0.13639288,0.52904195,-0.21476276,0.23816763,0.08388052
9.43507,0.714018,1.0330024,-0.1328021,0.18973474,0.15519467
8.608236999999999,1.4143028,0.8358733,-0.06997025,0.15512486,0.26912978
8.18454,1.5048993999999998,0.11750741,-0.11896164,-0.04553564,0.35430184
7.528989,0.9890639000000001,-0.18769583,-0.1870993,-0.1802227,0.3085044
7.47803,0.19763656,0.117267996,-0.20519836,-0.13444272,0.16744688
7.8551839999999995,-0.30999166,0.27342740000000004,-0.1311964,0.059306286,0.0056199604
7.9901214000000005,-0.42702982,0.09255026,-0.044959683,-0.21268582,-0.07154105
8.026733,-0.08409394,-0.23385605,-0.0641234,-0.36173695,-0.08271115
8.070911,0.2778806,-0.6015191999999999,-0.25523695,-0.42828634,-0.20142844
8.029942,0.35410240000000004,-0.8026226,-0.35105553,-0.581055,-0.6911853
7.678866,0.51883304,-0.76481336,-0.26905996,-0.11047934,-1.0616663999999998
7.0896144,0.58639747,-0.8242949,0.17592919,0.62144196,-0.6858446
8.031197,0.4780359,-1.2365476999999998,0.018901916,-0.09983283,-0.37868407
10.035296,0.50381666,-1.1131985,-0.47561967,-0.45116759999999995,-0.33930945
10.8704605,0.45916,-0.74282503,-0.5352401,-0.14828317,-0.35262632
10.627842,-0.23462220000000003,-0.41272208,-0.21690951,0.03375467,-0.3015231
9.718964999999999,0.18216045,-1.3161118,0.15889478,-0.17755234,0.021066124
10.064553,1.1213674999999999,-2.3073592,0.3814068,-0.15200073,0.3702716
12.378875,0.911032,-0.99926317,0.35000834,-0.13177235,0.521452
18.426579999999998,-2.516105,2.327595,0.25684264,-0.11686724400000001,0.45437902
17.107414000000002,-4.632043,2.8608892000000004,0.28080603,0.04972443,0.32077405
8.800185,0.21419485,2.3157867999999997,0.37662458,0.25520205,0.20045106
8.18113,1.7906713,1.4395186000000002,0.42612213,0.17535323,0.10250319
10.790246,0.32412702,1.5630306,0.39365903,0.00076794485,0.083356924
11.788053,-1.6466744,2.299056,0.36384878,0.010332349000000001,0.10089748
10.915328,-2.2924674,2.3572352000000003,0.36650170000000004,0.08805186,0.08546878
9.375531,-1.9435936999999999,1.6315527,0.3659781,0.04759513,0.030630529
8.796239,-1.6394153000000002,0.5951698000000001,0.36278415,0.021519909,-0.044924773
8.945771,-1.4712082,0.12518802,0.35107297,0.067299895,-0.11307988
9.111317,-1.8274846000000002,0.25510700000000003,0.3058166,0.039077923,-0.19664624
8.784661,-2.1338084,0.35845029999999994,0.22650883,-0.27762952,-0.18547614
8.342691,-1.7756932,0.2517551,0.14186037,-0.37611845,-0.09389871
8.232682,-1.0739813999999999,0.14351802,-0.026337017999999997,-0.037018432999999996,-0.023631757000000003
8.13025,-0.54410625,-0.09445605,-0.22595033,0.22912683,-0.06250024
8.048962,-0.533093,-0.20661962,-0.25150195,0.052918382,-0.063023835
8.159689,-0.72166026,-0.43508393,-0.16952384,-0.074281216,-0.0028797933
8.284627,-1.091957,-0.86983263,-0.020996312000000003,0.101368725,0.22813198
8.300017,-1.2125386999999999,-1.3227198,-0.26267204,0.36007887,0.8062374
7.9946227,-1.1739823999999999,-1.5062209999999998,-0.5368284000000001,0.14821336,0.856817
7.6216826,-1.0348601,-1.3969878999999998,-0.071575955,0.20144589999999998,0.10515609
8.344175,-0.27618550000000003,-1.5214864,0.3047694,-0.09292133,0.07004006
9.797428,0.033068713,-1.7400388999999998,0.61243606,-0.21216223,0.34471998
10.832603,-0.3617639,-1.7577271,0.6720565,0.17163567,0.4442561
9.814943,-0.47210786,-1.4932923,0.2967758,0.10562733,0.36068973
9.787966,-1.3802477,-2.0753994,-0.11896164,-0.10515609,0.035430185
10.247499000000001,-2.7206460999999997,-2.902031,-0.21849777,-0.052988198,-0.32173398
11.935249,-3.0830805,-1.6540582,-0.21263346,0.10882128,-0.4665265
15.639729500000001,-0.41320089,1.3678745,-0.29461157,0.13650220000000002,-0.43191662
16.730787,1.2020233,3.8214045,-0.42451644,0.13330825,-0.38135445
10.537935000000001,-2.979967,2.8910367000000003,-0.5182057,0.14289011,-0.2860769
8.224064,-3.1941235,3.9322274,-0.5490805999999999,0.08433431,-0.15406021
10.015989,-0.9177263000000001,2.978789,-0.53044045,0.0763407,-0.067282446
11.556295,0.65058124,1.2080950000000001,-0.46975538,0.2578724,-0.018849555
11.806833000000001,0.108457334,0.20338264,-0.44685665,0.35740852,0.043964844
11.630514999999999,0.0028634653000000005,0.27118644,-0.41119957,0.31696925,0.109449595
10.706266000000001,0.5725398,0.6208548,-0.31963959999999997,0.26371926,0.17650515
9.334092,1.0607367,0.6740156999999999,-0.23553218,0.25041983,0.27392942
8.693078,1.6309398000000002,0.28364587,-0.23979078,0.16577137,0.3612308
8.096836,1.5291,-0.10840946,-0.23233823,-0.16690584,0.32449162
7.374792599999999,0.9481995999999999,-0.08117301,-0.17804104,-0.24462534,0.20470966
7.743758000000001,0.24262840000000002,0.18241902,-0.021013765,-0.080145516,0.081210166
7.9808509999999995,-0.3720398,0.26641718,0.098750725,-0.02104867,0.011484266000000002
7.9343843,-0.49594453,0.10929052,0.11526154,-0.28082347,-0.03906047
7.7645016,-0.12530294,-0.034380738,-0.027384216,-0.30318114,-0.12636183
7.7596172999999995,0.2179011,-0.22399193,-0.10512118,-0.20842722,-0.40477675
7.7497053,0.27471069,-0.31260613,-0.23605578,-0.43254495,-0.8705528
7.240784,0.3846333,-0.32964328,-0.116291285,0.18921115,-0.82583743
7.210617,0.28677747,-0.6444042,-0.052935835,0.36114353,-0.60706043
8.877824,-0.3498216,-0.87092435,-0.46495572,-0.17064084,-0.50166
10.51248,-0.4737838,-0.7088273,-0.5618389,-0.03382448,-0.42339942
11.046138000000001,-0.6583959,-0.05007712,-0.25310764,0.23603833,-0.27436575
10.991511000000001,-0.7140946,-0.43003693,0.22331488,-0.016266469,0.023195425
10.912656,-0.20253989,-1.429281,0.50438267,-0.16744688,0.33300883
11.575486,0.48073655,-1.9894763,0.5070531,-0.11632619,0.5145405
14.491106,-0.31029812,0.34729335,0.37823029999999996,-0.1269727,0.46930158
16.86649,-2.556203,1.5455338,0.33670890000000003,-0.07161086,0.32875022
10.821475999999999,-0.32119653,1.5383704,0.40058798,0.11946779,0.23026128
9.068977,1.7964748,1.7447505,0.45434412,0.2855533,0.14775957
10.487839,-0.0006416460400000001,1.9628047999999998,0.44210935,0.24670228,0.07590437
10.836664,-2.623327,1.9520118000000002,0.36013123,0.13756685,0.06791076
10.501112,-2.9854546,2.6502855,0.29784045,0.12372639,0.05248205
9.511397,-1.9398875,2.3916447,0.28028244,0.14076081,0.0013962634
9.425024,-1.5873270000000002,1.3244053999999998,0.27387705,0.15831882,-0.066217795
9.679288,-1.4187561000000002,0.5218305999999999,0.24780184,0.14234905,-0.1359437
9.537666,-1.4705857,0.3213689,0.22811453,0.07475245,-0.21898647
9.164209,-1.9336721999999997,0.36353558,0.22757348,-0.14720106,-0.23760912
8.847332000000002,-2.0728328,0.29958168,0.21214478,-0.46500808,-0.18172368
8.565008,-1.5176941000000002,0.17459477,0.13123131,-0.41816345,-0.04279547
8.377532,-0.7988109999999999,0.03449566,-0.04654793,-0.07269296,-0.027890362000000002
8.063528,-0.32724905,-0.18786822,-0.087545715,0.10934488,-0.04279547
7.899132300000001,-0.32415575,-0.26117867,-0.15727162,0.42395790000000005,0.06684611
8.109937,-0.6817536999999999,-0.45467806,-0.5735501000000001,0.014067353999999999,0.74822265
8.175519,-1.2709763,-0.704671,-0.80032074,-0.18606955,1.0010860000000001
7.8564773,-1.5997481000000002,-0.8771493,-0.37180749999999996,0.29513517,0.14032447
7.342279400000001,-1.4122726,-0.7992899,0.19350465,-0.26165977,-0.16577137
7.4516845,-0.9765374,-0.9396763000000001,0.7753451,-0.312763,0.15308283
8.521854,-0.52743304,-1.6169385,1.0324495,0.22593287,0.49857074
9.69621,-1.1841434,-2.0585153000000003,0.62255895,0.13117895,0.5597969
10.788005,-1.1910292,-1.617312,-0.022602014,-0.117931895,0.18343410000000002
10.235596000000001,-0.5131635999999999,-1.7629368000000003,-0.34838519,-0.03647738,-0.30309388
11.026994,-0.80452836,-0.7601303,-0.36648422,0.06675884,-0.51923543
14.552399,1.4852094999999998,1.5664591,-0.33773866,0.05984734,-0.5378581
17.135666,1.7619599999999997,2.557898,-0.40107667,0.115209185,-0.47822022
12.316730999999999,-5.4789867,2.3781703,-0.5027595,0.14236651,-0.36910224
9.392664,-7.506923700000001,4.466603299999999,-0.53202873,0.10349803,-0.2024931
9.704638000000001,-1.5886678,3.7574407999999995,-0.47401398,0.04707153,-0.057700586
11.058913,2.4136903,2.1934720000000003,-0.38723620000000003,0.17537068,0.021083577000000003
12.199607,2.8642216,0.37381148,-0.36274922,0.258396,0.06525786
12.067791999999999,0.8067885,-0.44271663,-0.37233108,0.21635102,0.08600982
11.383874,0.08682334,0.52838117,-0.32974505,0.20144589999999998,0.12061971
9.890428,0.19367176,1.5306035,-0.27544788,0.18282324,0.22282618
8.836031,1.1495233,1.3269911,-0.26905996,0.038554322,0.34367278
8.298724,1.6778182000000001,0.44675803,-0.29619983,-0.20788616,0.36283649999999995
7.494292,1.2744048000000001,0.23967874,-0.22753857,-0.24249604,0.26380652
7.3543652999999996,0.6462333,0.53461564,-0.10190977,-0.295205,0.13498376
7.826799,-0.06764098,0.6327875,0.05883505,-0.03275983,0.09506808
7.802914,-0.39744705,0.3913179,0.13069025,-0.14667746,0.07110471
7.7166367,-0.25491545,0.09825804,0.02370157,-0.32073915,0.09506808
7.754417,0.116319895,-0.18819383,-0.2594781,-0.3281917,-0.11623893
7.6795173,0.45181459999999996,-0.47875416,-0.35157913,-0.53366935,-0.7827104
7.280077499999999,0.83380467,-0.38859808,-0.26853636,-0.00986111,-0.8961044
6.805173399999999,0.7447020999999999,-0.5851046,0.070005156,0.46176177,-0.5633923000000001
7.604588000000001,-0.06406884,-0.79173374,-0.3004759,-0.24675465,-0.33131585
9.852236,-0.23149057,-0.19240762,-0.6289119000000001,-0.17914059999999998,-0.30576423
11.080969,-0.16528611,-0.2866147,-0.46495572,0.24935518,-0.33449236
11.034532,-0.7467898000000001,-0.26904124,-0.041224677,0.12639675,-0.19982274
10.39821,-0.011061211999999999,-1.3743961999999998,0.33351496,-0.1871342,0.11264355
10.466224,0.9063873,-2.1954925,0.47404888,-0.15093607,0.38091812
13.438070000000002,0.12485283,-0.43477747,0.38088320000000003,-0.10142108,0.436821
18.592089,-3.0001740000000003,2.3423243,0.31115729999999997,-0.04766494,0.34473744
13.175934,-1.8022306000000001,1.9690202,0.35800195,0.12266174,0.21111503
8.669721000000001,2.0080075,1.9828968999999996,0.47724283,0.24563764,0.13339551
10.171641000000001,1.1901002,1.6324912,0.5704085,0.23445007,0.07644542
11.268827,-1.9516958,1.9407878,0.5666734999999999,0.07049385,0.10093239
11.277916000000001,-3.6872046000000003,2.7070951,0.48788935,-0.07641052,0.11690215
10.160993,-2.7444830000000002,2.8070385,0.40910518,-0.029024825,0.05461135
9.190967,-1.7709526000000002,1.9114254000000002,0.38407716,0.09445722,-0.013508848
9.264708,-1.3069468000000002,0.8388421,0.35000834,0.16098917,-0.09868091
9.2856045,-1.2734758999999998,0.4180276,0.31435126,0.15725416,-0.16842428
9.067311,-1.8315164000000002,0.5104247000000001,0.29092893,0.0012915436,-0.23600341
8.637188,-2.4029453,0.6797809,0.27761206,-0.3926118,-0.19289379
8.319161,-2.2447367000000003,0.59945065,0.16955873,-0.46661377,-0.08857546
8.164525,-1.4538741000000002,0.41912892,-0.0678584,-0.1802227,-0.053983033
7.845071300000001,-0.5627044,0.27664524,-0.18814649,0.0034208453999999998,-0.1375494
7.987143,-0.3302945,-0.106570706,-0.20252799999999999,0.018325957,-0.15191346
8.336007,-0.7940035,-0.50600016,-0.1482308,-0.12325515,-0.09283406
8.646449,-1.2670978000000002,-0.81969804,-0.08115781,0.019390607,0.19514526
8.555163,-1.4682969,-1.1184370000000001,-0.37552503,0.07847001,0.81955427
7.8833117,-1.48022,-0.9403945,-0.29834658,0.08594001,0.64549255
7.4403744000000005,-0.9974818999999999,-0.6870305,0.22172663,0.039095376,0.11529645
7.9770207,-0.31579518,-1.1576539,0.49427724,-0.40378192,0.24253096
9.403065,-0.51607496,-1.7083778000000003,0.6380051,-0.17329374,0.40701079999999995
10.927136,-0.7398083000000001,-1.4470364,0.43945646,0.10882128,0.36603045
10.211098,-0.27576417,-1.4138623,0.0013439035,-0.056705747,0.12594296
9.615152,-1.0384514,-2.2044852,-0.25256660000000003,-0.17648770000000003,-0.2855184
9.919264,-2.2707376,-2.6091244,-0.28982937,0.048136182,-0.48886672
12.231479,-2.3824127,-0.7363031999999999,-0.319116,0.11253883,-0.4974014
16.124546,-0.32546777,2.8107162,-0.39043015,0.09445722,-0.4569272
15.031429999999999,-0.17335936,3.9084578000000003,-0.46495572,0.12320279,-0.3882485
9.202717999999999,-2.7079475,3.8289892999999995,-0.47773153,0.10723303,-0.24612632
8.967214,-2.0549433,3.251795,-0.43301618,0.032166417999999995,-0.10824532
11.346917,-0.40269515,1.8273602,-0.37926003,0.13650220000000002,-0.040648717
12.354397,0.42204988,0.35996345,-0.37926003,0.29194123,0.043964844
12.591021000000001,0.732846,0.30252177,-0.3845833,0.36273178,0.099326685
11.892565,0.90062207,0.49177858,-0.34410912,0.36274922,0.15683529
9.946683,0.8433624,0.84907013,-0.2892883,0.31749284,0.24466026
8.924119000000001,1.3881582000000001,0.7971734,-0.2568252,0.19453439,0.31970942
8.43099,1.3243862,0.29821220000000004,-0.22486822,-0.06948156,0.31492722
7.8038716,0.8348389999999999,0.07204632,-0.1397136,-0.14987142,0.21643828
7.5400977,0.35167950000000003,0.35145923,-0.016214108,-0.0013439035,0.087632984
7.8448224,0.033461366,0.3847961,0.10142108,0.11095058,0.02586578
7.961238000000001,-0.109664015,0.015150508,0.14772467,-0.14667746,0.030124382999999998
7.85958,0.19310674,-0.25489628,0.12430235,-0.30904546,0.11582005
7.747828,0.27208668,-0.33777398,-0.07583456,-0.43146285,0.057281705999999995
7.451809,0.08553047,-0.33709404,-0.101386175,-0.14880677,-0.21898647
7.2658467,0.2283877,-0.11361923,-0.24350834,-0.30052823,-0.79604465
7.0490565,0.31228049999999996,-0.17431703,-0.06517059,0.38510690000000003,-0.85830057
8.3582735,-0.14605588,-0.52835244,0.08703957,0.37871900000000003,-0.5995904000000001
10.37422,-0.27963316,-0.35700423,-0.23872614,-0.09929178,-0.39997712
11.342137,-0.36065295,-0.07836701,-0.46123815,-0.12964305,-0.24773203
11.075884,-1.2146743999999998,-0.14797124,-0.28131217,0.14343116,-0.16043067
9.9502535,-0.50279194,-1.3700293,0.12112585,0.14875442,-0.008691739
9.777067,0.9246982,-2.4804695,0.36491343,-0.06735226,0.21272072
11.435291000000001,1.6876345000000001,-2.4896154,0.36065483,-0.13655455,0.38306487
15.053678,0.064930744,0.36392823,0.2925172,-0.09822713,0.37187729999999997
17.906885,-3.1374674,2.431781,0.287735,0.023649212000000003,0.27607617
11.789883,-1.8048354,3.0320075,0.37344809999999995,0.11946779,0.21113248
7.923936,0.6424122,2.0633135,0.48895398,0.019390607,0.095609136
8.805251,0.7212101,1.7935157,0.51396453,-0.15093607,0.041311942000000004
10.389227,-0.9596152,1.9992925,0.43837434,-0.12751375,0.064734265
10.669032000000001,-2.3649635,2.3174245,0.35533157,0.07209955,0.043441243
9.905837,-2.1847856,2.1378305,0.32606240000000003,0.16950637,-0.013508848
9.048751,-1.680538,1.2556726,0.3047694,0.16898277,-0.06887069
8.929233,-1.4507041999999999,0.7283928000000001,0.29305825,0.15034266,-0.11836823
9.12388,-1.4127513,0.5338304,0.29305825,0.077422805,-0.16999507
8.917558999999999,-1.9885952,0.53794837,0.29518753,-0.15891223,-0.18863519
8.600959,-2.1965172,0.5634226999999999,0.2573837,-0.46659634,-0.13274974
8.614308,-1.6371360000000001,0.6993272,0.08119272,-0.287735,-0.0039269909999999995
8.438269,-0.62578684,0.21622515,-0.16791813,0.057194438,0.002984513
8.355792999999998,-0.12724704,-0.42331403,-0.29993483,0.22273892,-0.013491395
8.514566,-0.34129825,-0.74375397,-0.40427062,0.15460126,0.021624627999999996
8.683291,-0.8609741,-0.7350678,-0.46975538,-0.3883532,0.41713370000000005
8.597809,-1.3412796,-1.1549151000000002,-0.6826681,-0.37716565,0.90422016
8.200658,-1.5419617,-1.2540253000000001,-0.44685665,0.35529667,0.33250266
7.5231085,-1.2359348999999997,-1.0296983,0.0029496064,0.01993166,-0.062465332
7.636498,-0.890892,-1.0438911,0.43572146,-0.39632937,0.13713051
8.925498,-0.6043444,-1.5771947,0.6757915,-0.030630529,0.40009928
10.596421000000001,-0.98997366,-1.7399716,0.49427724,0.21795672,0.46877798
10.862551,-0.42239466,-1.5941169,0.107808985,0.012479104,0.23774876
9.806678999999999,0.01520797,-2.2131236,-0.14556046,-0.13603096,-0.17427112
10.322045,-0.94852525,-1.3421223999999998,-0.18282324,0.008744099,-0.42657593
12.861441000000001,-0.88083637,1.5088928999999998,-0.17163567,0.08381071,-0.46596800000000005
16.833029,0.13657485,2.2887037,-0.21315706,0.11733848599999999,-0.42764056
13.978067000000001,-2.7923958,2.5710087,-0.30366984,0.22221532,-0.3462035
9.285652,-4.0772586,3.882313,-0.33452725,0.24031438,-0.215234
8.660996,-1.9410081000000001,3.5662781999999997,-0.30365238,0.12585570000000001,-0.074717544
10.572852000000001,0.40984902,2.1114178,-0.24137904,0.12959069,0.00031415926
11.739182000000001,1.1114651000000002,0.98436165,-0.19079939999999998,0.24935518,0.04930555
12.530074,0.8646229,0.6660861,-0.20624556,0.29993483,0.10625564
11.762052,0.45621990000000007,0.44532150000000004,-0.20146336,0.27438322,0.1653525
10.043935000000001,0.41652405,0.9219113000000001,-0.16365953,0.33665657,0.24839526
9.016392,1.2399858,0.93526137,-0.15833627,0.3009995,0.34367278
8.877814,1.6963302,0.4236492,-0.19453439,-0.029024825,0.36283649999999995
8.218155,1.2917101,0.0878289,-0.18547614,-0.25153685,0.27447048
7.6178136,0.5210452999999999,0.42855249999999995,-0.09391617,-0.2462136,0.16589354
7.837074799999999,-0.16830279,0.57796985,0.042865288,-0.05405285,0.11796680000000001
7.929117,-0.2690987,0.40387312,0.08279842,-0.14613642,0.10999065
7.9280157,-0.08655518,-0.011750742,0.00827286,-0.33724996,0.12596041
7.7059774,0.27089915,-0.28901845,-0.1886701,-0.6465223000000001,0.08124508
7.708611500000001,0.4640729,-0.49399084,-0.2765125,-0.19830431,-0.09548696
7.4416956999999995,0.8028907,-0.43360907,-0.43355724,-0.16423549,-0.6230127
6.8637166,0.90817815,-0.23680569,-0.3898891,0.26905996,-0.7678052
7.4646897,0.44895113,-0.26845706,-0.12479104,0.48305479999999995,-0.60117865
9.629288,-0.05460695,-0.15815139,-0.29567623,-0.056705747,-0.47129124
11.054508,-0.362214,-0.1436521,-0.5479984999999999,-0.2962522,-0.39570105
11.092586,-0.8564634,-0.28369376,-0.3781954,-0.07054621,-0.25731388
10.222800999999999,-0.22547634,-1.3823258999999999,0.019442968,0.0044854963,-0.11143927
10.235959,1.1478856000000002,-2.546722,0.376101,-0.09344493,0.08815658
11.302652,1.9322932000000002,-3.1260996,0.50918233,-0.16104153,0.26862362
14.060485,1.3669360000000002,-0.41351694,0.50757664,-0.16636479,0.3207915
18.382662,-1.8450293999999998,2.0883186,0.5411219,-0.064158306,0.28244662
13.461448,-3.2616975,3.4375086,0.6380051,0.10562733,0.23722515
8.437981,-0.49250644,2.4023228,0.6875026,0.10775663,0.15416493
8.220146000000002,0.47634079999999995,2.049992,0.6603628,-0.023177972,0.071663216
9.854821000000001,-0.5325758,1.9276196,0.5682792,-0.10674433400000001,0.07325147
10.896836,-2.034966,2.4041424,0.48469537,-0.009337512,0.041852996
10.935459,-2.8001720000000003,2.1338274,0.41496947,0.051871184,-0.013491395
9.363866,-2.8693357,1.4998332,0.3569373,-0.015184363999999999,-0.06726499
8.652837,-2.5319831,0.81623125,0.31913346,-0.039147735,-0.13274974
8.991616,-2.1030092000000002,0.5732294,0.2717652,0.08487536,-0.19235274
8.976849000000001,-2.2021773,0.7169196999999999,0.26591837,0.12000884,-0.2711369
8.794286,-2.115191,0.8558984000000001,0.29838148,-0.11367329,-0.23280947
8.542205000000001,-1.5008197,0.7786423000000001,0.23291420000000002,-0.27443558,-0.08323475
8.103444,-0.9946759,0.47915637,0.08545132,-0.04499459,-0.00710349
7.8804383,-0.47635996,0.07827124,-0.048677232,0.049200833,-0.081629045
7.9770875,-0.47665682,-0.08848969999999999,-0.103515476,-0.08758062,-0.11569787599999999
8.026532000000001,-0.549996,-0.22199039,0.019442968,-0.19458675,-0.07417649
8.390222,-0.58040243,-0.6435518,0.056164697,-0.11580259,0.33037338
8.626424,-0.8222742000000001,-1.0822846000000002,-0.33400366,-0.11260864,0.91593134
8.661216,-1.2771821,-1.1056998,-0.15727162,0.28661796,0.38041195
8.482369,-1.4138144,-0.92570376,0.21375047,-0.038606685,0.081786126
8.803556,-1.1298046999999998,-0.9313445,0.6268175,-0.41868705,0.26755896
9.908078,-0.5959072,-1.2129792,0.86212283,0.009285152,0.45760787
10.653201,-0.30802840000000004,-1.2385494,0.6332229,0.22008602,0.46717227
9.919542,-0.20972249,-1.6251171,0.10196213400000001,-0.016772615,0.24361305
9.741643,-1.0231668999999999,-2.3011632,-0.25680774,-0.12164945,-0.15988961
10.55457,-2.14622,-2.0933943,-0.34091517,0.016737707,-0.43615779999999993
13.130788,-1.2990171999999998,-0.4656339,-0.3414562,0.11307988,-0.47926742
17.137695,0.74633974,1.7008505,-0.38243654,0.115209185,-0.44521603
13.159375,-2.491502,2.3755462000000005,-0.49850094,0.14130186,-0.40263000000000004
8.718208,-4.0087459999999995,3.5448741999999998,-0.5453456,0.18708184,-0.27167794
9.320752,-1.7041832,3.738814,-0.48199013,0.09765117,-0.10559242
10.856536,0.98017657,1.861894,-0.38191295,0.15460126,-0.017208947
11.477707,1.6150518999999999,0.30275159999999995,-0.28290042,0.29780552,0.053040557
11.696125,0.95458734,-0.195884,-0.23870867,0.29887018,0.1105317
11.295422,0.43603203,0.0707726,-0.21369812,0.25680774,0.15522958
9.926495,0.5343188,0.8621040999999999,-0.14768976,0.31909853,0.19781561
9.023373,1.3749421999999998,1.0130346,-0.10243337599999999,0.38830084,0.26223573
8.804246000000001,1.9206956999999998,0.3177776,-0.17697638,0.14768976,0.3127979
8.244414,1.4640256,-0.23503400000000002,-0.20996311,-0.19617501,0.24413666
7.556445,0.44283155,0.11670297,-0.14289011,-0.05405285,0.12383111
7.870689,-0.38060147,0.4737838,-0.017802358,0.015132004,0.069516465
8.083524,-0.6208835,0.45271480000000003,0.07161086,-0.015184363999999999,0.09030333
7.857425,-0.41573876,0.2881757,0.09609783,-0.24195500000000003,0.10946705
8.003528999999999,-0.024947582000000003,-0.034601003,-0.11575024,-0.37238345,0.13021901
8.296732,0.2658426,-0.35821086,-0.22860323,-0.16849409,-0.074717544
8.130891,0.5909177,-0.47723144,-0.29035297,-0.1833992,-0.5969026
7.55023,0.89561343,-0.25442705,-0.29567623,0.10669198,-0.70659655
7.623646000000001,0.5453895999999999,-0.69838864,-0.1418429,0.41917570000000004,-0.51867694
9.520946,-0.14981957,-0.91569597,-0.39681807,-0.06735226,-0.38718385
10.982414,-0.17973751,-0.4321151,-0.5384166,-0.10355038,-0.34086279999999997
10.742151,-0.799376,-0.12022723,-0.36329028,0.2972645,-0.25411993
10.823315,-0.73032725,-0.5626566,0.099815376,0.21102776,-0.03000221
10.494169,0.28316703,-1.9325421000000003,0.38355356,-0.29040533,0.20261528
11.044625,1.2820472,-3.0771333999999997,0.38833576,-0.37077776,0.36231290000000005
13.871794,1.1528368,-0.48790959999999994,0.33777356,-0.14720106,0.36763614
17.881629999999998,-1.7615674,1.8197273999999997,0.29731685,-0.06096435,0.31120965
11.899709,-1.9599893,2.0629494,0.35109043,-0.014119713999999998,0.26382396
7.736240400000001,0.39447823,1.8691723000000002,0.47139597,-0.010402163,0.19142771
8.577228,0.04435977,2.0443897,0.5224992,-0.14720106,0.10414380000000001
10.467574,-1.4800668,1.8646616999999999,0.46394342,-0.13655455,0.069533914
10.9018345,-2.5742362,2.4319248,0.42559853,0.10297442,0.012566371000000002
9.910099,-2.0735798,2.7860465,0.42188100000000006,0.23073253,-0.05766568
9.159353,-1.6502081999999998,1.9937761999999999,0.41975167,0.13969615,-0.12473868
9.276296,-1.8181566999999998,0.7467802,0.40432298,0.05932374,-0.17638297
9.359796000000001,-1.7643925999999999,0.32081345,0.35906658,0.009285152,-0.2168397
9.0436945,-2.0595977,0.6185851,0.29572859999999995,-0.24089034,-0.22109829999999997
8.626452,-2.1035457,0.79446316,0.18446384,-0.48788935,-0.1444609
8.353005,-1.5303067,0.8604761000000001,-0.026843164,-0.28508207,-0.12527974
8.278709,-0.8174475,0.38498765,-0.10243337599999999,0.023125613,-0.19448204
8.080584,-0.539088,-0.14581646,-0.05454154,0.12053244,-0.17266542
8.181744,-0.9221219999999999,-0.3949188,-0.04441863,-0.079063416,0.09880309
8.364469999999999,-1.4003303,-0.37158969999999997,-0.36168459999999997,-0.41496947,0.7897615
8.303101,-1.487441,-0.8678981,-0.54054594,-0.024242622999999998,0.75410444
7.7765207,-1.2055571000000003,-1.1651046999999999,-0.17324138,0.3015231,0.07909832
7.277760000000001,-0.6003029999999999,-0.9027289000000001,0.36599556,-0.40645227,0.09136798
7.4960154999999995,-0.07372226,-1.0142700999999998,0.80569637,-0.23610814,0.36550686
9.134761,-0.31329566,-1.4660461999999999,0.80834925,0.30632272,0.5065644
11.2180805,-1.0876093,-1.2925433000000002,0.36438984,0.19240509,0.4033107
10.675669000000001,-0.6577638000000001,-1.1616955,-0.12639675,-0.09929178,0.059411008
9.638605,-0.72975266,-1.5600139,-0.2807711,-0.050317843,-0.29510027
10.244789,-1.2180452,-1.0749488,-0.18336429,0.14289011,-0.43615779999999993
14.609696,0.31790209999999997,-0.43217254,-0.10777408,0.18814649,-0.4372399
17.300627,-0.6227796999999999,1.7543656000000003,-0.14023721,0.16524777,-0.41966440000000005
11.837326,-5.286828,2.3247125,-0.22434463,0.14449582,-0.35257396
10.084128999999999,-4.2157965,4.56128,-0.2727775,0.076358154,-0.22003366
11.006615,0.41073009999999993,3.8386235,-0.27225390000000005,0.022584561,-0.0864287
11.174602,2.5232587000000004,1.5511840000000001,-0.23232077,0.13065535,0.0067195175
11.641327,1.7180504,0.28952605,-0.20837486,0.27438322,0.07112217
11.46748,0.122908734,0.2665417,-0.20624556,0.33452725,0.10199704
10.893302,-0.26117867,0.6739965,-0.17802358,0.3414562,0.13714798
9.648192,0.36552757,1.4375169,-0.14716616,0.41385248,0.21113248
8.900349,1.3864727,1.1737909,-0.18175858,0.36807248,0.3032335
8.507719,1.7547392,0.37223133,-0.30845204,0.0800757,0.33676127
7.745050999999999,1.321494,0.12298535,-0.39468876,-0.2627244,0.24041910000000002
7.3355369999999995,0.5716492,0.3138224,-0.354232,-0.2526015,0.11531389999999998
7.461817,-0.107901886,0.34948640000000003,-0.19985765,-0.041277036,0.045046947999999996
7.5323787,-0.29904538,0.19758868,-0.087545715,-0.10622074,0.012025318
7.727486999999999,0.030119056,-0.06413587,-0.0710349,-0.28028244,-0.001256637
7.982249700000001,0.39964970000000005,-0.34059912,-0.16898277,-0.3611959,-0.13325588
8.398208,0.5341464,-0.6825965,-0.17749998,-0.34948474,-0.5160066
8.206557,0.93453354,-0.7377876,-0.16153023,-0.25579545,-0.80080944
7.285278,1.1018595,-0.7403925,0.14241886,0.42928118,-0.575086
7.556694500000001,0.85947055,-0.92086744,-0.040160026,-0.04712389,-0.42284092
9.5902815,0.2440745,-1.1050103,-0.37658969999999997,-0.23291420000000002,-0.3909014
10.9325,-0.009720459,-0.80142546,-0.32122785,0.033772122,-0.27380726
10.921286,-0.60915196,-0.35221579999999997,0.04872959,0.06784095,-0.098663464
10.797696,-0.49344498,-0.82096213,0.41177553,-0.28401740000000003,0.15896459
10.923947,0.42985500000000004,-1.499182,0.54379225,-0.25631905,0.36765359999999997
12.7170515,0.501614,-0.3864146,0.50865877,-0.11367329,0.4272566
16.41841,-1.4768872,1.7308162,0.43306854,-0.06841691,0.39158207
15.293920499999999,-3.3167546000000003,2.1935293999999996,0.44795619999999997,0.08646361,0.30108675
9.523675,0.07934384,2.2678835,0.4948183,0.24616124,0.21006782
9.541248,0.75837773,1.6843782999999999,0.5304754,0.24989624,0.09827949
10.474986,-0.9406914000000001,2.297294,0.5294107,0.09178686,0.058346357
10.413475,-2.0591092,2.5178957000000004,0.5022709,-0.01998402,0.06101671
9.856871,-1.9078819,2.6763535,0.48895398,0.028448867000000003,0.026406832
9.45476,-1.8328380000000002,1.7953351999999998,0.46127307,0.077422805,-0.021485003
9.423913,-1.9706578000000001,0.6950175999999999,0.40697587,0.051871184,-0.089605205
9.194654,-1.7173417000000002,0.33514994,0.32180380000000003,0.06197664,-0.16947147
8.890245,-1.6830662,0.35166034,0.2520779,-0.040735986,-0.2674019
8.744342999999999,-1.7634732,0.45434287,0.20149826,-0.42507493,-0.23708552
8.600576,-1.5657313,0.42915586,0.13442525,-0.51504666,-0.10559242
8.28909,-1.2470535,0.5225489000000001,-0.023666665,-0.19085175,-0.022549653
7.944306399999999,-0.8579094999999999,0.41885123,-0.15088372,0.0082205,-0.0842994
8.052811,-0.6385335999999999,0.08635406,-0.19134045,-0.05989969999999999,-0.12688543
8.278008999999999,-0.8725812,-0.27623343,-0.14556046,-0.22120303,-0.14444345
8.412324,-1.0070395,-0.6663925,0.012531463999999999,-0.06895796,0.038135443
8.262122,-1.0308763,-1.0143370999999999,-0.14023721,0.4803844,0.5081526
7.9702972999999995,-0.96203816,-0.85109085,-0.52031755,0.17856464,0.81107193
7.960012400000001,-0.6351817,-0.6333141999999999,-0.039618972999999995,0.16685347,0.2978928
8.861466,-0.09150638400000001,-1.1290673,0.27602383,0.050265484000000006,0.24839526
9.862579,-0.20638977,-1.7000556,0.42668065,-0.37025416,0.39957568
10.934894,-0.56551045,-1.7113658,0.37025416,-0.06841691,0.33730233
10.196024000000001,-0.3216658,-1.6071796,0.056705747,0.16524777,0.16215853
10.121248,-1.1926379999999999,-2.1244134999999997,-0.25628415,-0.13761921,-0.18064158
10.460564999999999,-2.5092093999999996,-2.6653592999999995,-0.36274922,-0.07960447,-0.48141417
11.524212,-3.0256197,-1.7074201,-0.4069235,0.14927801,-0.5218709
14.084570999999999,-1.3658442,0.92859596,-0.49848348,0.12213814,-0.4686209
15.844109,1.7608203999999998,4.4517117,-0.5815437,0.11733848599999999,-0.41327652
10.266950999999999,-0.47443500000000005,3.762153,-0.6033603,0.18973474,-0.31532863
7.017289999999999,-1.7331433999999997,3.7028055,-0.5714208000000001,0.12107349,-0.15934856
10.269784,-1.4208055,2.7291315,-0.49316022,0.12213814,-0.06618288
12.852831,-0.8881627000000001,1.0554887,-0.43034583,0.2850297,0.0051138145
12.217688,-0.38703707,0.42829394,-0.42076397,0.37765434,0.08018043
12.147902,0.6540767,0.39419094,-0.3856305,0.2924823,0.13393657
10.663995,0.9852905999999999,0.47439670000000006,-0.30206412,0.15407766,0.19568631
9.235872,1.2253141,0.59416425,-0.20518091,0.0715585,0.28726375
8.805280999999999,1.5400462,0.33989045,-0.17111208,-0.11367329,0.33623767
8.400507000000001,1.0200639999999999,0.028069621,-0.09285152,-0.33831462,0.28672270000000005
7.8047433,0.33562878,0.16344735,0.030613074,-0.29466394,0.19301596
7.763075,-0.06114791,0.45551124,0.19778071,0.06571165,0.1131846
7.8746924,-0.48284346,0.27986303,0.20682152,0.055065135999999994,0.0503702
7.6759059999999995,-0.47659937,0.014853627,0.16262978,-0.16371189,-0.023090705
7.571491,-0.06660669,-0.047587153,-0.028448867000000003,-0.45062655,-0.11410963
7.5935936,0.22802377,-0.23852953,-0.12692034,-0.46394342,-0.24558528
7.397920599999999,0.256668,-0.30771238,-0.23924974,-0.49427724,-0.5378232
6.8621364,0.12833878,-0.3664948,-0.36007887,-0.29838148,-0.6980619
7.1464715,-0.41050982,-0.6001306,-0.06091199,0.41969929999999994,-0.60756654
9.600767,-0.66364396,-0.67550004,-0.19027579,0.027907815,-0.47502625
11.365103999999999,-0.269137,-0.51504064,-0.5043478,-0.079063416,-0.3967657
11.469864,-0.48392564,0.1456824,-0.45005059999999997,0.101368725,-0.30147073
10.737669,-0.33720896,-0.71895003,-0.09871582,0.11255628599999999,-0.14498450000000002
10.40591,0.83068264,-1.6301736,0.23343779,-0.16317083,0.15203562
10.707243,2.0400705,-2.5310542999999996,0.43198645,-0.1833992,0.42085123
12.404579,1.9995415,-0.9588203000000002,0.4346568,-0.09770353,0.52468085
16.279566,-0.6459556,0.9947142,0.36226055,-0.07374016,0.46504298
14.474635000000001,-3.0033822,1.564582,0.38035959999999996,0.03642502,0.35486034
10.223605000000001,-0.49573383,1.8171224999999998,0.42348668,0.21315706,0.22816689999999998
9.171699,0.14731044,1.4358218999999999,0.38196529999999995,0.18708184,0.11691961
9.844325,-0.7694581,1.7084352999999999,0.29199359999999996,0.0800757,0.08229227
10.300938,-1.3434727,2.4774241000000004,0.23078490000000002,0.11468559,0.069533914
10.1917715,-1.6066242,2.5510504000000003,0.2350435,0.19772835,0.042376593
9.353025,-1.6378255,1.6467032,0.22546163,0.16578883,-0.011362093500000002
9.098657000000001,-1.8012728999999998,0.69189554,0.20736256,0.15885986,-0.08428195
9.289558999999999,-1.9059378,0.2524638,0.17807594,0.18654078,-0.15241960000000002
9.396303,-2.1396022,0.25047179999999997,0.14348352,0.0066147977,-0.21151645
9.224791999999999,-2.0816338,0.04939717,0.14348352,-0.4516912,-0.16680111
8.989231,-1.5905639999999999,-0.22314917,0.08545132,-0.43839179999999994,-0.038519416
8.589984,-0.8359978000000001,-0.24042574,-0.06410594,-0.01891937,-0.07311184
8.1823,-0.38449920000000004,-0.16510415,-0.10243337599999999,0.14608406,-0.124756135
8.081704,-0.42660844,-0.15956876,-0.11946779,0.20038125,-0.12901473
8.083113,-0.93995404,-0.27980557,-0.12533209,0.15353662,0.05729916
8.315541,-1.3161405000000002,-0.8825985000000001,-0.3659432,-0.09131563,0.6247406
7.882449,-1.5494412,-1.2487485,-0.43353978,-0.11206759,0.69287825
7.2427287,-1.4377084999999998,-0.87391233,-0.038030725,0.15460126,0.1717404
7.2846174,-0.95315087,-0.6359286999999999,0.36651915,-0.2605951,0.1765226
8.614817,-0.29906452,-1.1879455,0.6928434,-0.18659315,0.40915754
10.674366000000001,-0.49155834,-1.6896552,0.68697906,0.18175858,0.47942448
11.376231,-0.66165197,-1.7515692999999999,0.24675465,0.06997025,0.3037571
10.301503,-0.2311075,-1.8177737,-0.18069394,-0.14240141,-0.03689626
10.462633,-1.2162256999999999,-2.4361097999999997,-0.25202554,-0.19617501,-0.37812558
11.563219,-2.2161307,-1.7207702,-0.17962928,0.038030725,-0.46542695
14.547935500000001,-1.0985938,0.8733569,-0.22701497,0.15194836,-0.38666025
15.263907000000001,-0.6492117,2.4539037,-0.38030726,0.16205382,-0.3419449
10.600989,-3.913725,2.7865062000000003,-0.5384166,0.16153023,-0.29614747
8.593364999999999,-2.8804257,4.351365599999999,-0.6108129,0.13065535,-0.19448204
10.597752,0.20008823,3.0640705,-0.5852613,0.15514232,-0.100810215
11.978182,1.3235818000000001,1.1270082000000001,-0.5075417,0.31642818,-0.027331855
12.208504,0.27866593,0.20247285,-0.44898593,0.39414770000000005,0.06314601
11.4171915,-0.2609201,0.42833227,-0.3877598,0.36700782,0.14193018
10.867645,-0.11699985,1.0002208000000001,-0.3009995,0.31536356,0.23509584
9.424325,0.7198311,1.1219038000000001,-0.25415483,0.25628415,0.3255737
8.671319,2.0005088,0.38774577,-0.29461157,0.026843164,0.33941418
8.416941,2.269167,-0.24174733,-0.27810076,-0.23237313,0.26117107
8.071178999999999,1.2380418,-0.19552967,-0.16259487,-0.21268582,0.12861331
8.0563545,0.14619954,0.031804577,0.062028999999999994,0.043877575999999995,0.030141836
7.9248075,-0.5330738,0.1494269,0.14826572,-0.10728539,0.0067195175
7.7582283,-0.57755804,0.03733997,0.1679705,-0.3239331,0.042917646
7.6285973,-0.29260018,-0.14812447,-0.028972466000000002,-0.54857445,0.06899287
7.697071,0.055986013,-0.36116055,-0.14608406,-0.29466394,-0.10025171
7.288582000000001,0.5028781,-0.39041770000000003,-0.26319566,-0.35109043,-0.68368036
6.739725599999999,0.7236331,-0.3838767,-0.20357521,0.15727162,-0.801333
7.451196,0.12431653,-0.44064805,0.10248573,0.40107667,-0.6086312
9.569567,-0.33087867,-0.42012495,-0.16844173,-0.12164945,-0.38131952
11.137539,-0.4405906,-0.14507905,-0.50913,-0.24036674,-0.26368433
11.242089,-1.0599896999999998,0.11699027599999999,-0.42395790000000005,-0.051923542999999996,-0.20086995
10.342645,-0.75589734,-1.0075759,-0.04441863,0.0023561944,-0.12953834
10.126372,0.8838435,-2.2620895,0.3319267,-0.16317083,0.10786135
10.691365,1.7440323,-3.2298834,0.48843038,-0.15093607,0.33676127
13.851807999999998,0.968943,-0.69313097,0.46181409999999995,-0.14081316,0.43257985
18.689732,-2.664038,2.1737342,0.44636795,-0.12112585,0.36815974
13.133164,-2.650496,2.7755117,0.50279444,0.06197664,0.29204595
8.775171,0.34530136,2.1115232,0.5863783,0.15461873,0.19889772
8.470839,1.0081697,1.6331136999999998,0.59276617,0.07422885,0.09243264
9.640205,-0.51508856,1.7827226000000003,0.5022709,0.025795966,0.064751714
10.631605,-2.2906766,2.5941942000000004,0.42880994,0.039618972999999995,0.06421066
10.380378,-2.7406330000000003,2.5606562999999998,0.37981856,0.049200833,0.013107423
9.1544895,-2.215374,1.7920696,0.32660347,-0.027960173999999997,-0.040631264
8.661311,-1.8850125,0.83049107,0.2627244,-0.07002261,-0.11782718
8.942899,-1.8359888,0.44050439999999996,0.19404571,0.016737707,-0.18277088
9.090564,-2.253346,0.49095500000000003,0.14826572,0.054524086,-0.2668783
8.718073,-2.4722815,0.5240238,0.13442525,-0.24462534,-0.25464353
8.7547245,-1.660896,0.42519107,0.088121675,-0.37557740000000006,-0.13379695
8.608257,-0.93713844,0.098708145,-0.09765117,-0.09663888,-0.031590457999999995
8.169705,-0.5221179,-0.19076999,-0.22486822,0.20731021,-0.089605205
8.183056,-0.32126355,-0.23227587,-0.19985765,0.2706482,-0.15508996
8.166086,-0.58469284,-0.432163,-0.17430604,0.10669198,-0.02146755
8.33007,-0.79335225,-0.8689803,-0.21795672,-0.13548991,0.50125855
8.475177,-1.0156969999999998,-1.4391068,-0.36913714,-0.19298105,0.8046666
8.151146,-1.293568,-1.5690161,-0.06571165,0.07262315,0.30747464
7.7970147,-1.001121,-1.3644459,0.33086208,-0.19511035,0.15683529
8.484774,-0.36598724,-1.4733438,0.6587745,-0.18181095,0.33943164
9.896978,-0.41611224,-1.8152263,0.66462135,0.19666370000000002,0.45759043
11.2285,-0.88901496,-1.9535729,0.23397884,0.11733848599999999,0.32772046
10.681194,-0.54952675,-1.9682254000000001,-0.23870867,-0.10461503,-0.026267204
10.694526,-1.300626,-2.1235611,-0.3744604,-0.117931895,-0.37812558
11.316808,-2.005144,-1.3826228,-0.34252086,0.0752935,-0.5160066
13.641434,-1.0674213,0.7687973000000001,-0.33506832,0.14768976,-0.45638615
15.136593,-1.0785112,2.3961554,-0.46389106,0.1359786,-0.37121409999999994
11.465966,-3.8454517999999998,2.8277247,-0.6033603,0.16472417,-0.28763026
9.257572999999999,-2.6075826,4.406691,-0.6422114000000001,0.15992452,-0.17957693
10.388671,0.20675367,3.0719047,-0.58791417,0.1359786,-0.08375835400000001
11.34094,1.4947001,1.1589851,-0.48944268,0.24457298,-0.03530801
12.098342,0.87502325,0.3216658,-0.41863468,0.28661796,0.03494149
11.553125,0.17848295,0.37919366,-0.3744604,0.25895450000000003,0.11426671
11.002765,0.016299725,0.81502455,-0.3137753,0.2578724,0.21326178
9.556073,0.6370492,1.1287128999999998,-0.28235936,0.24989624,0.30482176
8.648719,1.7926058999999996,0.68151426,-0.3159046,0.109362334,0.36498326
8.403083,2.1452527000000003,-0.24064599,-0.27757716,-0.13655455,0.3011042
7.835935000000001,1.3027138999999999,-0.36885070000000003,-0.15833627,-0.11313224,0.15311773
7.8054614,0.12908578,0.048113875,-0.0023561944,-0.08492772,0.03333579
7.9138713,-0.6096212,0.27316883,0.12112585,-0.013055063,0.00726057
7.762633999999999,-0.7050445,0.18468872,0.17542304,-0.16156512,0.052516956
7.689543700000001,-0.28081113,-0.06692273,-0.035901424,-0.35906658,0.12650147
7.676317999999999,0.21095789999999998,-0.43163627,-0.13863151,-0.3324503,-0.025726152999999998
7.4291982999999995,0.49785029999999997,-0.55685306,-0.27331856,-0.3239331,-0.4451986
7.086301,0.6253463,-0.35426524,-0.34410912,-0.17594664,-0.79014546
7.1696477,0.3356862,-0.42284477,-0.15353662,0.3936241,-0.70603806
9.1255665,-0.059155937,-0.34971625,-0.28609437,-0.039671335,-0.533041
11.194511,-0.06413587,0.016242264,-0.47825512,-0.15039502,-0.39941859999999996
11.116106,-1.1144530000000001,-0.17101304,-0.39468876,-0.023177972,-0.25356144
10.723505000000001,-1.1292588,-0.84109265,-0.04548328,-0.076934114,-0.091734506
9.880449,0.16016252,-1.9680433000000002,0.29892254,-0.25366616,0.1712168
10.359261,1.3379756999999999,-2.988701,0.48469537,-0.21320942,0.36604790000000004
12.564502000000001,1.6311122,-1.102233,0.4996005,-0.14346607,0.44004986
16.407913,-0.89995164,1.0889691000000001,0.51504666,-0.13070771,0.38947022
14.816985999999998,-2.4340892000000003,2.125869,0.60447735,-0.02263692,0.33143803
10.304386000000001,-0.24940878,2.3060665,0.70827204,0.114144534,0.25211279999999997
8.825353999999999,0.12741941,1.9012356,0.718395,0.08061676,0.14405948
9.416269999999999,-1.1526071000000002,1.8743246999999998,0.6140591999999999,-0.0066671576,0.08923868
10.292013,-1.871107,2.440295,0.5022709,0.027384216,0.07805113
10.344521499999999,-2.1043117000000002,2.4264562,0.42613959999999995,0.12267919999999999,0.029094638
9.677439999999999,-1.8283656000000004,1.6824821,0.3447025,0.11095058,-0.03637266
9.257698,-1.8393979999999999,0.7963019,0.2520779,0.12906710000000002,-0.094387405
9.161058,-2.0041192,0.48342764,0.1727527,0.19825195,-0.14922565
9.126008,-2.4854877,0.5239279,0.14987142,0.16631243,-0.22588049999999998
9.041061000000001,-2.6409290000000003,0.4359554,0.13442525,-0.17914059999999998,-0.19287634
8.872241,-1.839331,0.17166427,0.117931895,-0.27656487,-0.06991789
8.734383,-1.0151128,-0.27060226,0.011990411999999999,-0.04499459,-0.029443703999999998
8.457977,-0.39863458,-0.61840314,-0.013002703000000001,-0.051382493,-0.044889867
8.399673,-0.17670166,-0.7518847,-0.040683622999999995,-0.11419689,-0.07630579
8.357372999999999,-0.36301842,-0.8632245999999999,0.009878564,-0.11526154,-0.07096509
8.352795,-0.6786221,-1.2101828000000001,-0.018325957,0.33560935,0.21382028
8.141464,-1.077975,-1.3524463,-0.47986080000000003,0.100304075,0.84034115
7.7910485000000005,-1.1439496,-1.046812,-0.32388076,0.15674803,0.38521162
7.6174307,-0.78329664,-0.58426183,0.109938286,0.08115781,0.036547195
8.607692,-0.5129625,-0.7611263,0.46340236,-0.27124159999999997,0.22710223
9.923861,-0.8481699,-1.2129025,0.6752679,-0.09822713,0.47143087
10.516847,-1.0042621999999999,-1.45623,0.49640656,0.18814649,0.47305405
9.67723,-0.47989380000000004,-1.7523258000000002,-0.015673056,0.009826204,0.20582668
10.243774,-1.0465438,-2.631448,-0.37871900000000003,-0.19778071,-0.25356144
11.154624,-2.2139566000000004,-3.1250174,-0.41278782,0.018325957,-0.5096187
13.444572,-2.0929632,-0.86484313,-0.36487854,0.17111208,-0.5032308
16.283072,0.15523046,2.3010004,-0.37711328,0.1381079,-0.44678682
12.621024,-1.0267198,2.8289793,-0.44259804,0.14077826,-0.40313616
7.424554,-3.2666487999999996,3.5926337,-0.4713436,0.1375843,-0.29082420000000003
8.039471,-1.8554393,3.8580549,-0.445792,0.057194438,-0.18596484
11.015933,0.39882612,2.2696647999999997,-0.3829776,0.16526523,-0.13377948
12.664417,1.0676223999999999,0.53233635,-0.3377212,0.31483993,-0.07098254
12.56748,0.5657403,-0.16725893,-0.31696925,0.35157913,-0.0023038345
12.013549000000001,0.29429528,-0.051389147,-0.2855533,0.35583773,0.051975905999999995
10.3129,0.22249795,0.8778676,-0.23338543,0.3659432,0.13660692
9.553927,1.0572603999999999,1.132716,-0.17376497,0.42610470000000006,0.24788912
9.383977999999999,1.5200021000000001,0.5008478,-0.17641789,0.34465018,0.34316665
8.677813,1.0346878000000002,0.0462464,-0.2642603,0.014608405500000001,0.32824406
8.026092,0.15113159,0.26117867,-0.2616074,-0.19723965,0.18664551
8.036071000000002,-0.3543131,0.36091152,-0.12639675,-0.26218337,0.03918264
7.8306584,-0.4430901,0.19606596,0.118996546,0.034313172,0.004066617
7.563828999999999,-0.06636727,0.10558429,0.27443558,-0.096621424,0.013124876
7.5159163,0.31057584,-0.037895422000000005,0.13442525,-0.32977995,0.009389871999999999
7.571433,0.33411562,-0.32416534,-0.013543755,-0.40271726,-0.2807013
7.5908356,0.43614694,-0.5007808,-0.12107349,-0.4825661,-0.79653335
7.25219,0.7407564,-0.35622847,0.09716248,0.39522982,-0.69219756
6.8410964000000005,0.6383612,-0.5873456,0.21001546,0.17804104,-0.42284092
8.245851,-0.13238977,-0.8161546,-0.2855533,-0.40856412,-0.31264082
10.583492,-0.24561636,-0.39005378,-0.49476594,-0.25153685,-0.28443632
11.3028345,-0.83430266,-0.44679636,-0.23551473,0.16420057,-0.23865633
10.994289,-1.1479527,-0.3540258,0.15945327,-0.012514011,-0.038501963
10.162505,0.05473145,-1.5527739999999999,0.41655773,-0.29890507,0.24467771
11.311827000000001,1.0601813,-1.6892817,0.46020842,-0.2398257,0.43525020000000003
15.211695,0.04576756,0.6055031999999999,0.38728857,-0.13655455,0.45441392
18.799835,-3.0520997000000003,2.5611541,0.36758378,-0.030089477000000003,0.3729594
10.49324,-0.2042254,2.0375422999999997,0.4410447,0.11468559,0.27501154
8.458044000000001,1.9343139,1.4865215,0.5113291,0.16313593,0.17975146
10.236937,0.47489467,1.7828183000000002,0.49853584,0.043877575999999995,0.114790305
11.011258999999999,-1.9898211,2.0932698,0.42880994,-0.0646819,0.091909036
10.679317,-2.8859517999999995,2.5504088,0.35002577,-0.03647738,0.062098815999999994
9.411607,-1.9457198,2.3683825,0.28241172,0.0023561944,0.0008726646000000001
9.154689999999999,-1.3537583,1.4265515,0.24036674,-0.017313666999999998,-0.07309439
9.173872,-1.3039684,0.5420281,0.21694443,-0.008796459,-0.15826645
8.986024,-1.5271463,0.42793003,0.21481512,0.03164282,-0.24024457
8.750625,-2.1195965,0.58702,0.21375047,-0.10622074,-0.2855184
8.563485,-2.3069859,0.50060844,0.20842722,-0.41922808,-0.17797123
8.433603999999999,-1.7255874,0.35992515,0.11632619,-0.30051079999999997,-0.019338248
8.293754,-0.8265646000000001,0.11020031599999999,-0.09445722,0.059864793,-0.026249751
7.9937130000000005,-0.20949264,-0.19302054,-0.1929287,0.17271778,-0.08906415
7.898519500000001,-0.1417559,-0.44423935,-0.20463985,0.13065535,-0.044889867
8.055828,-0.57731867,-0.7479008,-0.27490679999999995,-0.04977679,0.36072466
8.261394500000002,-1.0469365,-1.0392655000000002,-0.4920956,-0.10728539,0.7519751
8.16237,-1.5191306,-1.1573379,-0.26480135,0.15407766,0.33250266
7.752617,-1.4328531,-0.8902983,0.16636479,-0.12644911,0.06846926
7.8840580000000005,-1.003477,-0.913206,0.626835,-0.26644197,0.23668409999999998
9.217944000000001,-0.5778645,-1.3172898000000002,0.8679697000000001,0.12159709,0.46984264
10.930776,-0.6739199,-1.7471638999999999,0.64280474,0.23446754,0.53319806
10.90804,-0.45207316,-2.0331082,0.108873636,0.011938052,0.25052455
10.374286999999999,-0.73325783,-2.3827956,-0.18015288,-0.07852236,-0.14496705
11.117954,-1.8332977,-2.041124,-0.22965042,-0.0066671576,-0.4632802
13.391307000000001,-1.5566428999999997,-0.59855044,-0.20198695,0.127985,-0.5447522
16.393520000000002,-0.54500645,1.5829886,-0.26267204,0.16098917,-0.47022662
13.071507,-3.5014722000000003,2.0841715,-0.40959388,0.19186404,-0.3925071
9.453228,-4.474101999999999,3.9339511,-0.50167745,0.1961401,-0.28708920000000004
9.614903,-0.9296973,4.257178,-0.48144907,0.11840314,-0.14283775
10.758039,1.4696566999999998,2.2400246,-0.36966074,0.19559905,-0.034766957
11.606592,1.636954,0.82923657,-0.27012459999999994,0.3569024,0.014189526000000001
11.892430000000001,0.48608999999999997,0.38931635,-0.25467846,0.3845833,0.05623451
11.409732,-0.30891907,0.5201834,-0.2706482,0.32974505,0.09564404
10.502913000000001,-0.063092,1.1296705,-0.23551473,0.35370842,0.19038051
9.11145,1.2394973,1.1517738000000002,-0.18547614,0.36913714,0.32026792
8.441582,2.4422102000000003,0.27265170000000005,-0.23073253,0.09445722,0.38149408
7.8159575,2.3589015,-0.34375948,-0.24776694,-0.21533872,0.28832838
7.514317,1.0709072,0.113954425,-0.18334684,-0.22650883,0.13288938
7.754111,-0.16214491,0.46041456,-0.04761258,-0.0646819,0.066881016
7.832554300000001,-0.75580156,0.5002827999999999,0.08651597,-0.10035643,0.030682888
7.6544929999999995,-0.56182337,0.24115357,0.09450958,-0.30316368,0.08552113
7.544302,0.09603622,-0.030492553,-0.12213814,-0.45221480000000003,0.06316347
7.636296700000001,0.5939823000000001,-0.37651214,-0.18654078,-0.27389452,-0.25621432
7.4923573,0.8220443999999999,-0.40349,-0.34039158,-0.41016984,-0.7587295000000001
6.9868937,1.1993706,-0.15474205,-0.21954496,0.38723620000000003,-0.70017374
7.417716,0.7448170000000001,-0.49860686,-0.18654078,0.17697638,-0.49256682
9.573436000000001,-0.2009214,-0.43784204,-0.52775264,-0.27654743,-0.35627407
11.157306,-0.6383708,-0.43615649999999995,-0.5847201999999999,-0.125367,-0.23970352
11.141869,-1.3292129,-0.20445524,-0.2850297,0.077422805,-0.12632693
10.817414999999999,-0.6001019000000001,-1.0290086999999999,0.17329374,-0.16475908,0.07754498
10.146531,0.8520581,-2.4925554,0.39954078,-0.26857126,0.300057
11.455384,1.8882973,-2.351355,0.47191957,-0.16795303,0.43366197
15.542143,0.6374418000000001,0.49103162,0.45649087,-0.13974851,0.41289255
18.110653,-2.9725162999999997,2.1753526,0.49640656,-0.03806563,0.32559118
10.859246,-1.0115694,2.3437127999999996,0.56508523,0.16259487,0.24628341
8.348754,0.87460184,1.796743,0.5917015,0.22008602,0.12915437
9.376967,-0.15456966,2.0903680000000002,0.5219582,0.064647,0.065816365
10.468369500000001,-1.7760189,2.2590826,0.4314803,0.008761553,0.087126836
10.322495,-2.406546,2.7477489,0.39899972,0.09180432,0.053040557
9.708833,-2.345427,2.2209957,0.36599556,0.093392566,-0.0150796445
9.288736,-2.2307349999999997,1.1743176000000002,0.3196745,0.0045029493,-0.09812241
9.148694,-2.0376953999999996,0.63889754,0.26858872,0.01834341,-0.17530087
9.068681,-2.1761665,0.57389975,0.23291420000000002,0.111491635,-0.25569072
9.034625,-2.4159412000000002,0.6195524,0.22813198,-0.02528982,-0.29613
8.794803,-2.0483735,0.4692731,0.24462534,-0.33616787,-0.18168877
8.620429,-1.2944778000000001,0.38307226,0.12592551,-0.23289673,-0.03796091
8.235650999999999,-0.6996815,0.15783536,-0.020455258,0.051347587,-0.07363544400000001
7.991280000000001,-0.38957492,-0.03757939,-0.039618972999999995,0.18655825,-0.148161
7.978839999999999,-0.5581842,-0.17248787,-0.024713863,0.24830799,-0.19339994
7.9942779999999996,-0.90066993,-0.45593262,0.017313666999999998,-0.00986111,0.21380283
8.233113000000001,-0.9996174999999999,-0.8953452,-0.37498400000000004,-0.3201981,0.995274
8.138456,-1.3368646999999998,-1.1072704,-0.14343116,0.13278465,0.5145754
7.862194500000001,-1.4016231000000001,-0.798744,0.23823744,0.07583456,0.102031946
8.148436,-0.6947207,-0.6521135,0.52675784,-0.47724283,0.30056316
9.47603,-0.201994,-1.1051444,0.7200006999999999,-0.06948156,0.51192254
10.85647,-0.7269753999999999,-1.6735566000000002,0.46235517,0.18495254,0.46986008
10.616532000000001,-0.55753297,-1.6903447,-0.06304129,-0.043388885,0.11958996
10.17801,-0.96231586,-2.4913201000000003,-0.3244218,-0.19936895,-0.29773572
10.592426,-2.4415781,-2.103766,-0.33079225,0.040160026,-0.48298496
12.480935,-1.6648608,0.6896738,-0.30684632,0.14981906,-0.47394416
16.360031,0.7240545,2.618979,-0.37391934,0.11309733,-0.408983
13.086257000000002,-1.8999428,2.1253042,-0.48890162,0.14023721,-0.35522687
8.286437,-3.797137,3.9308769999999997,-0.55330426,0.12161454,-0.2641905
9.388766,-1.5908896000000001,3.948776,-0.54532814,0.04761258,-0.14388494
12.060964,0.769257,2.1917386000000003,-0.48996627,0.1397136,-0.08265879
13.09477,1.2045325,0.5140064000000001,-0.4399277,0.31644565,-0.0076096356
12.259155,0.51756895,0.26826552,-0.42821652,0.35955527,0.06370452
11.607502,0.3057204,0.5937140999999999,-0.40479422,0.3175103,0.12863077
9.930009,0.41285613,1.1730535,-0.34889132,0.28344148,0.2308547
9.042162,1.2991992,1.1192126,-0.3159046,0.25043730000000003,0.33571407
8.646066000000001,1.8856636999999998,0.36441666,-0.329204,0.03111922,0.3559599
7.935447,1.3834751,0.059031438,-0.2536138,-0.11632619,0.25480062
7.567535,0.56530935,0.23868276,-0.13383184,-0.15943582,0.09457939
7.649627000000001,-0.21551646,0.44870213,0.051382493,-0.038083083999999996,0.005654866999999999
7.5622872999999995,-0.51911086,0.31782550000000004,0.14667746,-0.15625933,0.009389871999999999
7.4073825,-0.23965959,0.25391945,0.09876818,-0.39420006,0.09510299
7.3641047,0.22478679999999998,0.0046255975,-0.06888814,-0.61617106,0.02857104
7.339827499999999,0.41375634,-0.25826734,-0.191323,-0.25153685,-0.22160445
7.2943664,0.49846320000000005,-0.35615185,-0.33292156,-0.30209905,-0.6692989
7.0202303,0.5829977,-0.39060923,-0.22593287,0.3324154,-0.74063045
7.821321000000001,-0.05447288,-0.5204324,-0.21528636,0.3175103,-0.6187191999999999
10.184321,-0.37964377,0.027150247000000002,-0.43673372,-0.15145968,-0.5106659
11.63538,-0.7214304,0.033365596000000004,-0.4521799,-0.15517722,-0.34245107
11.598825,-1.7110785,0.10832327,-0.13330825,-0.038606685,-0.109292515
10.791749000000001,-0.8431325000000001,-1.3110075,0.26485372,-0.14772467,0.14247122
10.734489,0.93165094,-2.9260116000000003,0.47617817,-0.17168804,0.31974432
12.038611,1.9125363000000002,-2.703121,0.56082666,-0.1184555,0.42727405
14.972217,0.94994265,-0.17017028,0.5682792,-0.13922492,0.38573520000000006
16.671947,-1.9365453000000001,2.2547157,0.61990607,-0.09609783,0.2947163
11.148284,-1.8083501,2.8002295,0.7125307,0.05667084,0.21327923
8.22527,-0.68811274,2.2535949,0.75778705,0.14130186,0.12810716
8.424563000000001,-1.0812407,2.3482234,0.69444907,0.040701076,0.090844385
9.919379,-1.0227264,2.3002915,0.5799904,0.00076794485,0.09829694
10.637371,-1.5395195,2.4630303,0.49321258,0.11948524,0.055710907999999996
10.173117,-2.0219991000000004,1.8621143,0.43360959999999993,0.14556046,-0.010279989
9.373127,-2.1574726,1.0336918,0.37557740000000006,0.12267919999999999,-0.0922581
9.124992,-2.0427809,0.7512909000000001,0.312763,0.18655825,-0.17369516
9.1086445,-2.3669748,0.5695519,0.2611187,0.19294615,-0.25782004
8.972097999999999,-2.5513953999999996,0.47748044,0.18980455,-0.13868386,-0.22160445
8.711647,-2.0983262000000003,0.18492815,0.08546878,-0.36013123,-0.08693485
8.574977,-1.3217143,0.032379184,-0.10510372,-0.16210619,-0.005497787
8.270875,-0.47705907,-0.23537876,-0.23657937,0.030578168,-0.05073672
8.030161999999999,-0.09503066,-0.36886030000000003,-0.2600017,0.12639675,-0.09279916
8.108146000000001,-0.32893458,-0.5094286,-0.23338543,0.16153023,-0.03635521
8.231314,-0.7071706,-0.8161546,-0.36753142,0.23553218,0.42355649999999995
8.214334,-1.0663966,-1.0792487,-0.6283709,-0.052447144,0.81585413
7.8904266000000005,-1.3906002,-0.8834987,-0.23870867,0.039636426,0.29419270000000003
7.7172875,-1.0004028,-0.56433254,0.20364502,-0.24354324,0.11852531
8.529507,-0.30726227,-0.97463167,0.605542,-0.29199359999999996,0.33625513
9.824626,-0.032915484,-1.6300588,0.74766415,0.23392648,0.4954117
10.805042,-0.15524003,-1.8899925,0.37664205,0.19134045,0.38468802
10.310217999999999,0.21134098,-1.7830960999999999,-0.1327672,-0.03700098,0.018989183
10.755434,-0.7358435000000001,-2.4014132000000004,-0.262131,-0.013055063,-0.32967523
11.538683,-2.1353693,-2.3161794999999996,-0.22806217,0.12000884,-0.49363148
13.758308,-1.9347736,-0.23971705,-0.21528636,0.18017034,-0.45795694
15.721966,-0.6445574000000001,2.8219306,-0.2972645,0.16153023,-0.36215582
11.302461,-3.6264877,3.1547341,-0.38669515,0.14077826,-0.27057838
8.252382,-3.8646822,4.546943,-0.43353978,0.060388394000000005,-0.1561197
10.211758999999999,-0.590956,3.9789237999999996,-0.42874014,0.0034382986,-0.066706486
12.136659,1.3707379,1.7998938999999998,-0.35582027,0.16046557,-0.006562438
12.585571,0.8336514000000002,0.4452736,-0.32761574,0.29621729999999996,0.05729916
11.717702000000001,-0.18998470000000003,0.53651184,-0.3377212,0.2850297,0.09403834
10.952764,-0.5781997,1.0536499,-0.3371976,0.2509609,0.123848565
9.875057,0.075513124,1.3622338,-0.34836772,0.26960102,0.22073179999999998
8.808632000000001,1.5013655000000001,0.89662856,-0.4149170999999999,0.1338493,0.32878512
8.070605,2.1125,0.20684946,-0.42821652,-0.17647023,0.27824038
7.490278999999999,1.4773757,0.17386693,-0.29459409999999997,-0.30316368,0.11746066
7.5900025,0.44389457,0.37890637,-0.09550442,-0.25206044,0.00034906584
7.8027606,-0.5626853,0.33615547,0.10037389,-0.02263692,-0.009738937
7.462333999999999,-0.8640578000000001,0.1716068,0.18606955,-0.31913346,0.042411502000000004
7.3516455,-0.2402725,0.014642938000000001,0.01998402,-0.5001241,0.040282197
7.4819283,0.44354979999999994,-0.13810714,-0.1998402,-0.39526471,-0.3115762
7.382607000000001,0.7124090999999999,-0.5029547000000001,-0.24881414,-0.27335346,-0.83164936
6.9181604000000005,1.0260878,-0.41361270000000006,0.005078908,0.3931005,-0.7177318
6.850586999999999,0.7319745,-0.5676555999999999,-0.066235244,-0.01144936,-0.46434486
8.869109,-0.26118827,-0.24834575,-0.43193409999999993,-0.23502603,-0.3765199
11.211223,-0.7016448000000001,0.016950948,-0.4628264,0.028448867000000003,-0.32009340000000003
11.216317,-1.4451114,-0.12992854,-0.13117895,0.12213814,-0.18540633
11.112697,-1.1450988000000002,-0.6063651,0.2829528,-0.09716248,0.07061602
10.311128,0.120524116,-2.003669,0.50813514,-0.125367,0.2952748
11.897018,0.78817123,-2.2203062,0.49429470000000003,-0.08119272,0.40172243
15.996963500000001,-0.7494809,0.29797277,0.43360959999999993,-0.045518185999999995,0.3761708
17.94547,-2.9019449,2.380976,0.47404888,0.050806534,0.29206340000000003
10.723399,0.16508499,2.3508952,0.581055,0.17591174,0.21594960000000002
9.427045,1.2965273000000002,1.8122671000000001,0.65718627,0.15514232,0.12971286
10.176917999999999,-0.4614776,2.0172586,0.6539923000000001,0.025254915,0.072221726
10.59056,-2.3710065,2.4389062000000004,0.5784020999999999,-0.033283427000000004,0.086062185
10.171785,-2.6118348,2.8332696,0.5033354999999999,0.029513517000000003,0.03869395
9.345365,-2.259868,2.1901965,0.41709880000000005,0.04548328,-0.045413468
9.114381,-1.9530939999999999,1.2235711999999999,0.33724996,0.00076794485,-0.14336134
9.065242,-1.7762008000000002,0.6733357,0.27124159999999997,0.044959683,-0.22586305
8.86093,-1.9102186,0.69822586,0.20203932,0.12639675,-0.31583479999999997
8.592167,-2.2758038,0.8406138000000001,0.14348352,-0.08545132,-0.33498105
8.252439500000001,-2.255405,0.8309125,0.089186326,-0.41654027,-0.20135863
8.218347,-1.8173236000000001,0.7069312,0.006684611,-0.2376964,-0.0927817
8.247200999999999,-1.0573466,0.31717426,-0.06091199,0.018867008,-0.12313298
8.181935000000001,-0.41916728,-0.042032602999999995,-0.03642502,0.028989919,-0.12630948
8.366203,-0.35021424,-0.3476381,-0.016196655,-0.099815376,-0.101298906
8.440192999999999,-0.7607815,-0.7812663000000001,0.05778785,-0.09716248,0.15419984
8.475991,-0.8454405,-1.2847286,-0.28023008,0.04654793,0.8552636999999998
7.9555974,-0.92726475,-1.4427651000000001,-0.51497686,0.03111922,0.91807806
7.484916,-0.7384005,-1.0235021,-0.13117895,0.22434463,0.24043655
7.647636,-0.2008448,-0.7134242,0.12325515,-0.2659009,0.2957984
9.175462,-0.11835018,-1.0176698,0.32979742,-0.28028244,0.501276
10.78607,-1.0857705,-1.218572,0.30105186,0.20785126,0.44963172
10.627967,-0.83418775,-1.2065244,-0.14289011,0.14662512,0.17921041
10.189828,-1.0250632,-2.2032785,-0.46654397,-0.14027211,-0.19977039
10.291256,-2.1334922,-2.7852228,-0.4638736,0.017278758999999998,-0.44837508
11.632861,-2.3166966,-1.1604791,-0.37976620000000005,0.24350834,-0.48350856
15.585218,-0.18649873,1.4160458,-0.38296014,0.21476276,-0.42442918
16.472182999999998,1.4663144,2.929162,-0.45855036,0.17962928,-0.3701145
9.14022,-2.9844682000000002,2.7074304,-0.51923543,0.17165314,-0.24715607
7.7739444,-2.835769,4.2747803,-0.5352051999999999,0.102450825,-0.11461577
11.240269999999999,-0.5238225999999999,3.1409627999999996,-0.5006128,0.12852605,-0.047001716
12.979724000000001,0.8174763,1.0974351,-0.46015605,0.26693067,0.008342674
12.380426,0.36339194,0.44282195,-0.45642105,0.29461157,0.084997535
