accx,accy,accz,gyrx,gyry,gyrz
10.672557000000001,-0.7946068000000001,-1.6042972,-0.09937905,0.07105235,-0.16472417
10.379391,-0.39636487,-1.9605734000000001,-0.30963886,0.009302605,-0.37498400000000004
9.280452,0.23995647,-2.3903133999999997,-0.44378486,-0.04017748,-0.43621013
8.445814,0.919565,-2.1278226000000005,-0.50286424,-0.03911283,-0.35794958
7.6158600000000005,0.86763954,-2.1672217999999996,-0.57953656,-0.10086258,-0.2850297
7.604386999999999,0.84173423,-2.3426112999999997,-0.60615283,-0.096603975,-0.21209241
8.241349000000001,0.35565388,-2.3250284,-0.54386204,0.09341002,-0.15088372
8.111603,-0.3345945,-2.4314077000000003,-0.42303290000000005,0.11470304,-0.09445722
7.5233289999999995,-0.6691123999999999,-2.0611777,-0.2766347,0.033265974,-0.06997025
7.679651,-0.64441377,-2.1955786,-0.15632914,0.021013765,-0.056129787
8.024511,-0.24351904,-2.4647923,-0.07543313,-0.01569051,-0.0013089969
7.9748945,0.28971756,-2.7672950000000003,-0.05199336,-0.0007853982,0.07960447
7.659731,0.63389844,-3.2012297999999997,-0.07382743,0.055623643,0.14561282
7.6230807,0.9340164000000001,-3.0061502,-0.061575215,-0.107791536,0.20895082
7.677026700000001,1.3761584999999998,-2.9101807999999996,0.018256145,-0.31539845,0.17381734
10.702015,0.18584752,-2.472061,0.24502677,-0.3819304,-0.062517695
13.469626000000002,-1.0940063999999998,-3.115134,0.37756708,-0.28504717,-0.2509609
11.898024000000001,-1.0402136,-5.2915497,0.44144613,-0.058817595,-0.20943952
11.082989999999999,-0.2845269,-4.7602572,0.46540950000000003,0.064664446,-0.16739453
11.405086,-0.17423084,-3.6418392999999996,0.37596136,0.18018779,-0.25841343
11.915194999999999,0.6414258,-2.209063,0.32009340000000003,0.23181464,-0.42982224
13.535495000000001,0.33674926,-0.2876298,0.12578587,0.34679693,-0.59803706
13.132492999999998,0.6618052,0.29307902,-0.21382028,0.19455186,-0.53256977
9.620764999999999,1.7635498,0.10350612599999999,-0.45019022,0.050823987,-0.3111224
8.972778,1.8858074,0.047395617,-0.6029589,0.0018500489999999999,-0.16472417
10.83493,1.6857668999999997,-0.071059905,-0.5901831,0.046041787,-0.11468559
11.684892,0.81685376,-0.26213634,-0.42996186,0.12269664599999999,-0.023666665
9.749869,0.15373649,-0.4101746,-0.26546457,0.092886426,0.08119272
8.33413,0.26760470000000003,-0.47739425,-0.080215335,-0.0061086523,0.22172663
7.9841356,0.32502726,-0.87896895,0.011327186999999999,0.0007853982,0.32499775
8.136063,0.21958661,-1.4179325,0.033143803,0.07904596,0.32552135
8.055234,-0.27202919999999997,-1.3487017,0.06721263,0.08436921,0.25844836
7.674987,-0.70130956,-1.2087462,0.15240215,-0.0018500489999999999,0.19776326
7.481392,-0.9260294,-1.3799700000000001,0.27429596,-0.029007372000000003,0.15571828
7.742513000000001,-1.1256386999999999,-1.3591978999999998,0.40310124,-0.06414085,0.074787356
7.927086999999999,-1.4120235,-1.7192571,0.43451717,-0.10140363,-0.027384216
8.200907,-0.7070652,-2.5113451,0.29876545,-0.1301492,-0.09073967
8.070969,0.42689574,-2.6855474,0.14332643,-0.20519836,-0.13919
8.045667,0.5643516,-2.5537127999999996,0.04166101,-0.340409,-0.18549359
7.944717999999999,0.13506171,-2.8728792999999997,0.032620203,-0.11737339,-0.21849777
8.4993105,-0.46748224,-2.0173544999999997,0.036878806,-0.07531096,-0.23712043
8.259861,-1.0231382,-2.483764,0.0054628807,-0.22383848,-0.27118927
8.85326,-1.2151914,-2.6732507,-0.07862708,-0.29249972,-0.17112954
11.143094,0.44367433,-3.0160046,-0.34585443,-0.2664245,0.19722220000000001
12.820615,1.295857,-4.2217627,-0.56677824,-0.19083429999999998,0.32072172
12.131497,0.86306185,-5.174818,-0.5523967,0.008237954,0.24832545
11.764811,0.45022485,-4.142601,-0.43582615,0.17805849,0.14611897
10.787927999999999,-0.78535557,-3.2065446,-0.38578758,0.18338175,0.16847663
10.509454,-0.410529,-1.3610367,-0.32562608,0.10459758,0.37130135
11.507645,0.45765644,-0.020235792,-0.005183628,0.107791536,0.40856412
10.80667,-1.4565365,0.9195554,0.38606682,0.24300219,0.27759463
9.681827,-2.4240909,1.7506115000000002,0.63146013,0.23767893,0.17912313
9.164199,-0.94302815,1.2838572,0.6831044,0.21851522,0.255778
10.238919000000001,0.73905176,0.9749285,0.5553463000000001,0.15250687,0.39311796
11.772577,0.7540299,-0.27703786,0.27693140000000005,0.22277382,0.21797417
11.097325999999999,-0.21250933,-1.2141283999999999,0.06986553,0.11843804,-0.014625859
9.570879,-0.33628,-1.1047901000000002,-0.03764675,-0.040718533,-0.26855382
9.82317,0.026192566,-1.7746973000000001,-0.13611823,0.030595621,-0.36063740000000005
9.186523,0.5247133,-2.1987967,-0.19202112,0.14079571,-0.3058166
7.9126163,1.0589362,-1.9208776,-0.24633577,0.07956956,-0.24565509
7.3951716,1.3717052,-1.9542432,-0.38580504,-0.034330625,-0.20467477
7.802453999999999,1.4726063999999999,-2.3157772999999997,-0.48481756,0.036442474,-0.15250687
8.459116999999999,0.8416193999999999,-2.6420112000000002,-0.47895324,0.18764035,-0.07637561
8.058222,0.1842386,-2.4278642999999995,-0.38528144,0.15887733,0.008761553
7.5657825,-0.3645986,-2.2335029,-0.2867925,0.09979793,0.040718533
7.705441499999999,-0.39058048,-2.5211040000000002,-0.2064201,0.098733276,0.07902851
7.9729886,0.12564771,-2.6161060000000003,-0.15584044,0.117355935,0.18229964
7.926139,0.6287269,-2.924163,-0.14732324,0.19401079999999998,0.30527553
7.589265299999999,0.6099946999999999,-2.6028993,-0.05256932,0.028989919,0.3063402
7.790703999999999,0.60493815,-1.9465626,0.16193165,-0.125367,0.23607324
10.040296000000001,0.11089942,-1.2192233000000001,0.40146065,-0.19296359999999999,0.0752935
12.568745,-0.7116621,-1.9060718999999997,0.5159193,-0.30049333,-0.07639306
11.821208,-0.8962646000000001,-4.1923146000000004,0.46748644,-0.24300219,-0.06627015
10.559904,0.0019536687,-5.197122599999999,0.45045203,0.044959683,-0.0034557518
11.86369,0.116329476,-3.255827,0.44725809,0.1961401,-0.017296214
12.154213,0.35937923,-2.5124082999999997,0.30459487,0.13493139999999998,-0.19828686
13.359185,0.34086728,-0.92386496,0.13638003,0.19081685,-0.5033181
14.426243,0.35014722,0.7880946,-0.05311037,0.0662527,-0.50438267
10.84331,1.6121788000000001,0.118311875,-0.29586822,0.09128072,-0.28454104
9.056097,2.1892292,0.013608643,-0.5109102,0.06944665,-0.129102
9.359136,1.7021146,0.17506403,-0.52902675,0.0699877,-0.11791444599999999
10.924139,0.6914454000000001,0.46669695,-0.36772340000000003,0.13332570000000002,-0.07161086
10.501007000000001,-0.33051476,0.32655954,-0.16543975,0.16048302,0.0045029493
8.842036,-0.24368185,0.31473216,0.044802602000000004,0.059341196,0.11362094
7.984596000000001,0.09988609,-0.050613422000000005,0.15552629999999998,-0.040194932,0.23019147
8.339014,0.515328,-0.767945,0.153397,0.021537364,0.28715903
8.556868,0.49567637,-1.398616,0.07888888,0.12109094,0.3095167
8.477074,0.29064652,-1.4281892,0.073548175,0.12800245,0.27864182
7.9360795,-0.03244622,-1.3274700000000001,0.15926129,0.045500733,0.21156882
7.58304,-0.47284526,-1.0030556000000002,0.3040538,-0.033807027999999996,0.15727162
7.885389999999999,-0.9640396999999999,-1.1469758999999997,0.38177332,-0.017837266,0.09178686
8.479602,-0.84877324,-1.7944446,0.38920844,-0.013578662,0.005026548
8.827872,-0.39889315,-1.9528353999999999,0.33758157,-0.021031217999999997,-0.04660029
8.765671000000001,0.22204784,-2.0841715,0.27635545,-0.058294000000000006,-0.081210166
8.478434,0.51947474,-2.2244625,0.18798941,-0.11152654,-0.12803735
7.937908599999999,0.32088049999999996,-2.4423156,0.04160865,-0.047647487,-0.13657202
7.9970360000000005,0.23871149,-1.9539272,-0.103183866,-0.31700414,-0.12964305
7.9283032,-0.28711268,-2.8036485,-0.16865116,-0.45221480000000003,-0.13283701
10.169717,-0.3057204,-2.8090593999999998,-0.27724555,-0.37981856,0.016196655
12.601325,0.2853314,-3.3329105,-0.37465240000000005,-0.11737339,0.17908823
12.176919,0.039580945,-4.182795,-0.37786379999999997,-0.065222956,0.10934488
10.7616205,0.12517844,-3.783442,-0.31079078,-0.0013439035,0.05771804
10.733724,0.743256,-2.415893,-0.25595254,0.10032152400000001,0.115209185
10.929779,0.8567123999999999,-1.2857246,-0.23041837,-0.0050614546,0.3462384
11.474107,1.1528273,-0.49513048,-0.069115035,0.041224677,0.5208412
11.721092,-1.1536413,0.30368054,0.28379053,0.19453439,0.2802126
10.865366,-3.5144870000000004,1.5633084,0.60105646,0.16526523,-0.04181809
9.570592,-3.0091283,1.2307825000000001,0.83316785,0.15301302,-0.025848325
9.3047495,-0.27375302,0.95888734,0.89969975,0.21795672,0.25359634
11.258761999999999,0.7737198000000001,0.49185523,0.7442607,0.23924974,0.28927088
11.938783,0.0369569,-0.6889651,0.47223374,0.14716616,0.02576106
10.051797,-0.49259263,-0.98633444,0.30455995,-0.070005156,-0.182352
9.367861,-0.45960054,-1.2317498,0.24068089999999998,-0.10513864,-0.38198277
9.211423,-0.41568130000000003,-1.8061953000000002,0.24865706,0.103515476,-0.4309567
8.264497,0.17757314,-1.6206926000000001,0.2417281,0.135455,-0.34152603
7.2863603,0.8875976000000001,-1.3017466,0.14484487,0.059864793,-0.26487118
7.337711,1.291576,-1.7050546000000002,-0.013770646999999999,0.029513517000000003,-0.22015584
7.8708234,1.1821419,-2.1005576,-0.0866905,0.07689921,-0.14030702
8.019637,0.46460920000000006,-2.1029615,-0.05900958,0.103515476,-0.08281587
7.8083825,-0.13742718,-1.9870534,0.036250487000000005,0.00715585,-0.050335295
7.761628599999999,-0.32993057,-2.2230546,0.09745918,-0.07639306,-0.0061610119999999996
7.77382,0.06273766,-2.9596834,0.11449360000000001,-0.02370157,0.08431686
8.102898,0.72977185,-3.3136324999999998,0.054349552999999995,0.04335398,0.1982345
7.588603999999999,1.6048334,-3.5560023999999997,-0.048904125,0.0013089969,0.31534609999999996
7.6550865,2.135446,-2.9236459999999997,-0.056897733,-0.16369443,0.33770376
9.655489999999999,1.0789708999999998,-1.8972516,0.1251401,-0.28825858,0.13274974
13.102594,-0.46335465,-2.1935293999999996,0.3045425,-0.35800195,-0.23080234
13.662942999999999,-0.99209017,-3.8567524,0.42537165,-0.07106981,-0.38465312
12.274229,-0.31661880000000003,-3.6342163,0.5632526,0.18921115,-0.29574603
12.356914999999999,-0.37476918,-1.475489,0.5973215000000001,0.15887733,-0.39317033
13.605453500000001,-0.25714687,-0.72563463,0.44614106,0.14023721,-0.5129348
13.082024,0.74384016,-0.22035275,0.18901916,0.21902137,-0.4000818
11.024341,1.6583487000000001,0.6590566999999999,-0.20807815,0.09019861,-0.17598155
9.016909,1.9694415,-0.45436203,-0.53705525,0.051347587,-0.16533504
9.833225,1.7412455000000002,-0.07291781,-0.6578844,0.05667084,-0.19886282
11.34094,0.73467517,0.14627615,-0.5482428,0.11522663400000001,-0.15468854
10.668907,-0.34131740000000005,0.08233181,-0.33478907,0.12054989,-0.034924038
8.943713,-0.6787466,0.30754000000000004,-0.10906562,0.08806931,0.10506882
7.860749,-0.32551566,-0.09769301,0.032515485,-0.01144936,0.26263714
7.8391910000000005,0.12574348,-0.7906612,0.021345377000000002,0.026319565,0.31586970000000003
8.133994,0.33079250000000004,-1.1634575,-0.015393803999999999,0.027384216,0.30307642
8.272772,-0.14350845,-1.1942375,0.028239427,0.038030725,0.27378979999999997
8.039537,-0.64814866,-1.0679383999999998,0.16559684,0.034313172,0.19982274
7.655862299999999,-1.1104308,-0.81790715,0.29174924,-0.015184363999999999,0.117844634
7.839306,-0.94276,-0.99555695,0.3487168,-0.070005156,0.05183628
8.267014999999999,-0.68477046,-1.3917303,0.33272958,-0.09342747,-0.005654866999999999
8.525675999999999,-0.25338316,-1.6197541000000002,0.24649285,-0.11526154,-0.07433357
8.546333,0.22264160000000002,-1.6662111000000002,0.19645426,-0.29092893,-0.14564772
8.11686,0.36016455,-2.2181130000000002,0.21242402,-0.35587263,-0.17758726
8.175231,0.12893255,-2.417186,0.14109242,-0.34096754,-0.12808971
8.548364,-0.31118876,-2.7913422999999997,0.0053407075,-0.3526787,-0.16376424
9.181648,-0.79953885,-3.4202607000000005,-0.14102261,-0.40325832,-0.16428784
10.871984,0.614266,-2.9101807999999996,-0.34650022,-0.31061625,0.04703662
12.1741705,1.9139727,-3.4935807999999997,-0.5328141,-0.13390166,0.17744762
11.523925,1.4088631999999999,-4.2338295,-0.5706179,0.043877575999999995,0.07630579
11.226938,1.1851586,-3.1710818,-0.5035449000000001,0.18121754,0.012967796
10.533951,0.8273212,-1.6597755,-0.34171802,0.19186404,0.12102113
9.81682,-0.73984665,-0.19007088,-0.21287781,0.13065535,0.31532863
11.035661,-0.6866666,0.9264028,0.15599753,-0.012531463999999999,0.420188
11.502004,-2.3157103,1.8408825,0.5573709,0.15514232,0.19394098
11.069141,-3.8160799,1.0371586,0.7969173,0.16365953,0.000715585
10.217782000000001,-1.3020818,0.54493946,0.8421563,0.15514232,0.20086995
10.567019,0.45005247,0.3359065,0.7404734000000001,0.09445722,0.30733502
12.025107,-0.23588632,-0.80412614,0.4562116,0.18228218,0.06618288
10.801192,-0.47838065,-1.5184411,0.24488714,0.040683622999999995,-0.10147344
9.525723,-0.55650824,-1.2847095,0.18046704,-0.02370157,-0.28513443
9.122139,-0.6200694999999999,-1.8156859,0.17140879,0.061453044000000005,-0.38840556
8.07863,0.0320823,-1.8455464,0.15915658,0.09285152,-0.39426988
7.451627,0.7216411,-1.6250403999999998,0.0697259,0.0082205,-0.3426256
7.5009955999999995,1.0159076,-1.8744300999999999,-0.019128809,-0.034348078,-0.24467771
7.8397179999999995,0.7699081999999999,-2.3233047000000004,-0.10857693,0.07901105,-0.16802284
8.015749000000001,0.2584493,-2.6845992,-0.15168656,0.11946779,-0.12917182
7.459614299999999,0.14826813,-2.6295805,-0.124005646,0.048677232,-0.052516956
7.1873645999999995,0.22627121,-2.6886597,-0.069184855,0.036966074,0.019320795
7.6498479999999995,0.32833123,-2.7072198,-0.050021138,0.09498082,0.07628834
8.103492,1.0271701,-2.5862932,-0.13891076,-0.030089477000000003,0.24610887
7.2847990000000005,2.0822947,-3.320097,-0.25710446,-0.12325515,0.3978129
8.054746000000002,2.1752757999999996,-2.8991964,-0.18414968,-0.26911232,0.3153112
11.219459,0.17635689999999998,-1.8833269,0.15222761,-0.4783075,-0.07806858
14.178529999999999,-2.1426957000000004,-2.6146599999999998,0.43915975,-0.3478965,-0.51724577
13.754928,-2.345609,-3.737464,0.59034014,0.18228218,-0.47839475
12.588655000000001,-0.58883953,-2.388475,0.5967281,0.3286804,-0.3713886
14.497982999999998,-0.5542385,-0.41120893,0.41147882,0.04548328,-0.49169415
13.763154,0.63880175,-0.4763312,0.09101892,0.13065535,-0.47253045
11.8271265,1.7060123999999999,0.16755582,-0.2980848,0.13917255,-0.24575981
9.318798,2.2941337,-0.4760822,-0.6941349,0.12266174,-0.21966714
9.5134945,2.2606819,-0.048391607,-0.9086708,0.082205005,-0.2249904
11.027951,1.6516736,0.12425907,-0.82295763,0.15301302,-0.07168067
10.637917,0.11296801,-0.124814525,-0.6999991999999999,0.28183576,0.07628834
9.037709,-0.6960615,-0.022725763,-0.5914048000000001,0.10669198,0.18701203
7.358397,-0.6250207,0.07827124,-0.4450066,-0.014119713999999998,0.3690673
7.4310946,0.01982399,-0.39128917,-0.4029616,0.041748274,0.46221554
7.5984683,0.0999244,-1.1486901000000003,-0.36250487,0.08381071,0.45104542
7.910605,-0.69508463,-1.0109948,-0.24698155,0.10297442,0.3461686
7.849189,-1.3416148,-0.85147387,-0.066549405,0.041207224,0.24822073
7.338985000000001,-1.2892202,-0.89011633,0.0697259,-0.025830872,0.18062413
7.446225999999999,-1.0762798999999998,-1.3308313999999999,0.03457497,-0.15147713,0.11033971599999999
7.9266844,-0.75621337,-2.0199018,-0.096342176,-0.20149826,0.056059975
8.37847,-0.09450393,-2.5707788,-0.22355922,-0.21481512,-0.0030194195
8.499396,0.08896854,-2.7732902000000004,-0.31513664,-0.24836035,-0.07967428
8.388507,-0.12113703,-2.9494936000000003,-0.36623988,-0.1807463,-0.16910495
8.660699000000001,-0.57736653,-2.6872616000000003,-0.31939524,-0.050858892999999995,-0.26492350000000003
8.779538,-1.3709295,-2.1087265,-0.21772982,-0.1195376,-0.32667327
9.1461,-1.9988423999999998,-2.0742693,-0.1889668,-0.13070771,-0.3719122
10.632487,-0.8854523999999999,-2.0580845,-0.43915975,-0.1828756,-0.084997535
11.979283,1.1321796999999998,-2.8629096,-0.74473196,-0.18606955,0.19711748
12.145067,1.8395034,-4.1164083,-0.8511796,-0.0636347,0.24874432
11.612069,1.3014688,-3.5070076,-0.631879,-0.011466813000000001,0.20935224
10.862311,-0.20367952,-2.3961747000000004,-0.511556,0.100304075,0.3089058
11.837565,-0.8142583999999999,-0.49423024,-0.5041209,0.11040953,0.59688514
13.046972,0.4055969,0.6125709,-0.12082914,0.12692034,0.52502996
11.128001,-2.728844,2.3335805,0.23420574,0.08433431,0.21947515
9.504598,-4.1061997,1.5745993999999999,0.5578595999999999,0.045465827,0.06988298
9.037153,-2.2169062999999998,1.2692621000000002,0.66006607,0.127985,0.19605283
10.979809,-0.24450545,0.85577387,0.52804935,0.2062281,0.24928537
11.842784,0.6536075,-0.30829656,0.24378759,0.21369812,0.101298906
10.029302000000001,0.49623182,-0.71730286,0.029251719,0.07688175,-0.13344787
8.913211,0.5311009,-0.9634651,-0.11232939,-0.04394739,-0.28143433
8.797446,0.49586788,-1.5332085,-0.17088519,0.041207224,-0.26385888
7.7736187,0.38811925,-1.6752709,-0.15170401,0.043877575999999995,-0.18933332
7.2851152,0.57776874,-1.2855809,-0.21985912,-0.064175755,-0.21010274
7.6288075,0.8760766999999999,-1.5761701000000001,-0.33058283,-0.07588691,-0.165911
8.171267,0.9611569999999999,-2.1143099999999997,-0.37369245,0.06517059,-0.059445914
8.256960000000001,0.70247793,-2.2286186000000003,-0.3593284,0.09178686,0.023038346
8.030756,0.16679925,-2.062758,-0.317807,0.053459436,0.100234255
7.854379700000001,-0.024478318,-2.0426946,-0.26668632,-0.007749262,0.16091935
8.269611,-0.015389928999999998,-2.1820564,-0.28160888,-0.050335295,0.17954202
8.34498,0.23285048,-2.8237598,-0.30024898,-0.059376102,0.21626374
8.211872,0.55760956,-2.7299645,-0.2427404,-0.17329374,0.26312584
8.071601,0.7500076,-2.8544054,-0.14852752,-0.29307568,0.2796192
9.553659,0.65626985,-2.30214,0.021816615,-0.33405602,0.15879005
12.560672,-0.42028776,-2.2681804,0.1996133,-0.29785788,0.028361599999999997
12.190509,-0.7447117,-3.9491782,0.257087,-0.17755234,0.01558579
10.484467500000001,-0.42439620000000006,-4.604586,0.31777209999999995,0.06517059,0.07307693
11.534172,-0.48930779999999996,-2.181453,0.3268129,0.03481932,0.019303342
11.757925,-0.13730267,-2.225918,0.15594517,0.08272861,-0.21488494
13.072964,-0.074095756,-0.06481583,0.029251719,0.23657937,-0.56463146
14.332810999999998,-0.3151248,2.2791650000000003,0.0037000979999999998,0.04759513,-0.71420616
10.993418,1.2058253,1.4167832,-0.14798647,-0.037559487,-0.37990582
9.209124000000001,2.037571,0.22318749,-0.40669662,-0.03488913,-0.13770647
10.647235,2.3683348,-0.25636154,-0.53339005,-0.020525072,-0.13131857
11.668486999999999,1.7746493000000003,-0.108926594,-0.42053708,0.006073746,-0.040282197
10.466885000000001,0.5513655,-0.035041533,-0.22357668,0.0028972465,0.06403613
8.521711,0.14238797,-0.18367359,-0.017034413,-0.104091436,0.25460863
7.824787599999999,-0.11250833,-0.46271297,0.18682005,-0.035953782000000004,0.37330848
8.242355,-0.43976697,-0.9516952,0.23261748,0.00022689281000000004,0.36693802
8.2250595,-0.50778145,-1.2045037,0.21078339999999998,-0.005078908,0.30784118
7.958603999999999,-0.29735985,-1.3704123,0.23101178,0.023649212000000003,0.28387779999999996
7.6057754,0.008274361,-1.41482,0.30658454,0.015655603,0.26790804
7.480539299999999,-0.4842321,-1.3430322000000001,0.3741986,-0.05618215,0.18167132
7.791469599999999,-0.9147,-1.6444143,0.3805865,-0.09983283,0.07892379
8.214103999999999,-0.5746945999999999,-2.1462102,0.32255429999999996,-0.09505063,0.030490901
8.54457,-0.028146235,-2.4635284,0.19533725,0.025778513,-0.011013027
8.689239,0.045968674,-2.2282547999999998,0.124005646,0.02417281,-0.10309660000000001
8.417831,-0.30218655,-1.9242008000000002,0.14156365,-0.052464597,-0.16166985
8.067358,-0.46227247,-1.9139439999999999,0.12135274,-0.12325515,-0.19997983
8.266987,-0.5774526999999999,-2.0262703999999996,0.15755087,-0.28934067,-0.26757643
8.970614,-1.3268282,-2.973627,0.13091715,-0.22919664,-0.22074924
11.335003,-0.48383945,-2.964357,-0.30449015,-0.045012042,0.0022863813
12.866928999999999,1.507102,-3.8639254999999997,-0.5701293000000001,-0.103026785,0.008674286
11.049519,1.9673443,-4.513156400000001,-0.38062140000000005,-0.15732397,0.06616543
10.594104,2.0047417000000003,-3.6294373999999996,-0.22144738,-0.042341687,0.13376203
10.569308,-0.19824947,-3.6489165,-0.042062435,0.024713863,-0.006754424
9.359567,-2.5780380000000003,-2.5885246,0.16022122,0.2642603,-0.007278023000000001
9.5971575,-1.9254075000000002,-0.4504451,0.19481365,0.49316022,0.29719466
11.942374000000001,0.46481988,2.3869328,0.45991170000000003,0.1929287,0.5207712999999999
12.725881,1.2975712,2.939189,0.6962642,0.25733134,0.38821357
11.365256,-1.4061626,1.7579665,0.8506210999999999,0.14501941,0.11831587
10.378807,-1.7231357,1.3558556,0.8458389000000001,0.020978857000000004,0.11140437
10.140086,-1.4114585,0.5955912,0.73031557,-0.0636347,0.10182251
10.816027,-1.0862684,-0.45269564,0.5429545,-0.06469935,-0.008883726
10.492982000000001,-0.34290713,-1.3163992,0.36674604,-0.010402163,-0.14302973
10.120262,0.24456291,-1.7768999,0.1309346,0.00022689281000000004,-0.33519047
9.132242,0.7250313,-2.2006161,-0.028221974,0.026302112000000002,-0.40332812
8.090084,1.0397731,-1.6595265,-0.021293016,0.10882128,-0.34529594
7.5071535,1.0802447,-1.1628924999999999,-0.080389865,0.05611233400000001,-0.26546457
7.712461,0.8196119000000001,-1.3061711999999999,-0.18524924,0.05984734,-0.25321236
7.719558,0.30098948,-1.8983338,-0.25553367,0.03269002,-0.19839157
7.5143747,0.36340153,-1.8887953000000002,-0.25232226,-0.03010693,-0.12173671
7.2944145,0.43486366,-2.166178,-0.17673203,-0.03488913,-0.029112091
7.464958,0.07457459,-2.6290824,-0.07613126,0.06250024,0.056583576
8.100178,0.18201679,-2.813752,-0.06707300000000001,0.19718729999999998,0.15240215
8.5618,0.93257034,-2.5290816,-0.13735741,0.21102776,0.25193828
8.179024,1.7321858,-2.4529269,-0.2571219,-0.104091436,0.36692056
7.2079070000000005,1.8097866999999999,-3.3587012,-0.33004177,-0.35854298,0.37224382
9.273989,0.63087213,-2.7201197,-0.030333823,-0.49588296,0.07096509
13.315113,-0.90799624,-2.1009696,0.39283872,-0.53846896,-0.21542598
12.72137,-1.4013933,-4.360301,0.44394195,-0.13016665,-0.17975146
10.471587,0.5961274999999999,-5.644493,0.42423720000000004,0.17535323,-0.042428955
11.563544,0.7209324,-3.037361,0.3108606,0.11360348,-0.1068316
11.998512,0.57720375,-2.52866,0.081437066,0.26958355,-0.33573154
13.816908999999999,-0.009030929,0.50009125,-0.090512775,0.2557431,-0.6482153
14.792814000000002,-1.4374499,2.1520808,-0.10274753,-0.0040142573,-0.8063071999999999
11.498135000000001,0.004367024000000001,1.2778716,-0.29171434,-0.073216565,-0.52043974
9.680495,1.5942893,0.16253756,-0.54244834,-0.03275983,-0.27450538
10.208397999999999,2.556567,-0.26182032,-0.6957406,0.0034208453999999998,-0.20050342
10.876705000000001,2.1417282,-0.52215624,-0.631879,0.13437290000000002,-0.07862708
10.091944,0.7023246999999999,-0.09718543,-0.4471708,0.16470672,0.044331364000000005
8.49365,-0.2550208,0.19375795,-0.20813051,0.020996312000000003,0.24343853
7.423701299999999,-0.31114087,-0.062364165,-0.005846853000000001,0.06784095,0.35575047
7.503208,-0.23146184,-0.6243312,0.056409042,0.07847001,0.3701145
7.844458,-0.5128284000000001,-0.83667773,0.012758356499999998,0.076358154,0.27057838
8.089567,-0.32478783,-1.2455021000000002,0.059079394,0.12372639,0.20350539999999998
7.7633715,-0.5221275,-1.1390271,0.21612412,0.16472417,0.13484414
7.377876,-1.0217208,-0.6578786999999999,0.41999602,0.07955211,0.04967207
7.7290864,-1.3141485000000002,-0.45744574,0.5291140000000001,-0.04766494,-0.07648033
8.507872,-1.1530955,-0.99972284,0.528573,-0.1850049,-0.1595231
8.946519,-0.34953429999999996,-1.9283859,0.42797219999999997,-0.22865559,-0.18081611
8.659732,0.5404,-2.5362065,0.29860840000000005,-0.32447416,-0.14035937
8.061008000000001,0.73883146,-2.7876935,0.18362609,-0.2872114,-0.15634659
8.105972,0.5075995,-2.7473657000000005,0.112835534,-0.26591837,-0.20797344
8.192097,-0.09544246,-2.3987794,0.21025981,-0.38355356,-0.22553144
9.018594,-1.3279678999999998,-2.7504299999999997,0.18469074,-0.32501522,-0.17603391
11.669808,-0.64708567,-3.3477356,-0.20867157,-0.1227141,0.008674286
13.002727499999999,1.5116128,-4.3746089999999995,-0.5067738,-0.040212385,0.07574729
11.397119,2.4940112,-4.6343513,-0.49132764,0.025778513,0.09011135
10.767961,2.6394349999999998,-3.568481,-0.44237116,0.20729275,0.16198401
11.0874815,1.1055561,-2.781344,-0.2688156,0.13171999,0.07894124
10.183525999999999,-1.6544221999999997,-1.7073243999999999,0.14158110000000002,0.21528636,0.006544985
9.65344,-2.7700337999999998,0.70628947,0.4487416,0.40746456,0.18008307
10.496171,-1.4160553999999999,2.6126294,0.6606071,0.16098917,0.39194858
11.301972,0.6451608,1.7449325,0.6861413000000001,0.23603833,0.4111123
11.441985,0.5115547,1.0700358,0.66432464,0.16311847,0.39142498
10.578311,0.034083854,0.8953452,0.55040705,-0.026895522999999998,0.3733259
10.893847000000001,-0.7649475,0.08886319,0.28106782,-0.041800637,0.14601424
11.213617,-1.4703655,-1.0382216999999998,0.05321509,-0.06895796,-0.05146976
10.465277,-0.68673366,-1.4100125,-0.14851007,-0.03223623,-0.20477948
9.546966000000001,0.52078676,-1.8797834999999998,-0.27680922,-0.0066671576,-0.3112271
8.56452,0.8484476000000001,-1.6740258999999997,-0.36517525,0.005026548,-0.30963886
7.3456984,1.4313495,-1.6632903,-0.48761007,-0.028501227,-0.25799456
7.342155,1.5423063999999997,-1.8892167000000002,-0.60313344,-0.010943214,-0.18774506
8.0022745,0.96177953,-2.082697,-0.6898936999999999,0.08166396,-0.114807755
7.851909,-0.025742456,-2.1704013,-0.6723183,0.062517695,-0.06955137
7.113709399999999,-0.18227535,-1.9444366000000002,-0.5956634,0.04707153,-0.0035430184000000003
7.400343400000001,-0.38101324,-1.8579580000000002,-0.52113783,0.05825909,0.07202974
8.119303,-0.05266286,-1.8069233,-0.45832345,0.09178686,0.17530087
8.600805000000001,0.3518423,-1.9134842,-0.43064255,0.033772122,0.21628119999999998
8.381459,0.5068142,-2.7463696,-0.34918803,0.0018325957,0.23757422
8.090774,0.21110155,-2.6349432,-0.25232226,-0.25633649999999997,0.22692771
8.008643,0.18061857,-3.3580593999999997,-0.061732296,-0.36599556,0.094387405
10.726848,-0.07189309,-2.6759706000000003,0.34173545,-0.379836,-0.14407693
13.556095000000001,-0.61097157,-2.7836425,0.52592003,-0.30105186,-0.21062633
11.727355000000001,-0.06359,-5.390536,0.45778242,-0.024242622999999998,-0.083932884
10.619146,0.8935927,-4.6628704,0.43755403,0.25680774,-0.02698279
11.781367999999999,-0.542325,-1.7749653000000003,0.39018579999999997,0.19346975,-0.18507472
12.054346,-0.59005576,-1.5714008,0.22729422,0.2616074,-0.41130429999999996
13.449638,-0.54073524,0.29418993,0.11072369,0.28448868,-0.58430135
13.372919,0.16507542,1.4332745,-0.06440265,0.08168141,-0.49647635
10.324976,2.2997935000000003,0.16204914,-0.42743114,0.048136182,-0.20315632
9.3152075,2.7526808,-0.32854193,-0.71010464,0.010349803000000001,-0.059969515
10.720229,2.1058536,-0.39984125,-0.75801396,0.05984734,-0.012060225
11.385961,1.4467778,-0.15931018,-0.6339908000000001,0.09285152,0.0906524
9.453428,0.44810838,0.05791095,-0.50197417,-0.035953782000000004,0.21575761
8.069475,0.14471513,-0.2996583,-0.38325685,-0.14028956,0.39407790000000004
7.9405713,0.16003802,-0.64372426,-0.30393162,-0.093968526,0.50694835
8.334389,0.22032402,-1.4054444,-0.39870300000000003,-0.004537856,0.5340882
8.247374,-0.23012109,-1.8279825,-0.48546332,-0.014119713999999998,0.4148473
8.036847,-0.39539759999999996,-1.5723776000000003,-0.44608869999999995,-0.030089477000000003,0.36639696
7.719596000000001,-0.740766,-1.2059593000000002,-0.24804619,0.03536037,0.34670967
7.6055649999999995,-1.3271921999999998,-1.0136379,-0.029269172000000003,0.042812925,0.2743134
7.769184599999999,-1.5073032,-1.139391,0.019704766999999998,-0.026371923999999998,0.15987216
7.938933400000001,-0.7467611,-1.4633169,-0.03778638,-0.04447099,0.10077531
8.054727,0.090816855,-1.8753398999999997,-0.1335875,-0.088121675,0.08215265
8.147459,0.40067443,-2.004148,-0.14104006,-0.05989969999999999,-0.0008726646000000001
8.170376,-0.24414153,-1.8229643,-0.102712624,-0.027960173999999997,-0.120637156
8.298867999999999,-1.3312049,-1.5447389,0.007976155,-0.08438667,-0.26172957
8.763324,-2.077334,-1.5492879,0.14266321,-0.21746802,-0.41130429999999996
9.228307000000001,-1.6181548000000001,-2.2909062000000002,0.034592427,-0.309028,-0.27874655
10.406360000000001,0.56514657,-3.6184814,-0.50302136,-0.22704989,0.21416935
12.079360000000001,2.3634698,-4.6620374,-0.77609557,-0.22013837,0.35311502
10.5892,1.6662111000000002,-5.342880999999999,-0.61001,-0.30318114,0.33075735
10.090133,-0.0052480903,-4.2062297,-0.39121556,-0.15358898,0.34618604
10.628647,-1.3466523000000001,-3.8433354,-0.22727677,0.16578883,0.29560640000000005
11.03658,-1.6000451,-1.9052578000000002,-0.12454669,0.45750317,0.38290778
11.449819999999999,-0.09260772,1.0771418,0.055902895,0.54000485,0.68368036
12.7109995,1.7017411,3.9056610000000003,0.18154915,0.19985765,0.7507534
11.682698,-0.14845966,2.7468581000000003,0.3385764,0.11255628599999999,0.38557813
11.857696,-2.7487063,1.777532,0.6355966,0.15779522,0.18594737
12.207431,-3.2950152999999998,1.6576973999999998,0.80063486,0.06197664,0.08908161
12.288834,-2.8097203,0.28115588,0.635614,0.10988593,0.0012391837
11.390951,-1.1742506000000001,-0.7563475000000001,0.43172464,0.049200833,-0.19463912
10.284341,-0.1520797,-1.1414118,0.17301449,0.0039618975,-0.46771333
9.128822999999999,1.0119046,-2.0908849999999997,0.023422317999999998,0.12053244,-0.5055172
7.583366000000001,1.6494327000000002,-1.7079276999999997,-0.043615777,0.18441148,-0.34847245
6.445277,1.4183155,-1.330956,-0.15966272,0.13117895,-0.18771017
6.6046352,0.69788104,-1.6887167,-0.33000687,0.09019861,-0.15257668
7.3023057,0.66923684,-2.1254861000000003,-0.44659483,0.12053244,-0.12863077
7.3704543000000005,0.54535127,-2.1395066000000003,-0.43436009999999997,0.067299895,-0.091909036
7.350467,0.25553793,-1.6340715000000001,-0.30820770000000003,-0.03488913,-0.016318828
7.409489,-0.25579652,-1.9709164000000001,-0.17404424,-0.011990411999999999,0.025726152999999998
7.699417599999999,-0.48194325,-2.365098,-0.07609635599999999,0.09604547,0.08854055400000001
7.934480000000001,0.24685177,-2.2177012,-0.044680428,0.3414562,0.22055726
8.625322,1.3486251,-0.91171205,-0.12507029,0.19399334,0.35470328
7.887266599999999,2.19555,-2.008467,-0.31670743,-0.14348352,0.4324228
7.6451073,1.8906341,-3.5222347000000003,-0.32520720000000003,-0.3713188,0.29775316
10.861861,0.10874464,-2.52278,0.08199557,-0.46820202,-0.05623451
13.479232000000001,-0.85883844,-2.8588588,0.50199157,-0.39367646,-0.377218
13.720958999999999,-1.1134187,-3.759864,0.6563834,0.033772122,-0.40756929999999997
12.371328,0.23822306,-3.5514053999999997,0.62390286,0.28609437,-0.23349014
12.727136,0.16461574,-1.5776927,0.5541769,0.25254914,-0.45865506
15.617846499999999,-0.9065693000000001,0.9718256,0.27682668,0.11946779,-0.6721263000000001
13.170781,0.18401834,-0.13090536,0.15280357,0.19399334,-0.48527133
10.756862,1.6012133,1.1657176,-0.12878785,0.15992452,-0.24839526
9.845053,1.2047335,0.56870914,-0.33639476,0.14501941,-0.25850073
10.541594,0.7565486,0.42159978,-0.42741367,0.16578883,-0.22710223
11.881782000000001,-0.24211125,-0.06681738,-0.37950438,0.3206868,-0.12863077
11.270925,-0.9602473,-0.099378526,-0.274645,0.3052581,-0.015236723999999998
8.955051,-0.6890321,0.19921674,-0.11492993,0.18017034,0.15669566
7.3213253,0.10935756,0.25312460000000003,0.051138148,0.12959069,0.35630897
7.219408500000001,0.2545132,-0.39897934,0.07773697,0.11255628599999999,0.38664278
7.434073,-0.07541735,-0.6382463,0.058590703,0.088610366,0.36164966
7.5041366,0.24847983,-0.7270233,0.042603485,0.06197664,0.34407422
7.350525,0.08431421,-0.6916849,0.13629276,0.03536037,0.30946434
7.001680400000001,-1.0715873,-0.5764566999999999,0.23849924,-0.01891937,0.18863519
7.153405,-1.1566963,-0.96972835,0.21987657,-0.11952015,0.10718067
7.614203,-0.5201834,-1.3175675,0.120322995,-0.14613642,0.028396507999999997
8.438584,-0.109922595,-1.9050758999999997,-0.011658799,-0.12004375,-0.051958452999999995
8.368875,0.1984506,-2.1531439999999997,-0.117600285,-0.17329374,-0.093479834
7.806946000000001,0.28389487,-2.1882908,-0.21661282,-0.23343779,-0.1674818
7.6211842999999995,0.11477803,-2.3001766,-0.23205897,-0.26804766,-0.2473306
7.849045299999999,-0.17101304,-2.0661864,-0.15432201,-0.26057765,-0.25637139999999997
8.871648,-0.67342186,-1.8404228999999999,-0.10801843,-0.20256291,-0.32450905
10.544926,-0.9304155000000001,-1.8554583999999998,-0.23045327,-0.12058479999999999,-0.19516271
12.409789,-0.35445678,-1.7756741000000003,-0.53600806,-0.14294246,-0.006178465699999999
12.936571,1.1002793,-2.9299283,-0.48649308,-0.2552544,-0.017366026
10.551008,1.1228615,-4.2004547,-0.17987363,-0.18446384,0.03000221
10.273807000000001,-0.011271901,-3.804779,-0.10908308,0.010873401999999999,0.063006386
11.054374000000001,-0.85706675,-2.9263369999999997,0.049008845999999995,-0.026354471,0.039584067
10.876494000000001,-1.1692513999999998,-1.5853541000000002,0.18315485,0.34784412,0.17905332
11.750492999999999,-0.73109347,1.0821983999999998,0.21137683,0.39948842,0.5133537
12.810205,1.0759256000000001,3.8195943999999997,0.42057198,0.019408062,0.61343086
11.468264999999999,-0.910898,2.8760684,0.54674184,-0.056705747,0.39465386
11.184274,-2.4226737000000003,1.8594232,0.63936645,-0.067875855,0.31532863
11.710127,-2.4964435000000003,1.1687152,0.6893876,-0.038606685,0.21312216
12.747784,-2.1932611,0.5417312,0.60528016,0.016196655,0.0864287
11.246485,-0.66524327,-0.2636495,0.44027674,-0.033807027999999996,-0.080704026
9.954966,-0.057949256,-1.0740579,0.110758595,-0.10407399,-0.4379031
9.545127,0.58590907,-1.6313898999999998,-0.124511786,-0.038606685,-0.6247406
7.808152000000001,0.563461,-1.2887316999999998,-0.19104373,0.006091199,-0.5438271
6.377999999999999,1.0473675,-0.77269506,-0.17081538,-0.017313666999999998,-0.36336009999999996
6.101058,1.1305995,-0.7386111999999999,-0.25385815,-0.11897910000000002,-0.26541220000000004
6.9023976,0.7294558000000001,-1.2940853,-0.35554102,-0.14240141,-0.26647687
7.083906699999999,0.36909014,-1.6385246999999998,-0.37257543,-0.16262978,-0.19142771
7.016992999999999,0.42181045,-1.7992331000000001,-0.31241393,-0.20415117,-0.094544485
7.338027,0.1369196,-2.2594368,-0.26024604,-0.15730652,-0.021083577000000003
7.731691400000001,-0.23093513,-2.8484585,-0.22404791,-0.03700098,0.03747222
7.904974,0.45354799999999995,-3.262435,-0.27940977,0.12587315,0.15936601
8.321105000000001,1.5314558999999999,-2.3036529999999997,-0.35608208,0.061453044000000005,0.3291691
7.8524356,2.266677,-2.5876725,-0.36512288,-0.0646819,0.43085197
8.624191999999999,1.5765913999999999,-2.4775869999999998,-0.18305013,-0.20308651,0.31906363
11.9629545,-0.58398414,-2.3088818,0.16348499,-0.23396139,-0.07696902
14.763625,-2.151018,-3.014118,0.43388885,-0.10939724,-0.33834952
13.402434,-1.4171376,-4.882409,0.51002014,0.42662829999999996,-0.23347269
11.798138,1.5056082,-4.8442264,0.55365336,0.49743629,-0.14191271
12.337895,1.0740485,-3.358136,0.62446135,0.8918806999999999,-0.42085123
14.371215,-0.12611696,-0.45634443,0.65640086,0.7034375,-0.74078757
13.873978,-1.1452136999999998,2.6080039,0.625526,0.19507545,-0.73651147
8.870269,0.34757105,1.7857009,0.4908564,0.12693779,-0.5656437
9.089577,1.1992556,1.4608557,0.12620476,-0.02263692,-0.48685959999999995
10.679652,1.1607281,0.24921724,-0.12716469,0.15248941,-0.4432089
12.686722,1.4383597,0.21482694,-0.3347716,0.32974505,-0.27818802
11.824177,1.3396708000000002,-0.71845204,-0.3485946,0.48411942,-0.14030702
9.835361500000001,0.61324126,0.68979824,-0.21553071,0.10990338,0.011379546499999999
7.9856110000000005,0.59417385,0.07129932,-0.24212952,0.073705256,0.18545869
7.8365765,0.6042295,-0.51522267,-0.23734732,0.036442474,0.30044097
8.052275,0.8002859,0.4152791,-0.18730873,-0.16262978,0.3414213
7.7454534,0.13135548,0.5589407,-0.11704178,-0.25366616,0.28979447
6.717842599999999,-0.40890092,-0.25110388,0.10543534,-0.1817935,0.20886356
6.4813529999999995,-0.96988153,0.076480374,0.40090212,-0.018901916,0.17320648
7.152562599999999,-1.3983191000000001,-0.3503196,0.40941933,-0.031154128,0.09335766
7.664347,-0.79545915,-1.1232541999999999,0.41100758,-0.032742377,0.017767452
7.381659,0.016089035,-1.2555673,0.37109190000000003,-0.13281955,-0.043964844
7.983006,0.47851473,-1.2355804,0.13632767,-0.15517722,-0.14243633
7.856688,0.75900024,-2.4155197,-0.0025830872,-0.18711674,-0.21748547
7.926321000000001,0.43853155,-1.9214042000000002,-0.009512044499999999,-0.39046505,-0.20418607
8.005636,-0.49386635,-1.5108275,0.15655604,-0.32445672,-0.21483257
8.959639,-1.534214,-2.4115167,0.27047366,-0.083845615,-0.26061258
10.337769999999999,-1.9999915000000001,-2.336348,0.14536847,-0.07480481,-0.21537364
12.28508,-0.61382544,-2.840634,-0.2091428,-0.091839224,0.03960152
13.387877,1.2538531000000002,-3.5285265,-0.36671114,-0.098750725,0.15830137
12.297683000000001,1.4826523999999999,-4.0219336000000006,-0.29963812,-0.00027925267999999995,0.0773879
11.89993,1.0392177,-3.4798286,-0.1537635,0.35636133,0.060894538
10.559502,0.095768064,-1.8881439999999998,-0.03132866,0.6150715,0.22750367
11.675957,0.7818505,1.9124212,0.0559378,0.26001915,0.60918975
12.914314,1.8812966,4.623298999999999,-0.03452261,-0.33883822,0.5676683000000001
11.824302000000001,-0.47485638,2.6864762000000004,0.08576548,-0.53099895,-0.06525786
12.088181,-1.8946657999999998,2.1791162,0.41420153,-0.47776642,-0.17863445
11.6164465,-1.0372161,1.1929923999999998,0.76820666,0.028448867000000003,0.013508848
12.645100999999999,0.24369141,-0.63129354,0.6766466999999999,0.64329344,0.057176985
12.269882,0.7608869,-1.480718,0.49352676,0.76466364,-0.060981803
9.250966,1.2439793,-0.65177834,0.32690015,0.24724334,-0.2611536
7.2710853,1.4763031,-0.23682486,0.21830578,0.052412238,-0.31225684
6.484724,1.278542,-0.9030929,0.14910348,0.13491395,-0.28349382
6.601235400000001,0.83428353,-0.28005457,0.16613789,0.12374385,-0.25476572
6.9608064,1.0270168,0.01784159,0.10119419,-0.06735226,-0.29574603
7.1544490000000005,1.293951,-0.84001046,-0.093636915,-0.18020524,-0.3170565
6.768905999999999,1.4433397,-1.3171461000000002,-0.13566445,-0.25206044,-0.28829348
6.858401299999999,1.381033,-1.3982521,-0.11810643,0.10084512,-0.09772099
7.074933000000001,1.4224814,-1.9456048,-0.146852,0.102450825,0.0071383966
8.32462,0.8128219,-1.5351909,-0.1447227,-0.019966567,0.0055326936
8.530014,0.86483353,-2.0396587999999998,-0.21764256,0.10458013,0.04759513
8.127664,1.7916385,-2.2139759999999997,-0.2208365,0.10616837400000001,0.13861404
7.511530400000001,2.197494,-1.5638733999999999,-0.18730873,-0.27654743,0.14339624
8.409902,1.9266142,-2.1404355,-0.022270402,-0.32445672,0.14767231
9.325004,1.2602407,-1.9227163,0.22736403,-0.25099578,0.10932742
12.269394,0.4846822,-1.3423715,0.5142962000000001,-0.3154159,-0.022654373
13.246304,0.43903909999999996,-2.5135672000000002,0.51216686,-0.27070057,-0.051399945999999995
12.549888000000001,0.8673714,-5.0902357,0.32372367,0.22701497,-0.13231342
13.714476000000001,1.5276827,-4.2610470000000005,0.30243066,0.5330934,-0.18821629999999998
13.217429999999998,1.2947459,-1.8948381999999997,0.33489376,0.6273236999999999,-0.33194417
12.878871,1.2630755,1.2127013999999998,0.38175586,0.6512696,-0.3814417
12.091542,0.7526604,4.066868,0.48766243,0.33135074,-0.25635397
9.614099000000001,1.9623164,2.1502707,-0.012688544,0.29035297,-0.103026785
10.120482,3.3548032999999995,0.5533479,-0.4646241,0.04441863,-0.03488913
10.394437,3.1971786,0.030521285,-0.6147573000000001,0.0055676005,-0.045553092
11.370007000000001,2.2291933999999998,1.0706870000000002,-0.4300317,0.04283038,-0.013613568000000001
11.149078999999999,1.101055,0.914767,-0.24425882,0.09606292,0.0763407
9.401589,0.83719486,0.48771805,-0.13672909,0.056129787,0.20568705
8.420236000000001,0.35772246,-0.22462401,-0.14470525,-0.0013439035,0.21048671
8.543939,-0.15631264,-0.69003767,-0.22828907,-0.007731808299999999,0.13383184
7.9664187,0.6180679,-0.9169984,-0.35178855,-0.03593633,0.08751081
7.9864630000000005,1.6931411,-0.8568752000000001,-0.3086615,0.093392566,0.17907079
6.17071,0.76638395,-0.40446687,-0.14151129,-0.07106981,0.1998402
5.501253,-0.7031196,0.16608098,0.08044223,-0.18978710000000001,0.20942205
7.497663,-1.2385110000000001,-0.32882923,0.11451105,-0.03700098,0.10508627400000001
8.238821000000002,-0.5116409000000001,-1.2190604,0.16934929999999998,-0.03913028,0.12264428
6.782936,0.9284331,-0.8352412,0.15390313,-0.2483429,0.13967870000000002
7.753909599999999,0.53966266,-1.6211427,0.08576548,-0.33032100000000003,-0.035971235
9.319477000000001,-0.19054973,-2.376341,0.06714281400000001,-0.15465362,-0.20577432
9.293899,-0.36999995,-2.3123967999999997,0.10386454,-0.20149826,-0.27871162
8.551935,-0.29489863,-2.4250677000000005,0.13315117,-0.301558,-0.28988174
8.722507,-0.4493629,-2.3794248,0.06766641,-0.38194785,-0.12007865
10.585149000000001,1.7833259,-2.1800740000000003,-0.41619122,-0.17805849,0.2600017
12.122810000000001,3.310635,-2.8398773999999998,-0.54342574,-0.38674749999999997,0.35314992
10.959994,1.8001331999999999,-4.0659866000000005,-0.35444146,-0.29996973,0.25413739999999996
10.914955,0.29161376,-2.3276527000000002,-0.039845865,-0.18446384,0.31641075
11.638703,0.19839312,-1.2301216999999998,0.0458498,0.08168141,0.50591856
11.985259,-0.07109821599999999,-0.13888286,0.06447246,0.47027898,0.7470707
13.265533999999999,1.7948276,3.0902342999999997,0.055431657,0.12374385,0.85194755
11.346399,0.15098792,2.8569433999999996,0.26145032,-0.28825858,0.42502257
11.830747,-1.9413145,3.3468833,0.7171034000000001,-0.4825661,0.110933125
13.447379000000002,-1.136269,2.1194048,0.7357435,-0.11897910000000002,0.1391551
12.877606,-1.1726896,-1.0674596,0.44882888,0.18175858,0.060370937
11.461905499999999,-1.1108713,-0.6255666,0.45521677,0.03111922,-0.09770353
9.201071,0.105814144,0.12004527400000001,0.34180528,-0.16530013,-0.31916836
8.857656,0.21525788,-1.2157948,0.16242033,0.010349803000000001,-0.51719344
7.7379355,1.0366031,-1.4791281,0.03466224,0.11948524,-0.48099529999999996
6.2110763,1.1402912,-0.43275675,0.047438048,-0.027960173999999997,-0.36547193
5.5898769999999995,1.0044538,-0.13474567,-0.012164945,-0.1817935,-0.27071799999999996
6.392279,0.63920397,-0.59155935,-0.16439256,-0.09716248,-0.27497659999999996
7.270788700000001,1.12561,-1.2471875,-0.16173966,0.06679375,-0.22120303
6.587215,0.9009669,-0.5554931,0.011780973,-0.15091862,-0.078016214
5.921109700000001,0.2586121,-0.7969053,0.029338984,-0.49001864,-0.012548917
7.453897,0.604172,-2.2688317000000002,-0.123935826,-0.37077776,0.052918382
9.055685,1.5326626,-3.313508,-0.18462093,0.14929546,0.22219786
10.250248,2.1180737,-2.50603,-0.17345083,0.038030725,0.31588715
9.558917,2.3088627,-3.322836,-0.3384717,-0.31487486,0.2775597
9.310255999999999,2.5853547999999997,-4.462926400000001,-0.3624176,-0.42133993,0.20676915
11.583378,0.47567040000000005,-2.7355957,-0.026529005,-0.33723253,-0.064175755
12.435733,-0.7336313,-3.2129996,0.23429299999999997,-0.40962878,-0.28562313
11.382800999999999,-0.50948614,-5.041739,0.19383627,-0.02316052,-0.38091812
12.014535,1.9731191000000003,-4.5087895,0.3743033,0.6699096999999999,-0.080145516
11.193727,1.7234996999999999,-1.5141506,0.1645671,0.37234855,-0.13603096
12.692075,1.078358,-0.8556110999999998,-0.13938199,0.88442814,-0.2994636
13.841838000000001,-0.08721598,2.5421443,-0.27511624,0.59964275,-0.5741435
12.551592999999999,0.4698094,3.9878303999999996,-0.23678882,0.22862068,-0.61299455
10.454502,1.6918098999999998,1.4219548,-0.50028116,0.096603975,-0.46074948
12.367575,2.1245477000000004,0.6947878000000001,-0.76537925,0.027401669,-0.35908404
11.951308000000001,2.081423,-0.2806579,-0.8090474,0.10512118,-0.23664919
11.209461,1.6986574,0.14841178,-0.739304,0.09021607,-0.11367329
9.664597500000001,1.232219,-0.24717738,-0.6450911,-0.008796459,0.05984734
8.801344,1.287391,-0.37150347,-0.55618405,0.033789575,0.12159709
7.947236500000001,0.48746905,-0.8914761999999998,-0.5295678,0.09871582,0.010332349000000001
7.104659599999999,-0.5206048,-0.79504734,-0.43587852,-0.029007372000000003,-0.04553564
7.1802397,-0.37540126,0.052653282999999995,-0.21975441,0.11096803,-0.024783675
6.334809,-0.3615532,-0.36419640000000003,-0.016406095,0.15728907,0.00715585
5.853603,-0.5755182,-0.16596606,0.15018559,0.01675516,-0.012007865
6.3805190000000005,-0.7567401,-0.33606932,0.22684044,-0.026895522999999998,-0.06949901
7.3579755,-0.44092575,-0.8366872999999999,0.29764846,0.048677232,-0.114214346
7.496245399999999,-0.13099156,-0.9275233,0.31414179999999997,-0.10620329,-0.18394025
7.424381299999999,0.38765958,-1.3395941,0.3136182,-0.35320228,-0.2430371
7.6644335,-0.13860512,-2.518068,0.38334409999999997,-0.322851,-0.28881708
8.329821,-0.6130018,-2.414332,0.41050145,-0.35000834,-0.29201102
8.653363,-0.18937178,-2.9308286,0.17575465,-0.38833576,-0.22546163
9.93745,1.2895553,-3.1982896,-0.23198916,-0.4271867999999999,0.10775663
12.761325,3.8846211000000004,-2.5037222000000003,-0.513598,-0.30848694,0.30365238
13.611342,4.176608600000001,-3.8446953,-0.43907250000000003,-0.30049333,0.20996311
12.037088,0.8686451,-4.155511,-0.00041887903,0.04283038,0.041224677
12.862418,0.24701457,-1.3955323,0.3067067,-0.019966567,0.05400048599999999
10.7691965,-0.12522632,-2.3658542999999996,0.32320008,0.10616837400000001,0.1391551
10.777277999999999,-0.44044694,-1.1613027,0.3886848,0.6544810000000001,0.31909853
12.257833999999999,0.72177523,2.687137,0.6048089,0.31218705,0.6081425
11.853644000000001,2.5218412999999997,3.9080076,0.6468539000000001,0.0641234,0.48570767
10.237013000000001,0.028069621,0.97111696,0.66814697,-0.067875855,0.20198695
11.140555,-0.5654434,0.7003805999999999,0.671882,0.06731735,0.09072221
11.4668665,-0.11107181,0.7895310999999999,0.6298195,0.13173746,0.09871582
10.700109,0.59406847,0.34156640000000005,0.54838246,0.08328711,0.030037116000000003
10.0487995,0.48226884,0.10832327,0.35407495,-0.044453535,-0.2558129
9.698748,0.97071475,-1.4508478999999999,0.0474555,-0.02422517,-0.47671923
8.385452,1.4114873,-2.014807,-0.13617058,0.15941837,-0.43891540000000007
6.5499997,2.1094642000000006,-1.3595905000000001,-0.18568558,0.116291285,-0.29892254
5.858238,2.3442106,-0.7159142,-0.26551694,-0.0013264503,-0.23024383
6.455083999999999,1.6566248,-0.76020694,-0.365088,-0.028483772999999997,-0.21055652
8.127789,0.9323691999999999,-1.1356752,-0.5285031,0.018884463,-0.3846182
10.027232000000001,0.49058149999999995,-2.1547241,-0.54871404,0.33135074,-0.3132866
8.840322,1.1968326999999999,-1.8646808999999998,-0.4928286,0.53736943,-0.21640338
5.5527287,1.8889773,-0.99933976,-0.2783102,0.020472713,0.41809362
4.6313629999999995,1.1330512,-1.4127994,-0.3310017,-0.45540875,0.38936550000000003
8.748757000000001,0.5819251,-1.8745353999999999,-0.22401302,0.082763515,0.13491395
10.674874,1.1756103999999998,-2.6409385,-0.25382322,-0.16262978,0.42182863
7.633318400000001,2.1065621,-3.5880847,-0.24743533,-0.56187385,0.28874728
10.721436500000001,1.3120896,-2.4155578999999996,0.074612826,-0.35213763,0.15673056
12.189992,0.10134177,-2.668175,0.3737797,-0.39046505,-0.013055063
12.423474,0.87435293,-4.678346599999999,0.23005185,-0.0109083075,-0.05618215
11.080969,1.8590209999999998,-5.536074,0.20717058,0.53895766,0.050806534
12.459444,1.1850148,-1.149734,0.2955366,0.6156125,0.04654793
12.018939999999999,1.2419202,-0.20540336,0.028309241000000002,0.830672,0.083269656
12.850265,0.8781836,2.0448973,-0.26340508,0.5027595,-0.14508922
13.186419500000001,-0.026096797999999997,3.009952,-0.29640928,0.17538814,-0.50918233
11.425149000000001,1.7194486,1.6218226,-0.54766685,0.05401794,-0.35161403
11.190441,2.895969,0.7418003000000001,-0.89791954,-0.081716314,-0.18872245
10.52629,3.4845786,-0.33945949999999997,-0.96286327,-0.07691666,0.00076794485
10.937796,2.6016545,0.47010630000000003,-0.8335169,-0.060423300000000006,0.03323107
10.914783,0.9585618,0.12856863,-0.7541916999999999,-0.082780965,0.23392648
8.376498,0.26412833,-0.50762826,-0.61472243,-0.11524409,0.4564385
7.223717999999999,-0.6314468000000001,-0.4101363,-0.46673596,-0.14824827,0.46760859999999993
7.1049466,-1.4808807,0.0713951,-0.39859828,-0.15037757,0.43727478
6.467552700000001,-1.03441,-0.28854918,-0.32833135,-0.20254546,0.4436627
7.121581599999999,-0.5285919,-0.036343983999999996,-0.15374605,-0.07798131,0.35262632
7.5274944,-0.673058,0.16705781,8.726646e-05,-0.035395276,0.23870867
7.1174919999999995,-0.55212206,-0.102941096,0.061295964,-0.057229348,0.13863151
7.515658,-0.021260511,-1.1514959999999999,-0.106883965,-0.071593404,0.019408062
7.950196000000001,0.45664129999999997,-1.7270240000000001,-0.31290263,-0.07426376,-0.06789331
8.53576,1.1051731000000002,-1.4979753,-0.36400586,-0.07106981,-0.14985397
8.889643,0.784034,-1.615885,-0.34058356,-0.0625526,-0.23343779
8.770583,0.46313438,-1.7242848999999998,-0.21495475,-0.10992084,-0.2627244
8.821283,0.39749494,-2.1114466,-0.19045033,-0.108856186,-0.20469221
9.730802,0.61530983,-1.9156581999999998,-0.29267427,-0.20573941,-0.082780965
10.929444,2.488284,-2.4424305,-0.61631066,-0.36330774,0.27438322
10.825153,3.7210011,-4.2290797,-0.88247335,-0.33775613,0.4452684
11.236688000000001,2.7384017000000003,-5.5894455999999995,-1.042171,-0.14240141,0.4559149
11.266261,2.0889504,-3.8432877,-0.9144304,0.17112954,0.48944268
12.327687,1.7306534,-0.9231084,-0.8132885,0.060405847,0.5075417
11.360755000000001,-0.110545084,0.008092402,-0.56628954,0.16420057,0.58100265
12.274153,-1.0382216999999998,3.4321553999999996,-0.34431854,0.1264142,0.6310412
12.276087,-2.7212877,3.5982839999999996,-0.24635322,-0.03593633,0.2850297
11.755377000000001,-3.0887787,1.4145039,-0.16437511,-0.072658055,0.05400048599999999
11.486537,-2.1806867000000003,1.6648034,0.0426733,-0.02794272,0.127985
11.563687,-1.6474502,1.7176291000000001,0.112416655,0.07689921,0.08168141
12.100745,-1.3886370000000001,0.24013843,0.10070549999999999,0.13013175,-0.051382493
10.274372,-0.7649666,0.25769272,0.01288053,0.09180432,-0.18233454
8.678819,-0.03342306,-0.46029007,-0.10423106,0.05401794,-0.326586
7.941489999999999,0.7088273,-0.4990090999999999,-0.09358455,0.07850491,-0.3324503
6.5171795,0.6330365,-0.11186668,-0.030770155,0.019949114,-0.25686010000000004
5.886461,0.66118276,-0.051686025999999996,-0.08346164,-0.018360863999999998,-0.16849409
6.420636,1.0667413000000001,-0.39543593,-0.13243559,-0.05668829400000001,-0.07745771
7.285287400000001,0.41754878,-0.16705781,-0.14041173,-0.08862782,-0.08119272
7.5182720000000005,0.322317,-0.25324908,-0.14041173,-0.2701595,-0.10461503
7.131427,0.15276922,-0.8774844999999999,-0.073879786,-0.28293532,-0.08758062
7.554367,0.4236109,-1.8636561999999999,-0.09410815,-0.30475193,0.017802358
7.728263,1.3598491000000001,-3.3428894999999996,-0.26232300000000003,-0.22118558,0.19933406
9.27711,1.6593733,-3.6393400000000002,-0.36081192,-0.056164697,0.18336429
10.794211,2.3403417999999996,-3.3922102,-0.3831696,-0.06574655,0.18868755
9.798223,2.3869808,-3.8836633999999997,-0.22238985,-0.24087289,0.17378244
10.84399,0.21283495,-2.9445713,0.05333726,-0.25258404,-0.08969247
12.974983,-1.2511524,-3.3051283,0.4355469,-0.0039968040000000005,-0.3574609
12.30092,-0.32536240000000005,-2.8703990000000004,0.64739496,0.135455,-0.32499775
11.145564,0.21687637,-3.0286844,0.6931924,0.32018065,-0.25844836
12.045123,0.4193588,-1.438015,0.46694538,0.30101693,-0.33883822
12.377084,0.72263706,0.04330632,0.25562093,0.28982937,-0.5107706
13.012466,-0.0640018,2.2118115,-0.053651422000000004,0.23553218,-0.80621994
12.645723,0.21269129,2.6202717,-0.18460347,0.112573735,-0.86742866
10.517642,1.8435066000000002,1.5045451,-0.51516885,0.01569051,-0.52834606
11.25201,2.9769982999999995,1.0478463,-0.86493284,0.05667084,-0.24249604
11.804583000000001,2.5938877999999996,0.00037349545,-0.93996453,0.11309733,-0.12376129599999999
11.1735,2.2091107000000005,0.5586726,-0.88086766,0.09979793,0.05667084
9.478204,1.4058369,0.30339324,-0.7845255,0.06679375,0.36061993
8.138313,0.87531054,-0.1119433,-0.6903126,0.08009316,0.5016949
6.9543705000000005,-0.25066334,-0.6133083,-0.5854533000000001,0.03111922,0.42875758
6.4347330000000005,-1.0313071,-0.40138313,-0.43160248,-0.062011547,0.33560935
6.983158599999999,-0.77651626,-0.050335698,-0.18620917,-0.015707963999999998,0.265866
7.277750500000001,-0.5446809,0.14237839,0.06504842,-0.033807027999999996,0.21636847
7.2946057,-0.40619066,-0.19498378,0.17151349999999999,-0.12376129599999999,0.16207127
7.457622,-0.23236206,-0.6641228,0.17149605,-0.1945693,0.11255628599999999
7.563187599999999,0.11915463,-0.94535536,0.10389945,-0.2488665,0.052412238
7.7345834,0.30646740000000006,-1.5013655000000001,-0.022235493999999998,-0.29038787,-0.052447144
7.7948885,0.25321078,-2.3035955,-0.08133234,-0.36117843,-0.14133677
8.008422999999999,-0.13060848,-2.5125902,-0.05312782,-0.42825145,-0.1727527
8.70684,-0.6751936,-2.5993176,-0.08559094,-0.28558823,-0.17327629
9.521559,-0.8095562,-2.7175338,-0.1542522,-0.34520867,-0.23661429
9.740982,-0.11775642,-2.8172857999999996,-0.17554522,-0.5677207,-0.19989257
10.826953,1.0101424,-2.7498748,-0.5870415,-0.34733796,0.15940093
13.496038,2.129221,-3.5658379,-0.93837625,-0.10513864,0.20252799999999999
11.991436,2.659393,-5.5615582,-0.9532814000000001,0.027401669,0.25576055
10.9615755,2.3115156000000003,-3.2158246,-0.73768085,-0.011972958,0.4351455
10.2502,0.20412005,-2.199668,-0.62323964,0.23446754,0.5112767
10.62246,-1.7617781000000003,-0.49921978,-0.44970155,0.48946014,0.55225706
11.401150999999999,-0.6330748,3.4627434999999998,-0.30384436,0.21265091,0.7934091999999999
10.2194195,0.32514217,3.3663241999999998,-0.22186625,0.008761553,0.71888363
10.725430000000001,-0.48512269999999996,2.2049928,-0.096761055,-0.13281955,0.5884552
11.573964,-1.4245309,1.6586647,-0.025429446,-0.19244,0.6156125
12.545291,-1.9302533,0.3494098,-0.107948616,-0.18285814,0.42769292
13.664895999999999,-2.2196357000000004,-0.5471996,-0.11379547,-0.07585201,0.081698865
12.360699,-1.6599001,-0.7450564000000001,-0.19950859,-0.0029321532,-0.20575686
9.634803999999999,0.5665256,-1.376599,-0.38154644,-0.05510004599999999,-0.33403856
8.189252,1.402849,-1.6663452,-0.4853585999999999,0.043895032,-0.28134707
7.0788884,1.5268016000000002,-1.2849488000000002,-0.53967327,0.0050440015999999996,-0.20310396
6.560199000000001,1.2364807,-1.0543107,-0.703612,-0.06627015,-0.11365584
6.596236,0.9799276,-1.6854893,-0.9404880999999999,-0.009843656999999999,-0.07639306
7.283276600000001,0.8483997,-1.8591743000000003,-1.0325891999999999,0.14983651,-0.04392994
7.1641699999999995,0.4804205,-0.9400497999999999,-0.9612575000000001,0.08009316,-0.0045204028
6.530664,0.12498691,-0.31408095,-0.8281761999999999,-0.08065166,0.05401794
6.686862,-0.178052,-0.44129926,-0.7046766999999999,-0.14505431,0.116291285
7.4682527,0.09027098,-1.4240233,-0.6546380999999999,-0.23235568,0.16420057
8.253885,0.25634238,-2.5896547,-0.61896354,-0.08223991,0.21849777
9.470169,0.3675483,-2.1294699,-0.48961720000000003,-0.1865757,0.27331856
9.5095005,0.7591821999999999,-2.8402224,-0.287351,-0.39791763,0.24617869
10.371405000000001,0.28779262,-3.2085464,0.02300344,-0.37662458,0.02846632
12.722385000000001,-0.87762815,-2.799674,0.39189622,-0.38194785,-0.21108012
13.258083,-1.2123951000000002,-4.092524,0.4898441,0.03218387,-0.09077457
10.73447,0.81376046,-4.9534025,0.46375144,0.4053527,0.056129787
12.358266,-0.17122373,-1.1783973,0.36847392,0.30579913,-0.096621424
12.372966,-0.8370415999999999,-0.9837296,0.08634144,0.43516293,-0.43092179999999997
14.244743,-0.8608975,1.8306258000000002,-0.017976891000000002,0.2541723,-0.71837753
12.661103,-0.00079487497,2.4956294999999997,0.09327039,0.12428489,-0.84826493
10.867224,1.9265566000000003,2.0742693,-0.19097392,0.048153635,-0.62042964
10.30541,2.5256817000000003,0.51434153,-0.48857,0.16261232,-0.37130135
11.843714,3.0319979999999997,0.20657171,-0.6344272,0.24246114,-0.15465362
12.649277,2.6874626,0.11848425,-0.5529727,0.30101693,-0.02316052
10.956547,1.5187092,0.41700290000000007,-0.39912188,0.17325884,0.16046557
8.2728195,1.3344227,-0.06275681400000001,-0.30382693,0.10990338,0.4101349
7.87383,1.0570591999999999,-0.7221199,-0.32351422,0.1285435,0.45059165
7.537033,0.17165467,-1.0426844000000002,-0.40816268,0.009826204,0.37500143
7.0158057000000005,0.212902,-1.0332511999999998,-0.42519712,-0.11630874,0.25256660000000003
7.011496000000001,0.30327833,-0.58101535,-0.35918877,-0.18976966,0.10458013
6.744878,-0.095902145,-0.21492270000000002,-0.23303635,-0.255778,0.01569051
6.035208,-0.6039901,-0.17428829999999998,-0.01850049,-0.39098865,-0.017837266
6.0984435,-1.100873,-0.1312214,0.074630275,-0.52726394,-0.072658055
7.280728999999999,-0.8820718000000001,-0.85647297,0.027785642000000003,-0.56187385,-0.1344078
7.890111,-0.29743648,-1.6882282,-0.07707374,-0.49054223,-0.23237313
7.925794000000001,0.22381955,-2.054158,-0.18725638,-0.50118876,-0.29145253
7.392931,0.42903137,-2.8142116,-0.21067870000000002,-0.40802306,-0.25418976
7.8197600000000005,0.056254162999999996,-2.9213378,-0.1452114,-0.33190927,-0.27974138
9.145142,-0.21415655,-3.1505682,-0.030752702000000003,-0.29197612,-0.2621659
10.255315,0.09556696,-3.3630776,-0.25059438,-0.21266837,0.10777408
12.268397,1.349918,-3.877333,-0.6988298000000001,-0.20415117,0.46017352
13.579376000000002,2.3862240000000003,-5.3653297,-0.66156703,-0.16262978,0.39681807
12.266979,0.5254698,-4.2043715,-0.27775168,-0.092886426,0.22914428
11.9860735,-0.11738292,-3.2655761,-0.11964232,-0.024748769,0.19242255
10.968671,-0.90886766,-2.529522,0.10922269999999999,0.09128072,0.2009223
11.227225,-0.15882176,-0.15962622,0.3738146,0.24139649,0.37074283
11.209000999999999,1.1938831,2.8599887,0.39617229,0.22116812,0.5549274000000001
11.666697000000001,2.3551952999999997,2.470098,0.26839674,0.05667084,0.41174063
11.55412,0.37756562,1.2440655,0.38922587,0.0108908545,0.17378244
11.638444,-1.2000889,1.7467903999999999,0.5308419,0.049759335999999994,0.20732766
11.845055,-1.0346495,0.6985515,0.50155526,0.01675516,0.13917255
12.8736515,-1.1481059999999998,-0.49202758,0.47813293,0.072117,-0.033265974
11.542322,-0.06540002,-1.207281,0.41692424,0.12374385,-0.2573837
8.93993,0.9467631,-1.3774035,0.24870941,0.1434486,-0.38088320000000003
7.2418949999999995,1.5877196000000002,-1.440639,0.15130259,0.17432348,-0.32976252
6.2466445,1.9100558,-1.263832,0.10498156,0.20413370000000003,-0.20361010000000002
5.968477,1.482528,-1.2046857,-0.00413643,0.1413193,-0.14772467
6.530061,1.1524155,-1.6232497,-0.15423475,0.07956956,-0.091821775
7.268422999999999,0.8320424999999999,-1.9999533,-0.19203858,0.061470497,-0.033265974
7.0517955,0.8575073000000001,-1.7230974,-0.16596335,-0.062011547,0.0641234
6.5906625,0.81706446,-1.8357205,-0.12498303,-0.19296359999999999,0.1338493
7.0273175000000005,0.5289749,-2.4480807999999996,-0.041381758,-0.29996973,0.14079571
7.2320023,0.7422696,-3.1998026000000004,0.00010471976000000001,-0.24673720000000002,0.20518091
7.34295,1.4135749,-3.0464108,0.015550883500000001,-0.04977679,0.30101693
7.919425500000001,1.9953182,-2.4817145,-0.08929104,-0.16582373,0.39522982
7.896833999999999,1.9599128000000001,-3.4054550000000003,-0.20001473,-0.28132963,0.3883183
9.803805,1.1755242,-2.8391592999999995,-0.024888393999999998,-0.25418976,0.14877187
13.096167999999999,0.12134772,-1.9905488000000002,0.38126716,-0.30475193,-0.16156512
13.815425,-0.41340202,-3.5183082000000003,0.48239154,-0.20467477,-0.21586232
12.246179,0.3280152,-5.4068737,0.5505291999999999,0.038571775,-0.23554963
12.72252,0.8970594999999999,-3.7118455999999997,0.57396895,0.11789699,-0.19029325
12.161252000000001,1.6665846000000002,-3.1247683,0.64688885,0.26853636,-0.3744953
14.162929,0.44746673,0.9018096,0.5303183000000001,0.29197612,-0.54588664
13.6836195,-0.38414487,0.36962643,0.19280653,0.30260518,-0.6284058000000001
11.394886999999999,1.7275793999999998,1.291193,-0.24155357,0.22010347,-0.4271867999999999
9.406924,2.4749534,0.4628375,-0.47310638,0.14664257,-0.25844836
10.445797,2.5941942000000004,0.6009733,-0.5140867,0.12428489,-0.17273523
12.469137,1.5978998,0.32034418,-0.41135666,0.23926719,-0.08489282
11.533799,0.97853893,0.5135371,-0.2213252,0.24085544,0.034854226
9.035698,0.8264401,0.13157575,-0.0898321,0.17751744,0.25097835
7.936414699999999,1.0404434999999999,-0.75371385,-0.03021165,0.20998056,0.35424948
7.8836083,0.586024,-1.1700462999999999,-0.07332128,0.21530381,0.34892622
7.7101817,0.34588552,-1.2211386999999998,-0.15957545,0.17165314,0.23979078
7.1829114,0.22609884,-1.0279745,-0.11592477,0.10299188,0.16845918
6.804005,-0.5433688,-0.48687527,0.011292281000000001,0.0678584,0.08915142
6.7398887,-1.0503171999999998,-0.5795117,0.16461946,-0.012496557,0.033265974
6.705211,-1.0542437,-1.081911,0.28064895,-0.10033898,0.0050440015999999996
7.343486,-0.6534638,-1.517876,0.2897072,-0.18072884,-0.030072022
7.735091000000001,0.2367674,-1.8762497,0.19708258,-0.23181464,-0.082763515
7.708889,0.9580446,-2.2401588,0.06557202,-0.29729939,-0.14613642
7.508139999999999,0.88421696,-2.6110398999999997,0.025673794,-0.34468508,-0.23129103
7.695539,0.08957188,-2.756789,0.078906335,-0.26696557,-0.2749417
8.371997,-0.73108387,-2.122,0.11349876,-0.33775613,-0.33189179999999996
8.581316000000001,-0.4591696,-2.815313,0.09007644,-0.45008552,-0.26961845
9.901748,0.47796884,-3.2742527000000003,-0.27242845,-0.38034216,0.11470304
12.883621,1.5781045,-4.0128546,-0.66154957,-0.26270697,0.28930578
12.723286,2.1312130000000002,-5.698851,-0.54550266,-0.10620329,0.27440065
11.300583999999999,1.8158104,-3.7170365,-0.29476866,-0.08862782,0.23979078
11.570688,1.4074363,-3.7387855000000005,-0.26017624,0.0023736479,0.27759463
11.353927,-0.43127233,-1.9680817,-0.081297435,0.14718361,0.35159656
12.223942,-0.26658958,0.82032055,-0.014782938999999998,0.27546529999999997,0.54215163
13.8194275,1.5940403,2.5229619,0.026738444,0.10086258,0.499042
11.734902,0.25577736,1.5544212,0.24338616,0.071575955,0.20945697
10.4894285,-1.7132908,2.0065613,0.49036769999999996,0.08967502,0.16100663
9.924838000000001,-1.1202375,1.4319912000000001,0.48879692,0.11470304,0.29623473
11.331901,-0.40670782,0.18083884,0.33227578,0.15409511,0.19720475
12.442092,-0.5910039,-0.83377594,0.19442968,0.20732766,0.0034557518
9.77996,-0.018665198,-0.8070088000000001,0.030455995,0.15570082,-0.23235568
8.668217,0.9305975000000001,-1.3061711999999999,-0.17128661,0.16261232,-0.35798448
8.02317,1.3260527,-1.5356027,-0.27455774,0.19881046,-0.29197612
6.7929059999999994,1.4308132,-1.1686386,-0.2920983,0.13760176,-0.1865757
6.508819,1.1292875,-1.1211089,-0.37887606,0.03911283,-0.17486453
7.0813975000000005,1.3038151000000002,-1.8974335999999998,-0.5103692,0.019949114,-0.1338842
7.848901700000001,1.0216825,-2.2785043999999997,-0.50450486,0.18123499,-0.048712137999999995
7.9419116999999995,0.5234491,-1.9416113000000002,-0.43052036,0.14238396,0.057752945
7.006497,0.30693665,-1.8532557,-0.33203143,-0.0077143554,0.10512118
7.156824,0.12512098,-2.0653532,-0.25965264,-0.0630762,0.097668625
7.7673554000000005,0.24636336,-2.3756802,-0.20587903,-0.03965388,0.11948524
8.060108999999999,0.9868611999999999,-2.3915682,-0.17872171,0.08011061,0.17751744
8.246091,1.3682097,-2.3997848,-0.21600194,-0.1344078,0.26001915
7.616214299999999,1.2675573999999998,-3.7423575,-0.19629718,-0.29729939,0.28132963
9.596314,0.95769024,-2.9552972,0.04855506,-0.29197612,0.07105235
13.062429,0.5689294,-1.9584857,0.5313829000000001,-0.28878218,-0.21265091
13.69924,-0.065285094,-2.5903058,0.6650053000000001,-0.18603465,-0.17964675
11.122867999999999,0.25726175,-5.32458,0.5548053000000001,0.20680407,-0.12269664599999999
12.055016499999999,0.14006081,-3.520147,0.5830098000000001,0.22542672,-0.16847663
11.752341,0.6008296999999999,-2.3414813999999997,0.53777087,0.34732053,-0.30049333
13.199982,0.7010797,0.60734195,0.42650609999999994,0.3776718,-0.46071455
13.944818,0.03338475,1.7156371,0.27373743,0.23553218,-0.6566103
12.203983000000001,0.88369983,1.5569972,-0.025935592,0.08223991,-0.47136107
10.087624,1.8686074000000001,0.22159773,-0.3410897,0.024748769,-0.30953413
10.363465,2.6387452999999996,-0.13680468,-0.50237554,0.047088984,-0.17432348
11.261731,2.1519852000000004,0.13235147,-0.3964341,0.11524409,-0.058817595
10.596517,1.2802083,0.6091807,-0.25113544,0.0678584,0.05667084
8.594428,0.81043726,-0.03690901,-0.11112511,-0.022095867999999998,0.25949556
7.969837700000001,0.8416193999999999,-0.6075143,-0.040858157,0.10033898,0.35744342
7.779355000000001,0.23025517,-0.849367,-0.058957222999999996,0.060405847,0.33456215
7.2876916,0.00022026655,-0.62281805,-0.05469862,0.007696901999999999,0.2749417
7.196903,0.14883316,-0.5571403,-0.010506882,-0.043388885,0.20519836
7.345516,-0.022649147999999997,-0.7075824000000001,0.05921902,-0.01303761,0.11950269
7.188801299999999,-0.41571003,-0.7626969,0.13585643,-0.03593633,0.083828166
7.3538194,-0.6292345,-0.86605936,0.14810865,-0.068940505,0.06518805
7.980046700000001,-0.29171909999999995,-1.5323848999999998,0.13905038,-0.09608038,0.014625859
8.308579,0.08492713,-1.8414571,0.13000958,-0.15463617,-0.042847835
8.271372999999999,0.57161087,-2.0944095000000003,0.08901179,-0.17592919,-0.106726885
8.443688,0.44216117,-2.4788415,0.061871924,-0.112573735,-0.1913579
8.557221,-0.07055233400000001,-2.3941537999999998,0.09700539999999999,-0.16847663,-0.23394394
8.107897,-0.34588552,-2.3919224999999997,0.19919443,-0.34149113,-0.28080603
8.451799000000001,-0.76721716,-2.860439,0.18641862,-0.39737657,-0.22703242
10.377609,0.040500317,-3.183206,-0.27721065,-0.22118558,0.12161454
12.395874000000001,1.6718806,-4.100607,-0.5982116,-0.10194468,0.26214844
11.449082,2.9475112,-4.709480999999999,-0.50131094,-0.0013264503,0.33934435
10.73221,2.775713,-3.3175302,-0.3666413,0.10883873,0.38086575
10.885372,0.9559569,-2.9640217,-0.3480012,0.20945697,0.3776718
11.285798,-0.995806,-0.6932746,-0.25698227,0.25256660000000003,0.45006806
12.594324,-0.17345512,1.6807296000000003,-0.12496557,0.05454154,0.50223595
12.337321000000001,-0.34954387,2.3699052000000003,0.23328070000000004,0.023143066,0.29249972
12.040028999999999,-1.4383119,2.4667652,0.57236326,0.031660274,0.08063421400000001
11.414433500000001,-0.9120089,2.03058,0.6415481,-0.029548422999999997,0.20198695
11.205630000000001,-0.09023267,0.48016194,0.52447146,-0.08756317,0.29517007
12.670039,-0.7448266,-0.7477954000000001,0.3988252,0.08915142,0.05349434
11.818163,-1.1552981000000002,-0.9993877,0.3514395,0.10405653,-0.16315338
8.706754,0.22509326,-0.7113651999999999,0.20717058,0.010367256,-0.33670890000000003
7.8955503,0.94484776,-1.3273358,0.10604621,0.052412238,-0.37821284
7.360705,0.6277118,-1.16906,0.14330898,0.113638386,-0.31752774
7.004802000000001,0.6581756,-0.86973685,0.12788028,0.15409511,-0.20732766
6.7468699999999995,1.082093,-1.0769981000000002,-0.05363397,0.0678584,-0.14878932
7.2155685,1.6010027,-1.8119797999999998,-0.27668706,0.086481065,-0.08011061
7.537847,1.333331,-1.9768732,-0.3453483,0.11948524,0.010367256
6.7168465,1.0221901,-1.6019411,-0.3320489,0.0018500489999999999,0.07902851
6.9270190000000005,0.35356614,-1.7483706,-0.2931804,-0.08117526,0.06892305
7.8085933,0.2756971,-2.4937717999999998,-0.29639181,-0.05297074,0.15248941
8.155379,0.9560909,-3.0154683999999996,-0.35280085,-0.002391101,0.27066565
8.177769999999999,1.233646,-3.2273264,-0.34854224,-0.006126106,0.28398252
8.694265,1.1647121,-2.7982953,-0.26656413,-0.259513,0.28770009999999996
8.715363499999999,0.72275203,-3.4911769999999995,-0.016894788,-0.31965706,0.1264142
11.98068,0.017822437,-2.3518531000000005,0.34611624,-0.3164631,-0.1881814
14.408076000000001,-0.9927604999999999,-2.978885,0.5483998999999999,-0.17273523,-0.28558823
11.887374000000001,-0.029170955,-4.7657638,0.5015727,0.1998751,-0.15357152
12.154922000000001,0.15982734,-2.9291909,0.58939767,0.42078143,-0.15889478
13.314001999999999,-0.2738009,-0.9262305000000001,0.6351777,0.3925769,-0.35479054
14.006482,-0.5199919,1.6457168000000002,0.47493900000000006,0.18603465,-0.60765386
12.426232,0.72562504,1.6170917,0.14704399,0.024731316,-0.5709145999999999
9.8316555,3.0892193,-0.45596135,-0.42092106,0.058817595,-0.35585517
9.543824,3.4691503,-0.45975375,-0.780808,0.0678584,-0.14346607
10.76528,2.7467816000000003,0.26616818,-0.83349943,0.026860617000000003,-0.08703957
12.770211999999999,0.63361114,0.38358942,-0.5684014000000001,0.10405653,-0.056164697
10.725938000000001,0.042003877,0.8069225999999999,-0.25165904,0.003979351,0.08915142
7.884451400000001,0.48808196,0.20481917,-0.08929104,-0.05349434,0.2749417
7.7167325,0.47849557,-0.84166723,-0.060562924000000004,0.0061086523,0.3063402
7.532714,0.45233172,-1.2768469,-0.13400638,0.016214108,0.29728192
7.5190477,0.65619326,-1.2754296,-0.21865484,-0.016772615,0.22542672
7.4301558000000005,0.4052809,-1.0135901,-0.18512708,-0.05084144,0.13651966
7.5472035,-0.30638119999999996,-0.6792733,-0.05469862,-0.04977679,0.064664446
7.2655687,-1.0255132,-0.7606571,0.13639748,-0.0694641,0.047630034
7.124273,-1.4997662,-0.8596046,0.23966861,-0.12004375,-0.024748769
7.640567999999999,-1.1155735,-1.3567079,0.25403267,-0.14346607,-0.08703957
8.029119,-0.21519084,-1.7056197,0.20292944,-0.16741198,-0.14453071
8.06142,0.579167,-2.0332615,0.20399408,-0.15357152,-0.20254546
8.183745,0.43512222,-2.0627386999999997,0.25296799999999997,-0.10300933599999999,-0.25258404
8.626462,-0.37860948,-1.9767103,0.31524137,-0.24141394,-0.2483429
8.368272,-0.4489607,-3.0184752999999995,0.3386637,-0.27387705,-0.19828686
9.615392,0.2863657,-3.1570612999999996,0.13053317,-0.17379989,0.0662527
12.11243,1.6625720000000002,-3.8412572999999997,-0.30969122,0.026337017999999997,0.38351864
13.227504999999999,2.8990622000000004,-5.079203,-0.5795715,0.10458013,0.37500143
11.363456,2.2613714,-4.239825,-0.5226039000000001,0.20306906,0.34786156
10.605212,1.1622701000000002,-2.6859496,-0.40922734,0.4346219,0.361161
10.7287245,-0.719314,-0.82931316,-0.12283627,0.43994513,0.41971678
11.521598,-0.69841737,2.51825,0.13000958,0.22116812,0.58369046
12.438299,-0.7730876999999999,3.1932616,0.48026225,0.08489282,0.42184609999999995
11.974964,-2.6350583999999997,2.8233097000000003,0.9125105,0.10618583,0.20785126
11.646633,-1.8601223000000002,2.5343008,1.0232516999999999,-0.030072022,0.23607324
11.2776575,-0.2050873,0.98266655,0.9268745999999999,-0.058817595,0.30632272
12.384611,-0.021317972,0.12202767,0.7432310000000001,0.061470497,0.09819222
12.015388,-0.88691765,-0.6508398,0.5500056,0.07637561,-0.14133677
9.664712,-0.22201912,-1.0457681,0.2848901,0.04017748,-0.36864844
8.555996,0.6309583000000001,-1.8931334999999998,0.06133087,0.0657291,-0.44528586
7.4089054999999995,1.2530103000000001,-1.643562,-0.013718287,0.14877187,-0.3356268
6.393668,1.8118266,-0.9588681999999998,-0.06375687599999999,0.10564478,-0.23661429
6.895828,1.5445187,-0.868195,-0.25699973,0.09925687,-0.2483429
7.440183,1.3504542,-1.7836229,-0.46513024,0.09393362,-0.21745057
7.716972,1.4805073999999998,-1.8425585,-0.5566901999999999,0.14664257,-0.14240141
7.079894,1.1104020000000001,-1.6762762999999998,-0.48429397,0.04337143,-0.03965388
6.7806087,0.34327105,-1.3591787,-0.38315213,-0.048171088,0.011955505
7.628328999999999,-0.061971515,-1.9248424,-0.31447342,-0.05030039,0.06892305
8.559358,0.5702606,-2.2899005,-0.279881,0.07796386,0.15887733
9.056144999999999,1.439691,-1.8227345000000001,-0.30808553,0.04124213,0.27333602
8.286486,1.9788748,-2.4718888,-0.43638468,-0.24193753,0.4143935
7.982613000000001,1.8278964,-3.4671586000000003,-0.4071155,-0.46125559999999993,0.3260275
11.269967,0.3558071,-2.3873255,0.10924016,-0.48467794,-0.08065166
14.136918,-1.2280531000000001,-1.6559831999999999,0.5441413,-0.37768924,-0.39259437
12.914686999999999,-1.9837877,-4.0967665,0.75228924,-0.13653710000000002,-0.48361328
11.962503,-0.6871359,-4.0273347,0.7916639,0.16474162,-0.32445672
11.199050999999999,0.5567477,-2.9526446,0.56065214,0.580479,-0.255778
12.268445,1.5705293,-0.21641669,0.2822372,0.6023130999999999,-0.41175807
13.880106,0.6655977,3.5293693999999998,0.13425073,0.22169173,-0.7263710999999999
12.993276,0.72254133,2.7089531000000004,-0.18352138,0.07531096,-0.61350065
9.978726,2.1933857999999997,0.56419843,-0.59608227,-0.022619467,-0.35374334
9.131677,2.5200120999999998,0.028289886,-0.76642644,-0.13281955,-0.21640338
10.050092999999999,1.9481906999999998,0.7570274,-0.72223467,-0.05935865,-0.14824827
11.470218,0.46417826,0.7853365,-0.5950177,0.07902851,-0.0625526
10.093801,-0.010151415,0.677358,-0.4539427,0.03324852,0.14664257
7.989777,0.48778507,0.10705912,-0.28998646,-0.07585201,0.42132250000000004
7.515925999999999,0.3958094,-0.22597434,-0.17500417,-0.058817595,0.50010663
7.9353995,-0.54008406,-0.8969254000000001,-0.14947,-0.05297074,0.40268236
8.062531,-1.0213280999999998,-0.60353035,-0.043528512000000005,-0.10033898,0.32018065
7.5597496,-1.067067,-0.61422765,0.08155923,-0.06414085,0.27068309999999995
7.283209299999999,-0.5404959,-0.47931919,0.19387117,-0.16315338,0.22382103
7.002379400000001,-0.36239594,-0.40789536,0.25190338,-0.2659009,0.19455186
7.549751,-0.5464239000000001,-1.090128,0.17151349999999999,-0.29145253,0.12002629
8.115597,0.09562441,-1.8700823,0.041102502,-0.29197612,0.082763515
8.039566,0.6812845000000001,-1.93078,-0.04139921,-0.3728896,0.010367256
8.346119999999999,0.22038148,-1.9315557,-0.048851766,-0.26855382,-0.12430235
9.180873,-0.39198828,-1.8662226999999998,0.016074482,-0.11472049,-0.22225022
9.016621,-1.0518973,-2.115038,0.029373892000000002,-0.18764035,-0.25312510000000005
9.064303,-1.2853415000000001,-2.7536862,0.05014331,-0.33882076,-0.31752774
10.4181385,-0.32900159999999995,-3.1100488,-0.22291344,-0.26057765,-0.057752945
12.0959,1.7686063000000003,-3.8425019999999996,-0.6673964,-0.041783184,0.22809708
11.978795,2.755659,-5.233007,-0.7387454999999999,-0.057752945,0.25576055
10.548345,1.7102357,-4.6540027,-0.46300095,0.08808677,0.27014205
10.813747,0.3516699,-3.1086984,-0.31342623,0.09499827,0.19666370000000002
9.747944,-1.7373285,-3.0360777000000003,-0.13774139,0.26588345,0.18071139
10.328078,-1.497372,-0.1468316,-0.036599554,0.6667158000000001,0.38725364
12.683504,1.4643608,3.5187104,0.12892747,0.40215877,0.80405575
11.373857000000001,2.437757,2.868589,0.14011504,0.26588345,0.7407176999999999
10.751058,-0.71053207,2.001639,0.2864958,0.12002629,0.45219734
11.072894999999999,-1.9215575,2.108698,0.2966187,-0.14453071,0.42184609999999995
12.117246000000002,-2.1821806,0.6628778000000001,0.116692714,-0.18711674,0.1306728
13.801366,-2.4587686,-1.3241659,-0.07813839,0.13013175,-0.07106981
10.448047,-0.48127285,-1.0427994,-0.26178193,-0.028483772999999997,-0.2962522
8.717058,1.1324191000000001,-1.2416042,-0.49494046,0.0055676005,-0.44050366
7.821589,1.6633573,-1.8269196,-0.5944765999999999,0.09553932400000001,-0.38566542
6.7305036,1.8295148999999997,-1.0148734000000001,-0.58383006,0.06518805,-0.22970279
6.605324700000001,1.2278903,-0.76772475,-0.65835565,0.024731316,-0.16528268
7.355629400000001,0.7940993000000001,-1.298548,-0.75258595,0.038571775,-0.14985397
7.9567747,0.33605015,-1.4493635,-0.7605795999999999,-0.02687807,-0.13229595
7.755173700000001,0.5842427,-1.395111,-0.6131167,-0.10992084,-0.05349434
6.8665705,0.23299412,-1.3176059,-0.40496874,-0.24993114,0.0055676005
7.4531789999999996,-0.21119733,-1.8839973,-0.17660987,-0.20680407,0.0662527
8.145581,-0.0712706,-2.0290284,-0.07492699,-0.071593404,0.16100663
8.657567,0.81813705,-2.3710353,-0.097825706,0.1418429,0.26001915
8.8444395,1.4362049,-2.0447439999999997,-0.14412929,-0.07798131,0.32389819999999997
7.660995,1.5835441000000001,-2.801513,-0.13561209,-0.39311796,0.3084695
9.562978,0.92029285,-2.106093,0.24925047,-0.5501627,-0.05190609
13.478004,-0.51364243,-1.8577759999999999,0.71022683,-0.41015238,-0.39737657
13.983325,-1.0595013,-3.4352101999999998,0.7970046,-0.08011061,-0.43624505
11.653107,0.92529196,-4.921655,0.8007221,0.135455,-0.28080603
11.1615095,0.99963665,-2.8850992000000004,0.94338536,0.26801276,-0.35533157
12.741405499999999,0.23460305,-1.0560056999999998,0.93327993,0.36702529999999994,-0.57464963
13.498432000000001,-0.20200358,0.25793213,0.45842817,0.16313593,-0.7247654
12.137098,1.3542659,-0.10811257,-0.14254104,0.07744026,-0.68589693
10.032472,3.1087368,0.7807779,-0.48377037,-0.047106437,-0.52780503
8.501714999999999,2.649414,0.80993927,-0.50984555,-0.15037757,-0.36384878
9.950178,1.1774014,0.7327215,-0.49972266,-0.11524409,-0.27813566
12.57271,-0.42572737,-0.080119565,-0.39166933,0.13332570000000002,-0.16528268
11.460056,-0.4296347,-0.005851429,-0.19257963,0.10564478,-0.05084144
8.830169999999999,0.0526054,0.2423411,0.057072267,0.024207717000000004,0.22116812
7.642646000000001,0.4722036,-0.22886653,0.26254988,0.008237954,0.45432666
8.059064999999999,0.42197326,-1.0067523,0.2928837,0.04124213,0.49743629
8.101366,0.057930104,-1.2873622999999998,0.18961257,0.0055676005,0.45219734
8.104067,0.08140285,-1.2124907,0.15447909,0.0050440015999999996,0.37500143
7.69303,-0.038335957000000004,-1.137083,0.16725489999999998,-0.031136672999999997,0.3084695
7.2643523000000005,-0.55481315,-0.9617316999999999,0.256162,-0.099815376,0.27707103
7.420435400000001,-0.79714465,-1.0312114,0.26893779999999995,-0.15198328,0.20359266
7.9274892999999995,-0.6190640000000001,-1.6402961999999999,0.17151349999999999,-0.19722220000000001,0.10618583
7.9677978000000005,0.035462916000000004,-2.0750258,0.053878315,-0.27920032,0.04602433400000001
7.611531299999999,0.30069256,-2.409218,-0.020629792,-0.33723253,-0.048712137999999995
7.505219,0.24112485,-2.2588334,0.047472954000000005,-0.33297393,-0.15411258
7.932967,0.05887821,-2.307589,0.13370967,-0.14346607,-0.20469221
8.619643,-0.5846256999999999,-2.317568,0.20025907,-0.14079571,-0.21586232
9.298236,-1.4695705,-2.582271,0.23965116,-0.17327629,-0.2403493
11.399636,-0.3493236,-2.8902802000000003,-0.085573494,-0.11630874,0.047088984
12.798521000000001,1.7512148999999997,-4.531802,-0.43425536,-0.05935865,0.22914428
11.551917999999999,2.418364,-5.9514394,-0.3464304,0.07531096,0.20252799999999999
11.008932000000001,1.2488636,-4.456653,-0.23624776,0.16207127,0.20146336
11.440463000000001,0.7485998,-4.0262427,-0.19257963,0.12747885,0.22169173
10.225845,-0.5747711999999999,-3.246729,0.02459169,0.17645279,0.26694809999999997
9.919972,-1.0459981,-0.63499016,0.26361454,0.5261819000000001,0.4426155
11.366463000000001,-0.21230823,3.4183644999999996,0.30353022,0.43568653,0.8083143
12.776341,1.8100451000000002,3.5150714,0.31682962,0.34519120000000003,0.71089005
11.217649,-1.3643694,1.917315,0.40467203,0.24192008,0.4346219
10.360745,-1.8473852,2.2078178,0.53190655,0.014625859,0.4516563
10.317449,-1.5573708,1.3480506,0.5489235,-0.05349434,0.34252086
12.1576605,-2.0957599,-0.27213454,0.35463345,0.14983651,0.11309733
10.598585,-1.2061796999999999,-1.4587393,0.18483037,0.1264142,-0.048171088
8.978275,-0.10625467,-1.2717041999999998,-0.03981096,0.044436082,-0.29199359999999996
8.837860000000001,0.92465025,-1.8884889,-0.23143066,0.10883873,-0.35798448
7.9298735,1.3945458999999998,-1.6385150000000002,-0.28253388,0.11789699,-0.25631905
6.9946413,1.0861248,-1.151726,-0.27082273,-0.009843656999999999,-0.22809708
7.556532000000001,0.5340026999999999,-1.2822292,-0.30543262,-0.046041787,-0.22596778
8.183324,0.22364718,-1.6623613999999998,-0.2820103,0.038571775,-0.15144221
8.053011999999999,-0.23056163,-1.7187495,-0.1505172,0.08702212,-0.07958701
7.734478,-0.6415215999999999,-1.3278339,0.03417355,-0.05030039,-0.027419122
7.4926443,-0.42499954,-1.7629752,0.16299629,-0.09449212,0.007173303000000001
7.920891,0.06721002599999999,-2.571114,0.22155209,-0.00026179937,0.058800142
8.318549,0.70097435,-2.4161612999999997,0.17470746,0.10937978,0.07796386
8.206700999999999,1.1796902,-2.228772,-0.014782938999999998,-0.11152654,0.1248085
7.146078999999999,2.115756,-3.4615655,-0.23251276,-0.26748917,0.22275637
8.269458,2.029785,-2.7071237999999997,-0.08452629,-0.2925172,0.16526523
12.691596,0.8201673,-1.1036313,0.22048745,-0.35479054,-0.055641095999999994
14.081095000000001,-0.6452469,-2.9053926,0.29768336,-0.31326914,-0.18551105
13.043688000000001,-1.8292468000000002,-5.2560773,0.4094717,0.048153635,-0.35479054
13.311867000000001,-1.1768553999999998,-3.5498543,0.5303183000000001,0.18123499,-0.31326914
11.574844,0.28848216,-3.0875337000000003,0.46694538,0.16632988,-0.43092179999999997
12.063692,0.670817,-0.880913,0.32801718,0.21158627,-0.6193649999999999
13.092539,0.36804625,1.030407,0.075694926,0.15515977,-0.80302596
10.846366,1.3314921999999998,0.77748346,-0.19045033,0.23500858,-0.6906966
8.479716999999999,2.298922,1.2999748,-0.3400425,0.07105235,-0.46979028
7.980487299999999,1.4236306,1.3425821000000002,-0.32033774,-0.02316052,-0.3851418
11.114248,-0.21134098,1.1746528,-0.230366,0.08702212,-0.41015238
12.792373,-0.8881339,0.5037496,-0.095696405,0.15568337,-0.31113985
9.760786999999999,0.006291962,0.13447753,0.075694926,-0.048171088,-0.14718361
7.9254303,0.24704331,-0.4921138,0.19387117,-0.044453535,0.058800142
7.6411904999999996,0.9970318000000001,-0.79168594,0.24977407,-0.02422517,0.20413370000000003
8.301003,1.1217123,-1.0011785,0.26307347,0.07796386,0.28982937
8.305351,1.1932988000000002,-1.3648003,0.2843665,0.10725048,0.33135074
7.839009,0.38193262,-1.2444868999999998,0.40093702,0.101386175,0.332939
7.8422365,-0.27278575,-0.8934585999999999,0.61280257,0.08063421400000001,0.33506832
7.8794713000000005,-0.6906889,-0.78029907,0.7671944,0.051888637,0.30260518
8.16395,-1.0193265999999999,-1.1782441000000001,0.8044397,0.020472713,0.19453439
8.752301,-0.5419419,-1.8031403999999998,0.6958453,0.003979351,0.070511304
8.631577,0.24542484,-2.2664185000000003,0.5494645,-0.09927433,-0.05668829400000001
7.9452925,0.43961373,-2.4029453,0.44779912,-0.14772467,-0.18764035
7.440489299999999,0.08171889,-2.4710557,0.38976693,-0.21160372,-0.27068309999999995
7.033982300000001,-0.34474587,-2.5167272,0.32323498,-0.35691983,-0.34362042
7.357410400000001,-0.61065555,-3.0242023,0.2694614,-0.3814068,-0.39365903
9.175844999999999,-0.07952580599999999,-2.7123816,0.05014331,-0.14453071,-0.15198328
12.331412,1.5801922,-2.7273405,-0.48429397,0.058800142,0.22434463
12.974878,3.0230818,-4.495573,-0.71052355,-0.056164697,0.27014205
10.358197,1.6426425999999998,-4.8857230000000005,-0.551908,-0.16102408,0.32709214
10.190641000000001,0.98371047,-3.5042686,-0.42465606,0.002391101,0.41973424
10.527764,-0.46309608,-3.4144572999999996,-0.4049862,0.1328021,0.5251172
11.245,0.15317145,-1.6957843000000001,-0.47842965,0.35796702,0.85144144
12.441507000000001,1.930981,1.1160907,-0.19310322,0.18336429,1.0856646
11.267209,-0.33361766,2.8177168,0.19760618,0.20998056,0.8003382
11.711084,-2.7068079,3.404957,0.3509159,0.2003987,0.4473977
11.671054,-2.0995807999999996,1.7987925,0.29394835,-0.0018675023000000002,0.4096113
11.254242,-0.94124687,0.99886096,0.23591615,-0.040194932,0.42769292
12.40976,-1.5702132,0.14490665,0.13531537,0.11948524,0.09606292
12.024417999999999,-2.0231866999999997,-0.8628033000000002,0.027785642000000003,0.13812536,-0.18870499999999998
9.74669,-0.56179464,-0.9679469999999999,-0.085573494,0.047088984,-0.46499062
9.131322,0.051628567,-1.4268484,-0.18619172,0.1264142,-0.552833
7.8170204,0.7178199000000001,-1.1667902,-0.14254104,0.1311964,-0.439439
6.622841,0.9389772,-0.48926947,-0.05256932,0.06518805,-0.31965706
6.5904713,0.5972958,-0.6687963,-0.07812094,-0.048171088,-0.31274554
7.6288557,0.54313904,-1.2045228000000001,-0.13987069,0.09447467,-0.2536487
7.994498299999999,0.42907926,-1.7209903999999998,-0.2122844,0.13651966,-0.13920747
7.025287,0.6544023,-1.8841313000000002,-0.21919589999999997,0.01569051,-0.022095867999999998
6.848805400000001,0.31710723,-1.7010325000000002,-0.15744615,-0.07904596,0.049759335999999994
7.406923,0.21097705,-2.08625,-0.11431906,-0.107791536,0.10725048
8.460975,0.34470758,-2.4486938,-0.082920596,0.10883873,0.19242255
9.609272,0.79921323,-1.7129267,0.007557275699999999,0.25949556,0.30579913
9.207247,1.2531157,-1.4298459,-0.007853981999999999,-0.032742377,0.3526438
8.987489,0.49530286,-2.17428,0.11508701,-0.42027527,0.17271778
11.782919999999999,-1.0336726,-2.2812815,0.4818505,-0.552292,-0.23024383
14.312460999999999,-1.8107442999999999,-3.353252,0.86831874,-0.18711674,-0.63533473
13.894434,-1.4414913999999999,-4.0633335,0.9950121999999999,0.27598890000000004,-0.57838464
11.8112955,-0.14542381,-3.1232265999999997,0.9881006999999999,0.41386992,-0.45701447
12.19841,0.17588763,-1.1520036,0.7932696,0.3931005,-0.62042964
13.830451,0.98265696,0.6422973000000001,0.42010075,0.34519120000000003,-0.7343473
12.322267,2.0430488999999996,1.3214173,0.13053317,0.36009634,-0.51396453
9.229302,2.0573566000000003,1.3241564,-0.1414764,0.24192008,-0.40269983
8.231428999999999,1.0286448000000001,1.1649132,-0.24900612,0.07902851,-0.3915297
9.468245,0.36904225,1.0237607,-0.2846632,0.050823987,-0.35426694
11.086561,0.007862559,0.6133849,-0.19151498,0.1913579,-0.23024383
10.114142,0.38821504,0.65684444,-0.06536258,0.102450825,-0.12164945
7.9803630000000005,0.90398353,0.56588393,0.10922269999999999,-0.072658055,0.12746139
7.12162,1.0119046,0.020906169,0.24921556,-0.044977135999999994,0.28237683
7.668819999999999,0.5876137,-0.60353994,0.24710372,-0.0034557518,0.30792844
8.215876,0.68763393,-0.7430836,0.1795071,-0.014102261000000001,0.29782298
8.200696,0.34757105,-0.9373683,0.12679817,-0.067875855,0.26214844
7.9551277,-0.14250289,-0.75570583,0.11773991,-0.05988224599999999,0.22860323
7.9965470000000005,-0.5704617,-0.93393016,0.059725165,-0.042324234,0.15994197
8.331389999999999,-0.18096335,-0.9925497999999999,-0.076532684,-0.09820968,0.08009316
8.336294,0.37138858,-1.0081886999999998,-0.19737929,-0.21638592,-0.016249016
8.175567,0.6369151,-1.407082,-0.25221753,-0.30475193,-0.05297074
8.650471000000001,0.54264104,-1.9075848999999998,-0.33365458,-0.30262265,-0.11259119
8.8749895,0.31348717,-2.9264807999999998,-0.37091738,-0.19083429999999998,-0.14294246
8.818534,-0.45539632,-2.4358513,-0.36610025,-0.24300219,-0.23074998
8.51607,-0.8977011,-2.5405450000000003,-0.26764625,-0.38088320000000003,-0.31061625
8.868094000000001,-1.0092806,-2.70065,-0.25699973,-0.32923892,-0.2967758
11.165791,0.5632503000000001,-2.9132743,-0.60992277,-0.11259119,0.07796386
12.774713,2.4124262,-3.5364945,-0.8468163000000001,0.10512118,0.2802475
11.24817,3.3062584000000004,-4.1399292999999995,-0.7690968,0.09128072,0.37500143
10.080882,2.606213,-2.6605039,-0.6503795,-0.0039968040000000005,0.4867898
9.840782,0.1629781,-2.9845352000000003,-0.6125931,0.30473449999999996,0.48092547
11.196378999999999,-1.9611002,-1.0822557,-0.6019291,0.6784269,0.5346991
12.331585,-1.1293737,2.37138,-0.51038665,0.35957274,0.7854156
11.270983,-0.3478009,3.1169919999999998,-0.32194343,0.35903168,0.6757565999999999
10.975337,-1.4884655,2.6617587000000005,-0.17022195,0.16793558,0.50436527
10.855033,-0.96564853,2.3136606,-0.11911872,-0.10353293,0.61135393
10.899460000000001,-1.2186678999999998,1.3735248,-0.10421361,-0.16421802,0.4346219
13.117247,-2.425173,-0.031708807,-0.24687682,0.18071139,0.059341196
11.3390255,-1.7277133000000002,-1.4831697,-0.33311355,0.20945697,-0.10355038
9.290077,-0.44396162,-0.27557259999999995,-0.31394982,-0.03913028,-0.26483625
8.502873,-0.3184384,-0.78778815,-0.27775168,0.05508259,-0.33883822
7.5584373,-0.06677908,-1.0540713,-0.24102996,0.07796386,-0.33990288
7.4625449999999995,0.14751156,-0.9353476000000001,-0.26816985,0.087545715,-0.2664245
7.726117599999999,0.49213293,-1.1802743999999998,-0.4571541,0.09819222,-0.15358898
7.774806,1.3741186,-1.3678745,-0.5918237,0.15142477,-0.044453535
7.010519500000001,1.2962017,-1.2261568,-0.6690195999999999,-0.084910266,0.006091199
7.183467,0.19875705,-1.0294781,-0.5737420999999999,-0.16315338,0.011414453
8.178957,-0.6319735,-1.1581424,-0.406557,-0.16528268,0.035918877
7.9053955,-0.55968773,-1.6124948000000001,-0.32726669999999997,-0.30368727,0.078487456
7.014015,-0.06351338,-2.8511972,-0.25007078,-0.38407716,0.08115781
7.358291599999999,0.72158366,-3.4126760000000003,-0.1654223,-0.14559537,0.15781267
8.383192,1.8766519,-2.7662892000000006,0.09327039,0.09979793,0.25310764
11.312354,1.1593586,-0.24285825,0.5547878,-0.11046189,0.07583456
14.409847000000001,-1.3277669,-0.7543076,0.8699245000000001,-0.21905628,-0.27921778
13.942039999999999,-2.8476253,-3.5587223,1.0200403,-0.03965388,-0.5171585
12.263925,-0.9143744,-4.122547,1.2228649999999999,0.1397136,-0.5725204
12.490521000000001,-0.5616414000000001,-2.245244,1.4230193000000002,0.24778439,-0.6938906
13.134629,-1.1640513000000001,-0.24670811,1.3090841999999998,0.24404939,-0.71305424
11.908874,0.32405043,-0.5870295,0.740037,0.31379274,-0.6976256
11.684087,2.7709053,0.73074865,0.18109536,0.27440065,-0.6369405
9.884567,3.1472929,2.0206583,-0.061627574000000004,0.047630034,-0.46232027
8.670401,2.079575,2.1393437,-0.110601515,-0.13121386,-0.32817426
11.057582,0.68221337,1.3136698,-0.1425585,0.041765727,-0.28667033
12.245346000000001,-0.05690539,0.33839646,-0.16437511,0.21849777,-0.16955873
9.708192,0.33753455,0.30328790000000005,-0.14892894,0.06892305,0.04017748
8.008403999999999,0.9339110999999999,0.20946391,-0.11964232,-0.08330456,0.28504717
7.7367479999999995,1.0551151,-0.2443618,-0.13135348,-0.09129817,0.4346219
8.188773,0.5390018,-1.2247396000000002,-0.22238985,0.008761553,0.4303633
8.34815,0.13727394,-1.0999728000000002,-0.2718874,0.05401794,0.33827972
8.015299,-0.52733725,-0.83878464,-0.23090705,0.02846632,0.29941124
7.5062246,-0.8397326999999999,-0.44893196,-0.13135348,0.050823987,0.30899309999999997
7.3023534,-0.9170176,-0.40936059999999996,-0.06375687599999999,0.01834341,0.27225390000000005
7.396914999999999,-0.7355562,-0.50701535,-0.06480408,-0.023684117999999997,0.20306906
7.86637,-0.47370717,-0.86576253,-0.058974676,-0.032201323999999996,0.116291285
8.287644,-0.16608098,-1.0913825000000001,-0.08344419,-0.034330625,0.031660274
8.534410000000001,0.0759345,-1.3567846000000001,-0.11964232,-0.097686075,-0.091821775
8.456972,0.05161899,-1.497056,-0.091420345,-0.2403493,-0.21638592
8.309125,-0.57909036,-2.1623855,0.019268433999999997,-0.15517722,-0.34414402
8.866878,-1.454286,-2.5475453999999997,0.07410668,-0.07426376,-0.41441098
9.427438,-2.0255425,-2.5916657,0.019809486,-0.08543386,-0.41814598
10.971649000000001,-0.07149086,-2.1069741,-0.31075588,-0.14666001,-0.023684117999999997
11.665719000000001,2.2034987999999998,-3.1830337,-0.48268825,-0.15624188,0.2067866
10.432638,2.6334972000000003,-4.7185984,-0.50611055,-0.07426376,0.3260275
11.420457,1.8473948,-3.4576488,-0.5007872999999999,0.21636847,0.41174063
11.552214999999999,0.41785523,-2.694013,-0.58541834,0.5128825,0.60976565
12.702227,0.16103402,0.6532053000000001,-0.5119749,0.3691546,0.9323374
12.781293,-0.0033231520000000002,2.9287887,-0.16915731,0.1264142,0.72474796
10.637831,-2.9775155,3.3523803,0.15182619,0.0641234,0.42451644
10.641757,-2.8647676,3.1063044,0.38711402,-0.072658055,0.37873644
10.646219,-1.3276326999999999,2.1235993,0.5563935,0.009302605,0.5959251999999999
12.299808500000001,-1.1952525,1.431972,0.56171674,0.20519836,0.42184609999999995
12.772194,-1.9616078000000001,0.21461624,0.4717625,0.31644565,0.118420586
10.240661,-1.3065636999999999,0.28922915,0.35890952,0.08756317,-0.16208872
9.179072,-0.19433257,-0.045030142999999995,0.21783455,0.047088984,-0.33936182
8.652894,0.71179616,-0.8020959,0.15447909,0.21849777,-0.29517007
6.7520027,1.0647207,-0.76266813,0.122539565,0.11096803,-0.17060593
6.776213,1.1087931,-0.23750481,-0.019041541999999998,-0.009320058,-0.12269664599999999
7.379044500000001,1.2647705,-1.0425503,-0.25218263,-0.00026179937,-0.09236282
7.923697,1.1695867,-1.6203382,-0.45554838,0.038571775,-0.08862782
7.863055999999999,0.86546564,-1.7143346000000002,-0.5162335,0.09073967,-0.040735986
7.8547915999999995,0.30190885,-1.5091037,-0.46778315,0.14610150000000002,0.013020156000000001
8.074579,-0.45516646,-1.0266242,-0.4086863,0.1434486,0.061470497
8.223097000000001,-0.7154066,-0.76398015,-0.38954005,-0.093951076,0.08222246
8.042468,-0.19918801,-1.4980425,-0.36877063,-0.1386664,0.10086258
8.607855,0.7498927,-1.2946502,-0.31340876,-0.5107706,0.19402826
7.8885784,1.110651,-2.6007257000000004,-0.18830357,-0.66141,0.27385962
10.74736,-0.4536246,-2.3457142999999996,0.27160814,-0.45540875,0.0007853982
13.673658999999999,-2.66399,-1.8590115000000003,0.6751108,-0.34733796,-0.23022638
11.111768,-2.3557029,-4.458645,0.6170786,-0.16475908,-0.12217305
10.7947855,-1.2991992,-4.7441297,0.7145029,0.55120987,-0.018360863999999998
13.050784,-0.626735,-0.079075694,0.57396895,0.4750786,-0.042847835
11.795255000000001,0.40921694,0.37470216,0.1662077,0.5261819000000001,-0.3063402
13.606276999999999,0.31060457,4.9570317,0.3535688,0.01834341,-0.7444527
13.439017000000002,0.45379698,4.835875499999999,0.25190338,-0.11950269,-0.7242244000000001
10.957447,1.7246201,0.25575820000000005,-0.14093533,-0.07904596,-0.5474923
10.547655,2.9514856,-0.034553118,-0.36505306,-0.06361725,-0.29890507
10.810232000000001,3.4943468999999996,0.9158299999999999,-0.25698227,-0.10566223400000001,-0.15622441
11.346419000000001,1.4487793,0.66760874,0.009162978,0.10458013,-0.10353293
9.847774000000001,-0.7285173,1.0033140999999999,0.37114426,0.012496557,0.06679375
7.453025299999999,-0.7622850999999999,0.85862774,0.59419733,-0.032201323999999996,0.26110125
8.187375,-0.113916114,0.21560265,0.47760934,0.058276545,0.31431633
7.8712254,0.10646536,-1.2697889,0.22422245,-0.018360863999999998,0.28878218
7.24224,0.1386147,-1.3939233,0.022479841,-0.10725048,0.21745057
7.701840400000001,0.17767850000000002,-0.9234532,0.10871656,-0.0055850535,0.08543386
8.091051,-0.3480882,-0.50688124,0.3131295,0.061994094000000007,0.018884463
7.5010147,-0.7712681,-0.1488523,0.51063097,0.002391101,0.05614724
7.8350058,-0.74862856,-0.30943623,0.6426301999999999,0.02581342,0.09075712400000001
8.983044999999999,-0.37724,-0.60225666,0.6208136,0.08222246,0.009302605
9.353256,0.50538725,-0.6473538000000001,0.5345769,-0.034854226,-0.082763515
8.714128,1.0055839,-0.6482158,0.48879692,-0.3058166,-0.18496999
7.923601,1.0132071,-1.9953851999999999,0.51167816,-0.43730968,-0.2659009
8.303092,0.06907751,-2.9052583999999997,0.38765508,-0.39044762,-0.108856186
9.179982,-1.1226891,-3.4748769999999998,0.2311514,-0.40962878,-0.17432348
10.519701,-0.18098250000000002,-3.8933644,0.043772858,-0.34520867,-0.082780965
11.377647999999999,2.9384037999999997,-3.390113,-0.36079445,-0.13121386,0.1998751
11.020673,2.8582457999999997,-4.313259599999999,-0.75735074,0.0061086523,0.20467477
11.873909,3.2527814,-3.6723127,-0.83508766,0.1328021,0.27652997
10.279812,1.9628336,-2.8859133999999997,-0.6232222,0.29143506,0.33508575
9.64826,-1.3844518999999997,0.107959345,-0.24048892,0.47455502,0.39470622
11.225244,-2.0165787,3.9271612,0.0017104226999999999,0.17432348,0.60124844
12.465104,-1.0627383,4.0323910000000005,0.37594393,0.10566223400000001,0.4420919
11.936991,-2.6296475,3.3103572999999997,0.56119317,0.05454154,0.20572196
11.199204,-1.5570068000000001,1.9080830000000002,0.6048264,-0.042847835,0.26214844
10.470294,-0.8043943,1.2010752,0.6192079,-0.108856186,0.28078857
12.34121,-1.5206053,0.26275885,0.5127427999999999,0.029007372000000003,0.06892305
11.075673,-1.5198298000000001,-1.0977223,0.32323498,0.006632251,-0.09341002
8.703211,0.21646456,-1.4621485,0.18004817,-0.08969247,-0.17592919
8.761399,0.12371319,-1.085081,0.18430677,-0.0066497047,-0.30901054
8.309872,-0.2170679,-1.2827462,0.2604206,0.016214108,-0.30368727
7.6491869999999995,0.43012315,-0.5336005,0.2966187,-0.018360863999999998,-0.24939009999999998
7.915116,1.0524241,-0.6624469,0.25403267,0.040701076,-0.18498744
7.900521,0.5146193,-1.1120971000000002,0.10978121,0.06679375,-0.17645279
7.7065234,-0.060257267,-1.5120533999999999,-0.0062482785,0.049759335999999994,-0.20945697
7.1863017000000005,0.7857770000000001,-1.5139016,-0.06480408,-0.092886426,-0.20573941
8.008767,0.7276170999999999,-1.5939348999999998,-0.047769662000000004,-0.05614724,-0.15728907
9.014304,0.49375144,-2.10639,-0.07119198,0.044959683,-0.022095867999999998
8.969942999999999,1.0826676000000002,-2.251086,-0.097267196,0.05030039,0.14027211
8.77815,1.8016751,-2.0087639999999998,-0.18936822,-0.11472049,0.28557077
7.6002016,2.160834,-3.423632,-0.4150742,-0.29888764,0.39044762
8.226878999999998,1.3475238,-3.2336662,-0.28998646,-0.4527384,0.18816395
10.991627000000001,-0.5361959,-2.0318631999999996,0.18537141,-0.53578115,-0.2845061
13.005563,-2.1142046000000003,-2.4393373,0.5111545999999999,-0.27920032,-0.59700733
12.364222999999999,-1.8559661,-3.1600685,0.54735273,0.25045475,-0.51714104
12.143056,-0.7882478,-0.79165715,0.45631632,0.48094293,-0.47935468
15.334316000000001,-0.99257857,3.057769,0.21465804,0.31379274,-0.82962483
15.485888000000001,-0.8632151,3.1776322999999995,0.056548666,0.010367256,-0.8573056999999998
10.523425999999999,1.8046823,1.796877,-0.31286773,-0.0055850535,-0.44368014
9.375483500000001,3.8294010000000003,-0.06472006400000001,-0.7738615,-0.014102261000000001,-0.18444639999999998
10.352212,3.4989822,0.0034572273,-0.963893,-0.07691666,-0.14770721
11.819780999999999,1.1516302,0.5049276,-0.84519315,-0.02794272,-0.16900024
11.691002000000001,-1.0034386999999998,0.6608666999999999,-0.60084707,0.054558992,-0.08222246
9.307717,-0.8240938,0.6547088000000001,-0.31499702,-0.04230678,0.20361010000000002
7.2531,-0.714018,0.47690582,-0.08716174,-0.08489282,0.36117843
7.143752,-1.2472163,-0.19274281,-0.007836528,-0.09501573,0.37343064
7.4249845,-1.0501351,-0.39960185,0.0027925267,-0.15570082,0.34042647
8.014045,-0.18302235,-0.5668033,0.1033933,-0.06892305,0.27014205
8.077797,-0.636149,-0.48321694,0.23062779999999997,0.010367256,0.15889478
7.4485054,-1.1089368,-0.22208615,0.38339648,-0.06627015,0.07531096
7.006344,-1.3503106000000002,-0.39521566,0.42811182,-0.23500858,0.035918877
7.443353,-1.082725,-1.0162524,0.33494613,-0.27813566,-0.038048177999999995
8.06551,-0.09087432,-1.786831,0.15981979999999998,-0.34733796,-0.1285435
7.8501277,0.46828672,-2.1453772,0.018762288999999998,-0.3968355,-0.22223277
7.994948399999999,0.46821967,-2.0762327000000003,0.06719518,-0.36330774,-0.35744342
8.217177000000001,-0.30073088,-2.200482,0.18537141,-0.35744342,-0.45539132
8.639688,-1.126989,-2.4097257,0.25083873,-0.32498032,-0.51448816
9.746326,-1.7370316000000003,-2.4744074,0.13267992,-0.24619615,-0.46177920000000006
11.896702000000001,0.023118412,-2.5209599999999996,-0.38311723,-0.2014808,-0.12322024
12.773372,2.9199686000000002,-4.1465945,-0.7339284,-0.28078857,0.05349434
11.0087595,3.5720532,-5.47733,-0.7238055,-0.1892286,0.27867672
11.557971,2.2361364,-4.298128599999999,-0.6333101999999999,0.035918877,0.30742228
11.332321,-0.5802779,-4.3352957000000005,-0.54974383,0.17379989,0.19881046
10.34186,-2.1081522,-2.1534216,-0.36875317,0.44102725,0.30953413
10.536508,-0.54800403,1.1702282,-0.13400638,0.4053527,0.6566103
10.576395,1.0700549,3.0847182,0.102869704,0.18125243,0.79555595
10.107275,-0.20865947,2.3972087,0.17205456,0.21903881,0.60496604
10.621885,-1.2429832,1.7648907,0.15823156,0.10992084,0.49958304
11.120722,-0.4306594,1.6002844999999999,0.0336674,-0.04923574,0.57890826
11.771332000000001,-0.8067981,0.34370202,-0.14357078,0.003979351,0.326586
12.570976,-2.100864,-1.0410755999999999,-0.32084388,0.16793558,0.009843656999999999
10.717404,-0.9976543,-1.1251408,-0.49225265,0.12695526,-0.27652997
9.713113,0.39892188,-1.7416764,-0.7275404999999999,0.13599606,-0.35531414
8.306673,0.93237877,-1.9171236,-0.82283545,0.13227850000000002,-0.23394394
7.2088646999999995,1.2274114999999999,-1.2044559,-0.79779,0.08223991,-0.14662512
6.972385000000001,1.1166078000000002,-1.0400890999999999,-0.8361349,-0.007173303000000001,-0.1311964
8.005894999999999,0.3525127,-1.5283722,-0.9085310999999999,0.064664446,-0.12215559
8.386859,-0.42997947,-1.5611249,-0.9159837,-0.013561208,-0.1397136
7.4853179999999995,0.112096526,-1.6090759,-0.8505164000000001,-0.11044443400000001,-0.058276545
7.606464999999999,0.14004163,-1.5488186000000002,-0.7073121,-0.08223991,-0.011972958
8.023506,-0.43169373,-1.2648184,-0.5518731,-0.08756317,0.07852236
7.794601400000001,-0.30252177,-1.623173,-0.5273861,-0.26323056,0.112573735
7.339531,-0.15457924,-3.4724352,-0.46563640000000006,-0.19935150000000001,0.13601351
8.250668,0.1291624,-2.2963076,-0.21544345,-0.28291786,0.1317549
9.35405,0.83691716,-2.1712152999999996,0.13109168,-0.38566542,0.12908456
11.891186,-0.45048344,-1.7410443,0.38446113,-0.41706386,0.0008028514599999999
13.098447,-1.8923098999999999,-3.5408616000000004,0.48295006,-0.29037043,-0.026337017999999997
10.412508,-0.76271605,-5.84575,0.44409904,-0.17699383,0.1258906
10.211002,-0.09618945,-5.1054435,0.54363513,0.22649138,0.14079571
12.611678,-0.92022574,-0.39774394,0.531924,0.14186037,0.106726885
11.56817,-0.43593624,-1.9689244,0.16090190000000001,0.38992402,-0.08435176
13.868748000000002,0.4745978,1.8243433999999998,-0.056269415,0.42025784,-0.5309640999999999
14.634098999999999,0.60503393,3.8396482000000005,-0.09937905,0.18338175,-0.69546133
10.498909,2.4814272,1.7939466,-0.25270623,0.03965388,-0.38725364
8.5857315,3.1426482000000004,0.84908926,-0.35863024,-0.11524409,-0.10618583
9.352949,2.2003383999999997,0.63979775,-0.20479694,-0.10566223400000001,-0.035918877
10.767127,1.0408266,1.074489,0.031555552,-0.055623643,-0.037507123999999996
10.001126,0.14453317,0.684962,0.28546605,-0.107791536,0.081716314
8.389033999999999,-0.09591172,0.27415523,0.535659,-0.12428489,0.22225022
8.694945,0.17447026,-0.25056756,0.63893014,-0.018360863999999998,0.32712707
8.536086,0.24591324,-1.39943,0.6043377,0.0050440015999999996,0.39632937
7.8922467,-0.30294309999999997,-1.4441633,0.5505641,-0.097668625,0.33349752
8.000196,-0.46693638,-1.4564312,0.5399176,-0.031136672999999997,0.2701595
8.359556,-0.11573571,-1.751598,0.5053252,0.017819813,0.24301964
7.8667436,0.36762488,-1.8282411,0.46699774,-0.05721189,0.1839228
7.8733325,-0.27905858,-1.7716327,0.37861428,-0.113638386,0.070005156
8.2609625,-0.26485616,-2.0439875,0.20509364,-0.047630034,-0.014625859
8.517353,0.32247025,-2.2296243,0.11138691,0.0050440015999999996,-0.070511304
8.089107499999999,0.2965171,-1.6840049,0.08691739,-0.14877187,-0.092327915
7.184520699999999,-0.008801086,-2.0311642,0.05497787,-0.1956165,-0.10297442
7.534389999999999,-0.27868509999999996,-2.0643191,0.024626596,-0.38460076,-0.14236651
8.041338,-0.6056180999999999,-3.509919,0.01823869,-0.39151224,-0.12000884
9.882412,-0.636216,-3.6442144,-0.3016627,-0.17112954,0.18765779999999999
13.045622,0.69010466,-4.010144,-0.7142236,0.0034557518,0.28878218
12.620805,1.7186538,-5.1650686,-0.7743677,-0.017819813,0.22277382
10.395452,0.8706849,-4.040808999999999,-0.6199933000000001,-0.008237954,0.29785788
10.7807455,0.7092583,-3.6877410000000004,-0.53747416,0.13973106,0.2547308
10.288822999999999,-0.73401433,-3.3259485,-0.34318408,0.33508575,0.21214478
10.459338,-1.1520803,-0.43412623,-0.23246041,0.45964992,0.47298422
11.820136,0.48755524,2.5839852999999997,0.13482669,0.1285435,0.8088728000000001
12.44732,0.15405253,3.3169748999999995,0.609661,0.2541723,0.57890826
11.554006,-3.3227785000000005,2.4371057,0.78745764,0.20254546,0.24354324
10.178739,-2.974154,1.258086,0.835908,0.082763515,0.15784758
10.48917,-1.5351238,1.0093571,0.89496994,0.15090117,0.11417944
12.807264,-1.1287607,0.38739142,0.7800050999999999,0.36063740000000005,-0.12213814
11.875595,-1.134028,-0.9470026,0.6740636,0.3771482,-0.35529667
9.231353,-0.09865069,-0.92895025,0.53724724,0.20254546,-0.5245936
8.587617999999999,0.24510879999999996,-1.4661229,0.45954520000000004,0.23235568,-0.5463928000000001
7.841537,0.7741986,-1.1492838,0.45315728,0.21584487,-0.45378559999999996
7.1604924,1.1788571,-0.9652559000000001,0.43718752,0.22916172,-0.39203584
7.241952400000001,0.75919175,-1.0926466000000001,0.3301814,0.21158627,-0.3819304
7.708228,0.5392029,-1.4506947000000001,0.20615830000000002,0.20413370000000003,-0.33613297
7.6244119999999995,0.62170714,-1.7606289000000002,0.07147123,0.24139649,-0.22595033
7.2420672999999995,0.7063374,-1.8308653000000001,-0.014730578999999999,0.11950269,-0.16098917
7.734602499999999,0.49939218,-1.8019624,-0.0046251225,0.05988224599999999,-0.09606292
8.226573,0.38376182,-2.1875245999999997,0.016109388,0.09553932400000001,-0.0013089969
8.504588,0.7143053,-2.6614423,0.042202063,0.21212731,0.07745771
8.71003,1.1736089,-2.3177884,0.037943456,0.13599606,0.19778071
7.98245,1.9401366000000002,-2.5880457999999997,-0.049340457000000004,-0.038589227999999996,0.35800195
8.098023,2.2929937999999996,-2.7110597999999997,0.004415683,-0.19296359999999999,0.3521551
10.964391,0.67785597,-1.7223408,0.3813021,-0.2621659,0.025307272999999998
13.65825,-1.3433005,-1.4504361000000001,0.70921457,-0.17273523,-0.25841343
12.586642999999999,-1.7843218999999997,-3.1078078999999996,0.8657181999999999,0.05401794,-0.41332890000000005
11.719253,-0.7995005000000001,-3.214024,0.8156796,0.29037043,-0.3744604
11.565172,0.57766336,-2.2356192999999998,0.5963440999999999,0.5773026,-0.42184609999999995
13.843839000000001,1.2076257,1.5090941,0.4201531,0.43942153,-0.64434063
15.202616,0.55600065,3.2757563999999997,0.23436281,0.21319197,-0.71727794
11.48828,1.1879838,2.1880705000000003,-0.06318091599999999,0.12269664599999999,-0.50008917
9.649533,1.4848839,1.2221538,-0.3069685,-0.022619467,-0.3100403
9.610881,1.9401269,1.0704955,-0.4022635,-0.031660274,-0.198793
10.601056,1.3515268999999999,1.1826493999999999,-0.32400292,0.08117526,-0.16844173
10.611839,0.48664546,1.2660155,-0.16751671,0.023684117999999997,-0.08700466
9.112159,0.29878682,1.031786,-0.035482544,-0.17006488,0.10196213400000001
8.274362,0.23806025,0.18500476,0.047001716,-0.09927433,0.29996973
7.8642344,0.08532935,-0.48493117,0.023055799999999998,-0.060405847,0.32286847
8.144959,-0.08094317,-0.6178094,-0.061034165,-0.044977135999999994,0.22598523
8.044058,0.27645367,-0.39057090000000005,-0.08765043,-0.102450825,0.18448131
7.795070599999999,0.0866318,-0.44918096,-0.058381262999999996,-0.030595621,0.18765779999999999
7.639438,-0.29397926,-0.5501491999999999,-0.035499997,-0.0018500489999999999,0.17755234
7.679105,-0.5820113,-0.5467878,0.0033510323,0.0013264503,0.14135422
8.1830845,-0.41037577,-0.6753755,-0.0051487214,0.0007853982,0.06469935
8.680524,-0.27965236,-1.1556620000000002,-0.034958944,0.07318166,-0.04654793
9.006364,-0.4056065,-1.0897161,-0.0019547688000000002,0.081698865,-0.16791813
8.69892,-0.54673034,-0.99877477,0.03689626,-0.015166911000000002,-0.3100403
8.528222999999999,-0.44752416,-1.2300258999999998,0.03954916,-0.18496999,-0.3095167
7.9668117,-0.32192436,-1.7666814,-0.025900686000000003,-0.3526438,-0.31323424
8.314708,-0.43791863,-2.3997083,-0.10681415,-0.3963119,-0.27544788
10.552453,0.9808278,-2.1706407000000003,-0.501276,-0.24832545,0.10674433400000001
12.453622,2.7467816000000003,-2.7943783,-0.8004429,-0.29729939,0.22385593
10.900006,2.1705737000000003,-4.645430999999999,-0.75783944,-0.2020044,0.1743584
11.154154,1.4144082,-2.7131667,-0.54012704,-0.09553932400000001,0.25846579999999997
10.93545,0.42070913,-2.5452470000000003,-0.32613220000000004,-0.13173746,0.23237313
10.014237,-2.094821,-1.4461839,0.0006981317,0.23554963,0.25153685
10.652177,-2.4114207999999997,1.7588188999999999,0.04701917,0.26003662,0.5656263000000001
12.556649,0.42475054,3.8122683,0.14016739,-0.01569051,0.7380823000000001
11.945074,1.1193468999999998,2.396979,0.2684491,-0.12109094,0.6220353
10.935488000000001,-1.2750465,1.9189813999999998,0.36267942,-0.2046573,0.5006826
10.67182,-1.9253787,0.72577834,0.29454178,-0.14292501,0.32073915
12.706747,-2.7581587000000005,0.024938006000000002,0.15453145,0.036459927,-0.027907815
12.141715,-2.2825743999999997,-0.5433114,0.14336134,0.09234537,-0.23818508
9.123528,-0.34199736,-0.25800875,0.006544985,-0.032201323999999996,-0.42024037
8.027442,0.36599684,-0.8947898000000001,-0.09403834,0.031136672999999997,-0.4356691
7.153778999999999,0.5063449000000001,-0.80942214,-0.06796312,-0.031660274,-0.2679953
6.7300344,1.2103933999999998,0.29566476,-0.04612905,0.030613074,-0.2770361
7.5142880000000005,1.5616324,-0.2613702,-0.22286109999999998,-0.008779005999999999,-0.28448868
7.485117,0.90542006,-0.7569891,-0.31866223,-0.08435176,-0.2062281
7.376688499999999,0.36571908,-0.8068747,-0.25427702,-0.13973106,-0.10723303
7.324399499999999,-0.1830032,-0.52804595,-0.16004670000000001,-0.3569024,-0.066235244
7.648803999999999,-0.35898662,-0.94276,-0.03122394,-0.5059535,0.0024260078
8.664367,-0.30187052,-2.0445333,-0.008342674,-0.4473977,0.06895796
9.303848,0.43769836,-4.018648600000001,0.0070860367,-0.12322024,0.13922492
9.807972,1.6022763,-3.1608155,0.008691739,-0.024207717000000004,0.25740117
8.5887,2.2976196,-3.5171015,-0.15685274,-0.17006488,0.379836
8.942794000000001,1.357206,-3.4723778,-0.10255554,-0.31166345,0.16477653
12.049441999999999,-0.25535598,-2.9880211,0.24076816,-0.28717646,-0.22647393
13.762207,-1.2421502,-2.8090498,0.44039893,-0.04230678,-0.34517378
11.189886,-0.63869643,-4.161391,0.42336452,0.11470304,-0.26480135
10.548211,-0.46045288,-2.0282624,0.45530403,0.25631905,-0.24296728
11.446966,-0.71907455,-0.57458925,0.37547270000000005,0.3659781,-0.43991023
12.697687,-0.9559185,0.09693644,0.065641835,0.37555996,-0.77635735
13.762935,-0.54790825,1.466257,-0.013107423,0.30049333,-0.8742878000000001
11.499542,1.5022657,1.8357493999999999,-0.21699679,0.1945693,-0.6081251
9.868919,2.6512048,0.5452842,-0.41076323,0.099815376,-0.35634387
10.770804,2.2090247000000005,0.6650231,-0.42566836,0.09449212,-0.22326252
12.30296,0.98837435,0.34465012,-0.36924186,0.21851522,-0.15938346
11.076966,0.22705652,0.7891289,-0.18399261,0.11311479,0.04342379
8.390404,0.5567380999999999,0.78686875,-0.056758105999999996,-0.0007853982,0.3095865
7.5592227,0.8874540000000001,-0.33023703,-0.07274532,-0.0050440015999999996,0.50440013
7.602414,0.24826914,-1.0365937,-0.16694075,0.0673348,0.47193703
7.5377326,-0.25227225,-1.1049337,-0.20476203,-0.014084807,0.3968704
7.421786,-0.19809625,-0.6320693000000001,-0.08710938,-0.035918877,0.33459708
7.509030999999999,-0.25806624,-0.5579831000000001,0.04967207,-0.023666665,0.23397884
7.227099000000001,-0.52328634,-0.8154268,0.10611602,-0.12215559,0.15414748
7.3996925000000005,-0.86466116,-1.2743282,0.13538519,-0.1375843,0.098244585
8.305686999999999,-0.97047526,-1.4845966,0.081611596,-0.09819222,0.01998402
8.485357,-0.44626004,-2.0046171999999998,-0.029618237000000002,-0.15142477,-0.04066617
8.135267,0.060630765,-2.329654,-0.15152949,-0.16900024,-0.12372639
8.27643,0.083940715,-2.2406662,-0.20954423,-0.11576769,-0.1993166
8.527697,-0.12286086,-2.0704288,-0.12170181,-0.097668625,-0.22804472
8.493421000000001,-0.9137423000000001,-1.7764498,0.04330162,-0.18549359,-0.29511774
9.357901,-2.1194336,-2.0390172,0.14709635,-0.20306906,-0.30098203
10.693223,-1.8158296000000003,-2.240034,-0.12702507,-0.17697638,0.026389378999999998
11.985278,0.13518621,-3.3297790999999997,-0.47197193,-0.21743312,0.30000463
11.58809,2.0776498,-4.1123385,-0.55555576,-0.18071139,0.51824063
10.850465,1.8643266,-4.1726246,-0.57580155,0.09501573,0.5853136
11.348142999999999,0.71060866,-3.377098,-0.8073369,0.36011377,0.7535459
12.932941,1.3119363000000002,-0.009212888,-0.9963211999999999,0.301558,1.1421435
13.692314999999999,1.9188473000000001,1.7997693,-0.6135705,0.0630762,0.90366167
10.769771,-2.757287,2.5094779,-0.04930555,0.17221163,0.5991715
10.003406,-3.89166,3.422138,0.27698374,-0.0699877,0.42668065
9.966803,-2.4956107000000003,1.8349736,0.30518827,-0.13386676,0.45862016
12.412365,-0.83772165,1.2997068,0.27272514,0.042847835,0.4000818
13.346832000000001,-0.5678566999999999,-0.20640892,0.1513724,0.15889478,0.15095353
10.804927000000001,-0.82075155,-0.034457352000000004,0.06511823,0.0050614546,-0.15564846
9.176707,-0.22022825,-0.632347,-0.08710938,0.008255407,-0.3845484
8.981561,0.6279225,-1.1828889,-0.23081979,0.10300933599999999,-0.47877872
7.6943226,1.0170473,-1.1796615,-0.29311058,0.11950269,-0.31162855
5.936356,0.85105246,-0.5832084,-0.32185617,-0.04337143,-0.20516345
6.478777,0.5083848,-0.699557,-0.42191590000000007,-0.052953288,-0.23069762
7.838128,0.7406894,-1.1989396,-0.52572805,0.05136504,-0.20301670000000002
8.265426,0.24765623,-1.1937872,-0.42140976,0.1280199,-0.12957324
7.975430499999999,-0.46206176,-0.564955,-0.26649433,0.028483772999999997,-0.0683471
7.8337803,-0.6658658000000001,-0.8982183000000001,-0.13873622,-0.059864793,-0.025237462000000002
8.291953999999999,-0.78246343,-1.6384096000000001,-0.03970624,-0.044436082,0.03757694
8.492262,-0.32288206,-2.5881417,0.021485003,0.058817595,0.08229227
8.624479,0.070370376,-2.3218682,0.074717544,0.032742377,0.11582005
7.774787,0.85127276,-2.5072846,0.048624873,-0.20839229999999997,0.21748547
7.541467,1.3384353999999998,-2.7973947999999997,0.049165923,-0.3084695,0.2579422
10.530417,0.8655997,-2.2846336,0.3334277,-0.19507545,0.109432146
13.805225,-0.36367923,-1.5259013000000001,0.62140703,-0.17325884,-0.062482785
12.399388,-1.12855,-3.5195532,0.5825560000000001,-0.06944665,-0.046530478
11.672442,-1.3647428,-3.4144285000000005,0.59639645,0.027419122,-0.13542010000000002
12.693942,-1.1184657,-1.7692002,0.4500157,0.07319911,-0.21526891
12.119353,0.8069513,-1.137265,0.3414213,0.18338175,-0.30628783
13.034464999999999,1.0737611,1.7312281000000003,0.31372294,-0.008761553,-0.50166
12.360536,0.621688,2.5568159,0.28393015,-0.13386676,-0.66346943
10.449858,1.3444687,1.1751891,0.086969756,-0.15303047,-0.49101347
9.628502000000001,1.8439472,0.37379235,-0.07909832,-0.16793558,-0.33450979999999997
10.985114,1.6131173,0.18375976,-0.07911578,-0.12800245,-0.2690425
11.392061,0.33866462,0.17132907,0.13327335,-0.13013175,-0.15193091
10.04992,-0.43332177,0.42118797,0.33981562,-0.27705356,-0.013508848
8.647253,0.0177554,-0.38573462,0.46225044,-0.33560935,0.15627678
8.034883500000001,0.28839597,-1.2741941,0.46118580000000003,-0.22914428,0.1749169
7.894985,-0.13651738,-1.6018263000000001,0.35259143,-0.21052161,0.06632251
7.3998740000000005,0.2163688,-1.6679541000000002,0.25038493,-0.26588345,0.01680752
7.1019015,0.81351143,-1.4950736,0.20940460000000002,-0.33880332,0.0077667153
7.0551186,0.7566539000000001,-1.7455646,0.18224728,-0.35477307,0.00083775807
7.155369,0.08493669999999999,-1.7733276999999998,0.21418679999999998,-0.41545817,-0.014049901000000002
7.541170599999999,-0.40348044,-1.8583602,0.20195204,-0.48146653,-0.028955012999999998
8.063815,-0.09250238,-2.3627803,0.11730358,-0.5464102,-0.0704764
8.450785,0.40758890000000003,-2.9575669999999996,0.014573500000000001,-0.61135393,-0.14391986
8.394148,0.27259424,-3.0249014,0.060353484000000006,-0.5953841999999999,-0.21846285
8.319429,-0.1846504,-2.6218522,0.17481218,-0.3840597,-0.23867378
8.214649,-0.62537503,-2.6455164,0.22802727,-0.3111224,-0.18385299
7.8508363,-0.7338131999999999,-2.5196674,0.23282692,-0.5378930000000001,-0.16203637
8.690425999999999,-1.1748347,-4.007769000000001,0.23122121,-0.46816713,-0.02628466
11.138889,-0.43643424,-4.3489428,-0.13446017,-0.27811822,0.25050712
13.950247000000001,1.2779768999999999,-5.453714,-0.37028906,-0.12322024,0.19088666
11.641729,1.1432697,-5.659050499999999,-0.17704620000000001,-0.13226105,0.13606587
10.114257,0.9135315999999999,-3.767755,0.04384267,-0.17804104,0.15468854
10.371768,0.10883083,-3.3789559999999996,0.0816465,-0.04337143,0.16852899
10.31358,-1.2947459,-2.838393,0.17533578,0.29410544,0.31599185
11.126458999999999,-0.0060142343999999995,0.40922654,0.35739106,0.15517722,0.5656437
12.324536,1.6537613999999998,2.4846737,0.6342003,0.021554817,0.48047170000000006
11.759065,-0.52816087,0.7104363,0.812538,0.20573941,0.20898573
11.788475,-1.9108889999999998,0.21694339999999998,0.93816686,0.17434093,0.13819517
11.141724,-1.2202289,-0.01604115,0.90942127,0.06148795,0.14245377
11.373942,-1.2204204,-1.0214334999999999,0.660834,-0.011955505,-0.10559242
12.234351,-1.7579857,-2.149677,0.50166,0.1296256,-0.35952038
10.151463,-0.30493513,-2.0322175,0.32438690000000003,0.13494886,-0.52879983
8.688528999999999,0.6259688,-2.4068238999999996,0.22005111,0.23980823,-0.5080479
7.322666000000001,0.9222082,-2.362445,0.17587683,0.28879964,-0.36910224
5.952157499999999,0.8754638000000001,-2.3985686,0.07579965,0.24726079999999998,-0.28605947
5.6797166,0.85454804,-2.7188745,-0.06791076,0.18072884,-0.24186772
6.7088213,1.2755636000000001,-2.9565327,-0.17811085,0.12695526,-0.2008874
7.8159766,1.1206108,-3.1741464,-0.1855634,0.11950269,-0.05609488
7.305370299999999,0.17879897,-3.3822982,-0.17863445,-0.028989919,0.0067020644999999995
7.083379700000001,-0.22762156,-3.7499328000000003,-0.16746435,-0.111509085,0.032253683
7.3898473,0.13758041,-4.140973000000001,-0.17331119,0.010925761,0.08761553
8.096060000000001,0.9729460999999999,-3.088367,-0.11208504400000001,0.30583405,0.14618878
8.672172,1.5400943,-1.7549881999999999,-0.23664919,0.107808985,0.23081979
7.123784,1.3416244,-3.8336723,-0.4772603,-0.12852605,0.27607617
7.6664352,0.6152907,-4.140839,-0.3766595,-0.22329742,0.1270076
11.611151,-0.055286907,-3.0534689999999998,-0.04235914,-0.24511404,-0.155631
13.849681,-0.12950715,-3.5511565000000003,0.13596115,-0.16898277,-0.19715239
12.696289,0.46145844,-4.1907916,-0.03544764,0.032742377,-0.09868091
12.1613,0.44360727,-4.1220584,-0.1291369,0.14718361,-0.19237019
13.335215,0.4926022,-2.8440435,-0.04342379,0.20469221,-0.36695546
14.319797,-0.31800744,-0.5536926999999999,-0.13285446,0.066811204,-0.38453093
12.585581,0.12313858,-0.8116344,-0.35960764,0.16688839,-0.268484
10.208254,1.8388906000000003,-0.8410639000000001,-0.72213,0.1881814,-0.17266542
8.730677,1.3575793999999999,-0.63134146,-0.792938,0.20521581,-0.035325464
10.122513,0.5069577999999999,-0.3643113,-0.7487463000000001,0.19085175,0.0067195175
11.844125,-0.38466203,-0.7123708000000001,-0.6007598000000001,0.22437952,0.06421066
11.099404,-0.79777676,-0.4334367,-0.38198277,0.15837118,0.108384944
8.644131,-0.39641276,-0.39043683,-0.20258036,0.107808985,0.29256955
8.014351,0.09936895,-1.2485091999999998,-0.17118189,0.17859954,0.36709509999999995
7.8006635,0.06419334,-1.7764019,-0.20738003,0.1966986,0.32930872
7.134060000000001,-0.23030305,-1.6555618000000003,-0.21537364,0.23022638,0.25370106
7.2899036,-0.35356614,-1.6026307,-0.14775957,0.22970279,0.15789993
7.4852229999999995,-0.35633382,-1.2666955,-0.0061610119999999996,0.20840977,0.1158375
7.465733999999999,-0.6992889,-1.3651356000000001,0.12583824,0.17327629,0.07805113
7.4813156,-0.94744307,-1.5270888999999999,0.24349089,0.11897910000000002,0.006178465699999999
7.7334538,-0.8159535,-1.95092,0.25785494,0.067875855,-0.074717544
7.925851299999999,-0.58515245,-2.510809,0.11145672,0.031136672999999997,-0.14552556
7.923927000000001,-0.30389124,-3.0011412999999996,-0.037559487,0.10939724,-0.21790436
7.8667917,-0.27799556,-2.718166,-0.05461135,0.17592919,-0.2551846
7.706571,-0.6023141,-2.0839324,0.0065798913,0.10140363,-0.30361748
7.7814527,-1.2336364,-2.6176765,0.11253883,-0.08967502,-0.41167079999999995
8.332349,-1.5561353999999998,-2.6323385,0.21739821,-0.1359786,-0.39730674
10.083879,-0.70657676,-2.5675611000000003,-0.015201817,-0.29674090000000003,-0.05235988
11.720345,0.84138954,-3.8925888999999994,-0.2467721,-0.25150195,0.3463257
12.749009,1.1290288999999998,-4.6411214,-0.22493804,0.1860521,0.31066862
12.764476,-0.09130528,-4.03377,-0.088139124,0.42292818,0.1765226
12.580869,-0.16245137,-0.96155924,-0.010960667,0.29942867,0.38997635
13.347033499999998,0.81022656,0.8225903,0.0704764,0.23076743,0.6327168000000001
13.874992,-0.4160835,1.1340663,0.27171287,0.2701595,0.41341615
