accx,accy,accz,gyrx,gyry,gyrz
9.765686,-8.106873,1.9721221999999998,0.8063812,-0.7588805999999999,-1.1594238000000001
9.703445,-9.212997,1.560318,0.47080994,-0.37538147,-1.2073517
9.143203999999999,-9.107650999999999,1.5459441999999999,0.13632202,-0.008926392,-1.2361145
8.831955,-8.592895500000001,1.7542419999999999,-0.12998962,0.26057434,-1.1519622999999999
8.187911999999999,-8.109268,2.4437714,-0.27059937,0.37030029999999997,-0.9037628000000001
7.0746155,-7.6400146,2.8436127,-0.24929810000000002,0.2882843,-0.61187744
6.2797394,-7.400589,2.920227,-0.11401367,0.10398865,-0.38177490000000003
6.011581400000001,-7.122864,2.573059,0.03086853,-0.06538391,-0.209198
6.013977,-6.675140400000001,2.130127,0.076675415,-0.18363953,-0.062194824
5.848785400000001,-6.308838,1.9625397,-0.0032196045,-0.19854736,0.0922699
6.3324127,-6.260956,1.7494506999999997,-0.17793274,-0.14527893,0.269104
6.816039999999999,-6.411789,1.5148315,-0.45596313,-0.015319824,0.491745
6.679565400000001,-6.392624,1.0048523,-0.7606354000000001,0.13381958,0.7186431999999999
6.4449309999999995,-6.4141846,0.57629395,-0.9513091999999999,0.33409120000000003,0.8709716999999999
6.373108,-6.598526,0.52841187,-0.9491729999999999,0.51197815,0.95939636
6.104965,-7.096527,0.5619354,-0.75743103,0.57696533,0.9988098
5.614151000000001,-7.625641000000001,0.7175598000000001,-0.45489502,0.49281309999999995,1.1106566999999998
5.5159910000000005,-7.788452,1.1389313,-0.14916992,0.1860199,1.209732
6.1025696,-8.061386,1.4837036,0.06600952,-0.10586548,1.1522063999999999
6.729842999999999,-8.305603,1.5291901,0.11395264,-0.18150329999999998,0.8805542
7.0554504,-8.521072,1.2179413000000001,-0.028793335,-0.01852417,0.53541565
7.132064999999999,-8.805984500000001,0.73191833,-0.23757935,0.24459839,0.33514404
7.3714905,-9.342285,0.38237,-0.37820435,0.45019529999999996,0.36497498
7.5007779999999995,-9.948013000000001,0.059143065999999994,-0.39950562,0.54074097,0.49707029999999996
6.7657623,-9.098083500000001,0.054367065,-0.35902405,0.48960876,0.6078491
6.365921,-7.903366,0.6936188,-0.29936218,0.41824340000000004,0.6739044
5.927795400000001,-6.770919999999999,1.644104,-0.23757935,0.315979,0.7410126
6.557464599999999,-6.8499300000000005,2.2857513,-0.15875244,0.18281555,0.84114075
7.132064999999999,-7.656769000000001,2.470108,-0.07778931,0.058181763,0.9178466999999999
7.675552400000001,-7.800414999999999,2.2115326,-0.014938354499999999,-0.0046691895,0.9497985999999999
8.635635,-7.7309875,1.7925567999999998,-0.020263672,0.024093628,0.94873047
9.495148,-7.383835,1.37117,-0.042633057,0.06990051,0.8997344999999999
9.298828,-6.718246499999999,0.88993835,-0.026657103999999997,0.0730896,0.8667145
7.993988000000001,-6.1005400000000005,0.6720581,-0.012817383,0.060317993,0.81025696
6.571822999999999,-5.9401245000000005,0.7965698,-0.012817383,0.08374023400000001,0.7410126
5.786529499999999,-5.7916870000000005,1.0958405,-0.0042877196999999995,0.074157715,0.6941376
5.5973816,-5.537903,1.1987915,0.002105713,-0.00680542,0.63342285
5.882293700000001,-5.5522614,1.1916046,-0.043701172,-0.09307861,0.54499817
6.1289062,-5.746200599999999,1.1437225,-0.10229492,-0.16552734,0.42356873
6.2079163,-5.908996599999999,1.2035828000000002,-0.10443115,-0.10479736,0.33195496
6.5,-5.968857,1.3065338,-0.02986145,0.050720215,0.21476746
6.9836273,-6.043075599999999,1.3328705,0.100112915,0.16044617,-0.040893555
7.335571300000001,-5.997589,1.1796417,0.34405518,0.057113647000000003,-0.45420837
7.476837,-5.8683014,1.0695038000000001,0.63912964,-0.17617798,-0.9208069
7.3858643,-5.7581635,1.2275238000000002,0.755249,-0.37005615,-1.1732635
7.709076,-6.0311127,1.2538605,0.6529845999999999,-0.5671234,-1.1743317
8.195099,-6.5003660000000005,1.1844177,0.40370178,-0.67259216,-1.066742
8.506348,-7.007934599999999,1.2299194,0.15657043,-0.6917572,-1.0422363000000001
8.944489,-7.5059357,1.2897644,0.12780762,-0.6225281,-1.0592803999999998
9.569366,-8.070969,1.2538605,0.3547058,-0.4520874,-0.99324036
10.402557,-8.717407000000001,1.4118805,0.6306,-0.33171082,-0.9442444
10.972366000000001,-9.272858,1.936203,0.7254181,-0.26672363,-0.9985656999999999
10.536621,-8.317566000000001,2.4988403,0.66256714,-0.2326355,-1.1423798
9.938080000000001,-6.780487,2.7023467999999995,0.5794678000000001,-0.22624207,-1.2883148000000002
9.629227,-5.7701416,2.829239,0.5251465,-0.22305298,-1.3351898000000002
10.225388,-6.5434722999999995,2.7430573,0.52407837,-0.25393677,-1.2499695
9.954834,-8.166733,1.7805786,0.5784149000000001,-0.33703613,-1.1157378999999998
9.080948,-9.095688,0.9234619000000001,0.59651184,-0.41586304,-1.0124207
8.137634,-8.932877000000001,0.67445374,0.5272826999999999,-0.41799927,-0.9623413000000001
7.699493400000001,-8.195464999999999,1.1078033,0.4559021,-0.33171082,-0.91548157
7.5965424,-7.7908479999999996,2.1995697,0.49212646,-0.21772766,-0.8078766
7.326003999999999,-7.673522999999999,3.2913208,0.56030273,-0.16871643,-0.62145996
7.024338,-7.120467999999999,3.490036,0.43566895,-0.26246643,-0.43504333
6.9094086,-6.51474,2.5826416,0.150177,-0.3263855,-0.26460266
6.9094086,-6.167572,1.6129913,-0.13745117,-0.25926208,-0.099487305
6.6963196,-6.023926,1.244278,-0.35369873,-0.16127014,-0.01638794
6.286911,-6.2082825,1.1987915,-0.53692627,-0.06538391,-0.00680542
5.7075195,-6.4452972,1.3807526,-0.7244109999999999,0.109313965,0.08161926
5.49205,-6.555435000000001,1.6321411,-0.91296387,0.28507996,0.25311279999999997
5.662033,-6.6200867,1.6345367,-1.1079101999999998,0.47789,0.41397095
5.9996184999999995,-6.761337299999999,1.5339813,-1.2368011,0.60466003,0.59080505
6.1480559999999995,-6.8307649999999995,1.6824188000000002,-1.1057739,0.60891724,0.7761688
6.162414599999999,-7.1132812,2.2115326,-0.6786041,0.58547974,1.0233002
6.0642548,-7.606491,2.2115326,-0.20349121,0.48002625,1.2161255
6.167206,-8.061386,1.2514648000000002,0.109695435,0.36817932,1.211853
6.535919,-8.444458000000001,0.4733429,0.19384766,0.38095093,1.0307617
6.9836273,-8.844299000000001,0.5164489999999999,0.046844482,0.50346375,0.83369446
7.2589570000000005,-8.794022,0.88275146,-0.27593994,0.62916565,0.7133179000000001
7.618088,-8.796402,1.1173859,-0.611496,0.7175751,0.6685791
7.802444500000001,-9.488327,1.244278,-0.8021698,0.7697754,0.69200134
7.1607970000000005,-9.311157000000001,1.4166565,-0.8394623,0.7527313,0.7697754
6.73703,-8.882599,1.5914458999999999,-0.7702179,0.65686035,0.8517914000000001
6.0905914,-8.312775,2.0319672,-0.63386536,0.53862,0.9050598
6.0905914,-8.130828999999999,2.9226074,-0.45170593,0.3756256,0.96684265
6.318039,-8.312775,3.8324127,-0.28126526,0.25099182,1.0627136000000001
6.650833,-8.188278,3.734253,-0.15129089999999998,0.12210083,1.1500702
7.3666990000000006,-7.7740784,2.8555756000000003,-0.05329895,0.00491333,1.208664
8.171158,-7.5059357,1.7422790000000001,0.0074310303000000005,0.0027923584,1.209732
7.989197,-7.10849,0.64334106,0.04258728,0.032608032,1.1404877
7.1584015,-6.586563000000001,-0.108444214,0.12034607,-0.025970458999999998,1.0946808000000001
6.5885925,-6.239395,-0.20181274,0.23858643,-0.11013794,1.0818938999999999
6.301285,-6.1651764,0.3536377,0.32273865,-0.22731018,1.0169219999999999
6.081024,-6.1101227,1.0288085999999999,0.2833252,-0.3306427,0.84114075
6.203125,-6.083786,1.6776276,0.13739014,-0.40093994,0.60572815
6.523941000000001,-6.1843414,2.070282,-0.0415802,-0.41799927,0.34472656
6.792099,-6.3591156,2.3240662,-0.17900085,-0.26991272,0.15937805
6.8926544000000005,-6.4812164,2.2737884999999998,-0.23013306,-0.04940796,-0.003616333
7.029114,-6.3471375,2.1205597000000003,-0.17686462,0.16363525,-0.26672363
7.179962,-6.1340637000000005,1.9768982,0.056427002000000004,0.21051025,-0.5756531
7.5462646,-5.810837,1.9026793999999998,0.4047699,0.021957397000000003,-0.8323822
8.049057000000001,-5.753372,1.7422790000000001,0.6455231,-0.31253052,-1.0145415999999998
8.195099,-5.853943,1.7925567999999998,0.64338684,-0.6033478,-1.2457122999999999
8.362686,-5.971252400000001,1.8380432,0.548584,-0.70454407,-1.5610198999999998
8.740982,-6.11969,1.7326965,0.6295470999999999,-0.65234375,-1.8539734
9.447266,-6.4884033,1.45018,0.89479065,-0.5383606,-1.9168243000000003
10.062576,-7.063003500000001,1.2897644,1.1174316,-0.51812744,-1.6856689999999999
10.888580000000001,-8.013504,1.4860992,1.2367401000000002,-0.66726685,-1.3341216999999999
11.173477,-8.78923,2.015213,1.4082489,-0.9026947,-1.0315857
10.438461,-8.1380005,2.652069,1.6553955000000002,-0.95062256,-0.9761963
9.724991000000001,-6.926544,3.0806273999999996,1.7949370999999998,-0.82385254,-1.1104126
9.490356,-6.4572754,3.5403137000000005,1.647934,-0.70454407,-1.1040344
9.689072,-7.2545470000000005,3.6360931000000005,1.2473907,-0.6331787,-0.8888396999999999
9.566971,-8.030258,2.9800720000000003,0.7520446999999999,-0.62039185,-0.68644714
9.624435,-8.267288,2.2019653,0.38665770000000005,-0.5841675000000001,-0.63531494
9.363464,-7.9943542,2.173233,0.25350952,-0.5202637,-0.6789856
8.638031,-7.879425,3.241043,0.20130920000000002,-0.36366272,-0.7088165
7.2326355,-8.073364,4.320831299999999,0.086257935,-0.16764832,-0.6544800000000001
5.49205,-8.066177,4.244217,-0.094833374,-0.017456055,-0.51919556
4.716324,-8.047028,3.5642547999999996,-0.28338623,0.047531128,-0.44250488
4.709137,-7.8339386,3.5905913999999997,-0.43891907,0.08374023400000001,-0.40307617
5.329239,-7.132446300000001,3.8348082999999997,-0.5433197,0.12954712,-0.28164673
5.990036,-6.718246499999999,3.2865295,-0.6072234999999999,0.2264862,-0.083496094
5.7266693,-6.988785000000001,1.8907166000000002,-0.6583557,0.37136840000000004,0.08374023400000001
5.1568604,-7.5011444,0.56433105,-0.7947234999999999,0.47576904,0.13487244
5.2167053,-7.5490265,0.10942078,-1.042923,0.52583313,0.23181152
5.8248444,-7.3407288,0.7438965,-1.2549133,0.5056,0.48960876
6.3515625,-7.0390625,1.9529572,-1.331604,0.48428345,0.75805664
6.42099,-7.070190400000001,2.5251770000000002,-1.2772827,0.44168090000000004,0.85606384
6.234253,-7.335952799999999,2.3144836,-1.1174927,0.41184998,0.7878876
5.9756775,-7.692688,1.9433898999999997,-0.8682251,0.41291809999999995,0.71224976
6.2581940000000005,-7.910553,1.7614288,-0.5465088,0.34580994,0.7239685
6.65802,-8.171524,1.7853699,-0.20988464,0.23182678,0.79533386
6.725052000000001,-8.619232,1.8691711,0.04045105,0.0688324,0.8667145
6.6364746,-8.911331,1.9912720000000002,0.14590454,-0.06326294,0.86138916
6.298889,-8.468399,2.046341,0.14910889,-0.05899048,0.7932129
6.4257812,-8.032653999999999,1.6177673000000001,0.032989502000000004,0.064575195,0.68881226
6.5047913,-8.286438,1.0623169,-0.21734619,0.20092773,0.6227722
6.2845306,-8.547409,1.2155457,-0.49005127,0.28507996,0.6589813
6.744217,-8.712616,1.9218445,-0.6210785,0.35006714,0.78256226
7.393036,-8.0781555,2.7095337,-0.5997772,0.38522340000000005,0.8752289000000001
8.21904,-7.692688,3.2530212000000005,-0.51135254,0.35751343,0.8816223
8.685913000000001,-7.9392853,3.6336975,-0.31961059999999997,0.23715210000000003,0.8624573
8.379456,-7.9440764999999995,3.7414245999999998,-0.08950806,0.09013367,0.87950134
8.056229,-7.673522999999999,3.490036,0.107559204,-0.04940796,0.8986664000000001
7.670761,-7.0270996,2.9345856,0.24179077,-0.12078857400000001,0.8475341999999999
7.414581299999999,-6.2489777,2.1899872000000005,0.26841736,-0.08670044,0.7047882
7.2015076,-5.585785,1.7063598999999998,0.23965454,-0.00680542,0.5993347
7.0315094,-5.1763763,1.2778015,0.20556639999999998,0.041137695,0.58122253
6.693939,-5.0111694,0.73431396,0.0990448,0.029418945,0.51730347
6.2797394,-5.190735,0.5954437,-0.096969604,-0.019577026,0.34899902
6.1983337,-5.5498657,1.2346953999999999,-0.28126526,-0.029174805,0.14659119
6.4736633,-5.597763,1.9864807,-0.44210815,0.06669617,-0.05368042
7.017150999999999,-5.5594482,2.2666016,-0.5805969,0.27017212,-0.18150329999999998
7.3834686000000005,-5.7102814,2.6065826000000003,-0.62854004,0.52690125,-0.29762268
7.4983826,-5.760559,2.7813567999999997,-0.48791504,0.75486755,-0.43183900000000003
7.5486603,-5.7581635,2.6065826000000003,-0.09590149,0.7516632,-0.5554199000000001
7.7306213,-5.523529,2.410263,0.36535645,0.4214325,-0.6757965
8.161575,-5.4900208,2.027176,0.71369934,-0.03024292,-0.6736603
8.2765045,-5.7773285,1.699173,0.93634033,-0.5479584,-0.59376526
8.288467,-6.284897,1.5794678,0.8692322,-0.94104004,-0.64382935
8.898987,-6.665572999999999,1.3376465,0.61994934,-1.0571442,-0.91015625
9.756119,-7.225814999999999,1.1221771,0.49105835,-0.8813781999999999,-1.196701
10.1032715,-7.5969086,1.5794678,0.4793396,-0.57244873,-1.3405151000000002
10.294815,-7.9991455,2.149292,0.53900146,-0.2368927,-1.306427
10.067368,-8.312775,2.5443267999999994,0.59332275,0.010238647,-1.2094878999999998
9.588516,-7.9081573,3.0303497000000004,0.54112244,0.0922699,-1.2243958000000001
9.001938,-7.233001700000001,3.6073608,0.47508240000000007,0.0965271,-1.3234711000000001
8.02272,-6.332779,4.2466125,0.47827148,0.064575195,-1.3969726999999998
8.092148,-6.6823273,4.090987999999999,0.501709,-0.0014801025,-1.3479767
8.420150999999999,-8.008713,3.2577972,0.49319458,-0.09095764,-1.2009735000000001
8.35791,-8.406158,2.7358703999999996,0.38986206,-0.16871643,-1.0582274999999999
8.580566000000001,-8.0542145,1.9026793999999998,0.19810486,-0.21559143,-0.96980286
8.961243,-7.386230499999999,1.4860992,0.018081665,-0.19429016,-0.9261322
8.896591,-7.1372222999999995,2.3504028,-0.12359619,-0.13462829999999998,-0.8803253000000001
8.034683,-7.158783000000001,2.9920502,-0.25143433,-0.12504578,-0.7993621999999999
7.304458599999999,-7.417342999999999,3.1907654,-0.28019714,-0.12397766,-0.5948334
6.713089,-7.2473600000000005,2.9992217999999995,-0.18218994,-0.1772461,-0.28164673
6.598160000000001,-6.713455000000001,2.2833557,-0.11401367,-0.22731018,-0.0025482178
6.6364746,-6.3974150000000005,1.8691711,-0.23439026,-0.19747925,0.09013367
6.562256,-6.4261475,1.9194488999999997,-0.50390625,-0.076034546,0.06669617
6.375503500000001,-6.938507,1.881134,-0.78193665,0.123168945,0.16470337
6.0235596,-7.173141499999999,1.7374878,-0.9513091999999999,0.3117218,0.4075775
5.879898000000001,-7.072586,1.4669341999999999,-1.0152283000000002,0.45126343,0.6451416
5.882293700000001,-6.921753,1.2227325,-1.0109711,0.46084595,0.7932129
6.116928,-6.933716,1.3328705,-0.8522339,0.44700623,0.93489075
6.1193237,-7.0534362999999995,1.6129913,-0.5465088,0.29786682,1.0126495
6.0642548,-7.2808839999999995,1.747055,-0.16195679,0.03794861,0.8709716999999999
5.918213,-7.8459167,2.185196,0.15657043,-0.15167236,0.5513916
6.00441,-8.444458000000001,2.6664276,0.17999268,-0.11972046,0.20411682
6.622101,-8.92569,2.5874328999999996,-0.1161499,0.06990051,0.005981445300000001
7.424164,-8.758102000000001,1.912262,-0.5273285,0.31384277,0.011306763000000001
8.096939,-8.765289,1.3520203000000002,-0.86927795,0.5897522,0.11889648400000001
8.02272,-9.447632,1.2801971,-1.0471802,0.80067444,0.38520813
6.9046173,-9.122025,1.7159423999999999,-1.0652924,0.8549957,0.7324829
5.834411599999999,-7.963226299999999,2.149292,-0.9917908000000001,0.69947815,1.0009308000000001
5.8128660000000005,-7.244964599999999,2.3695526,-0.83413696,0.45019529999999996,1.1532745
6.3156433,-7.2617188,2.8244476,-0.5965729000000001,0.17002869,1.2203827
6.825607300000001,-6.9504850000000005,3.16922,-0.30363464,-0.111190796,1.2565918
8.401000999999999,-6.847534,3.205124,-0.005355835,-0.32531738,1.2736359
9.827942,-6.6871184999999995,2.85318,0.25883484,-0.464859,1.2661896000000001
10.148773,-6.617691000000001,1.7877655,0.42074585,-0.51812744,1.2054596000000002
9.090530000000001,-6.0885620000000005,0.5020752,0.44631958,-0.49150085,1.0914764
7.5965424,-5.6049347,0.08308411,0.37600708,-0.41586304,0.93595886
6.5933684999999995,-5.4708557,0.33688354,0.26628113,-0.28483582,0.8166504
5.8894806,-5.5881805,0.85162354,0.15975952,-0.18363953,0.81451416
5.5494995000000005,-5.6863402999999995,1.426239,0.09690857,-0.18896484,0.81770325
5.8296204000000005,-5.5833892999999994,1.7638245,0.025543213,-0.29122925,0.7335510000000001
6.478454599999999,-5.5019836,2.1397095,-0.099105835,-0.34555054,0.54393005
7.0602417,-5.3942413,2.4916534,-0.2535553,-0.13783264,0.34793090000000004
7.4552917,-5.2697449999999995,2.6831970000000003,-0.37287903,0.12210083,0.20625305
7.8742676,-5.3391876,2.7358703999999996,-0.30149840000000006,0.22116089,0.06669617
8.04187,-5.298477,2.6640472,0.088394165,0.03794861,-0.14634705
8.209457,-5.1141205,2.3096924,0.6188965,-0.28909302,-0.36579895
8.424942,-4.9608917,1.8452301,0.99386597,-0.7077484,-0.53837585
8.7314,-5.1524353,1.4669341999999999,1.0311431999999998,-1.0102844000000002,-0.81747437
8.898987,-5.4948120000000005,1.29216,0.804245,-1.0582122999999999,-1.2393188
8.688309,-5.8515472,1.3089294,0.6540375,-0.8462219000000001,-1.6462401999999998
8.930114999999999,-6.083786,1.4094848999999998,0.64764404,-0.54689026,-1.8869933999999997
9.677109,-6.459671,1.5243988000000002,0.74246216,-0.2603302,-1.9477234
10.608459,-6.8092194,1.6800232,0.92248535,0.012374878,-1.8965912
11.329102,-7.613678,1.9792938000000002,1.0140991,0.08161926,-1.8752746999999999
10.809569999999999,-7.4101715,2.3743439,1.0151671999999998,0.01663208,-1.9168243000000003
9.727386,-6.478821,2.9968414,0.9949341,-0.03982544,-1.9615631000000002
9.768082000000001,-6.181946,4.0095825,0.9246216,-0.09841919,-1.9807433999999997
10.661118,-7.189895599999999,4.3615265,0.82022095,-0.13676453,-1.9455871999999999
11.245316,-8.339111,3.5977782999999994,0.6849365,-0.13569641,-1.8411865
11.702606,-8.698242,2.5658722000000003,0.50064087,-0.11758423,-1.6643523999999998
11.309952000000001,-7.9057617,1.8547973999999998,0.3035736,-0.09202576,-1.4757996000000002
10.577332,-7.4341125,2.4030762,0.11502075,-0.029174805,-1.3213348
9.358673,-7.343124400000001,3.1333007999999998,-0.013885498000000001,0.06776428,-1.1817932
8.180725,-7.3886259999999995,3.4565277,-0.071395874,0.07736206,-0.99324036
7.3714905,-7.290450999999999,3.5235595999999996,-0.14916992,0.011306763000000001,-0.73651123
6.942932000000001,-6.921753,2.865158,-0.292984,-0.045150757,-0.40414429999999996
6.8782806,-6.67276,2.1157684,-0.46128845,-0.07284546,-0.06539917
7.0554504,-6.902603,1.7446747,-0.6178894,-0.05154419,0.21583557
7.0698240000000006,-7.158783000000001,1.3903198,-0.7371979000000001,-0.031295776000000004,0.3990631
6.871109,-7.491561999999999,1.2299194,-0.86076355,0.029418945,0.5663147
6.4904327,-7.666351299999999,1.189209,-1.029068,0.11677551,0.7782898
6.0642548,-7.74057,1.0407715,-1.2091063999999998,0.20411682,1.0382233
5.764983999999999,-7.6208496,1.0216216999999999,-1.3262787,0.26696777,1.3087921
5.863144,-7.6112823,1.0599213,-1.3188323999999998,0.27549744,1.4313049
6.013977,-7.7669067,1.2394867,-1.1590424,0.31065370000000003,1.4696503
5.899063,-7.879425,1.4166565,-0.8234863000000001,0.2925415,1.4909515
5.7817383,-8.027878,1.3113098,-0.4495697,0.15937805,1.4504700000000001
5.6596375,-8.190674000000001,1.0599213,-0.27059937,-0.002532959,1.3492737
5.5734406,-7.989563,0.98091125,-0.32919312,-0.017456055,1.2427521000000001
5.673996,-7.599303999999999,1.1078033,-0.5230713,0.14553833,1.1639252
6.3874817,-7.651977499999999,1.2801971,-0.7478484999999999,0.39587402,1.0872191999999998
7.077011,-8.085327000000001,1.3544159,-0.9246825999999999,0.66004944,1.0286255
7.091369599999999,-8.185883,1.3304749,-1.0482483,0.8486023000000001,1.0052032
6.839981,-8.176314999999999,1.4717255,-1.1334686,0.8954773000000001,1.0115814
6.215088,-7.42453,1.8643798999999999,-1.1483917,0.82836914,0.9998779000000001
6.629287700000001,-6.828369,2.3623657000000002,-1.0780792,0.7133179000000001,1.0052032
7.6037292,-7.0223083,2.920227,-0.93107605,0.57270813,1.0776367
8.250167999999999,-7.0821686,3.4780731,-0.7489166,0.40013123,1.194809
8.903777999999999,-7.024703999999999,3.3966675000000004,-0.56036377,0.19773865,1.2843018
9.411346,-7.072586,2.5443267999999994,-0.3792572,0.01876831,1.2992096000000002
9.325165,-6.8307649999999995,1.6225586,-0.2184143,-0.122909546,1.2299652
8.69548,-6.167572,1.1149902,-0.061813354,-0.24328613,1.1436768
8.183121,-5.590576,1.0359802,0.076675415,-0.31146240000000003,1.1010742
7.845550500000001,-5.348755000000001,1.2059784,0.16508484,-0.37857056,1.0680542
7.618088,-5.3942413,1.3616028,0.19810486,-0.41799927,1.0211792
7.4552917,-5.5714264,1.4405975,0.12780762,-0.4329071,0.92103577
7.6252747,-5.7797089999999995,1.6824188000000002,-0.06288147,-0.38816833,0.71224976
7.7234343999999995,-5.96167,2.0247955,-0.28977966,-0.25926208,0.40652466
7.644424400000001,-6.1963042999999995,2.3575897,-0.45382690000000003,0.0038604736,0.10610962
7.6204834,-6.349533,2.494049,-0.49751282,0.31065370000000003,-0.18043518
7.891037,-6.265732,2.4964447,-0.29830933,0.5375519,-0.42332458
8.111298,-5.997589,2.5084229,0.18638611,0.50453186,-0.61613464
8.372269000000001,-5.5450897,2.4413757,0.76908875,0.1945343,-0.7993621999999999
8.578171000000001,-5.5019836,2.4126434,1.2069092,-0.2368927,-0.88671875
8.661972,-5.774933,2.398285,1.3773499,-0.67578125,-0.9825896999999999
8.779282,-5.9353333,2.221115,1.2324829,-0.96447754,-1.1956328999999999
9.200667999999999,-6.1843414,2.0343628000000002,1.01091,-1.0656738000000001,-1.5312042
9.748932,-6.4692383,1.7518463,0.9555054000000001,-1.0028229,-1.831604
10.543808,-6.7900696,1.5818633999999998,1.0684357,-0.8302459999999999,-1.9722137
11.314743,-7.10849,1.8380432,1.2420653999999998,-0.58843994,-1.9818115
11.501495,-7.3311615,2.398285,1.3027954,-0.34768677,-2.0020447
11.053772,-7.1515960000000005,3.0399323,1.2015839,-0.13569641,-2.1000519
10.172714,-6.6511993,3.9018402,1.0801544,0.005981445300000001,-2.196991
9.186295,-6.0622253,4.761368,1.0098419,0.054992676,-2.2065735
9.174332000000001,-6.4931946,4.766144000000001,0.99812317,0.034744263,-2.119217
9.289246,-7.4604490000000006,3.8563538,0.96617126,-0.021713257000000003,-1.9935303
9.583739999999999,-7.9752045,2.8172759999999997,0.8298187,-0.07070923,-1.8422546000000002
9.811188000000001,-7.9392853,1.8141022,0.6018524000000001,-0.06005859400000001,-1.6419830000000002
9.923706,-7.735778999999999,1.7973328000000002,0.35577393,0.00491333,-1.4257355
9.629227,-7.6902924,2.798111,0.12567139,0.05178833,-1.2691497999999999
8.937302,-7.977585,3.5953827000000005,-0.012817383,0.06350708,-1.1189423
8.104111,-7.989563,3.868332,-0.071395874,0.010238647,-0.9442444
7.735412599999999,-7.8028107,3.382309,-0.15875244,-0.04940796,-0.7290496999999999
7.8311768,-7.7022552,2.4006805,-0.29510498,-0.10160828,-0.46592712
7.7785034,-7.728592,1.9050751,-0.45915222,-0.11013794,-0.17085266
7.579788000000001,-8.073364,1.7877655,-0.6402588,-0.035568237,0.15724182
7.07222,-8.176314999999999,1.8212891,-0.80644226,0.008117675999999999,0.47042847
6.5885925,-8.049422999999999,1.6608734,-0.9225464,0.03794861,0.7846831999999999
6.160019,-7.9440764999999995,1.2730103000000002,-1.0312042,0.03048706,1.1021423000000001
5.832016,-7.853088400000001,0.93063354,-1.169693,0.031555176000000004,1.3897552
5.59021,-7.5777589999999995,0.8420563,-1.3081818,0.026229857999999998,1.6070708999999999
5.717102,-7.285675,0.8276825000000001,-1.345459,-0.00680542,1.6443481
5.8248444,-7.328766000000001,1.110199,-1.2016448999999998,0.014511108,1.6613921999999999
5.796112,-7.393402,1.4453888000000001,-0.8809966999999999,0.011306763000000001,1.7380981
5.788925,-7.654373,1.3568115,-0.5017699999999999,-0.024902344,1.8020171999999999
5.764983999999999,-7.941681,1.2418823,-0.2695465,-0.07070923,1.7604674999999999
5.8104705999999995,-8.056595,1.2107544,-0.28126526,-0.0046691895,1.6209258999999998
5.7194977,-7.869858,1.2059784,-0.49111938,0.19560242,1.3588715
5.9158173,-7.929702799999999,1.2610321000000002,-0.70843506,0.46617126,1.0872191999999998
6.3922577,-8.322357,1.4142609,-0.8213501,0.73249817,0.9604492
6.361145,-8.1380005,1.5387726000000002,-0.86076355,0.8869629000000001,0.9753723
6.4617004,-7.8770294000000005,1.5770721,-0.8916626,0.8922882,1.0531311
6.389862,-7.228210400000001,1.7087555,-0.9289398000000001,0.794281,1.115982
7.4959869999999995,-7.2138367,2.149292,-0.9097594999999999,0.60679626,1.1340941999999998
8.195099,-7.386230499999999,2.8938904,-0.77233887,0.39694214,1.1394196
8.460846,-7.498749,3.6049652,-0.57740784,0.2264862,1.115982
8.805617999999999,-7.4939575,3.8132629999999996,-0.35583496,0.08908081,1.036087
9.210236,-7.115677000000001,3.145279,-0.19070435,-0.033432007,0.9423523000000001
9.349105999999999,-6.6679688,2.2474517999999994,-0.09803772,-0.07710266,0.89334106
9.339523,-5.9880066,1.536377,-0.03730774,-0.04940796,0.8315582
8.985184,-5.4134064,1.4837036,0.027664185,-0.009994507,0.73143005
8.051437,-5.2122955,1.8093109,0.10649109,-0.019577026,0.61424255
7.2972717000000005,-5.3870697,1.8931122,0.13739014,-0.04833984400000001,0.46191406
7.007568400000001,-5.5570526,1.7997284,0.103302,-0.04194641,0.28082275
7.05307,-5.578598,1.6560822,-3.0517577999999997e-05,0.031555176000000004,0.08694458
7.4385223,-5.6887360000000005,1.833252,-0.13531494,0.20092773,-0.12930298
7.8120270000000005,-5.736618,2.3839264,-0.23971558,0.44593809999999995,-0.36154175
8.262131,-5.8515472,2.7095337,-0.2450409,0.65686035,-0.638504
8.678726,-5.887451,2.8675537,-0.11933899,0.70480347,-0.9516906999999999
8.669144000000001,-5.712676999999999,2.7526245,0.07135010000000001,0.6035919,-1.2009735000000001
8.427338,-5.6432495000000005,2.5587006000000003,0.13206482,0.5205078,-1.3309326000000001
8.652389999999999,-5.7797089999999995,2.453354,-0.06713867,0.75061035,-1.4502411
8.989975,-5.865906,2.4270172000000003,-0.43466187,1.3737793,-1.6600952000000002
9.071381,-5.810837,2.4581451000000003,-0.6498413000000001,1.9213256999999997,-1.9636993000000003
9.533463000000001,-6.177154499999999,2.2905425999999998,-0.42294312,2.132248,-2.1373290000000003
9.978775,-6.507553,2.118164,0.100112915,2.052353,-2.1405334
10.412125,-6.9600525,2.0439453000000003,0.54644775,1.8414307,-2.1298828
10.878998,-7.4508667,2.1516876,0.8372649999999999,1.6305083999999999,-2.1692963
10.914916999999999,-7.429321300000001,2.3743439,0.9789429000000001,1.4835052,-2.1650237999999997
10.778442,-7.1180725,2.6760101,0.9065094000000001,1.3929596000000002,-2.0009766
10.665909,-7.0989227,2.9513397,0.6508484,1.3535461000000002,-1.7261353
10.529449000000001,-7.711838,2.9273987,0.32273865,1.2534027,-1.463028
10.112853999999999,-8.238555999999999,2.4820862,0.08518982,1.1362305,-1.2425078999999999
10.124817,-8.329544,1.9170532,-0.022399902000000003,1.0765686,-1.0763245000000001
10.471985,-8.013504,1.8715668,-0.059677124000000005,1.0435485999999998,-0.89949036
10.361847000000001,-7.668747,2.3767395000000002,-0.08418274,0.93489075,-0.7556915
9.430511,-7.666351299999999,3.5810242,-0.2024231,0.7197113,-0.68963623
8.329178,-7.613678,4.4142,-0.45382690000000003,0.5886840999999999,-0.6512909
7.6635895000000005,-7.386230499999999,3.9832457999999997,-0.68818665,0.50346375,-0.5713959
7.275726299999999,-7.290450999999999,3.3368073,-0.6860656999999999,0.37882996,-0.43611145
6.816039999999999,-7.4436800000000005,2.8005066000000003,-0.5656891,0.18067932,-0.26139832
6.16481,-7.972809,1.9960631999999998,-0.5486449999999999,0.09120178,-0.11546326
5.3483887,-7.9201355,1.2969513000000001,-0.7435913000000001,0.21371460000000003,-0.04408264
4.958130000000001,-7.470016499999999,0.9497985999999999,-1.1047058,0.38627625,-0.0025482178
4.812088,-7.158783000000001,1.3927155,-1.5318756000000002,0.43528748,0.074157715
5.056305,-7.0821686,2.2306976,-1.8557129,0.32342529999999997,0.20732117
5.231079,-7.271301299999999,2.652069,-1.9888762999999998,0.1710968,0.37348938
4.9988402999999995,-6.8858337,2.7358703999999996,-1.9537201000000002,0.021957397000000003,0.55885315
4.8336334,-6.366287000000001,2.3743439,-1.7726288000000001,-0.24861145,0.6472626
5.0299683,-6.478821,2.015213,-1.5286865,-0.6267853,0.62916565
5.0515137,-6.8164062,2.173233,-1.2538452,-1.0220032,0.6909485
4.931793,-6.9983673,3.2242889999999997,-0.9236145,-1.2520905,0.8198395
5.041931,-7.3742523,3.9233856,-0.48579407,-1.165802,0.88801575
5.673996,-7.738174400000001,3.7917175000000003,-0.043701172,-0.75141907,0.8720398000000001
6.4617004,-7.989563,3.083023,0.020217896000000003,-0.15806579999999998,0.8581848
6.614928999999999,-7.912948599999999,2.3863068,-0.29724120000000004,0.26057434,0.91145325
6.583801299999999,-8.126038000000001,1.9529572,-0.5454406999999999,0.40759277,0.93807983
6.373108,-8.15477,2.173233,-0.54011536,0.30105590000000004,0.81877136
6.195938,-7.661560000000001,3.0231779999999997,-0.35476685,0.0038604736,0.5886840999999999
5.9948273,-6.8403472999999995,3.8802947999999997,-0.11933899,-0.31039429999999996,0.41397095
6.344375599999999,-6.11969,4.5865784000000005,0.0074310303000000005,-0.39881897,0.3756256
7.484024000000001,-6.3782654,4.9122010000000005,-0.043701172,-0.12823486,0.269104
8.080169999999999,-6.933716,5.259353599999999,-0.2535553,0.32556152,0.012374878
8.341141,-7.2425690000000005,5.8674774,-0.47940063,0.66004944,-0.16020203
8.570984,-6.861892699999999,6.650390600000001,-0.47514343,0.6493988,-0.12930298
8.575775,-6.205887000000001,6.942474400000001,-0.27273559999999997,0.35751343,-0.048355102999999997
8.300446,-5.719864,5.508346599999999,-0.028793335,0.047531128,-0.021713257000000003
7.654007000000001,-5.276932,3.382309,0.19491577,-0.06538391,0.085876465
7.345153999999999,-4.7861176,2.9896545,0.3270111,-0.09202576,0.2264862
7.658798,-4.391083,3.6576385,0.32168579999999997,-0.06965637,0.22969055
8.039474499999999,-4.245025599999999,4.294494599999999,0.21409607,-0.007858275999999999,0.045394897000000003
7.852722,-4.333618,4.5985565,0.034057617000000005,0.11250305,-0.18043518
7.345153999999999,-4.32164,4.5003967000000005,-0.13212585,0.32130432,-0.37431335
7.847931,-4.4533234,4.1915436,-0.15982056,0.58761597,-0.5202637
8.515915,-4.613739,3.7749481,-0.0650177,0.7644501,-0.5554199000000001
7.931732000000001,-4.764572,3.4589233,0.100112915,0.79107666,-0.42651367
6.777725,-4.9082184,3.9712677000000003,0.33552550000000003,0.66004944,-0.2326355
6.432968,-5.11174,4.6344757,0.55604553,0.4139862,-0.06112671
7.208678999999999,-5.956878700000001,4.8595276,0.7211609,0.009185791,0.0965271
7.342758,-6.617691000000001,4.933746299999999,0.9022522,-0.6225281,0.30958557
6.950119,-6.483612,4.679962000000001,1.1909332000000001,-1.5173492,0.53009033
7.287689,-6.3064423,4.213089,1.647934,-2.5261536,0.6909485
8.477615,-6.636841,3.9305725,2.1528625,-3.219635,0.7229004
9.124054,-7.249756,3.873108,2.2327576000000002,-3.1312256,0.6035919
9.2677,-7.953644000000001,4.2274475,1.774704,-2.2065735,0.45233154
9.274887,-8.688675,5.007965,1.2079773,-1.1157378999999998,0.35539246
8.575775,-8.841904,5.3958281999999995,0.9342040999999999,-0.4520874,0.36071777
7.1584015,-8.547409,5.197113,0.9331360000000001,-0.28909302,0.34260559999999995
5.741043,-7.5514220000000005,4.933746299999999,1.0322113000000002,-0.38177490000000003,0.23074341
4.689987,-6.3519287,4.4285736,1.1003876,-0.60121155,0.09971619
4.610977,-6.272918700000001,3.7725525,1.1163635,-0.9303894,0.01449585
5.147278,-7.221023599999999,3.4708862000000003,1.1238251,-1.2616882,-0.020660400000000002
6.0067900000000005,-8.312775,3.6767883,1.1259613000000002,-1.4949799,-0.033432007
6.634078999999999,-8.791625999999999,4.251404,1.0801544,-1.5663452,-0.034500122
6.837585400000001,-8.336716000000001,4.799667400000001,0.9352722,-1.5077515,-0.013198853
6.9596862999999995,-7.558609,4.124496499999999,0.7041168000000001,-1.3746033000000002,0.039001465
7.079391499999999,-6.924148599999999,2.896286,0.48999023,-1.1977692,0.07627869
7.0434875,-6.5434722999999995,2.4413757,0.33659363,-0.99324036,0.08161926
6.5598600000000005,-6.246582,2.9705048,0.18319702,-0.7886963,0.08267212
6.3515625,-5.7342224,3.3727263999999995,0.034057617000000005,-0.57032776,0.11676025400000001
6.571822999999999,-5.427765,3.2961120000000004,-0.11187744,-0.41586304,0.20518494
6.483246,-5.324814,2.8483887,-0.2695465,-0.35726929999999996,0.35325623
6.3994446,-5.561844000000001,2.5060272,-0.38565063,-0.41799927,0.48214722
6.4305725,-6.023926,2.4294127999999997,-0.40162659999999994,-0.5330353,0.5332794
6.557464599999999,-6.363907,2.5682678,-0.32174683,-0.6108093000000001,0.50346375
6.5646515,-6.531494,2.6568604,-0.25782776,-0.5394287,0.4544525
6.5335236,-6.5721893,2.4892578,-0.19390869,-0.37431335,0.36923218
6.5814056,-6.715851,2.2259064,-0.055419922,-0.24009705,0.19560242
6.820831299999999,-6.8211975,2.3144836,0.22261047,-0.12184143,0.005981445300000001
7.2062990000000005,-7.067794999999999,2.5946045,0.5283356,-0.00680542,-0.18043518
7.472046000000001,-7.367065400000001,2.5706634999999998,0.5847931,0.16790771,-0.4009552
7.709076,-7.8890076,2.5131989,0.34512329999999997,0.44274902,-0.5809784
7.74498,-8.276871,2.4006805,-0.0032196045,0.76338196,-0.5852356
7.692322,-8.556992,2.1564636000000004,-0.31640625,0.94981384,-0.42012024
8.171158,-8.755707000000001,2.2019653,-0.5379944000000001,0.88908386,-0.11759949
8.772095,-8.583328,2.5060272,-0.60935974,0.5940094,0.2499237
8.829559,-7.651977499999999,2.9800720000000003,-0.47193909999999994,0.15405273,0.5524597
8.434525,-6.675140400000001,3.042328,-0.18537903,-0.33810425,0.7505951
7.776108,-5.4948120000000005,3.0662689999999997,0.12034607,-0.7567444000000001,0.8805542
8.020325,-5.162018,3.2506256000000002,0.34405518,-0.97724915,0.9689789000000001
8.858292,-5.9832152999999995,3.6313019,0.46122742,-1.0220032,1.0137177
9.282059,-6.5841675,3.6360931000000005,0.53686523,-0.97831726,0.95726013
9.097717,-6.648803699999999,2.4844817999999997,0.6039734,-0.8270569,0.8166504
8.168762,-6.4644623,1.050354,0.63912964,-0.56500244,0.653656
6.650833,-6.2178497,0.43743896,0.6316681,-0.25393677,0.5183715999999999
5.345993,-6.086166400000001,0.37039185,0.53793335,0.010238647,0.45870972
4.4194336,-5.9521027,0.5332031,0.39837646,0.15512085,0.45552063
3.9980621,-5.877884,1.0000763000000001,0.27160645,0.12635803,0.46617126
4.2925415000000005,-5.731827,1.8595886000000001,0.09690857,-0.024902344,0.431015
4.9006805,-5.5259247,2.6855927000000004,-0.108688354,-0.14634705,0.35005188
5.6285095,-5.566635,3.0973968999999997,-0.30789185,-0.19961548,0.22329712
6.404236,-5.88266,3.121338,-0.47940063,-0.099472046,0.048583984000000004
6.89505,-5.9161835,2.944168,-0.61468506,0.1987915,-0.18150329999999998
7.414581299999999,-5.6983185,2.8843078999999996,-0.6306609999999999,0.5950774999999999,-0.3540802
7.847931,-5.523529,2.9537354,-0.43572998,0.94981384,-0.34236145
7.845550500000001,-5.3200226,2.8723297000000003,-0.12147522,1.0350342,-0.21240234
7.6564026,-5.1811676,2.6329192999999997,0.17893982,0.7889556999999999,-0.111206055
7.5965424,-5.585785,2.0990142999999994,0.45271300000000003,0.3436737,0.020889282
7.776108,-6.2010955999999995,1.5794678,0.73713684,-0.35833740000000003,0.15830994
8.096939,-6.574585000000001,1.4310303,0.9203644,-1.1413116,0.18067932
8.851105,-7.1875,1.2634277,0.9395294,-1.5993652,-0.0025482178
9.5933075,-7.7621155,1.3424377,0.8841399999999999,-1.5599518,-0.30401609999999996
10.127213000000001,-7.9991455,1.857193,0.7808075,-1.1477051,-0.5735321
10.534225,-8.195464999999999,2.5131989,0.6700286999999999,-0.5831145999999999,-0.73651123
10.328323,-8.023087,2.9585266,0.5539093,-0.07923889,-0.77485657
9.475997999999999,-7.616073599999999,3.4277954,0.42820740000000007,0.22116089,-0.7056121999999999
8.046661,-7.185104400000001,4.0550690000000005,0.30464172,0.26803590000000005,-0.61613464
6.6077423,-6.495575,4.110138,0.19810486,0.12742615,-0.5905762
6.784911999999999,-6.756546000000001,3.4828644,0.17147827,-0.11758423,-0.61187744
7.347549400000001,-7.5849457,2.896286,0.22047424,-0.36473083,-0.61613464
7.7066803,-7.9368896,2.6760101,0.26309204,-0.5128020999999999,-0.5809784
8.262131,-7.7142334,2.367157,0.23114014,-0.4744568,-0.50961304
8.970825,-7.3000336,2.1540833,0.107559204,-0.34661865,-0.49363708
8.997162,-6.713455000000001,2.4772950000000002,-0.09376526,-0.20280457,-0.5341034
8.295653999999999,-6.313629,2.7286835,-0.27806090000000006,-0.021713257000000003,-0.5213318
7.4050139999999995,-6.191513,2.8052979,-0.38352966,0.13807678,-0.44676208
6.619705000000001,-6.2202454000000005,2.5946045,-0.44424438,0.20625305,-0.30827332
6.160019,-6.4093933,2.1468964,-0.4921875,0.1668396,-0.11653137
5.954117,-6.35672,1.7518463,-0.5465088,0.07948303,0.025146484
5.9756775,-6.0742035,1.536377,-0.5923156999999999,0.014511108,0.08055115
6.0953827,-5.906601,1.6752319,-0.6498413000000001,0.047531128,0.17321777
6.188751,-6.052658,2.0774689,-0.71694946,0.09120178,0.37030029999999997
6.4114227,-6.4931946,2.3575897,-0.8309325999999999,0.06137085,0.5790863
6.586197,-6.845138499999999,2.343216,-0.9449158000000001,0.057113647000000003,0.69200134
6.562256,-6.766128500000001,2.1804047000000004,-0.93852234,0.064575195,0.6589813
6.837585400000001,-6.924148599999999,1.9529572,-0.7531738,0.08694458,0.58547974
7.1033479999999996,-7.534667999999999,2.0104218,-0.32707214,0.05392456,0.6025238
7.270935000000001,-8.097305,2.2354736,0.22474670000000002,-0.12397766,0.66537476
7.347549400000001,-8.726974499999999,2.2618103,0.6316681,-0.28057859999999996,0.64193726
7.326003999999999,-9.081314,2.161255,0.75097656,-0.31466675,0.49067688
7.179962,-8.719788000000001,2.0247955,0.6050415,-0.15592957,0.31916809999999995
7.1464386,-8.183487,1.9816895,0.31741333,0.1434021,0.19026184
7.290085,-8.437286,1.9050751,0.027664185,0.42250059999999995,0.12422180000000001
6.669983,-8.130828999999999,1.8524017,-0.15342712,0.5332946999999999,0.10504150400000001
6.385086,-7.7070465,1.7446747,-0.21308899,0.46405029999999997,0.10717773400000001
6.614928999999999,-7.182724,1.9242401000000002,-0.20349121,0.30000305,0.16151428
6.883072,-6.3231964000000005,2.5922089,-0.120407104,0.10292053,0.28082275
7.4385223,-6.349533,3.3320160000000003,0.044708252000000004,-0.09095764,0.39692688
7.7665405,-6.8954163,4.1867523,0.21728516,-0.22624207,0.4683075
8.099335,-7.333557000000001,4.5195465,0.34191895,-0.26139832,0.53434753
8.748154,-7.4269257,3.7964935,0.41755676,-0.23156738,0.6025238
8.949264999999999,-6.823592999999999,2.5036316000000003,0.42181396,-0.17617798,0.5940094
8.470428,-6.095749,1.4405975,0.30889893,-0.08030701,0.46617126
7.692322,-5.4852295,0.758255,0.11502075,0.07203674,0.33834840000000005
7.0147552,-5.2099,0.55474854,-0.071395874,0.19346619,0.30744934
6.5454865,-5.2099,0.7845916999999999,-0.19816589999999998,0.23927307,0.29891968
6.3946533,-5.336792,1.1030273000000002,-0.28871155,0.22010803,0.1987915
6.3156433,-5.6001434,1.3568115,-0.34091187,0.21903992,0.050720215
6.100174,-5.731827,1.7398833999999999,-0.35902405,0.28614807,-0.10374451
5.9996184999999995,-5.671982,2.233078,-0.3941803,0.4960022,-0.20494079999999998
6.1743927,-5.6049347,2.453354,-0.40802002,0.72610474,-0.2571411
6.456909,-5.8419647,2.3815307999999997,-0.3153534,0.8155823,-0.32106018
6.7561800000000005,-6.028716999999999,2.240265,-0.106552124,0.6451416,-0.4286499
7.2182617,-5.930557299999999,1.9505615,0.12248230000000002,0.315979,-0.44143677
7.847931,-5.870697,1.4429931999999999,0.37921143,-0.19108582,-0.31785583
8.209457,-6.1484222,1.1365356000000002,0.59651184,-0.74502563,-0.20175171
8.214249,-6.6129,1.165268,0.6519165,-1.0624695,-0.25395203
8.477615,-7.041458,1.4884948999999998,0.59332275,-0.92185974,-0.46487427
9.124054,-7.328766000000001,1.857193,0.56988525,-0.37005615,-0.6555481
9.602889999999999,-7.630432000000001,2.2905425999999998,0.5517731,0.11996459999999999,-0.7578125
9.918915,-7.915344,2.7406616,0.45164490000000007,0.36923218,-0.91867065
9.820755,-8.142792,2.8483887,0.31954956,0.55566406,-1.2307892
8.985184,-7.575363,2.948944,0.21195984,0.68455505,-1.5865936
8.353119,-7.000763,3.138092,0.13845825,0.72717285,-1.8113556
8.511139,-7.096527,3.2338562,0.12460327,0.6770935,-1.8294678
8.949264999999999,-8.339111,2.8795166,0.13845825,0.48641968,-1.6590271
8.7314,-8.930481,2.798111,0.13206482,0.15193176,-1.372467
8.537460000000001,-8.564178,2.877121,0.10862732,-0.1772461,-1.1434479
8.77449,-7.6232452,2.8364257999999998,0.097976685,-0.36366272,-1.0880432
9.325165,-7.0869446,2.920227,0.13206482,-0.37431335,-1.1082916
9.497542999999999,-7.0821686,3.2985077000000005,0.09690857,-0.30187988,-1.0486298
8.913361,-6.833160400000001,3.0183868,-0.058624268,-0.22731018,-0.89630127
8.480011,-6.1580048,2.2187195,-0.24822998,-0.15913391,-0.6576843000000001
8.690704,-5.815628,1.8212891,-0.4176178,-0.16978455,-0.39988708
8.594925,-5.928161599999999,1.6848145,-0.5742035,-0.18896484,-0.23477173
7.7018889999999995,-6.234619,1.639328,-0.6999054,-0.11439514,-0.1506195
6.6316833,-6.708664,1.7446747,-0.867157,0.057113647000000003,-0.034500122
5.990036,-7.3311615,1.8404387999999998,-1.1526489,0.28933716,0.22541809
5.5159910000000005,-7.5849457,1.8500061,-1.3955231000000001,0.44700623,0.58229065
5.472885,-7.201874,2.0295715,-1.4658356000000001,0.53541565,0.86032104
5.865539599999999,-6.610504,2.4078673999999998,-1.359314,0.5183715999999999,1.0478058000000001
5.9756775,-6.260956,2.8819122000000004,-1.1281433,0.33834840000000005,1.1607208
5.566269,-6.342346,2.7119293,-0.8980408000000001,0.12742615,1.162857
5.2598114,-6.708664,2.1564636000000004,-0.6817932,-0.021713257000000003,1.036087
5.147278,-7.096527,1.8715668,-0.550766,-0.034500122,0.8816223
5.3747253,-7.407775999999999,1.8715668,-0.611496,0.11357117,0.86990356
6.1576385,-7.5777589999999995,1.9457855,-0.80430603,0.38841248,1.0147858
6.808853,-7.6639557,2.1468964,-0.9715575999999999,0.6483306999999999,1.1852264
7.0985565,-8.238555999999999,2.1708374,-0.9886017,0.81025696,1.2960205
6.6628112999999995,-8.805984500000001,1.7494506999999997,-0.83625793,0.81451416,1.3130646000000001
5.74823,-8.33194,1.857193,-0.5923156999999999,0.6462097,1.2278441999999998
5.9254,-7.7860565,2.4485626,-0.43891907,0.36817932,1.0595245
6.2438199999999995,-6.907379,2.9273987,-0.47833252,0.085876465,0.8251648000000001
6.634078999999999,-6.150818,3.1596375,-0.58699036,-0.056869507,0.5844116
7.7162630000000005,-6.2298279999999995,2.9226074,-0.5805969,-0.0014801025,0.39480590000000004
8.894211,-6.399811,2.7478333,-0.47087097,0.19773865,0.25311279999999997
9.404175,-6.5290985,2.4748992999999997,-0.37820435,0.44700623,0.13912964
8.903777999999999,-6.6871184999999995,1.8356476000000002,-0.29510498,0.6163788,0.06562805
7.871886999999999,-6.4405212,1.3544159,-0.19284058,0.70373535,0.07202148400000001
7.378677400000001,-5.8419647,1.4741211,-0.045837402,0.63874817,0.14019775
7.574997,-5.2434080000000005,1.9960631999999998,0.07879639,0.41503906,0.18067932
8.020325,-4.7526093000000005,2.4868773999999996,0.17466736,0.22862244,0.16789246
8.659576,-4.4389650000000005,2.6496735,0.28227234,0.0922699,0.16470337
9.243758999999999,-4.359955,2.2618103,0.30569458,-0.013198853,0.19772339
9.552612,-4.3671417,1.6082001,0.21621704,-0.050476074,0.21369934
9.763306,-4.640075700000001,1.5962219,0.08093262,-0.01852417,0.12208557
9.657959,-4.905838,2.4342040000000003,-0.031982422,0.13700867,-0.0014801025
9.289246,-4.989624,3.2434387000000005,-0.07034302,0.27442932,-0.01852417
8.767319,-5.001602,3.3607483,-0.010681152,0.23075867,0.015563965
8.345932000000001,-5.150039700000001,3.2817383,0.14910889,0.026229857999999998,-0.017456055
8.025116,-5.535507,3.1500702,0.36749268,-0.23902893,-0.15701294
7.675552400000001,-5.5522614,3.0806273999999996,0.61994934,-0.48297120000000004,-0.38284302
8.017928999999999,-5.760559,2.9154357999999996,0.79678345,-0.6640625,-0.6001586999999999
8.489578,-6.0670166,2.8076935,0.92141724,-0.72372437,-0.71520996
8.439300999999999,-6.1460266,2.9130402,1.0769501,-0.6544800000000001,-0.7482300000000001
8.283676,-6.2896730000000005,2.707138,1.1515198,-0.5010834,-0.81108093
8.2573395,-6.256164599999999,2.4485626,1.0865479,-0.32424927,-0.9048156999999999
8.855896000000001,-6.301651000000001,2.5467223999999997,0.9853363000000002,-0.15699768,-0.98791504
9.456847999999999,-6.794861,2.9106445,0.8926697,-0.019577026,-1.0454407
8.88942,-6.773315400000001,3.3176574999999997,0.81277466,0.046463013,-1.0550232
8.135239,-6.301651000000001,3.5881958,0.77441406,-0.007858275999999999,-0.99324036
8.264526,-6.0981445,3.9018402,0.7477875,-0.15699768,-0.8792572
8.956451,-6.4548798,4.1364746,0.7073059,-0.32850647,-0.7865753000000001
9.435286999999999,-6.6990814,4.521942,0.64126587,-0.46273804,-0.7247925000000001
9.531067,-7.158783000000001,4.5674285999999995,0.56137085,-0.5032196,-0.6598053
9.34671,-7.972809,4.4764557,0.49957275,-0.47018433,-0.55648804
8.985184,-8.372635,4.6775665,0.49105835,-0.42970276,-0.44355774
8.819977,-8.425308,4.366317700000001,0.46229553,-0.39881897,-0.3540802
8.37706,-8.032653999999999,3.5953827000000005,0.34512329999999997,-0.40521240000000003,-0.29016113
7.692322,-7.4652405,3.121338,0.20663452,-0.4606018,-0.1772461
7.0051727,-6.9121704,2.8507842999999995,0.15336609,-0.5575409,-0.0025482178
6.40184,-6.691910000000001,2.61615,0.14590454,-0.5575409,0.18067932
6.009186,-6.7900696,2.5155945,0.06388855,-0.4606018,0.29891968
5.9373627,-7.0941315000000005,2.453354,-0.18218994,-0.36898804,0.32130432
5.973282,-7.1803284,2.3767395000000002,-0.54971313,-0.15487671,0.35005188
5.9206085,-7.031875599999999,2.35997,-0.914032,0.0496521,0.51730347
5.8511809999999995,-7.0031586,2.4653167999999996,-1.1174927,0.12954712,0.7484741
5.74823,-7.106109599999999,2.5993958,-1.0738219999999998,0.097595215,0.8986664000000001
5.599777,-6.919357300000001,2.7478333,-0.87887573,0.025161742999999997,0.95832825
5.4058532999999995,-6.5674133,2.580246,-0.62960815,-0.08670044,1.0179749
5.4297943,-6.428543,2.0822449,-0.40162659999999994,-0.31785583,1.0637816999999998
5.527954,-6.794861,1.8236694,-0.23757935,-0.591629,1.082962
5.8056792999999995,-7.333557000000001,2.1229553,-0.07778931,-0.69815063,1.1234436
6.4664764,-7.8914029999999995,2.4198303,0.058563232,-0.59376526,1.1330261000000001
6.8495482999999995,-7.972809,2.2354736,0.08200073,-0.35514832,1.0776367
7.3762817,-8.09491,1.5866547,-0.011749268,-0.021713257000000003,0.9604492
7.855117999999999,-8.801193,1.0455627,-0.14596558,0.32130432,0.796402
7.1584015,-8.805984500000001,0.92585754,-0.26741028,0.5247649999999999,0.6195679000000001
6.377899,-8.202652,1.4477844,-0.33558655,0.4960022,0.46723938
6.535919,-7.517898599999999,2.3958892999999994,-0.36967468,0.30851746,0.37136840000000004
7.175171000000001,-7.230606,2.901062,-0.39097595,0.10824585,0.30744934
7.213470500000001,-6.7517548,3.0135956000000004,-0.35795593,-0.007858275999999999,0.29359436
7.4121857,-6.519516,2.829239,-0.24822998,-0.05154419,0.35325623
8.025116,-6.7469788,2.4653167999999996,-0.06713867,-0.07284546,0.4491272
8.391418,-6.9959717,2.5467223999999997,0.1736145,-0.08242798,0.5375519
8.417755,-6.6344449999999995,2.6712189,0.38879395,-0.127182,0.5482024999999999
8.149612,-5.753372,2.3695526,0.47401428,-0.1857605,0.4725647
7.912582400000001,-4.989624,1.8835297,0.44418335,-0.22944641,0.40013123
7.843155,-4.57782,1.5387726000000002,0.34191895,-0.26991272,0.35112
7.8096312999999995,-4.4533234,1.244278,0.22579956,-0.302948,0.26164246
7.835967999999999,-4.5634613,1.1389313,0.12780762,-0.21984863,0.10824585
7.733017,-4.807663,1.1987915,0.052169799999999995,-0.08456421,-0.09628296
7.692322,-5.063843,1.3855438,-0.021331787,0.056045532,-0.27311707
7.484024000000001,-5.2697449999999995,1.9170532,-0.02558899,0.22969055,-0.35194397
7.1703796,-5.499588,2.6137695,0.0756073,0.31491090000000005,-0.42118835
7.165588400000001,-5.808441,3.0854187,0.29399109999999995,0.26377870000000003,-0.5447693
7.3164215,-5.911392,3.3942718999999997,0.5773468,0.10612488,-0.6321106
7.5462646,-5.633667,3.2554016,0.7850647,-0.1772461,-0.61294556
8.163971,-5.743805,2.5778502999999997,0.9022522,-0.52664185,-0.5447693
8.501555999999999,-6.162781,1.9673308999999997,0.9480591,-0.783371,-0.5266571
8.649994,-6.6033173,1.7279053,0.96084595,-0.8824463,-0.5948334
9.329956,-7.16835,1.8955078,0.98747253,-0.8345031999999999,-0.6512909
10.199050999999999,-7.735778999999999,2.3456116000000002,1.0162354,-0.68110657,-0.59376526
10.586899,-8.018295,2.7837523999999996,0.99386597,-0.56925964,-0.5309143
10.735352,-8.588119500000001,2.9417725,0.92781067,-0.49255370000000004,-0.5351715
10.064972000000001,-8.5522,3.2506256000000002,0.86390686,-0.44888306,-0.6001586999999999
9.080948,-7.721420299999999,3.5522919,0.8106384,-0.44248962,-0.68751526
8.661972,-7.1492004,3.703125,0.771225,-0.47125244,-0.7524871999999999
8.2765045,-7.2425690000000005,3.679184,0.72221375,-0.51493835,-0.73332214
7.572601299999999,-7.441284,3.1548462,0.63594055,-0.5128020999999999,-0.60762024
7.136856,-7.508331299999999,2.7550201000000003,0.53686523,-0.42437744,-0.4286499
7.091369599999999,-7.481994599999999,2.6808014,0.39411926,-0.27844238,-0.2528839
7.5031740000000005,-7.604095500000001,2.7598114,0.1821289,-0.13995361,-0.118652344
7.5893707,-7.704650999999999,2.9226074,-0.030929565,-0.050476074,-0.033432007
6.820831299999999,-7.367065400000001,3.0231779999999997,-0.16300964,-0.087753296,0.026214599999999994
6.140869,-6.8020325,2.7693787,-0.18218994,-0.20600891,0.1476593
6.1289062,-6.5290985,2.453354,-0.18858337,-0.35726929999999996,0.28933716
6.2893066,-6.421355999999999,2.3504028,-0.30363464,-0.4137268,0.32981873
6.3707123,-6.53389,2.2905425999999998,-0.49963379999999996,-0.25820923,0.27761840000000004
6.1983337,-6.768524,2.2929382,-0.68074036,0.03794861,0.2264862
5.7362519999999995,-6.873871,2.2426605,-0.84158325,0.362854,0.32556152
5.2358704000000005,-7.0510406,2.1684417999999996,-1.0045776,0.5609894,0.5524597
5.013199,-7.230606,2.1875916,-1.0439911,0.6493988,0.7505951
4.8815155,-7.0510406,2.0367584,-0.8714142,0.55992126,0.86990356
4.953354,-6.8092194,1.6034088,-0.46342468,0.34899902,1.0222473
5.369934,-6.766128500000001,1.3783569,0.11395264,-0.031295776000000004,1.1309052
5.985244799999999,-7.0438538,1.4597626,0.595459,-0.39456177,1.0382233
6.353958,-7.604095500000001,1.8308563000000002,0.7903899999999999,-0.46806335,0.73887634
6.7873077,-8.056595,2.0990142999999994,0.6274109,-0.26139832,0.38841248
7.7665405,-8.554596,2.0176086,0.19810486,0.13700867,0.09866333
8.372269000000001,-8.753311,1.9984589,-0.26101685,0.5439453000000001,-0.05154419
8.649994,-9.078918,2.2450562,-0.5230713,0.75061035,-0.05154419
7.9053955,-9.289612,2.3504028,-0.55822754,0.714386,0.047531128
6.672378500000001,-8.82753,2.2570342999999995,-0.46875,0.52796936,0.15405273
6.0642548,-7.958435000000001,2.6353150000000003,-0.31854248,0.30212402,0.23181152
6.377899,-7.513122599999999,3.2530212000000005,-0.12680054,0.05178833,0.29998779999999997
6.7035065000000005,-7.481994599999999,3.868332,0.10543823,-0.20280457,0.37136840000000004
7.4002229999999996,-7.3910065000000005,4.2873077,0.31848145,-0.33703613,0.41610718
8.705063,-7.369461,3.7701568999999995,0.44844055,-0.34980774,0.39160156
9.674713,-7.158783000000001,2.6568604,0.5038452,-0.29867554,0.3756256
9.12883,-6.308838,1.3903198,0.45910645,-0.20494079999999998,0.41610718
8.025116,-5.576202400000001,0.32969666,0.32273865,-0.10054016,0.46403503
7.0698240000000006,-5.363128700000001,-0.017471313,0.16189575,-0.014251709,0.4683075
6.2366333,-5.348755000000001,0.44461059999999997,-0.002166748,0.0730896,0.41610718
5.6979370000000005,-5.3846739999999995,1.1916046,-0.12680054,0.048599243,0.26057434
5.681183,-5.427765,1.699173,-0.21202087,-0.035568237,0.054977417
5.927795400000001,-5.4445343,2.0678864,-0.24822998,0.024093628,-0.06965637
6.222275,-5.6240997,2.3456116000000002,-0.22799683,0.15725708,-0.17617798
6.5047913,-5.7916870000000005,2.6233367999999997,-0.17579651,0.29040527,-0.31359863
6.830398599999999,-5.877884,2.738266,-0.026657103999999997,0.39266968,-0.43823242
7.263748,-5.906601,2.494049,0.14057922,0.35964966,-0.5724640000000001
7.290085,-5.949707,2.1995697,0.21621704,0.2456665,-0.63531494
7.2493896,-6.2513733,1.7614288,0.25350952,0.048599243,-0.6417084
7.555847,-6.6320496,1.3184966999999999,0.3025055,-0.24009705,-0.5905762
8.12088,-6.7852783,1.2035828000000002,0.372818,-0.5351715,-0.5362395999999999
8.836746,-7.1300507,1.3089294,0.45271300000000003,-0.75035095,-0.54263306
9.6819,-7.4891815,1.6297455,0.49424744,-0.7897644,-0.605484
10.534225,-8.126038000000001,2.063095,0.501709,-0.66833496,-0.6789856
10.788025,-8.88739,2.5682678,0.49745178,-0.44888306,-0.72372437
10.120041,-8.341507,3.0207825,0.46868896,-0.22731018,-0.7546234
9.454452499999999,-7.5514220000000005,3.1141509999999997,0.40583800000000003,-0.09735107400000001,-0.81214905
8.709854,-6.8690796,3.399063,0.34405518,-0.06645203,-0.8781891
8.240585000000001,-6.478821,3.2601929,0.31208800000000003,-0.09735107400000001,-0.91867065
7.984405499999999,-6.861892699999999,2.6568604,0.3035736,-0.14848328,-0.9261322
8.108902,-7.5873413,2.2905425999999998,0.27481079999999997,-0.19322205,-0.87286377
8.077774,-7.979980499999999,2.3049164,0.19810486,-0.18789673,-0.76420593
7.788086,-7.8506927,2.5155945,0.08518982,-0.16978455,-0.638504
7.601333599999999,-7.383835,2.8316345000000003,-0.023468017999999997,-0.1772461,-0.5042877
7.519928,-6.993575999999999,2.9776764,-0.106552124,-0.16978455,-0.34449768
7.3858643,-6.749374400000001,2.9992217999999995,-0.18644714,-0.15806579999999998,-0.1772461
7.167984,-6.639236500000001,3.0255585,-0.28552246,-0.15592957,-0.036636352999999997
6.950119,-6.53389,2.8340302000000004,-0.36434937,-0.127182,0.062438965
6.823227,-6.3854523,2.4844817999999997,-0.45596313,-0.057937622,0.09120178
6.681961,-6.2489777,2.2187195,-0.5560913000000001,0.05178833,0.07734680000000001
6.42099,-6.2010955999999995,2.1229553,-0.67007446,0.11463928,0.06350708
6.2534027000000005,-6.2920685,2.0654907,-0.8117675999999999,0.1902771,0.19985962
5.9373627,-6.375869799999999,1.9792938000000002,-0.9278716999999999,0.25099182,0.42356873
5.537536599999999,-6.3591156,1.881134,-0.9800719999999999,0.33728027,0.5695038
5.278961,-6.237015,1.7949523999999997,-0.91722107,0.41291809999999995,0.62916565
5.3483887,-6.361511,1.7662201000000002,-0.7041626,0.5013274999999999,0.7367554000000001
5.4992220000000005,-6.622466999999999,1.833252,-0.3473053,0.43954468,0.93595886
5.693161,-6.792464999999999,1.8787383999999998,0.020217896000000003,0.20199585,1.1404877
6.2964934999999995,-7.249756,1.8787383999999998,0.3025055,-0.050476074,1.178833
6.9836273,-7.6855009999999995,2.1133728,0.45376587,-0.162323,1.0488739
7.689926,-7.9320984,2.197174,0.42713928,-0.09414673,0.8507385000000001
8.00116,-8.109268,2.1899872000000005,0.23965454,0.07203674,0.6983948
8.293258999999999,-8.518677,2.1205597000000003,-0.017074585,0.23820496,0.59506226
7.8263855,-9.016678,2.0056305,-0.23118591,0.31491090000000005,0.50346375
6.9333496,-8.614456,2.2378693,-0.34516907,0.30000305,0.45126343
6.602950999999999,-7.7956389999999995,2.6424866000000002,-0.36648559999999997,0.24780273,0.45765686
6.823227,-7.4101715,3.09021,-0.30895996,0.17855835,0.47895813
6.9716644,-7.6878967000000005,3.5187682999999996,-0.21202087,0.11038208,0.47363279999999996
6.964477499999999,-7.862671000000001,3.734253,-0.11187744,0.058181763,0.5151825
7.108124,-7.814789,3.4158172999999996,-3.0517577999999997e-05,-0.034500122,0.6483306999999999
7.658798,-7.3718566999999995,2.845993,0.12567139,-0.14422607,0.7751007
8.104111,-6.888229400000001,2.2833557,0.23751831,-0.19747925,0.7921448
7.998779300000001,-6.0933532999999995,1.6153870000000001,0.30569458,-0.20600891,0.70692444
7.462478599999999,-5.4612885,0.9641571,0.30996704,-0.20812988,0.6195679000000001
7.050674400000001,-5.2075043,0.6026305999999999,0.24284363,-0.21772766,0.60040283
6.969269000000001,-5.1572265999999996,0.64811707,0.14271545,-0.21559143,0.5695038
6.8519440000000005,-5.2290497,1.0383759,0.009552001999999999,-0.20387268,0.43954468
6.7633667,-5.399032599999999,1.505249,-0.18112183,-0.14955139,0.26271057
6.8663177,-5.660003700000001,1.9936676,-0.37820435,0.00065612793,0.06562805
7.127289,-5.827605999999999,2.3144836,-0.51242065,0.27868652,-0.09735107400000001
7.100952,-6.0670166,2.3839264,-0.5252074999999999,0.52583313,-0.23051453
6.820831299999999,-6.260956,2.4006805,-0.29617309999999997,0.65367126,-0.3263855
6.9237823,-6.234619,2.4748992999999997,0.20663452,0.52264404,-0.4371643
7.4911957,-6.0263214000000005,2.4796906,0.710495,0.09120178,-0.5543518
8.10173,-5.861114499999999,2.2953339,0.9991913,-0.48722840000000006,-0.60762024
8.2765045,-5.750992,1.9625397,1.1025238000000002,-1.0017548,-0.6108093000000001
8.422546,-6.1412354,1.6249542,0.94273376,-1.2797851999999998,-0.73332214
8.891815,-6.562622,1.6105957,0.6838684,-1.2925719999999998,-1.0518341
9.703445,-6.9169617,1.7494506999999997,0.53793335,-0.9868469000000001,-1.3490448
10.172714,-7.302428999999999,1.9170532,0.47294617,-0.5490265000000001,-1.4779358
10.644363,-7.8339386,2.2570342999999995,0.51342773,-0.11332703,-1.4342651000000002
10.646759,-8.090117999999999,2.7550201000000003,0.61250305,0.1902771,-1.3074951000000001
9.930893,-7.539459,3.2362518,0.6806793000000001,0.20625305,-1.2243958000000001
8.834351,-6.658386,3.9114226999999997,0.7051696999999999,0.06350708,-1.2393188
8.027496000000001,-5.86351,4.565033000000001,0.69132996,-0.09202576,-1.306427
8.111298,-6.153213500000001,4.1676025,0.65830994,-0.22305298,-1.3309326000000001
8.683517,-7.616073599999999,3.0686646,0.56562805,-0.256073,-1.290451
9.272491,-8.542618,2.4796906,0.36428833,-0.23049927,-1.2691497999999999
9.617249000000001,-8.535446,1.857193,0.13313293,-0.15913391,-1.2521057
9.794417999999999,-7.7908479999999996,1.8979034,-0.03730774,-0.046218872,-1.1903076000000001
9.147995,-7.16835,2.7478333,-0.12147522,0.05178833,-1.0763245000000001
7.8311768,-6.823592999999999,3.1644287,-0.18965149,0.09013367,-0.89630127
6.720275999999999,-6.787674000000001,3.430191,-0.30256653,0.08908081,-0.64382935
6.1863556,-6.7517548,3.3439940999999997,-0.421875,0.041137695,-0.32531738
5.958908,-6.4093933,2.7598114,-0.5049591,-0.0036010741999999997,-0.0025482178
6.1504517,-6.095749,2.2857513,-0.5965729000000001,-0.046218872,0.24353027
6.543091,-6.2202454000000005,1.9601439999999999,-0.66049194,-0.020645142,0.46191406
6.7873077,-6.677536,1.857193,-0.6626281999999999,0.06137085,0.7101135000000001
6.7178802,-7.012726,1.7566376,-0.6455841,0.09333801,0.9263610999999999
6.540710400000001,-6.919357300000001,1.4286346,-0.60084534,0.13381958,1.1745758
6.377899,-6.811615,1.3951111,-0.45809937,0.08480835,1.3727112
6.2318573,-7.017517,1.6943816999999999,-0.24078369,-0.07817078,1.415329
6.188751,-7.34552,2.0128174,0.03831482,-0.16659546,1.3982849
6.179183999999999,-7.695083599999999,2.0559081999999997,0.2843933,-0.22944641,1.3205109
6.282135,-8.31517,1.8907166000000002,0.27693176,-0.29016113,1.1820374
6.3707123,-8.873016,1.8883208999999999,-0.019210815,-0.2603302,0.95939636
6.538315,-8.932877000000001,2.1109772,-0.42826843,-0.050476074,0.71224976
6.837585400000001,-8.798798,2.1564636000000004,-0.68711853,0.2925415,0.58547974
7.1967163,-8.944855,2.3336487,-0.7148285,0.58761597,0.59187317
6.9596862999999995,-8.715012,2.5946045,-0.59017944,0.7282257,0.6525879
6.5694275,-8.001541,2.6353150000000003,-0.46768188,0.70692444,0.70906067
6.0187683,-7.2473600000000005,2.6305237,-0.44638062,0.5801544,0.747406
5.480072,-6.083786,2.8005066000000003,-0.43891907,0.37350464,0.73568726
6.4161987,-5.753372,2.85318,-0.38671875,0.15193176,0.6749573
7.795273,-6.349533,2.9034576000000003,-0.29617309999999997,-0.050476074,0.6302185
8.879837,-6.622466999999999,2.7191009999999998,-0.18112183,-0.16339111,0.62916565
9.394592,-6.806823700000001,1.8212891,-0.09590149,-0.162323,0.6547241
9.533463000000001,-6.507553,0.79896545,-0.036254882999999995,-0.10479736,0.7058563
9.341919,-6.1388397,0.48532104,0.037261962999999995,-0.07498169,0.714386
8.439300999999999,-5.767746,1.2394867,0.08732605,-0.06326294,0.61424255
7.428955,-5.4493103,2.185196,0.08732605,-0.021713257000000003,0.48002625
6.825607300000001,-5.13089,2.61615,0.055358887,0.008117675999999999,0.41717529999999997
6.7274475,-5.0494843000000005,2.367157,-0.021331787,0.034744263,0.38734436
6.911803999999999,-5.1811676,1.747055,-0.16833496,0.08480835,0.28294373
7.261352499999999,-5.226654,1.5698853000000002,-0.35688782,0.15618896,0.0688324
7.6109160000000005,-5.162018,1.7829741999999997,-0.5209503,0.28189087,-0.127182
7.632461500000001,-5.1739807,2.0367584,-0.5060272,0.42250059999999995,-0.17298889
7.5343018,-5.312851,2.3863068,-0.23439026,0.4139862,-0.16552734
7.5917509999999995,-5.5522614,2.4605408,0.14590454,0.18814087,-0.33489990000000003
7.615707400000001,-5.7342224,2.4605408,0.56030273,-0.07498169,-0.605484
7.914978,-5.767746,2.549118,0.9310149999999999,-0.34661865,-0.7620697
8.55423,-5.7964782999999995,2.4246216,1.122757,-0.57032776,-0.84410095
9.080948,-6.0502625,2.1708374,1.1280823,-0.638504,-0.9719391
9.229385,-6.5003660000000005,1.9721221999999998,0.99386597,-0.5575409,-1.1785888999999998
9.413742,-6.833160400000001,1.8260651,0.8095703000000001,-0.34129333,-1.2840576000000001
9.847092,-6.9600525,1.7374878,0.6742859,-0.17831421,-1.2020263999999998
10.421707000000001,-7.122864,1.8955078,0.6231536999999999,-0.14741516,-0.9847107
10.94603,-8.068572999999999,2.2139282000000002,0.581604,-0.18043518,-0.82066345
10.495925999999999,-8.547409,2.9154357999999996,0.47080994,-0.23582458,-0.76846313
9.102492999999999,-7.309616,3.830017,0.34831238,-0.26885986,-0.73757935
8.705063,-6.090957599999999,4.143661499999999,0.25350952,-0.25500488,-0.7120055999999999
9.306000000000001,-6.4429016,4.23703,0.1586914,-0.26139832,-0.72265625
9.308394999999999,-7.527481,4.1532288,0.0756073,-0.31892395,-0.7482300000000001
9.34671,-8.475586,3.490036,0.006362915,-0.35833740000000003,-0.75994873
9.064194,-8.470794999999999,2.7885437,-0.071395874,-0.31253052,-0.71307373
8.494369500000001,-7.972809,2.2378693,-0.17366028,-0.19854736,-0.5873718000000001
7.361908000000001,-7.508331299999999,1.8883208999999999,-0.31747437,-0.06326294,-0.44143677
6.057068,-7.1779327,1.7877655,-0.47940063,0.05392456,-0.33384705
5.183197,-6.9959717,1.8859253,-0.58699036,0.1434021,-0.22091675
5.1305237,-6.713455000000001,1.8045197,-0.46875,0.19667053,0.024093628
5.5734406,-6.4884033,1.4477844,-0.20669556,0.08268738,0.30851746
5.7673798,-6.366287000000001,1.347229,-0.10229492,-0.11651611,0.48641968
5.848785400000001,-6.260956,1.4765167,-0.28126526,-0.22624207,0.5375519
5.887085,-6.1388397,1.5196075,-0.6540984999999999,-0.22412110000000002,0.54499817
6.0714417,-6.260956,1.5627136000000001,-0.93640137,-0.11546326,0.6078491
6.2438199999999995,-6.536285400000001,1.7015686,-0.9832610999999999,0.044326782,0.68881226
6.083404499999999,-6.6943054,1.8643798999999999,-0.8767395,0.1860199,0.7271576
5.784134,-6.8092194,1.9338074,-0.6391906999999999,0.29040527,0.81877136
5.7985077,-7.036667,1.881134,-0.29510498,0.23608398,0.98709106
6.203125,-7.412567,1.8883208999999999,0.03086853,0.10185242,1.115982
6.404236,-7.83873,2.0894318,0.3067627,0.00065612793,1.0296935999999999
6.260589599999999,-8.248138,2.7909393,0.47401428,0.021957397000000003,0.6962738
6.672378500000001,-8.695847,3.0997925,0.4601593,0.20199585,0.31384277
7.7114716,-9.189055999999999,2.319275,0.21835327,0.46405029999999997,0.09332275400000001
8.499161,-9.148361,1.2538605,-0.13531494,0.6930847,0.060302734000000004
8.405792,-8.719788000000001,0.6672821,-0.36541748,0.73036194,0.11782837
7.606125,-7.958435000000001,1.2394867,-0.40483093,0.5162505999999999,0.1561737
6.9213867,-7.1659546,2.4581451000000003,-0.29724120000000004,0.20306396,0.1668396
7.156006,-7.019912700000001,3.2194977000000002,-0.118270874,-0.06112671,0.22329712
7.579788000000001,-7.520294,3.6767883,0.047912598,-0.2134552,0.34260559999999995
7.649215700000001,-7.58255,3.8994446000000003,0.16189575,-0.26246643,0.49386597
8.096939,-7.529876700000001,3.5929870000000004,0.26841736,-0.256073,0.6312866
8.762527,-6.876266499999999,3.200348,0.40263367,-0.21133423,0.7250366
9.186295,-5.8802642999999994,2.6712189,0.47615050000000003,-0.16339111,0.7037201
8.884628,-5.140457,1.8643798999999999,0.42820740000000007,-0.08670044,0.5695038
7.8072357000000006,-4.9632874000000005,0.8588104,0.31315613,0.017700195,0.45552063
6.804061999999999,-5.0231476,0.13098145,0.16508484,0.052856445,0.43740845
6.2773438,-5.083008,0.26504517,0.021270752,0.039001465,0.44593809999999995
6.344375599999999,-5.051880000000001,0.82528687,-0.10015869,-0.0036010741999999997,0.40013123
6.65802,-5.2434080000000005,1.4669341999999999,-0.17686462,-0.062194824,0.31809998
6.7178802,-5.590576,2.0415497,-0.23118591,-0.047286987,0.21157837
6.595764,-5.8730927,2.2929382,-0.26527405,0.10505676,0.0922699
6.4377594,-5.94252,2.3527985,-0.25889587,0.27868652,-0.05580139
6.492813,-5.9042205999999995,2.4246216,-0.13105774,0.32769775,-0.27099609999999996
6.7274475,-5.755768,2.5467223999999997,0.10649109,0.21371460000000003,-0.5170593
7.2326355,-5.4948120000000005,2.307312,0.3312683,-0.0036010741999999997,-0.6310425000000001
7.938919,-5.463684,1.7542419999999999,0.41009520000000005,-0.28590393,-0.64276123
8.072998,-5.657608,1.3663788000000001,0.33233643,-0.47764587,-0.71520996
8.020325,-6.1843414,1.1461181999999999,0.2598877,-0.44569397,-0.9239959999999999
8.501555999999999,-6.955261,1.2203369,0.26628113,-0.21772766,-1.1189423
9.219818,-7.484390299999999,1.5172119,0.37174988,0.033676147000000003,-1.1785888999999998
9.698654,-7.7669067,2.0247955,0.5262146,0.18495178,-1.0539551
10.306778,-8.317566000000001,2.4509583,0.58906555,0.1625824,-0.8931121999999999
10.438461,-8.346297999999999,2.7238922000000003,0.5038452,0.032608032,-0.8526306
9.883011,-7.625641000000001,2.8914948,0.33552550000000003,-0.06112671,-0.86434937
9.380234,-6.7972565000000005,3.2147064,0.16615295,-0.12930298,-0.84410095
9.78006,-7.2401732999999995,3.4517365,0.046844482,-0.18682861,-0.7780609
9.674713,-8.217010499999999,3.1237334999999997,-0.023468017999999997,-0.21240234,-0.7120055999999999
9.195877000000001,-8.523468,2.494049,-0.07992554,-0.21133423,-0.66726685
8.630844,-7.8890076,2.10141,-0.13212585,-0.20494079999999998,-0.63957214
8.508742999999999,-7.1108856,2.4246216,-0.19709778,-0.18682861,-0.58950806
7.984405499999999,-6.7900696,2.845993,-0.28764343,-0.1388855,-0.47125244
6.99321,-6.7517548,3.0495148,-0.38458252,-0.10160828,-0.31892395
5.9996184999999995,-6.739792,2.9585266,-0.5007019,-0.05580139,-0.20281982
5.575836,-6.665572999999999,2.3288574,-0.61468506,-0.008926392,-0.13464355
5.762588500000001,-6.433334400000001,1.5124358999999998,-0.6977844,0.10185242,-0.08244324
5.9397583,-6.368683,1.0623169,-0.77233887,0.28082275,0.009170532
5.9206085,-6.495575,1.0431671,-0.8490448,0.41503906,0.12315369
5.8248444,-6.684723,1.3352661,-0.9182892,0.48428345,0.29359436
5.9325714000000005,-6.8690796,1.7398833999999999,-0.88845825,0.4683075,0.45552063
6.0355225,-6.871475,1.9505615,-0.7552948,0.45019529999999996,0.58122253
5.9397583,-6.735000599999999,2.0870361,-0.550766,0.35325623,0.6493988
5.834411599999999,-6.780487,2.1085814999999997,-0.27273559999999997,0.25419617,0.7740326
5.700332599999999,-7.0270996,2.039154,0.09477234,0.1476593,0.9785613999999999
5.7314606,-7.2641144,2.0319672,0.41862488,-0.01638794,1.1660461000000002
6.2964934999999995,-7.613678,2.0008545,0.6061095999999999,-0.13569641,1.2800293
6.952499400000001,-7.8890076,2.0966186999999996,0.62527466,-0.14315796,1.2651215
7.689926,-8.406158,2.3408203,0.43778992,-0.045150757,1.1255646000000001
7.759353599999999,-8.638397,2.51799,0.123535156,0.08480835,0.9519348
7.9365234,-9.021469,2.4629211,-0.19709778,0.13488770000000003,0.8123779000000001
8.008347,-9.550583,2.343216,-0.4026947,0.0730896,0.7037201
7.654007000000001,-9.08371,2.5371552000000004,-0.45382690000000003,-0.04194641,0.60466003
6.89505,-8.0159,2.8268432999999997,-0.39524840000000006,-0.14527893,0.526886
6.3108673,-7.079772999999999,2.9752807999999997,-0.29830933,-0.16127014,0.49707029999999996
6.2964934999999995,-7.2952423,3.0518951000000003,-0.19390869,-0.111190796,0.51623535
6.4114227,-7.5610046,3.1787872000000004,-0.08206177,-0.07817078,0.54499817
6.8064575,-7.5921326,2.7741700000000002,0.06707764,-0.050476074,0.54499817
7.124892999999999,-7.230606,2.0176086,0.20024109,-0.019577026,0.51623535
7.527114999999999,-6.6511993,1.3352661,0.2598877,-0.0046691895,0.46191406
7.689926,-5.9784393,0.48532104,0.23751831,-0.036621094,0.38948059999999995
7.572601299999999,-5.5211487,-0.043807982999999995,0.18319702,-0.07498169,0.30958557
7.460083,-5.2673492,-0.1443634,0.0756073,-0.111190796,0.21902466
7.390640299999999,-5.2841187000000005,0.29377747,-0.05329895,-0.08242798,0.09545898400000001
7.4935913,-5.4421387,1.0718994,-0.118270874,0.019836426,-0.054748535
7.524719,-5.530716,1.833252,-0.16195679,0.13488770000000003,-0.22198486
7.572601299999999,-5.7390137,2.2594147,-0.2450409,0.29786682,-0.37112427
7.5486603,-5.8850555,2.4557495,-0.26315308,0.5460663,-0.40628052
7.347549400000001,-5.767746,2.5706634999999998,-0.18858337,0.71118164,-0.3860321
7.3643035999999995,-5.6001434,2.7023467999999995,-0.046905518,0.7484741,-0.36366272
7.4433136,-5.535507,2.5826416,0.19277954,0.50665283,-0.36154175
7.5773926,-5.513962,2.173233,0.5038452,-0.033432007,-0.26885986
7.8096312999999995,-5.664795,1.6920012999999998,0.77867126,-0.75141907,-0.06858826
8.14003,-6.0358887,1.5243988000000002,0.81489563,-1.2670135,-0.10906982400000001
8.664368,-6.6320496,1.5004578000000002,0.66682434,-1.3682098,-0.5202637
9.255722,-7.3263702,1.7303008999999998,0.49424744,-1.0305176,-1.0092163
9.502335,-7.594513,2.343216,0.42395020000000005,-0.464859,-1.2829895
9.521484,-7.7669067,2.7454376,0.45376587,0.074157715,-1.2489013999999998
9.70105,-8.310379,2.7238922000000003,0.47615050000000003,0.40119934,-1.0731354
9.033066,-8.336716000000001,2.9657134999999997,0.41542053,0.4725647,-0.96661377
7.891037,-7.467621,3.2266846,0.37174988,0.41610718,-0.9634094000000001
7.227844,-7.0223083,3.1428833,0.38665770000000005,0.25524902,-0.91441345
7.213470500000001,-7.1348267000000005,2.9920502,0.40690613,-0.020645142,-0.7354430999999999
7.6827393,-8.185883,2.8005066000000003,0.39518738,-0.29016113,-0.54689026
7.843155,-8.822739,2.6568604,0.31315613,-0.4563446,-0.5255890000000001
8.800827,-8.568954,2.1899872000000005,0.16508484,-0.4563446,-0.61720276
9.736969,-7.5777589999999995,2.1564636000000004,-0.008544922,-0.28909302,-0.6598053
9.653167999999999,-7.173141499999999,2.604187,-0.14703369,-0.06752014,-0.5447693
8.393814,-7.273697,3.0973968999999997,-0.22799683,0.054992676,-0.2837677
6.748993,-7.4221344,3.2721709999999997,-0.2546234,0.056045532,-0.0025482178
5.7266693,-7.359894000000001,2.8005066000000003,-0.24610901,-0.011062622,0.19346619
5.398666400000001,-6.890625,2.0439453000000003,-0.2919159,-0.10374451,0.26483154
5.393875,-6.4237519999999995,1.699173,-0.46235657,-0.14422607,0.24034119
5.101791400000001,-6.2489777,1.6417236000000002,-0.58273315,-0.12504578,0.25099182
4.7235107,-6.373474,1.5579223999999998,-0.6232147,-0.13462829999999998,0.4022522
4.903076,-6.5482483,1.5172119,-0.7180175999999999,-0.13143921,0.6525879
5.820053,-6.5051575,1.5243988000000002,-0.88952637,-0.04833984400000001,0.8741760000000001
6.5598600000000005,-6.5099487,1.6177673000000001,-1.0269469999999998,0.13594055,1.0137177
6.4305725,-6.586563000000001,1.7710113999999997,-0.9758148000000001,0.32662964,1.1681823999999998
5.762588500000001,-6.8020325,1.9553528000000002,-0.6317291,0.26271057,1.2704468
5.1544647,-7.106109599999999,2.1133728,0.051101685,-0.076034546,1.3279724
5.3507843,-7.4748077,2.1995697,0.82447815,-0.47871400000000003,1.3396912
6.349167,-7.783661,2.240265,1.219696,-0.74609375,1.1490021000000001
7.4433136,-8.049422999999999,2.1085814999999997,1.0258179,-0.72691345,0.7239685
8.2765045,-8.521072,1.7063598999999998,0.3493805,-0.36579895,0.24673462
8.3315735,-8.82753,1.9409942999999998,-0.36753845,0.21371460000000003,-0.04940796
8.23819,-9.631989,2.355194,-0.71588135,0.70692444,-0.08988953
8.137634,-10.410095,2.3144836,-0.6498413000000001,0.9199828999999999,0.019821167
7.938919,-10.11322,2.2139282000000002,-0.40057373,0.7516632,0.12315369
7.658798,-9.081314,2.4964447,-0.19497679999999998,0.3202362,0.19772339
6.5454865,-7.522689999999999,3.2075195,-0.075668335,-0.12504578,0.24778748
5.870331,-6.1987,3.9832457999999997,-0.010681152,-0.41160583,0.2818756
6.4904327,-6.0742035,4.7374268,0.013824463,-0.44995117,0.35325623
7.665985000000001,-6.495575,4.73024,0.035125732,-0.36791992,0.40545654
8.884628,-6.679931599999999,3.2027435,0.074539185,-0.20812988,0.39585876
9.581344999999999,-6.3471375,1.1245728000000002,0.14590454,0.01663208,0.35005188
9.270096,-5.7797089999999995,-0.48912048,0.23007202,0.22010803,0.31809998
7.9197693,-5.36792,-0.7333374,0.20343018,0.29040527,0.22116089
6.4449309999999995,-5.315246599999999,0.50686646,0.02659607,0.29040527,0.06562805
5.420212,-5.274536,1.8739471,-0.14596558,0.26803590000000005,-0.03024292
5.19516,-5.2362366,2.288147,-0.32279968,0.17002869,0.019821167
5.5638733,-5.573807,1.9218445,-0.51667786,0.07736206,0.10185242
6.227066000000001,-6.237015,1.6345367,-0.56781006,0.088012695,0.062438965
6.842376700000001,-6.8211975,1.7087555,-0.41015625,0.18495178,0.015563965
6.8639220000000005,-7.0390625,2.0224,-0.06820679,0.27017212,0.058181763
6.7657623,-6.677536,2.3767395000000002,0.21728516,0.22010803,0.020889282
6.9812316999999995,-6.387848,2.6353150000000003,0.32380676,-0.031295776000000004,-0.21133423
7.191925,-6.2322235,2.738266,0.44631958,-0.32850647,-0.45420837
7.225448599999999,-6.131668,2.61615,0.61994934,-0.61613464,-0.5287781
7.7234343999999995,-6.272918700000001,1.9050751,0.7499237,-0.7865753000000001,-0.54263306
8.618866,-7.1659546,1.0479584000000002,0.7808075,-0.7567444000000001,-0.6033478
8.829559,-7.915344,0.88993835,0.7861328000000001,-0.5213165,-0.6789856
8.2765045,-8.15715,0.9833069,0.74671936,-0.22624207,-0.69602966
8.14003,-8.370239,1.3041382,0.59013367,0.0027923584,-0.71946716
9.080948,-8.614456,2.3863068,0.39305115,0.17002869,-0.86434937
9.724991000000001,-9.155533,3.4756775,0.29078674,0.27124023,-1.1072235000000001
9.025879,-8.664734,4.201126,0.32807922,0.30532837,-1.2510376
8.106506,-7.2353973,3.8180389999999997,0.41648865,0.18707275,-1.1072235000000001
8.348328,-6.7278137000000005,2.7669982999999996,0.41755676,-0.07498169,-0.74716187
8.887024,-7.4580535999999995,2.5227814,0.32380676,-0.4084015,-0.4882965
8.551834,-8.231384,2.707138,0.26309204,-0.638504,-0.43397522
7.8383636,-8.159546,2.786148,0.25137329999999997,-0.640625,-0.42439269999999996
7.3762817,-7.68071,2.8005066000000003,0.18638611,-0.47550964,-0.40628052
7.105728,-7.467621,2.8507842999999995,0.029800415,-0.26139832,-0.33277893
6.571822999999999,-7.201874,2.6496735,-0.15235901,-0.08882141,-0.23477173
6.234253,-6.828369,2.0247955,-0.2684784,0.020904541000000002,-0.20707703
6.092987,-6.1005400000000005,1.6321411,-0.31108093,0.036880493,-0.24862671
5.9469449999999995,-5.6193085,1.8787383999999998,-0.36116028,0.01876831,-0.3072052
5.7027282999999995,-6.3279877,2.1636505,-0.43252563,0.12635803,-0.27099609999999996
5.152069,-7.436508,2.0846405,-0.5220032,0.25738525,-0.15274048
4.563095,-8.042236,1.6177673000000001,-0.7329254,0.25738525,0.020889282
4.9677124,-7.963226299999999,1.3017426,-0.9981841999999999,0.20092773,0.33834840000000005
6.160019,-7.7238007,1.7422790000000001,-1.1377258,0.14447021,0.61424255
6.6915436,-7.5610046,2.2618103,-1.0706177,0.21478271,0.7996063
6.6843566999999995,-7.34552,2.240265,-0.7009734999999999,0.20518494,0.96151733
6.330017,-7.1348267000000005,1.8907166000000002,0.010620117,-0.06112671,1.1170502
6.0953827,-6.878647,1.6417236000000002,0.83940125,-0.40093994,1.272583
6.377899,-6.7517548,1.6632689999999999,1.3475342,-0.6374359,1.211853
6.7561800000000005,-6.723037700000001,1.8260651,1.2687073,-0.6970978,0.86564636
7.239807000000001,-7.2880554,1.7805786,0.61676025,-0.42118835,0.41610718
7.2996674,-8.286438,1.6967773000000002,-0.31747437,0.0965271,0.021957397000000003
6.732239,-8.626419,1.6273499,-1.0045776,0.6078644,-0.13569641
7.091369599999999,-9.588898,1.129364,-1.1569061,0.93382263,-0.034500122
7.239807000000001,-10.4938965,0.9521941999999999,-0.84158325,0.9657898000000001,0.16470337
7.5007779999999995,-10.146744,1.7063598999999998,-0.34304809999999997,0.75805664,0.31063843
7.414581299999999,-9.028641,2.7646027,0.045776367000000005,0.37989807,0.42889404
6.181579599999999,-7.163558999999999,3.7845306000000005,0.28546143,-0.06538391,0.5375519
5.5734406,-5.8204193,4.5267334,0.41755676,-0.38070679999999996,0.5482024999999999
6.0977783,-5.8730927,4.521942,0.44950867,-0.48617554,0.46084595
7.615707400000001,-6.2801056,3.0303497000000004,0.38240050000000003,-0.39456177,0.34260559999999995
9.092926,-6.3974150000000005,0.76065063,0.21089172,-0.1303711,0.21051025
9.566971,-6.433334400000001,-1.2049866000000002,-0.03944397,0.23075867,0.10504150400000001
9.040253,-6.2082825,-2.1770325,-0.2546234,0.50346375,0.074157715
7.6970979999999996,-6.107727,-1.1259766000000002,-0.38671875,0.5428772,0.14019775
6.428177,-6.155608999999999,1.0647125,-0.40483093,0.37882996,0.29147340000000005
5.776947,-6.0670166,2.8579712,-0.3387909,0.10612488,0.38948059999999995
5.8535614,-5.822815,3.4732818999999995,-0.30256653,-0.07284546,0.35539246
6.011581400000001,-5.8012695,2.7430573,-0.30789185,-0.08563232400000001,0.23287964
6.1696014,-5.8491516,1.9601439999999999,-0.33665466,0.08268738,0.13168335
6.868713400000001,-6.016739,1.5722809,-0.27380370000000004,0.33088684,0.14659119
7.718658400000001,-6.3303833,1.3448334,-0.085250854,0.3394165,0.12635803
8.010742,-6.3375699999999995,1.21315,0.16189575,0.09866333,0.11357117
7.8072357000000006,-6.069412000000001,1.0120392,0.47615050000000003,-0.42544556,0.09545898400000001
7.3714905,-5.8419647,0.71276855,0.7264862,-0.9207915999999999,-0.14955139
6.880676299999999,-6.004776000000001,0.6170044,0.8181,-0.990036,-0.5351715
6.614928999999999,-6.5003660000000005,0.7295227,0.83833313,-0.70454407,-0.8100128000000001
6.674774,-7.1132812,1.1078033,0.7818755999999999,-0.3391571,-0.8046875
7.457687400000001,-7.599303999999999,1.7326965,0.581604,-0.11972046,-0.5437012
8.379456,-7.6855009999999995,2.1229553,0.2566986,-0.08456421,-0.37112427
8.942093,-7.6088867,2.5371552000000004,0.01914978,-0.029174805,-0.5032196
9.452057,-8.262497,2.8052979,-3.0517577999999997e-05,0.09120178,-0.70988464
8.913361,-8.260100999999999,3.1907654,0.06707764,0.13168335,-0.7524871999999999
8.791260000000001,-8.025482,3.5427093999999997,0.12567139,0.06350708,-0.6331787
9.090530000000001,-8.602478,3.4086304,0.16401672,-0.046218872,-0.51068115
9.092926,-8.695847,3.3104706,0.13632202,-0.087753296,-0.5128020999999999
9.533463000000001,-8.032653999999999,3.1907654,0.052169799999999995,-0.00680542,-0.59802246
9.468811,-7.4221344,2.9824677000000004,-0.06713867,0.10185242,-0.61187744
8.374664,-7.335952799999999,2.8507842999999995,-0.17047119,0.1668396,-0.51812744
6.8782806,-7.716628999999999,2.3049164,-0.23971558,0.1625824,-0.35940552
5.535141,-8.025482,1.3424377,-0.23013306,0.11357117,-0.21347046
5.2334747,-7.4341125,0.5810852,-0.23118591,0.009185791,-0.07923889
6.191147,-6.6129,0.8875427,-0.28445435,-0.06858826,0.074157715
6.583801299999999,-6.3471375,1.9457855,-0.33665466,-0.07498169,0.19772339
5.9254,-6.6559906,2.2929382,-0.38352966,-0.020645142,0.24246216
5.369934,-7.1875,2.1205597000000003,-0.45703125,0.0027923584,0.24778748
5.377121,-7.3263702,2.046341,-0.6157531999999999,-0.015319824,0.28507996
5.8511809999999995,-7.122864,1.9409942999999998,-0.86927795,0.01876831,0.397995
6.3826904,-7.1372222999999995,1.833252,-1.0823364,0.11463928,0.42250059999999995
6.1289062,-7.2569427,1.6704407,-1.0503844999999998,0.32662964,0.4214325
5.6189423,-7.343124400000001,1.6105957,-0.60084534,0.44061279999999997,0.45977783
5.322051999999999,-7.470016499999999,1.5914458999999999,0.10649109,0.35113525,0.59080505
5.314865,-7.484390299999999,1.7805786,0.64338684,0.1434021,0.7047882
5.470489499999999,-7.637619,1.6273499,0.71902466,0.013442993,0.6312866
5.760193,-7.963226299999999,1.4070892,0.40797424,0.10398865,0.39053345
6.1983337,-8.080536,1.5172119,-0.09376526,0.3990631,0.10292053
6.698714999999999,-8.061386,1.644104,-0.46981812,0.69947815,-0.06858826
7.175171000000001,-8.389389,1.5627136000000001,-0.5560913000000001,0.76231384,-0.038757323999999996
7.922165,-9.555374,1.2227325,-0.4453125,0.61424255,0.10292053
7.8886414,-9.950409,1.0647125,-0.25250244,0.37776184,0.2499237
8.04187,-9.464386,1.7422790000000001,-0.087387085,0.1860199,0.3287506
7.5917509999999995,-8.774857,2.9513397,0.020217896000000003,0.08055115,0.33514404
6.8447723,-7.965622,4.4094086,0.10223389,0.029418945,0.33514404
6.6005554,-7.934494,4.8714905,0.16828918,-0.03024292,0.38734436
7.002777,-8.070969,3.6767883,0.21728516,-0.07391357400000001,0.43421936
7.931732000000001,-7.9057617,1.4956665,0.21195984,-0.035568237,0.41397095
8.350723,-7.230606,-0.005493164,0.13952637,0.060317993,0.3276825
8.118484500000001,-6.4620667,-0.656723,0.020217896000000003,0.11889648400000001,0.25738525
7.397827,-6.2968597,-0.3550415,-0.010681152,0.14126587,0.28401184
6.1983337,-6.1939087,0.6385498000000001,0.150177,0.1434021,0.35964966
5.4130400000000005,-5.990402,1.4286346,0.33340454,0.19134521,0.34153748
5.302902,-5.8515472,1.881134,0.32807922,0.16470337,0.16256714
5.688369799999999,-5.753372,1.9553528000000002,0.09158325,-0.20707703,0.0730896
6.1217194,-5.6839447,1.8524017,-0.02558899,-0.7524871999999999,0.15512085
6.116928,-5.5714264,1.8045197,0.072402954,-0.8930969000000001,0.032608032
5.8392029999999995,-5.566635,1.7135468,0.23539734,-0.5873718000000001,-0.39775085
5.8272247,-5.487625,1.6512909,0.25776672,-0.18257141,-0.84410095
6.1528472999999995,-5.4948120000000005,1.5435486,0.17041016,0.22543335,-1.0092163
6.442535400000001,-5.561844000000001,1.3975066999999999,0.12992859,0.54927063,-0.8984375
6.5526733,-5.928161599999999,1.2849883999999998,0.020217896000000003,0.65686035,-0.5788574000000001
6.5263367,-6.7517548,1.6512909,-0.110824585,0.5513916,-0.20707703
6.298889,-6.9504850000000005,2.5084229,-0.050094604,0.34046936,-0.025985717999999998
6.3036804,-6.660782000000001,2.7214966,0.17254639,0.13488770000000003,-0.00041198730000000005
7.0865784,-7.314392,1.9242401000000002,0.29399109999999995,-0.10586548,-0.009994507
7.982010000000001,-9.414108,0.7965698,0.22579956,-0.33383179999999996,-0.050476074
9.18869,-12.016617,1.4429931999999999,0.14485168,-0.46913147,-0.13676453
10.838303,-12.483475,3.2458343999999997,0.11608887,-0.47550964,-0.21665955
10.687453999999999,-10.714172,4.253784,0.048965454000000005,-0.39561462,-0.23583984
9.574158,-9.699019999999999,3.7749481,-0.057556152,-0.29655457,-0.14315796
7.5534514999999995,-9.679871,2.7454376,-0.06288147,-0.19322205,0.008102416999999999
5.908630400000001,-9.694229,2.3934937,-0.0032196045,-0.14741516,0.15084839
5.065872,-9.916901,1.6177673000000001,0.0287323,-0.18469238,0.269104
4.5415497,-9.433273,1.0862578999999999,0.020217896000000003,-0.31359863,0.4033203
4.7857513,-8.087723,1.6034088,0.029800415,-0.464859,0.5183715999999999
5.178406,-6.981598,2.288147,0.056427002000000004,-0.54582214,0.55992126
5.2765656,-6.483612,2.0104218,0.027664185,-0.5319824000000001,0.5503235
5.638091999999999,-6.689514,1.3017426,-0.013885498000000001,-0.42118835,0.5236969
6.179183999999999,-6.9911804,1.4046936,-0.05116272,-0.30401609999999996,0.49067688
6.2725525,-7.1563873,1.9505615,-0.10975647,-0.27311707,0.48002625
5.9469449999999995,-7.369461,2.1205597000000003,-0.16514587,-0.34236145,0.48535156
5.571045,-7.771698,2.0894318,-0.16621399,-0.39561462,0.49812317
5.463318,-8.073364,2.5347595000000003,-0.11187744,-0.3625946,0.5226288
5.4226074,-8.056595,2.762207,-0.06288147,-0.3157196,0.58547974
5.3867035,-7.824356,2.4988403,-0.08631897,-0.26139832,0.6312866
5.3005066,-7.6495820000000005,2.1133728,-0.17686462,-0.20494079999999998,0.573761
5.4609222,-7.4508667,2.1133728,-0.24078369,-0.15913391,0.44166565
5.9804535,-7.2353973,2.3336487,-0.23864746,-0.13143921,0.2925415
6.2534027000000005,-6.9792175,2.3096924,-0.24290466,-0.09735107400000001,0.09120178
6.2557983,-6.684723,2.3456116000000002,-0.2919159,-0.057937622,-0.15701294
6.322830000000001,-6.569808999999999,2.415039,-0.3515625,0.058181763,-0.26779175
6.432968,-6.7780914,2.2570342999999995,-0.39097595,0.25205994,-0.19429016
6.710693400000001,-7.225814999999999,2.2091369999999997,-0.46981812,0.45658875,-0.02810669
7.009964,-7.5322723,2.5155945,-0.515625,0.65260315,0.033676147000000003
7.0363007,-7.508331299999999,2.8579712,-0.41548157,0.66537476,0.00065612793
6.8615265,-7.407775999999999,2.8603668,-0.2769928,0.48216248,-0.0025482178
6.974060000000001,-7.4580535999999995,2.5682678,-0.2024231,0.3202362,-0.003616333
7.4505005,-7.4652405,2.312088,-0.22586060000000002,0.22969055,-0.11439514
7.9652557,-7.683105499999999,2.3863068,-0.27487183,0.22969055,-0.24116516
8.472824000000001,-8.317566000000001,2.6472778,-0.25782776,0.27017212,-0.21879578
8.743362,-8.741348,2.659256,-0.18005371,0.22755432,-0.014266968
8.623657000000001,-8.9664,2.532364,-0.012817383,0.12210083,0.26483154
8.14003,-9.725357,2.4198303,0.20663452,0.052856445,0.4214325
7.2517853,-10.141952499999999,2.2953339,0.36216736,0.046463013,0.39160156
5.9134215999999995,-9.303986,1.8524017,0.39305115,0.043273926,0.22329712
5.1113586,-7.778869599999999,1.5651093,0.23858643,0.023025512999999997,0.025146484
4.6516724,-6.471634,1.7326965,-0.035186768,0.031555176000000004,-0.05580139
4.570282,-6.299255400000001,1.5315857,-0.07992554,-0.017456055,-0.0014801025
5.2598114,-6.876266499999999,1.1748505,0.07347107,-0.09735107400000001,-0.047286987
6.246216,-7.273697,0.8851471,0.16189575,-0.056869507,-0.11013794
6.816039999999999,-7.7860565,0.89712524,0.23858643,-0.034500122,0.08055115
6.389862,-8.231384,1.2706146,0.42820740000000007,-0.118652344,0.28401184
5.4417725,-8.185883,1.4693298000000001,0.5581665,-0.2006836,0.24034119
4.867157,-7.654373,1.7590331999999997,0.48999023,-0.19215393,0.13912964
5.266983,-6.792464999999999,2.0295715,0.29292297,-0.18896484,0.12635803
6.104965,-6.143631,1.7374878,0.074539185,-0.17404175,0.057113647000000003
7.012359599999999,-6.107727,1.0623169,-0.094833374,-0.08242798,-0.09095764
7.7018889999999995,-6.675140400000001,0.29856873,-0.15768433,0.036880493,-0.17298889
7.3834686000000005,-7.096527,-0.24731445,-0.14810179999999998,0.0922699,-0.12930298
6.397049,-6.7972565000000005,0.5882721,-0.106552124,0.13594055,0.010238647
6.8782806,-6.8379517000000005,1.723114,0.024475097999999997,0.23608398,0.11782837
7.4864197,-7.697464,1.7255096,0.17466736,0.31384277,-0.009994507
6.030730999999999,-7.637619,1.5387726000000002,0.325943,0.2925415,-0.26779175
5.178406,-6.823592999999999,1.8643798999999999,0.5400543000000001,0.008117675999999999,-0.31466675
6.069046,-6.4644623,1.6872101000000002,0.79785156,-0.6267853,-0.10588074
6.828003,-7.0390625,0.8731841999999999,0.9395294,-1.3469086000000001,0.025146484
6.6484375,-7.527481,0.32250977,0.8809509,-1.578064,-0.23051453
7.081786999999999,-7.9392853,0.5332031,0.71795654,-1.2190703999999999,-0.6566162
7.642028999999999,-8.255325,1.2945556999999999,0.46762085,-0.5831145999999999,-0.91441345
7.574997,-8.71022,2.1780242999999997,0.20875549999999998,-0.08563232400000001,-0.96554565
7.5103607000000006,-9.485947,2.6855927000000004,0.053237915,0.17002869,-0.93252563
7.88385,-10.3694,2.8005066000000003,0.031921387,0.23715210000000003,-0.9591521999999999
7.917373700000001,-9.756485000000001,3.121338,0.119277954,0.19239807,-1.0092163
7.8072357000000006,-7.695083599999999,3.1021729,0.21621704,0.019836426,-0.9112091
7.5534514999999995,-6.452483999999999,2.61615,0.25883484,-0.22412110000000002,-0.6566162
6.942932000000001,-7.223419,2.130127,0.20449829,-0.41053772,-0.44250488
6.325226,-8.442062,1.6872101000000002,0.12992859,-0.35194397,-0.47232056
6.674774,-8.619232,1.4094848999999998,0.058563232,-0.127182,-0.6033478
8.108902,-7.7980347000000005,1.5028534,-0.08099365,0.08694458,-0.5863037
8.918152000000001,-7.4436800000000005,2.0056305,-0.22053528,0.17642212,-0.33703613
8.314803999999999,-7.867462,2.0367584,-0.2450409,0.10079956,-0.031311035
6.995605499999999,-8.195464999999999,1.7279053,-0.19070435,-0.056869507,0.10610962
5.764983999999999,-7.8602753,1.7877655,-0.14596558,-0.1303711,0.10185242
5.283752400000001,-7.42453,2.063095,-0.15556335,-0.08563232400000001,0.023025512999999997
5.187973,-7.3479156,2.2857513,-0.2642212,-0.040893555,-0.015319824
4.7833557,-7.800414999999999,2.0487366000000002,-0.43466187,-0.040893555,0.06562805
4.3356476,-8.276871,1.6656647,-0.6029663000000001,0.020904541000000002,0.19985962
4.218322799999999,-8.001541,1.5100403,-0.67967224,0.18174744,0.31277466
5.147278,-7.491561999999999,1.8763428,-0.6753998000000001,0.40438843,0.40545654
5.666824299999999,-7.228210400000001,2.1875916,-0.550766,0.56311035,0.5045166
5.262207,-7.6711273,1.7542419999999999,-0.23013306,0.47683716,0.5236969
4.3954926,-7.929702799999999,1.3376465,0.17466736,0.13381958,0.5567169
4.0411529999999996,-7.5873413,1.541153,0.487854,-0.30401609999999996,0.6121215999999999
5.238250700000001,-7.508331299999999,1.9146576000000002,0.4793396,-0.48617554,0.44805908
6.523941000000001,-7.771698,2.0295715,0.064956665,-0.21240234,0.07522583
7.5079649999999996,-8.243347,1.9098663,-0.5102844,0.38734436,-0.19535828
7.7425995,-8.74852,1.5100403,-0.89378357,0.8997344999999999,-0.18363953
7.402618400000001,-9.3159485,1.2299194,-0.88420105,1.0552673000000001,0.013442993
7.618088,-10.125198,1.3616028,-0.5752716,0.8305054000000001,0.28082275
7.606125,-9.842682,1.9601439999999999,-0.20988464,0.37669373,0.54393005
7.1536255,-8.726974499999999,2.3695526,0.076675415,-0.038757323999999996,0.73036194
6.2438199999999995,-7.527481,2.5395355,0.279068,-0.32531738,0.8315582
6.021164,-6.605713000000001,2.7693787,0.42181396,-0.48083496,0.86883545
6.3922577,-6.969635,2.5347595000000003,0.49319458,-0.57032776,0.8539276
6.8998413,-7.651977499999999,1.9146576000000002,0.49851990000000007,-0.57884216,0.7612456999999999
8.094543,-7.8339386,0.94740295,0.4005127,-0.43823242,0.58973694
9.040253,-7.781265299999999,-0.077316284,0.20663452,-0.1772461,0.42036438
8.286072,-7.431717,-0.2928009,0.0042266846,0.09013367,0.30958557
6.5095825,-7.3263702,0.33926392,-0.08631897,0.2456665,0.28401184
5.1975555,-7.170746,1.6034088,-0.07246399,0.21264648,0.30744934
4.591827400000001,-7.058212299999999,2.4796906,-0.06074524,0.10717773400000001,0.30638123
4.4816895,-6.775696000000001,2.5515137,-0.10443115,0.04220581,0.21690369
5.056305,-6.617691000000001,2.1899872000000005,-0.17686462,0.0730896,0.044326782
5.7506104,-6.4692383,1.8500061,-0.21734619,0.19239807,-0.11759949
6.26297,-6.181946,1.6848145,-0.16195679,0.35751343,-0.18257141
6.583801299999999,-5.913787999999999,1.4645386,-0.04902649,0.43847656,-0.27418518
7.096161,-5.8730927,1.2586517,0.025543213,0.42356873,-0.43930054
7.733017,-6.0885620000000005,0.9569701999999999,0.0798645,0.29467773,-0.56074524
7.8886414,-6.256164599999999,0.74150085,0.18106079,0.005981445300000001,-0.49363708
7.4337463,-6.2513733,0.7558594,0.38772583,-0.42012024,-0.31147766
6.777725,-6.299255400000001,1.0934448,0.61569214,-0.7354430999999999,-0.22624207
6.796890299999999,-6.7900696,1.4932709,0.7264862,-0.79190063,-0.33171082
7.6085205,-7.6855009999999995,1.6273499,0.6082306,-0.6885680999999999,-0.44676208
8.518311,-8.219406,1.7063598999999998,0.37600708,-0.52664185,-0.46487427
9.284454,-8.624023,2.0535126,0.21621704,-0.38816833,-0.49256897
9.85907,-9.469177,2.5299682999999997,0.19491577,-0.28057859999999996,-0.6417084
9.478394,-9.720566,3.0016173999999998,0.23326111,-0.17617798,-0.82066345
8.549438,-8.597686999999999,3.1644287,0.29292297,-0.12184143,-0.9069519
7.8814545,-7.613678,2.7047423999999998,0.3855896,-0.13569641,-0.8323822
7.460083,-7.8459167,2.2354736,0.46443176,-0.25500488,-0.6310425000000001
6.8184357,-8.533050999999999,2.0535126,0.45164490000000007,-0.37538147,-0.47659302
6.3036804,-8.703033,2.3456116000000002,0.3344574,-0.41693115,-0.4606018
6.4545135,-8.288834,2.7023467999999995,0.19917297,-0.35514832,-0.48617554
7.1967163,-7.927307000000001,2.6664276,0.08944702,-0.23902893,-0.4797821
7.4002229999999996,-8.027878,1.9266205,-0.0181427,-0.12184143,-0.41160583
7.100952,-8.063782000000002,1.426239,-0.1161499,-0.062194824,-0.29016113
6.830398599999999,-7.618469,1.7111511000000001,-0.17472839999999998,-0.10054016,-0.14208984
6.8735046,-6.909775,2.3767395000000002,-0.17366028,-0.16871643,-0.0014801025
6.6652070000000005,-6.6152954,2.6736145000000002,-0.16195679,-0.21559143,0.0688324
6.092987,-6.787674000000001,2.5850372000000004,-0.21414185,-0.19535828,0.043258667
5.456131,-7.189895599999999,2.4174347000000003,-0.34411620000000004,-0.08242798,0.03048706
4.6516724,-7.2042694,2.118164,-0.5220032,0.011306763000000001,0.14659119
4.5415497,-6.902603,1.6608734,-0.6753998000000001,0.076293945,0.36604309999999995
5.144882,-6.7828827,1.3208923000000001,-0.7137604000000001,0.14553833,0.5482024999999999
5.705124,-6.952881,1.4094848999999998,-0.5965729000000001,0.25205994,0.5471344
5.887085,-7.321578999999999,1.6082001,-0.38352966,0.34580994,0.46937559999999995
5.580627400000001,-7.568191499999999,1.6273499,-0.08418274,0.315979,0.48535156
5.1329193,-7.618469,1.5818633999999998,0.20982361,0.14979553,0.5418090999999999
5.1496735000000005,-7.831542999999999,1.6656647,0.35682678,0.01876831,0.45977783
5.8104705999999995,-8.384613,1.8595886000000001,0.27481079999999997,0.06137085,0.20518494
6.7633667,-8.873016,1.9984589,-0.03944397,0.30744934,-0.076049805
7.6037292,-9.239334,1.8476256999999998,-0.42401123,0.5844269,-0.16233826
7.749771000000001,-9.612839,1.5770721,-0.5944519,0.7165222,-0.036636352999999997
7.3547363,-10.177856,1.3137054,-0.5060272,0.68029785,0.20518494
7.0315094,-10.477142,1.4118805,-0.26315308,0.5162505999999999,0.41929626
6.483246,-9.287216,2.0415497,-0.035186768,0.30319214,0.54499817
6.514374,-7.683105499999999,2.8675537,0.11395264,0.09440613,0.61849976
6.6867523,-6.9456940000000005,3.1644287,0.21835327,-0.06005859400000001,0.6504669
6.4257812,-6.873871,3.1045685,0.2556305,-0.13569641,0.5982666
6.5478819999999995,-7.091736,2.7047423999999998,0.20343018,-0.15487671,0.5226288
7.361908000000001,-7.225814999999999,1.9314116999999997,0.12034607,-0.10160828,0.46723938
8.039474499999999,-6.976822,1.0647125,0.060684204000000005,0.036880493,0.43528748
8.072998,-6.9720306,0.2052002,0.011688232,0.20944214,0.42675779999999996
7.0051727,-7.1803284,-0.12998962,-0.06074524,0.30212402,0.42782593
5.685974,-7.10849,0.6026305999999999,-0.13638306,0.26591492,0.45126343
4.733078,-6.749374400000001,1.5674896,-0.14491272,0.15618896,0.50346375
4.606186,-6.325591999999999,2.1804047000000004,-0.10229492,0.058181763,0.51730347
5.0874176,-6.0382843,2.1588592999999996,-0.09271239999999999,0.057113647000000003,0.43208313
5.6763916,-6.071808,1.7805786,-0.10975647,0.054992676,0.30638123
6.2294617,-6.1412354,1.6345367,-0.14703369,0.06669617,0.1987915
6.794494599999999,-6.1412354,1.4310303,-0.17260742,0.14979553,0.12742615
7.122497599999999,-6.318405,1.158081,-0.15129089999999998,0.23715210000000003,0.01663208
7.2374115,-6.605713000000001,1.1389313,-0.047973632999999995,0.24887085,-0.16339111
7.261352499999999,-6.7852783,1.3592072,0.24497986,0.09013367,-0.302948
7.017150999999999,-6.780487,1.4429931999999999,0.628479,-0.25074768,-0.31040955
6.8567350000000005,-6.773315400000001,1.268219,0.8607024999999999,-0.64701843,-0.29336548
7.041092,-7.2090607,1.0982361,0.84365845,-0.9207915999999999,-0.37538147
7.416977,-7.7621155,1.37117,0.6519165,-0.9559479,-0.5298461999999999
8.070602000000001,-8.111664,1.8739471,0.45057678,-0.82066345,-0.6512909
8.762527,-8.327148,2.0870361,0.2801361,-0.67045593,-0.6512909
9.112076,-8.497131,2.2713928,0.21409607,-0.44355774,-0.6555481
9.471207000000001,-8.959213,2.3743439,0.23858643,-0.2326355,-0.7397003000000001
9.6819,-9.325531,2.4964447,0.1586914,0.05392456,-0.8462371999999999
9.277283,-8.655151,2.7646027,-0.07885742,0.34686279999999997,-0.9442444
8.549438,-7.462845,2.9633179,-0.29403687,0.43208313,-0.9516906999999999
7.8814545,-6.9839934999999995,3.375122,-0.33239746,0.2456665,-0.88671875
7.270935000000001,-7.364669999999999,3.308075,-0.21095276,-0.09095764,-0.86221313
7.1943207,-7.867462,2.4318085,-0.017074585,-0.38923645,-0.87179565
7.527114999999999,-7.917739999999999,1.4717255,0.12034607,-0.54582214,-0.8036194000000001
7.6683655,-7.733383,1.0144348,0.15336609,-0.5319824000000001,-0.59695435
7.314025999999999,-7.6088867,1.2466736,0.10649109,-0.38816833,-0.3540802
6.713089,-7.522689999999999,1.6273499,-0.0074920654,-0.2134552,-0.209198
6.5766144,-7.402984599999999,2.094223,-0.15023804,-0.087753296,-0.1772461
6.6053467,-6.948089599999999,2.6089783,-0.26527405,-0.00041198730000000005,-0.19003296
6.456909,-6.708664,2.1875916,-0.33026123,0.07096863,-0.18577576
6.2653656,-6.6631775,1.189209,-0.4026947,0.12849426,-0.18470764
5.836807299999999,-6.854706,0.8133239999999999,-0.51348877,0.16577148,-0.13783264
5.4537354,-7.041458,1.2179413000000001,-0.6487732,0.14872742,0.01663208
5.5423279999999995,-7.173141499999999,1.8284607,-0.7702179,0.11784363,0.31277466
5.5638733,-7.2377777000000005,2.3575897,-0.79151917,0.08694458,0.61424255
5.324447599999999,-7.570572,2.4294127999999997,-0.67007446,0.0688324,0.796402
5.0515137,-8.0781555,2.2546387,-0.38032532,0.12528992,0.91252136
4.9509583,-8.161942,2.0606994999999997,0.051101685,0.09866333,0.9039917
5.3316345,-8.037445,1.7566376,0.5208893,0.0070495605000000005,0.8070526
5.982849,-7.965622,1.5651093,0.9384613000000002,-0.23049927,0.7133179000000001
6.557464599999999,-8.243347,1.5387726000000002,1.2697601,-0.4797821,0.66111755
6.837585400000001,-8.576141,1.6704407,1.3464661,-0.44995117,0.5663147
7.0674285999999995,-8.968796000000001,1.536377,0.9618988000000002,-0.12823486,0.3202362
6.8567350000000005,-9.287216,1.2299194,0.32487488,0.37243652,0.08694458
6.595764,-9.756485000000001,1.0695038000000001,-0.26634216,0.8486023000000001,0.08694458
6.224670400000001,-10.120407,1.2155457,-0.63705444,0.9764404000000001,0.25845337
5.788925,-9.289612,1.9146576000000002,-0.73931885,0.7740326,0.39373779999999997
6.4138184,-8.633606,2.8052979,-0.6125641,0.49067688,0.40438843
6.823227,-8.142792,3.5905913999999997,-0.36860657,0.24034119,0.35858154
6.887863,-7.1372222999999995,4.0047913,-0.13638306,0.06137085,0.34579468
7.4433136,-7.127655,3.8132629999999996,-0.02558899,-0.04833984400000001,0.40652466
7.6564026,-7.520294,3.2123107999999996,0.034057617000000005,-0.06326294,0.48214722
7.460083,-7.9392853,2.6544647,0.10116577,-0.024902344,0.5236969
7.618088,-8.0781555,1.9098663,0.13739014,0.035812378,0.54499817
7.6564026,-7.4748077,0.2339325,0.0798645,0.07736206,0.5524597
6.9572906,-6.7278137000000005,-0.9368439000000001,-0.038375854,0.09440613,0.5748291
5.638091999999999,-6.519516,-1.2193604,-0.12147522,0.05392456,0.6195679000000001
4.689987,-6.4141846,-0.7836151,-0.15875244,-0.07284546,0.61849976
4.694778400000001,-6.0550537,0.107040405,-0.16833496,-0.22517395,0.6025238
5.4130400000000005,-5.7797089999999995,1.2011871,-0.18112183,-0.29548645,0.5503235
6.0355225,-5.858719000000001,2.0367584,-0.22053528,-0.19641113,0.37030029999999997
6.191147,-6.143631,2.3168792999999996,-0.27380370000000004,0.08268738,0.10504150400000001
6.1025696,-6.553039599999999,1.9960631999999998,-0.27487183,0.48641968,-0.14848328
6.145660400000001,-6.756546000000001,1.8931122,-0.12892151,0.8123931999999999,-0.31147766
6.339584400000001,-6.7302094,1.9912720000000002,0.17680359,0.8081206999999999,-0.37538147
6.476058999999999,-6.780487,1.8835297,0.49105835,0.49388123,-0.39349365
6.6867523,-6.9911804,1.4142609,0.79359436,-0.06005859400000001,-0.37538147
7.002777,-7.412567,1.0000763000000001,1.0119780999999999,-0.62358093,-0.4606018
7.1105194,-7.472411999999999,1.1389313,0.96084595,-0.9634094000000001,-0.64489746
7.64682,-7.7238007,1.4908752,0.677475,-1.0464935,-0.8089447
8.444092,-8.403763,1.9601439999999999,0.41116333,-0.89842224,-0.8803253000000001
9.365860000000001,-9.043014999999999,2.331253,0.27693176,-0.6640625,-0.83558655
10.486343,-9.442841,2.5898132,0.21302795,-0.43504333,-0.74502563
10.694641,-9.043014999999999,2.8268432999999997,0.15762329,-0.15913391,-0.8142699999999999
9.727386,-7.8722534,3.1596375,0.09371948,0.056045532,-0.96980286
8.266922000000001,-6.792464999999999,3.454132,0.053237915,0.11570739999999999,-1.0134735000000001
7.007568400000001,-6.0670166,3.6121519999999996,0.0990448,0.017700195,-0.9293213
6.995605499999999,-6.715851,3.1117554,0.20343018,-0.16978455,-0.81321716
7.3236084,-7.5849457,2.6640472,0.3035736,-0.32318115,-0.7535553
8.147217,-8.051819,2.4509583,0.30996704,-0.4094696,-0.71839905
8.472824000000001,-8.106873,1.6608734,0.22261047,-0.37963867,-0.62039185
7.958069,-8.068572999999999,1.0072478999999999,0.08200073,-0.30187988,-0.48724365
7.287689,-7.9560394,1.3616028,-0.06820679,-0.23049927,-0.36047363
6.839981,-7.991958599999999,2.1540833,-0.16195679,-0.18363953,-0.27418518
6.5502777000000005,-7.900970500000001,2.628128,-0.23013306,-0.11332703,-0.25927734
6.655624400000001,-7.2545470000000005,2.6760101,-0.35476685,-0.08670044,-0.23158264
6.6053467,-6.8642883,2.5060272,-0.47193909999999994,-0.13676453,-0.1538086
5.9517365,-7.0342712,2.2426605,-0.46447754,-0.16659546,-0.06112671
5.3627625,-7.259338400000001,2.2450562,-0.42720032,-0.11225891,-0.012130736999999999
4.991653400000001,-7.194686999999999,2.3456116000000002,-0.5145569000000001,0.10824585,0.13275146
4.9820709999999995,-7.0294952,2.4270172000000003,-0.58592224,0.2733612,0.36923218
5.0395355,-7.0270996,2.1756287,-0.50816345,0.37669373,0.61849976
4.883911,-7.067794999999999,1.8883208999999999,-0.24397278,0.32662964,0.794281
4.7570190000000006,-6.8810425,1.7662201000000002,0.07135010000000001,0.09440613,0.8496703999999999
5.068268,-6.8379517000000005,1.7973328000000002,0.29931640000000004,-0.10054016,0.7740326
5.714706400000001,-7.065399,2.027176,0.28652954,-0.1303711,0.5141144
6.667602499999999,-7.7453613,2.161255,-0.058624268,0.109313965,0.21264648
7.148834,-8.695847,1.8859253,-0.517746,0.49920654,0.00491333
7.357132000000001,-9.452423,1.8715668,-0.7755432,0.82836914,0.010238647
7.665985000000001,-10.019852,2.4437714,-0.6903229000000001,0.92637634,0.15724182
8.444092,-10.826691,2.7885437,-0.48152159999999994,0.7601929000000001,0.38308716
8.168762,-11.408478,2.3647614,-0.38458252,0.50878906,0.58122253
6.2126923,-9.816345,2.1780242999999997,-0.35795593,0.30212402,0.70799255
5.061081,-8.264892999999999,2.4557495,-0.27593994,0.11357117,0.8123779000000001
4.644500700000001,-6.8642883,2.8340302000000004,-0.15875244,-0.02810669,0.91038513
5.463318,-6.6248627,2.7238922000000003,-0.054351807,-0.09628296,0.96577454
6.942932000000001,-7.285675,2.2498473999999997,0.05430603,-0.1388855,0.9412841999999999
8.480011,-7.7453613,1.4884948999999998,0.13420105,-0.11332703,0.81770325
8.709854,-7.711838,0.41827393,0.18852234,-0.05366516,0.61317444
7.7042847000000005,-7.1132812,0.011260986,0.18959045,-0.015319824,0.4533844
6.2294617,-6.8499300000000005,0.64572144,0.09690857,-0.0014801025,0.3745575
5.3005066,-6.6679688,1.6848145,0.015945435,0.0688324,0.2499237
4.7977295,-6.6033173,1.9553528000000002,0.014877318999999998,0.19667053,0.11570739999999999
5.0012360000000005,-6.653595,1.3663788000000001,-0.057556152,0.29147340000000005,0.11996459999999999
5.6955566,-6.696700999999999,1.0814667,-0.15661621,0.20092773,0.20411682
6.0331269999999995,-6.450088500000001,1.4142609,-0.18965149,0.07522583,0.18281555
6.298889,-6.284897,1.7279053,-0.14916992,0.10398865,-0.029174805
6.732239,-6.1580048,1.8619843,-0.16407776,0.2456665,-0.18043518
7.342758,-6.112503,2.015213,-0.31961059999999997,0.25205994,-0.19535828
7.929336500000001,-6.002380400000001,2.0080261000000004,-0.44850159999999994,0.058181763,-0.18896484
8.458466,-5.8012695,1.9601439999999999,-0.30256653,-0.26246643,-0.21240234
8.37706,-5.6384583,1.7973328000000002,0.06600952,-0.56925964,-0.26885986
8.197494500000001,-5.750992,1.4860992,0.33872986,-0.73651123,-0.31466675
8.489578,-5.956878700000001,1.5746765,0.43566895,-0.80255127,-0.31785583
8.640411,-6.246582,1.9768982,0.5251465,-0.77378845,-0.28271484
8.058624,-6.854706,1.6369323999999998,0.6061095999999999,-0.6832428,-0.27418518
7.7832947,-7.4772034,1.457367,0.581604,-0.5841675000000001,-0.40628052
8.341141,-7.7453613,1.8715668,0.42927550000000003,-0.50001526,-0.6502228
9.715408,-8.370239,2.4820862,0.29399109999999995,-0.3860321,-0.8739319
9.430511,-8.681488,2.3408203,0.22154236,-0.30934143,-0.97299194
8.039474499999999,-8.511505,1.3663788000000001,0.16615295,-0.25926208,-0.9058838
7.460083,-8.487564,1.0910492,0.13206482,-0.28590393,-0.70988464
7.5103607000000006,-8.595291,2.1229553,0.12567139,-0.37005615,-0.5479584
7.845550500000001,-8.803589,3.241043,0.13206482,-0.34448242,-0.51068115
7.721039,-8.770081,3.2434387000000005,0.12567139,-0.22305298,-0.5255890000000001
7.278122,-8.602478,2.6927642999999994,0.032989502000000004,-0.13569641,-0.4882965
6.995605499999999,-8.420517,2.61615,-0.10975647,-0.11651611,-0.40841675
7.0434875,-8.169128,2.5251770000000002,-0.21202087,-0.06538391,-0.38497925
7.414581299999999,-7.6017,2.0487366000000002,-0.27912903,-0.024902344,-0.41267395
7.4050139999999995,-6.893020599999999,1.4860992,-0.38246155,-0.027038574,-0.3732605
6.8854675,-6.6464232999999995,1.4621582,-0.4176178,-0.04194641,-0.2571411
5.954117,-6.852310000000001,1.5148315,-0.35476685,-0.043014526,-0.17085266
5.164032,-7.273697,1.4046936,-0.38139343,-0.050476074,-0.07923889
4.412262,-7.3622894,1.4717255,-0.54011536,0.00065612793,0.0965271
4.424225,-7.3000336,1.6967773000000002,-0.6306609999999999,0.16363525,0.36604309999999995
5.1855927,-7.4053802,1.9218445,-0.47833252,0.23715210000000003,0.60998535
5.6716156,-7.470016499999999,1.9457855,-0.08843994,0.1945343,0.8038635000000001
5.4417725,-7.515517999999999,1.4358215,0.32807922,0.1391449,0.8667145
5.2909239999999995,-7.616073599999999,1.0359802,0.62101746,0.047531128,0.68881226
5.645279,-7.7908479999999996,1.1604767,0.7264862,0.044326782,0.36709595
5.9756775,-7.9560394,1.3759613000000002,0.58374023,0.17749023,0.09120178
6.215088,-8.822739,1.2754059,0.23858643,0.36817932,0.034744263
6.380294999999999,-9.65593,1.5507355,-0.09271239999999999,0.5375519,0.16363525
6.8184357,-10.165894,2.015213,-0.25994873,0.5908203000000001,0.35432434
6.969269000000001,-10.661499000000001,1.7805786,-0.19604492,0.5748291,0.50665283
6.799270599999999,-11.135544,1.3616028,-0.052230835,0.5098572,0.5993347
5.714706400000001,-10.261658,1.833252,-0.0042877196999999995,0.39587402,0.6589813
4.8384247,-8.703033,2.85318,-0.02558899,0.27549744,0.6983948
4.989258,-7.836334,3.7462157999999994,-0.024536132999999998,0.15830994,0.7101135000000001
5.8128660000000005,-7.4484710000000005,3.7007294,0.047912598,0.088012695,0.7367554000000001
6.9285583,-7.10849,2.9154357999999996,0.16934204,0.0688324,0.749527
7.7306213,-7.201874,1.9314116999999997,0.23539734,0.08480835,0.68881226
7.644424400000001,-7.5634003,0.71276855,0.23007202,0.17642212,0.6174469
6.540710400000001,-7.848312400000001,-0.36701965,0.18426514,0.25738525,0.58229065
5.3795166,-7.7070465,-0.53460693,0.088394165,0.21690369,0.63449097
4.7235107,-7.259338400000001,0.023239136,-0.05329895,0.1391449,0.6973419
4.7666015999999996,-6.756546000000001,0.9737396,-0.13957214,0.034744263,0.70692444
5.223892,-6.4620667,1.4477844,-0.13745117,-0.0014801025,0.68562317
5.8104705999999995,-6.591354400000001,1.110199,-0.07992554,-0.024902344,0.573761
6.339584400000001,-6.8858337,0.85162354,-0.040512085,-0.122909546,0.3798828
6.832794,-7.0438538,1.0168304,-0.10229492,-0.2603302,0.16151428
6.99321,-7.0534362999999995,1.4046936,-0.20455933,-0.13995361,-0.050476074
6.7633667,-6.4452972,1.7063598999999998,-0.27166748,0.10612488,-0.3540802
6.9022217,-6.0311127,1.5794678,-0.24078369,0.33088684,-0.69177246
7.1967163,-6.2202454000000005,1.2538605,-0.011749268,0.39266968,-0.9026947
7.278122,-6.553039599999999,0.88993835,0.26628113,0.26591492,-0.9772644
6.974060000000001,-6.876266499999999,0.49011229999999995,0.45803833,0.01663208,-0.99217224
7.1153107,-7.158783000000001,0.2674408,0.53260803,-0.26779175,-1.003891
7.5151367,-7.046249400000001,0.66967773,0.5549774000000001,-0.50001526,-1.0401154000000001
7.88385,-6.988785000000001,1.402298,0.51875305,-0.6033478,-1.0358429
8.602112,-7.2090607,1.9553528000000002,0.41223145,-0.5767211999999999,-0.9911040999999999
9.471207000000001,-7.793243400000001,2.10141,0.279068,-0.47338867,-0.9719391
10.491135,-8.937667999999999,1.8931122,0.19384766,-0.30506897,-1.0028229
10.958008,-9.560165,2.0200043,0.21728516,-0.127182,-1.0859222
10.457611,-8.504318,2.5371552000000004,0.2566986,-0.015319824,-1.1658173
9.600494,-7.616073599999999,2.8867035,0.25883484,0.005981445300000001,-1.2094878999999998
8.705063,-7.568191499999999,3.3799133,0.28546143,-0.06326294,-1.2030945
8.089752,-8.097305,3.1883698,0.35150146,-0.19961548,-1.1466370000000001
7.847931,-8.545013,2.604187,0.43778992,-0.29974365,-1.0805969
7.5127562999999995,-8.6479645,2.118164,0.45271300000000003,-0.302948,-0.9761963
7.165588400000001,-8.406158,1.9242401000000002,0.33872986,-0.30827332,-0.76846313
6.839981,-8.284058,1.833252,0.14910889,-0.26991272,-0.49043274
6.516754,-8.102097,1.7183380000000001,-0.059677124000000005,-0.17617798,-0.25395203
6.428177,-7.7453613,1.8117064999999999,-0.20669556,-0.08563232400000001,-0.1538086
6.4545135,-7.357498,2.1109772,-0.33451843,-0.025970458999999998,-0.13357544
6.488037,-7.017517,2.5706634999999998,-0.4410553,0.023025512999999997,-0.06752014
6.1552430000000005,-6.7541504,2.5778502999999997,-0.4964447,0.034744263,0.09866333
5.8128660000000005,-6.768524,2.1804047000000004,-0.5688781999999999,0.005981445300000001,0.2925415
5.5734406,-6.9648438,2.0200043,-0.6860656999999999,-0.015319824,0.49067688
5.33403,-7.1300507,2.0247955,-0.81388855,0.021957397000000003,0.75379944
5.2358704000000005,-7.297638,2.0990142999999994,-0.8447876,0.08268738,1.0467377
5.0778503,-7.625641000000001,1.8093109,-0.7286682,0.10079956,1.3013458
4.6516724,-7.9440764999999995,1.2203369,-0.4026947,0.08908081,1.4962768999999998
4.4816895,-8.063782000000002,0.93782043,0.059631348,0.032608032,1.558075
4.8456116,-8.128433,0.9569701999999999,0.47401428,-0.09628296,1.4366302
5.6045685,-7.843521000000001,1.3639832,0.6540375,-0.22731018,1.1703186
6.4449309999999995,-8.228989,1.5651093,0.48040770000000005,-0.19854736,0.8123779000000001
6.9285583,-9.145966,1.6177673000000001,0.01701355,0.035812378,0.4075775
6.7633667,-9.598465,1.7829741999999997,-0.47514343,0.40652466,0.09971619
6.655624400000001,-9.940842,1.6943816999999999,-0.7499695,0.7687073,0.025146484
7.0554504,-10.625580000000001,1.5651093,-0.7744751,0.9700469999999999,0.11357117
6.732239,-10.668671,1.584259,-0.66474915,0.97750854,0.26803590000000005
5.5064087,-9.184265,2.1397095,-0.5529022,0.8251648000000001,0.40118408
5.183197,-8.0159,2.8364257999999998,-0.4495697,0.5929413,0.53541565
5.436980999999999,-7.2353973,3.6025696000000003,-0.2546234,0.3436737,0.65686035
6.2174835,-6.792464999999999,3.8467712,-0.023468017999999997,0.0922699,0.7324829
7.4696503,-6.713455000000001,3.3655396,0.11288452,-0.07391357400000001,0.7548523
8.640411,-7.096527,2.2378693,0.14378357,-0.127182,0.7133179000000001
9.183899,-7.185104400000001,0.85162354,0.097976685,-0.08242798,0.65686035
9.028275,-6.8307649999999995,-0.20420837,0.05003357,0.03794861,0.61531067
8.204680999999999,-6.531494,-0.26167297,0.0074310303000000005,0.13381958,0.53541565
6.825607300000001,-6.5482483,0.5667267,-0.059677124000000005,0.20838928,0.4725647
5.867935,-6.5482483,1.4382172,-0.13424683,0.27229309999999995,0.42036438
5.463318,-6.51474,1.7973328000000002,-0.17260742,0.22329712,0.3202362
5.49205,-6.4548798,1.6704407,-0.19709778,0.099731445,0.20944214
5.630905,-6.507553,1.481308,-0.22480774,0.024093628,0.0730896
5.9996184999999995,-6.531494,1.8212891,-0.24290466,-0.022781372,-0.07498169
6.44014,-6.392624,2.0918273999999997,-0.19923401,0.08161926,-0.19003296
6.7585754,-6.167572,1.8260651,-0.120407104,0.1625824,-0.44143677
7.239807000000001,-6.1340637000000005,1.5387726000000002,-0.05329895,0.19134521,-0.8089447
7.632461500000001,-6.294464,1.2849883999999998,0.11395264,0.21583557,-1.1295928999999998
7.7162630000000005,-6.3471375,1.2849883999999998,0.325943,0.16363525,-1.2947083000000001
7.914978,-6.2872925,1.37117,0.44525146,0.09013367,-1.3309326000000001
8.032288000000001,-6.5123444,1.2346953999999999,0.42181396,-0.056869507,-1.2798003999999998
8.156784,-6.768524,1.2059784,0.3536377,-0.25286865,-1.2169495000000001
8.599716,-7.1611633,1.3448334,0.35256958,-0.38816833,-1.1189423
8.824767999999999,-7.479599,1.6058044,0.4015808,-0.37538147,-0.9772644
9.401779,-8.140396,1.9074706999999997,0.45057678,-0.30613708,-0.875
10.309174,-9.268066000000001,2.2139282000000002,0.44525146,-0.27630615,-0.8270569
10.541412,-9.658325,2.6017914,0.39518738,-0.24649048,-0.81640625
10.024261,-8.425308,2.85318,0.3547058,-0.23049927,-0.81959534
9.557404,-7.3527070000000005,2.714325,0.33978270000000005,-0.24754333,-0.8227996999999999
8.973206,-7.338333,2.8579712,0.31636047,-0.28590393,-0.79829407
8.262131,-8.023087,2.8699493,0.26734924,-0.32211304,-0.734375
7.773712,-8.700638,2.3240662,0.20449829,-0.30934143,-0.6757965
7.1416473,-8.798798,1.6608734,0.11395264,-0.27737427,-0.60762024
6.619705000000001,-8.420517,1.4358215,0.03086853,-0.22731018,-0.5213318
6.2581940000000005,-8.042236,1.8380432,-0.030929565,-0.15592957,-0.39988708
5.954117,-7.81958,2.1995697,-0.10015869,-0.10586548,-0.26567078
5.9397583,-7.503539999999999,2.3384247000000005,-0.21308899,-0.076034546,-0.13783264
5.9756775,-7.182724,2.1756287,-0.31108093,-0.06858826,-0.014266968
6.0163727,-6.938507,1.9936676,-0.28126526,-0.043014526,0.13594055
6.0977783,-6.957657000000001,1.9673308999999997,-0.21734619,0.057113647000000003,0.29573059999999995
6.00441,-6.9313199999999995,1.9936676,-0.36116028,0.20092773,0.40013123
5.745834400000001,-6.847534,1.9098663,-0.8767395,0.222229,0.43954468
5.403457599999999,-6.8858337,1.7829741999999997,-1.5158996999999999,0.22543335,0.50346375
5.4058532999999995,-7.0294952,1.7518463,-1.7172394,0.24673462,0.5332794
5.329239,-7.1563873,1.6848145,-1.3848724,0.18067932,0.6760254
5.2095337,-7.199478,1.7614288,-0.7233429,-0.05580139,1.0861511000000001
5.1688232,-7.412567,1.8380432,-0.06820679,-0.44674683,1.6134643999999998
5.123337,-7.496353,1.7374878,0.36003113,-0.7897644,1.9010773
5.381912000000001,-7.826751700000001,1.4837036,0.52407837,-0.7769928,1.8275756999999997
5.693161,-8.176314999999999,1.4238434,0.51875305,-0.5543518,1.4707184
5.8583527,-8.336716000000001,1.8595886000000001,0.36749268,-0.28057859999999996,1.0925446
6.3036804,-8.626419,1.8428345000000002,0.022338867000000002,0.013442993,0.7974701
6.916595500000001,-8.983153999999999,0.8085326999999999,-0.35049438,0.40119934,0.5279541
7.7425995,-9.801971,-0.656723,-0.56248474,0.7569885000000001,0.3202362
7.922165,-10.3598175,-0.9703521999999999,-0.63705444,0.91252136,0.28082275
7.8120270000000005,-9.931258999999999,1.2035828000000002,-0.6200104000000001,0.8741760000000001,0.36604309999999995
6.986022999999999,-9.406937,3.533142,-0.50390625,0.7367554000000001,0.48535156
5.5566864,-9.184265,4.4596862999999995,-0.32279968,0.491745,0.5513916
4.5487212999999995,-8.937667999999999,3.5355377,-0.17472839999999998,0.17642212,0.6195679000000001
4.9557495000000005,-8.257721,1.9768982,-0.052230835,-0.08882141,0.6685791
6.476058999999999,-7.807602,1.2849883999999998,0.07772827,-0.19108582,0.63235474
7.9485016,-7.58255,0.7774048000000001,0.16722107,-0.11758423,0.52156067
8.451279,-7.5322723,0.17886353,0.1586914,0.058181763,0.46617126
8.015533,-7.338333,-0.6040496999999999,0.062820435,0.20092773,0.48747253
7.4385223,-6.7421875,-0.7046051,-0.002166748,0.27975464,0.5002594
6.8902589999999995,-6.069412000000001,0.087875366,-0.0074920654,0.33514404,0.43421936
6.0498962,-5.956878700000001,0.58587646,-0.038375854,0.37669373,0.32556152
5.638091999999999,-6.265732,0.8229065000000001,-0.09271239999999999,0.33088684,0.2414093
5.681183,-6.5386809999999995,1.13414,-0.087387085,0.14126587,0.18174744
6.059463500000001,-6.701477000000001,1.4046936,-0.033050537000000005,-0.017456055,0.056045532
6.3132477,-6.9911804,1.3113098,0.051101685,0.0027923584,-0.06539917
6.796890299999999,-7.2760925,1.3161011,0.15443420000000002,0.11784363,-0.24755860000000002
7.390640299999999,-7.1252594,1.6225586,0.28546143,0.17855835,-0.51493835
7.699493400000001,-6.7900696,1.6704407,0.41967773,0.045394897000000003,-0.72265625
7.30925,-6.617691000000001,1.3256836,0.51342773,-0.26565552,-0.81640625
6.7657623,-6.6440277000000005,0.85401917,0.53793335,-0.57458496,-0.9996338
6.9980009999999995,-6.897811999999999,0.9042969000000001,0.46975708,-0.6374359,-1.3298645
7.687530499999999,-7.1372222999999995,1.21315,0.38879395,-0.511734,-1.5770111
8.051437,-7.398193400000001,1.1557007,0.35896300000000003,-0.39242554,-1.5003052
8.259735000000001,-8.035049,1.031189,0.35682678,-0.42012024,-1.1775360000000001
8.523102,-8.767685,1.3424377,0.35682678,-0.43397522,-0.9112091
9.5933075,-9.713394000000001,1.7422790000000001,0.4324646,-0.3540802,-0.9026947
9.686691,-9.696625,2.197174,0.5720215,-0.24221802,-1.0315857
8.839141999999999,-8.214615,2.4796906,0.6338043000000001,-0.19747925,-1.0997620000000001
8.372269000000001,-7.1803284,2.415039,0.5762786999999999,-0.24116516,-1.0827178999999998
8.381851,-7.874649000000001,2.0224,0.48147583,-0.22091675,-1.1082916
8.348328,-8.899353,1.5172119,0.31848145,-0.13356018,-1.1402435
8.709854,-9.239334,1.3616028,0.11076355,-0.038757323999999996,-1.0997620000000001
8.733794999999999,-8.820358,1.4238434,-0.08950806,0.057113647000000003,-0.9634094000000001
7.847931,-8.604874,1.5339813,-0.20669556,0.10398865,-0.652359
6.1576385,-8.676697,1.5770721,-0.2184143,0.0027923584,-0.15594482
4.8096924,-8.619232,1.6177673000000001,-0.15768433,-0.21984863,0.24778748
4.637314,-8.061386,1.7159423999999999,-0.019210815,-0.38177490000000003,0.30638123
5.6165465999999995,-7.4101715,2.3168792999999996,0.046844482,-0.45420837,0.15724182
6.2366333,-6.9409027000000005,2.6975555,-0.03944397,-0.38070679999999996,-0.033432007
5.958908,-7.0031586,2.1588592999999996,-0.24078369,-0.21772766,-0.14955139
5.578232,-7.3000336,1.3328705,-0.4453125,-0.03768921,-0.118652344
5.6428833,-7.419739,1.0216216999999999,-0.60510254,0.07736206,0.0688324
5.4585266,-7.5729675,0.6672821,-0.7457123000000001,0.10185242,0.35858154
4.9198303,-7.7980347000000005,0.4948883,-0.8490448,0.14979553,0.5609741
4.5056305,-8.035049,0.6026305999999999,-0.7968445,0.27017212,0.63449097
3.9765167000000003,-8.063782000000002,1.05513,-0.59550476,0.397995,0.7058563
3.6365355999999998,-8.360672000000001,1.4142609,-0.28338623,0.37989807,0.81025696
4.405075,-8.564178,1.560318,0.0052948,0.25631714,0.8731078999999999
6.2486115,-8.403763,1.9697266,0.18533325,0.13700867,0.8581848
7.4385223,-8.231384,1.8500061,0.23432922,0.08374023400000001,0.8017273
8.149612,-8.655151,1.2945556999999999,0.12780762,0.13488770000000003,0.7292938
7.986801,-9.081314,0.76304626,-0.030929565,0.26164246,0.66111755
7.177566499999999,-9.512283,0.48052979999999995,-0.12892151,0.37243652,0.60040283
6.397049,-9.902527000000001,0.5116577,-0.15982056,0.37243652,0.5663147
5.3914795,-9.332718,0.6983948,-0.14491272,0.29893494,0.5695038
5.4465485000000005,-8.688675,1.1868134,-0.118270874,0.21903992,0.60040283
6.222275,-8.341507,2.0750732,-0.11187744,0.1476593,0.65153503
6.7873077,-8.621628,2.738266,-0.07034302,0.08161926,0.6770935
6.6915436,-8.329544,3.0183868,0.039382935,0.015563965,0.6664429000000001
6.9405365,-8.126038000000001,2.7214966,0.16082764,0.00065612793,0.6728363
7.2039029999999995,-7.6759186,2.0295715,0.22154236,0.041137695,0.6760254
7.318817,-7.314392,1.3113098,0.20982361,0.10185242,0.6259613
7.136856,-6.756546000000001,0.6576996,0.1821289,0.15086365,0.54074097
