accx,accy,accz,gyrx,gyry,gyrz
12.258057,-4.0534973,2.9896545,-0.15342712,0.088012695,0.26696777
11.740905999999999,-3.660843,0.25068665,-0.16407776,0.09013367,0.21051025
10.254105000000001,-3.9313964999999995,-1.6862183000000002,-0.24290466,0.22862244,0.12742615
8.989975,-4.292923,-1.5856628000000001,-0.28552246,0.35858154,0.034744263
7.914978,-4.644867,0.3129425,-0.21095276,0.42463684,-0.023849487000000003
6.828003,-5.051880000000001,1.5555267,-0.036254882999999995,0.34793090000000004,-0.054748535
5.949341,-5.0542755,1.8979034,0.16294861,0.12422180000000001,-0.06752014
5.523162999999999,-4.805282599999999,1.9960631999999998,0.31636047,-0.256073,-0.09841919
5.66922,-4.4221954000000006,1.8883208999999999,0.45483398,-0.76527405,-0.10481262
6.282135,-4.151657,1.6512909,0.6881255999999999,-1.0827178999999998,0.07202148400000001
7.1416473,-4.170807,1.4549713,0.96936035,-1.0145415999999998,0.24459839
7.9365234,-4.1732025,1.3137054,1.0812073,-0.71733093,-0.007873535
8.444092,-4.1372986,1.1820374,1.0609741000000001,-0.35833740000000003,-0.59695435
8.827164,-4.1157379999999995,1.1078033,1.1323395,-0.13569641,-1.2563628999999998
9.231781,-4.247421299999999,1.3137054,1.3347473,-0.14102173,-1.8379974
9.519089,-4.6376800000000005,1.7590331999999997,1.5275573999999998,-0.256073,-2.2204285
9.79921,-5.035125700000001,2.0367584,1.6117096000000002,-0.32850647,-2.3546447999999995
10.251709,-5.427765,2.0726776,1.598938,-0.41693115,-2.2395935000000002
11.183060000000001,-6.282501,1.9912720000000002,1.5009308000000001,-0.5681915,-1.9519806
12.844635,-8.066177,1.9314116999999997,1.3049164,-0.69602966,-1.6281433
14.142288,-9.778030000000001,2.35997,1.0183563,-0.638504,-1.3245392
14.511002,-9.653534,2.9657134999999997,0.6881255999999999,-0.47018433,-1.0496979
14.290741,-7.338333,2.7837523999999996,0.42820740000000007,-0.34448242,-0.81533813
13.282776,-4.640075700000001,2.367157,0.31422424,-0.33276367,-0.6033478
12.001877,-3.3352356,2.5634918,0.29078674,-0.42118835,-0.42546082
10.943634,-3.4669190000000003,2.750229,0.2524414,-0.4840393,-0.30508423
10.057785,-4.807663,2.5036316000000003,0.17680359,-0.4371643,-0.24862671
9.052216,-6.3064423,1.9242401000000002,0.12567139,-0.29229736,-0.20494079999999998
7.8814545,-7.132446300000001,1.5243988000000002,0.15336609,-0.17404175,-0.12611389
6.751388499999999,-7.3311615,1.2418823,0.22579956,-0.15592957,-0.005737304699999999
6.042709400000001,-6.9983673,0.96655273,0.2843933,-0.23902893,0.14447021
5.733855999999999,-6.557831,0.85401917,0.28971863,-0.3860321,0.36071777
5.5926056,-6.2801056,0.7678375,0.21942139,-0.49894714,0.66111755
5.537536599999999,-6.04068,0.9713440000000001,0.06814575,-0.46699524,0.9796295
5.535141,-5.8491516,1.4238434,-0.16514587,-0.31039429999999996,1.1766968
5.566269,-5.609726,1.7255096,-0.5017699999999999,-0.2368927,1.2022705
5.7075195,-5.3894652999999995,1.7853699,-0.93533325,-0.14741516,1.192688
5.875122,-5.1883545,1.8045197,-1.3571777,0.10292053,1.3428802
6.0355225,-5.2410125999999995,2.0606994999999997,-1.6618346999999998,0.51197815,1.6326447
6.021164,-5.399032599999999,2.3480072,-1.7183075,0.8976135000000001,1.8616637999999999
6.030730999999999,-5.6887360000000005,2.4078673999999998,-1.4210968000000002,1.1383667,1.8872375
6.34198,-6.2441864,2.106186,-0.75743103,1.0669861,1.719986
6.907013,-7.017517,1.723114,0.07135010000000001,0.60679626,1.4291687
7.8000490000000005,-7.991958599999999,1.3520203000000002,0.7435303000000001,0.07203674,1.0307617
8.745758,-8.578536999999999,1.074295,0.9288788,-0.20280457,0.5567169
9.418533,-8.341507,0.88993835,0.46655273,-0.1303711,0.10185242
10.244537,-8.025482,0.6241760000000001,-0.43891907,0.24887085,-0.22624207
11.558945,-9.071747,0.2842102,-1.2879333,0.7846985,-0.45954895
11.839066,-10.082092,0.47573853,-1.6447906000000003,1.0776367,-0.5639343000000001
10.742523,-9.574524,1.2586517,-1.5681,0.98602295,-0.45741272
9.54303,-7.668747,2.2713928,-1.3422698999999998,0.7719116,-0.16552734
9.054611,-5.4780426,3.2362518,-0.9790039,0.491745,0.21583557
8.982788000000001,-3.6584472999999997,3.9473267,-0.50816345,0.21903992,0.5460663
9.521484,-3.1317291000000003,3.8180389999999997,-0.094833374,0.054992676,0.74420166
10.476776,-3.5962067,2.6209412,0.1736145,-0.04194641,0.8198395
10.668304,-3.890686,0.8133239999999999,0.32380676,-0.15592957,0.81451416
9.873428,-3.8643494,-1.1499176000000002,0.36642456,-0.2603302,0.76231384
8.884628,-4.0199738,-2.4763029999999997,0.26628113,-0.24967957,0.6430054000000001
8.082564999999999,-4.5275419999999995,-2.3422394,0.056427002000000004,-0.14955139,0.47575378
7.357132000000001,-5.2410125999999995,-0.53460693,-0.15235901,-0.015319824,0.29147340000000005
6.2797394,-5.4971924,1.3592072,-0.31002808,0.18067932,0.10610962
5.408249,-5.554657,1.8859253,-0.41441345,0.38308716,-0.064331055
4.9940489999999995,-5.3511505,2.35997,-0.43038940000000003,0.53115845,-0.15594482
5.226287999999999,-4.965683,2.9585266,-0.35369873,0.50772095,-0.14315796
5.8727264,-4.49881,2.877121,-0.15449524,0.32769775,-0.023849487000000003
6.6484375,-4.2210846,2.2187195,0.19810486,0.039001465,0.23927307
7.452896000000001,-4.079834,1.4765167,0.628479,-0.36791992,0.5226288
8.056229,-3.9816742,0.8947296,0.9672241,-0.74183655,0.5567169
8.779282,-4.0774384,0.42546082,1.1344756999999999,-0.9058838,0.2264862
9.418533,-4.1301117,0.102249146,1.153656,-0.92292786,-0.45848083
9.940475,-4.3288269999999995,0.18125916,1.1355438,-0.9335785,-1.2638091999999999
10.402557,-4.733444,0.5786896,1.2101135,-0.9527588,-1.8326721000000001
10.723372999999999,-5.1859589999999995,0.9857024999999999,1.2505951000000002,-0.957016,-2.0755463
10.74971,-5.693527,1.4645386,1.1387329,-0.90374756,-2.118164
10.675491000000001,-6.2178497,1.9218445,0.9810790999999999,-0.83877563,-2.13414
11.32193,-7.3886259999999995,2.343216,0.84898376,-0.75460815,-2.2151031000000003
11.99469,-8.432495,2.7646027,0.7616272,-0.60227966,-2.2715607
12.372986000000001,-8.389389,2.9944458,0.7360687,-0.4286499,-2.2161560000000002
12.583664,-6.9983673,2.69516,0.7616272,-0.27737427,-2.00737
12.559723,-4.905838,2.2666016,0.81489563,-0.18469238,-1.6547699
12.722534,-3.3304443,1.9146576000000002,0.8692322,-0.19854736,-1.273407
12.849426,-3.2658080000000003,1.8428345000000002,0.83940125,-0.27844238,-0.9857788000000001
12.176651,-4.654433999999999,2.3025208,0.72328186,-0.27311707,-0.78871155
10.955612,-6.1460266,2.2929382,0.61676025,-0.19215393,-0.6576843000000001
9.763306,-6.9289246,1.7949523999999997,0.5517731,-0.15167236,-0.5287781
8.903777999999999,-6.9121704,1.7135468,0.49212646,-0.17936707,-0.36793518
8.470428,-6.684723,1.9960631999999998,0.42607117,-0.25926208,-0.14102173
8.06102,-6.708664,2.185196,0.3536377,-0.30827332,0.20198059
7.4935913,-6.9600525,2.2809752999999997,0.22261047,-0.24328613,0.5929413
6.732239,-7.1922913,2.2953339,-0.017074585,-0.062194824,0.8517914000000001
5.8392029999999995,-7.065399,2.1923828,-0.31640625,0.121032715,0.9050598
5.1664276,-6.5123444,2.0439453000000003,-0.7457123000000001,0.15618896,0.8731078999999999
4.9126434,-5.846756,1.6680602999999998,-1.3039093000000002,0.2264862,0.8912201
4.984466599999999,-5.3894652999999995,1.2993469,-1.840805,0.41184998,1.0680542
5.341202,-5.3439635999999995,1.2227325,-2.1486664,0.6696472,1.3748474
5.6021730000000005,-5.5402985000000005,1.2658234,-2.1177826,0.9902953999999999,1.6145325000000001
5.800888,-5.8419647,1.1844177,-1.7747650000000001,1.1948242,1.7189178
6.330017,-6.5721893,1.0120392,-1.1451874,1.0424805,1.6965485
7.0626373,-7.58255,1.0000763000000001,-0.34944153,0.53541565,1.4824371
7.618088,-7.8411255,0.9066924999999999,0.27374268,0.032608032,1.0488739
8.355514999999999,-7.481994599999999,0.52601624,0.40263367,-0.25074768,0.54393005
9.114471,-6.919357300000001,0.21476746,-0.075668335,-0.1303711,0.17002869
10.076935,-7.285675,-0.28800964,-0.83839417,0.39694214,0.012374878
11.132782,-8.738953,-0.7046051,-1.3103027,0.8954773000000001,0.01663208
10.938858,-9.363831,-0.33110046,-1.2890015,0.9711151,0.12422180000000001
9.844696,-8.750916,0.94021606,-1.0993805,0.76231384,0.31491090000000005
9.064194,-7.2760925,2.4126434,-0.9459839,0.50239563,0.50665283
8.520706,-5.3032684,3.3583527,-0.82881165,0.38948059999999995,0.65153503
8.35791,-3.7326660000000005,3.8228302000000003,-0.6860656999999999,0.3990631,0.7804260000000001
9.282059,-3.1413116000000003,3.8395996,-0.42401123,0.35113525,0.85606384
10.759293,-3.3927002,2.865158,-0.16514587,0.20732117,0.8624573
11.070526,-3.6584472999999997,1.2107544,-0.09590149,0.076293945,0.8166504
10.132004,-4.1061707,-0.6160126,-0.14491272,-0.00041198730000000005,0.7324829
8.819977,-4.623321499999999,-1.4659576,-0.20030212,0.020904541000000002,0.6483306999999999
7.7162630000000005,-5.008789,-0.48432922,-0.23225403,0.16470337,0.58335876
7.0003967000000005,-5.1811676,1.3065338,-0.26101685,0.35858154,0.5013274999999999
6.3156433,-5.0231476,1.9290161,-0.32600403,0.5141144,0.38627625
6.0953827,-4.635284400000001,1.8308563000000002,-0.42933655,0.63874817,0.27122498
6.3204346,-4.3408050000000005,1.9074706999999997,-0.5379944000000001,0.6462097,0.13912964
6.4545135,-4.0271606,2.0678864,-0.5433197,0.39266968,0.032608032
6.748993,-3.7326660000000005,2.355194,-0.31747437,0.027282715,0.15084839
7.246994,-3.4693146,2.2067412999999996,0.23432922,-0.26139832,0.46403503
7.721039,-3.3400269000000002,1.3424377,0.9160919,-0.5479584,0.54927063
8.336349499999999,-3.4333953999999998,0.84924316,1.2985229999999999,-0.6342468000000001,0.18707275
8.908569,-3.6823883,0.97613525,1.3262177,-0.43397522,-0.46487427
9.329956,-3.9768830000000004,1.2562561,1.2655028999999998,-0.28590393,-1.2062988000000001
9.993149,-4.345581,1.3639832,1.2516631999999999,-0.35940552,-1.7900543000000002
10.807175,-4.764572,1.2107544,1.2537842,-0.3668518,-2.0787506000000002
11.408112,-5.1189117,1.0671082,1.2399445,-0.36791992,-2.1479797
11.769638,-5.360733,1.1245728000000002,1.2101135,-0.47125244,-2.0723572
12.887725999999999,-6.586563000000001,1.5196075,1.1323395,-0.6225281,-1.8848724
14.027373999999998,-8.755707000000001,2.2570342999999995,0.9789429000000001,-0.6800537,-1.6302643
14.300308,-9.615219,3.4397583,0.7946625,-0.59695435,-1.3767395
14.056107,-7.8818207,4.229843,0.64764404,-0.49150085,-1.1402435
13.804718,-5.2290497,3.303299,0.567749,-0.46913147,-0.9272003000000001
13.237289,-3.3903046000000003,2.0846405,0.5539093,-0.5490265000000001,-0.7354430999999999
12.281998,-2.5834502999999995,1.6464995999999998,0.56669617,-0.69070435,-0.5596770999999999
11.254883,-3.222702,1.6632689999999999,0.54537964,-0.8046875,-0.37858582
10.199050999999999,-4.7741546999999995,1.6034088,0.49638367,-0.8355713,-0.21665955
9.382614,-6.095749,1.4549713,0.42713928,-0.7993621999999999,-0.111206055
8.480011,-6.6871184999999995,1.4621582,0.31848145,-0.6875,-0.037704468
7.5103607000000006,-6.833160400000001,1.4741211,0.19491577,-0.53730774,0.06137085
6.614928999999999,-6.59375,1.402298,0.09477234,-0.46806335,0.1668396
6.042709400000001,-6.246582,1.4669341999999999,-0.050094604,-0.48083496,0.22436523
5.633301,-5.9209747,1.6560822,-0.33451843,-0.4371643,0.25950623
5.33403,-5.585785,1.8859253,-0.6711425999999999,-0.29548645,0.36497498
5.1496735000000005,-5.3080597,2.0319672,-0.9236145,-0.03768921,0.47470093
5.1041870000000005,-5.2553864,2.142105,-1.1622313999999998,0.24780273,0.54393005
5.1903687000000005,-5.3942413,2.0798492,-1.4242858999999999,0.6185149999999999,0.7239685
5.4992220000000005,-5.578598,2.0918273999999997,-1.6543883999999998,1.0073395,1.0850983
6.0187683,-5.7270355,2.130127,-1.7151031000000003,1.2150573999999998,1.4579315000000002
6.562256,-5.9042205999999995,2.0319672,-1.3912659,1.2821655,1.6560669
6.918991,-6.1987,1.8859253,-0.6040344,1.1351624,1.6976166000000001
7.3283997,-6.3160095,1.7518463,0.34191895,0.5247649999999999,1.6858978
8.216644,-6.555435000000001,1.2969513000000001,1.0620421999999998,-0.56500244,1.5261078000000001
9.250946,-7.2377777000000005,0.57629395,1.4114532,-1.3490295,1.2480774
9.598099000000001,-7.74057,0.47813416,1.2836151000000002,-1.3000336000000001,0.8155823
9.677109,-7.7549285999999995,1.2586517,0.7850647,-0.7162628000000001,0.3287506
10.347488,-8.312775,1.6058044,0.23432922,-0.036621094,0.2499237
11.101654,-9.979141,1.6105957,-0.017074585,0.24459839,0.35539246
10.285233,-10.620789,1.833252,-0.06927489999999999,0.19134521,0.38734436
8.61647,-8.990341,2.4796906,-0.06607056,0.07841492,0.4022522
7.9532776,-6.7278137000000005,3.6696013999999995,-0.12892151,0.11677551,0.49707029999999996
7.8862457,-4.6041565,4.96727,-0.2546234,0.3394165,0.5790863
8.008347,-3.3304443,4.541092,-0.25782776,0.46723938,0.58122253
9.143203999999999,-3.0599060000000002,2.1468964,-0.096969604,0.42570496,0.50878906
10.07933,-3.4214325,0.095062256,0.074539185,0.30744934,0.42250059999999995
9.851883,-3.9194183,-0.75009155,0.12780762,0.17430115,0.41078186
9.559799,-4.1923523000000005,-0.99668884,0.086257935,0.11677551,0.48641968
7.543869,-4.8771057,-0.92007446,0.047912598,0.20732117,0.5652465999999999
6.2845306,-4.47966,-0.12998962,0.097976685,0.27229309999999995,0.6312866
6.713089,-4.8220367,0.25068665,0.38772583,0.30851746,0.6962738
7.096161,-5.087784,0.4158782999999999,0.7595062,0.58122253,0.8720398000000001
6.6604156,-4.9944153,0.4158782999999999,0.9107665999999999,0.61105347,0.83688354
6.672378500000001,-4.8651276,0.4733429,0.91716003,0.26271057,0.5279541
6.9836273,-4.47966,0.8588104,0.8340759,-0.31253052,0.23820496
7.369095,-4.2115173,1.1796417,0.675354,-0.87072754,0.13061523
7.689926,-4.2402496,1.0288085999999999,0.51449585,-1.1391753999999998,0.2456665
7.661194,-4.4509277,0.48532104,0.42395020000000005,-1.1455688,0.052856445
7.428955,-4.582611,0.073516846,0.5059662,-0.91334534,-0.51068115
7.5773926,-4.6664124000000005,0.18843079,0.73820496,-0.84729004,-1.3042908000000002
7.972442599999999,-4.7741546999999995,0.60502625,0.91822815,-1.0177307,-1.9445189999999999
9.064194,-5.171584999999999,1.4932709,0.92248535,-1.3191986,-2.1756897
9.435286999999999,-6.622466999999999,2.5155945,0.7286071999999999,-1.4928436,-2.2193604
9.674713,-7.16835,2.2498473999999997,0.48040770000000005,-1.1913757,-2.1543732
10.761688000000001,-6.205887000000001,1.3831482,0.30143738,-0.76953125,-2.1117706000000003
12.86618,-7.836334,0.85401917,0.13632202,-0.56925964,-2.1352081000000003
14.99942,-10.077301,0.19322205,0.097976685,-0.6044159,-2.4185638
14.712112,-10.031815,0.2842102,0.09265137,-0.6598053,-2.7509308
14.343414000000001,-7.398193400000001,1.153305,0.0798645,-0.64489746,-2.8116455
13.100814999999999,-4.2833404999999996,2.5778502999999997,-0.046905518,-0.46699524,-2.5666351
12.514236,-3.5674744,3.411026,-0.18965149,-0.13356018,-1.97435
11.81752,-4.3312225,2.877121,-0.19284058,0.076293945,-1.3362578999999999
10.01709,-5.3272095,2.015213,-0.071395874,0.19239807,-0.86860657
9.432891999999999,-6.399811,1.1413269,0.09371948,0.18495178,-0.5362395999999999
8.992371,-7.0821686,1.4334258999999998,0.19491577,0.076293945,-0.25500488
8.3172,-6.888229400000001,2.2019653,0.21195984,-0.050476074,-0.011062622
7.675552400000001,-6.404602,2.1875916,0.26202393,-0.29016113,0.16577148
7.8886414,-5.6552124,2.142105,0.37600708,-0.734375,0.44593809999999995
8.214249,-5.913787999999999,2.0080261000000004,0.5400543000000001,-1.1977692,0.85606384
7.2206573,-6.256164599999999,1.8069153000000002,0.66363525,-1.2009583000000001,1.288559
5.877502400000001,-6.3040465999999995,1.3951111,0.5400543000000001,-0.6566162,1.4685822
4.5535125999999995,-6.536285400000001,1.2466736,0.023406982000000003,-0.05580139,1.3578033
4.1967773,-6.4620667,1.6800232,-0.6732788000000001,0.40013123,1.1852264
4.745056,-6.016739,2.2450562,-1.2091063999999998,0.6973419,1.1404877
5.3052980000000005,-5.4900208,2.3839264,-1.5063171,0.983902,1.2108002
5.66922,-5.1260986,1.9792938000000002,-1.5286865,1.3407593,1.3545989999999999
5.9134215999999995,-4.7023315000000006,1.3951111,-1.1121674,1.4110718,1.3844299
6.514374,-4.589798,1.3017426,-0.49856567,1.0392914,1.1351624
6.952499400000001,-5.1524353,1.165268,-0.24717712,0.75593567,0.6259613
7.9604645000000005,-6.153213500000001,1.2035828000000002,-0.48791504,0.82411194,0.12954712
9.24855,-6.852310000000001,1.0359802,-0.9992523000000001,1.0382233,-0.18470764
10.687453999999999,-6.553039599999999,0.8659973,-1.5361481000000001,1.159668,-0.39030457
12.121582,-6.2489777,-0.098861694,-1.9643707,1.2310333,-0.42332458
13.560501,-7.036667,-0.8314971999999999,-2.1657104,1.1649933000000001,-0.302948
13.546142999999999,-7.5921326,-0.2760315,-2.0911407,0.8997344999999999,-0.021713257000000003
12.466353999999999,-7.175536999999999,0.6672821,-1.7982025000000001,0.53115845,0.41610718
10.936461999999999,-5.966461,1.7710113999999997,-1.4008483999999999,0.19346619,0.9018707
9.8423,-4.3072815,3.004013,-0.96302795,-0.027038574,1.3269043
9.933289,-2.7390747,3.0016173999999998,-0.47514343,-0.13676453,1.6070708999999999
10.639572,-2.4445952999999996,1.0934448,-0.0415802,-0.13676453,1.7626038
10.378616000000001,-2.8132935000000003,-1.0182343,0.2556305,-0.14422607,1.8382262999999999
9.341919,-3.624939,-2.1171722,0.44950867,-0.22944641,1.7860413
8.477615,-4.312072799999999,-2.2919617000000003,0.6327362,-0.26458740000000003,1.5037383999999998
7.567810000000001,-4.7526093000000005,-1.5258178999999998,0.6977234,-0.15060425,1.0744323999999998
6.5478819999999995,-5.020752,-0.30715942,0.53260803,0.050720215,0.68455505
5.621322599999999,-5.099762,0.9210663,0.14910889,0.21478271,0.37030029999999997
4.970108,-5.073425299999999,2.1349182,-0.23225403,0.30000305,0.10292053
4.711532599999999,-4.7382355,3.0088043,-0.37820435,0.36604309999999995,-0.07284546
5.0706635,-4.235458400000001,3.4756775,-0.26101685,0.34686279999999997,-0.17938232
6.045105,-3.8523864999999997,3.8228302000000003,-0.094833374,0.1625824,-0.21986389
7.007568400000001,-3.6129608,3.6169279999999997,0.09371948,-0.05899048,-0.10906982400000001
7.574997,-3.4094542999999997,2.9154357999999996,0.46868896,-0.302948,0.17216492
8.424942,-3.2897491000000003,2.185196,0.97042847,-0.66726685,0.39480590000000004
9.962021,-3.1293335,2.0247955,1.3453979999999999,-1.0933685,0.32342529999999997
11.195038,-2.894699,1.7135468,1.5105133,-1.3980408000000002,-0.037704468
11.487122,-2.7582397000000003,0.86120605,1.601059,-1.6547699,-0.68963623
11.422485,-2.688797,-0.21858215,1.7480620999999998,-1.9573058999999997,-1.466217
11.630783000000001,-2.8827362,-0.56333923,1.8631133999999998,-2.1160278,-2.0521088
11.855835,-3.5794373,0.19082642,1.7320862000000001,-1.8220062,-2.2949982
11.958786,-4.280945,1.4621582,1.4700316999999998,-1.2456969999999998,-2.3610382000000003
12.284393,-5.13089,2.0966186999999996,1.172821,-0.8068085,-2.3716888
13.136733999999999,-6.648803699999999,2.0247955,0.83940125,-0.558609,-2.3141632000000003
13.594025,-7.5897369999999995,2.4868773999999996,0.58906555,-0.38284302,-2.1852722
13.627548,-7.1492004,2.810089,0.48147583,-0.23049927,-2.0414581000000003
13.366577,-5.614517,2.3863068,0.47294617,-0.10267639,-1.8827362
12.748871000000001,-4.0391235,1.6920012999999998,0.5219574,-0.071777344,-1.6632843000000002
12.590850999999999,-3.0670776,1.426239,0.5847931,-0.2006836,-1.3959045
12.672255999999999,-3.222702,1.8476256999999998,0.62527466,-0.41053772,-1.116806
12.253264999999999,-4.407837000000001,2.2354736,0.58799744,-0.54689026,-0.8984375
11.113632,-5.798874,1.7398833999999999,0.44738770000000005,-0.5159912,-0.76527405
10.230164,-6.5434722999999995,1.37117,0.24604797,-0.3540802,-0.64808655
9.411346,-6.5674133,1.2658234,0.09265137,-0.19641113,-0.5032196
8.743362,-6.550644,0.9545745999999999,-3.0517577999999997e-05,-0.12930298,-0.30081177
8.477615,-6.8307649999999995,1.0240173000000001,-0.07246399,-0.13995361,0.0017242432000000002
8.259735000000001,-7.041458,1.4453888000000001,-0.13424683,-0.1900177,0.45126343
7.5965424,-6.766128500000001,1.747055,-0.21520996,-0.18043518,0.99134827
6.6388702,-6.373474,1.8907166000000002,-0.35476685,-0.083496094,1.4547424
5.796112,-5.9951935,1.8045197,-0.61042786,-0.04940796,1.7274474999999998
5.283752400000001,-5.628875700000001,1.6129913,-1.0216216999999999,-0.06752014,1.8073424999999999
5.2358704000000005,-5.3655243,1.3951111,-1.4732971000000001,0.1434021,1.8584747
5.5638733,-5.2601776,1.1820374,-1.8663788000000001,0.60572815,2.0278473000000004
5.6955566,-5.363128700000001,1.0599213,-2.079422,1.0371552,2.2994995
5.666824299999999,-5.4493103,1.2107544,-1.9547881999999999,1.2661896000000001,2.4944305
5.786529499999999,-5.715072599999999,1.3903198,-1.3859406,1.0637969999999999,2.581787
6.100174,-6.342346,1.3161011,-0.20881653,0.315979,2.5860442999999997
6.5646515,-7.163558999999999,1.2059784,1.1589813,-0.78764343,2.1056213
7.0841827,-7.668747,1.0718994,1.6724396000000001,-1.6153563999999998,0.9455414000000001
7.912582400000001,-7.5801544000000005,0.8947296,1.0364685,-1.3841858,0.0070495605000000005
9.095322,-7.393402,0.55714417,-0.18432617,-0.32106018,-0.25820923
11.151932,-8.255325,-0.07014465,-1.232544,0.8219757,-0.25074768
12.607605,-9.375809,-0.108444214,-1.6394653000000001,1.4920349,-0.2837677
12.296371,-9.430878,0.48771667,-1.6352081,1.5985565000000002,-0.2006836
10.476776,-7.8914029999999995,1.4046936,-1.5233611999999999,1.429184,0.045394897000000003
9.291641,-6.002380400000001,2.5084229,-1.329483,1.1096039,0.34472656
9.045044,-4.551483,3.2937163999999997,-1.0493164,0.75593567,0.6472626
10.136795,-4.297699,3.9090269999999996,-0.67007446,0.48641968,0.90719604
12.248474,-3.897873,3.205124,-0.20669556,0.30532837,1.0510101
13.629929,-2.2195435000000003,0.46855164,0.2566986,0.14233398,1.0680542
12.425644,-1.9585723999999998,-2.555313,0.6061095999999999,-0.03982544,1.1021423000000001
9.952438,-3.5195922999999993,-4.113937399999999,0.81703186,-0.19215393,1.2065277
8.566193,-4.594589,-3.5058135999999998,0.83833313,-0.22091675,1.2171783
8.149612,-4.7502135999999995,-1.2289276000000002,0.6242218,-0.106933594,1.003067
7.2182617,-4.6472625999999995,0.26983643,0.3270111,0.07736206,0.6355438
6.2318573,-4.6041565,0.5523529,0.09690857,0.26377870000000003,0.33195496
5.7577972,-4.522766000000001,0.9617614999999999,-0.021331787,0.37669373,0.16896057
5.578232,-4.3671417,1.4645386,-0.09376526,0.36923218,0.05390930000000001
5.776947,-4.2593994,2.094223,-0.11933899,0.26803590000000005,-0.08563232400000001
6.557464599999999,-4.1971435999999995,2.5898132,0.006362915,0.13700867,-0.05368042
7.7066803,-4.209121700000001,2.4246216,0.27799988,-0.07710266,0.1434021
8.290863,-4.2953033,1.5651093,0.5624237,-0.29548645,0.11038208
8.61647,-4.549103,0.6170044,0.7616272,-0.43504333,-0.29548645
9.124054,-4.261794999999999,-0.1563263,0.86602783,-0.5863037,-0.9112091
10.03624,-3.7039489999999997,-0.9799346999999999,0.81596375,-0.8100128000000001,-1.5077667
10.950821000000001,-3.5674744,-1.1762542999999999,0.62101746,-0.96447754,-1.9466553
11.317139,-4.1253204,-0.8937378,0.36642456,-0.8824463,-2.2268220000000003
11.40094,-5.027939,-0.44363403,0.046844482,-0.3391571,-2.292862
11.79837,-5.9640656,-0.06535339,-0.26315308,0.41717529999999997,-2.1596985
13.141525,-7.491561999999999,0.28660583,-0.30575562,0.80067444,-2.0105743
13.665848,-8.865845,0.8420563,-0.05329895,0.6227722,-1.9146881000000002
13.112793,-8.861053,1.3999023000000002,0.2609558,0.23182678,-1.7495728
12.9140625,-7.3000336,1.6153870000000001,0.50064087,-0.11439514,-1.5120239
12.734497,-5.061447,1.4980621,0.69984436,-0.39242554,-1.2425078999999999
12.255661,-3.7111205999999997,1.2730103000000002,0.9107665999999999,-0.6278534,-0.98365784
11.767242,-3.8691406,0.84924316,1.0822753999999999,-0.77059937,-0.78125
11.295592999999998,-5.0422974,0.38955688,1.1568451000000002,-0.7886963,-0.6150665
10.934067,-6.3040465999999995,0.49011229999999995,1.1057128999999999,-0.73651123,-0.44783019999999996
10.064972000000001,-7.3263702,0.72473145,0.9864044,-0.7354430999999999,-0.23902893
8.468033,-7.6112823,1.1413269,0.84365845,-0.75994873,0.008102416999999999
6.986022999999999,-7.010330000000001,1.8069153000000002,0.6689606,-0.7375641,0.23501587
6.4449309999999995,-6.641632,2.51799,0.41329956,-0.66300964,0.39585876
5.934966999999999,-6.7038727,2.5898132,0.02659607,-0.4882965,0.50346375
5.6404877,-6.9432982999999995,2.3288574,-0.5220032,-0.009994507,0.44380188
5.403457599999999,-6.8954163,2.1899872000000005,-1.2698212,0.83688354,0.21902466
5.17601,-6.483612,2.3958892999999994,-2.1497345,1.5346375,0.2499237
5.183197,-6.131668,2.3767395000000002,-2.8794402999999997,1.4803162,0.747406
5.19516,-5.9209747,2.0319672,-3.14682,0.92744446,1.415329
5.159256,-5.9209747,1.402298,-2.9220428,0.40013123,1.8904266
5.211914,-6.1388397,0.83966064,-2.4107208,0.22436523,2.2504882999999998
5.4106445,-6.4093933,0.56433105,-1.5446625,0.1945343,2.6180115
5.877502400000001,-6.574585000000001,0.42066956,-0.375,0.036880493,2.818283
6.6388702,-6.8020325,0.25068665,0.8053130999999999,-0.29974365,2.6616821
7.543869,-7.290450999999999,-0.06295776,1.6884154999999998,-0.59588623,2.2345123
8.630844,-7.972809,-0.32632446,2.0761719,-0.7056121999999999,1.7593994
9.282059,-9.0190735,-0.9655761999999999,1.8780365,-0.5309143,1.4206543
7.876663000000001,-9.89296,-1.7412872,1.2090454,0.0038604736,1.2363586000000002
6.358749400000001,-10.455597000000001,-1.5210266000000001,0.36749268,0.68136597,1.0797577
7.1033479999999996,-11.499466,-0.053375244,-0.38885498,1.2704468,0.8219757
9.260513000000001,-11.714935,2.35997,-0.81921387,1.4057465,0.50346375
9.873428,-10.50827,4.117325,-0.9704895,1.2129211000000002,0.2925415
8.997162,-8.408553999999999,5.7645264,-1.0013733,1.0392914,0.23713684
8.661972,-6.2489777,6.8060149999999995,-0.90338135,0.9647216999999999,0.30958557
9.746536,-5.219467,6.3558959999999995,-0.61042786,0.8177185,0.43528748
11.015472,-5.2865142999999994,4.782913,-0.20988464,0.52583313,0.5375519
11.013077000000001,-5.5211487,2.7047423999999998,0.12886047,0.19667053,0.5524597
9.911743,-5.487625,0.46855164,0.2843933,-0.012130736999999999,0.48641968
8.817596,-5.3080597,-1.4204712,0.28971863,-0.050476074,0.38627625
8.319595,-4.8555603,-2.1315459999999997,0.24497986,0.05178833,0.25311279999999997
8.305237,-4.3192596,-2.0956268,0.19917297,0.19560242,0.048583984000000004
8.353119,-4.247421299999999,-1.2624511999999999,0.17254639,0.19134521,-0.21133423
7.9053955,-4.3862915000000005,-0.29998779999999997,0.23539734,-0.122909546,-0.36366272
7.2326355,-4.436569,0.19801329999999998,0.45376587,-0.5543518,-0.3775177
6.796890299999999,-4.606552,0.7079773,0.6092987,-0.89842224,-0.38816833
6.751388499999999,-4.671203599999999,1.4310303,0.53900146,-1.1828461000000001,-0.42012024
7.208678999999999,-4.7382355,1.7494506999999997,0.48252870000000003,-1.2489013999999998,-0.34022522
8.111298,-4.819641000000001,1.3855438,0.53793335,-1.2414398000000002,-0.30508423
8.798430999999999,-4.7741546999999995,0.5738983,0.4601593,-1.2339783000000002,-0.5873718000000001
9.080948,-4.671203599999999,0.047180176,0.22579956,-0.9474334999999999,-1.1477051
9.308394999999999,-4.620926,-0.012680054,0.010620117,-0.5362395999999999,-1.7889862
9.605286,-4.5682526,-0.015075683999999999,-0.09376526,-0.26246643,-2.341858
10.014694,-4.7741546999999995,-0.024642944,-0.034118652,-0.16127014,-2.6742249
9.933289,-5.499588,0.08547974,0.16722107,-0.14315796,-2.7903442000000003
10.026657,-6.5386809999999995,0.8157196,0.4005127,-0.29335022,-2.722168
10.807175,-7.496353,1.0910492,0.58374023,-0.69389343,-2.5442657000000004
12.430435000000001,-9.054977000000001,0.35842896,0.6700286999999999,-1.1775208000000001,-2.3514557000000003
13.7951355,-10.690216,0.28660583,0.6529845999999999,-1.4800568,-2.1021729
13.883713,-10.223358000000001,0.72473145,0.5986481,-1.5003052,-1.7314606
13.677826000000001,-8.166733,0.51882935,0.5400543000000001,-1.3362427,-1.3000336000000001
13.139129999999998,-6.186737,0.37278748,0.4250183,-1.0688628999999998,-0.9282531999999999
11.865402,-4.862732,0.8133239999999999,0.26522827,-0.7247925000000001,-0.7162781
10.457611,-4.6376800000000005,1.3448334,0.06707764,-0.36791992,-0.66300964
9.20784,-5.355942,1.7662201000000002,-0.12786865,-0.05154419,-0.6811218000000001
8.417755,-6.524307299999999,2.0583038,-0.21095276,0.19239807,-0.6811218000000001
7.658798,-7.4221344,1.9673308999999997,-0.14064026,0.3117218,-0.5852356
6.8615265,-7.695083599999999,1.6417236000000002,0.036193848,0.30212402,-0.37644958
6.586197,-7.711838,1.4477844,0.24179077,0.15193176,-0.10481262
6.4161987,-7.800414999999999,1.3448334,0.40797424,-0.1388855,0.26803590000000005
6.0235596,-7.752533000000001,1.4956665,0.48573303,-0.3625946,0.7996063
5.714706400000001,-7.479599,1.7279053,0.46868896,-0.35940552,1.3578033
5.6596375,-6.914566000000001,1.6824188000000002,0.34512329999999997,-0.22305298,1.7157288
5.918213,-6.205887000000001,1.6608734,0.014877318999999998,-0.013198853,1.7732544
6.1097410000000005,-5.4852295,1.5746765,-0.5209503,0.2882843,1.7412872
6.0642548,-5.0470885999999995,1.481308,-0.98753357,0.60572815,1.8904266
5.877502400000001,-5.0494843000000005,1.7111511000000001,-1.232544,0.8709716999999999,2.1759186
5.4273987,-5.1859589999999995,2.0295715,-1.2112427,1.1149292,2.3772583
5.1185455,-5.573807,2.0990142999999994,-0.79577637,1.2267761000000001,2.401764
5.1903687000000005,-6.1939087,1.9314116999999997,-0.03730774,1.0019989,2.1620789
5.630905,-7.1252594,1.4860992,0.78826904,0.5513916,1.608139
6.4593050000000005,-8.504318,0.9641571,1.2356719999999999,0.21478271,0.8741760000000001
7.4074097000000005,-9.232147,0.61460876,0.99705505,0.1668396,0.22436523
8.542252000000001,-8.846695,0.39193726,0.1736145,0.48321533,-0.17192078
10.404938000000001,-8.786835,-0.23773193,-0.85757446,1.0147858,-0.32531738
11.920471000000001,-9.694229,-1.1810455,-1.5414733999999999,1.3780364999999999,-0.34129333
11.992294000000001,-10.264053,-1.1092224,-1.7012633999999998,1.3727112,-0.27311707
11.151932,-9.679871,-0.082107544,-1.6043243,1.2171936,-0.08670044
10.505508,-8.032653999999999,1.050354,-1.3603668,0.9924164000000001,0.22969055
10.091308999999999,-5.7821045,2.355194,-0.98965454,0.75061035,0.5801544
10.287628,-3.9912415,3.205124,-0.5518341,0.5844269,0.8454132
11.331497,-3.349594,2.8172759999999997,-0.110824585,0.397995,0.95832825
12.064133,-3.526764,1.1245728000000002,0.22900389999999998,0.10292053,0.9253082
11.166306,-3.9002686,-1.3318787,0.38026428,-0.19215393,0.8273010000000001
9.387405000000001,-4.1971435999999995,-3.3047028,0.31636047,-0.33383179999999996,0.7015991
7.8742676,-4.654433999999999,-3.9415587999999997,0.08518982,-0.2518158,0.5194397
6.883072,-5.1572265999999996,-2.6941832999999997,-0.22692871,0.0688324,0.31809998
6.2510069999999995,-5.427765,-0.3550415,-0.46875,0.46405029999999997,0.11782837
5.678787000000001,-5.5259247,0.8659973,-0.53585815,0.667511,-0.064331055
5.1927642999999994,-5.418197599999999,1.5962219,-0.40376282,0.55885315,-0.16873169
5.1185455,-5.135681,2.2977295,-0.19284058,0.25845337,-0.16873169
5.666824299999999,-4.7382355,2.6257324,-0.028793335,-0.15060425,-0.10160828
6.6005554,-4.297699,2.5299682999999997,0.18426514,-0.52238464,0.06776428
7.665985000000001,-4.0319519999999995,1.7710113999999997,0.5720215,-0.7801819000000001,0.25099182
8.389023,-3.8811187999999994,0.76304626,0.87028503,-0.96980286,0.13594055
8.8702545,-3.9481506,-0.0007019042999999999,0.8841399999999999,-0.89097595,-0.2986908
9.533463000000001,-4.072647,-0.42926025,0.90864563,-0.7759246999999999,-0.91441345
9.959625,-4.2115173,-0.5274353,1.2143707000000001,-1.0124054,-1.8347931
10.163132000000001,-4.3862915000000005,-0.13957214,1.6681671000000002,-1.3969726999999998,-2.9075165000000003
10.371429,-4.8004913,0.40870667,1.6703033,-1.4108124,-3.5168457
10.57254,-5.5043793,0.97613525,1.1291503999999999,-1.1381073,-3.518982
10.814346,-6.284897,1.2275238000000002,0.41435242,-0.9378357,-3.0449371
11.623596000000001,-7.3191833,0.96655273,-0.083114624,-0.9527588,-2.5506592
13.04335,-9.090897,0.84924316,-0.25143433,-0.9282531999999999,-2.230011
14.096801999999999,-9.919296000000001,1.4405975,-0.22480774,-0.7535553,-1.9690246999999999
14.441574,-8.449249,1.5914458999999999,-0.15129089999999998,-0.558609,-1.6686096000000001
13.823868,-6.150818,0.85162354,-0.057556152,-0.4329071,-1.3948517
12.662674,-4.3982544,0.9617614999999999,0.08518982,-0.47871400000000003,-1.2457122999999999
12.959564,-3.5148010000000003,1.9242401000000002,0.19384766,-0.5575409,-1.114685
13.553314000000002,-3.0383606,2.786148,0.19384766,-0.511734,-0.9239959999999999
12.025818,-4.3862915000000005,1.3855438,0.15229797,-0.34980774,-0.69389343
9.830338000000001,-6.354324299999999,-0.6064453000000001,0.18106079,-0.18043518,-0.4755249
7.448105,-6.7038727,-1.4444122,0.28546143,-0.07391357400000001,-0.26672363
6.679565400000001,-6.471634,-0.6734772,0.40370178,-0.03768921,-0.052612305
7.290085,-6.5841675,0.9904938,0.4559021,-0.10800171,0.18814087
7.7234343999999995,-6.888229400000001,2.0726776,0.41116333,-0.22198486,0.5141144
7.4074097000000005,-6.952881,2.3527985,0.3035736,-0.17510986,1.0052032
6.986022999999999,-6.653595,2.3049164,0.14485168,0.10505676,1.5165253
6.9142,-5.9233704000000005,2.1660461,-0.09057617,0.22436523,1.8201294
6.583801299999999,-5.2362366,1.8739471,-0.47407532,0.17216492,1.9223938000000003
6.052292,-5.001602,1.6082001,-0.9331969999999999,0.27656555,2.0310516
5.645279,-4.984833,1.5100403,-1.3582458,0.5801544,2.3069458
5.595001,-5.0758209999999995,1.7183380000000001,-1.5798187,0.9711151,2.6190796
5.681183,-5.2529907,1.8763428,-1.4370728000000002,1.3109283,2.7287903
5.8535614,-5.585785,1.7279053,-0.8809966999999999,1.3439484,2.5690002
6.1193237,-6.1220856,1.2323151,-0.020263672,1.0094604,2.2451630000000002
6.7394257,-7.2353973,0.6194,0.771225,0.5098572,1.7071991000000002
7.369095,-8.451645,0.25787354,1.0769501,0.09440613,1.0179749
7.835967999999999,-8.791625999999999,0.061538696,0.67214966,0.050720215,0.46617126
8.623657000000001,-8.255325,-0.24731445,-0.27593994,0.40119934,0.16577148
10.445648,-9.098083500000001,-1.0110626,-1.1973877,0.88908386,0.062438965
11.764847,-10.264053,-1.4276427999999999,-1.5084381000000002,1.0669861,0.060302734000000004
11.211791999999999,-10.024628,-0.97753906,-1.3742218000000002,0.9530029000000001,0.17216492
10.026657,-8.420517,0.2052002,-1.1313476999999998,0.79107666,0.38414
9.485565,-6.2801056,1.6321411,-0.8170929,0.57910156,0.58229065
9.732178,-4.3791046,2.5993958,-0.48152159999999994,0.4139862,0.700531
10.474380499999999,-3.6033936,2.8388214,-0.2184143,0.33409120000000003,0.70799255
11.781616,-3.7661896,1.7829741999999997,-0.061813354,0.2264862,0.6248931999999999
12.164688,-3.7422485,-0.17070007,-0.002166748,0.06990051,0.5524597
10.876602,-3.7829437000000006,-2.4164581000000003,-0.009613037,-0.025970458999999998,0.51304626
9.258118,-4.1253204,-3.9870453,-0.028793335,0.019836426,0.43421936
8.051437,-4.5203705,-3.733261,-0.07460022,0.14979553,0.30426025
7.282913000000001,-4.881897,-1.2744141000000002,-0.18644714,0.3117218,0.16044617
6.6532288,-5.0111694,0.7774048000000001,-0.27380370000000004,0.43847656,0.056045532
6.1767883,-5.025543,1.21315,-0.27273559999999997,0.49813843,0.0070495605000000005
6.145660400000001,-4.630493,1.620163,-0.19497679999999998,0.49493408,-0.02810669
6.5646515,-4.2163086,1.8715668,-0.120407104,0.36071777,-0.12397766
7.136856,-3.933792,1.6177673000000001,-0.02772522,0.14553833,-0.13996887
7.802444500000001,-3.8069,1.0168304,0.26841736,-0.122909546,0.047531128
8.092148,-3.8475952000000007,0.41349792,0.7339325,-0.35726929999999996,0.21583557
8.300446,-4.072647,0.116607666,1.0279540999999999,-0.51493835,0.020889282
8.817596,-4.2115173,0.18843079,1.1046448,-0.57777405,-0.5532836999999999
9.344315,-4.254608,0.25068665,1.1600494,-0.76953125,-1.2563628999999998
9.78006,-4.5275419999999995,0.039993286,1.2154388,-1.1253203999999999,-1.7921906000000003
10.1822815,-5.027939,0.025634766,1.2452698,-1.4065552,-2.0499878000000002
10.584503,-5.585785,0.21716309,1.1270142,-1.3820496000000002,-2.0755463
10.960403,-5.9473114,0.44940186,0.84259033,-1.0848541,-2.0126953000000003
11.575714,-6.011947599999999,0.56433105,0.52407837,-0.7620697,-1.9828644
12.535782000000001,-7.1970825,0.40631104,0.28227234,-0.5383606,-1.9956512
13.237289,-8.693466,0.6529083000000001,0.19598389,-0.45741272,-1.9636993000000003
13.7161255,-8.664734,1.2849883999999998,0.25137329999999997,-0.46166992,-1.8433228
13.737670999999999,-6.7038727,1.0288085999999999,0.37174988,-0.5095978,-1.6558380000000001
13.354598999999999,-4.4413605,0.42066956,0.47401428,-0.5809784,-1.4417114
12.753662,-3.6560516000000005,0.4948883,0.4559021,-0.6416930999999999,-1.2382507
11.927658000000001,-4.625717,0.48532104,0.32273865,-0.6097412,-1.0763245000000001
11.0082855,-5.971252400000001,0.5738983,0.15336609,-0.49894714,-0.96447754
10.052994,-6.904983500000001,0.53559875,0.018081665,-0.35514832,-0.8462371999999999
9.10968,-7.0031586,0.26504517,-0.031982422,-0.21240234,-0.67259216
8.307617,-6.4309387000000005,0.30575562,-0.00642395,-0.14955139,-0.43930054
7.8072357000000006,-5.980835,0.5786896,0.08944702,-0.2134552,-0.21026611
7.476837,-6.1388397,1.0216216999999999,0.19810486,-0.38177490000000003,-0.003616333
7.139251700000001,-6.5123444,1.3951111,0.13845825,-0.41265870000000004,0.31596375
6.794494599999999,-6.6631775,1.5243988000000002,-0.07246399,-0.18363953,0.80918884
6.4521180000000005,-6.555435000000001,1.426239,-0.27273559999999997,0.05178833,1.2864227
6.1193237,-6.222641,1.1125946000000002,-0.50283813,0.14021301,1.4984131
5.8727264,-5.767746,0.8276825000000001,-0.8959198,0.30212402,1.5442200000000001
5.8392029999999995,-5.4852295,0.78219604,-1.3497162,0.5290222,1.6720581
5.8727264,-5.554657,0.96894836,-1.6277466,0.7889556999999999,1.9309081999999997
5.867935,-5.9161835,1.1748505,-1.6117706,1.1490173000000001,2.1418304
5.6835785,-6.155608999999999,1.323288,-1.2836761,1.3769836000000002,2.182312
5.8032837,-6.342346,1.3855438,-0.61894226,1.2299652,2.1301117
6.710693400000001,-6.921753,1.3065338,0.2556305,0.794281,1.9532776
7.4385223,-7.867462,0.6194,0.9757538,0.25631714,1.5974883999999998
7.357132000000001,-8.202652,0.051971435999999996,1.1216888,-0.18469238,1.162857
7.4983826,-7.7453613,0.13815308,0.59013367,-0.26565552,0.73994446
9.219818,-7.8602753,-0.07014465,-0.39736938,0.020904541000000002,0.4256897
11.132782,-9.011887,-0.82910156,-1.2666321000000003,0.53541565,0.20518494
11.489517,-9.608047500000001,-1.171463,-1.4764861999999999,0.7740326,0.08161926
10.402557,-8.803589,-0.25448608,-1.2783508,0.70480347,0.11676025400000001
9.334732,-7.1611633,1.1868134,-0.99497986,0.63874817,0.22436523
8.7314,-5.238632,2.2187195,-0.6828613,0.55033875,0.33621216
8.489578,-3.921814,2.8483887,-0.38992309999999997,0.47683716,0.43421936
9.528671000000001,-3.8404083,2.7262877999999997,-0.108688354,0.42889404,0.49386597
10.816742,-4.0750427,1.4597626,0.16508484,0.31491090000000005,0.5098419
10.936461999999999,-3.9601288,-0.68066406,0.26522827,0.15725708,0.49707029999999996
10.371429,-3.7997131,-2.7803802,0.14271545,0.076293945,0.45765686
9.624435,-3.8045044000000003,-3.9654998999999997,0.018081665,0.14447021,0.40438843
9.238968,-4.276153599999999,-3.4172363,0.07028198,0.25419617,0.38841248
8.693085,-4.8100586,-0.6255951,0.18852234,0.27017212,0.37030029999999997
7.613312,-4.733444,1.3328705,0.19598389,0.17749023,0.27442932
6.978836,-4.613739,1.7757874,0.21302795,0.043273926,0.25950623
6.7561800000000005,-4.4653015,2.0032349,0.33659363,-0.17404175,0.34472656
6.8016663,-4.3719177,1.9721221999999998,0.3547058,-0.44248962,0.34472656
7.091369599999999,-4.3288269999999995,1.7494506999999997,0.18319702,-0.6374359,0.25099182
7.4911957,-4.1181335,1.4166565,0.012756348,-0.59695435,0.1796112
7.898208599999999,-4.0511017,0.46138,0.010620117,-0.41265870000000004,0.032608032
8.372269000000001,-4.2593994,-0.58488464,0.18106079,-0.2571411,-0.3455658
8.949264999999999,-4.510788,-0.7237549,0.44844055,-0.24328613,-0.9112091
8.96843,-4.3743134,-0.055770874000000005,0.76908875,-0.40628052,-1.4875183
8.858292,-4.017578,0.2339325,1.1621704,-0.70347595,-1.8561096000000001
9.502335,-4.1157379999999995,-0.24731445,1.5264893,-0.943161,-2.004181
10.052994,-4.898651,-0.5106659,1.6745605,-1.0422363000000001,-2.0489197
10.373825,-5.446914700000001,-0.108444214,1.5435333,-1.0486298,-2.0393220000000003
11.585281,-5.913787999999999,-0.29759216,1.2239532,-0.9559479,-2.0276183999999997
13.577255,-7.163558999999999,-0.8961334000000001,0.84791565,-0.8068085,-2.024414
14.956329,-8.365447999999999,-0.6830596999999999,0.58906555,-0.6843109,-1.9732819
15.183777,-8.061386,0.42785645,0.50064087,-0.6342468000000001,-1.8582306
14.539734,-6.234619,1.6082001,0.48892212,-0.6544800000000001,-1.7176208
13.35939,-4.3862915000000005,2.2809752999999997,0.44099426,-0.6864319000000001,-1.5770111
12.234116,-3.9002686,2.4246216,0.33233643,-0.6736603,-1.4385223
11.120819000000001,-4.733444,2.5467223999999997,0.21089172,-0.62039185,-1.3128203999999999
10.304382,-5.9592743,2.355194,0.044708252000000004,-0.4744568,-1.2776642
9.78006,-6.6248627,1.5866547,-0.32707214,-0.24649048,-1.3735351999999998
9.030669999999999,-6.6344449999999995,0.6026305999999999,-0.8021698,0.013442993,-1.4257355
8.393814,-6.3160095,0.06872558599999999,-1.075943,0.20199585,-1.3170776000000002
7.9652557,-6.189117400000001,-0.053375244,-1.0141601999999998,0.28189087,-1.0134735000000001
7.579788000000001,-6.349533,0.25787354,-0.71694946,0.34260559999999995,-0.39881897
7.2517853,-6.59375,0.79896545,-0.49751282,0.42675779999999996,0.48214722
6.880676299999999,-6.5841675,1.0814667,-0.6200104000000001,0.39266968,1.2736359
6.468872,-6.349533,1.0455627,-0.9800719999999999,0.27017212,1.7178650000000002
6.052292,-6.023926,0.9713440000000001,-1.3901978000000002,0.38948059999999995,1.9788512999999999
5.867935,-5.6815489999999995,1.0862578999999999,-1.6661072000000001,0.6781616,2.2856445
6.3132477,-5.585785,1.0838623,-1.7726288000000001,0.98283386,2.6275939999999998
6.954895,-5.80365,0.42066956,-1.4839478000000002,1.1585999,2.8939056
6.5742188,-6.0933532999999995,0.06872558599999999,-0.6530304,0.80918884,2.9024353
5.784134,-6.428543,0.758255,0.36216736,0.13807678,2.6158752
5.6285095,-7.3957977,1.7111511000000001,1.0471191,-0.3391571,2.132248
5.9134215999999995,-9.0190735,2.039154,1.0364685,-0.49682617,1.7359619
5.6979370000000005,-9.830703999999999,1.4860992,0.372818,-0.42225647,1.6028136999999998
5.717102,-8.849075,0.13337708,-0.53585815,-0.10374451,1.6443481
7.828780999999999,-8.583328,-0.7644501,-1.0418549000000001,0.33088684,1.5974883999999998
10.424103,-10.158707000000001,-1.087677,-0.9491729999999999,0.6493988,1.3780364999999999
10.833511,-10.424469,-0.30715942,-0.611496,0.8198395,1.1031952
9.564575,-8.738953,0.82528687,-0.34411620000000004,0.72610474,0.9295654000000001
8.017928999999999,-6.131668,2.4964447,-0.25675964,0.5151825,0.890152
8.099335,-4.0534973,4.090987999999999,-0.22692871,0.36604309999999995,0.89227295
10.292419,-4.1732025,3.8156586000000003,-0.15129089999999998,0.28507996,0.8454132
12.394531,-5.355942,1.9409942999999998,-0.09803772,0.27017212,0.71224976
12.059341,-5.8371735000000005,-0.4771576,-0.10548401,0.26696777,0.5460663
10.069763,-5.329605,-2.4643402,-0.13424683,0.25845337,0.38520813
8.839141999999999,-4.9608917,-2.9719086,-0.15768433,0.21051025,0.19560242
9.100098,-4.812454,-1.2049866000000002,-0.120407104,0.15193176,-0.01638794
9.70105,-4.549103,1.2849883999999998,-0.052230835,0.22010803,-0.20814514
9.705841,-4.209121700000001,2.1780242999999997,-0.120407104,0.44061279999999997,-0.38070679999999996
8.963638000000001,-3.9266052000000005,1.7015686,-0.26741028,0.6398163,-0.5341034
8.070602000000001,-3.7613983,0.72473145,-0.25994873,0.6174469,-0.64489746
7.8096312999999995,-3.7661896,0.27702332,-0.13105774,0.23927307,-0.70028687
8.104111,-3.6919708,0.43983459999999996,-0.036254882999999995,-0.21665955,-0.652359
8.578171000000001,-3.5890197999999995,0.38955688,0.10116577,-0.43930054,-0.33277893
8.796036,-3.5124053999999996,0.14533997,0.31741333,-0.48510742,-0.052612305
8.841536999999999,-3.4214325,-0.010284424,0.49531555,-0.47125244,-0.19961548
9.116867,-3.4956512,-0.06295776,0.61782837,-0.38710022,-0.7556915
9.844696,-4.012787,0.054367065,0.79252625,-0.5319824000000001,-1.5056305
10.426497999999999,-4.623321499999999,0.20999146,1.0002594,-0.98791504,-2.1416016
10.438461,-4.757385299999999,-0.16111755,1.1152954,-1.3213348,-2.6859436000000003
10.184677,-4.709503,-0.582489,1.04393,-1.4481049,-3.0364227
10.132004,-4.9704742,-0.14196777,0.77334595,-1.3042908000000002,-2.9735717999999998
11.051376,-6.1723633,0.25068665,0.41009520000000005,-1.0496979,-2.6646422999999997
13.397689999999999,-8.961609,-0.206604,0.08518982,-0.6875,-2.3248138
14.302704,-10.812332000000001,-0.16590881,-0.063949585,-0.24542236,-1.9732819
14.472686999999999,-10.364609,0.31532288,0.023406982000000003,0.043273926,-1.5663452
14.606766,-7.9560394,0.6385498000000001,0.22474670000000002,0.062438965,-1.1285247999999999
13.764007999999999,-5.051880000000001,0.758255,0.41648865,-0.16339111,-0.71946716
12.801544,-3.708725,0.9928894,0.56881714,-0.49682617,-0.46487427
11.582886,-3.9170227,0.9354248,0.63487244,-0.7588805999999999,-0.3860321
10.76886,-4.826828,0.40631104,0.54751587,-0.7993621999999999,-0.37858582
10.337906,-6.7421875,0.047180176,0.35682678,-0.62358093,-0.36260986
8.614075,-8.106873,-0.43165588,0.15124512,-0.35940552,-0.30827332
6.942932000000001,-8.267288,-0.5322113,0.0052948,-0.14741516,-0.1974945
6.282135,-7.903366,-0.077316284,-0.054351807,-0.09202576,-0.005737304699999999
6.1289062,-7.5873413,0.6217804,-0.03730774,-0.16339111,0.29359436
5.7793427,-7.0941315000000005,1.4525757,0.002105713,-0.19108582,0.7324829
5.480072,-6.749374400000001,1.6105957,0.0042266846,-0.08563232400000001,1.2193146000000001
5.266983,-6.3974150000000005,1.2179413000000001,-0.07034302,0.01876831,1.6156006
5.5135955999999995,-5.808441,0.96655273,-0.27380370000000004,-0.00680542,1.8755188000000003
5.911026000000001,-5.159622,0.9450073,-0.5742035,0.050720215,2.0630034999999998
6.013977,-4.783722,0.7438965,-0.86395264,0.26696777,2.2259827000000003
5.927795400000001,-4.6472625999999995,0.5906677,-1.0162964,0.5609894,2.3783263999999997
5.927795400000001,-4.8842773,0.6313629,-0.9278716999999999,0.9284973,2.5572814999999998
5.9517365,-5.4541015999999996,0.76065063,-0.45170593,1.2161255,2.7660828
5.7506104,-5.88266,0.90190125,0.48147583,1.1479492,2.834259
5.958908,-6.574585000000001,0.9617614999999999,1.568039,0.7452698,2.550888
6.710693400000001,-7.8722534,0.82051086,2.3147888,0.25952148,1.7775116000000002
7.551056,-8.688675,0.5379944000000001,2.3211823,-0.10906982400000001,0.7985382
8.389023,-8.573746,0.27223206,1.4572448999999998,-0.12397766,0.06776428
9.713028,-8.810775999999999,-0.35743713,0.024475097999999997,0.21264648,-0.34236145
11.2213745,-9.806763,-0.88417053,-1.1611633,0.62384033,-0.5500946
11.999481,-10.254471,-0.62080383,-1.6117706,0.85713196,-0.68963623
11.87738,-9.682266,0.30096436,-1.6831512,0.9668578999999999,-0.70988464
11.24292,-8.662338,1.4286346,-1.6245575,0.98176575,-0.5437012
10.031448,-6.8858337,2.5299682999999997,-1.4029846000000001,0.8273010000000001,-0.22837829999999998
9.578949,-4.8579407,3.5187682999999996,-0.9800719999999999,0.5897522,0.11357117
10.483948,-3.4381866000000003,3.2506256000000002,-0.41229248,0.34686279999999997,0.35964966
12.356216,-3.0503235,1.2490691999999999,0.11502075,0.15618896,0.45765686
12.674652,-2.9138488999999996,-1.6622772000000001,0.37493896,0.044326782,0.42889404
11.044189,-3.1029967999999997,-4.645462,0.34831238,0.00065612793,0.36283875
9.289246,-3.6991577000000007,-6.534485,0.20556639999999998,0.01876831,0.28082275
8.190308,-4.407837000000001,-5.533706700000001,0.09158325,0.14021301,0.1796112
7.5534514999999995,-4.9728699999999995,-2.1674652,0.01914978,0.3394165,0.046463013
6.713089,-5.2410125999999995,-0.11563110000000001,-0.11933899,0.5183715999999999,-0.07284546
5.6093597,-5.2601776,0.57629395,-0.22586060000000002,0.57270813,-0.127182
4.780959999999999,-5.0422974,1.3328705,-0.10548401,0.34260559999999995,-0.10481262
4.713928,-4.7980957,2.173233,0.111816406,-0.13569641,-0.059005737
5.436980999999999,-4.687958,2.7813567999999997,0.2843933,-0.4371643,0.0688324
6.48085,-4.515579,2.6448822,0.50064087,-0.5532836999999999,0.27868652
7.369095,-4.326431299999999,1.4908752,0.6242218,-0.75141907,0.32981873
7.8120270000000005,-4.2593994,0.12858582,0.53900146,-0.79403687,0.13912964
8.329178,-4.412628,-0.45799255,0.30464172,-0.61187744,-0.3263855
9.061798,-4.807663,-0.46757507,0.021270752,-0.38816833,-1.019867
9.6723175,-4.984833,-0.28082275,-0.122528076,-0.28483582,-1.718689
9.906952,-5.1093445,-0.5992584,-0.009613037,-0.29762268,-2.2204285
10.050597999999999,-5.628875700000001,-0.7883911,0.3025055,-0.33596802,-2.5410614
10.467194000000001,-6.4069977,-0.11323547,0.59439087,-0.52345276,-2.642273
11.73851,-7.6280365,0.2387085,0.72221375,-0.77485657,-2.4888763
13.337845000000002,-9.55777,-0.106048584,0.7499237,-0.9090729,-2.1724854
13.79274,-10.297577,0.08308411,0.7669678000000001,-0.8920288000000001,-1.7996521
13.7951355,-9.165115,0.104644775,0.73713684,-0.72691345,-1.4417114
13.402481,-7.3263702,-0.21139526,0.6529845999999999,-0.5074768,-1.1178741
12.633942,-5.056671,-0.17070007,0.5581665,-0.32106018,-0.82173157
11.882172,-3.301712,0.13098145,0.43885803,-0.20812988,-0.6022949000000001
11.001099,-2.8755493,0.90190125,0.26734924,-0.13676453,-0.46273804
10.076935,-3.8763275,1.8931122,0.074539185,-0.05366516,-0.37431335
9.526276,-5.5211487,2.4413757,-0.055419922,0.010238647,-0.28804016
8.7314,-6.8140106,2.336029,-0.045837402,0.020904541000000002,-0.14315796
7.5534514999999995,-7.5801544000000005,1.8069153000000002,0.08518982,-0.083496094,0.08694458
6.65802,-7.7549285999999995,1.584259,0.23007202,-0.27737427,0.36390686
6.2007294,-7.5538177,1.7973328000000002,0.2801361,-0.44888306,0.68029785
6.037918,-7.297638,1.7805786,0.21089172,-0.4797821,1.0637816999999998
5.899063,-6.9600525,1.5315857,0.025543213,-0.25500488,1.4217224
5.688369799999999,-6.4884033,1.3592072,-0.33558655,0.15086365,1.6315765
5.49205,-5.8730927,1.1509094,-0.86395264,0.5705719,1.7125397
5.4010620000000005,-5.195526,0.916275,-1.5372008999999998,1.0318298000000001,1.6560669
5.415436,-4.766968,0.77500916,-2.399002,1.7231903000000002,1.4163818000000001
5.489654499999999,-4.7454224,0.8995209000000001,-3.288498,2.5359802000000005,1.1660461000000002
5.3867035,-5.025543,1.2873688,-3.6815796,3.0196228,1.2161255
5.2717743,-5.315246599999999,1.6177673000000001,-3.2160645,2.913086,1.5005493
5.7075195,-5.9784393,1.5531311,-1.872757,2.1588898,1.7274474999999998
6.5694275,-6.8092194,1.1078033,-0.0010986328,0.9956207,1.5804443000000001
7.7473755,-7.81958,0.5499573,1.631958,-0.19215393,0.9881591999999999
9.16954,-8.652756,0.20759583,2.3073273,-0.91760254,0.26057434
10.191864,-8.556992,-0.16111755,1.8940125,-1.0443726,-0.34342957
10.991531,-8.217010499999999,-0.6734772,0.6455231,-0.60227966,-0.6139984
12.715347,-9.236938,-1.2217559999999998,-0.73399353,0.074157715,-0.49256897
14.326645000000001,-10.556152,-1.7748108,-1.4605103000000002,0.42570496,-0.29548645
13.292357999999998,-9.897736,-1.7364959999999998,-1.5308075,0.32769775,-0.09735107400000001
9.763306,-7.6711273,0.29138184,-1.2368011,0.06137085,0.18600464
7.093765299999999,-5.4445343,3.3679352,-0.73825073,-0.18469238,0.46937559999999995
6.65802,-3.5722656,6.039871,-0.16621399,-0.28483582,0.67922974
8.468033,-2.8252716,7.107681299999999,0.31636047,-0.20173645,0.7740326
10.641967999999999,-2.8492126,5.747772,0.5570984,-0.047286987,0.70692444
11.020247999999999,-3.1724243,2.307312,0.5336609,0.031555176000000004,0.58547974
9.897369,-3.787735,-1.2313232,0.4250183,0.024093628,0.53434753
8.401000999999999,-4.558669999999999,-4.0277557,0.3578949,-0.04408264,0.50878906
6.9237823,-5.298477,-4.5496826,0.3270111,-0.12823486,0.42782593
6.2486115,-5.6623993,-2.1147918999999997,0.22367859,-0.19747925,0.28294373
6.0187683,-5.679153400000001,0.60502625,-0.0010986328,-0.19108582,0.11889648400000001
5.626114,-5.420578,2.10141,-0.25036620000000004,-0.071777344,0.015563965
5.6763916,-5.1093445,3.138092,-0.40696716,0.0730896,0.06350708
6.0666504,-4.7693634000000005,3.7246704,-0.43145752,0.08161926,0.18388367
6.5742188,-4.3671417,3.5235595999999996,-0.31854248,-0.050476074,0.33195496
7.282913000000001,-4.146866,2.4294127999999997,-0.085250854,-0.18043518,0.58973694
7.788086,-4.170807,0.9497985999999999,0.17787170000000002,-0.22198486,0.82836914
7.922165,-4.424591,0.119003296,0.42607117,-0.23049927,0.66430664
8.307617,-4.707107499999999,-0.041412354,0.69026184,-0.20812988,-0.038757323999999996
8.803223,-4.7142944,-0.050979614000000006,1.0535126,-0.35620117,-1.050766
9.2964325,-4.6496580000000005,-0.1850586,1.4487305,-0.61187744,-1.8305359
9.866257000000001,-4.9010468000000005,-0.49870299999999995,1.7352904999999998,-0.75567627,-2.087265
10.371429,-5.5331116,-0.43644714,1.8066558999999998,-0.8302459999999999,-1.9775391
10.457611,-6.227432299999999,0.13575745,1.6990662,-0.9527588,-1.718689
11.089691,-7.019912700000001,0.71276855,1.5041198999999998,-1.1210632,-1.4907226999999998
12.70578,-8.454041,1.0288085999999999,1.216507,-1.1540833000000001,-1.3991089
13.919632,-9.775635000000001,1.4429931999999999,0.89053345,-1.0113372999999999,-1.3991089
14.194962,-9.703812,1.747055,0.6188965,-0.8845825,-1.4055023000000002
14.015395999999999,-7.733383,2.0894318,0.40797424,-0.8057555999999999,-1.3298645
13.519805999999999,-4.71669,2.5108185,0.24604797,-0.7631378000000001,-1.1466370000000001
12.677048,-3.0886383,2.956131,0.09051514,-0.74183655,-0.91548157
11.173477,-3.7135162000000004,3.0399323,-0.096969604,-0.6736603,-0.7524871999999999
9.274887,-5.62648,2.4198303,-0.32707214,-0.54689026,-0.71520996
7.773712,-6.9504850000000005,1.3903198,-0.5720824999999999,-0.37219238,-0.7045593000000001
6.562256,-7.024703999999999,0.54278564,-0.7414550999999999,-0.209198,-0.61720276
5.9373627,-6.332779,0.3177185,-0.7744751,-0.029174805,-0.39030457
6.013977,-5.719864,0.2339325,-0.68818665,0.0922699,-0.035568237
6.42099,-5.664795,0.17646789999999998,-0.5518341,0.097595215,0.3745575
6.6125336,-5.832382,0.44461059999999997,-0.36648559999999997,0.09333801,0.70692444
6.4521180000000005,-6.11969,0.65530396,-0.19497679999999998,0.11889648400000001,0.8517914000000001
6.092987,-6.411789,0.8564148000000001,-0.16728210000000002,0.19239807,0.81451416
5.788925,-6.373474,0.99528503,-0.36328125,0.29147340000000005,0.8123779000000001
5.911026000000001,-6.1939087,1.1006316999999999,-0.7233429,0.37350464,1.0073242
6.57901,-6.3303833,1.1916046,-0.9747466999999999,0.44807434,1.3141174
7.105728,-6.914566000000001,1.2299194,-0.8501129000000001,0.51197815,1.5516815000000002
7.2996674,-7.6495820000000005,1.4166565,-0.30256653,0.43208313,1.624115
7.282913000000001,-8.324753,1.7590331999999997,0.5081024000000001,0.15937805,1.5452881
6.8902589999999995,-8.432495,2.0822449,1.2484589,-0.08563232400000001,1.2544708
6.531128,-8.118851,2.10141,1.5296936,-0.16871643,0.7527313
7.0147552,-7.752533000000001,2.0487366000000002,1.1493835,-0.06005859400000001,0.26057434
8.250167999999999,-7.6088867,1.7159423999999999,0.20663452,0.22116089,-0.013198853
9.985961999999999,-8.214615,0.6936188,-0.85757446,0.5620575,0.05390930000000001
10.6922455,-9.06456,-0.5753174,-1.4040527,0.6355590999999999,0.2967987
10.172714,-9.471573,-1.5186309999999998,-1.3465271,0.42036438,0.53860474
9.258118,-8.861053,-1.2001953,-1.0024414000000001,0.20518494,0.7836151
8.602112,-7.101318400000001,0.38955688,-0.5688781999999999,0.08908081,1.0126495
8.12088,-5.0973663,2.0056305,-0.13424683,0.07203674,1.1436768
8.003555,-3.7183075,2.8052979,0.21728516,0.10398865,1.096817
8.764923,-3.4286041,2.1804047000000004,0.40797424,0.11889648400000001,0.9008026
9.76091,-3.8236542,0.26264954,0.41967773,0.10717773400000001,0.65579224
9.387405000000001,-4.312072799999999,-2.1339417000000003,0.26416016,0.08694458,0.44061279999999997
8.223831,-5.061447,-4.164215,0.0031738281,0.06990051,0.29147340000000005
6.7466125,-5.8730927,-4.7555847,-0.27380370000000004,0.12210083,0.22116089
5.776947,-6.2441864,-2.7229156000000003,-0.42826843,0.22436523,0.23074341
5.7314606,-6.136444,0.13337708,-0.40696716,0.27975464,0.28614807
6.030730999999999,-5.9233704000000005,1.5914458999999999,-0.34837340000000006,0.28933716,0.34153748
6.4305725,-5.5833892999999994,2.2067412999999996,-0.28871155,0.25738525,0.39373779999999997
7.07222,-5.135681,2.3096924,-0.19604492,0.1625824,0.43954468
7.8694916,-4.6376800000000005,1.8452301,-0.087387085,-0.005737304699999999,0.40438843
8.45607,-4.146866,0.97613525,-3.0517577999999997e-05,-0.26885986,0.29040527
8.645203,-3.9122314,0.092666626,0.09051514,-0.5575409,0.222229
8.559021000000001,-3.9601288,-0.6902313,0.23326111,-0.74076843,0.21902466
8.369873,-4.209121700000001,-1.190628,0.31422424,-0.60227966,0.08906555
8.190308,-4.613739,-1.171463,0.25776672,-0.21452332,-0.37005615
8.092148,-5.063843,-0.5753174,0.27799988,0.07736206,-1.0848541
8.113693,-5.2697449999999995,0.32969666,0.5272826999999999,0.15193176,-1.8241425
8.530289,-5.487625,0.5236206,0.8926697,0.06990051,-2.3514557000000003
9.258118,-5.8419647,0.37997437,1.2271576000000002,-0.08670044,-2.611374
9.811188000000001,-6.016739,0.4158782999999999,1.4647063999999999,-0.43823242,-2.5879364
10.562958,-5.9880066,0.5236206,1.5531311,-0.89630127,-2.3045807000000003
11.956389999999999,-6.5003660000000005,0.42066956,1.4966736,-1.2947083000000001,-1.9008484
13.737670999999999,-8.252930000000001,0.04957580599999999,1.3368835,-1.5588837,-1.4747313999999998
15.360947,-9.825911999999999,-0.015075683999999999,1.120636,-1.5887146,-1.1295928999999998
15.765564000000001,-9.3159485,0.17646789999999998,0.8809509,-1.3564911,-0.9165344000000001
14.688170999999999,-6.5171356,0.32011414,0.6891937,-0.9719238000000001,-0.79296875
12.952377,-3.6752167,1.0479584000000002,0.56562805,-0.6225281,-0.7247925000000001
11.750488,-2.8324585,1.8643798999999999,0.48147583,-0.43504333,-0.7013550000000001
10.709014999999999,-4.000824,2.0990142999999994,0.39837646,-0.37857056,-0.6885680999999999
9.626831,-5.6360626,1.6297455,0.27693176,-0.34980774,-0.67152405
8.365082000000001,-6.8092194,1.0599213,0.121414185,-0.31039429999999996,-0.652359
7.1296843999999995,-7.6352234,0.5236206,0.0010375977,-0.23582458,-0.59376526
6.3324127,-7.9081573,0.10942078,-0.07778931,-0.16445923,-0.48510742
5.963699299999999,-7.6424103,-0.017471313,-0.09590149,-0.16445923,-0.28057859999999996
6.057068,-7.1348267000000005,0.1405487,-0.036254882999999995,-0.23796082,0.121032715
6.428177,-6.6033173,0.44221497,0.020217896000000003,-0.26565552,0.68881226
6.641266000000001,-6.11969,0.7438965,0.029800415,-0.18896484,1.1681823999999998
6.6843566999999995,-5.746200599999999,0.916275,-0.071395874,-0.046218872,1.335434
6.6005554,-5.456497,0.85401917,-0.3707428,0.00065612793,1.255539
6.4521180000000005,-5.281723,0.65530396,-0.85969543,0.13381958,1.1596527
6.325226,-5.28891,0.41110230000000003,-1.3656921,0.48002625,1.288559
6.2438199999999995,-5.506775,0.28660583,-1.6234893999999997,0.9018707,1.6827087
6.2102965999999995,-5.834778,0.44221497,-1.4679565,1.2459563999999999,2.0843048
6.1552430000000005,-6.3160095,0.65530396,-0.86502075,1.4185181,2.2142792
6.222275,-7.012726,0.7438965,0.052169799999999995,1.239563,2.0044098000000004
6.3874817,-7.9320984,0.8085326999999999,1.0780181999999998,0.714386,1.5847015
6.6867523,-8.707825,0.60502625,1.7821654999999998,0.036880493,0.99134827
7.4505005,-8.576141,0.39672852,1.6788330000000002,-0.37005615,0.35539246
8.618866,-7.6902924,0.073516846,0.6572418000000001,-0.27098083,-0.19215393
10.122437,-7.515517999999999,-0.70700073,-0.88952637,0.28721620000000003,-0.50961304
11.460785000000001,-8.832321,-1.5713043,-2.0549316,0.9604645,-0.591629
11.580505,-10.101242,-1.5641174,-2.3670502,1.2342377,-0.56181335
9.909348,-9.495514,-0.24491882,-2.1678467,1.192688,-0.36686707
8.508742999999999,-7.419739,1.5004578000000002,-1.7310791,0.956192,-0.04196167
8.604507,-5.317627,2.8340302000000004,-1.1675568,0.6770935,0.30212402
9.480789,-3.7254943999999997,3.1668243,-0.5529022,0.41824340000000004,0.5993347
10.471985,-3.301712,2.4557495,-0.04902649,0.21690369,0.80599976
11.350662,-3.6991577000000007,0.61221313,0.25456238,0.060317993,0.8677826
11.132782,-4.06546,-2.2225189999999997,0.40370178,-0.10586548,0.8507385000000001
9.918915,-4.175598,-4.9112089999999995,0.43992615,-0.2571411,0.8262328999999999
8.391418,-4.309677,-6.2687225,0.36961365,-0.32957458,0.7751007
7.1823425,-5.135681,-4.7555847,0.20024109,-0.22731018,0.6664429000000001
6.523941000000001,-5.9544983,-1.2528687,-0.071395874,0.035812378,0.50772095
5.762588500000001,-6.1268769999999995,0.76304626,-0.3707428,0.3394165,0.35112
5.1544647,-5.9784393,1.7733917000000001,-0.5294647,0.5236969,0.23713684
5.0778503,-5.679153400000001,2.3887023999999997,-0.47193909999999994,0.50453186,0.18067932
5.2765656,-5.2314453,2.762207,-0.30575562,0.28933716,0.12635803
5.7745667,-4.7693634000000005,2.4246216,-0.073532104,-0.025970458999999998,0.12315369
6.6604156,-4.436569,1.3304749,0.25776672,-0.2368927,0.21369934
7.4265593999999995,-4.213913,0.35124207,0.56562805,-0.30506897,0.21264648
7.9053955,-4.3240356,-0.29519653,0.63487244,-0.22944641,-0.09841919
8.547042999999999,-4.5682526,-0.7524871999999999,0.56562805,-0.034500122,-0.6800537
9.361069,-4.7861176,-1.0421905999999999,0.5794678000000001,0.04006958,-1.4065552
10.045822,-4.874709999999999,-1.226532,0.72328186,-0.2006836,-2.0361328000000003
10.57254,-5.2075043,-1.2600555,0.8873290999999999,-0.5170593,-2.3684998
10.953217,-5.6983185,-0.8338928,0.9438019,-0.5948180999999999,-2.4132385
11.245316,-6.1388397,-0.024642944,0.82554626,-0.6310425000000001,-2.2502441
11.910903999999999,-6.6009216,0.32969666,0.5986481,-0.7663269,-1.958374
13.108001999999999,-7.853088400000001,0.2674408,0.36109924,-0.9399719000000001,-1.6515656000000003
14.060898000000002,-8.978363,0.34884644,0.20130920000000002,-1.0017548,-1.4150848
14.333832000000001,-8.566559,0.37757874,0.14378357,-0.9293213,-1.2531586000000001
14.072860999999998,-6.5410767,-0.106048584,0.18106079,-0.7950897,-1.0752716
13.198975,-4.254608,-0.3215332,0.2801361,-0.70028687,-0.8845825
12.210175,-2.973709,0.123794556,0.38879395,-0.6693878000000001,-0.7290496999999999
11.209396,-3.2921447999999995,0.5738983,0.44206238,-0.6821746999999999,-0.61720276
10.141586,-4.766968,0.6241760000000001,0.41116333,-0.6619415,-0.5351715
9.20784,-6.260956,0.1477356,0.33552550000000003,-0.5532836999999999,-0.44676208
8.262131,-7.1515960000000005,-0.5417938,0.2801361,-0.41905212,-0.33917236
7.2015076,-7.1659546,-0.9224701,0.279068,-0.302948,-0.1974945
6.5885925,-6.775696000000001,-0.67826843,0.29078674,-0.2795105,-0.013198853
6.5814056,-6.5290985,0.0040893555,0.28120422,-0.41160583,0.23606873
6.780121,-6.404602,0.7391052,0.26202393,-0.4840393,0.6035919
6.6915436,-6.301651000000001,1.2778015,0.17893982,-0.3391571,0.9497985999999999
6.44014,-6.136444,1.560318,-0.08950806,-0.11546326,1.0350189
6.2653656,-5.822815,1.5986176,-0.6018982,0.048599243,0.8858795
6.116928,-5.4948120000000005,1.3951111,-1.1814117,0.3671112,0.81025696
6.0738373,-5.317627,1.1604767,-1.5105743,0.75061035,1.0296935999999999
6.1384735,-5.4421387,1.0096436,-1.4487915,1.0488739,1.5005493
6.191147,-5.6911316,1.0479584000000002,-1.0780792,1.3013458,1.9415588
6.191147,-5.892242400000001,1.1269684,-0.4410553,1.3556671,2.1684723
6.2797394,-6.270523000000001,0.9569701999999999,0.42713928,1.1266479999999999,2.2036132999999998
6.8064575,-7.0773773,0.4948883,1.3081207000000001,0.7292938,2.0843048
7.661194,-8.209824000000001,0.123794556,1.9430083999999999,0.30000305,1.7839049999999999
8.477615,-8.585724,-0.1563263,2.0857544,-0.031295776000000004,1.338623
9.341919,-7.848312400000001,-0.6184082,1.5286255,-0.24542236,0.8507385000000001
10.661118,-7.809997599999999,-1.3893433000000002,0.37387085,-0.17831421,0.45019529999999996
11.484726,-9.236938,-1.6934052,-0.87887573,0.20199585,0.13594055
10.658737,-10.129974,-0.6686859,-1.5830078,0.6163788,-0.10906982400000001
8.898987,-9.397354,1.0144348,-1.6511841,0.75061035,-0.21772766
7.689926,-7.462845,2.2929382,-1.4615784,0.8230438,-0.19642639
7.431350699999999,-5.4828339999999995,2.9106445,-1.1792755,0.88482666,-0.11013794
7.926941,-4.5371246,3.1237334999999997,-0.82774353,0.843277,0.057113647000000003
8.989975,-4.9082184,2.343216,-0.46128845,0.6866913,0.28720093
10.062576,-5.4541015999999996,0.7175598000000001,-0.15768433,0.43740845,0.50346375
10.254105000000001,-5.458893,-1.3246917999999999,0.056427002000000004,0.13700867,0.63235474
9.643585,-4.9465330000000005,-3.5680695,0.16828918,-0.09202576,0.64086914
8.764923,-4.3815002,-5.3349915,0.12460327,-0.122909546,0.57696533
8.3315735,-4.3743134,-5.4307555999999995,-0.07460022,0.041137695,0.47895813
8.204680999999999,-5.003998,-3.1969604,-0.34516907,0.26377870000000003,0.35539246
7.7521667,-5.420578,-0.3047638,-0.53160095,0.45126343,0.2733612
7.15123,-5.513962,0.9210663,-0.49111938,0.44807434,0.27975464
6.6364746,-5.396637,1.3568115,-0.29830933,0.28721620000000003,0.3756256
6.0067900000000005,-5.0494843000000005,1.6345367,-0.083114624,0.009185791,0.46084595
5.626114,-4.8962555,1.6273499,0.12567139,-0.32531738,0.5418090999999999
5.8128660000000005,-4.95372,1.1221771,0.3962555,-0.5341034,0.66111755
6.4664764,-4.948929,0.49728394,0.7030487,-0.638504,0.66430664
7.4098053,-4.891464,0.061538696,0.89160156,-0.6374359,0.39053345
8.175949000000001,-4.8100586,-0.40054320000000004,0.9629669,-0.5362395999999999,-0.19215393
8.604507,-4.819641000000001,-0.8530426,1.013031,-0.54689026,-0.9804535
8.997162,-4.8795013,-0.94880676,1.0662994,-0.74076843,-1.751709
9.32756,-5.3104553,-0.577713,1.0854796999999998,-0.9815216,-2.2907257000000003
9.624435,-5.9640656,0.15731812,1.0684357,-1.1764526000000002,-2.535736
9.990753,-6.677536,0.5906677,0.97468567,-1.3000336000000001,-2.5218964
10.740128,-7.132446300000001,0.6289673000000001,0.81703186,-1.3820496000000002,-2.3621062999999998
12.0354,-8.0542145,0.41349792,0.6188965,-1.3937683,-2.1554412999999997
13.237289,-9.08371,0.36799622,0.39944458,-1.2819214,-1.9562378
14.070464999999999,-8.865845,0.48292542,0.21835327,-1.0614166,-1.7389221000000001
14.106384,-7.1659546,0.32969666,0.12567139,-0.77804565,-1.4875183
13.450363000000001,-4.805282599999999,0.19801329999999998,0.121414185,-0.53730774,-1.212677
12.698592999999999,-3.2155304,0.25787354,0.15550232,-0.41586304,-0.96128845
12.040192,-3.2897491000000003,0.26504517,0.1821289,-0.40093994,-0.8004303
11.204605,-4.740631,0.04957580599999999,0.22047424,-0.4084015,-0.6789856
10.201431,-6.270523000000001,0.025634766,0.2524414,-0.37005615,-0.5266571
8.980392,-7.1875,0.039993286,0.21089172,-0.28590393,-0.33810425
7.8886414,-7.328766000000001,0.13098145,0.08305359,-0.29867554,-0.18789673
7.132064999999999,-6.9456940000000005,0.32250977,-0.008544922,-0.38389587,-0.06539917
6.8615265,-6.718246499999999,0.5092621,0.05003357,-0.46806335,0.10504150400000001
6.772933999999999,-6.713455000000001,0.7774048000000001,0.23114014,-0.47871400000000003,0.38414
6.698714999999999,-6.8164062,1.0599213,0.31208800000000003,-0.37644958,0.68029785
6.435364,-6.6511993,1.2754059,0.09371948,-0.15274048,0.83369446
6.0977783,-6.1843414,1.3592072,-0.38565063,-0.014251709,0.8273010000000001
6.047500599999999,-5.7270355,1.3137054,-0.94065857,0.21478271,0.73994446
6.047500599999999,-5.475647,1.3280792,-1.3412018,0.714386,0.79000854
5.882293700000001,-5.4660797,1.2490691999999999,-1.3326721000000001,1.2992096000000002,1.065918
5.666824299999999,-5.399032599999999,0.9066924999999999,-0.93640137,1.7370453000000001,1.4909515
5.791321,-5.300873,0.52841187,-0.39204407,1.9234619,1.912796
6.4185944,-5.7629547,0.6385498000000001,0.18638611,1.6337128,2.1109467
7.3666990000000006,-6.981598,1.1437225,0.710495,0.9412841999999999,1.9277191000000002
8.125671,-8.102097,1.4142609,1.0162354,0.22862244,1.5122681
8.638031,-8.561783,1.1030273000000002,0.8809509,-0.24435425,1.0850983
9.298828,-8.466003,0.039993286,0.16828918,-0.34768677,0.8304901
10.421707000000001,-8.782043,-0.92726135,-0.8256073,0.005981445300000001,0.7410126
11.901321000000001,-10.254471,-1.2193604,-1.4669037,0.5513916,0.653656
11.762450999999999,-11.111603,-0.25927734,-1.5414733999999999,1.0169219999999999,0.61531067
9.387405000000001,-10.012665,1.505249,-1.1952515,1.3332977,0.70266724
6.823227,-7.9392853,2.750229,-0.6594238,1.4025421,0.86138916
5.1305237,-5.70549,2.5371552000000004,-0.19177246,1.3162537,0.9732360999999999
5.286148000000001,-4.462905999999999,1.6943816999999999,0.119277954,1.1074677,0.9743042
7.038696300000001,-4.685562,0.43983459999999996,0.28120422,0.78149414,0.9039917
8.640411,-5.334396400000001,-1.0948486000000002,0.25030518,0.39587402,0.8294219999999999
9.045044,-5.535507,-2.6798248,0.11502075,0.06776428,0.7484741
8.429733,-5.602539,-4.073242,-0.010681152,-0.14102173,0.65579224
8.010742,-5.937729,-4.2695620000000005,-0.06288147,-0.1857605,0.6035919
8.264526,-6.237015,-2.2033691,-0.02558899,-0.03236389,0.5844116
8.147217,-6.354324299999999,0.36799622,-0.010681152,0.12528992,0.51730347
7.6109160000000005,-6.2130585,1.9625397,-0.12892151,0.24459839,0.35005188
7.1033479999999996,-5.700714,2.6616516,-0.33026123,0.48641968,0.15512085
6.9884186,-5.0973663,2.10141,-0.41441345,0.70799255,0.025146484
7.225448599999999,-4.606552,1.0479584000000002,-0.23545837,0.57696533,-0.022781372
7.345153999999999,-4.199539,0.20999146,0.12886047,0.14979553,0.060302734000000004
7.318817,-4.096588,-0.6830596999999999,0.5123595999999999,-0.37857056,0.21476746
7.630066,-4.2593994,-1.1403503000000001,0.8308716,-0.7663269,0.22329712
8.386627,-4.6951447,-0.9990844999999999,0.9533844000000001,-0.92185974,-0.12185669
9.18869,-5.463684,-0.54418945,0.85324097,-0.8696594000000001,-0.76953125
9.847092,-6.0502625,-0.031829834,0.6657562,-0.8089447,-1.5216063999999998
10.072144,-5.789291400000001,0.030426025,0.5304718,-0.87286377,-2.1256104
10.392975,-5.382278400000001,-0.2928009,0.48252870000000003,-0.9634094000000001,-2.4718322999999995
10.881393,-5.612121599999999,-0.5681305,0.47294617,-1.0006866,-2.5911407000000004
11.101654,-6.210678,-0.17070007,0.40370178,-1.0124054,-2.5559845
11.465575999999999,-6.9983673,0.59306335,0.2556305,-1.0315857,-2.4750214
11.997086,-8.047028,0.95936584,0.08944702,-1.0464935,-2.4132385
12.736892999999998,-8.753311,0.64811707,-0.052230835,-1.0166779000000001,-2.3748932000000003
13.337845000000002,-8.240952,0.48532104,-0.13424683,-0.9708709999999999,-2.3013916
13.404876999999999,-6.3040465999999995,0.26504517,-0.2024231,-0.87072754,-2.166092
13.079269,-4.4820557,-0.046188354,-0.25782776,-0.66300964,-1.9828644
12.607605,-3.8930817,-0.13238525,-0.25994873,-0.48617554,-1.7538452000000002
11.733734,-4.515579,0.17167664,-0.2184143,-0.34448242,-1.4811249
10.57254,-5.614517,0.55714417,-0.13212585,-0.25926208,-1.2169495000000001
9.492752000000001,-6.5099487,0.82528687,0.034057617000000005,-0.20812988,-0.9793854
8.592528999999999,-6.9672394,0.72473145,0.23965454,-0.17831421,-0.74076843
8.039474499999999,-7.0223083,0.53559875,0.38772583,-0.15592957,-0.5085449000000001
7.823989999999999,-6.9720306,0.6170044,0.47401428,-0.14315796,-0.25820923
7.7234343999999995,-6.955261,0.892334,0.548584,-0.12930298,0.056045532
7.6109160000000005,-7.103714,1.1868134,0.6007843,-0.10267639,0.47895813
7.4983826,-7.467621,1.3831482,0.5336609,0.0027923584,0.9604492
7.117706299999999,-7.5538177,1.4741211,0.33552550000000003,0.18281555,1.3780364999999999
6.4185944,-7.103714,1.7686157,0.036193848,0.23820496,1.6251831
5.741043,-6.6200867,1.9792938000000002,-0.35263062,0.28933716,1.7380981
5.3627625,-6.268127400000001,2.1397095,-0.72120667,0.42463684,1.8648682
5.35318,-6.1604004,2.3743439,-0.95983887,0.6163788,2.1098784999999998
5.496826,-6.332779,2.446167,-0.91722107,0.8027954,2.452896
5.786529499999999,-6.6631775,2.1133728,-0.5720824999999999,0.9934844999999999,2.6872559
6.0163727,-7.0558320000000005,1.699173,-0.020263672,1.1000061,2.6361237
6.483246,-7.8171843999999995,1.4334258999999998,0.61569214,1.0126648,2.3357086
6.8184357,-8.588119500000001,1.1868134,1.1280823,0.77297974,1.8126678
6.8926544000000005,-8.717407000000001,0.6194,1.2644348,0.5247649999999999,1.2427521000000001
7.2206573,-8.444458000000001,0.06872558599999999,0.8095703000000001,0.42463684,0.7431488
8.2789,-8.451645,-0.3502655,-0.19070435,0.57910156,0.36283875
9.897369,-9.373413000000001,-0.8434601,-1.2634277,0.96791077,0.14552307
10.658737,-10.086884,-0.7931824000000001,-1.7918091,1.2470093,0.041137695
10.134399,-9.730148,-0.06535339,-1.8035278000000001,1.2289124,0.0496521
8.887024,-8.382217,1.2873688,-1.6352081,1.1010742,0.1668396
8.403397,-6.6296539999999995,2.4509583,-1.3475952,0.8688507,0.37243652
9.006729,-5.1284943,2.6999512,-0.92575073,0.55778503,0.620636
10.232559,-4.620926,2.2809752999999997,-0.4921875,0.30851746,0.84114075
11.592467999999998,-4.7861176,1.1221771,-0.15875244,0.19560242,0.9732360999999999
11.539795,-4.494034,-0.56333923,0.0798645,0.12635803,1.0296935999999999
10.507889,-4.218689,-2.6295319,0.23539734,0.009185791,1.0573883
9.435286999999999,-4.235458400000001,-4.3390045,0.29078674,-0.09628296,1.0158539
8.389023,-4.4269867,-4.547287,0.20875549999999998,-0.06112671,0.8273010000000001
7.6635895000000005,-4.845978,-2.4068756000000002,-0.044769287000000005,0.14553833,0.51197815
7.038696300000001,-5.0710296999999995,0.035202026000000004,-0.34304809999999997,0.34899902,0.13912964
6.4377594,-5.106949,0.8636017,-0.51135254,0.29786682,-0.20175171
6.0546875,-5.102157599999999,1.3903198,-0.5571594,-0.15806579999999998,-0.44355774
5.954117,-4.9920197,2.0247955,-0.48046875,-0.6352996999999999,-0.46592712
6.239029,-4.766968,2.252243,-0.21627808,-0.7823180999999999,-0.29548645
6.907013,-4.592193599999999,1.857193,0.17680359,-0.74928284,-0.28697205
7.6731567,-4.501205400000001,1.1963959,0.45164490000000007,-0.5394287,-0.6321106
8.226227,-4.4509277,0.5236206,0.6923981,-0.25393677,-1.2798003999999998
8.8702545,-4.3144684,-0.043807982999999995,1.0535126,-0.27630615,-2.055313
9.78006,-3.9960327000000007,-0.50109863,1.3315582000000001,-0.5852356,-2.6987305
10.627609,-3.8069,-0.99668884,1.4210358,-0.7567444000000001,-3.1259002999999996
11.365021,-4.166030999999999,-1.1977997,1.4221039,-0.87072754,-3.3719788
12.025818,-5.0710296999999995,-0.82910156,1.3347473,-0.9911040999999999,-3.3581237999999995
13.189407000000001,-6.904983500000001,-0.36941528,1.1099701000000002,-1.0496979,-3.0982056
14.764785999999999,-9.811554,-0.007888794000000001,0.8543091,-0.97406006,-2.6923369999999998
15.538116,-11.444397,0.85401917,0.6785431,-0.8089447,-2.2395935000000002
15.506989,-10.307144000000001,2.0774689,0.62527466,-0.66619873,-1.7495728
14.846191000000001,-7.668747,2.3001251,0.6785431,-0.67684937,-1.2212067
13.780776999999999,-5.1883545,2.2091369999999997,0.74565125,-0.8121338,-0.6970978
12.8302765,-4.091797,2.5419312,0.7062378,-0.8930969000000001,-0.2837677
11.697815,-4.565857,2.1804047000000004,0.5262146,-0.81640625,-0.043029785
10.675491000000001,-5.8180237,1.2059784,0.28120422,-0.6267853,0.08267212
9.820755,-7.0989227,0.8300780999999999,0.11715698,-0.41799927,0.14552307
8.401000999999999,-7.8171843999999995,0.7151642,0.11288452,-0.31039429999999996,0.18067932
6.8782806,-8.037445,0.39672852,0.22900389999999998,-0.35514832,0.23074341
5.8176575,-7.900970500000001,0.3464508,0.36109924,-0.5319824000000001,0.33940125
5.278961,-7.632827799999999,0.63375854,0.42074585,-0.640625,0.5790863
4.9126434,-7.398193400000001,0.9497985999999999,0.325943,-0.47338867,0.91571045
4.3787384000000005,-6.9600525,1.2586517,0.08944702,-0.17831421,1.2246399
3.9118652000000003,-6.284897,1.268219,-0.18965149,0.048599243,1.4494171
4.0986176,-5.6623993,0.98091125,-0.5283966,0.18920898,1.5665893999999998
4.85997,-5.1931305,0.5906677,-0.9917908000000001,0.5460663,1.6837769
5.4106445,-4.874709999999999,0.43264769999999997,-1.394455,1.0073395,1.9692535
5.820053,-4.661621,0.72473145,-1.4690246999999999,1.4334412,2.4305267
6.16481,-4.668808,1.2849883999999998,-1.1377258,1.9309235,2.8406525
6.5,-4.9441375999999995,1.6129913,-0.43038940000000003,2.165268,3.026001
7.1727753,-5.8898470000000005,1.4358215,0.51342773,1.9394379000000002,3.026001
8.135239,-7.4772034,0.96655273,1.3123778999999998,1.4025421,2.7820587000000003
8.834351,-8.626419,0.39433290000000004,1.6426086,0.8443451,2.1418304
8.994766,-8.470794999999999,0.107040405,1.4338226,0.40438843,1.3066711000000002
9.28685,-8.032653999999999,0.078308105,0.77441406,0.12422180000000001,0.58761597
10.613235000000001,-8.820358,-0.20420837,-0.06074524,0.07203674,-0.00680542
11.621201,-9.969574,-0.7309418000000001,-0.78300476,0.20411682,-0.5500946
10.577332,-9.665512,-0.25448608,-1.1547698999999998,0.31065370000000003,-0.94529724
8.705063,-8.260100999999999,1.3376465,-1.2975159,0.3436737,-1.0720673
7.8048399999999996,-6.926544,2.786148,-1.3273468000000002,0.34899902,-0.9399719000000001
8.00116,-5.70549,3.4756775,-1.2154999,0.30319214,-0.6321106
9.229385,-5.753372,3.3463898000000003,-0.95770264,0.25845337,-0.24862671
10.445648,-5.930557299999999,2.0990142999999994,-0.564621,0.20411682,0.13594055
11.226150500000001,-5.135681,0.14533997,-0.083114624,0.10824585,0.4533844
10.883789,-4.024765,-1.7460785,0.36216736,-0.03982544,0.6898804000000001
9.966812,-3.7063292999999997,-3.0988007,0.6838684,-0.18043518,0.86457825
9.456847999999999,-3.9242095999999997,-3.3717346,0.8692322,-0.24754333,0.8944091999999999
9.217422500000001,-4.5682526,-2.7492522999999998,0.9054413,-0.28802490000000003,0.76231384
8.451279,-5.164398,-1.063736,0.7584380999999999,-0.2837677,0.56417847
7.213470500000001,-5.621704,0.18125916,0.41755676,-0.13462829999999998,0.30638123
6.045105,-6.004776000000001,0.68403625,-0.06288147,0.10612488,-0.07923889
5.147278,-5.997589,1.3951111,-0.5422516,0.15086365,-0.5404968000000001
4.673233,-5.8515472,2.0176086,-0.7467804,0.056045532,-0.83558655
4.771393,-5.810837,2.5610962,-0.5997772,0.052856445,-0.8291931
5.520767,-5.980835,2.8914948,-0.28019714,0.12528992,-0.7439728
6.44014,-6.045471,2.6544647,-0.036254882999999995,0.15405273,-0.8473053
7.215866,-5.853943,1.9002838,0.20024109,0.11784363,-1.2009735000000001
8.14003,-5.5402985000000005,1.0862578999999999,0.51449585,-0.07817078,-1.5482483
9.016312,-5.068633999999999,0.34165955,0.7818755999999999,-0.38710022,-1.6984406000000003
9.696259,-4.910614,-0.36701965,0.93208313,-0.70454407,-1.7218779999999998
10.371429,-5.0399017,-1.0350037,1.0162354,-0.93678284,-1.6846008000000001
11.013077000000001,-4.9154053,-1.3701934999999998,1.1131744,-1.0305176,-1.6782074
11.953994999999999,-5.434952,-1.2313232,1.153656,-1.0720673,-1.7240143
13.4767,-7.927307000000001,-0.39575195,1.0822753999999999,-0.95062256,-1.7410583
14.436782999999998,-10.434036,0.84924316,0.99598694,-0.7056121999999999,-1.6771393
14.082443,-10.4077,1.833252,0.97254944,-0.48297120000000004,-1.529068
12.813507000000001,-8.221802,2.0128174,1.0055847,-0.46699524,-1.3149567
11.997086,-6.521911599999999,1.9146576000000002,1.0396729,-0.61187744,-1.0571594
11.159119,-6.0885620000000005,2.118164,1.01091,-0.77911377,-0.78445435
9.83992,-6.241791,1.9170532,0.8798828000000002,-0.91760254,-0.54156494
9.023483,-6.4141846,1.4717255,0.6742859,-0.99324036,-0.41693115
8.537460000000001,-6.502762000000001,1.3137054,0.49957275,-1.0624695,-0.48510742
8.23819,-6.380661,1.5100403,0.36961365,-1.1540833000000001,-0.6789856
7.982010000000001,-6.143631,1.5818633999999998,0.27587890000000004,-1.1050872999999999,-0.82492065
7.474441499999999,-6.04068,1.3208923000000001,0.11820984,-0.86221313,-0.67259216
6.677169999999999,-5.846756,1.2610321000000002,-0.22906494,-0.44569397,-0.11332703
5.8511809999999995,-5.54747,1.2418823,-0.64237976,0.0027923584,0.55778503
5.2334747,-5.360733,1.13414,-0.9917908000000001,0.24459839,0.9753723
4.891098,-5.3104553,0.88993835,-1.3028412,0.20306396,1.0765686
4.740265,-5.264969000000001,0.5499573,-1.6565093999999998,0.20518494,1.1394196
4.891098,-5.2290497,0.2339325,-1.9601134999999998,0.36390686,1.4334258999999998
5.5566864,-5.3032684,0.044784545999999995,-2.0655823,0.60998535,1.9490203999999998
6.828003,-5.420578,0.15969849,-1.8312224999999998,0.9050598,2.4273224
8.302841,-5.9233704000000005,0.30096436,-1.2538452,1.1319733,2.6339874
9.339523,-6.6631775,0.38716125,-0.41973877,0.956192,2.4294586
8.989975,-7.072586,0.33688354,0.6029053000000001,0.34046936,1.9042816000000002
7.982010000000001,-7.666351299999999,-0.26885986,1.8663177,-0.33276367,1.3982849
7.582184,-7.697464,-0.58488464,2.967804,-0.79829407,0.8443451
8.259735000000001,-7.012726,-0.4819335999999999,3.1829834,-0.66726685,0.25950623
9.887802,-6.9839934999999995,-0.41011047,2.3925476000000003,-0.14741516,-0.12397766
11.116028,-8.15715,-0.53700256,0.99598694,0.63874817,-0.14634705
10.850265499999999,-9.201035000000001,-0.050979614000000006,-0.24078369,1.1756438999999999,0.12208557
9.526276,-9.071747,0.96894836,-0.83413696,1.1351624,0.45552063
8.365082000000001,-7.4101715,2.4988403,-0.8298645,0.69841003,0.749527
8.14003,-4.968078599999999,3.7773437999999993,-0.4176178,0.20199585,0.9189148000000001
9.176727,-3.0383606,4.2825165,0.15443420000000002,-0.19215393,0.937027
11.326706,-3.0982056,4.090987999999999,0.6817321999999999,-0.45527650000000003,0.86457825
12.392136,-3.9744873,4.062256,1.1014556999999998,-0.6459656,0.76763916
12.088074,-4.087021,3.4828644,1.3741608,-0.6928253000000001,0.573761
10.467194000000001,-3.8595580000000003,0.70318604,1.3645782,-0.5532836999999999,0.26164246
8.226227,-3.9792786,-2.4403992000000003,0.91716003,-0.37644958,-0.08670044
6.5023956,-4.225876,-5.0117645,0.1309967,-0.24435425,-0.32745359999999996
5.875122,-4.6735992,-5.0141599999999995,-0.5688781999999999,-0.17617798,-0.44676208
5.978073,-5.1835629999999995,-3.1802063,-0.914032,-0.21772766,-0.49682617
6.456909,-5.001602,-1.2361145,-0.9832610999999999,-0.3072052,-0.48510742
7.0674285999999995,-4.352768,0.48771667,-0.9214783000000001,-0.43077087,-0.49256897
7.6396484,-3.7494354,1.5220032,-0.86608887,-0.5617981,-0.5809784
8.034683,-3.4405822999999995,1.5531311,-0.84265137,-0.6875,-0.7269287
8.542252000000001,-3.5507202000000007,1.0240173000000001,-0.71162415,-0.55007935,-0.84942627
9.516693,-3.9792786,0.08547974,-0.4410553,-0.20600891,-1.0784607
10.254105000000001,-4.1875763,-1.2121735,-0.22692871,0.07841492,-1.4576874
10.373825,-4.4054413,-2.9527588,-0.22373962,0.1476593,-1.8933868000000003
10.009903,-4.764572,-4.2791443,-0.35795593,0.06137085,-2.2406616
9.70105,-5.159622,-3.9415587999999997,-0.38246155,-0.040893555,-2.3290862999999997
9.950042999999999,-5.633667,-2.1219634999999997,-0.18325806,-0.17510986,-2.1394653
10.378616000000001,-6.0263214000000005,-0.5322113,0.24711609,-0.47657776,-1.8582306
11.058563000000001,-6.2322235,0.4158782999999999,0.8692322,-1.0220032,-1.6494446
11.970749,-6.3064423,0.80374146,1.458313,-1.6068268,-1.578064
13.239685,-6.7972565000000005,0.7558594,1.6372833,-1.8113556,-1.6441192999999998
14.161453,-7.4772034,1.1245728000000002,1.3730927,-1.4757996000000002,-1.7368011000000003
14.408051,-7.070190400000001,1.778183,0.89160156,-0.9484863000000001,-1.7037659
13.680206,-5.676758,1.5986176,0.42713928,-0.48297120000000004,-1.5642242
12.574097,-4.65683,0.61460876,0.11076355,-0.15592957,-1.4012299
11.872589,-5.025543,-0.17070007,-0.08418274,0.03048706,-1.2446442
11.063354499999999,-6.2513733,0.08308411,-0.2216034,0.058181763,-1.0891113000000001
9.804001,-6.9720306,0.90190125,-0.28871155,0.046463013,-0.9272003000000001
8.824767999999999,-6.744583,1.6943816999999999,-0.32174683,0.035812378,-0.7045593000000001
8.281296000000001,-6.0550537,2.2929382,-0.32707214,0.01663208,-0.41053772
7.967651400000001,-5.3272095,2.4605408,-0.26527405,-0.08030701,-0.01638794
7.8311768,-4.874709999999999,1.4980621,-0.15661621,-0.35833740000000003,0.64193726
7.6037292,-4.9441375999999995,0.037597656,-0.06288147,-0.82917786,1.5655212
7.0554504,-5.073425299999999,-0.7740326,0.031921387,-1.1892395,2.2909697999999996
6.5335236,-5.1284943,-1.0350037,0.16189575,-1.1445007,2.4624786
6.349167,-5.1284943,-0.7381134,0.12567139,-0.81533813,2.309082
6.2893066,-5.1189117,-0.45559692,-0.40162659999999994,-0.23156738,2.228119
6.294098,-5.2314453,-0.40293884,-1.4040527,0.6483306999999999,2.4933777000000004
6.3874817,-5.475647,-0.19464111,-2.3255005,1.6156006,2.9908447
6.0403137000000005,-5.6049347,0.008865356,-2.6940765,2.482727,3.2528992000000003
5.693161,-5.7414093,0.102249146,-2.4299011000000004,2.8928528,3.1261444
5.650055,-6.2034910000000005,0.24589539,-1.5286865,2.7458496,2.7767334
5.4106445,-7.16835,-0.058166504,-0.15982056,2.2739257999999998,2.354889
4.8456116,-8.047028,-1.008667,1.0077056999999998,1.5026855,1.9820403999999998
5.575836,-7.632827799999999,-1.1930237,1.4263611,0.6163788,1.61026
8.468033,-6.890625,-0.33110046,1.0726928999999998,0.08694458,1.2171783
11.412903,-7.568191499999999,-0.4053192,0.21942139,0.043273926,0.88694763
12.973923,-9.562561,-2.1100006000000002,-0.7606354000000001,0.38095093,0.7058563
12.033005000000001,-10.611221,-3.4986267,-1.5478516000000002,0.8230438,0.66537476
9.804001,-9.08371,-2.373352,-1.9302826000000002,1.0520782,0.63342285
9.370650999999999,-7.060608,0.059143065999999994,-1.9292296999999998,1.0211792,0.6025238
9.988358,-5.166794,1.9026793999999998,-1.6884766,0.97857666,0.5993347
10.797592,-4.213913,3.1045685,-1.2730255,0.9721832,0.60998535
11.649933,-4.1923523000000005,3.4397583,-0.73080444,0.93489075,0.6259613
11.353043,-4.132507299999999,1.8979034,-0.20562744,0.8113251,0.620636
10.09848,-3.5962067,-0.7309418000000001,0.12567139,0.65260315,0.6035919
9.133621,-3.119751,-2.9719086,0.29078674,0.54074097,0.58547974
8.805617999999999,-3.4812775,-4.2791443,0.3781433,0.46511840000000004,0.5567169
8.606902999999999,-4.1803894,-4.5879974,0.3547058,0.44593809999999995,0.48321533
8.240585000000001,-4.807663,-3.716507,0.20343018,0.4683075,0.30212402
7.929336500000001,-5.008789,-1.8681793000000002,0.0031738281,0.48428345,0.11676025400000001
7.6683655,-4.71669,0.114212036,-0.18751526,0.38948059999999995,0.033676147000000003
7.421767999999999,-4.448532,1.3759613000000002,-0.33558655,0.07948303,0.0038452148
7.292480499999999,-4.206726000000001,2.2091369999999997,-0.28231812,-0.24435425,0.12315369
7.416977,-4.151657,2.6424866000000002,0.10649109,-0.24221802,0.43208313
7.814422599999999,-4.359955,2.3647614,0.51449585,-0.034500122,0.46937559999999995
8.178345,-4.5850067,1.2299194,0.6188965,0.12954712,-0.09628296
8.547042999999999,-4.728668,0.18843079,0.6519165,-0.015319824,-1.0923157
8.958847,-4.8723145,-0.37420654,0.8734894,-0.511734,-2.0521088
9.497542999999999,-5.001602,-0.96318054,1.1493835,-1.0156097,-2.7136383
10.359451,-5.056671,-1.5904541,1.1994628999999999,-1.2616882,-3.1184387000000005
10.922089,-5.2697449999999995,-1.9423981,1.0417938,-1.3660736,-3.4135132000000006
11.094482000000001,-5.798874,-1.8873291,0.76802063,-1.4108124,-3.6414795
12.317917,-7.359894000000001,-1.8179016,0.4047699,-1.3138733,-3.7608032
14.2500305,-10.003082000000001,-1.3510284,0.06921387,-1.0486298,-3.7075348
15.044907,-11.200194999999999,0.037597656,-0.10015869,-0.67684937,-3.4295044000000003
14.853378,-9.057373,1.0144348,-0.118270874,-0.302948,-3.026825
14.386505,-5.315246599999999,0.55714417,-0.058624268,-0.13250732,-2.5879364
14.319458,-3.1532744999999998,0.31054688,0.023406982000000003,-0.18789673,-2.1373290000000003
14.068069,-3.7997131,0.8133239999999999,0.11076355,-0.33383179999999996,-1.7368011000000003
13.335448999999999,-5.7797089999999995,1.0623169,0.17466736,-0.4371643,-1.4289398000000002
12.191025,-7.0438538,0.45658875,0.16401672,-0.384964,-1.1881866
11.111237,-7.5059357,0.025634766,0.06814575,-0.22305298,-0.9580841
10.088913,-7.556213400000001,0.06872558599999999,-0.046905518,-0.08030701,-0.7354430999999999
9.234177,-7.8866119999999995,0.06872558599999999,-0.106552124,-0.02810669,-0.4882965
8.570984,-8.511505,0.12858582,-0.075668335,-0.06752014,-0.13357544
7.7832947,-8.853867,0.63375854,0.0010375977,-0.08988953,0.36816406
6.9285583,-8.700638,1.0575256000000002,0.047912598,-0.047286987,0.98069763
5.9158173,-7.9512634,1.2107544,0.013824463,0.0070495605000000005,1.5910950000000001
5.044327,-7.0510406,1.2706146,-0.13851929,-0.09414673,1.9777831999999997
4.713928,-6.342346,1.2897644,-0.46661377,-0.08988953,2.1918945
4.7953339999999995,-5.877884,1.2897644,-0.8959198,0.23394775,2.404953
5.010803,-5.693527,1.0718994,-1.2282867,0.5993347,2.723465
4.972503700000001,-5.535507,0.8348694,-1.2708893,0.9764404000000001,3.1165466
4.828842,-5.382278400000001,0.7151642,-0.93000793,1.2118683000000001,3.3711547999999993
4.9748993,-5.566635,0.7462920999999999,-0.19177246,1.1138611,3.3338623
5.35318,-6.3351746,0.8851471,0.74458313,0.8358306999999999,3.0835266
5.8415985,-7.233001700000001,0.9330291999999999,1.4785614,0.5450134,2.6893768
6.1360779999999995,-7.479599,0.7486725000000001,1.7342224,0.30958557,2.2781830000000003
6.617325,-7.34552,0.37278748,1.4242249,0.26696777,1.9415588
8.374664,-7.6280365,-0.14675903,0.48892212,0.4683075,1.6123962
10.613235000000001,-9.071747,-0.8051605,-0.73187256,0.9327698,1.2853546
11.535003999999999,-10.09407,-0.9368439000000001,-1.5425262,1.3066711000000002,0.9934844999999999
10.550995,-9.452423,-0.060562134000000004,-1.6554564999999999,1.2608643,0.79533386
8.966034,-8.020691000000001,1.4549713,-1.4242858999999999,0.9934844999999999,0.7612456999999999
8.350723,-6.4429016,2.845993,-1.1313476999999998,0.8198395,0.8240966999999999
9.243758999999999,-5.537903,3.7534027,-0.8458556999999999,0.7015991,0.8954773000000001
11.137573,-5.976043700000001,3.6265106,-0.6264038000000001,0.58547974,0.9316863999999999
12.262848,-6.4860077,2.1995697,-0.48046875,0.43208313,0.8741760000000001
11.939621,-6.227432299999999,0.20999146,-0.32279968,0.17323303,0.8070526
10.843079,-5.499588,-1.7676238999999998,-0.047973632999999995,-0.08563232400000001,0.8486023000000001
10.287628,-5.0901794,-3.5728607000000006,0.31422424,-0.28909302,0.9039917
9.942871,-4.845978,-4.5879974,0.5304718,-0.40733337,0.7761688
9.437683,-4.692749,-3.3047028,0.43566895,-0.34342957,0.44061279999999997
8.841536999999999,-4.6783752,-0.57292175,0.08093262,-0.13462829999999998,0.03793335
8.058624,-4.596985,0.9641571,-0.34411620000000004,0.121032715,-0.26353455
7.6085205,-4.5850067,1.3328705,-0.5486449999999999,0.222229,-0.41586304
7.539092999999999,-4.474869,1.4693298000000001,-0.49751282,0.026229857999999998,-0.51600647
7.6683655,-4.2881317,1.3113098,-0.2546234,-0.28057859999999996,-0.5255890000000001
8.329178,-4.2689667,0.92585754,0.2524414,-0.62358093,-0.3455658
8.894211,-4.4533234,0.7367096,0.9576415999999999,-0.9442290999999999,-0.19110107
9.033066,-4.8004913,1.0120392,1.4540558000000001,-1.2467651000000002,-0.39349365
9.308394999999999,-4.843582,1.268219,1.5286255,-1.4619446000000003,-1.0528870000000001
10.136795,-4.565857,0.7726288,1.3773499,-1.5940398999999998,-1.94133
10.962799,-4.3695374000000005,-0.27842712,1.2154388,-1.5727386,-2.6699677000000004
11.422485,-4.5993805,-1.1283722,1.0364685,-1.3713989,-3.1088562
11.537399,-5.434952,-1.4348296999999999,0.76589966,-1.1199951000000001,-3.3240355999999998
11.314743,-6.246582,-0.4699707,0.40263367,-0.9719238000000001,-3.4092559999999996
11.705002,-7.0270996,0.77500916,0.037261962999999995,-0.91760254,-3.4156494
12.643524000000001,-8.559387,1.3280792,-0.20776367,-0.8824463,-3.3954163
13.210953,-9.710999000000001,1.936203,-0.28338623,-0.82492065,-3.329361
13.318695000000002,-9.244125,2.6831970000000003,-0.2418518,-0.72265625,-3.1962127999999996
12.870972,-6.825989,2.3408203,-0.13212585,-0.5671234,-2.9852905
12.894913,-4.7813263,1.0000763000000001,0.045776367000000005,-0.38923645,-2.6816864
13.318695000000002,-4.503601000000001,0.27223206,0.20556639999999998,-0.26246643,-2.3109741
13.028992,-5.6911316,0.40870667,0.23326111,-0.27418518,-1.8923187
11.901321000000001,-6.988785000000001,0.4948883,0.14485168,-0.31039429999999996,-1.4268036
10.661118,-7.781265299999999,0.21955872,0.029800415,-0.27098083,-0.9314575
9.598099000000001,-7.970413000000001,-0.034225464,-0.071395874,-0.1772461,-0.4520874
8.841536999999999,-7.991958599999999,0.018447876000000002,-0.10975647,-0.099472046,-0.054748535
8.441696,-8.090117999999999,0.5092621,-0.06713867,-0.05366516,0.3330078
8.049057000000001,-8.118851,1.2107544,0.008499145500000001,0.056045532,0.84220886
7.4505005,-8.085327000000001,1.7757874,0.09690857,0.30212402,1.4653931
6.7082977,-7.848312400000001,1.9816895,0.10116577,0.5013274999999999,1.9607391
5.9756775,-7.6495820000000005,2.039154,-0.11401367,0.49920654,2.1524810000000003
5.219101,-7.3622894,1.833252,-0.5805969,0.5460663,2.1897736
4.5415497,-6.921753,1.2658234,-1.1814117,0.7687073,2.3463592999999996
4.0866394,-6.565017699999999,0.7486725000000001,-1.6884766,1.0265045,2.723465
3.9286345999999996,-6.3303833,0.54278564,-1.8450623,1.2747191999999998,3.198578
4.072280999999999,-6.237015,0.62657166,-1.696991,1.3801727,3.5884705
4.5798492,-6.2202454000000005,0.9066924999999999,-1.3582458,1.1532745,3.6161652
5.5159910000000005,-6.7828827,1.2466736,-0.773407,0.9135895,3.1570282000000005
6.1743927,-7.7549285999999995,1.2418823,-0.108688354,0.8027954,2.455017
6.535919,-8.312775,1.1628723,0.16722107,0.75912476,1.7892303
7.2972717000000005,-8.133208999999999,0.66967773,-0.10229492,0.87524414,1.2960205
9.131226,-8.248138,-0.35264587,-0.66474915,1.1202545,0.96151733
11.039413,-9.397354,-1.5497589,-0.98114014,1.2779083,0.72610474
11.487122,-10.158707000000001,-2.0549316,-0.8948517,1.1191864,0.6121215999999999
10.261291499999999,-9.404541,-1.3534241000000002,-0.6999054,0.8251648000000001,0.6749573
9.076157,-7.927307000000001,0.33448792,-0.54437256,0.5471344,0.90293884
8.623657000000001,-6.5410767,1.2730103000000002,-0.37606812,0.37882996,1.1277008
9.492752000000001,-5.7078857,1.4046936,-0.23651123,0.36497498,1.1852264
11.570922999999999,-5.5211487,1.5986176,-0.18218994,0.37350464,1.1490021000000001
12.708160000000001,-5.2481995,1.8141022,-0.14491272,0.27868652,1.115982
12.0354,-4.8842773,0.6864319000000001,-0.07672119,0.11250305,1.0818938999999999
10.488739,-4.6975403,-1.281601,-0.03730774,-0.00680542,0.99134827
9.483185,-5.0470885999999995,-2.3470306,-0.075668335,0.014511108,0.8315582
8.977997,-5.2553864,-1.4276427999999999,-0.14810179999999998,0.13168335,0.6163788
8.310013,-5.166794,0.32969666,-0.19070435,0.25631714,0.34153748
7.472046000000001,-5.2003174,0.8564148000000001,-0.17900085,0.38948059999999995,0.044326782
6.650833,-5.145248400000001,0.72473145,-0.13531494,0.43635559999999995,-0.14208984
6.5478819999999995,-4.8220367,0.88035583,-0.008544922,0.15512085,-0.17617798
7.246994,-4.3743134,0.9928894,0.26309204,-0.31999207,-0.18896484
7.771316499999999,-4.189972,0.62657166,0.6593628,-0.69070435,-0.21772766
8.080169999999999,-4.304886,0.38476562,1.0034485,-0.943161,-0.31573486
8.525497,-4.5874023,0.37997437,1.1312866000000001,-1.0028229,-0.63638306
9.16954,-4.8387910000000005,0.3177185,1.1792145,-0.9942931999999999,-1.2041626
9.827942,-5.003998,0.16209412,1.2442017,-1.1934966999999999,-1.9221496999999999
10.321152,-5.068633999999999,0.15969849,1.2452698,-1.5386505,-2.5559845
10.996307,-5.334396400000001,0.28660583,1.1962585,-1.831604,-2.9575806
11.930054,-6.153213500000001,0.37997437,1.1419373,-2.0798035,-3.1248322
12.109619,-6.8379517000000005,0.33209229999999995,1.04393,-2.2630310000000002,-3.184494
11.633163,-7.1922913,0.58348083,0.8031769,-2.2598267000000005,-3.2313537999999995
12.7752075,-8.626419,0.9569701999999999,0.45057678,-2.0297394,-3.1972656
14.132720999999998,-9.751694,1.2897644,0.11820984,-1.6377258,-3.0811615000000003
14.345795,-9.2608795,1.2323151,-0.094833374,-1.1785888999999998,-2.9203033
13.862167000000001,-7.4772034,0.7103729,-0.13424683,-0.7311859,-2.6838074
12.796753,-5.281723,0.6002350000000001,0.0010375977,-0.42225647,-2.3631743999999997
11.989914,-4.297699,0.81092834,0.18959045,-0.27630615,-2.00737
11.384171,-5.0422974,0.6026305999999999,0.3312683,-0.28802490000000003,-1.6164246000000002
10.735352,-6.6296539999999995,0.43504333,0.38665770000000005,-0.36898804,-1.2318573
10.1032715,-8.011108,0.4733429,0.3578949,-0.35620117,-0.9005584999999999
9.64119,-8.602478,0.6576996,0.28971863,-0.23582458,-0.6459656
9.325165,-8.715012,0.5738983,0.20237732,-0.083496094,-0.4371643
8.582962,-8.403763,0.56910706,0.09690857,0.00491333,-0.19535828
7.756958,-7.934494,0.9569701999999999,0.0287323,-0.0014801025,0.1519165
7.2517853,-7.668747,1.45018,-0.012817383,0.025161742999999997,0.6707001
6.7705535999999995,-7.6280365,1.8188933999999997,-0.055419922,0.26164246,1.3364868
6.239029,-7.5490265,2.1325226,-0.09590149,0.58122253,1.9522095000000002
5.7362519999999995,-7.3263702,2.0319672,-0.25994873,0.7921448,2.4699402000000004
5.0993958,-6.7828827,1.6297455,-0.45596313,0.87524414,2.9546356
4.6157684,-6.1412354,1.2394867,-0.41973877,0.8070679000000001,3.4648894999999995
4.5606995,-5.7342224,0.90190125,-0.13745117,0.747406,3.9154968
4.776184,-5.475647,0.6600951999999999,0.22686768,0.8699188,4.061447
4.986862,-5.377487,0.51405334,0.54644775,0.96791077,3.7780762
5.085022,-5.645645,0.29617309999999997,0.8361969000000001,0.9157257,3.2582245
5.420212,-6.5434722999999995,0.21716309,1.1366119,0.7484741,2.660614
5.8535614,-7.692688,0.2842102,1.2431335,0.5673828000000001,2.0204009999999997
6.081024,-8.451645,0.32969666,0.9065094000000001,0.47789,1.3599243
6.5454865,-8.540237,0.51405334,0.19917297,0.53648376,0.74420166
7.689926,-9.198639,0.21955872,-0.65623474,0.78575134,0.2030487
9.112076,-10.805145,0.020843506,-1.2953948999999998,1.1532745,-0.25927734
10.031448,-11.353424,0.7678375,-1.5020599,1.2438202,-0.5287781
10.503113,-10.716553,1.6824188000000002,-1.4924621999999999,1.1468811,-0.5266571
10.752106,-8.959213,2.027176,-1.3859406,1.0265045,-0.3072052
11.2812195,-6.9409027000000005,1.778183,-1.1377258,0.8038635000000001,0.05178833
12.004272,-5.8994292999999995,1.1197815,-0.75743103,0.5418090999999999,0.43634033
12.648315,-5.8060455,0.44221497,-0.31108093,0.33728027,0.7431488
12.631546,-5.70549,-0.51545715,0.100112915,0.17430115,0.93489075
11.937241,-5.2314453,-2.0453491,0.38986206,-0.005737304699999999,1.0147858
10.783234,-4.434173599999999,-3.1514740000000003,0.50064087,-0.1900177,0.9476776
9.899764999999999,-4.0846252,-3.3382263,0.41435242,-0.19747925,0.7047882
9.339523,-4.5802154999999996,-2.6391144,0.16722107,0.054992676,0.41824340000000004
8.348328,-5.2290497,-0.89134216,-0.17793274,0.54074097,0.22009277
7.0674285999999995,-5.6193085,0.21476746,-0.49005127,1.1511383,0.23394775
5.9804535,-5.664795,0.61460876,-0.65730286,1.6177216,0.48002625
5.199951,-5.439743,1.2203369,-0.5198822,1.349289,0.59506226
5.085022,-5.2410125999999995,1.8093109,-0.07034302,0.46937559999999995,0.5375519
5.6189423,-5.106949,2.1373138,0.51023865,-0.32211304,0.46617126
6.385086,-4.910614,1.9721221999999998,0.9299469000000001,-0.81533813,0.41717529999999997
7.1967163,-4.687958,1.2562561,1.040741,-1.0283813,0.0730896
8.147217,-4.7214813,0.37997437,0.99598694,-1.0401001,-0.67684937
9.385010000000001,-5.099762,-0.36462402,1.0055847,-1.069931,-1.6707458
10.196655,-5.5163574,-0.7644501,1.0279540999999999,-1.2276001,-2.596466
10.299605999999999,-6.0742035,-0.98472595,0.8564453000000002,-1.2318573,-3.2452087000000005
10.060181,-7.0294952,-0.47955322,0.38665770000000005,-0.9985656999999999,-3.5605316
9.270096,-7.965622,0.50686646,-0.22053528,-0.67684937,-3.5733032
9.231781,-7.632827799999999,1.4334258999999998,-0.63812256,-0.5309143,-3.4284362999999995
11.56134,-8.418121000000001,1.8835297,-0.75743103,-0.70347595,-3.283554
14.594803,-10.587264999999999,1.699173,-0.6551666,-0.9857788000000001,-3.153595
15.636276,-10.838669,1.0383759,-0.44424438,-1.1700745000000001,-2.9927368
15.188553,-8.430099499999999,0.37997437,-0.25569153,-1.1871185,-2.7967377
14.350585999999998,-5.377487,0.30815125,-0.122528076,-1.0944366,-2.5506592
13.696976000000001,-4.029556299999999,0.72473145,0.036193848,-0.9942931999999999,-2.243866
12.923645,-4.6472625999999995,0.9066924999999999,0.23432922,-0.8867035,-1.8678284
12.238907000000001,-6.4979705999999995,0.24349976,0.43992615,-0.7535553,-1.4544983
11.388962,-8.276871,-0.6950225999999999,0.6092987,-0.6033478,-1.0401154000000001
9.868637,-9.04541,-0.9081116,0.7073059,-0.43397522,-0.652359
8.149612,-8.736557000000001,0.008865356,0.6796112,-0.26458740000000003,-0.3263855
7.321213,-8.276871,1.347229,0.6103668000000001,-0.17085266,-0.033432007
7.033905,-8.166733,2.4581451000000003,0.6369934,-0.25820923,0.2925415
6.837585400000001,-8.200256,3.1356964,0.7158356,-0.32211304,0.7463379
6.610138,-8.178711,3.3344116,0.7126312,-0.18682861,1.3503418
6.0235596,-7.8914029999999995,3.1979523,0.5762786999999999,0.021957397000000003,1.9458313000000003
5.2598114,-7.4053802,3.1955566,0.3270111,0.064575195,2.341034
4.527176,-6.857101400000001,3.2649841,-0.0415802,0.13168335,2.5583496
3.9549712999999995,-6.3519287,3.1764069,-0.45489502,0.5002594,2.7277222
3.6987915,-5.976043700000001,2.8244476,-0.7766113,0.98602295,2.9013672
3.7562407999999996,-5.7868958,2.2618103,-0.84158325,1.241684,3.103775
4.0507355,-5.810837,1.4908752,-0.5720824999999999,1.2821655,3.2433167000000003
4.467331,-6.002380400000001,0.9450073,-0.06074524,1.0818938999999999,3.2827300000000004
4.8815155,-6.521911599999999,1.0024719000000002,0.49957275,0.69947815,3.1378632
5.520767,-7.5897369999999995,0.9569701999999999,0.8809509,0.39587402,2.6947021
6.0403137000000005,-8.528259,0.5667267,0.94059753,0.26057434,2.0587463
6.5502777000000005,-8.743744,0.008865356,0.6327362,0.31065370000000003,1.3450165
7.7425995,-8.731766,-0.45321655,0.012756348,0.5993347,0.66218567
9.856674,-9.9552,-0.91767883,-0.67007446,1.0307617,0.15830994
11.350662,-11.250473,-0.9895171999999999,-1.0876617,1.3258514,-0.045150757
11.223755,-10.88176,-0.34547424,-1.2474518,1.3897552,0.046463013
9.772872999999999,-9.062164,0.6816406,-1.2431946000000003,1.3332977,0.30851746
8.956451,-7.4269257,1.6082001,-1.0301361,1.1585999,0.64193726
8.927719,-6.361511,1.8547973999999998,-0.63386536,0.9327698,0.9316863999999999
10.11525,-6.3902434999999995,1.3568115,-0.21734619,0.68136597,1.065918
11.740905999999999,-6.507553,0.39672852,0.04258728,0.37136840000000004,1.0637816999999998
12.143142999999998,-5.8994292999999995,-0.577713,0.11608887,0.09866333,1.0179749
11.544586,-5.073425299999999,-1.5282135000000001,0.1267395,-0.08456421,0.9455414000000001
10.766464,-4.853164700000001,-2.3757477000000002,0.16294861,-0.15060425,0.8240966999999999
9.878219999999999,-5.4373474,-2.6127777,0.1821289,-0.025970458999999998,0.6302185
8.515915,-6.0981445,-1.5760956,0.15762329,0.24034119,0.34793090000000004
6.964477499999999,-6.27771,-0.32392883,0.11288452,0.33728027,0.021957397000000003
5.9469449999999995,-6.143631,0.29138184,0.07028198,0.175354,-0.23370361
5.480072,-5.822815,1.050354,0.04045105,-0.07817078,-0.36047363
5.714706400000001,-5.511566,1.8404387999999998,-0.0042877196999999995,-0.34342957,-0.4744568
6.6005554,-5.238632,1.936203,-0.04902649,-0.5990906,-0.6470336999999999
7.5079649999999996,-4.910614,1.13414,0.022338867000000002,-0.67578125,-0.71414185
8.056229,-4.812454,0.17646789999999998,0.29718018,-0.60227966,-0.7034912
8.575775,-4.8339996,-0.15153503,0.5517731,-0.59695435,-0.8877716
9.037857,-4.707107499999999,0.073516846,0.6561737,-0.59376526,-1.3458405
9.629227,-4.709503,0.17646789999999998,0.76057434,-0.72372437,-1.9732819
10.287628,-4.8962555,0.04957580599999999,0.8415222,-1.0901794,-2.564499
10.742523,-5.145248400000001,-0.27842712,0.8106384,-1.482193,-2.9309540000000003
11.032227,-5.80365,-0.65193176,0.64764404,-1.6270599,-3.0204315
11.101654,-6.6631775,-0.6686859,0.39091492,-1.5109558,-2.9831543
11.458389,-7.3407288,-0.33349609999999996,0.12460327,-1.2456969999999998,-2.9405365000000003
12.933228,-8.683883999999999,-0.082107544,-0.11720276,-0.9804535,-2.9288177
14.024979,-10.314331,0.32730103,-0.2769928,-0.7865753000000001,-2.8957977
13.857391,-10.218567,1.1844177,-0.28871155,-0.66726685,-2.78714
13.151093,-8.161942,1.4477844,-0.16940308,-0.54156494,-2.5762177000000004
12.62677,-6.215454,0.8731841999999999,-0.017074585,-0.4275818,-2.2683562999999998
12.293975999999999,-5.446914700000001,0.7367096,0.07347107,-0.37963867,-1.9061737
11.721756,-5.8299866,0.679245,0.11288452,-0.36473083,-1.4971161
10.809569999999999,-6.919357300000001,0.5092621,0.13845825,-0.30613708,-1.1114807
9.650772,-7.865066499999999,0.40151978,0.16615295,-0.21665955,-0.8334503000000001
9.040253,-8.322357,0.34165955,0.18426514,-0.12823486,-0.6417084
8.685913000000001,-8.173919999999999,0.5236206,0.17893982,-0.07817078,-0.42332458
8.300446,-7.848312400000001,0.84684753,0.20663452,-0.17831421,-0.127182
7.788086,-7.656769000000001,1.1772461,0.27160645,-0.31039429999999996,0.25524902
7.278122,-7.699859599999999,1.6297455,0.28120422,-0.24542236,0.75912476
6.772933999999999,-7.781265299999999,1.9481811999999998,0.18426514,0.062438965,1.3173218
6.0905914,-7.651977499999999,1.9840851000000002,0.006362915,0.29786682,1.7775116000000002
5.2981110000000005,-7.122864,1.7350922,-0.30256653,0.35539246,2.055542
4.577453599999999,-6.375869799999999,1.5531311,-0.66156006,0.5013274999999999,2.2462310000000003
4.381133999999999,-5.901825,1.5100403,-0.9193573,0.72610474,2.4901732999999995
4.788147,-5.743805,1.4166565,-1.0109711,0.9242401,2.8289337000000003
5.240646400000001,-5.810837,1.2634277,-0.85969543,1.1000061,3.153839
5.2143097,-5.980835,0.95936584,-0.4730072,1.1585999,3.2507782000000005
5.240646400000001,-6.4620667,0.8372649999999999,0.062820435,1.0478058000000001,3.0025635
5.753006,-7.4053802,0.8061371,0.6785431,0.7644501,2.5136107999999995
6.171997,-8.217010499999999,0.5810852,1.1142426,0.43208313,1.9969635
6.4545135,-8.521072,0.22914124,1.075882,0.19346619,1.5048065000000002
7.029114,-8.145187,-0.055770874000000005,0.46336365,0.16790771,1.0510101
8.69548,-8.908936,-0.6734772,-0.5007019,0.41503906,0.68562317
10.424103,-10.429260000000001,-1.0924683000000002,-1.2485198999999998,0.80599976,0.42675779999999996
10.850265499999999,-10.824295,-0.63516235,-1.4264221000000001,0.9902953999999999,0.29147340000000005
9.792023,-9.509888,0.32011414,-1.3145599,1.000946,0.31596375
8.966034,-7.826751700000001,1.4118805,-1.1473236,0.983902,0.4299469
9.150391,-6.4141846,2.1325226,-0.9182892,0.8954773000000001,0.60572815
10.455231,-5.5570526,1.9673308999999997,-0.6082916,0.72717285,0.7932129
11.779221000000001,-5.142853,1.4645386,-0.28019714,0.48535156,0.90826416
12.052155,-5.1284943,0.24589539,-0.0181427,0.15086365,0.96258545
11.463181,-4.8842773,-1.4827118000000001,0.16401672,-0.16871643,0.9774933000000001
10.503113,-4.5371246,-3.206543,0.27055359999999995,-0.34875488,0.94447327
9.684296,-4.5610657,-4.121124299999999,0.29185486,-0.34980774,0.8198395
9.057007,-4.996811,-3.2328796000000004,0.19598389,-0.19641113,0.6078491
8.37706,-5.4852295,-0.7931824000000001,0.0031738281,0.059249878,0.3287506
7.390640299999999,-5.523529,0.66967773,-0.20988464,0.30212402,0.06350708
6.650833,-5.434952,0.9497985999999999,-0.34304809999999997,0.42889404,-0.10588074
6.0666504,-5.171584999999999,1.2418823,-0.28764343,0.24353027,-0.24116516
5.891876,-4.8842773,1.4477844,-0.052230835,-0.16339111,-0.31892395
6.380294999999999,-4.853164700000001,1.3592072,0.37068176,-0.5074768,-0.22412110000000002
6.8639220000000005,-4.7502135999999995,0.86120605,0.8596344000000001,-0.7162628000000001,-0.14315796
7.452896000000001,-4.723877,0.38476562,1.0950623,-0.82917786,-0.41160583
8.175949000000001,-4.843582,0.13098145,1.0641631999999999,-0.8132019,-1.0688782
9.119263,-4.9273834,-0.08929443,0.9853363000000002,-0.9048156999999999,-1.9136353
10.055389,-4.984833,-0.39335632,0.9246216,-1.1338501,-2.6188354
10.922089,-5.2625732,-0.8051605,0.87135315,-1.2787323,-3.0662384
11.432053,-5.633667,-1.008667,0.7339325,-1.2904358,-3.2739716
11.501495,-6.136444,-0.77882385,0.46122742,-1.1881714,-3.2995300000000003
11.939621,-6.823592999999999,-0.0007019042999999999,0.14910889,-1.0741882,-3.2292327999999997
13.35939,-8.547409,0.35842896,-0.09376526,-0.9953613000000001,-3.1173706
14.324248999999998,-10.11322,0.6960144,-0.2184143,-0.9293213,-2.965042
14.2500305,-9.667892,1.0862578999999999,-0.19709778,-0.8121338,-2.7147064
13.785553,-7.1468050000000005,0.6074219,-0.05329895,-0.6555481,-2.3482513
13.371367999999999,-4.776550299999999,-0.098861694,0.08200073,-0.51919556,-1.9445189999999999
13.038574,-3.9026642,-0.07014465,0.12460327,-0.46273804,-1.595108
12.34903,-4.6640167,0.071121216,0.088394165,-0.4275818,-1.3287964
11.451217999999999,-6.2178497,0.18843079,0.060684204000000005,-0.34022522,-1.1370544
10.507889,-7.5490265,0.1405487,0.100112915,-0.19961548,-0.9485016
9.516693,-8.358276,-0.16351318,0.22154236,-0.047286987,-0.6598053
8.626053,-8.446854,-0.12519836,0.42288208,-0.002532959,-0.30613708
7.938919,-8.272079,0.29377747,0.64871216,-0.162323,0.062438965
7.4337463,-8.181107,0.8636017,0.8138274999999999,-0.40414429999999996,0.48107910000000004
6.8854675,-8.202652,1.4094848999999998,0.8596344000000001,-0.48510742,0.98709106
6.2964934999999995,-8.099701,1.8188933999999997,0.77441406,-0.32957458,1.5271758999999998
5.7697754,-7.683105499999999,1.7997284,0.51875305,-0.06112671,1.9373016
5.3723297,-6.9600525,1.4717255,0.10437012,0.12849426,2.1397095
5.183197,-6.2513733,1.2514648000000002,-0.37287903,0.3905487,2.2110748
5.240646400000001,-5.870697,1.3089294,-0.80963135,0.7378235,2.2664642
5.223892,-5.8060455,1.4884948999999998,-1.1686249,1.0115967,2.4166717999999996
4.828842,-5.901825,1.5962219,-1.3422698999999998,1.2353058000000001,2.7000275
4.472107,-5.9832152999999995,1.6010132,-1.1260071000000003,1.3237152,2.9258728
4.4888763,-6.0742035,1.3376465,-0.37287903,1.0520782,2.9674072
5.1041870000000005,-6.8355559999999995,0.7941741999999999,0.74458313,0.48321533,2.7809906000000004
6.069046,-7.9680176,0.06872558599999999,1.6372833,-0.021713257000000003,2.3005524
6.880676299999999,-8.564178,-0.5417938,1.8513947,-0.36473083,1.6741791000000001
7.615707400000001,-8.243347,-0.9416199000000001,1.3709717,-0.44355774,1.0605927
8.764923,-8.023087,-1.3270874,0.38453674,-0.07284546,0.53115845
10.491135,-9.196242999999999,-1.6143951,-0.6988373000000001,0.6312866,0.13700867
11.657119999999999,-10.1970215,-1.5880584999999998,-1.3166962,1.2193146000000001,-0.060073852999999997
11.082504,-9.689453,-1.111618,-1.439209,1.3727112,-0.04196167
9.392197,-8.063782000000002,-0.019851685,-1.3656921,1.3578033,0.13380432
8.700272,-6.4931946,1.45018,-1.1057739,1.209732,0.3798828
9.102492999999999,-5.334396400000001,2.8029022,-0.6221466,0.88908386,0.6312866
10.460007000000001,-5.0542755,3.363144,-0.085250854,0.49813843,0.80599976
11.740905999999999,-5.008789,1.8931122,0.24284363,0.19134521,0.8581848
11.863007000000001,-4.711899,-0.55137634,0.31954956,0.010238647,0.79000854
11.178268,-4.470093,-2.6271515,0.279068,-0.07391357400000001,0.68455505
10.397766,-4.501205400000001,-4.018173,0.23219299999999998,-0.09307861,0.5663147
9.650772,-4.8507690000000006,-4.2216797,0.16934204,-0.025970458999999998,0.43208313
8.508742999999999,-5.3655243,-2.4858856,0.046844482,0.11889648400000001,0.27761840000000004
7.1895294000000005,-5.4971924,-0.26167297,-0.10975647,0.2733612,0.13061523
6.143265,-5.300873,0.53559875,-0.21308899,0.35325623,0.07948303
5.633301,-5.1260986,1.0958405,-0.23013306,0.23182678,0.074157715
5.614151000000001,-4.9010468000000005,1.881134,-0.18751526,-0.07710266,0.021957397000000003
6.140869,-4.71669,2.0439453000000003,0.006362915,-0.35194397,0.032608032
6.99321,-4.625717,1.0790863000000002,0.43034363,-0.5319824000000001,0.128479
7.9485016,-4.6496580000000005,-0.11323547,0.8692322,-0.67578125,0.05178833
8.513519,-4.8172455,-0.72854614,1.0449982,-0.6502228,-0.396698
8.937302,-4.881897,-0.7548828000000001,1.0822753999999999,-0.61932373,-1.2148132
9.200667999999999,-4.8603363,-0.68066406,1.1025238000000002,-0.87179565,-2.104309
9.638794,-5.202713,-0.8099518,0.9672241,-1.2552948,-2.7434692000000003
10.313965,-6.011947599999999,-1.0254211,0.6689606,-1.3831177,-3.0108490000000003
10.807175,-7.007934599999999,-0.9727478,0.38986206,-1.3831177,-2.981018
11.266861,-7.668747,-0.6088256999999999,0.19810486,-1.372467,-2.8063202
12.614792,-8.715012,-0.46757507,0.020217896000000003,-1.306427,-2.6007233
14.020187,-10.2760315,-0.16351318,-0.19709778,-1.1253203999999999,-2.419632
14.467910999999999,-10.728531,0.5906677,-0.41015625,-0.89097595,-2.245987
13.984283,-8.810775999999999,0.9521941999999999,-0.5188141,-0.67684937,-2.0126953000000003
13.222916,-5.8515472,0.32250977,-0.47407532,-0.5128020999999999,-1.7005768
12.7512665,-3.6632385000000003,-0.09169006,-0.29510498,-0.4371643,-1.3245392
12.1862335,-3.3591766000000005,-0.11323547,-0.08843994,-0.42012024,-0.9868469000000001
11.120819000000001,-4.668808,-0.5561676,0.041519165,-0.3902893,-0.7823180999999999
9.76091,-6.3064423,-1.0685120000000001,0.09477234,-0.3306427,-0.699234
8.633239999999999,-7.613678,-0.7524871999999999,0.10649109,-0.23582458,-0.6576843000000001
7.7785034,-7.946472,-0.082107544,0.09051514,-0.13783264,-0.59269714
7.282913000000001,-7.6711273,0.33926392,0.06921387,-0.099472046,-0.45741272
7.091369599999999,-7.42453,0.46617126,0.10437012,-0.12611389,-0.23690796
6.978836,-7.3479156,0.5954437,0.21089172,-0.14955139,0.09971619
6.619705000000001,-7.2569427,1.0048523,0.28759766,-0.06112671,0.5758972
6.0905914,-7.0270996,1.5148315,0.2524414,0.16790771,1.0648499
5.539932299999999,-6.6248627,1.9457855,0.052169799999999995,0.37989807,1.3791046
5.324447599999999,-6.0933532999999995,2.0583038,-0.34197998,0.38095093,1.5186614999999999
5.578232,-5.628875700000001,1.802124,-0.8000488,0.46191406,1.6518096999999998
6.009186,-5.403824,1.5004578000000002,-1.1995239,0.7527313,1.8978881999999997
6.2581940000000005,-5.418197599999999,1.2514648000000002,-1.4466553,1.0541992,2.2164001
6.2366333,-5.585785,1.0096436,-1.3742218000000002,1.2938843,2.5114746
6.16481,-6.057449299999999,0.81092834,-0.83625793,1.335434,2.6467742999999997
6.34198,-6.811615,0.82051086,0.12886047,1.0691223,2.6020355
6.634078999999999,-7.728592,0.92585754,1.1600494,0.6920166,2.3282623
6.828003,-8.530655,0.7007904,1.8055878,0.28507996,1.846756
7.108124,-8.640792999999999,0.20040894,1.7800293000000003,-0.013198853,1.3343658
7.74498,-8.140396,-0.4771576,1.0545806999999998,0.047531128,0.8954773000000001
9.18869,-8.624023,-1.360611,-0.11508179,0.43740845,0.5556488
10.68985,-10.01506,-1.8298797999999998,-1.0961914,0.8954773000000001,0.31170654
10.826324000000001,-10.498688000000001,-1.3462524,-1.4349365,0.9988098,0.16151428
9.492752000000001,-9.016678,-0.18984985,-1.4306793,0.9018707,0.18814087
8.412964,-7.376647999999999,1.3735657,-1.3273468000000002,0.83688354,0.34153748
8.242981,-5.834778,2.8507842999999995,-1.1132355,0.75805664,0.55459595
9.088135000000001,-5.080612,3.758194,-0.7766113,0.65686035,0.76338196
10.606064,-5.2434080000000005,3.0950012000000005,-0.38032532,0.50453186,0.8816223
11.429657,-5.317627,1.031189,-0.043701172,0.31277466,0.8858795
10.845474000000001,-4.9465330000000005,-1.360611,0.13739014,0.13275146,0.8027954
9.739365,-4.57782,-3.6351013,0.13632202,0.033676147000000003,0.71118164
8.841536999999999,-4.383896,-4.9710693,0.059631348,0.041137695,0.6227722
8.168762,-4.5634613,-4.4467316,-0.021331787,0.11677551,0.49707029999999996
7.627670299999999,-5.0470885999999995,-1.8466339,-0.10762024,0.20306396,0.31916809999999995
6.7585754,-5.226654,-0.07971191400000001,-0.19816589999999998,0.2967987,0.19239807
6.239029,-5.363128700000001,0.49728394,-0.21414185,0.36604309999999995,0.18600464
6.028351,-5.279327400000001,1.1125946000000002,-0.10122681,0.18495178,0.18493652
6.052292,-4.996811,1.7015686,0.11395264,-0.14527893,0.16896057
6.6077423,-4.7861176,1.9218445,0.39198303,-0.39456177,0.1434021
7.5175323,-4.723877,1.4693298000000001,0.6540375,-0.5543518,-0.022781372
8.326782000000001,-4.589798,0.60502625,0.81277466,-0.6139984,-0.45527650000000003
8.805617999999999,-4.6424712999999995,-0.25209045,0.91822815,-0.6598053,-1.1583557
9.116867,-4.754989599999999,-0.6064453000000001,0.9800110000000001,-0.85261536,-1.9328003
9.619644000000001,-4.8651276,-0.5417938,0.91290283,-1.1519622999999999,-2.515503
10.448044,-5.2625732,-0.5489807,0.79785156,-1.4012299,-2.8595886000000004
11.185455000000001,-6.069412000000001,-0.6471405,0.6742859,-1.5365143,-2.9991302
11.331497,-6.677536,-0.45082092,0.5112915,-1.5024261,-3.0097810000000003
11.853439,-6.981598,-0.096466064,0.26734924,-1.3575591999999999,-2.9767609
13.297134,-8.118851,-0.039016723999999996,-0.026657103999999997,-1.1210632,-2.932022
14.458328,-8.863449000000001,0.06872558599999999,-0.31214905,-0.8355713,-2.8776855
14.793517999999999,-8.176314999999999,0.2339325,-0.48258972,-0.53730774,-2.7477264
14.326645000000001,-6.17955,0.24829102,-0.47833252,-0.3306427,-2.5144347999999996
13.689789000000001,-4.4269867,0.25308228,-0.35369873,-0.2571411,-2.2151031000000003
13.050537,-4.0463104,0.26504517,-0.21414185,-0.2837677,-1.9168243000000003
12.037796,-4.9561157,-0.082107544,-0.13319397,-0.33810425,-1.6451874
11.080109,-6.308838,-0.103652954,-0.07246399,-0.33703613,-1.3852539
10.35466,-7.455658000000001,0.26026917,-0.017074585,-0.2752533,-1.1370544
9.595703,-7.948867999999999,0.46377563,0.043640137,-0.14422607,-0.86221313
8.937302,-7.8459167,0.45898438,0.17999268,-0.02810669,-0.49682617
8.506348,-7.692688,0.47573853,0.41542053,-0.024902344,-0.012130736999999999
8.137634,-7.668747,0.6098175,0.6497803000000001,-0.08030701,0.5513916
7.6204834,-7.7022552,0.9426117,0.7009125,-0.046218872,1.114914
6.9333496,-7.6400146,1.3951111,0.53260803,0.09120178,1.6571349999999998
6.325226,-7.4460754,1.6728363000000002,0.25456238,0.20518494,2.1056213
5.74823,-6.9720306,1.6752319,-0.10336304,0.25312805,2.3346405
5.3076935,-6.342346,1.5507355,-0.56248474,0.40438843,2.3815155
5.085022,-5.96167,1.5387726000000002,-1.0077667,0.68562317,2.5551605
5.0874176,-5.9521027,1.6249542,-1.2250823999999998,0.9924164000000001,3.013214
5.0036316,-6.078994799999999,1.6034088,-1.1238861,1.1042786,3.4893951000000003
4.6851959999999995,-6.177154499999999,1.7255096,-0.8011017,0.77723694,3.5362701000000003
4.3835296999999995,-6.325591999999999,1.778183,-0.19497679999999998,0.32556152,3.059021
4.689987,-6.9409027000000005,1.4046936,0.6465911999999999,0.039001465,2.2856445
5.599777,-7.7669067,0.43504333,1.1962585,-0.12823486,1.5058746
6.540710400000001,-8.130828999999999,-0.53700256,1.1163635,-0.052612305,0.91677856
7.472046000000001,-8.152374,-1.0110626,0.5294036999999999,0.32449340000000004,0.49279785
9.279663000000001,-8.822739,-1.2456969999999998,-0.27912903,0.9178466999999999,0.28933716
11.403319999999999,-10.005478,-1.6000366000000001,-0.91508484,1.4739227,0.4075775
11.496704,-10.268844999999999,-1.3941344999999998,-1.1419983,1.6965636999999998,0.70266724
9.789642,-9.236938,-0.08689880000000001,-1.0738219999999998,1.5783081,0.9924164000000001
8.348328,-7.4101715,1.5076447,-0.8032379,1.2800446,1.1756438999999999
8.966034,-5.810837,2.0008545,-0.36221313,0.8464813,1.2523346000000002
11.417694000000001,-5.700714,2.1660461,0.10862732,0.41717529999999997,1.2779083
13.079269,-5.6001434,2.5515137,0.42288208,0.11357117,1.2438202
12.717742999999999,-5.150039700000001,1.5914458999999999,0.5283356,-0.11332703,1.1277008
11.365021,-5.238632,-0.58010864,0.49212646,-0.29548645,0.94873047
10.038635000000001,-5.4445343,-2.1650696,0.36109924,-0.38710022,0.73568726
8.7314,-5.6193085,-2.7253112999999995,0.17573547,-0.29441833,0.48747253
