accx,accy,accz,gyrx,gyry,gyrz
2.3364868,-0.4262848,7.3614654999999996,-0.19277954,0.24952698,-0.09088135
2.401123,-0.08151245,6.1045074,-0.12780762,-0.025299072000000002,-0.20167542
3.0738982999999998,0.22015381,5.422165000000001,-0.051101685,-0.39282227,-0.2602539
3.8065186,0.4619751,5.6663666,-0.100097656,-0.5281066999999999,-0.28157043
4.429016000000001,0.46914673,6.650390600000001,-0.24923706,-0.36512756,-0.26878357
5.03714,0.45718384,7.9360657,-0.42500305,-0.27137756,-0.275177
5.4848633,0.6104126,8.92009,-0.37068176,-0.28735352,-0.5255126999999999
5.678787000000001,1.0509491000000002,9.21936,-0.056427002000000004,-0.09561157,-0.8983612
5.863144,1.4459839,9.360626,-0.084121704,0.17070007,-0.87597656
6.219879,1.3574066,10.057343,-0.47613525,0.2559204,-0.6288451999999999
6.7897034,0.79237366,10.766022,-0.57414246,0.19413757,-0.49568176
7.579788000000001,0.12678528,10.991074000000001,-0.24711609,0.22715760000000002,-0.35186768
8.049057000000001,-0.02166748,11.000656,0.18751526,0.37097168,-0.03656006
8.412964,0.16268921,10.816299,0.41973877,0.46044922,0.31710815
9.210236,0.36619568,11.438797000000001,0.40376282,0.4008026,0.5152588
8.841536999999999,0.08607483,12.293517999999999,0.30789185,0.26763916,0.4492035
6.3515625,-1.5228271,10.12677,0.28977966,0.18028260000000002,0.21058655
4.931793,-2.9689178,7.426101700000001,0.26741028,0.17922974,-0.0014038085999999999
5.463318,-3.4836730000000005,7.950439500000001,0.18325806,0.23887634,-0.065322876
5.6045685,-3.6105652000000004,9.724548,0.11933899,0.26977540000000005,-0.07597351
4.7618103,-3.5674744,9.880157,0.011749268,0.26124573,-0.08981323
4.1058044,-3.0096283,8.175491000000001,-0.119277954,0.20372010000000002,-0.08129883
4.065094,-1.5683136,6.2242125999999995,-0.08944702,0.12382507,-0.028030396000000003
4.634918,0.009460449000000001,5.403015,0.09271239999999999,0.11956787,0.13282776
5.0706635,0.9791107,5.656799299999999,0.23757935,0.15579224,0.34693909999999994
4.876739499999999,1.3286743,5.7573547,0.2141571,0.1259613,0.46305847
4.218322799999999,1.4052886999999998,5.5179290000000005,0.085250854,0.009841919000000001,0.46092224
4.0148163,1.4004974,5.673553500000001,-0.072402954,-0.18083191,0.32670593
4.1656493999999995,1.3765564,5.8315735,-0.21514893,-0.27883909999999995,0.2265625
4.3954926,1.1754456,6.130844000000001,-0.24604797,-0.21705627,0.31071472
4.745056,0.7325134,7.244155999999999,-0.088378906,-0.24581909,0.44068909999999994
4.745056,0.473938,8.335907,0.19816589999999998,-0.45353699999999997,0.36824036
4.654068,0.6678772,8.575317,0.36860657,-0.48869324,0.19779968
5.0969999999999995,1.2664185,8.197037,0.21627808,-0.43862915,0.24041748
5.8415985,1.7021636999999998,8.149155,-0.0798645,-0.41412354,0.40553284
6.950119,1.5633086999999999,8.738128999999999,-0.17359924,-0.4503479,0.37251282
7.5151367,0.8378601000000001,9.556946,-0.13418579,-0.35020447,0.11897278
7.1871339999999995,0.31591797,10.507446,-0.13739014,0.019439697,-0.020584106
7.0985565,0.1124115,11.443572999999999,-0.20875549999999998,0.35606384,0.025222777999999998
7.3595276,-0.009689330999999999,11.764403999999999,-0.18106079,0.40826416,0.028427123999999998
7.314025999999999,-0.8787841999999999,11.1610565,-0.01701355,0.31451416,-0.09941101
6.3874817,-2.4086761,9.4133,0.14596558,0.36032104,-0.2006073
5.9062347,-3.5722656,8.302383,0.2216034,0.47323608,-0.13349915
6.784911999999999,-3.5914154000000003,9.07811,0.18644714,0.46044922,0.07423401
7.5893707,-2.9090729,9.9783325,0.12573242,0.2239685,0.2531891
6.6316833,-2.5595092999999998,9.77243,0.15768433,-0.18083191,0.26811218
5.0467224,-2.0998229999999998,8.831497,0.18005371,-0.48657227,0.19033813
4.5128174,-1.3815613000000002,8.446045,0.042648315,-0.44076538,0.10618591
4.6397095,-0.8596344000000001,8.383789,-0.1821289,-0.13290405,0.07209778
4.0579224,-0.73753357,7.837905999999999,-0.36428833,0.13661194,0.07423401
2.9015197999999995,-0.7806244000000001,6.839523299999999,-0.45909120000000003,0.17602539,0.038009644
1.9606018,-0.85723877,5.7166443,-0.46122742,-0.039154053,-0.11431885
2.1114349999999997,-0.89553833,5.0917664,-0.46122742,-0.34062195,-0.29328918
3.2869873,-0.7231598000000001,5.4173737,-0.46975708,-0.371521,-0.45307922
4.498443599999999,-0.53163147,6.001556400000001,-0.5070342999999999,-0.21066284,-0.5116577
5.073059,-0.47416687,6.2266083,-0.61782837,-0.18403625,-0.5031433
5.27417,-0.45022583,6.6264496,-0.51342773,-0.11798096,-0.63417053
5.393875,-0.1269989,7.3686523,-0.06814575,0.12382507,-0.81207275
5.7577972,0.3542328,8.094086,0.12466431,0.23887634,-0.79289246
6.478454599999999,0.6463165,8.884171,-0.008483886999999999,0.20266724,-0.69381714
7.3595276,0.5625305,9.777222,0.063949585,0.25166320000000003,-0.6416321
8.116089,0.06452942,10.890518,0.3622284,0.4242401,-0.4701233
8.192703,-0.3616333,11.599197,0.5933838,0.64793396,-0.24855042
8.324387,-0.9099120999999999,11.496246000000001,0.6317291,0.807724,-0.033355712999999995
8.824767999999999,-0.6441498000000001,12.489838,0.56248474,0.8737792999999999,0.12643433
8.566193,-0.67048645,13.969467000000002,0.49005127,0.81518555,0.1796875
7.4505005,-2.00885,12.324646000000001,0.50390625,0.6639252,0.13494873
6.9812316999999995,-3.0024414,9.96875,0.58166504,0.51690674,0.06465149
7.179962,-3.3184814,10.253662,0.564621,0.38162229999999997,-0.009918213
6.3156433,-3.2897491000000003,10.730103,0.34623718,0.24313354,-0.058929443
5.0467224,-3.0311737,9.432449,-0.037246704,0.13128662,-0.041885376
4.072280999999999,-2.1141967999999998,7.5290527,-0.43460083,-0.048736572,0.034820557
3.4210663,-1.0607452,6.092544599999999,-0.7989196999999999,-0.29055786,0.1285553
3.093048,0.08607483,5.46286,-1.1611023,-0.44076538,0.21377563
3.0738982999999998,0.7732085999999999,5.3886414,-1.3272858,-0.30867004,0.26065063
2.8679962000000003,1.0269928,5.4724426,-1.1547089,-0.027435302999999998,0.3842163
2.5878754,1.0461578,4.701507599999999,-0.7381897,0.31558228,0.63668823
2.3724060000000002,0.9001007,3.5355377,-0.39730835,0.17070007,0.6462859999999999
2.2215576,0.65589905,2.707138,-0.20236206,-0.26179504,0.5482788000000001
2.293396,0.34225464,2.8196716,0.0650177,-0.5781708000000001,0.43855286
2.717163,0.18185425,3.624115,0.18218994,-0.5749816999999999,0.47370909999999994
3.6269531,-0.10305786,4.8954315,-0.07347107,-0.26925659999999996,0.6121979000000001
4.5678864,-0.55078125,7.1675415,-0.23432922,0.07696533,0.61325073
5.3196564,-0.56993103,9.834671,0.07034302,0.19839478,0.41192627
4.242264,-0.33529663,11.764403999999999,0.41122437,-0.048736572,0.32989502
5.820053,-0.06954956,12.025375,0.46128845,-0.5856323,0.48754883
6.907013,-0.04798889,11.920029,0.19497679999999998,-0.9701995999999999,0.46305847
7.5151367,-0.13658142,12.779541,-0.08944702,-0.8956299000000001,0.25852966
7.184738,-0.50050354,12.762787,-0.21514893,-0.61865234,0.23721313
6.701111,-0.65133667,11.551314999999999,-0.3312683,-0.5291748000000001,0.3799591
6.794494599999999,-0.23953247,11.606384,-0.53686523,-0.4972229,0.39700317
7.105728,-0.43107605,12.875305,-0.42181396,-0.43223572,0.22444153
6.2653656,-2.0806732,11.558502,0.05116272,-0.36192322,0.089141846
4.689987,-3.0790558,8.790802000000001,0.51242065,-0.27990723,0.11790466
4.941375700000001,-2.7965392999999996,6.8754425,0.73506165,-0.43756104,0.24360657
5.614151000000001,-2.2243195,6.6815186,0.80430603,-0.7102661,0.33735657
4.575058,-2.0327911,7.038253999999999,0.6967163000000001,-0.8285216999999999,0.30966187
3.7586364999999997,-2.0375824000000002,7.1148679999999995,0.41973877,-0.8317108,0.14027405
4.642105,-1.9729308999999997,7.145981,0.12998962,-0.7241211,0.09660339
5.7577972,-1.7023926,8.7812195,0.040512085,-0.6580658,0.21272278
5.4226074,-1.5515594,10.246475,0.10549927,-0.84342957,0.23509216
4.385925299999999,-1.6640778000000003,9.781998,0.0010986328,-0.931839,0.09234619
3.6365355999999998,-1.6353455,7.766083,-0.29185486,-0.94569397,-0.0834198
3.7107544000000003,-1.4414215,6.0733795,-0.58374023,-0.8807068000000001,-0.086624146
4.333252,-1.2307281,5.1396484000000004,-0.6306,-0.9744568000000001,0.006057739300000001
5.355575599999999,-0.8787841999999999,4.507583599999999,-0.52407837,-1.5273285,0.22230529999999998
5.7027282999999995,-0.9793396000000001,4.4596862999999995,-0.3110199,-2.5414581000000003,0.48754883
5.329239,-1.3480530000000002,5.280899,0.059692382999999995,-3.6621246,0.76345825
6.2773438,-1.2570648000000002,6.29126,0.44744873,-4.3481445,0.86146545
7.9485016,-1.3863524999999999,6.133239700000001,0.6082916,-4.724182,1.0830383
9.229385,-1.4701538,5.6807404,0.65304565,-4.7987519999999995,1.5549469
9.337128,-2.1740417,5.8555145,0.6317291,-4.690094,1.9118195
9.140808,-2.8683624,6.755737299999999,0.6274719,-4.449356,1.9736023
8.482407,-3.5650787000000004,6.5426483,0.6253357,-4.036026000000001,1.9395142
7.8503264999999995,-3.5387419999999996,5.723831,0.5102997,-3.3872833,1.9821167000000002
7.9532776,-3.6345062000000006,5.6903076,0.09803772,-2.348648,2.1206055
8.898987,-3.7302855999999998,5.48201,-0.72328186,-0.8721924000000001,2.1642761000000004
8.570984,-4.95372,3.8491669,-1.5637816999999998,0.6213074000000001,1.9043578999999997
7.563034,-5.9927980000000005,2.7238922000000003,-1.9898833999999999,1.6439667000000002,1.4090118
8.152008,-6.888229400000001,1.833252,-2.0910797,1.9582214,0.9924927
9.473602,-7.0223083,1.105423,-2.1166534,1.7196044999999998,0.76878357
9.62204,-6.617691000000001,0.94021606,-2.1336975,1.2732544,0.7762451
8.836746,-6.2513733,0.47573853,-1.9898833999999999,0.8492736999999999,0.96372986
7.5773926,-5.4445343,-0.25209045,-1.5946655,0.5392914000000001,1.0968933
7.3954315,-4.5395203,-1.4563751,-1.1216888,0.32409668,1.0681305
8.35791,-3.8092803999999996,-1.4707489,-0.7168884,0.21971129999999997,0.9530791999999999
9.40657,-3.3136902000000004,0.26026917,-0.3781433,0.17602539,0.8816985999999999
8.973206,-3.2274933,1.4429931999999999,-0.11502075,0.10784912,0.8305664
7.984405499999999,-3.459732,1.4214478000000002,-0.031921387,0.015167236,0.7006073
7.4864197,-4.4820557,1.189209,-0.14697266,-0.011459351000000001,0.5567932
7.5462646,-5.348755000000001,1.9194488999999997,-0.28971863,0.08547974,0.519516
8.606902999999999,-5.1883545,3.3775177000000003,-0.29397583,0.26338196,0.5067291
9.911743,-4.608947799999999,4.007187,-0.08944702,0.24526978,0.4534607
10.752106,-4.1564483999999995,3.6217193999999995,0.26208496,-0.03489685,0.31498718
11.147140499999999,-4.3623505,3.004013,0.7489166,-0.58244324,0.17756653
11.788788,-5.1213074,2.3791351,1.2197571000000003,-1.2823181000000001,-0.008865356
12.669861000000001,-5.798874,1.4238434,1.5137787,-1.7276001,-0.23788452
13.414458999999999,-6.904983500000001,0.39433290000000004,1.6458588,-1.7190703999999999,-0.404068
13.45755,-8.221802,0.34405518,1.6362762,-1.3803253,-0.45413208
12.674652,-7.6208496,0.79177856,1.425354,-0.93930054,-0.4232483
11.515854,-6.0311127,1.6512909,1.0834045,-0.53770447,-0.45520020000000005
12.1862335,-7.0773773,1.9912720000000002,0.8170929,-0.29269409999999996,-0.56492615
12.277206,-8.214615,2.3384247000000005,0.7521057,-0.21705627,-0.68104553
11.283615,-7.484390299999999,2.319275,0.8160248000000001,-0.23728943,-0.75987244
10.124817,-6.5171356,1.8045197,0.8724823,-0.31399536,-0.7705231
9.195877000000001,-6.380661,1.3328705,0.8586273000000001,-0.40879822,-0.71939087
8.539856,-6.6200867,0.8013458000000001,0.7989807,-0.50894165,-0.64268494
7.539092999999999,-6.0311127,-0.039016723999999996,0.7222748000000001,-0.6090698,-0.55107117
6.930953999999999,-4.9585114,-0.68066406,0.6455841,-0.6793823,-0.4477539000000001
6.6604156,-4.170807,-0.47476196,0.5795288000000001,-0.7187958000000001,-0.34761047
6.385086,-3.9505462999999996,0.27941895,0.52627563,-0.723053,-0.23576355
6.1360779999999995,-4.2306669999999995,0.74150085,0.4730072,-0.6868286,-0.05467224
5.7793427,-4.570648,0.6888274999999999,0.32919312,-0.63357544,0.10406494
5.4992220000000005,-4.9752655,0.38955688,0.12786865,-0.53770447,0.24148560000000002
5.4226074,-5.3463593000000005,0.24349976,-0.13206482,-0.37258909999999995,0.31710815
5.475281,-5.679153400000001,0.17407227,-0.49424744,0.0002593994,0.42044067
5.7506104,-6.181946,0.21955872,-0.86602783,0.36671448,0.7762451
6.224670400000001,-6.8211975,0.2339325,-1.0716248,0.7768401999999999,0.6761017
6.938141000000001,-7.7549285999999995,0.15731812,-1.3965302,0.87590027,0.4023285
7.476837,-8.880203,0.097457886,-1.4178313999999999,0.8237152,0.4033966
8.448883,-9.890564,-0.42448425,-0.9714966,0.66711426,0.5706482
8.669144000000001,-9.718169999999999,-0.8793793,-0.24604797,0.39759827,0.68037415
9.073775999999999,-9.394958500000001,-1.1810455,0.37713623,0.09187317,0.63882446
9.528671000000001,-10.110825,-1.5545349,0.5752716,0.069503784,0.43429565
7.840759299999999,-8.573746,-1.5114441,0.4410553,0.23461914,0.20632935
8.104111,-7.400589,-1.0517578,0.17472839999999998,0.41038513,0.08595276
9.487961,-7.7980347000000005,-1.5760956,-0.06921387,0.5307616999999999,0.051864624000000005
8.657181,-7.8890076,-0.38616943,-0.22686768,0.5115814000000001,-0.016311646000000003
7.802444500000001,-7.668747,1.4693298000000001,-0.31422424,0.36457825,-0.14840698
7.7114716,-6.952881,2.6065826000000003,-0.34724426,0.17922974,-0.20593262
8.187911999999999,-6.105331400000001,2.3863068,-0.32380676,-0.02104187,-0.17930603
8.7314,-5.86351,0.7438965,-0.2566986,-0.17124939,-0.0834198
8.403397,-5.274536,-0.75009155,-0.15550232,-0.25965879999999997,0.027359009
7.431350699999999,-4.565857,-1.6167908000000002,-0.072402954,-0.26818848,0.13601685
6.5766144,-3.9313964999999995,-1.7101593000000002,-0.05961609,-0.19680786,0.24360657
6.2557983,-3.4022675000000002,-1.3941344999999998,-0.10862732,-0.09347534,0.28622437
6.3156433,-3.2993163999999995,-1.1882324,-0.19917297,0.04925537,0.31604004
5.963699299999999,-3.7853394000000002,-0.9583893,-0.29397583,0.23461914,0.42257690000000003
5.7817383,-4.285736,-0.69981384,-0.34617615,0.41571045,0.5653229000000001
5.776947,-4.9704742,-0.43884277,-0.38026428,0.5339508000000001,0.64733887
6.1528472999999995,-5.578598,-0.22814941,-0.33233643,0.6085205,0.66226196
6.586197,-5.892242400000001,-0.2137909,-0.1309967,0.8237152,0.6974182
6.842376700000001,-5.9042205999999995,-0.50349426,0.06074524,0.9717865,0.6548004
7.5127562999999995,-5.9544983,-0.82910156,0.16621399,0.69480896,0.38316345
8.293258999999999,-6.447693,-1.1499176000000002,0.33772278,-0.080703735,0.022033691
8.8535,-7.3957977,-1.2409058000000002,0.51348877,-1.1150665000000002,-0.21018982
9.435286999999999,-8.0589905,-1.0110626,0.51242065,-1.8138884999999998,-0.4328308
10.07933,-8.183487,-0.8099518,0.40908813,-1.9236145,-0.6842345999999999
11.027435,-8.504318,-0.5106659,0.36860657,-1.4943084999999998,-0.9356384
11.434448,-8.683883999999999,0.13575745,0.39204407,-0.6974945,-1.1018219
10.665909,-6.890625,0.16688538,0.34623718,0.118499756,-1.056015
11.264465,-6.6559906,-0.42208862,0.2652893,0.5957489,-0.9122009
12.432831,-8.655151,-0.4412384,0.28338623,0.7012024,-0.83551025
11.628387,-9.095688,0.013656616000000002,0.4495697,0.5776366999999999,-0.8727875
10.337906,-8.130828999999999,0.19322205,0.6679535,0.29960632,-0.9239197
9.578949,-7.613678,0.5810852,0.80111694,-0.0039978027,-0.8781128
9.291641,-7.683105499999999,1.3113098,0.77767944,-0.25646973,-0.7119293000000001
8.55423,-7.58255,1.7901611000000002,0.6253357,-0.46525574,-0.4797058
6.7561800000000005,-6.804428,1.4214478000000002,0.42826843,-0.5930939000000001,-0.2549286
5.283752400000001,-5.6911316,0.8276825000000001,0.24824524,-0.5536804,-0.100479126
4.907852,-4.7502135999999995,0.7103729,0.08950806,-0.34701538,-0.0014038085999999999
5.302902,-4.448532,0.8300780999999999,-0.03831482,-0.09774780000000001,0.10406494
5.393875,-4.5251465,0.73431396,-0.1352539,0.069503784,0.24360657
5.006027,-4.802887,0.29138184,-0.24391174,0.18455505,0.43536377
4.491272,-5.104553,-0.3215332,-0.36003113,0.2601776,0.63349915
4.1536865,-5.257782,-0.85543823,-0.48252870000000003,0.26338196,0.7197876
4.364380000000001,-5.511566,-1.0350037,-0.69877625,0.31665040000000005,0.6910248000000001
5.207138,-5.8994292999999995,-0.78601074,-1.0428619000000001,0.53715515,0.71551514
6.246216,-6.4405212,-0.54418945,-1.3592528999999998,0.6735076999999999,0.71125793
7.012359599999999,-7.1922913,-0.39814758,-1.5893402,0.6404877,0.54081726
7.699493400000001,-8.224197,-0.3502655,-1.5094452,0.6053314000000001,0.43429565
8.281296000000001,-9.217789,-0.6160126,-0.96403503,0.44340515,0.47477722
8.724213,-9.320739999999999,-0.8338928,-0.17999268,0.14086914,0.48329163
9.452057,-9.014282000000001,-1.0445709,0.49111938,-0.13716125,0.2734375
10.596480999999999,-9.560165,-1.4492035,0.71694946,-0.18296814,-0.06958008
10.172714,-9.227371,-1.9232483,0.51242065,0.05671692,-0.28157043
9.064194,-7.2569427,-1.6143951,0.12359619,0.38269043,-0.3497467
9.784851,-7.2760925,-1.0469666,-0.24179077,0.6213074000000001,-0.39022827
10.01709,-8.432495,0.26504517,-0.47294617,0.6511383000000001,-0.5212555
9.246155,-7.9440764999999995,2.1564636000000004,-0.5986481,0.50413513,-0.7108612
9.18869,-6.976822,3.0471191,-0.6455231,0.29533386,-0.7758484
9.784851,-6.0622253,2.5443267999999994,-0.61782837,0.10359192,-0.6512146
9.928497,-5.5498657,0.5308075,-0.54112244,-0.07963562,-0.41259766
8.71225,-5.078216599999999,-1.4060974,-0.48040770000000005,-0.24156189,-0.14308167
7.2326355,-4.247421299999999,-2.3613892000000005,-0.45057678,-0.26925659999999996,0.14559937
6.224670400000001,-3.246643,-2.5098267000000005,-0.39624023,-0.14035034,0.39807129999999996
6.002014,-2.6720428,-2.0573273000000003,-0.30996704,0.0045166016,0.50779724
6.0331269999999995,-2.8396301,-1.6503143,-0.29078674,0.19306946,0.54081726
5.5423279999999995,-3.5794373,-1.2433014,-0.36642456,0.46151733,0.63456726
4.9605255,-4.429382299999999,-0.7644501,-0.45057678,0.678833,0.76664734
4.768997,-5.0710296999999995,-0.33589172,-0.48573303,0.70866394,0.8241729999999999
5.2645874,-5.679153400000001,-0.21858215,-0.43460083,0.63516235,0.88383484
5.9924316,-6.189117400000001,-0.23294067,-0.26309204,0.56059265,0.98928833
6.7082977,-6.225036599999999,-0.074920654,0.054367065,0.26445007,0.8028717
7.8694916,-5.8754883,-0.048583984000000004,0.50816345,-0.43330383,0.22123718
9.076157,-5.839569,-0.54418945,0.9747466999999999,-1.3494263000000002,-0.26132202
9.677109,-6.2633514,-1.1977997,1.1526489,-2.0194855,-0.5627899000000001
10.141586,-6.59375,-1.3821564,0.88845825,-2.1185455,-0.8408356
11.171097,-7.000763,-1.3438568000000002,0.4921875,-1.6445006999999998,-1.1092833999999998
12.38974,-8.173919999999999,-1.0421905999999999,0.22480774,-0.82424927,-1.2978363000000002
12.557327,-8.305603,-0.52264404,0.055419922,0.03541565,-1.2829131999999999
12.681824,-6.720642,0.032806396,-0.07347107,0.6000061,-1.1167296999999998
14.151871,-7.228210400000001,0.38716125,-0.11288452,0.78430176,-0.9345703000000002
13.608382999999998,-8.288834,0.7654419,-0.0031585693,0.725708,-0.8749237
11.779221000000001,-7.9943542,0.55474854,0.27912903,0.49453735,-0.896225
10.584503,-7.6088867,-0.31434629999999997,0.6540984999999999,0.13768005,-0.8600005999999999
9.916534,-7.546631,-0.25927734,0.96195984,-0.22131348,-0.739624
9.1623535,-7.6591644,0.46855164,1.0844726999999998,-0.48762512,-0.5478821
7.5414734,-7.3263702,0.8061371,1.0173645,-0.6538086,-0.28050232
5.8104705999999995,-6.4093933,0.6983948,0.78512573,-0.6772461,0.019897461
4.7067413,-5.195526,0.7510680999999999,0.49963379999999996,-0.5611267,0.25106812
4.6397095,-4.343200700000001,1.0982361,0.31961059999999997,-0.35873413,0.35865784
4.8025208,-4.098984,1.5148315,0.24397278,-0.12544249999999998,0.44706726
4.455353,-4.2522125,1.6800232,0.18965149,0.021560668999999998,0.5738373000000001
4.1058044,-4.6424712999999995,1.347229,0.11721802,0.017303467,0.7378845
3.9382019999999995,-5.051880000000001,0.5332031,-0.015945435,-0.035964966,0.8912964
3.7706146,-5.276932,-0.23773193,-0.24497986,-0.015716553,0.9232483
4.0124207,-5.564239499999999,-0.929657,-0.49745178,0.20159912,0.904068
4.910248,-5.956878700000001,-1.202591,-0.7829437,0.54141235,0.9839629999999999
6.270157,-6.3950195,-0.82670593,-1.1515198,0.664978,0.9189911000000001
7.321213,-7.16835,-0.45799255,-1.5499268,0.7065276999999999,0.6260376
8.063416,-8.307999,-0.60165405,-1.6276855,0.8045349,0.47903442
8.621262,-9.153152,-0.97753906,-1.2452698,0.711853,0.5269623000000001
9.061798,-9.280045,-1.3773651000000002,-0.58906555,0.47323608,0.54400635
9.808792,-9.126816,-1.8753662,0.07778931,0.19520569,0.3799591
10.740128,-9.713394000000001,-2.0022583,0.39204407,0.14939879999999997,0.11683655
9.954834,-9.110046,-2.0190125,0.2684784,0.39440918,-0.02696228
9.212631,-6.9839934999999995,-2.1100006000000002,-0.03831482,0.69374084,-0.025909424
10.630005,-7.711838,-2.0884552,-0.3302002,0.87590027,-0.006729125999999999
10.618027,-8.9640045,-0.7189635999999999,-0.5315399000000001,0.9036101999999999,-0.04827881
9.320374000000001,-8.178711,1.2897644,-0.64019775,0.727829,-0.16331482
8.982788000000001,-7.16835,2.3336487,-0.71902466,0.45832825,-0.23788452
9.291641,-6.0502625,2.3623657000000002,-0.74990845,0.24847412,-0.2006073
9.303619,-5.4780426,0.96655273,-0.6593628,0.062042235999999994,-0.08129883
8.049057000000001,-4.9608917,-0.9871216,-0.4559021,-0.12437439,0.06037903
6.5933684999999995,-4.1684113,-1.9519806,-0.25137329999999997,-0.21917725,0.15838623
5.899063,-3.3927002,-2.1243591,-0.10223389,-0.15953064,0.18182373
5.796112,-2.9066772000000003,-1.8993073,-0.006362915,0.024765015,0.15092468
5.9565125,-2.695984,-1.4803162,0.054367065,0.2239685,0.16371155
5.9684906,-3.0120240000000003,-1.166687,0.09378052,0.36564636,0.23509216
5.942154,-3.854782,-0.61361694,0.09803772,0.40826416,0.32243347
6.116928,-4.7502135999999995,0.16448975,0.008560181,0.32409668,0.40020752
6.540710400000001,-5.332000700000001,0.8133239999999999,-0.086257935,0.31877136,0.45666504
7.230239999999999,-5.631271400000001,1.0120392,-0.0074310303000000005,0.48069763,0.5812988
7.9532776,-5.569031,0.8707886,0.26315308,0.39227295,0.57276917
8.671539,-5.597763,0.5667267,0.6349335,-0.14781189,0.19993591
9.004333500000001,-6.047867,0.19082642,0.9949950999999999,-0.9254608,-0.1579895
9.487961,-6.799652,-0.15872192,1.0269469999999998,-1.5880432,-0.36785890000000004
9.993149,-7.2832794000000005,-0.5417938,0.7158966,-1.8117523000000002,-0.60754395
10.440857000000001,-7.616073599999999,-1.0469666,0.421875,-1.5411834999999998,-0.8695984
11.479935000000001,-8.717407000000001,-1.0421905999999999,0.25357056,-0.896698,-1.0485535
11.621201,-9.071747,-0.26167297,0.1161499,-0.11158752400000001,-0.99316406
10.914916999999999,-7.1468050000000005,0.43025208,-0.01914978,0.40826416,-0.8046112
12.4496,-7.5634003,0.5715026999999999,0.009613037,0.5019989,-0.67251587
12.88295,-9.136383,0.51405334,0.23120117,0.31983948,-0.63949585
11.218979,-8.774857,-0.11323547,0.55822754,-0.025299072000000002,-0.59794617
9.92131,-7.711838,-0.8458556999999999,0.84265137,-0.41625977,-0.48716736
9.243758999999999,-7.2377777000000005,-0.16590881,0.9374695,-0.674057,-0.322052
8.532684,-7.3407288,0.6864319000000001,0.82987976,-0.7528838999999999,-0.1537323
6.7466125,-6.8379517000000005,0.9282379000000001,0.6253357,-0.7262573,-0.046142578
5.061081,-5.8970337,0.6888274999999999,0.43998718,-0.6559448,-0.016311646000000003
4.484084999999999,-4.869919,0.99528503,0.32493590000000006,-0.5717926,-0.005661010699999999
4.575058,-4.2641907,1.4693298000000001,0.25357056,-0.49508667,0.042266846
4.455353,-4.2402496,1.644104,0.18218994,-0.4269104,0.15412903
4.156082,-4.429382299999999,1.3639832,0.075668335,-0.371521,0.26490784
4.065094,-4.6759949999999995,0.6289673000000001,-0.07028198,-0.26179504,0.36505127
4.3356476,-4.941742,-0.15393066,-0.21940613,-0.05619812,0.47477722
4.991653400000001,-5.2122955,-0.5274353,-0.36109924,0.20904541,0.5344238
5.918213,-5.6863402999999995,-0.46278379999999997,-0.5624237,0.6042633000000001,0.66226196
6.7873077,-6.471634,-0.12998962,-0.79785156,0.8514099,0.73683167
7.4337463,-7.5538177,-0.027038574,-0.9533844000000001,0.8290405000000001,0.5472107
7.9485016,-8.703033,-0.11802673,-0.87242126,0.7438201999999999,0.30966187
8.568588,-9.55777,-0.34307859999999996,-0.45057678,0.47323608,0.3245697
9.001938,-9.924072,-0.6160126,0.1161499,0.050323485999999994,0.4960785
9.04744,-9.830703999999999,-0.6758728,0.5475769,-0.28630066,0.53656006
9.763306,-10.208984,-0.7381134,0.5955199999999999,-0.2969513,0.37677002
9.626831,-10.378983,-0.9895171999999999,0.2769928,0.07589722,0.20100403
8.10173,-7.5921326,-1.1762542999999999,-0.15122986,0.5701752,0.10832214
8.496765,-6.0981445,-0.91767883,-0.42607117,0.92277527,0.08062744
9.550217,-7.527481,-0.2137909,-0.5027771,1.0740508999999998,0.077423096
8.420150999999999,-7.704650999999999,1.0144348,-0.46975708,1.0506133999999998,0.02949524
7.3834686000000005,-7.309616,1.5698853000000002,-0.44204712,0.8460846,-0.019515991
7.728225699999999,-6.876266499999999,1.0958405,-0.41542053,0.53822327,0.006057739300000001
8.539856,-6.605713000000001,-0.3622284,-0.3312683,0.20266724,0.06997681
8.185516,-6.186737,-1.8562164,-0.22793579,-0.07963562,0.16371155
7.165588400000001,-5.4852295,-2.4547577,-0.15443420000000002,-0.230896,0.26385498
6.3036804,-4.6759949999999995,-2.0022583,-0.12246704,-0.2032013,0.30433655
5.753006,-4.0104065,-1.2911834999999998,-0.13418579,0.0023956299,0.34587097
5.650055,-3.5794373,-0.8602295,-0.17254639,0.30493164,0.43215942
5.5973816,-3.5052185,-0.88656616,-0.18959045,0.56484985,0.519516
5.5327454000000005,-3.8882904000000003,-0.91290283,-0.17999268,0.6277008000000001,0.54507446
5.7266693,-4.3815002,-0.5322113,-0.13845825,0.47644043,0.5109863
5.930176,-4.8579407,-0.12519836,-0.07772827,0.35818479999999997,0.48754883
6.3563538,-5.2913055,0.035202026000000004,0.06607056,0.49028015,0.5248413000000001
7.175171000000001,-5.6623993,0.116607666,0.29724120000000004,0.5435485999999999,0.37463379999999996
7.929336500000001,-6.112503,0.097457886,0.6210785,0.08973694,-0.14627075
8.446487,-6.6703644,-0.005493164,0.9928589,-0.84129333,-0.62138367
9.215027000000001,-7.328766000000001,-0.048583984000000004,1.1803436,-1.7521057,-0.83869934
10.165527,-7.7549285999999995,-0.20420837,1.0184174000000001,-2.252777,-0.9569397
11.108841,-8.193069,-0.19703674,0.7606354000000001,-2.235733,-1.0613403000000001
12.159897,-9.2561035,-0.031829834,0.5571594,-1.7489013999999998,-1.1465607
12.485503999999999,-9.773239,0.38955688,0.3153534,-0.94888306,-1.0730591
12.030609,-7.8578796,0.6576996,-0.025527954,-0.08177185,-0.8727875
12.859009,-7.5921326,0.521225,-0.24816895,0.45832825,-0.81632996
12.890121,-9.251311999999999,0.41349792,-0.20556639999999998,0.56591797,-0.8845062
11.151932,-9.665512,0.19322205,0.058624268,0.41145325,-0.90901184
9.229385,-8.863449000000001,-0.50109863,0.41548157,0.081222534,-0.8088684
8.223831,-8.224197,-0.23773193,0.7158966,-0.324646,-0.61180115
7.847931,-8.111664,0.41349792,0.83625793,-0.6495514,-0.3859558
6.729842999999999,-7.541855,0.55474854,0.78193665,-0.86473083,-0.18888855
5.3124847,-6.318405,0.21955872,0.6349335,-0.929718,-0.072769165
5.144882,-5.145248400000001,0.39433290000000004,0.47833252,-0.8285216999999999,-0.033355712999999995
5.2095337,-4.4653015,1.1245728000000002,0.34091187,-0.63783264,0.012451172
4.8408203,-4.3671417,1.7039642,0.20137024,-0.42372129999999997,0.13708496
4.232696499999999,-4.5754395,1.8260651,0.085250854,-0.230896,0.31178284
3.8208922999999997,-4.9273834,1.4645386,-0.0052948,-0.08602905,0.48968506
3.7490692,-5.142853,0.70318604,-0.13313293,0.03541565,0.66651917
3.9980621,-5.250595,0.016052246000000003,-0.29930115,0.20266724,0.79222107
4.711532599999999,-5.4612885,-0.25927734,-0.48146057,0.46897888,0.86146545
5.626114,-5.8802642999999994,-0.19224548,-0.77441406,0.84820557,0.96691895
6.337204,-6.648803699999999,-0.074920654,-1.1504517,1.1155853,0.9221802
6.8639220000000005,-7.9440764999999995,-0.13478088,-1.3837433000000001,1.1837616000000002,0.63882446
7.462478599999999,-9.1770935,-0.15872192,-1.2133026000000002,1.2050781000000002,0.42469788
8.132843,-10.017456,-0.17070007,-0.68600464,0.9898986999999999,0.51631165
8.403397,-10.103638,-0.46517944,-0.06707764,0.55952454,0.72618103
8.839141999999999,-10.046188,-0.7764281999999999,0.38671875,0.116378784,0.7378845
9.904556,-10.790787,-0.9440155000000001,0.46661377,0.0055847169999999995,0.57276917
9.428116000000001,-10.108429,-1.3079376,0.19497679999999998,0.29533386,0.3842163
8.341141,-7.3718566999999995,-1.5832671999999999,-0.19171143,0.69374084,0.25746155
8.915756,-6.8020325,-1.0900726,-0.4793396,0.9621886999999999,0.14347839999999998
9.495148,-8.228989,0.34165955,-0.6497803000000001,1.0122681,-0.013122558999999999
7.9963837,-8.128433,1.639328,-0.771225,0.8695221,-0.18356323
7.122497599999999,-7.4652405,1.8356476000000002,-0.8085022,0.6245116999999999,-0.26132202
7.835967999999999,-6.811615,1.0192261,-0.74990845,0.39866638,-0.21339417
8.503952,-6.1651764,-0.39335632,-0.6561737,0.19413757,-0.12710571
8.250167999999999,-5.518753,-1.8538207999999998,-0.51982117,-0.033828735,-0.03868103
7.428955,-4.6376800000000005,-2.423645,-0.34617615,-0.2266388,0.08595276
6.8615265,-3.873932,-2.162674,-0.15975952,-0.26393127,0.23188782
6.715484599999999,-3.4070587,-1.6981964,-0.0052948,-0.1531372,0.34480286
6.598160000000001,-3.4022675000000002,-1.4420166,0.06820679,0.031158447000000002,0.38528442
6.2581940000000005,-3.7949219,-0.9895171999999999,0.014938354499999999,0.23355103,0.38742065
5.963699299999999,-4.4724884000000005,-0.31434629999999997,-0.109695435,0.3539276,0.39060974
6.0403137000000005,-5.159622,0.08547974,-0.23751831,0.32302856,0.40126038
6.3515625,-5.7102814,0.38476562,-0.30889893,0.36457825,0.43962097
6.590988,-6.1340637000000005,0.6385498000000001,-0.20556639999999998,0.56803894,0.5717163000000001
6.9405365,-6.3231964000000005,0.85401917,0.12998962,0.46472168,0.519516
7.5343018,-6.433334400000001,0.76304626,0.54011536,-0.12223816,0.061447144
8.496765,-6.732605,0.39433290000000004,0.8586273000000001,-0.83703613,-0.41152954
9.277283,-7.211441000000001,-0.26167297,0.87461853,-1.3622131000000002,-0.6512146
9.854279,-7.8506927,-0.7381134,0.60510254,-1.5731354,-0.83444214
10.419312,-8.497131,-0.8243103,0.38778687,-1.4602203,-1.00914
11.489517,-9.897736,-0.43405150000000003,0.32919312,-1.1012268,-1.13591
11.056168,-9.572128,0.3464508,0.33239746,-0.64208984,-1.1444244
10.321152,-7.144409,1.129364,0.32279968,-0.24688720000000003,-1.0453644
11.982727,-7.1252594,1.1963959,0.35050964,-0.09881592,-0.9803772
12.820694,-8.784439,0.7079773,0.49751282,-0.14674377,-0.96865845
11.2213745,-8.892180999999999,-0.055770874000000005,0.6786041,-0.29801940000000005,-0.9569397
9.770477,-8.169128,-0.70700073,0.7968445,-0.45248413,-0.89941406
9.085739,-7.8171843999999995,-0.048583984000000004,0.7957916,-0.5749816999999999,-0.7992859
8.594925,-7.809997599999999,0.91867065,0.70417786,-0.6783142,-0.65867615
7.4505005,-7.2880554,1.3280792,0.58166504,-0.76885986,-0.4701233
6.0355225,-6.3160095,1.2370911,0.49005127,-0.8444976999999999,-0.27410890000000004
5.286148000000001,-5.2960815000000006,1.0934448,0.46022034,-0.85194397,-0.11752319
5.0778503,-4.7023315000000006,1.3089294,0.42720032,-0.7752533,-0.008865356
4.927017,-4.594589,1.2370911,0.3387909,-0.64315796,0.089141846
4.721115,-4.805282599999999,0.8348694,0.22799683,-0.48336792,0.23721313
4.5726624000000005,-5.106949,0.30336,0.14064026,-0.32250977,0.43109129999999996
4.551117,-5.518753,-0.08929443,0.0415802,-0.16166687,0.56318665
4.5846405,-5.968857,-0.24491882,-0.15550232,0.07482910000000001,0.5695800999999999
4.8719482,-6.375869799999999,-0.1563263,-0.48892212,0.5723114,0.6026001
5.504013,-6.7972565000000005,0.13815308,-0.8692169,1.0761718999999998,0.70913696
6.2126923,-7.2760925,0.23631287,-1.1898651000000002,1.2988129,0.64308167
6.9357452,-8.140396,-0.007888794000000001,-1.3539124,1.3648681999999999,0.5418854000000001
7.522323599999999,-9.30159,-0.22337341,-1.1834717,1.1976166000000001,0.7016754
7.9652557,-10.091675,-0.26167297,-0.6295470999999999,0.6404877,0.92111206
8.274109,-9.919296000000001,-0.41011047,0.07460022,0.06311035,1.0297699
9.073775999999999,-10.036605999999999,-0.85783386,0.50283813,-0.15100098,0.9328308000000001
9.222214,-10.570511,-1.4252625,0.47193909999999994,0.08973694,0.6963501
7.3236084,-8.607269,-1.6981964,0.13105774,0.61065674,0.54081726
6.816039999999999,-6.8690796,-1.5377808000000002,-0.27053833,1.0921631,0.4960785
7.8335724,-8.051819,-1.0780945,-0.52407837,1.3403625,0.425766
7.304458599999999,-9.066956,-0.024642944,-0.64019775,1.3190613000000002,0.30538940000000003
6.9716644,-8.619232,1.3376465,-0.6412505999999999,1.0452880999999998,0.17756653
7.4864197,-7.704650999999999,2.0774689,-0.5720215,0.58935547,0.089141846
8.197494500000001,-6.811615,1.2466736,-0.487854,0.15258789,0.079559326
8.463242,-6.1101227,-0.577713,-0.38986206,-0.13716125,0.14454651
7.64682,-5.375091599999999,-1.9543761999999998,-0.29611206,-0.3203888,0.21377563
6.655624400000001,-4.625717,-2.40448,-0.1309967,-0.37896729999999995,0.32882690000000003
6.3132477,-3.8380127,-1.949585,0.06820679,-0.29269409999999996,0.43536377
6.339584400000001,-3.4860687000000006,-1.5210266000000001,0.16300964,-0.08282471,0.44813538
6.4233856,-3.5291595,-1.0900726,0.12998962,0.16644287,0.3948822
6.5598600000000005,-3.938568,-0.7189635999999999,0.013885498000000001,0.34007263,0.33096313
6.669983,-4.747818,-0.44842529999999997,-0.1309967,0.35499573,0.23721313
6.847167999999999,-5.7102814,-0.084503174,-0.2598877,0.28788757,0.09234619
7.132064999999999,-6.35672,0.1477356,-0.29824829999999997,0.40931702,0.053985596
7.1895294000000005,-6.5410767,0.55714417,-0.16401672,0.53715515,0.114715576
7.472046000000001,-6.5386809999999995,0.8444519,0.11721802,0.247406,-0.003540039
8.314803999999999,-6.713455000000001,0.44700623,0.5145569000000001,-0.38110352,-0.22937012
9.270096,-7.199478,-0.23054504,0.87994385,-1.1342468,-0.3263092
9.880614999999999,-7.738174400000001,-0.82910156,0.9374695,-1.7425078999999999,-0.4328308
10.452835,-8.243347,-1.0541534,0.7893982,-1.8873901000000002,-0.6703949
11.393753,-9.093292,-0.9081116,0.6264038000000001,-1.5742035,-0.91007996
11.724152,-10.194626,-0.30715942,0.49111938,-0.9893646,-1.022995
10.146378,-8.681488,0.42546082,0.3473053,-0.4077301,-0.99209595
9.983566,-7.467621,0.8300780999999999,0.22267151,-0.10626221,-0.9345703000000002
11.087296,-8.782043,0.9354248,0.22799683,-0.092422485,-0.96546936
10.383392,-9.210602,0.8229065000000001,0.38139343,-0.20533752,-1.0464325
9.258118,-8.176314999999999,0.080703735,0.5742035,-0.36192322,-1.0240631
8.920547500000001,-7.1922913,-0.12042236,0.70417786,-0.5249176,-0.92285156
8.685913000000001,-7.007934599999999,0.28181458,0.7137604000000001,-0.674057,-0.76626587
7.9485016,-7.0270996,0.60502625,0.6477050999999999,-0.81147766,-0.58836365
6.693939,-6.471634,0.51882935,0.57315063,-0.9275818000000001,-0.46372986
5.7793427,-5.5881805,0.37278748,0.5230713,-0.9712677,-0.40834045
5.6285095,-4.8842773,0.64811707,0.45809937,-0.896698,-0.357193
5.733855999999999,-4.7621765,1.110199,0.3622284,-0.7464905,-0.23683167
5.25502,-5.0901794,1.1437225,0.2684784,-0.5994873000000001,-0.049331665
4.941375700000001,-5.5498657,0.78219604,0.17153929999999998,-0.47164917,0.12322998
4.6995697,-5.80365,0.26026917,0.026657103999999997,-0.30867004,0.203125
4.6851959999999995,-6.011947599999999,-0.09169006,-0.17359924,-0.031692505,0.19354248
5.065872,-6.177154499999999,-0.11802673,-0.4601593,0.50520325,0.28515625
5.7027282999999995,-6.4572754,0.073516846,-0.84898376,1.1209258999999998,0.49501038
6.246216,-7.175536999999999,0.13815308,-1.1600342,1.4724579,0.49182129999999996
6.667602499999999,-8.3510895,-0.005493164,-1.2623138,1.5384978999999999,0.40872192
7.167984,-9.713394000000001,-0.1443634,-1.0332794,1.2817688,0.58555603
7.764145,-10.525024,-0.29759216,-0.45376587,0.6490021,0.87957764
8.187911999999999,-10.395736999999999,-0.57292175,0.20881653,0.07482910000000001,1.0851746000000002
8.776886,-10.522629,-0.8243103,0.5390625,-0.14355469,1.1011505
8.884628,-11.422852,-1.1164093000000002,0.47726440000000003,0.018371582,0.9988860999999999
6.820831299999999,-9.694229,-1.5665131,0.19923401,0.4008026,0.9019469999999999
6.1217194,-7.438903999999999,-1.3773651000000002,-0.16189575,0.8130646,0.82844543
6.942932000000001,-8.0542145,-0.8147278,-0.48466492,1.124115,0.7006073
6.397049,-9.062164,0.095062256,-0.69558716,1.2562103,0.5141907
5.891876,-8.638397,1.1485138000000001,-0.7797394,1.155014,0.33735657
6.543091,-8.080536,1.6034088,-0.74246216,0.84394836,0.21910095
7.445709,-7.529876700000001,0.45419312,-0.5997161999999999,0.49241638,0.18395996
7.7832947,-6.804428,-1.0804901000000002,-0.41542053,0.18774414,0.21910095
7.345153999999999,-5.7868958,-2.004654,-0.26202393,-0.033828735,0.28515625
6.820831299999999,-4.790909,-2.392517,-0.16722107,-0.14141846,0.36717224
6.6963196,-4.0223694,-2.3159027,-0.10862732,-0.12863159,0.45666504
6.725052000000001,-3.5148010000000003,-1.8969116000000001,-0.04045105,-0.0061340330000000005,0.49714659999999994
6.672378500000001,-3.4573364,-1.3725891000000001,0.026657103999999997,0.16323853,0.47157288
6.669983,-3.9242095999999997,-0.8099518,0.038375854,0.2782898,0.40872192
6.732239,-4.644867,-0.21858215,-0.022338867000000002,0.26763916,0.30326843
6.799270599999999,-5.3463593000000005,0.1477356,-0.10862732,0.17283629999999997,0.15838623
6.9405365,-5.9233704000000005,0.16448975,-0.13313293,0.24313354,0.10618591
7.134460400000001,-6.1843414,0.104644775,-0.0010375977,0.40505979999999997,0.15625
7.464859,-6.3782654,0.042388916,0.23013306,0.19413757,-0.03868103
8.326782000000001,-6.852310000000001,0.104644775,0.48046875,-0.30760193,-0.45840454
9.260513000000001,-7.369461,0.107040405,0.6690216,-0.83703613,-0.7279053000000001
9.92131,-7.7309875,-0.23773193,0.55503845,-1.2908325,-0.8919678
10.515075999999999,-8.09491,-0.6686859,0.26208496,-1.4857788,-1.0943604
11.453598,-9.110046,-0.78601074,0.09590149,-1.3835144,-1.2999573
12.131165,-10.608825999999999,-0.40293884,0.0884552,-1.0298462,-1.4554901000000002
10.747314,-9.124419999999999,0.26264954,0.15663147,-0.5739135999999999,-1.4767914
10.163132000000001,-6.6200867,0.48292542,0.27487183,-0.20426941,-1.3947753999999999
11.453598,-7.3742523,0.3129425,0.421875,-0.059387207000000004,-1.3340454
11.338683999999999,-8.779648,0.15252686,0.5944519,-0.07963562,-1.3202056999999998
10.251709,-8.703033,-0.63038635,0.7787323,-0.17337036,-1.3127441
9.552612,-8.090117999999999,-0.7764281999999999,0.9374695,-0.28948975,-1.247757
9.198273,-7.874649000000001,0.30815125,1.0003203999999999,-0.42051697,-1.089035
8.736191,-7.977585,1.3448334,0.93640137,-0.59095764,-0.8461609
7.484024000000001,-7.5370636,1.8093109,0.7936554,-0.7752533,-0.57025146
6.0714417,-6.581772,1.9170532,0.65304565,-0.9094696,-0.39234924
5.310089,-5.6432495000000005,1.8069153000000002,0.56248474,-0.93930054,-0.32310486
5.0299683,-5.221863,1.6512909,0.44317627,-0.8274536,-0.20912170000000002
4.922226,-5.245804,1.3975066999999999,0.23864746,-0.5536804,0.012451172
4.6804046999999995,-5.506775,1.0790863000000002,0.019210815,-0.2266388,0.296875
4.2853699999999995,-5.8371735000000005,0.5499573,-0.15229797,0.08547974,0.63456726
3.9094696000000004,-6.0933532999999995,-0.036621094,-0.27693176,0.34646606,0.8870239
3.847229,-6.270523000000001,-0.39575195,-0.36428833,0.58296204,1.0159302
4.4649353,-6.478821,-0.42687988,-0.55070496,0.9238434000000001,1.2193909
5.417816,-6.9456940000000005,-0.16111755,-0.8820038,1.2764434999999998,1.4015503
5.832016,-7.7309875,-0.13238525,-1.2729645,1.5171967,1.3067474
6.013977,-8.865845,-0.42926025,-1.5701752,1.6428986,1.0212555
6.4161987,-9.840286,-0.5609436,-1.5009308000000001,1.6077423,0.98184204
6.650833,-10.323914,-0.47476196,-1.04393,1.2444916000000001,1.220459
7.045883,-10.074921,-0.44602966,-0.41223145,0.6958771,1.4260559
8.326782000000001,-10.635162,-0.43884277,0.08950806,0.25698853,1.4505463
8.391418,-11.078078999999999,-0.85543823,0.23545837,0.25805664,1.3642731000000001
7.1584015,-9.066956,-1.4276427999999999,0.07246399,0.549942,1.2801056
7.347549400000001,-7.5370636,-1.5353851,-0.19171143,0.8269042999999999,1.1959534
8.714644999999999,-8.377426,-1.3031464,-0.44204712,1.0005493,1.0319061
8.180725,-9.196242999999999,-0.041412354,-0.62101746,0.9717865,0.7847595
6.7873077,-8.889786,1.3328705,-0.69984436,0.7235718000000001,0.5269623000000001
6.8854675,-8.336716000000001,1.9601439999999999,-0.7126312,0.3251648,0.296875
7.7473755,-7.7190247,1.5435486,-0.69558716,-0.018920898000000002,0.17436218
8.152008,-6.914566000000001,0.18603516,-0.6646880999999999,-0.20640564,0.13601685
7.802444500000001,-5.966461,-1.0924683000000002,-0.5986481,-0.27137756,0.09660339
7.2852936,-4.7933044,-1.5880584999999998,-0.45164490000000007,-0.22770691,0.08381653
7.191925,-3.8332367,-1.6143951,-0.23326111,-0.1296997,0.09339905
7.3116302,-3.3184814,-1.4108886999999999,-0.02659607,-0.02104187,0.04121399
7.357132000000001,-3.2155304,-1.0182343,0.07885742,0.10359192,-0.044006348
7.524719,-3.6105652000000004,-0.64234924,0.058624268,0.21118164,-0.08769226
7.558242999999999,-4.4964294,-0.26646423,0.005355835,0.21118164,-0.11752319
7.5941467000000005,-5.4804379999999995,0.13575745,0.0042877196999999995,0.095062256,-0.18675232
7.929336500000001,-6.189117400000001,0.5236206,0.13426208,0.08654785,-0.22511292
8.163971,-6.679931599999999,1.026413,0.47726440000000003,0.020507812,-0.31140137
8.068207000000001,-6.605713000000001,1.4070892,0.8959198,-0.38536072,-0.626709
8.563797000000001,-6.732605,1.347229,1.1899261,-0.8253174000000001,-0.9196625
9.368256,-7.4484710000000005,0.80374146,1.2591705,-1.2460938,-1.0815735
9.765686,-8.171524,0.051971435999999996,1.0045776,-1.6050872999999999,-1.2509613000000002
10.155945,-8.801193,-0.19703674,0.65730286,-1.7148131999999998,-1.468277
11.168700999999999,-9.931258999999999,-0.06535339,0.46022034,-1.5262604,-1.6898499
11.788788,-10.7859955,0.4158782999999999,0.35688782,-1.0628662,-1.8389893
10.740128,-8.896973,1.158081,0.27166748,-0.53982544,-1.8421783
10.876602,-7.821975699999999,1.2107544,0.25143433,-0.19575499999999998,-1.7164764
11.479935000000001,-9.517059,0.40391540000000004,0.33132935,-0.10626221,-1.5300598
10.665909,-9.847458,-0.35743713,0.52201843,-0.19041443,-1.3905028999999998
9.499939,-8.715012,-1.3175201,0.7798004,-0.39601135,-1.280777
8.877441000000001,-7.853088400000001,-1.1786499,0.97688293,-0.6250458000000001,-1.1295166
8.621262,-7.515517999999999,0.0016937256,1.0226898000000002,-0.8018799,-0.9239197
7.9437103,-7.4604490000000006,0.6960144,0.93533325,-0.94462585,-0.6927643
6.6005554,-7.0390625,0.83966064,0.77767944,-1.0319824,-0.48928833
5.2095337,-6.325591999999999,0.9354248,0.62960815,-1.0351715,-0.36679077
4.280578599999999,-5.602539,1.1485138000000001,0.4964447,-0.95422363,-0.26345825
4.239868,-5.456497,1.3927155,0.34518433,-0.79548645,-0.05999756
4.417053,-5.724655,1.4669341999999999,0.23971558,-0.5813751,0.22444153
4.2279053,-5.9856110000000005,1.1078033,0.16621399,-0.30334473,0.5333557
3.9429932,-6.1220856,0.42785645,0.034118652,-0.010391235,0.7549286000000001
3.8831330000000004,-6.234619,-0.16590881,-0.22793579,0.30386353,0.86253357
4.201568599999999,-6.4452972,-0.43165588,-0.61250305,0.7949524,1.030838
4.991653400000001,-6.8858337,-0.4053192,-0.97468567,1.2626038,1.1607971000000001
5.7793427,-7.6902924,-0.31913757,-1.2910614,1.5651398,1.0659943
6.112137000000001,-8.923309,-0.39575195,-1.5094452,1.7398376,0.9253844999999999
6.5095825,-10.03421,-0.32392883,-1.3997191999999998,1.5811157,1.0478821
6.830398599999999,-10.558548,-0.26885986,-0.9203644,1.0847015,1.3035431
7.2685394,-10.431656,-0.54418945,-0.35896300000000003,0.6287689000000001,1.5048828
8.465637,-11.178635,-1.0302124,-0.0990448,0.4785614,1.5751953
8.288467,-11.415664999999999,-1.49469,-0.13632202,0.6415558000000001,1.5570831
6.808853,-9.0190735,-1.4037018,-0.3035736,0.9515380999999999,1.5389709999999999
6.792099,-7.7070465,-1.1834412,-0.48040770000000005,1.2189178,1.5240631000000002
7.601333599999999,-8.693466,-0.98472595,-0.628479,1.3744507,1.4388428
6.7274475,-9.24173,-0.053375244,-0.71795654,1.3776398,1.2162018
6.1983337,-9.088500999999999,1.1963959,-0.74458313,1.1688538,0.8955536000000001
6.5502777000000005,-8.427703999999999,1.6943816999999999,-0.79571533,0.81518555,0.6356201
7.105728,-7.7573240000000006,0.6194,-0.82554626,0.48176575,0.5259094
7.333191,-7.019912700000001,-0.49870299999999995,-0.77227783,0.2239685,0.5099182
7.029114,-5.976043700000001,-1.0373993000000001,-0.67108154,0.07376099,0.51631165
6.748993,-5.078216599999999,-1.1235808999999999,-0.5048981,0.06629944,0.53549194
6.816039999999999,-4.2115173,-1.0445709,-0.27374268,0.08441162,0.53230286
7.314025999999999,-3.672821,-0.8889618,-0.031921387,0.053527832000000004,0.47370909999999994
7.8096312999999995,-3.4932556000000003,-0.6950225999999999,0.14170837,0.010910033999999999,0.38635254
7.845550500000001,-3.8523864999999997,-0.86979675,0.18965149,-0.039154053,0.26704407
7.7234343999999995,-4.843582,-0.7189635999999999,0.15556335,-0.12757874,0.06037903
7.7306213,-5.6863402999999995,-0.14675903,0.094833374,-0.15100098,-0.19314575
7.9365234,-6.239395,0.26264954,0.07034302,0.10359192,-0.31777954
8.147217,-6.4979705999999995,0.70558167,0.18432617,0.29747009999999996,-0.46691895
8.547042999999999,-6.696700999999999,1.0168304,0.421875,-0.027435302999999998,-0.84935
9.255722,-7.1180725,0.98809814,0.68499756,-0.6026764,-1.1795806999999998
9.964416499999999,-7.6112823,0.5595398,0.8490448,-1.1193389999999999,-1.325531
10.419312,-7.8937990000000005,-0.048583984000000004,0.7531738,-1.4889832,-1.4842528999999998
11.309952000000001,-8.437286,-0.37898254,0.55822754,-1.614685,-1.7005005000000002
12.700989,-9.962387,-0.37420654,0.44744873,-1.5411834999999998,-1.9092865
12.6961975,-10.790787,-0.053375244,0.46022034,-1.2887115,-2.0254060000000003
11.092087,-8.446854,0.41110230000000003,0.5230713,-0.9094696,-1.9732056
11.027435,-7.278488,0.5619354,0.5198822,-0.54196167,-1.8112793000000003
11.156723,-8.521072,0.41349792,0.5209503,-0.3565979,-1.6834563999999999
10.2565,-9.179489,0.27941895,0.62960815,-0.31611633,-1.6099548000000001
9.420929,-8.549805000000001,-0.24491882,0.7989807,-0.36299133,-1.550293
8.937302,-7.900970500000001,-0.060562134000000004,0.9790039,-0.4737854,-1.4522858
8.626053,-7.896194500000001,0.66967773,1.0887299,-0.5973510999999999,-1.2605438
8.032288000000001,-8.0542145,1.3975066999999999,1.0972594999999998,-0.7283783,-1.0016785
6.875885,-7.7238007,1.747055,1.0365295,-0.8636627,-0.7715911999999999
5.633301,-7.046249400000001,1.4382172,0.93533325,-0.9563446,-0.6309661999999999
4.9820709999999995,-6.2513733,1.2155457,0.80537415,-0.94355774,-0.5223236
4.831238,-5.8850555,1.4837036,0.6232147,-0.8072052,-0.34014893
4.7929379999999995,-6.028716999999999,1.5435486,0.4026947,-0.580307,-0.037628174
4.630127,-6.342346,1.3639832,0.16728210000000002,-0.26712036,0.38528442
4.1225586000000005,-6.51474,0.9785155999999999,-0.036193848,0.10145569,0.84228516
3.7394867,-6.6296539999999995,0.44940186,-0.12567139,0.39334106,1.0990143
3.7849730999999998,-6.6320496,0.102249146,-0.19917297,0.66285706,1.2577361999999999
4.340439,-6.9002075,-0.14675903,-0.42607117,1.0090636999999998,1.4889069
4.943771400000001,-7.594513,-0.31674194,-0.7626953000000001,1.2572784,1.5996857
5.1808014,-8.497131,-0.53460693,-1.1525878999999999,1.3605957,1.4526825
5.314865,-9.562561,-0.71417236,-1.3475342,1.4138641,1.3365631000000002
5.5303497,-10.501083,-0.80036926,-1.1142426,1.1613921999999999,1.4143371999999999
5.654846,-10.637558,-0.74290466,-0.5869293000000001,0.83436584,1.5517578
6.7466125,-10.328705000000001,-0.44842529999999997,-0.0756073,0.61279297,1.5773163000000001
8.190308,-11.147522,-0.50349426,0.18112183,0.6042633000000001,1.4814453
7.572601299999999,-10.479538,-1.2361145,0.14810179999999998,0.8727111999999999,1.34935
6.679565400000001,-8.15477,-1.6191864,-0.11076355,1.2167968999999998,1.2822418
7.74498,-8.032653999999999,-1.7772063999999999,-0.44204712,1.4713898,1.1831665
8.894211,-9.768448,-1.0948486000000002,-0.72114563,1.5928345,0.9882354999999999
8.173553,-9.639175,0.5236206,-0.8788147,1.5033417,0.7272339
7.8694916,-8.916122,1.7087555,-0.8745575000000001,1.1432953000000001,0.44387817
8.365082000000001,-8.224197,1.6776276,-0.8106384,0.61279297,0.21272278
8.719421,-7.4939575,0.6529083000000001,-0.77334595,0.13981628,0.14027405
8.45607,-6.5889587,-0.5681305,-0.75523376,-0.14887999999999998,0.16584778
7.531905999999999,-5.5019836,-1.5114441,-0.72221375,-0.23516846,0.22763062
7.091369599999999,-4.4413605,-1.894516,-0.61143494,-0.18936157,0.32775879999999996
7.167984,-3.7326660000000005,-1.7580566000000002,-0.40690613,-0.11265564,0.40660095
7.287689,-3.4693146,-1.3223114,-0.16508484,-0.060455322,0.4076538
7.3858643,-3.4980469,-0.69981384,0.040512085,-0.029571532999999997,0.34907532
7.402618400000001,-3.921814,-0.39335632,0.11401367,-0.008255005,0.24360657
7.1296843999999995,-4.881897,-0.285614,0.042648315,-0.022109985,0.06997681
6.9716644,-5.753372,-0.06535339,-0.07347107,0.03541565,-0.13456726
7.270935000000001,-6.521911599999999,0.26264954,-0.07133484,0.3027954,-0.23788452
7.5654144,-7.0749816999999995,0.7295227,0.18858337,0.3486023,-0.39767456
7.845550500000001,-7.122864,1.2227325,0.550766,-0.12544249999999998,-0.7790375
8.640411,-7.393402,1.3663788000000001,0.83625793,-0.73583984,-1.0485535
9.655563,-8.020691000000001,1.0958405,0.9151001,-1.2578125,-1.1316528000000001
10.304382,-8.300811999999999,0.39193726,0.6860656999999999,-1.6178741,-1.2605438
11.099258,-8.722183,-0.2640686,0.42720032,-1.7158813000000002,-1.4949036
12.272414999999999,-10.003082000000001,-0.38856506,0.30895996,-1.550766,-1.739914
12.052155,-10.21138,0.059143065999999994,0.28659058,-1.1661986999999998,-1.8773346000000002
10.723372999999999,-7.9847717000000005,0.87557983,0.2769928,-0.73690796,-1.8837279999999998
11.068146,-7.467621,0.9042969000000001,0.2684784,-0.41093445,-1.7889099
11.269257000000001,-9.30159,0.3464508,0.29937744,-0.26605225,-1.6802521000000001
10.239746,-9.567337,-0.13957214,0.4495697,-0.25965879999999997,-1.6291198999999998
9.231781,-8.442062,-0.9440155000000001,0.6711425999999999,-0.35766602,-1.5726624
8.999542,-7.692688,-0.4699707,0.84158325,-0.5153350999999999,-1.4736023
8.930114999999999,-7.6855009999999995,0.5499573,0.8959198,-0.6559448,-1.2765198
8.192703,-7.6759186,1.2227325,0.8256073,-0.7773895000000001,-0.9857024999999999
6.9572906,-7.163558999999999,1.3184966999999999,0.68392944,-0.8860321,-0.6842345999999999
5.786529499999999,-6.4644623,1.1987915,0.5518341,-0.96699524,-0.46052550000000003
5.0898129999999995,-5.8730927,1.1820374,0.50709534,-0.9989624,-0.31884766
5.0515137,-5.6983185,1.481308,0.46875,-0.9339752,-0.13882446
4.9557495000000005,-5.870697,1.5555267,0.36116028,-0.76779175,0.13601685
4.6588593000000005,-6.1651764,1.1389313,0.23013306,-0.47804259999999993,0.43748474
4.187209999999999,-6.3902434999999995,0.5738983,0.09164429,-0.09986877400000001,0.6249695
3.7418823,-6.53389,0.028030396000000003,-0.12780762,0.36564636,0.7783661000000001
3.7155457000000003,-6.701477000000001,-0.30236816,-0.42927550000000003,0.91000366,1.093689
4.318878,-7.0438538,-0.31913757,-0.6849365,1.2998809999999998,1.3344421
5.2717743,-7.692688,0.016052246000000003,-0.97468567,1.5161285,1.2790527
5.903839,-8.705428999999999,0.13575745,-1.2750854,1.619461,1.1352386
6.2438199999999995,-9.969574,-0.13478088,-1.2324829,1.4245148,1.1778412
6.557464599999999,-10.675858,-0.25927734,-0.78826904,0.8695221,1.3408356000000001
7.024338,-10.489105,-0.28800964,-0.25776672,0.42317200000000005,1.5283203
7.749771000000001,-11.171463000000001,-0.7764281999999999,-0.039382935,0.3954773,1.6550903000000001
7.235016000000001,-11.571289,-1.2720337,-0.11714172,0.66711426,1.7051543999999998
6.2055206,-9.351868,-1.2624511999999999,-0.2364502,1.0112,1.712616
6.5526733,-7.6591644,-1.4156799,-0.3344574,1.3009491000000002,1.7083435000000002
7.373886,-8.296020500000001,-1.7245331000000002,-0.46122742,1.492691,1.6241913000000001
7.002777,-8.992737,-0.6399536,-0.5773468,1.5384978999999999,1.4154053
6.57901,-8.875411999999999,0.8157196,-0.6071625,1.3787079,1.1224518
6.672378500000001,-8.612061,1.37117,-0.58374023,0.9856261999999999,0.81884766
7.0267334,-8.260100999999999,0.47813416,-0.54644775,0.51478577,0.60580444
7.270935000000001,-7.651977499999999,-0.6160126,-0.49957275,0.1259613,0.49819946
7.144042999999999,-6.596145599999999,-0.8219146999999999,-0.48892212,-0.08921814,0.44601440000000003
6.887863,-5.5402985000000005,-0.6950225999999999,-0.46122742,-0.12223816,0.40979004
6.966873,-4.709503,-0.73573303,-0.33978270000000005,-0.057266235,0.36184692
7.347549400000001,-4.110962000000001,-0.7476959,-0.16508484,0.03755188,0.27023315
7.7425995,-3.7709808,-0.5322113,-0.03086853,0.12809753,0.14666748
7.967651400000001,-3.7590027000000004,-0.43884277,0.011749268,0.18455505,0.05505371
8.070602000000001,-4.3982544,-0.45799255,-0.015945435,0.14300537,-0.03656006
8.032288000000001,-5.2099,-0.34307859999999996,-0.03831482,0.017303467,-0.18995667
8.147217,-5.966461,-0.25448608,0.00642395,0.0087890625,-0.34867859999999995
8.386627,-6.4548798,-0.010284424,0.13638306,0.200531,-0.39341736
8.688309,-6.715851,0.4517975,0.33132935,0.16430664,-0.51698303
9.119263,-6.919357300000001,0.6960144,0.56355286,-0.31718445,-0.83018494
9.794417999999999,-7.393402,0.46138,0.80430603,-0.9275818000000001,-1.0932921999999998
10.153549,-8.018295,-0.10125732400000001,0.9044341999999999,-1.5081482,-1.2285919
10.409728999999999,-8.415726,-0.57292175,0.78619385,-1.9438476999999998,-1.3947753999999999
11.001099,-8.865845,-0.56333923,0.6391906999999999,-2.0993805,-1.6600188999999999
11.989914,-10.11322,-0.14675903,0.50923157,-1.9481049,-1.9476471000000002
11.429657,-10.003082000000001,0.32011414,0.38992309999999997,-1.4506226,-2.1511077999999997
10.187073,-8.008713,0.41349792,0.27061462,-0.77204895,-2.20224
10.448044,-7.683105499999999,0.15731812,0.15982056,-0.21279907,-2.1191406
10.869415,-9.227371,0.06872558599999999,0.16300964,0.06311035,-1.9763947
10.263687,-9.586502000000001,-0.103652954,0.31214905,0.11105347,-1.8325957999999998
9.533463000000001,-8.772461,-0.39335632,0.5614319000000001,-0.025299072000000002,-1.7047577
9.40657,-8.106873,0.13575745,0.80856323,-0.30973816,-1.5002289
9.382614,-8.181107,0.7223358,0.9726104999999999,-0.6516876,-1.2094116000000001
8.705063,-8.173919999999999,1.13414,1.0056458000000001,-0.92118835,-0.9079437
7.3595276,-7.7549285999999995,1.2346953999999999,0.96728516,-1.1235962,-0.65760803
5.8032837,-6.9720306,1.0144348,0.8969879000000001,-1.1853790000000002,-0.47651672
4.764206,-6.270523000000001,1.1125946000000002,0.7244109999999999,-1.0383759,-0.29328918
4.376343,-6.069412000000001,1.3520203000000002,0.43891907,-0.73583984,-0.063186646
4.321274,-6.284897,1.4382172,0.12573242,-0.4077301,0.18608093
3.9022980000000005,-6.553039599999999,1.2346953999999999,-0.12460327,-0.09881592,0.48010254
3.3204955999999997,-6.5290985,0.892334,-0.28971863,0.18562317,0.83270264
3.2199402000000004,-6.598526,0.36082458,-0.36854553,0.376297,1.107544
3.5766754,-6.744583,0.066329956,-0.35577393,0.58403015,1.3589478000000002
4.211151,-7.005539,-0.010284424,-0.32487488,0.8514099,1.6731873
4.5726624000000005,-7.4053802,-0.30715942,-0.34617615,1.030365,1.827652
4.8168793,-8.032653999999999,-0.75009155,-0.43778992,1.0463562,1.7264557
5.243042,-8.655151,-0.96795654,-0.5752106,1.0847015,1.5016937
5.848785400000001,-9.531433,-0.8147278,-0.5528411999999999,1.0335693000000001,1.3855743
6.188751,-10.161102,-0.4915161,-0.24923706,0.7512665,1.3898315
6.966873,-10.474747,-0.21618652,0.07673645,0.55952454,1.3898315
8.159180000000001,-11.576080000000001,0.0040893555,0.14703369,0.6639252,1.2737121999999999
7.792877000000001,-10.987105999999999,0.0016937256,0.037322997999999996,0.9760437,1.0649261
7.345153999999999,-8.607269,-0.33349609999999996,-0.15122986,1.3851013,0.9019469999999999
8.104111,-7.5059357,-0.71417236,-0.42288208,1.7483520000000001,0.8018036000000001
9.624435,-8.568954,-1.0421905999999999,-0.6732178000000001,1.9166718,0.695282
9.555008,-8.935272,-0.637558,-0.80104065,1.8197327,0.5610504
8.922928,-8.463608,0.29617309999999997,-0.7850647,1.4149323,0.38102722
8.796036,-7.821975699999999,0.58348083,-0.67640686,0.81411743,0.18608093
8.891815,-7.0869446,-0.18984985,-0.56669617,0.20159912,0.11578369
8.784073,-6.1987,-0.8602295,-0.46975708,-0.22238159,0.19886779999999998
7.9772186000000005,-5.2242584,-1.1403503000000001,-0.40156555,-0.39601135,0.33096313
7.0865784,-4.4964294,-1.4683533000000002,-0.34298706,-0.39282227,0.42469788
6.583801299999999,-3.8882904000000003,-1.4803162,-0.26416016,-0.30973816,0.43748474
6.4257812,-3.545929,-1.1283722,-0.18106079,-0.14248657,0.37251282
6.590988,-3.5602875,-0.6064453000000001,-0.14378357,0.09187317,0.32670593
6.859131,-3.8763275,-0.2712555,-0.16722107,0.29640198,0.30433655
6.7657623,-4.687958,-0.1850586,-0.18426514,0.31025696,0.19247437
6.672378500000001,-5.794082599999999,0.011260986,-0.15229797,0.19413757,0.016708373999999998
6.768158000000001,-6.366287000000001,0.15492249,-0.053237915,0.23887634,-0.065322876
7.225448599999999,-6.641632,0.29138184,0.16621399,0.27296448,-0.1260376
7.910187,-6.823592999999999,0.5020752,0.4261322,-0.06791687,-0.43070984
8.975601,-7.398193400000001,0.54756165,0.6764679,-0.6356963999999999,-0.73857117
9.772872999999999,-8.264892999999999,0.30575562,0.80963135,-1.2588806000000001,-0.82058716
10.160736,-8.853867,-0.022247314,0.6349335,-1.7851256999999998,-0.9239197
10.735352,-8.987946,-0.13238525,0.36755370000000004,-1.9981689999999999,-1.1636046999999998
11.6595,-9.574524,-0.012680054,0.20349121,-1.8160095,-1.4459076000000002
11.920471000000001,-10.362213,0.24589539,0.12466431,-1.3078918,-1.6408386000000001
10.6707,-8.681488,0.6816406,0.0650177,-0.68470764,-1.6728058000000001
10.658737,-7.515517999999999,0.4948883,0.00642395,-0.18403625,-1.6110229999999999
11.202209,-9.011887,0.104644775,0.036254882999999995,0.021560668999999998,-1.550293
10.191864,-9.694229,-0.13717651,0.20030212,0.02583313,-1.5140839
9.186295,-8.734161,-0.84106445,0.4495697,-0.06472778,-1.4554901000000002
8.918152000000001,-7.692688,-0.54418945,0.6999054,-0.23196411,-1.3489685
8.956451,-7.513122599999999,0.5308075,0.8543700999999999,-0.45248413,-1.1753235
8.401000999999999,-7.6208496,1.2370911,0.8905945,-0.66552734,-0.927124
7.041092,-7.115677000000001,1.4884948999999998,0.82774353,-0.86473083,-0.65335083
5.712311,-6.2513733,1.3424377,0.7222748000000001,-1.0138702,-0.42218018
4.977295,-5.5522614,1.4358215,0.6360016,-1.0351715,-0.26559448
4.7857513,-5.317627,1.7997284,0.5529022,-0.93717957,-0.13668823
4.5415497,-5.475647,1.9553528000000002,0.43572998,-0.7518158,0.03907776
4.2638245,-5.6911316,1.7374878,0.33239746,-0.45780945,0.3203125
3.9549712999999995,-5.9640656,1.1868134,0.23120117,-0.13076782,0.6260376
3.7658233999999995,-6.3351746,0.62657166,0.10017395,0.16004944,0.7730408000000001
3.8208922999999997,-6.6559906,0.14294434,-0.09690857,0.5627135999999999,0.89767456
4.230301,-6.9504850000000005,-0.074920654,-0.41648865,1.0090636999999998,1.1054077
5.0299683,-7.3957977,-0.036621094,-0.81489563,1.2412872,1.1181946000000003
5.832016,-8.161942,-0.005493164,-1.2079773,1.3510132,0.9136658000000001
6.409027,-9.229766999999999,-0.22575378,-1.3656311,1.4074707,0.89767456
6.839981,-10.374191,-0.31434629999999997,-1.0939941,1.0836333999999999,1.1000823999999998
6.964477499999999,-10.675858,-0.47955322,-0.5283356,0.61172485,1.2811736999999999
7.840759299999999,-10.525024,-0.8602295,0.008560181,0.30386353,1.3259125
8.77449,-11.453979499999999,-1.2959747,0.2184143,0.33474729999999997,1.2385712
7.665985000000001,-10.38855,-1.9160613999999998,0.07141113,0.6873627,1.1043396
6.918991,-7.972809,-2.2991333,-0.25883484,1.0676575000000001,1.0287018
7.7832947,-7.771698,-2.2321014,-0.5805359,1.3733826,0.9924927
7.867096000000001,-9.265671000000001,-1.3630066,-0.80104065,1.555542,0.8753052
6.772933999999999,-9.047806,0.30815125,-0.8798828000000002,1.4543457,0.6462859999999999
6.8136444,-8.41333,1.5579223999999998,-0.84259033,1.1123962,0.41618347
7.402618400000001,-7.764511,1.6488953000000002,-0.77334595,0.69374084,0.31710815
7.934128,-7.158783000000001,0.49011229999999995,-0.6977234,0.31770325,0.35119629999999996
7.823989999999999,-6.4860077,-0.9248656999999999,-0.5773468,0.0087890625,0.42469788
7.1607970000000005,-5.664795,-1.8107147000000001,-0.43460083,-0.12651062,0.46624756
6.540710400000001,-4.81485,-1.834671,-0.28865050000000003,-0.09881592,0.47796629999999996
6.511978,-4.0151825,-1.4659576,-0.12780762,0.0002593994,0.47796629999999996
6.8663177,-3.6871796000000003,-0.9320526,0.031982422,0.09719849,0.44387817
6.9812316999999995,-3.8882904000000003,-0.44363403,0.10336304,0.18028260000000002,0.39274597
6.7609710000000005,-4.503601000000001,-0.18984985,0.07778931,0.23887634,0.32350159999999994
6.6005554,-5.382278400000001,-0.07252502400000001,0.021331787,0.18135071,0.20739746
6.8519440000000005,-6.1292725,0.33448792,-0.044708252000000004,0.11105347,0.14134216
7.3643035999999995,-6.5267029999999995,0.61460876,0.038375854,0.11105347,0.17756653
7.8048399999999996,-6.648803699999999,0.758255,0.34197998,-0.13183594,0.028427123999999998
8.154388,-6.845138499999999,0.8636017,0.7467804,-0.6133270000000001,-0.3806305
8.791260000000001,-7.307220500000001,0.79177856,1.0503844999999998,-1.135315,-0.7119293000000001
9.34671,-7.7956389999999995,0.27941895,1.0173645,-1.5848541,-1.0038147
9.758514,-8.145187,-0.30236816,0.74038696,-1.7499695,-1.3862457000000001
10.579727,-8.810775999999999,-0.5393982,0.45170593,-1.5688782,-1.7345886000000001
11.695419000000001,-10.642334,-0.6255951,0.19284058,-1.1076202,-1.9753418000000003
11.494308,-10.853027,0.008865356,-0.02659607,-0.5749816999999999,-2.0403137
11.168700999999999,-8.932877000000001,0.8372649999999999,-0.1267395,-0.20108032,-1.9273987000000001
12.097641000000001,-8.865845,1.0479584000000002,-0.058563232,-0.07431030000000001,-1.7313843
11.580505,-9.138779,0.66249084,0.118270874,-0.13609314,-1.5375061
10.294815,-8.293625,-0.3622284,0.37820435,-0.30441284,-1.3851776000000002
9.763306,-7.393402,-0.89134216,0.65730286,-0.5046692,-1.2285919
9.102492999999999,-7.036667,-0.32870483,0.8352050999999999,-0.6729889,-1.0283203
8.417755,-7.3957977,0.17167664,0.853302,-0.79016113,-0.82058716
7.242202799999999,-7.599303999999999,0.40870667,0.7979126,-0.8721924000000001,-0.66612244
5.8415985,-7.383835,0.7462920999999999,0.70843506,-0.91693115,-0.5574646
4.666046,-6.6200867,1.3017426,0.5923156999999999,-0.8956299000000001,-0.45947266
4.089035,-5.9951935,1.5818633999999998,0.47940063,-0.77311707,-0.32949829999999997
4.132141000000001,-5.892242400000001,1.8619843,0.39524840000000006,-0.6282501,-0.1579895
4.191986,-6.1005400000000005,1.8380432,0.30682373,-0.5195923,0.08274841
4.0028534,-6.205887000000001,1.3639832,0.18644714,-0.36724854,0.3948822
3.8448334,-6.124480999999999,0.64334106,0.085250854,-0.12863159,0.61964417
4.1225586000000005,-6.124480999999999,0.28181458,-0.01914978,0.20692444,0.742157
4.5966187000000005,-6.3231964000000005,0.114212036,-0.23432922,0.7310333000000001,0.9967499
5.049118,-6.8140106,-0.0030975342,-0.57307434,1.1773833999999999,1.220459
5.501617400000001,-7.651977499999999,-0.046188354,-0.9310149999999999,1.4745788999999998,1.1863708
6.0498962,-8.734161,-0.022247314,-1.1504517,1.6098785,1.0329742
6.48085,-9.691833500000001,-0.13957214,-0.96403503,1.4010773,1.0681305
6.6915436,-10.35025,-0.3909607,-0.48999023,0.8737792999999999,1.239624
7.191925,-10.4077,-0.41729736,-0.05429077,0.41145325,1.3674621999999999
8.35791,-11.097244,-0.48432922,0.056488037000000005,0.2505951,1.3504181
8.204680999999999,-11.7724,-0.9583893,-0.10862732,0.4828186,1.237503
6.816039999999999,-9.653534,-1.5090485,-0.34510803,0.89508057,1.143753
6.772933999999999,-7.8866119999999995,-1.5138397,-0.5315399000000001,1.2945556999999999,1.1256409
7.582184,-8.391785,-1.2433014,-0.61250305,1.602417,1.1022186
7.2062990000000005,-8.978363,0.008865356,-0.61569214,1.7046814,0.9967499
6.624496499999999,-8.664734,0.9569701999999999,-0.5997161999999999,1.492691,0.8007354999999999
6.732239,-8.267288,0.91148376,-0.5762786999999999,1.0356903,0.58555603
7.3714905,-7.9560394,-0.106048584,-0.5038452,0.49453735,0.46305847
7.816818,-7.568191499999999,-1.0182343,-0.38986206,0.031158447000000002,0.46305847
7.4002229999999996,-6.701477000000001,-1.226532,-0.29718018,-0.22877502,0.49714659999999994
6.667602499999999,-5.753372,-1.0038757,-0.24284363,-0.29481506,0.49819946
6.397049,-5.027939,-0.5681305,-0.19491577,-0.21812439,0.4534607
6.562256,-4.4820557,-0.32870483,-0.17041016,-0.023178099999999997,0.41618347
6.868713400000001,-4.1612396,-0.43165588,-0.16294861,0.18135071,0.41404724
7.088974,-4.170807,-0.6040496999999999,-0.14164734,0.24952698,0.37570190000000003
7.1703796,-4.6640167,-0.47236633,-0.11076355,0.16323853,0.25213623
7.0698240000000006,-5.4110107,-0.16830444,-0.0756073,0.006652831999999999,0.07209778
7.1727753,-5.918579,0.073516846,-0.023406982000000003,-0.027435302999999998,-0.088760376
7.531905999999999,-6.174759,0.17167664,0.14384460000000002,0.14300537,-0.15586853
8.087357,-6.380661,0.30336,0.39311218,0.09400939999999999,-0.31033325
8.6284485,-6.859497,0.30815125,0.6594238,-0.36299133,-0.6373595999999999
8.970825,-7.5921326,0.18843079,0.9417267,-1.0607452,-0.8791809000000002
9.598099000000001,-8.1380005,0.15013123,0.9971161000000001,-1.7968445,-1.0805206
10.445648,-8.533050999999999,0.104644775,0.8128357,-2.2250824000000002,-1.3819885
11.252487,-8.961609,0.20040894,0.6924591,-2.2698212000000004,-1.7708130000000002
11.942017,-9.928864,0.37039185,0.5987091,-1.9470366999999997,-2.0839996
11.496704,-9.816345,0.88993835,0.41015625,-1.297226,-2.185196
10.536621,-7.965622,1.0575256000000002,0.19071960000000002,-0.5973510999999999,-2.1575012000000005
11.06575,-8.152374,0.56433105,0.052230835,-0.11691284,-2.0722810000000003
11.113632,-9.505096,0.37757874,0.06288147,0.12915039,-1.9487
10.51268,-9.428482,-0.084503174,0.25889587,0.17176819,-1.8496398999999997
9.933289,-8.513900999999999,-0.49870299999999995,0.5337219,-0.0039978027,-1.7164764
9.801605,-7.9871674,0.41827393,0.7510376,-0.2969513,-1.5023651000000002
9.485565,-8.463608,1.0407715,0.8437195,-0.5707245,-1.2466888
8.221436,-8.559387,0.99528503,0.78512573,-0.7795105,-0.96865845
6.7705535999999995,-7.922530999999999,0.80374146,0.68818665,-0.931839,-0.706604
5.472885,-6.9456940000000005,0.85401917,0.6157531999999999,-0.9712677,-0.46266174
4.5966187000000005,-6.181946,1.1245728000000002,0.550766,-0.90734863,-0.20593262
4.373947,-5.9999847,1.541153,0.44744873,-0.7752533,0.11790466
4.1608734,-6.205887000000001,1.5770721,0.32279968,-0.61972046,0.48435974
3.7083587999999996,-6.3782654,1.1724548000000001,0.21948242,-0.42051697,0.83909607
3.2869873,-6.3231964000000005,0.63375854,0.122543335,-0.15100098,1.0926208
3.0786896,-6.3231964000000005,0.042388916,-0.04045105,0.16963196,1.2172546
3.2654419999999997,-6.557831,-0.12280273400000001,-0.3578949,0.63835144,1.3173981000000001
3.6868133999999997,-6.9911804,-0.017471313,-0.7616272,1.1528778,1.4526825
4.249450700000001,-7.709442,0.016052246000000003,-1.1302185,1.4287872,1.4036865
4.752228,-8.74852,-0.18984985,-1.428482,1.5246582,1.1682587
5.3196564,-9.603256,-0.40771484,-1.4828186,1.5086823,1.0968933
6.133682299999999,-10.268844999999999,-0.43405150000000003,-1.106781,1.1582031000000002,1.2193909
7.029114,-10.35025,-0.48432922,-0.45164490000000007,0.6969451999999999,1.3866425
7.958069,-10.412491000000001,-0.7740326,-0.0074310303000000005,0.49348450000000005,1.4441681
8.764923,-11.327086999999999,-1.3654022,0.021331787,0.60639954,1.38237
7.6635895000000005,-9.871399,-1.815506,-0.14485168,0.8961486999999999,1.3046111999999999
7.065033000000001,-7.74057,-1.6239777,-0.3067627,1.1997528,1.2662659
8.465637,-8.430099499999999,-1.250473,-0.44525146,1.3904266,1.2556152
8.561417,-9.651138000000001,-0.44363403,-0.57414246,1.4234467,1.1309813999999998
7.5127562999999995,-9.318344,1.1030273000000002,-0.6934509,1.2657928,0.89341736
7.1943207,-8.566559,2.3240662,-0.78826904,0.9557953000000001,0.6505432
7.4696503,-7.709442,1.7422790000000001,-0.7850647,0.61065674,0.49926758
7.790481599999999,-7.1180725,0.051971435999999996,-0.6540375,0.31237793,0.47796629999999996
7.5103607000000006,-6.3279877,-0.8674011,-0.48040770000000005,0.054595947,0.47796629999999996
7.05307,-5.5211487,-0.96318054,-0.32487488,-0.08815002400000001,0.45027159999999994
6.7633667,-4.874709999999999,-0.9320526,-0.19917297,-0.113723755,0.41618347
6.9764557,-4.2426453,-1.0373993000000001,-0.1267395,-0.03276062,0.35546875
7.314025999999999,-3.7374572999999995,-1.1618958000000001,-0.07772827,0.09933472,0.26811218
7.4911957,-3.7781677000000005,-1.171463,-0.04257202,0.18455505,0.15092468
7.527114999999999,-4.364746,-0.8027649,-0.051101685,0.17390442,-0.007797241
7.397827,-5.1883545,-0.031829834,-0.10116577,0.09933472,-0.18675232
7.5845795,-5.8515472,0.32730103,-0.111816406,0.13342285,-0.28157043
8.06102,-6.342346,0.37757874,0.03944397,0.21118164,-0.2474823
8.37706,-6.550644,0.38237,0.36009216,-0.10839844,-0.41046143
8.8535,-6.902603,0.24829102,0.7457123000000001,-0.68045044,-0.73324585
9.487961,-7.4939575,0.12619019,0.9971161000000001,-1.2056122,-0.9846344000000001
10.07933,-7.9847717000000005,0.047180176,0.92681885,-1.5699463,-1.2882385
10.49353,-8.238555999999999,-0.13957214,0.7020416,-1.6264038,-1.644043
11.113632,-9.04541,-0.31674194,0.49111938,-1.4122772,-1.9646912
11.757675,-10.510651,-0.106048584,0.35476685,-1.0202636999999999,-2.1915894000000002
10.574936,-9.761275999999999,0.5619354,0.28019714,-0.53556824,-2.2107544
10.285233,-8.128433,1.1461181999999999,0.2642212,-0.14141846,-2.0349884
11.245316,-8.6671295,1.2299194,0.34944153,-0.015716553,-1.8123474
10.94603,-9.114838,0.80374146,0.55503845,-0.13609314,-1.6376495
10.586899,-8.796402,-0.096466064,0.80963135,-0.3523407,-1.4831848
10.220596,-8.248138,-0.14675903,1.0322723,-0.56433105,-1.3297881999999999
9.535843,-8.039841000000001,0.32011414,1.1494446000000003,-0.7433014,-1.118866
8.781677,-8.343903,0.77500916,1.1569061,-0.90841675,-0.8461609
7.261352499999999,-8.217010499999999,1.105423,1.056778,-1.0500946000000002,-0.56066895
5.547104,-7.58255,1.1197815,0.9055023000000001,-1.1150665000000002,-0.3454895
4.4266205,-6.6871184999999995,1.1987915,0.7297363,-1.0969696000000002,-0.23469543
4.072280999999999,-6.043075599999999,1.3951111,0.5294647,-0.9851074000000001,-0.13136292
4.0076447,-5.9401245000000005,1.4118805,0.30470276,-0.7550049,0.06677246
3.9980621,-6.1340637000000005,1.1628723,0.06607056,-0.44395447,0.35546875
3.7251282,-6.301651000000001,0.61460876,-0.12567139,-0.14355469,0.6452179
3.4138794000000003,-6.354324299999999,0.10942078,-0.22900389999999998,0.10784912,0.81140137
3.47612,-6.4644623,-0.35264587,-0.35577393,0.37097168,0.8966216999999999
4.024399,-6.679931599999999,-0.5896759,-0.62420654,0.74487305,1.0830383
4.8408203,-6.9432982999999995,-0.6447449000000001,-0.9906616,1.17099,1.3035431
5.3747253,-7.527481,-0.6902313,-1.362442,1.506546,1.3227233999999999
5.688369799999999,-8.607269,-0.7524871999999999,-1.7097168000000003,1.7249298,1.1831665
6.037918,-9.710999000000001,-0.79078674,-1.8098602,1.7462311000000001,1.204483
6.442535400000001,-10.273636,-0.64953613,-1.4508514,1.3520813,1.3983611999999999
7.184738,-10.153915,-0.29519653,-0.73713684,0.84288025,1.6146088
8.020325,-10.60643,-0.47955322,-0.10223389,0.5946808000000001,1.6849060000000002
8.005951,-11.370178,-1.0709076000000002,0.16407776,0.6841583000000001,1.60289
6.672378500000001,-9.878586,-1.4851074,0.13105774,1.0229187,1.5581512
6.5,-8.312775,-1.2672424,-0.039382935,1.3861694,1.6199341
7.6803436000000005,-9.04541,-1.008667,-0.28652954,1.5896301000000002,1.6433716
7.6635895000000005,-10.256866,-0.16111755,-0.5027771,1.5619353999999999,1.50914
6.9596862999999995,-10.137161,1.4190521,-0.57095337,1.2849731000000002,1.2918243
6.8567350000000005,-9.356659,2.8699493,-0.5102234,0.7757721,1.0542755
7.261352499999999,-8.164337,2.7430573,-0.4047699,0.20266724,0.82844543
7.687530499999999,-7.369461,1.2323151,-0.31954956,-0.2266388,0.6260376
7.239807000000001,-6.6272583,-0.1443634,-0.31741333,-0.35980225,0.48542786
6.4664764,-5.753372,-0.8626251,-0.36003113,-0.29374695,0.37570190000000003
6.373108,-4.9728699999999995,-1.3223114,-0.325943,-0.16166687,0.28089905
6.89505,-4.276153599999999,-1.4060974,-0.21835327,-0.028503418,0.20419312
7.352340700000001,-3.9529419999999997,-0.99668884,-0.09265137,0.06736755,0.13175964
7.740203999999999,-4.036743,-0.48672485,0.01600647,0.12489319,0.08595276
8.106506,-4.436569,-0.23533629999999997,0.10017395,0.071640015,0.0071258545
8.547042999999999,-5.0710296999999995,-0.09169006,0.13638306,-0.104141235,-0.16758728
8.733794999999999,-5.7916870000000005,-0.043807982999999995,0.12359619,-0.19468689,-0.34335327
8.79364,-6.3854523,-0.06535339,0.22373962,-0.13822937,-0.46266174
8.784073,-6.579376,0.3536377,0.52201843,-0.29481506,-0.71299744
8.860686999999999,-6.8690796,0.73431396,0.85969543,-0.7422333000000001,-1.0442963
9.157561999999999,-7.3000336,0.7845916999999999,1.0621033000000002,-1.2578125,-1.3319244
9.408951,-7.824356,0.6648864999999999,1.0152283000000002,-1.7254638999999998,-1.6099548000000001
9.830338000000001,-8.214615,0.48052979999999995,0.78726196,-2.0056305,-1.8624115
10.86702,-9.054977000000001,0.29617309999999997,0.60723877,-2.0120240000000003,-2.0573578
12.042572,-10.625580000000001,0.22195435,0.42080688,-1.7659453999999999,-2.1777344
11.757675,-10.604034,0.70558167,0.20988464,-1.2620850000000001,-2.2427216
10.893355999999999,-8.722183,1.4046936,0.06713867,-0.69322205,-2.2480469
10.747314,-8.482773,1.3544159,0.019210815,-0.20533752,-2.123413
10.560562,-9.356659,0.67684937,0.09057617,0.07269287,-1.9945068
10.0961,-9.46199,-0.0007019042999999999,0.31961059999999997,0.09933472,-1.8922424
9.435286999999999,-9.263275,-0.19703674,0.6413269,-0.07217407,-1.7782593
8.791260000000001,-8.992737,0.50686646,0.9417267,-0.33103943,-1.6099548000000001
8.2765045,-8.954422000000001,0.91148376,1.1196289,-0.5611267,-1.3457642
7.644424400000001,-8.655151,0.9928894,1.1281433,-0.756073,-0.9995575000000001
6.832794,-8.044632,1.2658234,1.0301361,-0.9329071,-0.6309661999999999
5.4944305,-7.132446300000001,1.5196075,0.88845825,-1.0319824,-0.31352234
4.7067413,-6.339966,1.7183380000000001,0.7659607,-1.0330504999999999,-0.06744385
4.436203,-6.1340637000000005,2.0415497,0.6274719,-0.9190674000000001,0.16903687
4.2279053,-6.3112335,2.1445007,0.43252563,-0.6548767,0.45133972
3.8927155,-6.6440277000000005,1.7877655,0.19816589999999998,-0.28309629999999997,0.775177
3.368393,-6.792464999999999,1.2251282,-0.044708252000000004,0.08015442,1.0169983
2.942215,-6.8954163,0.39193726,-0.25883484,0.43275452,1.1320343000000002
3.0044708,-7.065399,-0.110839844,-0.48466492,0.83862305,1.3184662
3.5695038,-7.4460754,-0.3622284,-0.6593628,1.1315765,1.525116
4.3954926,-7.9249268,-0.36462402,-0.86177063,1.2114716,1.5581512
5.199951,-8.659943,-0.4699707,-1.1014556999999998,1.2562103,1.4175262
5.863144,-9.581711,-0.7022095,-1.1003876,1.1816406000000002,1.3355103000000002
6.2917023,-10.091675,-0.86979675,-0.7286071999999999,0.89933777,1.3749236999999999
6.823227,-9.988724000000001,-0.9895171999999999,-0.25456238,0.6553955,1.4612121999999999
8.226227,-10.759659,-0.93444824,-0.01914978,0.56910706,1.4420319
8.250167999999999,-11.118789999999999,-1.0780945,-0.05003357,0.6777649,1.333374
7.033905,-9.179489,-1.0182343,-0.19703674,0.99308777,1.2098083
7.1943207,-8.063782000000002,-1.0158539,-0.42607117,1.3446198,1.1299133
8.561417,-8.841904,-1.1451263,-0.6582946999999999,1.5448913999999998,1.0329742
8.537460000000001,-9.069351,-0.35264587,-0.7946625,1.5129395,0.8774414
8.053833000000001,-8.750916,0.9928894,-0.84898376,1.2572784,0.69207764
7.871886999999999,-8.205048,1.5291901,-0.8340759,0.83436584,0.48329163
8.226227,-7.843521000000001,0.5906677,-0.79359436,0.40719604,0.35546875
8.362686,-7.189895599999999,-0.5489807,-0.7339325,0.07908630000000001,0.38635254
7.984405499999999,-6.1699677,-1.0852814,-0.64338684,-0.113723755,0.45878599999999997
7.266144000000001,-5.2099,-1.4180756,-0.5027771,-0.15100098,0.5344238
6.777725,-4.336014,-1.5401764,-0.32806396,-0.08815002400000001,0.5770416
6.753784,-3.7973175,-1.2887878000000001,-0.13951111,0.036483765,0.54400635
6.804061999999999,-3.6440887,-0.99668884,0.023468017999999997,0.16111755,0.48754883
7.0746155,-3.8715363,-0.6830596999999999,0.085250854,0.21438599,0.42364502
7.112914999999999,-4.570648,-0.38616943,0.06074524,0.18348694,0.28834534
6.8064575,-5.499588,-0.046188354,-0.023406982000000003,0.09613037,0.08169556
7.002777,-6.268127400000001,0.29377747,-0.086257935,0.17176819,-0.030166626000000002
7.419372599999999,-6.799652,0.6888274999999999,0.034118652,0.29533386,-0.08023071
7.7976529999999995,-6.878647,1.0168304,0.33451843,0.05671692,-0.35507202
8.487183,-7.048645,1.0647125,0.6743469,-0.46206665,-0.7513428000000001
9.179108,-7.541855,0.8731841999999999,0.86608887,-0.9893646,-1.022995
9.636414,-8.049422999999999,0.27941895,0.76275635,-1.4058838,-1.2978363000000002
10.323547,-8.406158,-0.13238525,0.52734375,-1.5550232,-1.6131438999999999
11.544586,-9.509888,-0.3047638,0.33026123,-1.3856506000000002,-1.8943787
12.195801,-10.905700999999999,-0.08929443,0.21734619,-0.9808502,-2.0680084
10.943634,-9.466782,0.6217804,0.16195679,-0.5025482,-2.0381926999999997
10.788025,-7.8602753,1.0718994,0.15982056,-0.14887999999999998,-1.8475037
11.40094,-8.217010499999999,0.93063354,0.24397278,-0.040222167999999996,-1.6333923000000001
10.955612,-9.009491,0.37039185,0.44744873,-0.15100098,-1.5023651000000002
10.476776,-8.90654,-0.46038818,0.74464417,-0.40133667,-1.4235229999999999
9.976379,-8.264892999999999,-0.4699707,0.9704895,-0.6591338999999999,-1.3361816
9.356277,-8.061386,0.2052002,1.0333405,-0.7976227,-1.2115479
8.623657000000001,-8.365447999999999,0.7678375,0.9736786000000001,-0.85194397,-1.0048828
7.134460400000001,-8.176314999999999,1.0934448,0.8245392,-0.88816833,-0.75987244
5.487259,-7.407775999999999,1.129364,0.6509094,-0.9094696,-0.5500183000000001
4.4864807,-6.3974150000000005,1.2418823,0.4921875,-0.88816833,-0.3816986
4.4266205,-5.8970337,1.5100403,0.34944153,-0.84768677,-0.19314575
4.5487212999999995,-5.8180237,1.7422790000000001,0.20669556,-0.74967957,0.046539307
4.4505615,-5.973648000000001,1.3161011,0.054367065,-0.5611267,0.28515625
4.3045197,-6.25856,0.61221313,-0.08518982,-0.27137756,0.48861694
3.9477843999999997,-6.3710785,0.09985351599999999,-0.20343018,0.092941284,0.5802307
3.7299042,-6.4620667,-0.34307859999999996,-0.33659363,0.55526733,0.63775635
4.0579224,-6.756546000000001,-0.5250397,-0.5624237,1.0697784,0.8593291999999999
4.6756134000000005,-7.316787700000001,-0.5202484,-0.8638915999999999,1.3414306999999999,1.0500183
5.238250700000001,-8.0829315,-0.4412384,-1.2346039,1.3627319,0.9275055
5.800888,-9.110046,-0.37420654,-1.6021271000000001,1.3701934999999998,0.8273773000000001
6.464096,-9.995911,-0.3909607,-1.5669708,1.1848296999999999,1.0723877
6.9285583,-10.153915,-0.28321838,-0.99172974,0.7523346,1.413269
7.440917999999999,-9.763672,-0.21858215,-0.17680359,0.37416077,1.6561432
8.180725,-10.438827499999999,-0.5178528,0.46661377,0.26657104,1.6817168999999998
7.345153999999999,-10.515442,-1.171463,0.6391906999999999,0.5222473,1.5315094
5.882293700000001,-8.228989,-1.7149506,0.40803528,1.0005493,1.3898315
6.8902589999999995,-7.527481,-1.9112854,-0.03086853,1.4490204,1.3152618
8.015533,-9.313553,-1.918457,-0.48680115,1.7994994999999998,1.2055358999999999
6.8974457,-10.189835,-0.36941528,-0.8074340999999999,1.9443665,1.0063324
6.397049,-9.706207000000001,1.8404387999999998,-0.89797974,1.762207,0.78689575
6.823227,-8.743744,3.0183868,-0.79252625,1.2391663,0.61112976
7.771316499999999,-8.068572999999999,2.5084229,-0.5911865,0.56378174,0.519516
8.300446,-7.42453,0.5715026999999999,-0.38986206,-0.010391235,0.5259094
7.7665405,-6.3902434999999995,-1.2073822,-0.26309204,-0.36831665,0.5557251
6.9596862999999995,-5.3104553,-2.1411284999999998,-0.18852234,-0.48657227,0.6207123000000001
6.641266000000001,-4.4221954000000006,-2.2919617000000003,-0.09265137,-0.4226532,0.7101898
6.7178802,-3.9194183,-1.8035431,0.017074585,-0.27670288,0.7101898
6.748993,-3.8404083,-0.92007446,0.073532104,-0.10307312,0.58981323
6.725052000000001,-4.103775,-0.12280273400000001,0.056488037000000005,0.04925537,0.41618347
6.7873077,-4.692749,0.2339325,-0.002105713,0.13235474,0.21804810000000002
6.8136444,-5.432556,0.36799622,-0.06707764,0.11105347,-0.012054443
7.263748,-6.2513733,0.30096436,-0.14910889,0.11956787,-0.24215698
7.586975,-6.828369,0.26264954,-0.13739014,0.34753418,-0.35293579999999997
7.72583,-7.024703999999999,0.4948883,0.043701172,0.49134827,-0.40194702
8.405792,-7.122864,0.65530396,0.30149840000000006,0.21757507,-0.6139220999999999
9.4592285,-7.498749,0.49728394,0.6168213,-0.37684629999999997,-0.88557434
10.380997,-8.185883,0.20999146,0.89805603,-1.0926971,-1.0006256
10.938858,-8.695847,-0.019851685,0.9331969999999999,-1.7382506999999998,-1.0901031
11.336288,-8.9664,-0.022247314,0.7691498000000001,-2.1345367000000004,-1.3074188
11.891739,-9.809158,0.039993286,0.63705444,-2.2069702,-1.6056976
11.523041000000001,-10.091675,0.43025208,0.53053284,-1.9566345,-1.8688049
9.844696,-8.164337,1.026413,0.4410553,-1.4090881000000002,-1.9977112000000001
9.533463000000001,-7.058212299999999,0.9426117,0.32600403,-0.7379608,-1.9923859
10.215805,-8.166733,0.6936188,0.20030212,-0.23942566,-1.9572296000000002
10.055389,-9.512283,0.5308075,0.19497679999999998,-0.037017822,-1.9124908
9.478394,-9.268066000000001,0.0064697266000000005,0.30789185,-0.05833435,-1.8709412
9.270096,-8.434891,-0.27842712,0.47087097,-0.230896,-1.8038330000000002
9.339523,-8.070969,0.4158782999999999,0.6264038000000001,-0.48976135,-1.6333923000000001
9.085739,-8.231384,0.91867065,0.71269226,-0.7379608,-1.3457642
8.065811,-7.915344,1.2346953999999999,0.7052307,-0.9105377,-1.0059509
6.7346344,-7.189895599999999,1.1509094,0.63705444,-1.0000305,-0.6544036999999999
5.8128660000000005,-6.4572754,0.81811523,0.5614319000000001,-0.96913147,-0.34442140000000004
5.322051999999999,-6.0933532999999995,0.90908813,0.49005127,-0.8253174000000001,-0.12284851
5.152069,-6.167572,1.1006316999999999,0.38565063,-0.59628296,0.10406494
4.929412999999999,-6.4237519999999995,1.105423,0.24397278,-0.30441284,0.39060974
4.3284607,-6.6703644,0.9450073,0.15768433,0.009841919000000001,0.6974182
3.6796265,-6.780487,0.6672821,0.11294556,0.27189636,0.9243164
3.4234467000000004,-6.9409027000000005,0.30336,-0.041519165,0.47537229999999997,1.0564117
3.5168303999999995,-7.1563873,0.054367065,-0.38346863,0.7629852,1.206604
3.9022980000000005,-7.4532623,0.063934326,-0.7989196999999999,1.1219788,1.3557434
4.8168793,-7.9560394,0.15252686,-1.1770782,1.3946991000000002,1.333374
5.5447083,-8.774857,0.0040893555,-1.5126495,1.5480957,1.1032715
5.978073,-9.775635000000001,-0.24971008,-1.6937408,1.651413,1.0489502
6.2366333,-10.175476,-0.18984985,-1.428482,1.4522095,1.3110046
6.701111,-10.039000999999999,-0.18266296,-0.81703186,1.0761718999999998,1.6390991000000001
7.677948,-10.738113,-0.7596741,-0.21940613,0.7896271,1.8223267
7.950882000000001,-11.073288,-1.5186309999999998,0.1161499,0.6980133000000001,1.7733307
6.8184357,-9.1770935,-1.8083343999999997,0.18112183,0.8450165000000001,1.6305847
6.5454865,-7.630432000000001,-1.463562,0.02772522,1.0665893999999998,1.5379028000000001
7.7832947,-8.126038000000001,-1.0852814,-0.27374268,1.2295684999999998,1.4356383999999998
7.8958282,-9.617614999999999,-0.61361694,-0.6029053000000001,1.2870941,1.2215271
6.3563538,-9.476364,1.0120392,-0.8830719000000001,1.2327728,0.9498749
5.8727264,-8.535446,2.4892578,-1.0588378999999999,1.0538025,0.7229767
6.397049,-7.575363,2.5251770000000002,-1.0822753999999999,0.7768401999999999,0.6441498000000001
7.4337463,-6.926544,1.4310303,-0.9608306999999999,0.40719604,0.69207764
7.728225699999999,-6.1939087,0.15013123,-0.708374,0.03967285,0.7794342
7.3643035999999995,-5.4732513,-0.79797363,-0.35577393,-0.19148254,0.8167267
7.139251700000001,-4.807663,-1.4994812,0.0010986328,-0.25326538,0.7730408000000001
7.448105,-4.336014,-1.7269287,0.28659058,-0.22238159,0.66012573
7.7976529999999995,-4.333618,-1.5569305,0.40164185,-0.17337036,0.46838379999999996
7.914978,-4.845978,-1.0756989,0.34411620000000004,-0.078567505,0.26597595
7.670761,-5.6815489999999995,-0.34307859999999996,0.18539429,-0.038085938,0.059310913
7.5295105,-6.586563000000001,0.36322020000000005,0.011749268,-0.11691284,-0.20912170000000002
7.586975,-6.9409027000000005,1.0383759,-0.032989502000000004,-0.11053467,-0.39874268
7.984405499999999,-6.857101400000001,1.6464995999999998,0.16195679,-0.015716553,-0.5265808000000001
8.496765,-6.679931599999999,1.7877655,0.46875,-0.14674377,-0.7950286999999999
9.04744,-6.665572999999999,1.5291901,0.7648925999999999,-0.51638794,-1.1636046999999998
9.837524,-6.9983673,0.7175598000000001,0.9225464,-0.9531555,-1.4352417
10.364243,-7.6878967000000005,-0.14675903,0.8266754000000001,-1.3867188,-1.6600188999999999
10.687453999999999,-8.219406,-0.5753174,0.5763397,-1.6423797999999998,-1.8986359
11.745697,-9.507492,-0.6184082,0.3707428,-1.7052307,-2.1276702999999997
12.519028,-11.080475,0.10942078,0.26741028,-1.5742035,-2.3013152999999997
11.309952000000001,-9.847458,1.1628723,0.25357056,-1.1907043,-2.3045044
10.445648,-8.037445,1.560318,0.25569153,-0.7241211,-2.188385
10.747314,-8.200256,1.2538605,0.34197998,-0.42158508,-2.0211487
10.601272999999999,-9.275253,0.52841187,0.53160095,-0.33529663,-1.8549651999999999
9.962021,-9.30159,-0.1850586,0.76382446,-0.39068604,-1.7154082999999998
9.368256,-8.856262,-0.34786987,0.97688293,-0.53131104,-1.6067505
8.851105,-8.523468,0.2842102,1.1100311,-0.68470764,-1.438446
8.432129,-8.74852,0.9785155999999999,1.0908661,-0.81785583,-1.1891785
7.3666990000000006,-8.6671295,1.6297455,0.9502411000000001,-0.91799927,-0.90901184
6.081024,-7.9512634,1.6249542,0.7659607,-0.96913147,-0.64056396
5.049118,-7.089339999999999,1.7207183999999998,0.60191345,-0.9701995999999999,-0.40620422
4.496048,-6.471634,1.8931122,0.46342468,-0.8732605,-0.1963501
4.290161,-6.272918700000001,1.8117064999999999,0.29510498,-0.6634064000000001,0.08062744
4.2518462999999995,-6.3064423,1.4453888000000001,0.12147522,-0.3842926,0.45133972
3.9884796000000002,-6.495575,0.9545745999999999,0.005355835,-0.08177185,0.86891174
3.603012,-6.636841,0.2554779,-0.034057617000000005,0.17602539,1.1607971000000001
3.3899383999999997,-6.7278137000000005,-0.25927734,-0.17787170000000002,0.44021606,1.3355103000000002
3.5168303999999995,-6.921753,-0.50109863,-0.47508240000000007,0.84288025,1.5794525
3.9501800000000005,-7.3622894,-0.42687988,-0.74458313,1.2476806999999999,1.7573546999999998
4.637314,-8.085327000000001,-0.2137909,-0.9096985000000001,1.4980163999999998,1.6454925999999999
5.120941,-9.167511,-0.23533629999999997,-1.092926,1.5608673,1.3248596000000001
5.49205,-10.23053,-0.27842712,-1.2069092,1.5022888,1.1991577
5.7362519999999995,-10.752472000000001,-0.108444214,-0.96510315,1.2263794,1.3248596000000001
6.5766144,-10.695007,0.13098145,-0.501709,0.9291687,1.4612121999999999
7.891037,-11.370178,-0.24971008,-0.21728516,0.8588562,1.4686583999999998
7.689926,-11.329467999999999,-0.88656616,-0.20663452,1.0335693000000001,1.3365631000000002
6.689147999999999,-9.157928,-0.80036926,-0.36961365,1.3605957,1.22258
6.990814,-7.5873413,-0.26646423,-0.6412505999999999,1.6641998,1.190628
8.523102,-8.358276,-0.39335632,-0.9022522,1.7803191999999999,1.1607971000000001
8.381851,-9.438049000000001,-0.43884277,-0.98747253,1.6918945,1.0713196000000003
7.0626373,-9.160324000000001,0.79177856,-0.9075774999999999,1.4096069,0.9381560999999999
6.7394257,-8.322357,1.8763428,-0.77867126,1.0058745999999998,0.7975464
7.024338,-7.429321300000001,1.3520203000000002,-0.6817321999999999,0.5936127,0.73469543
7.5079649999999996,-6.8211975,0.17886353,-0.5570984,0.24420166,0.7943573
7.15123,-6.076599,-0.5609436,-0.34724426,-0.037017822,0.8710479999999999
6.571822999999999,-5.4708557,-1.0254211,-0.1586914,-0.17443848,0.90727234
6.404236,-5.116516000000001,-1.0780945,-0.036193848,-0.17018127,0.8785094999999999
6.6364746,-4.8004913,-0.45799255,0.0415802,-0.07005310000000001,0.7890166999999999
7.050674400000001,-4.8244324,0.2052002,0.06927489999999999,0.01411438,0.61538696
7.3858643,-5.0542755,0.37278748,0.0415802,0.05885315,0.39593506
7.388244599999999,-5.5402985000000005,0.22914124,-0.022338867000000002,0.03327942,0.15092468
7.2445984,-6.3375699999999995,0.3536377,-0.097976685,-0.0466156,-0.13029480000000002
7.563034,-6.780487,0.81811523,-0.11714172,0.016235351999999998,-0.34654236
7.9365234,-6.8642883,0.8659973,0.06607056,0.12277222,-0.49461365
8.427338,-6.7589417,0.64094543,0.39097595,-0.11158752400000001,-0.74282837
9.080948,-6.890625,0.53559875,0.7201538000000001,-0.7070770000000001,-1.0400391
10.002716,-7.3311615,0.27941895,0.98114014,-1.4005584999999998,-1.2403107
10.855057,-7.979980499999999,-0.058166504,0.9843291999999999,-2.0013733,-1.4373778999999998
11.379379,-8.466003,-0.17547607,0.7798004,-2.3188171000000004,-1.726059
12.104828,-9.234542999999999,-0.082107544,0.53692627,-2.2921906,-2.0232697
12.530991,-10.335875999999999,0.2339325,0.2642212,-1.9427794999999999,-2.2107544
11.467972,-9.394958500000001,1.0144348,0.05116272,-1.4357147,-2.3023682
10.606064,-8.111664,1.4214478000000002,0.0042877196999999995,-0.9329071,-2.26828
10.529449000000001,-8.57135,1.0958405,0.05116272,-0.43437195,-2.1404572
10.330719,-9.677475,0.758255,0.1395874,-0.080703735,-2.1031647
9.677109,-9.368622,0.22434998,0.34197998,0.09826660000000001,-2.0392456
9.365860000000001,-8.784439,-0.029434204,0.6349335,0.055648804,-1.9007721000000002
9.195877000000001,-8.715012,0.46855164,0.93107605,-0.1765747,-1.6578827
8.683517,-9.014282000000001,0.83966064,1.1441193,-0.48657227,-1.3223267
7.74498,-8.750916,1.2873688,1.1750183,-0.77311707,-0.9580078000000002
6.6963196,-8.123642,1.9745177999999999,1.1057739,-1.0149384,-0.6054076999999999
5.5159910000000005,-7.173141499999999,2.367157,1.0280151,-1.1630096,-0.33270264
5.183197,-6.495575,2.2929382,0.93533325,-1.1789856,-0.16651917
4.831238,-6.459671,2.3815307999999997,0.76168823,-0.9978943000000001,0.026290894
4.3619843000000005,-6.653595,2.2450562,0.5230713,-0.6538086,0.32243347
3.7466736000000003,-6.845138499999999,1.8763428,0.33346558,-0.24049377,0.6824951
3.0906525,-6.806823700000001,1.3903198,0.19071960000000002,0.14086914,0.95840454
2.8368683,-6.857101400000001,0.51882935,-0.01914978,0.43595886,1.0382996
3.0427703999999998,-7.0438538,-0.024642944,-0.38772583,0.84288025,1.1661224
3.6437225,-7.3120117,-0.08929443,-0.74246216,1.2753754,1.4409637
4.587036,-7.74057,-0.12280273400000001,-0.99812317,1.4436951,1.5794525
5.171219000000001,-8.5522,-0.39575195,-1.2740173000000001,1.3819122,1.4249878
5.6285095,-9.713394000000001,-0.7524871999999999,-1.4625702,1.3233184999999998,1.319519
6.2510069999999995,-10.711777,-0.64953613,-1.2516479999999999,1.0665893999999998,1.4750518999999997
6.792099,-10.699799,-0.5417938,-0.6923828000000001,0.66285706,1.7147369
7.903,-10.639938,-0.8721924000000001,-0.11502075,0.42210388,1.7562866000000001
8.281296000000001,-11.365387,-1.6407318,0.23439026,0.42317200000000005,1.4953003
6.784911999999999,-10.11322,-1.7819976999999998,0.28445435,0.6415558000000001,1.0830383
6.145660400000001,-8.0159,-1.2528687,0.045837402,0.97817993,0.76771545
7.718658400000001,-8.197861,-1.1858368000000001,-0.4005127,1.3073424999999999,0.61006165
8.683517,-9.596069,-0.9416199000000001,-0.88093567,1.4564819,0.48329163
7.505569500000001,-9.239334,0.5906677,-1.1717528999999998,1.3414306999999999,0.35546875
6.792099,-8.049422999999999,2.1468964,-1.2388763,1.0655212,0.30538940000000003
7.390640299999999,-6.9983673,2.4174347000000003,-1.1717528999999998,0.74168396,0.35546875
8.537460000000001,-6.186737,1.5315857,-0.9853363000000002,0.41358948,0.48542786
9.021103,-5.6049347,0.2842102,-0.64019775,0.09719849,0.6356201
8.228622,-5.0422974,-0.98472595,-0.23112488,-0.10307312,0.74534607
7.0674285999999995,-4.7023315000000006,-1.9400023999999998,0.10336304,-0.14887999999999998,0.7805023
6.5742188,-4.5419160000000005,-2.2751923,0.3004303,-0.09881592,0.7464142
6.5287323,-4.685562,-1.65271,0.34411620000000004,-0.010391235,0.6452179
6.375503500000001,-5.1835629999999995,-0.6064453000000001,0.26315308,0.06843567,0.5099182
6.2294617,-5.815628,0.18603516,0.07673645,0.09613037,0.35758972
6.2510069999999995,-6.452483999999999,0.7798004,-0.13845825,0.08761597,0.17863464
6.4856415,-6.7541504,1.5172119,-0.24923706,0.11531067,0.0071258545
6.969269000000001,-6.7469788,1.9002838,-0.1309967,0.26338196,-0.04295349
7.476837,-6.639236500000001,1.6560822,0.20881653,0.200531,-0.08981323
8.084961,-6.653595,1.0192261,0.5891266,-0.28523254,-0.32949829999999997
8.831955,-6.988785000000001,0.13098145,0.9513091999999999,-0.9094696,-0.56811523
9.557404,-7.6208496,-0.5130615,1.103653,-1.5486298,-0.8014220999999999
10.093703999999999,-8.221802,-1.0230255,0.89378357,-1.9992371,-1.1636046999999998
10.713791,-8.904144,-1.0996399,0.5710144,-2.0056305,-1.5428467
11.592467999999998,-10.115616000000001,-0.44363403,0.28445435,-1.6040344,-1.8592224
11.460785000000001,-10.613602,0.5715026999999999,0.09271239999999999,-1.0213318,-2.0254060000000003
10.215805,-8.861053,1.3975066999999999,0.019210815,-0.5249176,-1.9849243000000003
10.577332,-8.339111,1.2562561,0.024536132999999998,-0.25860596,-1.8144836
10.778442,-8.98555,0.91148376,0.11933899,-0.21917725,-1.6557616999999998
10.304382,-8.726974499999999,0.30815125,0.34197998,-0.30653379999999997,-1.5407104
10.110458,-7.9512634,-0.67826843,0.6178894,-0.47804259999999993,-1.4565582000000001
9.669922,-7.479599,-0.4819335999999999,0.80644226,-0.7113341999999999,-1.3564148
9.258118,-7.764511,0.107040405,0.8458556999999999,-0.89881897,-1.1710663000000001
8.302841,-8.0781555,0.6217804,0.7787323,-1.0032196,-0.9303130999999999
6.693939,-7.7860565,1.0766907,0.6764679,-1.0490264999999999,-0.70448303
5.1808014,-6.8954163,1.2346953999999999,0.60084534,-1.0138702,-0.56385803
4.508026,-6.0502625,1.3927155,0.52627563,-0.90734863,-0.44561768
4.5415497,-5.88266,1.7662201000000002,0.41229248,-0.76353455,-0.28689575
4.6516724,-6.0670166,1.8595886000000001,0.29617309999999997,-0.5760498000000001,-0.055725098
4.5056305,-6.215454,1.3687744,0.23864746,-0.32997129999999997,0.23081970000000002
4.1441040000000005,-6.4644623,0.6888274999999999,0.18112183,-0.08389282,0.43748474
3.8927155,-6.605713000000001,0.26504517,0.010681152,0.26338196,0.5067291
4.0579224,-6.823592999999999,0.14533997,-0.27693176,0.8588562,0.72084045
4.752228,-7.2090607,0.27941895,-0.48999023,1.3638,0.9797058000000001
5.2358704000000005,-7.692688,0.38476562,-0.6029053000000001,1.5672607,1.0287018
5.580627400000001,-8.57135,0.25068665,-0.7669524999999999,1.5246582,0.904068
6.092987,-9.837891,0.14533997,-0.8095703000000001,1.3211823,0.8710479999999999
6.476058999999999,-10.745285,0.27223206,-0.59332275,0.9238434000000001,0.9988860999999999
6.8184357,-10.702194,0.32250977,-0.19171143,0.61172485,1.1671906
7.9365234,-11.303131,-0.12519836,0.07778931,0.6053314000000001,1.2279205
7.582184,-11.698181,-0.71417236,0.1161499,0.86312866,1.2364349
5.9134215999999995,-9.605652000000001,-0.74290466,0.06927489999999999,1.1997528,1.2406921
5.9397583,-7.9560394,-0.37898254,-0.027664185,1.4820403999999998,1.3269806
7.30925,-8.616852,-0.84106445,-0.21408081,1.6119995,1.3791809
7.4959869999999995,-9.227371,-0.7548828000000001,-0.40370178,1.5182648,1.3237915
6.672378500000001,-8.997527999999999,0.04957580599999999,-0.5027771,1.2466125,1.2215271
6.48085,-8.585724,0.9737396,-0.51982117,0.8215790000000001,1.060669
6.859131,-7.915344,0.69122314,-0.5166168,0.33795166,0.88809204
6.875885,-7.3910065000000005,-0.30715942,-0.48999023,-0.04447937,0.7741089
6.5454865,-6.622466999999999,-0.85783386,-0.5038452,-0.18083191,0.71339417
5.899063,-5.870697,-1.1642914,-0.50064087,-0.1563263,0.6686554
5.784134,-5.2362366,-1.6239777,-0.43778992,-0.05619812,0.5983429
6.160019,-4.685562,-1.7460785,-0.3578949,0.09933472,0.47477722
6.483246,-4.4413605,-1.408493,-0.30996704,0.29000854,0.3480072
7.0602417,-4.661621,-0.9871216,-0.27053833,0.39440918,0.21910095
7.601333599999999,-5.2410125999999995,-0.7381134,-0.22474670000000002,0.31770325,0.065704346
7.855117999999999,-5.8970337,-0.33349609999999996,-0.20982361,0.14939879999999997,-0.13882446
7.955673,-6.4884033,-0.13957214,-0.19598389,0.14833069,-0.28475952
8.137634,-6.823592999999999,0.15731812,-0.041519165,0.24420166,-0.31459045
8.350723,-6.890625,0.58587646,0.25036620000000004,0.03327942,-0.4466858
8.851105,-7.1539917,0.82528687,0.6029663000000001,-0.46632385,-0.6757201999999999
9.337128,-7.735778999999999,0.7726288,0.87461853,-1.0223999,-0.88131714
9.827942,-8.31517,0.64334106,0.8234863000000001,-1.5305176,-1.10289
10.206223,-8.576141,0.59783936,0.55610657,-1.8053589,-1.3905028999999998
10.979553,-9.347076,0.51882935,0.35583496,-1.7765961,-1.7207336
11.628387,-10.556152,0.6074219,0.17793274,-1.4921722,-2.0051575
10.560562,-9.861832000000001,1.1365356000000002,0.021331787,-1.0202636999999999,-2.1116943
10.045822,-8.691071,1.5028534,-0.05003357,-0.5760498000000001,-2.0158234
10.416916,-8.952026,1.3855438,0.009613037,-0.32250977,-1.8581543000000003
10.211014,-9.320739999999999,0.9354248,0.21202087,-0.24688720000000003,-1.7292633000000002
9.614853,-8.753311,-0.019851685,0.53479004,-0.2969513,-1.6227417
9.159958,-8.027878,-0.5178528,0.85757446,-0.44181824,-1.4959717
9.100098,-7.683105499999999,0.28181458,1.0418549000000001,-0.5930939000000001,-1.3095398
8.8535,-7.9512634,0.6816406,1.0727539,-0.74009705,-1.0624083999999998
7.828780999999999,-8.0829315,0.93063354,0.9758148000000001,-0.896698,-0.81100464
6.2534027000000005,-7.6232452,1.2466736,0.8266754000000001,-0.9978943000000001,-0.626709
5.238250700000001,-6.914566000000001,1.6249542,0.69351196,-1.0000305,-0.51805115
4.8168793,-6.2920685,2.0032349,0.55503845,-0.9094696,-0.39874268
4.800125,-6.268127400000001,2.2929382,0.37393188,-0.7102661,-0.181427
4.6995697,-6.450088500000001,2.0439453000000003,0.18858337,-0.45460509999999993,0.09339905
4.3308563,-6.608108500000001,1.2730103000000002,0.06288147,-0.16911316,0.38742065
3.9525757000000006,-6.581772,0.5403899999999999,-0.043640137,0.11531067,0.6207123000000001
3.8280792000000003,-6.5410767,-0.058166504,-0.2364502,0.41038513,0.76239014
4.2135468000000005,-6.610504,-0.2928009,-0.5166168,0.8098602,0.9967499
4.8527985000000005,-6.952881,-0.206604,-0.710495,1.186966,1.3173981000000001
5.207138,-7.5897369999999995,-0.1850586,-0.81596375,1.3392944,1.4803772
5.3962708,-8.578536999999999,-0.30955505,-0.99598694,1.3148041000000001,1.2897034
5.8511809999999995,-9.761275999999999,-0.33828735,-1.1920013,1.3009491000000002,1.046814
6.404236,-10.575302,-0.12042236,-1.0641631999999999,1.1273041000000001,1.0904999
6.73703,-10.551361,-0.024642944,-0.59651184,0.7960205,1.3035431
7.642028999999999,-11.113997999999999,-0.33349609999999996,-0.12246704,0.6010741999999999,1.4345703
7.709076,-11.803528,-0.79797363,0.058624268,0.62023926,1.3983611999999999
6.3515625,-10.137161,-0.63516235,0.022399902000000003,0.8183899,1.2886353000000002
5.887085,-7.9512634,-0.16351318,-0.10116577,1.0857697,1.2119293
7.632461500000001,-7.9249268,-0.4125061,-0.31529236,1.2721863000000002,1.1426849
8.750549000000001,-8.837112,-0.6686859,-0.56881714,1.2849731000000002,0.98716736
7.421767999999999,-8.72937,0.40391540000000004,-0.7829437,1.1486206,0.7709198
6.4497222999999995,-8.121246000000001,1.7614288,-0.9331360000000001,0.93237305,0.6175232
6.6532288,-7.3718566999999995,1.9457855,-0.97042847,0.7310333000000001,0.59513855
7.242202799999999,-6.8642883,0.7678375,-0.8575134,0.51690674,0.6462859999999999
7.4121857,-6.2920685,-0.22097778,-0.59651184,0.24847412,0.68888855
7.007568400000001,-5.5809937000000005,-0.63038635,-0.28225708,0.040740967,0.7197876
6.7561800000000005,-5.13089,-1.0589447,-0.03086853,-0.02104187,0.6995392
6.9022217,-4.812454,-1.3151245,0.108688354,0.0045166016,0.6004791
7.2206573,-4.776550299999999,-1.1738586000000002,0.09803772,0.04499817,0.44387817
7.2015076,-5.2099,-0.82910156,0.0032348633000000003,0.07269287,0.28195190000000003
6.978836,-5.8299866,-0.21858215,-0.11076355,0.09080505,0.124298096
6.938141000000001,-6.342346,0.49967957,-0.20770264,0.06417847,-0.056793212999999995
7.1631927,-6.4860077,1.1557007,-0.27374268,0.040740967,-0.23043823
7.3403625,-6.4189606,1.5267944,-0.22686768,0.18028260000000002,-0.26452637
7.740203999999999,-6.3830566,1.3184966999999999,0.04902649,0.22183228,-0.228302
8.23819,-6.227432299999999,0.8133239999999999,0.47514343,-0.12011719,-0.38383484
8.841536999999999,-6.605713000000001,0.078308105,0.8735504000000001,-0.6634064000000001,-0.61073303
9.495148,-7.470016499999999,-0.33110046,1.0802155,-1.199234,-0.78437805
9.933289,-8.111664,-0.4053192,0.96195984,-1.6370544,-1.0474854
10.392975,-8.631210000000001,-0.19224548,0.6860656999999999,-1.8053589,-1.4022217
11.228546000000001,-9.940842,0.16209412,0.45703125,-1.7425078999999999,-1.7420502
11.218979,-10.920059,0.6672821,0.29084778,-1.4719391000000002,-2.0030365000000003
9.820755,-9.531433,1.5124358999999998,0.17260742,-1.0042877000000001,-2.0637512
9.945250999999999,-8.408553999999999,1.9409942999999998,0.061813354,-0.5845642,-1.9732056
10.404938000000001,-8.820358,1.4429931999999999,0.075668335,-0.38110352,-1.8645477
10.1032715,-9.117233,0.6241760000000001,0.24610901,-0.3203888,-1.7633514
9.892593,-8.451645,-0.41490173,0.46875,-0.3438263,-1.6546936
9.660355000000001,-7.771698,-0.63038635,0.66049194,-0.46206665,-1.4831848
9.320374000000001,-7.613678,0.047180176,0.79151917,-0.61972046,-1.2179413000000001
8.894211,-8.0589905,0.54278564,0.83306885,-0.7848358,-0.9196625
7.606125,-8.003921499999999,0.97613525,0.82881165,-0.95848083,-0.6746521
6.0498962,-7.333557000000001,0.9497985999999999,0.81495667,-1.0490264999999999,-0.51698303
5.199951,-6.6344449999999995,1.2730103000000002,0.7489166,-1.0554199,-0.40620422
4.8408203,-6.222641,1.7279053,0.6029663000000001,-0.96699524,-0.27624512
4.721115,-6.308838,1.7949523999999997,0.39736938,-0.7251892,-0.058929443
4.364380000000001,-6.4931946,1.4142609,0.19604492,-0.39601135,0.22444153
3.799347,-6.5003660000000005,1.031189,0.043701172,-0.051940917999999996,0.4768982
3.495285,-6.4189606,0.5738983,-0.08518982,0.28575134,0.64094543
3.8065186,-6.521911599999999,0.30096436,-0.29185486,0.6447449000000001,0.761322
4.4697265999999996,-6.768524,0.3177185,-0.5847931,1.0601958999999999,0.9743805
4.9988402999999995,-7.1803284,0.19801329999999998,-0.84898376,1.4607391,1.1629333
5.436980999999999,-8.0589905,-0.06535339,-1.0077056999999998,1.668457,1.1767731000000001
5.863144,-9.287216,-0.2712555,-1.1983948,1.5981598,0.95414734
6.298889,-10.410095,-0.19941711,-1.3517914,1.4543457,0.91152954
6.689147999999999,-10.776413,-0.046188354,-1.1131744,1.0335693000000001,1.2193909
7.0315094,-10.515442,0.016052246000000003,-0.46336365,0.51264954,1.5155333999999998
7.721039,-11.080475,-0.38616943,0.13745117,0.3304901,1.6231232
7.3714905,-11.216949000000001,-0.9009246999999999,0.40908813,0.5115814000000001,1.5261841
6.203125,-9.181869500000001,-0.97753906,0.34837340000000006,0.93981934,1.3525543
5.66922,-7.024703999999999,-0.5872803000000001,0.010681152,1.3520813,1.2545471000000001
7.0554504,-7.529876700000001,-0.7812195,-0.4835968,1.5576782,1.1778412
7.7832947,-9.675079,-0.9152832000000001,-0.9256897,1.5267792,1.0350952
6.191147,-9.670288000000001,0.36322020000000005,-1.1461945,1.3403625,0.8955536000000001
6.0905914,-8.590515,2.2019653,-1.1270142,1.0090636999999998,0.78157043
6.883072,-7.503539999999999,2.3815307999999997,-0.92141724,0.57870483,0.7272339
7.6803436000000005,-6.8140106,1.1173859,-0.59651184,0.16430664,0.7464142
7.718658400000001,-6.0191345,-0.31913757,-0.21408081,-0.1531372,0.81459045
7.009964,-5.3415833,-1.5545349,0.14491272,-0.26925659999999996,0.8508148000000001
6.5263367,-4.8244324,-2.2895659999999998,0.39524840000000006,-0.21705627,0.7847595
6.629287700000001,-4.551483,-2.1794279999999997,0.46235657,-0.08709717,0.6047363
6.796890299999999,-4.6975403,-1.1379546999999999,0.33451843,0.06311035,0.40446472
7.1105194,-5.324814,-0.017471313,0.099105835,0.16537476,0.22016907
7.318817,-5.9640656,0.85401917,-0.14057922,0.153656,0.032684326
7.421767999999999,-6.421355999999999,1.4693298000000001,-0.26521300000000003,0.017303467,-0.16012573
7.460083,-6.67276,1.7757874,-0.23965454,-0.11053467,-0.31672668
7.764145,-6.648803699999999,1.8045197,-0.041519165,-0.06472778,-0.42643738
8.386627,-6.471634,1.3448334,0.3164215,-0.08815002400000001,-0.6288451999999999
9.030669999999999,-6.27771,0.41827393,0.691391,-0.37045288,-0.8876953000000002
9.507126,-6.6559906,-0.5250397,0.9246825999999999,-0.83277893,-1.1252594
9.983566,-7.513122599999999,-1.1188049,1.0013733,-1.3664703,-1.2999573
10.57254,-8.442062,-1.1571045,0.8639679,-1.8245392,-1.4331207000000001
11.266861,-9.490723,-0.43165588,0.6349335,-2.013092,-1.5822601
11.989914,-10.812332000000001,0.5020752,0.39097595,-1.9204101999999998,-1.7505646000000001
11.716965,-10.855423,1.3616028,0.11187744,-1.5454407,-1.8624115
10.878998,-9.363831,1.9888762999999998,-0.06707764,-1.0959014999999999,-1.8879852
10.19426,-8.547409,1.8141022,-0.09690857,-0.7187958000000001,-1.7654724
9.732178,-9.050201,0.8731841999999999,0.012817383,-0.46739197,-1.647232
9.258118,-9.416504,0.21955872,0.25143433,-0.38323975,-1.6099548000000001
8.468033,-9.052582000000001,-0.2640686,0.5465088,-0.39601135,-1.5471039
7.970047,-8.492339999999999,-0.13957214,0.7925873000000001,-0.45993042,-1.4299164
7.8958282,-8.128433,0.3536377,0.9289398000000001,-0.547287,-1.247757
7.586975,-8.121246000000001,0.52601624,0.9651642,-0.6719208000000001,-1.0219269
6.847167999999999,-7.821975699999999,1.0431671,0.91615295,-0.7944336,-0.81100464
5.650055,-7.1563873,1.7207183999999998,0.8309325999999999,-0.85194397,-0.6096649000000001
4.9198303,-6.2872925,2.2067412999999996,0.773407,-0.84236145,-0.40299988
4.9557495000000005,-5.858719000000001,2.5874328999999996,0.7425232,-0.7571411,-0.17184448
4.800125,-5.9999847,2.6568604,0.6977844,-0.58670044,0.12110901
4.551117,-6.27771,2.2067412999999996,0.58380127,-0.31399536,0.48542786
4.1656493999999995,-6.471634,1.5339813,0.41015625,0.011978148999999999,0.7730408000000001
3.8831330000000004,-6.4860077,0.9833069,0.21627808,0.36990356,0.8667908000000001
4.045944,-6.6990814,0.5020752,-0.055358887,0.81944275,0.9456177
4.299728400000001,-7.1180725,0.27462770000000003,-0.41862488,1.2359619,1.1863708
4.5846405,-7.613678,0.29138184,-0.76589966,1.4916382,1.3738556
5.032364,-8.494736,0.32969666,-1.0918579,1.5331726,1.267334
5.5926056,-9.507492,0.18603516,-1.4135742,1.4618073,0.88490295
6.1576385,-10.592056,-0.103652954,-1.6372833,1.4479523,0.81140137
6.677169999999999,-10.683044,-0.45559692,-1.5339508,1.1922913,1.1085968000000002
7.6252747,-10.335875999999999,-0.6734772,-1.075882,0.84288025,1.3706512
8.511139,-11.214554,-1.1307677999999999,-0.52726746,0.5744324000000001,1.4441681
7.4098053,-10.742889,-1.7460785,-0.14164734,0.61172485,1.2886353000000002
6.301285,-8.363052,-1.7580566000000002,0.005355835,0.8769684000000001,1.0382996
6.5766144,-6.794861,-1.5329895,-0.123535156,1.140091,0.84228516
8.597321,-7.733383,-1.4156799,-0.42927550000000003,1.3158569,0.7048645
8.408188,-9.46199,-1.1092224,-0.7765503,1.4042816,0.58343506
6.327621499999999,-9.181869500000001,0.23153687,-1.0194244000000001,1.2626038,0.43641663
6.260589599999999,-8.339111,1.8284607,-1.0982513,0.92277527,0.34587097
7.07222,-7.4436800000000005,2.4868773999999996,-1.0300751,0.585083,0.40020752
7.9796143,-6.718246499999999,1.8931122,-0.8553772,0.26231384,0.5376281999999999
8.183121,-5.908996599999999,0.8133239999999999,-0.59332275,-0.018920898000000002,0.67077637
7.574997,-5.233841,-0.49870299999999995,-0.27799988,-0.17871094,0.7549286000000001
7.0051727,-4.783722,-1.4037018,0.009613037,-0.20747375,0.75387573
6.732239,-4.589798,-1.7867737000000001,0.14703369,-0.14994812,0.6516113
6.768158000000001,-4.625717,-1.5162354,0.10122681,-0.026367188,0.5099182
6.674774,-4.9632874000000005,-0.80755615,-0.048965454000000005,0.13342285,0.37677002
6.353958,-5.6049347,0.013656616000000002,-0.19598389,0.22608948,0.23721313
6.3084717,-6.260956,0.6170044,-0.29292297,0.22503662,0.08274841
6.5694275,-6.553039599999999,1.1700591999999999,-0.2833252,0.2505951,-0.02909851
7.091369599999999,-6.653595,1.5555267,-0.037246704,0.34646606,-0.049331665
7.721039,-6.59375,1.5794678,0.37606812,0.18135071,-0.17184448
8.460846,-6.622466999999999,0.98809814,0.71055603,-0.26605225,-0.48503113
9.198273,-7.1803284,0.14294434,0.93640137,-0.78804016,-0.7342987
9.801605,-8.070969,-0.3215332,0.93852234,-1.3227997,-0.90901184
10.328323,-8.765289,-0.3047638,0.66581726,-1.6913756999999998,-1.1646729
10.910126,-9.459610000000001,0.025634766,0.43040466,-1.7979126,-1.5012969999999999
11.403319999999999,-10.307144000000001,0.57629395,0.28659058,-1.6540985000000001,-1.8091582999999998
10.534225,-9.593674,1.4693298000000001,0.20030212,-1.2791290000000002,-1.9689484
9.732178,-7.6400146,1.9984589,0.15449524,-0.7976227,-1.8869171000000002
10.471985,-7.764511,1.2801971,0.13105774,-0.43969727,-1.693039
10.831116,-9.102875,0.48771667,0.22692871,-0.33210754,-1.550293
10.292419,-9.174698,-0.17547607,0.47193909999999994,-0.3842926,-1.4703979999999999
9.693863,-8.298416,-0.94641113,0.7489166,-0.5227814000000001,-1.3873138
9.468811,-7.6112823,-0.24491882,0.93107605,-0.7017517,-1.2658691
9.255722,-7.8770294000000005,0.5810852,1.0035094999999998,-0.84342957,-1.0570831
8.355514999999999,-8.15477,1.0695038000000001,0.960907,-0.9808502,-0.8184661999999999
6.6652070000000005,-7.843521000000001,1.3663788000000001,0.83839417,-1.1086731,-0.6235199
5.1664276,-6.955261,1.3328705,0.6903229000000001,-1.1651459,-0.48609924
4.661255000000001,-6.105331400000001,1.5674896,0.5720824999999999,-1.1640778,-0.39874268
4.716324,-5.7581635,2.015213,0.45489502,-1.0447693,-0.23576355
4.637314,-5.80365,1.9960631999999998,0.29510498,-0.7933655,0.006057739300000001
4.385925299999999,-6.057449299999999,1.3448334,0.11721802,-0.43116759999999993,0.27236938
3.9310303,-6.155608999999999,0.8061371,-0.01914978,-0.019973755,0.472641
3.7155457000000003,-6.1987,0.29856873,-0.1821289,0.42956543,0.5706482
4.060318,-6.4429016,-0.053375244,-0.44950867,0.9994812,0.77731323
4.6804046999999995,-6.9169617,-0.14196777,-0.71902466,1.5374298,1.0872955
5.5112,-7.735778999999999,0.028030396000000003,-0.8873290999999999,1.8165436000000001,1.2300415
6.124115,-9.081314,0.16209412,-0.99705505,1.7653961,1.1064758
6.5598600000000005,-10.357422,0.116607666,-1.0013123,1.5012207,1.0159302
6.8902589999999995,-11.02063,0.13098145,-0.7381897,0.9856261999999999,1.1895599
7.079391499999999,-10.908096,0.26026917,-0.18638611,0.33474729999999997,1.4910278000000001
7.8311768,-11.291167999999999,0.092666626,0.33451843,0.023696900000000003,1.665741
7.6204834,-11.803528,-0.47476196,0.54011536,0.13128662,1.6795807
5.9254,-10.084488,-0.6974182,0.49751282,0.54248047,1.5411072000000001
5.1089782999999995,-7.5634003,-0.35743713,0.27380370000000004,1.0538025,1.3440246999999999
6.1073455999999995,-7.244964599999999,-0.25927734,-0.012756348,1.4032135000000001,1.1938171
7.254181,-8.851471,-0.1443634,-0.27587890000000004,1.5672607,1.0681305
6.540710400000001,-9.268066000000001,0.5020752,-0.46548462,1.5129395,0.9093933000000001
5.9469449999999995,-8.801193,1.6512909,-0.62101746,1.2189178,0.72618103
6.557464599999999,-8.0159,1.9697266,-0.7168884,0.8599243000000001,0.60899353
7.127289,-7.285675,0.9426117,-0.63912964,0.4540558,0.58769226
7.4672546,-6.3519287,0.030426025,-0.4367218,0.06524658,0.66119385
7.4433136,-5.612121599999999,-0.7883911,-0.20024109,-0.21066284,0.71125793
7.065033000000001,-5.078216599999999,-1.2001953,-0.006362915,-0.29481506,0.66970825
6.8926544000000005,-4.843582,-1.2385101,0.094833374,-0.21598816,0.5525359999999999
6.9884186,-4.776550299999999,-1.0709076000000002,0.043701172,-0.022109985,0.40872192
7.177566499999999,-4.8292236,-0.96795654,-0.11288452,0.17176819,0.26065063
7.122497599999999,-5.279327400000001,-0.7883911,-0.23751831,0.22183228,0.08381653
7.1296843999999995,-5.834778,-0.005493164,-0.25030518,0.06736755,-0.14521789999999998
7.048278999999999,-6.392624,0.6385498000000001,-0.16722107,-0.022109985,-0.35186768
7.30925,-6.5458527,0.9785155999999999,0.02772522,0.13128662,-0.43603516
7.9413146999999995,-6.555435000000001,0.96894836,0.36541748,0.08761597,-0.54681396
8.657181,-6.67276,0.7175598000000001,0.66049194,-0.43969727,-0.8536072
9.306000000000001,-7.271301299999999,0.18125916,0.8948517,-1.1417084,-1.0879669
9.993149,-8.193069,-0.28082275,0.88101196,-1.8362578999999999,-1.2094116000000001
10.680283,-8.971191000000001,-0.16351318,0.60617065,-2.331604,-1.4001006999999999
11.369812,-9.512283,0.31054688,0.41441345,-2.442398,-1.6674805
11.970749,-10.376586999999999,0.8564148000000001,0.2642212,-2.1068267999999994,-1.9369811999999997
11.369812,-10.405319,1.3208923000000001,0.0884552,-1.4208068999999999,-2.105301
9.959625,-8.521072,1.7710113999999997,-0.09051514,-0.73902893,-2.1670837000000005
10.175094999999999,-8.389389,1.13414,-0.1821289,-0.25646973,-2.0978394000000002
10.440857000000001,-9.880981,0.55474854,-0.084121704,0.022628784,-1.9817352
9.679504,-10.03421,-0.010284424,0.17579651,0.069503784,-1.8624115
9.171936,-9.368622,-0.6255951,0.48898315,-0.078567505,-1.7005005000000002
9.121658,-8.762894000000001,0.38955688,0.73931885,-0.31611633,-1.5194092
9.136016999999999,-8.844299000000001,1.110199,0.88313293,-0.58776855,-1.2882385
8.321991,-8.501923,1.3137054,0.87034607,-0.8082733,-1.0133972
6.966873,-7.525085400000001,1.2658234,0.75849915,-0.9531555,-0.7715911999999999
5.606964,-6.6296539999999995,1.3783569,0.6274719,-1.0074768,-0.56918335
4.7306824,-5.980835,1.8380432,0.50497437,-0.931839,-0.36891174
4.290161,-5.7102814,2.204361,0.40164185,-0.7475586,-0.077041626
3.9238434,-5.7964782999999995,2.1516876,0.2695465,-0.50361633,0.29154968
3.8089142,-6.0382843,1.6632689999999999,0.10549927,-0.20213318,0.6548004
3.6461182,-6.25856,1.1413269,-0.034057617000000005,0.13554382,0.83909607
3.3755646,-6.35672,0.5092621,-0.21302795,0.61491394,0.91152954
3.5958405,-6.591354400000001,0.071121216,-0.45803833,1.20401,1.1512146
4.065094,-6.9792175,0.023239136,-0.6881255999999999,1.5853728999999999,1.3621368
4.768997,-7.9608307,0.071121216,-0.9342040999999999,1.7504883000000002,1.2992858999999999
5.223892,-9.22258,0.18365479,-1.1824188,1.7249298,1.0979462
5.6045685,-10.232925,0.09985351599999999,-1.1802826000000002,1.3978882,1.1522827
6.088196,-10.714172,-0.029434204,-0.8095703000000001,0.8279724,1.3813171
7.175171000000001,-10.671066,0.09027099599999999,-0.30996704,0.47004700000000005,1.571991
8.432129,-11.468338000000001,-0.096466064,-0.0031585693,0.49348450000000005,1.6390991000000001
7.462478599999999,-11.238495,-0.50109863,0.09271239999999999,0.7800293,1.6295166
6.002014,-8.971191000000001,-0.6591034,0.035186768,1.1912231000000002,1.6039581
6.4138184,-7.826751700000001,-0.74050903,-0.09370422,1.4990845,1.5624083999999998
7.8383636,-8.834717,-1.0709076000000002,-0.26521300000000003,1.6237183000000002,1.4377746999999999
7.3068542,-9.653534,-0.4412384,-0.47080994,1.5811157,1.2055358999999999
6.650833,-9.579315,1.0048523,-0.7062378,1.3318481000000002,0.9552002
6.986022999999999,-9.095688,1.9002838,-0.9150238000000002,0.94514465,0.7485504
7.5845795,-8.549805000000001,1.3807526,-1.0013123,0.5211792000000001,0.63456726
7.654007000000001,-7.68071,0.5523529,-0.9810790999999999,0.16751099,0.6718445
7.235016000000001,-6.555435000000001,-0.18266296,-0.8564453000000002,-0.06791687,0.7378845
6.907013,-5.566635,-0.6686859,-0.63487244,-0.16911316,0.7528076
6.907013,-4.6783752,-1.0373993000000001,-0.34405518,-0.16911316,0.71339417
7.242202799999999,-4.166030999999999,-1.3773651000000002,-0.08305359,-0.09774780000000001,0.61006165
7.361908000000001,-4.1085663,-1.5353851,0.07460022,0.0013275146,0.48010254
7.330795299999999,-4.551483,-1.4611664,0.106552124,0.10040283,0.33842468
7.381073,-5.3511505,-0.8027649,0.061813354,0.15579224,0.14666748
7.117706299999999,-6.2178497,-0.0030975342,-0.008483886999999999,0.15153503,-0.11325073
7.1991119999999995,-6.684723,0.7103729,-0.048965454000000005,0.2601776,-0.30819702
7.675552400000001,-6.799652,1.3879242,0.096969604,0.3571167,-0.29754640000000004
8.235794,-6.914566000000001,1.833252,0.3984375,-0.03489685,-0.4051361
8.913361,-7.211441000000001,1.8093109,0.74464417,-0.6911010999999999,-0.659729
9.540633999999999,-7.809997599999999,1.3759613000000002,1.0621033000000002,-1.3781891000000002,-0.78863525
10.091308999999999,-8.398972,0.7678375,1.1004486,-2.045044,-1.0272522
10.474380499999999,-8.530655,0.34165955,0.8735504000000001,-2.410431,-1.4480286
11.06575,-8.896973,0.26983643,0.6189574999999999,-2.3411865,-1.9018401999999999
11.71936,-10.242508,0.34165955,0.40696716,-1.8841858,-2.2725525
10.486343,-10.036605999999999,0.88993835,0.22373962,-1.1864471,-2.4429932
9.715408,-8.348694,1.2418823,0.054367065,-0.55474854,-2.4451141
10.759293,-9.071747,1.0862578999999999,0.014938354499999999,-0.23728943,-2.3726807
10.555786,-9.971969999999999,0.91148376,0.15130615,-0.19041443,-2.2544402999999997
10.404938000000001,-9.318344,0.16688538,0.38139343,-0.20426941,-2.1180877999999996
10.371429,-8.164337,-0.30236816,0.5997772,-0.30227659999999995,-1.9625549
10.086517,-7.7573240000000006,0.21237183,0.7883300999999999,-0.54196167,-1.707962
9.648375999999999,-8.181107,0.7391052,0.88101196,-0.8285216999999999,-1.3479003999999999
8.295653999999999,-8.176314999999999,1.0240173000000001,0.85650635,-1.0799103,-1.0080719
6.6867523,-7.616073599999999,0.91867065,0.7957916,-1.2524872,-0.7619934
5.501617400000001,-6.955261,1.0862578999999999,0.7222748000000001,-1.2887115,-0.6022185999999999
4.745056,-6.4309387000000005,1.5124358999999998,0.55610657,-1.1619415000000002,-0.43815613
4.452957,-6.387848,1.7183380000000001,0.28233337,-0.84661865,-0.19528198
4.302124,-6.6679688,1.4310303,3.0517577999999997e-05,-0.40986633,0.1285553
3.8591919999999997,-6.962447999999999,1.074295,-0.20663452,0.027954102,0.42683409999999994
3.2438812,-6.955261,0.6098175,-0.39091492,0.38908386,0.59088135
3.282196,-6.9911804,0.10942078,-0.6796112,0.76937866,0.8241729999999999
3.8496246,-7.182724,-0.034225464,-0.9895934999999999,1.2135924999999999,1.2577361999999999
4.606186,-7.6352234,0.030426025,-1.1110381999999999,1.5108032,1.4665375
4.986862,-8.312775,-0.17547607,-1.1621704,1.7323761000000002,1.4388428
5.2526245000000005,-9.268066000000001,-0.5322113,-1.1632385,1.8218689,1.4420319
5.535141,-10.247299,-0.53460693,-0.95124817,1.5960236,1.5783844
5.7985077,-10.443619,-0.21139526,-0.52726746,1.1262511999999998,1.7861175999999999
6.693939,-10.745285,-0.15393066,-0.17787170000000002,0.7981415,1.9235381999999999
7.2445984,-11.942397999999999,-0.58488464,-0.17254639,0.8364868000000001,1.9554901000000002
5.8415985,-11.420456,-0.67108154,-0.34191895,1.1283722,1.9490967000000001
5.5638733,-9.24173,0.16688538,-0.49424744,1.5054778999999998,1.9522858
6.40184,-8.715012,0.5786896,-0.5986481,1.7568816999999999,1.9299164
6.6843566999999995,-9.339889999999999,0.54278564,-0.67108154,1.7728577,1.8553467000000001
