accx,accy,accz,gyrx,gyry,gyrz
5.2095337,-8.008713,-3.6207428,-0.87242126,0.78749084,2.4582977
4.6253357,-7.963226299999999,-3.2209015,-1.1184998,0.7757721,2.6415252999999996
4.924621599999999,-8.181107,-3.2999115,-1.2623138,0.76512146,2.940857
5.990036,-8.640792999999999,-3.7117157,-1.3507233,0.86524963,3.2306060000000003
6.624496499999999,-8.597686999999999,-4.1833800000000005,-1.4327545,0.94195557,3.4617767
5.7577972,-8.583328,-4.6909485,-1.4338073999999998,1.0037384,3.5629730000000004
4.397888,-8.217010499999999,-4.238449,-1.3943938999999999,0.9387511999999999,3.4681702000000003
5.393875,-7.7501373,-3.6686248999999997,-1.378418,0.8524780000000001,3.3328705000000003
7.124892999999999,-7.541855,-4.2480164,-1.4071808000000001,0.8535309000000001,3.2796172999999995
7.677948,-7.0390625,-4.6670074,-1.4934691999999998,0.7470093000000001,3.3307495000000005
7.632461500000001,-7.096527,-4.829803500000001,-1.6841582999999998,0.56910706,3.3073120000000005
7.225448599999999,-7.5873413,-4.504196,-1.9600525000000002,0.37097168,3.1837463
6.5263367,-7.831542999999999,-3.6925660000000002,-2.189087,0.27189636,2.9696198
6.2964934999999995,-7.8459167,-2.9934540000000003,-2.1624603,0.41145325,2.685196
6.40184,-7.7956389999999995,-2.4547577,-1.7821503,0.5467377,2.3432465000000002
6.5502777000000005,-7.546631,-1.6934052,-1.1152954,0.5712433000000001,1.9373778999999998
7.175171000000001,-6.9983673,-1.3175201,-0.46548462,0.44660950000000005,1.3813171
7.5462646,-6.904983500000001,-1.5952454,0.0074920654,0.24313354,0.6729126
7.7162630000000005,-7.1659546,-2.0812683,0.29405212,0.0055847169999999995,0.035888672
7.8048399999999996,-7.1515960000000005,-2.210556,0.5699463,-0.20640564,-0.47863770000000005
8.606902999999999,-7.103714,-2.7372742000000003,0.88952637,-0.37258909999999995,-0.896225
9.40657,-7.2377777000000005,-2.8689575,1.0993805,-0.594162,-1.4011536
10.366638,-7.6424103,-2.5265807999999996,1.1739502,-1.041565,-2.1766662999999995
11.283615,-8.224197,-1.408493,1.3049773999999998,-1.4474334999999998,-2.951126
12.126373,-8.6671295,0.30815125,1.6650391,-1.5454407,-3.4848175
12.588455,-8.310379,1.6752319,1.9697113000000002,-1.3600769,-3.8075867
13.160675,-7.776474,1.7614288,1.8120421999999998,-0.9808502,-4.1932220000000004
13.869354000000001,-7.328766000000001,0.81092834,1.5148315,-0.5984191999999999,-4.576706
13.706543,-7.412567,-0.28082275,1.4328156,-0.25965879999999997,-4.7109375
13.081665,-7.558609,-0.43405150000000003,1.5318756000000002,0.1259613,-4.6470184
12.598038,-7.8411255,-0.49391174,1.7491913000000001,0.44021606,-4.4595337
12.174255,-7.472411999999999,-0.8674011,1.9239043999999998,0.7235718000000001,-4.3594055
12.930832,-7.5442350000000005,-1.5138397,1.9718323,0.91212463,-4.399872
13.371367999999999,-8.509109500000001,-1.5258178999999998,2.0581207,0.75979614,-4.3146515
12.86618,-9.665512,-0.46038818,2.1508026,0.44979858,-4.083496
12.863785,-10.814728,-0.15872192,2.123108,0.08441162,-3.8619232000000006
13.560501,-11.700577000000001,-1.5042572,1.9569244,-0.27244568,-3.7085266000000003
13.175034,-12.047729499999999,-1.9926758000000002,1.7193756000000002,-0.5792389,-3.6147766000000003
11.779221000000001,-12.08844,-1.4396209999999998,1.4828796,-0.8871002,-3.4411468999999997
11.384171,-12.162659,-1.2313232,1.1686249,-1.0543518,-3.076828
11.271652,-12.126739500000001,-0.8745879999999999,0.7670288000000001,-1.0106812,-2.5516509999999997
10.553390499999999,-11.679031,-0.35983276,0.42826843,-0.7795105,-1.9273987000000001
10.01709,-11.152298,-0.9081116,0.19071960000000002,-0.44927979999999995,-1.1241913000000001
9.071381,-11.023010000000001,-1.1188049,-0.0798645,0.04925537,-0.1771698
7.9006042,-10.860214,-1.3175201,-0.5357970999999999,0.51478577,0.67930603
6.847167999999999,-10.082092,-1.7819976999999998,-1.0471191,0.77363586,1.4612121999999999
5.949341,-9.054977000000001,-2.2129517000000005,-1.3848114,0.8290405000000001,2.2718658
5.2358704000000005,-8.264892999999999,-2.6223602,-1.3730927,0.7757721,3.0569763
4.5606995,-8.056595,-2.8450165000000003,-1.1717528999999998,0.79707336,3.6673737
3.5383758999999997,-7.6471862999999995,-3.060501,-1.1664276000000002,0.725708,4.0327606
2.5735167999999997,-7.158783000000001,-3.2496338,-1.362442,0.40826416,4.245804
2.2048035,-6.988785000000001,-3.261612,-1.5797577,-0.068984985,4.491882299999999
1.7929993000000002,-6.691910000000001,-3.3717346,-1.713974,-0.54408264,4.9701843
1.0077056999999998,-6.332779,-3.4627227999999994,-1.9621886999999998,-0.74542236,5.459137
1.0531921,-6.354324299999999,-4.0708466,-2.36911,-0.83917236,5.7201385
1.7523041000000001,-7.1563873,-4.798691000000001,-2.7920227000000004,-0.88923645,5.6104126
1.6206207000000001,-7.065399,-4.257599,-2.8655242999999997,-0.46313477,5.107605
1.9725647000000002,-7.479599,-3.0940093999999996,-2.4788360000000003,0.20159912,4.5451508
3.3468322999999995,-8.298416,-2.7588196,-1.9781647,0.7896271,4.3704376
5.1664276,-9.232147,-4.049301,-1.713974,1.217865,4.3502045
6.794494599999999,-10.027023,-5.588775599999999,-1.6532593,1.2593994,4.086014
8.401000999999999,-11.430038,-6.330978400000001,-1.5477905,1.1017456,3.5917358
9.085739,-13.034149000000001,-6.034088,-1.585083,0.8311615,3.0420532000000002
9.636414,-13.857757999999999,-5.696518,-1.7789612000000001,0.53289795,2.5360565
10.349884,-13.577637,-5.289489700000001,-1.7533875,0.32197570000000003,2.1365814
10.965195,-12.864151,-4.554474,-1.3560486,0.24101257,1.7253876
12.19342,-12.507416000000001,-2.7660065,-0.8180847,0.15153503,1.2662659
12.684219,-11.576080000000001,-0.07014465,-0.44204712,0.046066284000000006,0.8486786000000001
11.412903,-11.097244,1.074295,-0.25456238,0.08229065,0.5184479000000001
10.060181,-10.726135000000001,0.99528503,-0.055358887,0.09613037,0.12643433
10.859848,-10.242508,-0.13957214,0.29405212,-0.07110596,-0.27729797
11.712173,-8.954422000000001,-0.46038818,0.8447876,-0.44714355,-0.65867615
11.975539999999999,-7.9368896,-1.2433014,1.5361481000000001,-0.9744568000000001,-1.2743988000000002
12.1862335,-7.9057617,-2.021408,2.1188354,-1.4389191000000001,-2.251236
12.119186000000001,-8.102097,-0.99668884,2.4085999,-1.5795288,-3.2419434
12.42804,-8.226593,0.64811707,2.3787689999999997,-1.3494263000000002,-3.9034730000000004
12.598038,-7.896194500000001,1.6105957,2.2061919999999997,-0.9733886999999999,-4.232635500000001
12.610000999999999,-7.5921326,1.2251282,1.9611816000000002,-0.71240234,-4.549011
12.248474,-7.5011444,0.40631104,1.6639709999999999,-0.32145690000000005,-5.066742
12.490295,-7.721420299999999,0.27462770000000003,1.4029846000000001,0.50413513,-5.769806
12.669861000000001,-7.81958,0.6600951999999999,1.3358765,1.6705933000000002,-6.2257385
12.317917,-7.965622,1.2418823,1.4317474,2.7166900000000003,-6.074478
12.837448,-7.764511,1.7566376,1.8035278000000001,3.3260193,-5.5322569999999995
14.204544,-8.166733,1.2514648000000002,2.251999,3.2887267999999996,-4.9655304000000005
14.652251999999999,-8.810775999999999,0.059143065999999994,2.5673217999999998,2.7678222999999997,-4.543686
13.965117999999999,-9.837891,-1.3821564,2.7100677,2.0231934,-4.348739599999999
13.567688,-11.652695,-2.0716858,2.778244,1.0740508999999998,-4.3157195999999995
14.0920105,-12.837814,-2.2321014,2.9145966,0.04925537,-4.2997437000000005
15.439957000000001,-13.026962,-2.0357819,2.9433594,-0.79548645,-4.179367
17.37207,-13.903244,-1.5497589,2.635498,-1.1917725000000001,-3.9471436
17.518112,-15.902404999999998,-0.9583893,2.0155182000000003,-1.135315,-3.5593872
15.169402999999999,-17.743546,-1.1571045,1.2687683,-0.84661865,-2.9777527000000004
12.533386,-18.50969,-0.9942931999999999,0.68074036,-0.43544006,-2.1511077999999997
10.510284,-17.44426,-0.8721924000000001,0.24824524,-0.043411255,-1.1146088
9.349105999999999,-15.806625,-1.5760956,-0.029800415,0.5009308,0.056121826
8.434525,-14.183365,-2.1363373,-0.37600708,1.0399628,1.0244446
7.179962,-12.639099,-2.2081604,-0.69877625,1.0431519,1.7403107
5.836807299999999,-11.293564,-1.8274841,-0.9544524999999999,0.56059265,2.353897
4.5128174,-10.137161,-1.8226929,-1.1163635,0.038604736,3.2039795
3.3468322999999995,-8.949631,-2.5672912999999995,-1.2505951000000002,-0.29801940000000005,4.24794
2.293396,-7.726196300000001,-3.2927399,-1.6553955000000002,-0.6516876,4.913727
1.5751343,-6.720642,-3.8386078,-2.222107,-1.2460938,5.031967
0.5049286000000001,-6.0143433,-3.340622,-2.4127959999999997,-1.8703461,5.167267
-0.20855713,-6.1987,-2.9647217,-2.1805573,-2.3379974,5.7094879999999995
-1.4439545,-5.5881805,-2.2680206000000003,-2.0538025,-2.3901977999999997,6.2186737
-1.2117156999999998,-5.475647,-2.775589,-2.2988129,-2.0865936,6.385925299999999
0.11946106,-5.832382,-3.4986267,-2.4681854,-1.6391754,6.141983
1.1824799,-6.047867,-4.2240753,-2.3222504,-0.98724365,5.6849823
1.1298065000000002,-6.483612,-4.401244999999999,-2.1997375,-0.039154053,5.329178
1.491333,-8.066177,-4.5449066,-2.2391509999999997,0.758728,5.0692596
4.0818634,-9.912109,-5.768341,-2.315857,1.2530059999999998,4.8135986
7.9053955,-11.396514999999999,-7.4203339999999995,-2.3147888,1.4862976,4.485489
10.598877,-13.371735000000001,-7.037261999999999,-2.223175,1.4266510000000001,3.8633727999999996
11.769638,-16.105911,-5.3637238,-2.0292969,1.1582031000000002,3.0452576000000002
13.012238,-17.511307000000002,-4.607147,-1.6372833,0.84181213,2.3112946
14.135117000000001,-17.190475,-4.784317,-1.2239532,0.39227295,1.7882384999999998
14.870132,-16.151398,-3.9678955,-0.8638915999999999,-0.051940917999999996,1.3280486999999999
15.298691,-15.059647,-2.2153473,-0.42713928,-0.38642883,0.74534607
14.673813,-13.941544,-1.6024323,-0.072402954,-0.47804259999999993,0.20526123
13.397689999999999,-12.550522,-1.2145691,0.09803772,-0.26605225,-0.16865539999999998
12.540573,-11.389327999999999,-0.8219146999999999,0.14916992,-0.11798096,-0.44136047
12.243698,-10.446014,-0.5106659,0.14491272,-0.059387207000000004,-0.7268524000000001
12.918854,-9.246521000000001,0.035202026000000004,0.17900085,0.048202515,-1.1305847
13.538955999999999,-8.173919999999999,0.38476562,0.43145752,0.10145569,-1.5588226
13.397689999999999,-7.903366,0.8779601999999999,0.98220825,-0.06578064,-2.028595
12.475937,-7.1515960000000005,1.5651093,1.5254974,-0.40879822,-2.6539154
11.997086,-6.7254179999999995,1.5890503,1.9515991000000001,-0.64208984,-3.447525
12.301147,-6.7972565000000005,2.1277466,2.2264404,-0.51745605,-4.2528687000000005
12.377761999999999,-6.8690796,2.0894318,2.0975342,-0.09881592,-4.862198
11.6595,-6.818802000000001,1.2394867,1.7555846999999998,0.42849729999999997,-5.1903076
10.790405,-6.713455000000001,0.61460876,1.7736968999999998,0.96325684,-5.1626129999999995
10.646759,-7.0510406,0.087875366,2.060257,1.5544738999999999,-5.0454254
11.683456,-8.169128,-0.42208862,2.3063354,2.1723328,-5.0486298
12.442413,-9.22258,-0.1491394,2.4916840000000002,2.702835,-4.967666599999999
12.533386,-9.699019999999999,0.92585754,2.4970092999999998,3.0415955,-4.5703278
13.074478,-10.254471,0.85162354,2.3585205,3.3867339999999997,-3.9609832999999997
13.991454999999998,-10.932037,-0.039016723999999996,2.2935486000000003,3.7350769999999995,-3.3527222
14.472686999999999,-11.312714,-0.8721924000000001,2.2488097999999996,3.990738,-2.9255524
14.360168,-12.823456,-2.6463012999999997,2.076233,4.1697083,-2.8744202000000003
13.8741455,-14.8585205,-3.7356567000000003,1.9441376,4.2570496,-2.9873352000000004
12.911667,-16.149002,-2.373352,1.7800903000000001,4.250671400000001,-2.919159
12.712952,-16.761917,-1.1355591,1.4700928,4.5745087,-2.7529755000000002
13.050537,-16.919937,-1.3007507,0.98646545,4.854675299999999,-2.3598938
12.612396,-16.687698,-1.7412872,0.57315063,5.061325,-2.0019683999999995
11.288406,-15.876068,-2.2392882999999997,0.6125641,5.5002135999999995,-1.7132874
10.019485000000001,-14.441939999999999,-2.313507,0.97688293,5.751617400000001,-1.3202056999999998
9.0833435,-12.904861,-1.5282135000000001,1.1867371000000002,5.441635,-0.96759033
8.525497,-11.303131,-0.8027649,1.2836761,4.6224365,-0.8184661999999999
9.739365,-9.833099,-0.7381134,1.5691681,3.640274,-0.7960968
10.594086,-8.889786,-0.09408569,1.7715607,2.6634216,-0.7747803000000001
9.442474,-8.339111,0.042388916,1.521225,1.5033417,-0.69595337
8.310013,-7.6017,-0.0007019042999999999,1.2506561,0.6447449000000001,-0.37957764
7.0147552,-7.000763,-0.23773193,1.1356049,0.25912476,-0.009918213
6.828003,-5.966461,0.10942078,0.78619385,-0.041290283,0.1796875
6.488037,-5.2841187000000005,1.8093109,0.120407104,-0.5259857,0.33415222
5.685974,-4.9082184,2.9345856,-0.42074585,-1.0713959,0.78582764
5.032364,-4.043915,1.8907166000000002,-0.88093567,-1.6764679,1.2992858999999999
4.3308563,-2.6361237,1.1197815,-1.4700316999999998,-2.3241425,1.3834381000000002
3.9334105999999998,-1.3695983999999999,1.5243988000000002,-2.378708,-3.1049805,1.2662659
3.4306335,0.023834229,1.2658234,-3.177658,-4.167053,1.5048828
2.3484497,1.0389709999999999,0.46855164,-3.1680603,-5.278122,2.0758667
1.1776886,1.9894714,0.90190125,-2.9848328,-5.807556,2.4934540000000003
0.5168915,3.3469849000000003,1.7949523999999997,-4.2194824,-5.7628174,2.592514
1.1489563,3.600769,0.8731841999999999,-6.0027313,-5.3686676,2.605301
1.3979645,4.1370697,-0.30715942,-5.312439,-4.942566,2.7725525
0.88560486,3.758789,0.0040893555,-2.8847046,-5.122589,2.6617584
1.5894928,1.9894714,0.13337708,-1.6202393,-4.8445587,2.6180877999999996
4.022003,1.2592316000000001,-0.50109863,-2.6503447999999996,-4.1436157,3.3818817
5.355575599999999,1.1826172,-1.9998627,-3.4951019999999997,-3.5523987,4.1584625
5.0634765999999996,-0.7518921,-2.3542023,-2.6098632999999998,-3.1369476,4.039139
4.642105,-3.7518309999999997,-0.30236816,-1.3965302,-2.8823395,3.2838745000000005
6.270157,-5.80365,0.42785645,-1.3858795,-2.2144318,2.7810669999999997
9.490356,-5.6959230000000005,-3.0892181,-2.2444763,-1.50177,3.100647
12.337067,-8.774857,-4.650238,-2.6737822999999996,-1.4389191000000001,3.7398071
11.89653,-11.849014,4.2705535999999995,-2.2210388,-1.6082916,3.9528656000000004
11.240524,-10.800353999999999,10.349426,-1.7693787,-1.4154816000000001,3.5097046
10.68985,-9.078918,6.3223877,-1.618103,-0.7262573,2.7778777999999997
9.945250999999999,-9.79718,-1.5808716,-1.6649779999999998,-0.037017822,2.1621552000000004
11.32193,-12.193787,-1.6167908000000002,-1.6266327,0.059921265,1.9181976000000003
13.347412,-11.475525,4.620101999999999,-0.86709595,-0.24794006,1.6998291
14.487060999999999,-9.512283,5.9201508,0.11933899,-0.57284546,0.73150635
13.718520999999999,-8.518677,1.4717255,0.85118103,-0.74542236,-0.5787810999999999
11.465575999999999,-9.617614999999999,-2.1195679,1.4445343000000002,-0.6559448,-1.5886536
10.802383,-11.109207000000001,-1.3246917999999999,1.9111175999999999,-0.5153350999999999,-2.3172912999999995
12.9021,-11.537765499999999,2.0008545,2.1060638,-0.44714355,-2.8989257999999998
15.351364000000002,-9.684662,3.3679352,2.2743683,-0.49827576,-3.0778809
15.964279000000001,-7.206664999999999,3.7055206,2.6397552,-0.5238495,-2.889328
16.064835000000002,-7.9871674,3.3607483,2.9944916,-0.4812317,-2.7891998
17.374466,-13.98465,1.8931122,3.1169891,-0.53982544,-3.0022583
17.676132,-14.992599499999999,4.682358,3.0211182,-0.8040161,-3.2877502
18.937881,-11.817886,6.671936,2.7707825,-1.2109528,-3.3878784
19.447845,-10.101242,5.6974945,2.3862305,-1.6913756999999998,-3.4208983999999996
18.097519000000002,-10.453201,4.311249,1.9675751,-2.0887298999999997,-3.4507294
16.160598999999998,-10.805145,2.9776764,1.6725006000000002,-2.1494446,-3.4113160000000002
14.410445999999999,-10.917679,1.0288085999999999,1.44133,-1.7787323,-3.3218384
12.629166,-11.099625,-0.2425232,1.1622313999999998,-1.2397003,-3.2323456000000004
10.452835,-11.348633,0.37997437,0.78086853,-0.8540802,-3.255783
9.16954,-10.984711,0.39193726,0.4261322,-0.61865234,-3.2163696
8.975601,-9.928864,-0.76924133,0.22053528,-0.46418762,-3.000122
8.690704,-9.138779,-1.9304351999999998,0.031982422,-0.2554016,-2.5175629
7.3834686000000005,-8.837112,-2.6008147999999998,-0.24391174,0.14726257,-2.0562897
6.507187,-8.542618,-2.981491,-0.56030273,0.40505979999999997,-1.4586792
6.3324127,-8.621628,-3.0102234,-0.9352722,0.43807983,-0.5319060999999999
6.377899,-9.028641,-2.2632293999999997,-1.3432617,0.41784668,0.35546875
6.483246,-9.138779,-1.5617218000000002,-1.4434052,0.41891480000000003,1.1490784
6.617325,-9.303986,-1.8442383000000002,-1.2974548000000001,0.44447327,1.7701262999999998
7.0315094,-9.210602,-2.5625,-1.0343475,0.43807983,2.2633514
7.148834,-9.782822,-3.2209015,-0.70944214,0.40187073,2.7043762000000005
6.456909,-9.87619,-3.065277,-0.47080994,0.34220886,3.133667
4.716324,-9.730148,-3.2328796000000004,-0.5847931,0.24208069,3.5139769999999997
4.038757299999999,-9.952805,-4.0876007,-1.029007,0.28894043,3.8420715
3.5455627,-11.130753,-4.894455000000001,-1.5765533,0.41145325,4.0711059999999994
1.1800841999999998,-10.398132,-4.554474,-1.9824218999999996,0.53608704,4.3661804
0.7251892,-9.737335,-4.329422,-2.2934875,0.7310333000000001,4.6846924
1.6038666000000001,-9.780426,-3.1011963,-2.5427551,0.93981934,4.855133
2.887146,-9.751694,-2.0261993,-2.7259827000000003,1.0974883999999998,4.7912292
3.8591919999999997,-9.749298,-1.6072083000000001,-2.8037415,1.2327728,4.5472717000000005
4.6708374,-9.631989,-1.8202971999999997,-2.8165283,1.2924194,4.24794
5.073059,-9.224976,-2.4978637999999997,-2.8048096,1.2476806999999999,3.9549866000000002
5.520767,-8.523468,-3.9607086000000002,-2.6886902000000004,1.0761718999999998,3.7163696
5.834411599999999,-8.0159,-4.9160004,-2.4522095,0.7949524,3.4042510000000004
6.274948,-7.9847717000000005,-4.7747498,-1.9930724999999998,0.49986267,2.891861
6.2294617,-8.3510895,-3.4507446,-1.2836151000000002,0.36032104,2.2367249
6.18396,-8.894577,-2.3087158,-0.5752106,0.4039917,1.5240631000000002
6.804061999999999,-9.452423,-1.4492035,-0.09051514,0.44979858,0.75813293
8.185516,-10.273636,-1.0182343,0.27061462,0.25166320000000003,0.112579346
9.736969,-10.967957,-0.9392395,0.6221466,-0.08389282,-0.29647827
10.673096000000001,-11.121185,-0.7931824000000001,0.93000793,-0.32357788,-0.6927643
11.556549,-11.394119,-0.88417053,1.1121674,-0.5973510999999999,-1.4235229999999999
11.930054,-11.446793,-0.26167297,1.3092346000000001,-0.99575806,-2.3236847000000003
12.480713,-11.389327999999999,0.50686646,1.5553131000000002,-1.3654022,-3.0523224
13.277985000000001,-10.72374,1.8069153000000002,1.8195038000000001,-1.6381226,-3.5263671999999997
13.816680999999999,-9.665512,2.9106445,2.060257,-1.8298645,-3.750061
14.238068,-9.275253,2.5946045,2.2328186000000003,-1.9299927,-3.7639160000000005
14.635498000000002,-9.174698,1.4046936,2.3127136000000004,-1.8991089,-3.7287597999999997
13.876541,-8.657547000000001,0.75346375,2.3361511000000004,-1.7552948,-3.7095947
12.54776,-8.415726,0.38716125,2.282898,-1.5699463,-3.6712341
11.422485,-7.1875,0.47094727,2.1209717,-1.3174743999999998,-3.5785675
11.728943,-6.256164599999999,0.17407227,1.9526671999999998,-1.1321106,-3.4262238
12.262848,-6.828369,0.04957580599999999,1.8205718999999998,-1.0351715,-3.1929321
11.8103485,-8.425308,0.042388916,1.6703644,-0.96699524,-2.9905396
10.936461999999999,-10.182648,0.037597656,1.3795471000000001,-0.87538147,-2.887207
9.909348,-11.67424,0.0040893555,0.9886017,-0.79655457,-2.7945251
8.506348,-12.062103,0.17167664,0.58380127,-0.6506195,-2.6358032000000002
7.685135000000001,-11.837050999999999,0.054367065,0.21948242,-0.418396,-2.473877
7.361908000000001,-11.389327999999999,-0.16830444,-0.0990448,-0.11904907,-2.3279419999999997
7.048278999999999,-10.900909,-0.56333923,-0.46548462,0.15258789,-2.2075652999999997
6.540710400000001,-10.340667999999999,-1.1211853,-0.79252625,0.41784668,-1.9678802
6.274948,-9.790009,-1.5210266000000001,-0.9832001,0.7246399,-1.4991608
5.865539599999999,-9.404541,-1.5880584999999998,-1.0812073,1.0601958999999999,-0.9526825000000001
5.5303497,-9.033432000000001,-1.6455231,-0.96829224,1.266861,-0.33909607
5.6716156,-8.592895500000001,-2.3949127,-0.7797394,1.1539458999999999,0.22123718
5.877502400000001,-8.267288,-3.0126037999999995,-0.69984436,0.8599243000000001,0.7559967
5.599777,-8.252930000000001,-3.127533,-0.6870575,0.5201110999999999,1.4974213
5.585418700000001,-8.391785,-3.0676727,-0.6540375,0.18881226,2.2015686000000003
5.930176,-8.760498,-3.2711792,-0.54112244,-0.028503418,2.6638947
6.4664764,-9.1770935,-3.9415587999999997,-0.36747742,-0.11691284,2.9174194
6.013977,-9.129196,-3.7931212999999997,-0.32273865,-0.10839844,2.9888
4.7666015999999996,-9.435654,-2.9647217,-0.49745178,-0.037017822,2.9909209999999997
4.0483400000000005,-9.643951,-2.4451904,-0.7264862,0.06097412,3.0708159999999998
3.4330292,-9.581711,-1.7412872,-0.94592285,0.16218567,3.1709595
3.4737244,-9.4739685,-1.7125549,-1.1408691,0.23036194,3.1645659999999998
3.9789123999999996,-9.421294999999999,-2.6630554,-1.296402,0.20904541,3.05484
3.0738982999999998,-8.72937,-2.6965790000000003,-1.4029236,0.2708435,2.9195557
2.8129272000000003,-7.941681,-2.3422394,-1.4210358,0.5243683000000001,2.8087616
4.2925415000000005,-8.142792,-2.2416840000000002,-1.3869476,0.87164307,2.7938537999999995
6.0403137000000005,-8.738953,-2.3805389999999997,-1.2825469999999999,1.2721863000000002,2.7906494
7.505569500000001,-8.66951,-3.1179504000000002,-1.1589813,1.5044098,2.6681519000000002
8.441696,-8.774857,-4.0804290000000005,-1.1920013,1.4777832,2.4891815
8.640411,-9.090897,-4.1833800000000005,-1.4103851,1.2444916000000001,2.270813
8.446487,-8.944855,-3.7045288,-1.6362152,0.9430236999999999,2.1237946
8.2789,-8.391785,-2.9455720000000003,-1.6756287,0.70866394,2.0460358
8.159180000000001,-7.738174400000001,-2.1459045,-1.5328827,0.5339508000000001,1.9299164
7.8814545,-7.182724,-1.4372253000000001,-1.2324829,0.41677856,1.7509613000000002
7.637253,-6.9720306,-0.8051605,-0.8777466,0.28575134,1.4452209999999999
7.464859,-7.10849,-0.43884277,-0.46868896,0.08441162,0.97224426
7.618088,-7.419739,-0.19941711,0.008560181,-0.16485596,0.51312256
7.993988000000001,-7.364669999999999,-0.050979614000000006,0.41654968,-0.45886229999999995,0.091278076
8.072998,-7.132446300000001,-0.7740326,0.75956726,-0.7763213999999999,-0.37957764
8.503952,-7.041458,-1.7939606,0.9651642,-1.1661986999999998,-0.96014404
8.772095,-7.5849457,-2.277588,1.0695496000000002,-1.6423797999999998,-1.7612151999999999
9.159958,-8.197861,-1.7269287,1.3145752,-2.0674133,-2.6730804
9.995529,-8.700638,-0.91767883,1.6767578,-2.234665,-3.4208983999999996
10.524658,-8.626419,0.073516846,1.9047241000000001,-2.24852,-3.9077300000000004
10.934067,-8.135605,0.66249084,1.8642425999999999,-2.1899261,-4.2155914
11.721756,-7.683105499999999,0.8013458000000001,1.6906128,-2.0802002,-4.3796387
12.001877,-7.704650999999999,0.94740295,1.505249,-1.8927154999999998,-4.4840393
12.315521,-8.31517,0.30096436,1.359314,-1.6413116,-4.541565
12.64592,-8.195464999999999,-0.21618652,1.1792755,-1.3270568999999999,-4.49469
12.770416,-7.5897369999999995,-0.8889618,0.9917908000000001,-0.96273804,-4.354065
13.684998,-8.051819,-1.5042572,0.90763855,-0.5068054,-4.119720500000001
14.264404,-8.896973,-0.77882385,0.7723541,-0.06259155,-3.8363495000000003
13.416854999999998,-9.7660675,0.011260986,0.46661377,0.24847412,-3.590271
12.202988000000001,-11.003860000000001,-0.26885986,0.19923401,0.5296936,-3.351654
11.415298,-12.095627,-1.2313232,-0.047912598,0.8215790000000001,-3.1194305
10.515075999999999,-12.339828500000001,-1.6048278999999999,-0.37174988,0.93130493,-2.9159697999999996
9.804001,-11.980698,-1.5569305,-0.58799744,0.99201965,-2.694397
9.195877000000001,-11.521011,-1.4492035,-0.58906555,1.0069427,-2.507965
8.39621,-11.216949000000001,-1.6335449,-0.6551056,0.8290405000000001,-2.3843994
7.6803436000000005,-11.001465,-1.7508698,-0.74671936,0.6000061,-2.059494
7.096161,-10.879364,-1.5353851,-0.6732178000000001,0.46577454,-1.245636
6.3132477,-10.395736999999999,-1.5832671999999999,-0.5581665,0.44340515,-0.2506714
5.9062347,-9.739730999999999,-2.4020843999999997,-0.41542053,0.4828186,0.56851196
5.4465485000000005,-8.896973,-2.5194092,-0.3110199,0.42849729999999997,1.204483
5.1089782999999995,-8.307999,-2.7420654,-0.34510803,0.28894043,1.9064941000000002
5.0826416,-8.39418,-3.2520293999999996,-0.26948547,0.12063599,2.7033080000000003
4.9198303,-8.817963,-3.0820465,-0.15229797,-0.11798096,3.227417
5.152069,-9.028641,-2.6439056,-0.20556639999999998,-0.35554504,3.4713593
5.369934,-8.844299000000001,-3.182602,-0.5357970999999999,-0.5046692,3.6364746
4.5535125999999995,-8.686278999999999,-3.419632,-0.9810790999999999,-0.5110626,3.8239593999999997
2.7937775,-9.126816,-2.7013702,-1.3208923000000001,-0.43544006,4.009323
1.704422,-9.332718,-2.3589935,-1.6191711000000002,-0.26818848,4.121169999999999
2.195221,-9.263275,-2.3853302000000003,-1.9494019,0.09826660000000001,4.0785675
2.9350433,-8.619232,-2.811493,-2.080429,0.48814392,3.9549866000000002
2.676468,-8.09491,-3.5536957,-1.9419403000000002,0.7576599,3.8356779999999997
2.2814178,-7.8914029999999995,-3.5872192000000003,-1.7949370999999998,0.9238434000000001,3.8910675
3.9405975,-8.200256,-4.104369999999999,-1.7384796000000002,0.96751404,4.0966644
6.167206,-8.619232,-5.2966766,-1.8098602,0.8588562,4.110519399999999
7.464859,-8.949631,-6.254364,-1.9707031000000004,0.66178894,3.7462006000000003
8.348328,-9.835495,-6.395614599999999,-2.0868225,0.48495483,3.292389
9.284454,-10.821899,-5.543289,-2.0484772,0.44340515,2.9962463
9.736969,-10.675858,-4.463501,-1.8087921000000002,0.49028015,2.76828
9.801605,-10.036605999999999,-3.7548065000000004,-1.4924011000000001,0.5350189000000001,2.4369812
9.531067,-9.466782,-2.4571533,-1.0588378999999999,0.5243683000000001,1.9576262999999998
9.193481,-8.995132,-0.96318054,-0.5901184,0.48388672,1.3791809
8.673935,-8.779648,-0.85543823,-0.18959045,0.3773651,0.78157043
8.353119,-8.98555,-1.4204712,0.06927489999999999,0.14407349,0.29473877
9.095322,-8.726974499999999,-1.8753662,0.2642212,-0.18829346,-0.11538696
10.816742,-7.9440764999999995,-2.3063202,0.61468506,-0.50361633,-0.53616333
11.697815,-7.570572,-2.2153473,1.0812683,-0.7060088999999999,-0.97398376
11.556549,-7.812392999999999,-1.2983704,1.3891296,-0.9808502,-1.5438995
11.688232000000001,-8.159546,0.09027099599999999,1.5979309,-1.3675385,-2.2895966
12.461563,-8.377426,0.7438965,1.9356232,-1.6999054,-3.012909
13.242080999999999,-8.037445,1.3304749,2.2434845,-1.7989654999999998,-3.6510010000000004
13.605988,-7.5442350000000005,1.402298,2.2125854,-1.7489013999999998,-4.237961
13.641907000000002,-7.1563873,0.99768066,1.9856873,-1.7297363000000001,-4.689636
12.849426,-6.9169617,0.44461059999999997,1.776886,-1.7307892,-4.9112089999999995
12.502258,-7.6280365,-0.039016723999999996,1.6842194,-1.6903076000000001,-4.922928
12.854218,-8.707825,0.31532288,1.6938019,-1.5752716,-4.815338
12.480713,-8.549805000000001,0.9521941999999999,1.6746216,-1.421875,-4.6779175
12.631546,-8.178711,0.092666626,1.5254974,-1.2226562,-4.5532837
13.455154,-8.805984500000001,-0.79078674,1.2879333,-0.96913147,-4.3966827
13.390518,-9.722961,-0.28082275,0.9726104999999999,-0.5558014,-4.098404
12.545364,-10.419678,0.07591247599999999,0.7212219,-0.104141235,-3.7383422999999993
12.167084,-11.477921,-1.3414612,0.57740784,0.28681946,-3.4113160000000002
11.728943,-12.469116,-2.4188537999999995,0.38459778,0.55633545,-3.172699
10.694641,-12.991058,-2.3518066,0.07246399,0.60214233,-2.9756165
9.461624,-13.158646,-1.6862183000000002,-0.14804077,0.47109985,-2.6283417
8.439300999999999,-12.91922,-1.1283722,-0.25883484,0.34541320000000003,-2.1404572
7.661194,-12.358978,-0.9392395,-0.36428833,0.41252136,-1.6376495
7.165588400000001,-11.707764,-1.4372253000000001,-0.46655273,0.60746765,-1.0357665999999999
6.7753296,-11.145126,-1.9663391,-0.59225464,0.65327454,-0.23362732
6.037918,-10.70459,-2.5672912999999995,-0.7520446999999999,0.48176575,0.73576355
5.278961,-9.969574,-2.5361632999999997,-0.9288788,0.17816162,1.712616
4.986862,-9.275253,-2.4308167000000003,-1.0013123,-0.21598816,2.6031647
4.958130000000001,-8.6671295,-2.8833313,-0.8223572,-0.42158508,3.3360748
4.953354,-8.588119500000001,-3.7045288,-0.54751587,-0.33422852,3.7153015
4.1728363,-8.813171,-3.5560913,-0.46868896,-0.050872803,3.80159
3.0236206,-8.834717,-3.1227417,-0.67214966,0.21331787,3.8782959999999997
2.4466248,-8.722183,-2.9958496,-1.0322113000000002,0.40612793,4.0476684999999994
1.5727386,-8.674301,-2.8210754000000002,-1.4391479999999999,0.5541991999999999,4.251129
0.9430542,-9.292007,-3.0509186,-1.8013306,0.6841583000000001,4.390686
0.84968567,-10.027023,-3.6446837999999997,-2.0218353,0.8002776999999999,4.3246307
1.2782440000000002,-10.264053,-4.097183,-1.9739075000000001,0.8567351999999999,4.0806885
1.9414368000000002,-9.871399,-3.6925660000000002,-1.7097168000000003,0.91212463,3.9017334000000004
3.2534637,-9.878586,-2.555313,-1.3858795,1.1443481000000002,3.9081116000000002
5.7673798,-10.074921,-2.3542023,-1.2601776000000002,1.3840332,3.977356
8.154388,-10.108429,-3.4124449999999995,-1.5584563999999999,1.4522095,3.8932037000000004
8.966034,-9.97435,-4.7029114000000005,-2.0090637,1.2657928,3.7142334000000004
9.102492999999999,-10.419678,-5.3349915,-2.2593994,0.9760437,3.436203
9.499939,-11.185822,-5.2847137,-2.112381,0.7534026999999999,3.1059723
9.550217,-11.219345,-4.530533,-1.6862793000000003,0.56166077,2.622345
9.660355000000001,-10.70459,-3.3453980000000003,-1.2122344999999999,0.33155823,2.0204773
9.830338000000001,-9.969574,-1.7077789,-0.6838684,0.02583313,1.4431
9.317978,-9.311157000000001,-0.2928009,-0.06814575,-0.22770691,0.8508148000000001
8.386627,-8.952026,0.16688538,0.4453125,-0.43009949999999997,0.28941345
8.163971,-8.494736,-0.53460693,0.7968445,-0.76246643,-0.2048645
9.078552,-7.781265299999999,-2.5122223,1.0269469999999998,-1.1203918,-0.69488525
9.782455,-7.2880554,-3.5249634,1.298584,-1.3451691000000001,-1.1870421999999998
10.524658,-7.163558999999999,-2.7875519,1.7982025000000001,-1.4133453,-1.6483002
11.108841,-7.309616,-0.76924133,2.3127136000000004,-1.4761963,-2.1969147
12.210175,-7.58255,1.0000763000000001,2.5374908,-1.8074951000000001,-2.9159697999999996
13.474304,-7.805206299999999,1.1676636,2.5289764,-2.317749,-3.6041260000000004
13.742462,-7.6495820000000005,1.4525757,2.2338867000000002,-2.7332153,-4.1996155
13.843017999999999,-7.1970825,1.9768982,1.7364197000000001,-2.9473267000000005,-4.637436
13.493469000000001,-7.096527,1.6560822,1.5127106000000001,-2.9718322999999995,-4.81427
12.904494999999999,-7.367065400000001,0.95936584,1.6543883999999998,-2.7822112999999997,-4.730118
12.854218,-8.092514,0.17886353,1.8418732,-2.554245,-4.576706
12.949982,-8.817963,-0.005493164,1.8226929,-2.315628,-4.4084015
12.420867999999999,-9.043014999999999,1.0024719000000002,1.6053925,-1.8618164000000001,-4.273117
12.018631,-8.980758999999999,1.2179413000000001,1.3433228000000002,-1.3302611999999998,-4.0739136
12.392136,-9.337494,-0.34547424,1.1079101999999998,-0.6911010999999999,-3.7170410000000005
12.100037,-10.199417,-1.3366699,0.8170929,0.08547974,-3.1801453
11.5972595,-11.521011,-2.1578827,0.44638062,0.7203826999999999,-2.55484
11.092087,-13.347794,-2.3757477000000002,0.10122681,0.9302368000000001,-2.1127625
10.225388,-14.504180999999999,-0.92726135,-0.14697266,0.7161255,-1.8890533
8.673935,-14.463485999999998,0.8947296,-0.35682678,0.3954773,-1.6898499
7.357132000000001,-13.390884,1.4717255,-0.7616272,0.48495483,-1.3692017
6.4521180000000005,-11.817886,0.75346375,-1.4551239,1.2807007,-1.0730591
6.3826904,-10.613602,-0.48912048,-1.7310181,1.8889770000000001,-0.90901184
6.2366333,-9.895355,-1.2624511999999999,-1.6937408,1.8069457999999998,-0.79714966
5.554291,-9.438049000000001,-1.6622772000000001,-1.5531311,1.5044098,-0.44987488
4.642105,-9.186661,-2.2991333,-1.2324829,0.7992096,0.19886779999999998
3.71315,-8.786835,-2.7779846,-0.86709595,-0.0061340330000000005,0.9573364
3.9142608999999995,-8.205048,-2.9192352,-0.44204712,-0.5068054,1.7797241000000001
4.613373,-7.8818207,-2.8282623,0.045837402,-0.6303711,2.41568
4.800125,-7.869858,-2.6367187999999997,0.38032532,-0.3480835,2.5264740000000003
4.5846405,-8.173919999999999,-2.8498077,0.36860657,0.055648804,2.4540252999999996
4.5798492,-8.736557000000001,-3.86734,-0.06175232,0.33155823,2.6660156
4.8384247,-8.952026,-2.6486970000000003,-0.74458313,0.3731079,3.0463257
4.6205597,-9.145966,-1.3031464,-1.4210358,0.15791321,3.3637695
3.5958405,-9.890564,-1.2576599,-1.8940125,-0.09135437,3.529953
2.8105316000000005,-10.745285,-1.0134583000000001,-2.047409,-0.07537842,3.5373992999999997
2.8320923,-10.54657,-1.1571045,-1.7320862000000001,0.15791321,3.4266205000000003
2.4298553,-9.193848,-0.4915161,-1.139801,0.58296204,3.1933289
3.210373,-8.099701,0.17646789999999998,-0.6966553000000001,0.8929596,2.9962463
6.3467712,-7.910553,-0.9392395,-0.66682434,1.0751190000000002,2.9845276000000003
8.525497,-7.922530999999999,-3.2328796000000004,-0.8841399999999999,1.1997528,2.9142303
8.106506,-8.396576,-5.0309295999999994,-0.91929626,1.2476806999999999,2.7459105999999998
7.8263855,-9.224976,-5.9119873,-0.9608306999999999,1.4255829,2.5179443
8.468033,-10.163497999999999,-5.5289154,-1.3059844999999999,1.1528778,2.210083
9.171936,-10.596848,-3.9176178,-1.4849396000000001,0.32197570000000003,1.9043578999999997
9.442474,-10.30954,-1.9807129,-1.0886688,-0.34062195,1.6273803999999998
9.54303,-9.7708435,-0.0007019042999999999,-0.35896300000000003,-0.6591338999999999,1.2705231000000001
9.660355000000001,-8.738953,0.9737396,0.21095276,-0.81359863,0.80500793
9.468811,-7.402984599999999,0.71276855,0.50709534,-0.88923645,0.34054565
8.372269000000001,-6.8379517000000005,-0.98472595,0.60191345,-0.96487427,-0.17823792
8.362686,-6.320801,-2.3901215000000002,0.550766,-1.0021514999999999,-0.74069214
9.1623535,-5.9640656,-1.9807129,0.5454406999999999,-0.96380615,-1.1881104
9.765686,-5.3080597,-1.2672424,0.6221466,-0.9797821,-1.6067505
9.756119,-4.812454,-1.5473633,0.63279724,-1.2216034,-2.2576294
9.976379,-5.8850555,-1.1020355,0.6732788000000001,-1.6562195,-2.8989257999999998
10.936461999999999,-7.4053802,0.758255,0.8948517,-1.9768677,-3.2632446
12.006668,-7.8914029999999995,2.4198303,1.2527771,-2.0674133,-3.5029296999999997
12.451981,-7.4748077,2.276184,1.5393371999999999,-2.0375977,-3.7372894
12.492691,-7.2353973,1.153305,1.6895447000000001,-1.8192138999999998,-3.7575226
12.760834,-7.2042694,-0.007888794000000001,1.8024596999999998,-1.740387,-3.5764312999999994
13.163070999999999,-7.510727,-1.2792052999999999,1.8962096999999998,-1.7222747999999999,-3.3580475
12.985901,-8.149979,-1.6455231,1.8333588,-1.4527588,-3.1513824
12.56691,-8.590515,-1.5425719999999998,1.7705078,-1.0447693,-2.9085083
12.942795,-8.396576,-2.2273102000000002,1.6288147,-0.6207885999999999,-2.7039795
12.614792,-8.41333,-2.2368927000000003,1.2133636,-0.28630066,-2.6038360000000003
11.156723,-9.292007,-0.9823303,0.6477050999999999,-0.10839844,-2.4142303
10.165527,-10.510651,0.43025208,0.11401367,-0.102005005,-2.1606902999999997
9.559799,-11.444397,0.9521941999999999,-0.29078674,-0.14567566,-1.9753418000000003
8.2789,-11.956757000000001,0.5715026999999999,-0.5304718,-0.07324219,-1.916748
6.9094086,-11.329467999999999,0.107040405,-0.7051696999999999,0.17602539,-2.0200806
6.047500599999999,-9.943237,-0.050979614000000006,-1.0183563,0.5201110999999999,-2.10849
5.580627400000001,-9.078918,-0.6184082,-1.4274292,0.8929596,-1.9625549
5.357971,-8.762894000000001,-0.9799346999999999,-1.9408875,1.1667174999999999,-1.5524292
5.1305237,-8.269684,-1.4372253000000001,-2.3723145,1.3222504,-0.77371216
5.1137543,-7.3957977,-2.8019257,-2.3573914,1.1422272,0.16371155
4.747452,-7.189895599999999,-3.7380524,-1.8492737000000001,0.8087920999999999,0.7336273
5.2645874,-8.142792,-4.408432,-1.0407256999999999,0.69480896,0.99142456
6.2845306,-8.736557000000001,-4.353363,-0.47401428,0.6916199000000001,1.1821136
6.7657623,-8.693466,-3.5513,-0.18426514,0.5797576999999999,1.4995575
7.304458599999999,-9.047806,-2.926422,0.17472839999999998,0.1259613,1.8500214
7.369095,-9.89296,-3.5800322999999996,0.33558655,-0.34275818,2.1493683
6.3036804,-10.199417,-4.2168884,0.20562744,-0.49827576,2.240982
5.7027282999999995,-11.307922,-5.016556,0.009613037,-0.49082947,2.065216
4.934189,-12.390106,-5.227249,-0.150177,-0.29162598,1.8873137999999998
2.7889862,-10.649521,-2.9120482999999995,-0.14590454,0.0013275146,1.8596191000000002
3.4857025,-8.997527999999999,-0.28321838,-0.13206482,0.13981628,1.8255310000000002
4.876739499999999,-7.9320984,1.1461181999999999,-0.29504395,0.16751099,1.6433716
5.784134,-7.3622894,0.19082642,-0.5315399000000001,0.3027954,1.3898315
5.899063,-7.122864,-1.5569305,-0.8276825000000001,0.5222473,1.1682587
6.48085,-6.708664,-1.8107147000000001,-0.9757538,0.62023926,1.0809021
7.484024000000001,-6.1699677,-2.5050354,-0.8777466,0.692688,1.0958252
8.482407,-5.1979218000000005,-3.2831572999999996,-0.69984436,0.6873627,1.1554718000000002
9.334732,-3.9290008999999997,-3.017395,-0.67533875,0.5712433000000001,1.2034148999999998
9.016312,-3.1341248,-2.4188537999999995,-0.71369934,0.46044922,1.2875671
8.568588,-3.1173706,-2.0333862000000003,-0.7435303000000001,0.35606384,1.4398956
8.8535,-2.7079619999999998,-2.2440796,-0.8266144,0.07376099,1.6444244
9.454452499999999,-1.9873047,-3.096405,-0.59332275,-0.37471008,1.891571
9.909348,-1.395935,-3.2783660000000006,0.042648315,-0.9552765,1.8372498
10.007507,-1.1924286,-3.340622,0.84265137,-1.5390472,1.2982178
9.79921,-1.4916992,-2.6822052000000003,1.5084534,-1.9630279999999998,0.4300232
9.679504,-2.403885,-1.6191864,1.776886,-2.2740784,-0.49674988
9.696259,-3.1413116000000003,-1.2792052999999999,1.6820831000000003,-2.457306,-1.3148803999999998
9.636414,-3.2346802,-1.5928497,1.4530486999999999,-2.5531769,-1.8080901999999999
9.066589,-3.0886383,-1.3438568000000002,1.3443909,-2.3933868,-1.9891815
8.989975,-4.072647,-0.8674011,1.3433228000000002,-1.9118958,-2.185196
10.199050999999999,-7.1803284,-1.2959747,1.1984558,-1.1395721,-2.3726807
11.123199000000001,-9.227371,-0.44602966,0.8756714,-0.34701538,-2.347107
12.202988000000001,-9.191452,1.0288085999999999,0.53585815,0.19520569,-2.1031647
13.366577,-8.276871,1.9314116999999997,0.29405212,0.5350189000000001,-1.7452393
13.840622,-6.988785000000001,1.8428345000000002,0.23332214,0.8130646,-1.3638763
13.881332,-6.859497,0.29617309999999997,0.19497679999999998,0.8599243000000001,-1.122055
13.845413,-7.874649000000001,-1.4468079,0.10549927,0.6031951999999999,-1.1231232
12.911667,-9.239334,-2.1722412,0.06607056,0.25273132,-1.2392426
11.230942,-9.962387,-1.4132843000000002,0.005355835,0.031158447000000002,-1.3851776000000002
10.27327,-9.450027,-0.40054320000000004,-0.01914978,-0.03489685,-1.3340454
9.042648,-8.353485000000001,-0.74050903,-0.043640137,-0.057266235,-1.1614685
7.2445984,-7.470016499999999,-1.8179016,-0.21195984,-0.19468689,-1.0837097
5.487259,-6.701477000000001,-2.4499664,-0.47294617,-0.40133667,-0.8514862
4.4314117,-6.27771,-2.751648,-0.76908875,-0.5153350999999999,-0.35614014
3.6892089999999995,-5.4780426,-2.4882812000000003,-0.9768219000000001,-0.5099945,0.25639343
3.0284119,-3.8236542,-2.138733,-1.059906,-0.56858826,0.6302948
3.2007904,-2.3464355,-1.973526,-1.4018555,-0.8210601999999999,0.44174194
3.5383758999999997,-2.1405334,-1.6072083000000001,-2.3115997000000004,-1.0064087,0.5780945
3.8759612999999997,-2.8468169999999997,-1.5617218000000002,-2.6407623,-0.3054657,2.1387177000000004
3.7011871,-4.213913,-1.4156799,-1.9419403000000002,1.0058745999999998,3.1826782000000002
3.2151642000000002,-5.202713,-1.2001953,-0.7168884,1.9720612000000002,2.848175
3.500061,-5.4445343,-1.9112854,-0.09370422,2.3757935000000003,2.2729340000000002
3.0547485,-5.3918610000000005,-2.4547577,0.16940308,2.177658,2.3485717999999998
2.2263488999999996,-5.8491516,-2.550537,0.2216034,1.6013488999999999,2.5392609
2.3891602,-6.823592999999999,-2.1961823,-0.060684204000000005,0.8514099,2.495575
4.201568599999999,-7.7669067,-1.8274841,-0.48040770000000005,0.41358948,2.3762665000000003
7.9652557,-8.485168,-2.9719086,-0.6891937,0.3262329,2.3443146
11.515854,-13.489044,-6.6326447,-0.59757996,0.42317200000000005,2.3198090000000002
8.116089,-16.630233999999998,-4.152252,-0.32806396,0.63835144,2.1195374
8.966034,-17.015701,1.1485138000000001,-0.04257202,0.93769836,1.7040863000000002
13.886107999999998,-13.852966,2.9178314,-0.20982361,1.1507416000000001,1.2470856000000001
15.392075,-12.131530999999999,-1.329483,-0.7435303000000001,1.0644531000000002,0.9243164
13.684998,-12.596008,-5.3110504,-1.2857361,0.7619170999999999,0.7016754
12.356216,-10.817108000000001,-6.59433,-1.6106415,0.5158539000000001,0.5472107
11.575714,-7.5370636,-6.618286,-1.6777648999999997,0.33155823,0.5056609999999999
9.863861,-5.8132324,-5.3445587,-1.5137024,0.08015442,0.56318665
8.19989,-5.104553,-2.6678467,-1.1302185,-0.16485596,0.5780945
7.606125,-4.886673,-0.69981384,-0.6295470999999999,-0.24475098,0.566391
7.8311768,-4.359955,0.21476746,-0.14164734,-0.3949585,0.5429535
8.638031,-3.1820068,-0.060562134000000004,0.29510498,-0.93504333,0.6761017
8.8702545,-2.2434845,-2.1530914,0.43040466,-1.9118958,0.76771545
7.917373700000001,-1.7119598000000003,-3.4794769999999997,0.56355286,-3.305252,0.5248413000000001
7.1943207,-1.8556213,-3.3430176,1.1164246000000002,-4.608078,-0.24427795
6.772933999999999,-2.6672516,-2.052536,2.0836945,-5.329254,-1.3329773
6.8495482999999995,-3.9792786,-0.92007446,2.95401,-5.473068,-2.393982
7.1871339999999995,-5.3104553,-0.0030975342,3.17984,-5.311142,-3.445404
8.173553,-6.095749,0.76065063,2.7750397,-5.05336,-4.4573975
8.324387,-6.560226400000001,1.6943816999999999,2.2583922999999997,-4.816864,-5.188171400000001
8.429733,-7.0989227,1.6943816999999999,2.0123138,-4.4461517,-5.4257355
8.45607,-7.6759186,1.1628723,1.884491,-3.7516022000000007,-5.3788605
9.696259,-9.078918,-0.46038818,1.6352081,-2.8439941,-5.3937683
13.21814,-11.846619,-1.0421905999999999,1.2208252,-2.0375977,-5.4459686
16.51735,-13.287932999999999,0.8276825000000001,0.658371,-1.3025513000000002,-5.2978973
18.277084,-13.484253,3.1117554,0.15875244,-0.44502258,-4.6438293
16.751967999999998,-11.473129,4.6057434,-0.074539185,0.48495483,-3.5093231
13.95076,-9.066956,4.0766144,-0.121414185,1.2679291000000001,-2.4983826000000002
12.700989,-9.610443,1.9146576000000002,-0.1352539,1.6152038999999998,-1.8933105
12.214966,-12.083649000000001,0.82051086,-0.14804077,1.5214538999999998,-1.5939789
10.481552,-13.259201000000001,1.7997284,-0.17359924,1.2093353,-1.4331207000000001
8.791260000000001,-12.938385,2.573059,-0.1309967,0.7949524,-1.3308563
8.211853,-12.356583,2.0224,0.094833374,0.4540558,-1.2094116000000001
8.305237,-12.4978485,0.74150085,0.26208496,0.27403259999999996,-1.1891785
8.118484500000001,-13.292725,-0.6447449000000001,0.19284058,0.21971129999999997,-1.3766631999999999
6.8615265,-13.824233999999999,-1.3318787,-0.08200073,0.16644287,-1.6397858
4.6588593000000005,-13.448348999999999,-0.8626251,-0.3110199,0.29853820000000003,-1.5385742
3.5479584,-11.916061000000001,-0.2640686,-0.30889893,0.89082336,-0.720459
3.5958405,-9.938446,-0.25927734,-0.42927550000000003,1.5981598,0.44813538
3.974121,-8.434891,-0.2760315,-0.60183716,2.0136108,1.6103363000000002
4.0626983999999995,-7.496353,-0.40054320000000004,-0.47294617,2.030655,2.4721375
4.235092,-7.067794999999999,-0.33589172,-0.14485168,1.7515564,2.9813384999999997
4.508026,-7.436508,0.35842896,-0.18319702,1.3041382,3.1954498
4.984466599999999,-7.793243400000001,0.36799622,-0.6327362,0.7193146,3.292389
6.0187683,-8.202652,-0.716568,-1.125946,0.22929382,3.2615051
6.825607300000001,-8.288834,-1.9160613999999998,-1.5914764,-0.10946655,3.1059723
7.282913000000001,-10.3598175,-2.8330536,-1.9312897,-0.43009949999999997,2.879074
5.791321,-12.392502,-2.3159027,-2.1113281,-0.5984191999999999,2.6819916
3.4402160000000004,-11.662262,-2.3805389999999997,-2.0761719,-0.34275818,2.6138152999999997
2.0108794999999997,-10.285599000000001,-2.8857117000000003,-1.8577881,0.024765015,2.8055725
2.6070251,-8.619232,-3.1323242000000002,-1.694809,0.41145325,3.2167664
4.546341,-7.4508667,-3.7931212999999997,-1.7576599,0.7619170999999999,3.5235595999999996
6.0067900000000005,-6.416580000000001,-5.830581700000001,-2.0346222,0.93130493,3.6386108
7.007568400000001,-6.4860077,-7.6908875,-2.331833,1.0996093999999998,3.6450042999999996
8.163971,-6.732605,-7.5879364,-2.4500732000000003,1.2743225,3.5054474
8.975601,-7.429321300000001,-6.297455,-2.4383545,1.3190613000000002,3.149643
9.612457000000001,-8.686278999999999,-4.851364,-2.2348938,1.1379700000000001,2.5243377999999996
10.112853999999999,-9.739730999999999,-3.3430176,-1.8822936999999997,0.7544708000000001,1.8681335
9.736969,-10.005478,-2.0381775,-1.7012023999999997,0.6085205,1.5751953
8.556625,-9.708603,-0.9081116,-1.6585846000000002,0.5957489,1.6646729
7.479233,-9.198639,-0.661499,-1.5797577,0.46577454,1.8841095
7.539092999999999,-8.504318,-1.3438568000000002,-1.4689636000000001,0.21118164,1.8681335
8.032288000000001,-8.104492,-2.1147918999999997,-1.2601776000000002,-0.2266388,1.5858459999999999
8.233398,-8.092514,-2.0477448000000003,-0.9618988000000002,-0.8210601999999999,1.2129974
8.752945,-8.509109500000001,-0.93444824,-0.47187805,-1.5273285,0.67930603
9.645980999999999,-8.918517999999999,0.0064697266000000005,0.43785095,-2.2240142999999994,-0.033355712999999995
10.517471,-8.920914,0.93063354,1.5254974,-2.6522522,-0.86213684
10.900542999999999,-8.765289,1.5674896,2.3201752,-2.9111022999999996,-1.7473755000000002
10.1032715,-8.549805000000001,0.6170044,2.7867584,-3.1646422999999997,-2.7082367
8.843933,-8.774857,-0.16351318,2.9806366,-3.2019196,-3.5934752999999997
8.333953999999999,-8.9640045,0.19801329999999998,2.9689178,-2.966507,-4.2624664
9.219818,-8.755707000000001,0.34405518,2.7548065,-2.6692963,-4.833435
10.337906,-7.991958599999999,0.8444519,2.4011383,-2.4956512,-5.372466999999999
10.845474000000001,-7.855484,1.3831482,2.0709076,-2.4487762,-5.7794037000000005
11.906113000000001,-8.379822,2.0056305,1.919632,-2.24852,-5.991379
13.373748999999998,-8.968796000000001,3.6935425000000004,1.9420012999999998,-1.9129486,-5.9700775
13.819076999999998,-8.638397,4.7685394,1.8812866000000001,-1.5965729,-5.771942
13.591629000000001,-8.260100999999999,3.8635406000000003,1.6788939999999999,-1.3824463,-5.5237274
13.754439999999999,-8.23616,2.3767395000000002,1.4360046,-1.2216034,-5.225464
13.443192000000002,-8.865845,1.0575256000000002,1.1941986,-1.0096129999999999,-4.771652
12.480713,-9.79718,0.17886353,1.0152283000000002,-0.66552734,-4.1037292
12.1622925,-11.073288,-0.716568,0.86502075,-0.21705627,-3.4528656000000004
12.3993225,-12.495453,-1.6096039,0.658371,0.17176819,-2.9788208
12.317917,-14.030135999999999,-1.6742554,0.44212340000000006,0.35818479999999997,-2.7561798
12.243698,-15.782684,-1.3438568000000002,0.23545837,0.26445007,-2.7295380000000002
11.388962,-16.536865,-0.7524871999999999,0.055419922,0.07908630000000001,-2.6571045
9.966812,-16.189697,-1.0517578,-0.15122986,0.054595947,-2.3364563
8.784073,-15.076401,-1.5305939,-0.3855896,0.09826660000000001,-1.7516327
7.8647003,-13.903244,-1.6167908000000002,-0.64019775,0.13128662,-1.1199341
6.926162700000001,-13.026962,-1.5904541,-0.87667847,0.24952698,-0.67144775
5.741043,-12.36377,-1.3989258,-1.1248931999999998,0.60746765,-0.31459045
4.9365845,-11.303131,-1.1977997,-1.2814789,1.1006775,0.3565216
4.8575745,-10.036605999999999,-1.4731445,-1.1451263,1.6524811000000001,1.4633331
5.1855927,-9.033432000000001,-1.6814422999999998,-0.9320679000000001,2.3406525,2.4487
5.700332599999999,-8.540237,-1.8801575000000001,-0.84259033,2.7039032000000005,2.907837
5.554291,-8.533050999999999,-2.0357819,-0.8053130999999999,2.4556885,2.9706879
4.776184,-8.801193,-2.3087158,-0.71902466,1.7419738999999999,3.212494
3.5671082000000003,-8.875411999999999,-2.076477,-0.8234253,0.7779083000000001,3.8623046999999997
3.0571442,-8.722183,-1.8179016,-1.0694885,-0.14248657,4.380035400000001
3.6796265,-8.624023,-1.7556610000000001,-1.3613739,-0.8274536,4.377899
4.4481660000000005,-8.873016,-2.0573273000000003,-1.6841582999999998,-1.2120056000000001,4.213851999999999
3.9956665,-9.641556,-2.2416840000000002,-1.9046631,-1.1896361999999998,4.0274353
2.2742310000000003,-9.914505,-1.0373993000000001,-1.9067993000000003,-0.9105377,3.8473968999999997
1.5631561,-8.583328,-0.3909607,-1.870575,-0.34062195,3.8644410000000002
3.7466736000000003,-7.7908479999999996,-1.9400023999999998,-1.8428802,0.39227295,4.016769399999999
6.318039,-7.726196300000001,-4.1833800000000005,-1.8790894,0.8173218000000001,4.010391
6.974060000000001,-7.953644000000001,-5.7348175,-2.0420837,0.9536743000000001,3.6822815
6.871109,-8.98555,-7.487381,-2.1986694,0.9387511999999999,3.3094330000000003
8.10173,-9.883377000000001,-8.227188,-2.2455444,0.8695221,3.034607
10.371429,-9.969574,-7.3269652999999995,-2.3115997000000004,0.7981415,2.9099730999999998
11.207001,-9.833099,-6.0316925,-2.364853,0.5531311,2.8705444
10.807175,-9.670288000000001,-4.5185699999999995,-2.1336975,0.13768005,2.7832031
10.19426,-9.124419999999999,-2.7181243999999998,-1.598938,-0.33636475,2.4774627999999996
9.315582000000001,-8.652756,-1.7772063999999999,-0.9075774999999999,-0.78804016,1.8968964
8.494369500000001,-8.420517,-1.0996399,-0.17254639,-1.2716675,1.1139374
8.594925,-7.963226299999999,-0.80755615,0.4921875,-1.5007019,0.24786377
9.710632,-7.438903999999999,-1.3342743000000001,0.95451355,-1.3696747,-0.5020752
10.143982000000001,-7.692688,-1.6335449,1.3412018,-1.0799103,-0.9803772
9.964416499999999,-8.0589905,-1.2361145,1.6938019,-0.85194397,-1.4299164
9.837524,-8.973587,-0.92007446,1.9452057,-0.93078613,-2.1244812
10.155945,-9.995911,-0.7740326,2.030426,-1.2247925,-2.8658905
10.73056,-10.120407,0.43504333,1.9974060000000002,-1.4538269,-3.4485931000000005
11.740905999999999,-9.643951,2.0606994999999997,1.9771576000000002,-1.5401154,-3.8683167000000003
13.208557,-8.959213,3.035141,1.9931488000000002,-1.5443726,-4.2230377
14.580429,-8.523468,3.3583527,2.0815582,-1.6040344,-4.5852356
15.564453,-8.439667,3.2123107999999996,2.1997986000000003,-1.6668854,-4.9335785
15.547684,-8.813171,2.2474517999999994,2.2104492000000002,-1.6040344,-5.1434326
14.113570999999999,-8.889786,1.8763428,2.060257,-1.3941649999999999,-5.1263885
13.098419,-8.688675,1.3328705,1.8738251,-1.1981659,-4.9825745
13.153488000000001,-8.310379,0.54756165,1.6096496999999999,-0.9755249,-4.75354
13.007446,-8.9664,-0.51545715,1.2581023999999998,-0.5845642,-4.4637910000000005
12.260452,-10.003082000000001,-1.2792052999999999,0.98753357,-0.20852661,-4.1378174
11.515854,-10.821899,-1.2169647,0.7744751,0.03967285,-3.750061
11.257278,-12.160263,-0.96318054,0.5667572,0.20372010000000002,-3.3303528
11.369812,-13.460312,-0.553772,0.42826843,0.27403259999999996,-2.9308777000000004
11.034622,-13.972671499999999,-0.1850586,0.33451843,0.20372010000000002,-2.6070404
10.27327,-13.88887,-0.6088256999999999,0.22799683,0.048202515,-2.3417816000000005
9.042648,-13.63269,-1.4851074,0.045837402,-0.06578064,-1.9966431
8.044266,-13.046111999999999,-1.6335449,-0.17787170000000002,-0.066848755,-1.4810486
7.3116302,-12.251236,-1.8562164,-0.36322020000000005,0.017303467,-0.9707947
6.5287323,-11.384537,-2.3039245999999998,-0.5048981,0.21864319,-0.5084685999999999
5.8583527,-10.553757000000001,-2.107605,-0.6220856,0.5009308,0.079559326
5.144882,-9.821121,-1.9519806,-0.6923828000000001,0.7267760999999999,0.7655945
4.587036,-9.311157000000001,-2.0980225,-0.7797394,0.91212463,1.38237
4.1536865,-8.920914,-1.8179016,-0.8266144,1.014389,1.9736023
4.2279053,-8.676697,-1.621582,-0.84472656,0.9984130999999999,2.5254060000000003
4.417053,-8.504318,-1.7628326,-0.9246216,0.981369,3.0559082
4.534363,-8.973587,-2.2153473,-1.0790863000000002,0.82476807,3.5320739999999997
4.0507355,-9.337494,-2.3973082999999997,-1.2442017,0.43489075,3.8623046999999997
3.775406,-9.052582000000001,-2.1363373,-1.4380798000000001,-0.023178099999999997,4.0338135
3.7370910000000004,-8.6719055,-1.894516,-1.6916046000000002,-0.36512756,4.2042694
3.4330292,-8.772461,-2.0118408,-2.0356903,-0.47697449999999997,4.369385
3.2438812,-9.0047,-2.1602783,-2.3307648,-0.50361633,4.3352965999999995
3.768219,-9.205811,-2.7851562000000003,-2.3510132,-0.44076538,4.218108999999999
3.6628722999999996,-8.501923,-2.9168396,-2.1837616,-0.07537842,4.083893
3.780182,-7.735778999999999,-3.1418915000000003,-1.9856261999999998,0.42849729999999997,4.0306244
4.634918,-8.23616,-4.1259155,-1.8524628,0.7033385999999999,3.9091796999999997
5.7434387000000005,-9.009491,-4.961487,-1.8524628,0.84394836,3.57576
6.9620820000000005,-9.622406,-5.203308,-1.9046631,0.9845581,3.2327423
8.499161,-10.469955,-5.2847137,-1.8886870999999998,1.1134643999999998,2.9919891
9.416138,-11.343842,-5.17218,-1.9472656000000004,1.1432953000000001,2.7150269000000002
9.629227,-11.509033,-4.817840599999999,-2.01651,0.981369,2.4060973999999997
9.909348,-10.955978,-3.9008635999999997,-1.807724,0.6255646,2.1376494999999998
9.906952,-10.424469,-2.107605,-1.3603058000000001,0.27616882,1.8585509999999998
10.062576,-10.086884,-0.69981384,-0.8734894,0.07589722,1.4654694
9.552612,-9.689453,0.025634766,-0.4005127,-0.045547485,0.8816985999999999
9.413742,-8.940063,0.15492249,0.033050537000000005,-0.10519409,0.17863464
10.199050999999999,-8.126038000000001,-0.34547424,0.41336059999999997,-0.11691284,-0.44348145
10.553390499999999,-7.922530999999999,-0.9033203000000002,0.820282,-0.11158752400000001,-0.8323059000000002
10.244537,-7.7740784,-0.6040496999999999,1.298584,-0.28309629999999997,-1.10289
10.206223,-7.4484710000000005,-0.6830596999999999,1.7534637,-0.6964264,-1.5460358
10.577332,-7.419739,-0.85543823,2.016571,-1.1779175,-2.2331237999999995
11.082504,-7.788452,0.020843506,2.110321,-1.6125488000000001,-2.9085083
11.848647999999999,-7.7190247,1.1365356000000002,2.1753082000000004,-1.9108276000000002,-3.431549
12.6961975,-7.357498,1.6082001,2.1593169999999997,-1.9577026000000002,-3.8491364000000003
13.694579999999998,-7.1539917,1.8260651,1.9931488000000002,-1.8500976999999998,-4.230499299999999
14.297913000000001,-7.381439,1.7877655,1.8993988000000002,-1.7414398000000002,-4.498947
14.329041,-8.250534,1.3639832,1.9398804,-1.5614166,-4.65448
13.443192000000002,-8.997527999999999,1.0862578999999999,2.0197754,-1.2801818999999999,-4.7460938
12.301147,-9.179489,0.9857024999999999,2.0037993999999997,-1.0309143,-4.825989
12.025818,-8.66951,0.7941741999999999,1.8440093999999998,-0.84236145,-4.8749847
12.351425,-8.466003,-0.11323547,1.5329437,-0.5227814000000001,-4.787628
12.248474,-9.086105,-0.9823303,1.2602386,-0.19894409,-4.5820465
11.683456,-9.864227,-1.0733032,1.0301361,0.12063599,-4.2688445999999995
11.247711,-10.70459,-1.111618,0.80644226,0.5392914000000001,-3.8693847999999997
11.602051,-12.035767,-1.7293243000000003,0.48153687,0.81625366,-3.4965363
11.582886,-13.15625,-1.3654022,0.13851929,0.86206055,-3.2344817999999997
10.859848,-13.453125,-0.5274353,-0.09690857,0.73742676,-3.0416717999999996
10.239746,-13.407639000000001,-0.33349609999999996,-0.21408081,0.5733795,-2.6730804
9.710632,-13.182587,-0.88417053,-0.32380676,0.38801575,-2.0200806
9.250946,-12.912048,-1.6096039,-0.41009520000000005,0.21971129999999997,-1.2413635
8.427338,-12.538544,-2.4068756000000002,-0.5102234,0.10040283,-0.56492615
7.3834686000000005,-11.9088745,-2.471527,-0.5858612,-0.0039978027,-0.08023071
6.375503500000001,-11.046967,-2.3996887000000005,-0.45057678,-0.043411255,0.4768982
5.583023000000001,-10.247299,-2.6463012999999997,-0.15229797,0.041809082000000004,1.3120728000000002
4.8934937000000005,-9.1770935,-3.223297,-0.043640137,-0.031692505,2.1728058
4.570282,-8.264892999999999,-3.4603271,-0.13739014,-0.41200256,2.7874603
4.630127,-8.025482,-3.3118896,-0.15122986,-0.9425049000000001,3.2093048
4.1608734,-8.303207,-3.065277,0.024536132999999998,-1.2365111999999998,3.4809417999999996
3.093048,-8.633606,-2.962326,0.35795593,-1.0468903,3.7760315
2.2335358,-8.358276,-2.5840454,0.32919312,-0.6229248000000001,4.076431299999999
2.2454987,-7.9392853,-2.4116668999999997,-0.32273865,-0.36405945,4.2095947
3.0667114,-7.812392999999999,-2.4810944,-1.0876006999999999,-0.22451782,4.341675
3.2726135,-8.109268,-1.9878997999999999,-1.7363433999999998,0.024765015,4.4950867
2.6620939999999997,-8.662338,-1.5234222,-2.032486,0.34541320000000003,4.6207733
2.6908263999999997,-8.978363,-2.3087158,-1.8801575000000001,0.711853,4.704941000000001
3.3995056000000003,-8.343903,-3.1993560000000003,-1.5499268,0.96325684,4.6996155
4.405075,-7.900970500000001,-3.158661,-1.3006592,1.0346375,4.686828599999999
6.1743927,-8.487564,-2.8833313,-1.219696,1.2285156000000002,4.5749817
7.7832947,-9.373413000000001,-2.7660065,-1.2473907,1.4032135000000001,4.100937
9.030669999999999,-9.950409,-4.317444,-1.395462,1.2679291000000001,3.5267487
10.419312,-10.247299,-6.872070299999999,-1.6202393,1.1827087,3.1112976000000003
11.013077000000001,-10.651916499999999,-7.054016000000001,-1.8013306,1.1422272,2.6894531
10.778442,-10.721344,-5.7946777,-1.7225037,1.1667174999999999,2.1706696
10.304382,-10.80275,-3.6207428,-1.3304901000000002,1.2466125,1.5709229
9.703445,-10.553757000000001,-1.0445709,-0.7765503,1.3446198,0.9988860999999999
9.576553,-9.902527000000001,0.20040894,-0.39624023,1.4287872,0.6271057
9.555008,-9.157928,0.028030396000000003,-0.16615295,1.3243866000000002,0.33522034
9.863861,-8.442062,-0.7237549,0.06927489999999999,0.9664611999999999,-0.020584106
11.214188,-7.429321300000001,-1.3486481000000001,0.25357056,0.53289795,-0.43389893
11.556549,-6.3471375,-1.815506,0.46875,0.17390442,-0.6927643
10.759293,-6.1484222,-1.6455231,0.76275635,-0.27565002,-0.81100464
10.807175,-6.6679688,-1.1331635,1.0450591999999999,-0.8743286,-1.0592041
11.695419000000001,-7.513122599999999,-0.108444214,1.3039093000000002,-1.5251923,-1.6674805
12.451981,-7.9512634,0.94021606,1.5617065,-2.0556946,-2.52182
12.653107,-7.788452,1.426239,1.8035278000000001,-2.3838043,-3.221695
11.79837,-7.697464,0.7175598000000001,2.0357513,-2.5467834,-3.6584472999999997
11.324326,-7.965622,-0.33828735,2.1646422999999997,-2.6426543999999996,-3.9716492
11.599655,-8.430099499999999,-0.81951904,2.1848907000000004,-2.6575775,-4.255005000000001
12.088074,-8.810775999999999,-1.597641,2.3063354,-2.4956512,-4.480835
11.494308,-8.698242,-1.8418427,2.2978058,-2.1057740000000003,-4.6555480000000005
10.412125,-8.458832000000001,-1.4276427999999999,2.0485382,-1.7318573,-4.7886963
9.990753,-7.826751700000001,-1.0613403000000001,1.6852875,-1.4197388000000002,-4.771652
11.015472,-7.742965700000001,-0.9368439000000001,1.3284148999999998,-1.1044159,-4.497879
12.37059,-8.173919999999999,-0.8506469999999999,1.0834045,-0.7273102,-4.0568695
12.15271,-8.990341,-0.7309418000000001,1.0024414000000001,-0.14887999999999998,-3.5679016000000003
11.379379,-10.453201,-0.50587463,0.773407,0.29747009999999996,-3.1577759
10.955612,-11.889725,-0.34786987,0.33346558,0.41571045,-2.9223632999999998
10.677887,-12.569672,-0.52983093,-0.14697266,0.31558228,-2.8126373
10.132004,-12.459534,0.013656616000000002,-0.5762786999999999,0.28042603,-2.647522
9.320374000000001,-11.971115,-0.3047638,-0.8330078000000002,0.34007263,-2.3279419999999997
8.681122,-11.353424,-1.3318787,-0.9384613000000002,0.32302856,-1.8315276999999999
7.821594,-10.953583,-2.0238037,-1.0055847,0.22183228,-1.2669373
6.617325,-10.635162,-2.2895659999999998,-1.0173035,0.118499756,-0.76412964
5.5447083,-10.046188,-2.0980225,-0.89053345,0.08868408,-0.23576355
5.0993958,-9.651138000000001,-1.7580566000000002,-0.6263428000000001,0.15153503,0.41404724
4.886307,-8.78923,-2.2847748,-0.36322020000000005,0.23355103,1.1501465
4.824066,-7.8914029999999995,-3.3023071,-0.3312683,0.055648804,1.7999573
5.080246,-7.4436800000000005,-3.733261,-0.38665770000000005,-0.19361877,2.1674805
5.487259,-8.147583000000001,-4.0876007,-0.35577393,-0.2735138,2.4135590000000002
5.551895,-9.268066000000001,-3.9152222,-0.32380676,-0.07537842,2.8268737999999995
4.7905426,-9.703812,-3.0078278,-0.41116333,0.18455505,3.3595123
4.4266205,-9.909714,-2.555313,-0.5752106,0.28149414,3.7749634
4.7618103,-9.9552,-2.5050354,-0.8287505999999999,0.31558228,4.037018
4.558304,-9.588898,-2.2129517000000005,-1.1600342,0.29107666,4.099869
3.9094696000000004,-9.435654,-1.9304351999999998,-1.4519196,0.3304901,4.196808
3.6509093999999997,-9.689453,-2.2847748,-1.614914,0.5755005,4.373642
3.4593657999999996,-8.74852,-3.4794769999999997,-1.5904083,0.79281616,4.4428864
3.8256836000000005,-7.0749816999999995,-4.1690062999999995,-1.5094452,0.8034668,4.3853607000000006
5.3005066,-7.1252594,-4.532928500000001,-1.521164,0.9717865,4.2532654
5.796112,-7.9249268,-4.693344000000001,-1.5914764,1.1528778,3.9688415999999997
5.662033,-8.609665,-4.7148895,-1.6916046000000002,1.0495453000000001,3.6375427000000005
6.622101,-9.327927,-4.604751599999999,-1.7129211,0.96432495,3.4202269999999997
7.6635895000000005,-9.852249,-4.4802550000000005,-1.6703033,0.88442993,3.2295380000000002
8.688309,-9.801971,-4.4060364000000005,-1.5701752,0.8034668,2.846054
8.602112,-9.466782,-3.6135559999999995,-1.3741608,0.73635864,2.3080902
7.950882000000001,-9.193848,-2.5026398,-1.0013123,0.7544708000000001,1.7722626
8.020325,-8.861053,-1.4803162,-0.567749,0.84288025,1.2992858999999999
8.523102,-8.480377,-1.1379546999999999,-0.20556639999999998,0.8641968000000001,0.83270264
9.102492999999999,-8.07576,-1.5784912,0.15875244,0.7033385999999999,0.33415222
9.789642,-7.467621,-1.7556610000000001,0.48579407,0.3965454,-0.21446228
10.081726,-7.1300507,-1.7245331000000002,0.7723541,0.10145569,-0.6277771
9.902161,-7.182724,-1.329483,0.9981841999999999,-0.1563263,-0.8568115
10.031448,-7.568191499999999,-0.96318054,1.2634277,-0.67085266,-1.2530823
11.475159,-8.027878,-0.8386688,1.5670319,-1.4303894,-2.0712128
12.784775,-8.310379,-0.67826843,1.840805,-2.079132,-3.1013184
13.093628,-8.183487,0.063934326,1.9835509999999998,-2.414688,-3.9822998
12.961960000000001,-7.9392853,0.5810852,2.0421448,-2.5531769,-4.62146
12.928436,-7.8985899999999996,0.26026917,2.0091248,-2.6053772,-5.0283812999999995
12.813507000000001,-8.066177,0.114212036,1.9153748,-2.6138916,-5.1849823
12.959564,-8.319962,-0.58010864,1.823761,-2.3752747000000003,-5.13385
12.451981,-8.135605,-1.2289276000000002,1.6959381000000002,-1.8767395,-4.9080048
11.568527,-7.917739999999999,-1.9519806,1.5020599,-1.3813933999999999,-4.552215599999999
11.621201,-7.455658000000001,-2.004654,1.3071136,-0.86473083,-4.160202
12.796753,-7.175536999999999,-1.7580566000000002,1.0418549000000001,-0.35766602,-3.8225097999999997
13.627548,-7.651977499999999,-1.5162354,0.6786041,0.083343506,-3.5476685
13.301926000000002,-8.805984500000001,-1.7197418000000002,0.32919312,0.41996765,-3.2802887000000003
12.732117,-10.544174,-1.7173462,0.00642395,0.63409424,-2.9734955000000003
12.289185,-12.586426,-1.7197418000000002,-0.25349426,0.73210144,-2.694397
11.441635,-13.891266,-1.5042572,-0.52407837,0.6777649,-2.4664307
10.333115,-14.248001,-1.1499176000000002,-0.7531128,0.53822327,-2.3428497000000004
9.284454,-13.869720000000001,-1.2792052999999999,-0.7946625,0.2836151,-2.1479034
7.792877000000001,-12.588821000000001,-1.5186309999999998,-0.7200928000000001,0.022628784,-1.7196808000000001
6.4545135,-11.003860000000001,-1.3989258,-0.6817321999999999,-0.15206909,-1.1273803999999998
5.877502400000001,-9.62001,-1.5593261999999999,-0.6838684,-0.1531372,-0.404068
5.4465485000000005,-8.516281,-2.1722412,-0.6966553000000001,-0.055130005,0.2531891
4.9988402999999995,-7.7860565,-2.4786987000000003,-0.6082306,0.12170410000000002,0.80607605
4.6229553,-7.5897369999999995,-2.8426207999999997,-0.48040770000000005,0.33795166,1.4516143999999997
4.515213,-7.470016499999999,-2.9671173,-0.5102234,0.43807983,2.2058258
4.591827400000001,-7.5370636,-3.2783660000000006,-0.5560303000000001,0.49348450000000005,2.8588257
5.027572599999999,-7.953644000000001,-3.4220123,-0.57414246,0.5307616999999999,3.2071686
5.171219000000001,-8.485168,-2.751648,-0.6263428000000001,0.51690674,3.4468536
4.678008999999999,-9.122025,-2.2967377,-0.7595062,0.4551239,3.771759
4.338043,-9.502701,-2.258438,-1.0215607,0.3528595,4.040207
3.5886536,-9.308762,-2.265625,-1.2750854,0.30065918,4.2106476
3.1768494,-8.736557000000001,-2.4092712000000005,-1.4551239,0.3070526,4.331024
3.8256836000000005,-8.82753,-2.5361632999999997,-1.6703033,0.3997345,4.311858999999999
3.8544160000000005,-8.865845,-2.7444610000000003,-1.7043915,0.49028015,4.2372894
3.3181152000000003,-8.645569,-3.2568207,-1.6202393,0.6053314000000001,4.2447357000000006
3.39711,-8.135605,-3.182602,-1.5872191999999998,0.8791046,4.311858999999999
5.1329193,-8.080536,-3.4866638,-1.5286255,1.1699218999999998,4.280959999999999
6.672378500000001,-8.712616,-4.3557587,-1.5041198999999998,1.1475525,3.9720306000000005
7.460083,-9.624802,-4.980652,-1.5552521000000001,1.0506133999999998,3.4681702000000003
8.547042999999999,-10.44841,-5.354141,-1.6830901999999999,0.88549805,2.8662872000000004
9.669922,-10.860214,-5.275131,-1.8087921000000002,0.66604614,2.4412537
10.007507,-10.673461999999999,-4.456314,-1.8045197,0.51797485,2.2676086
10.069763,-9.938446,-3.7907257000000003,-1.5488586000000002,0.45300293,2.1791992000000002
9.820755,-9.074142,-2.3973082999999997,-1.0662994,0.42956543,1.8532256999999999
9.090530000000001,-8.296020500000001,-1.1690826,-0.5336609,0.43275452,1.2300415
8.602112,-7.728592,-1.0110626,-0.076660156,0.35073853,0.50886536
8.87265,-7.618469,-0.84825134,0.3387909,0.08441162,-0.16545105
9.540633999999999,-7.3311615,-0.8123474,0.68925476,-0.25326538,-0.6458893
10.378616000000001,-6.974426299999999,-1.2337189,1.0067139,-0.5249176,-0.9526825000000001
11.10405,-6.5290985,-1.65271,1.3422698999999998,-0.73583984,-1.3042145
10.912521,-6.6272583,-1.5737,1.6778258999999998,-1.08844,-1.9263306
10.577332,-7.3479156,-1.0350037,1.8631744,-1.550766,-2.7615051
10.675491000000001,-7.900970500000001,0.15013123,1.8727721999999998,-1.8841858,-3.5892181000000005
11.824707,-7.879425,1.2466736,1.8440093999999998,-2.0983124,-4.221985
13.330657999999998,-7.534667999999999,1.3065338,1.8131104,-2.2772675,-4.707733
13.869354000000001,-7.541855,0.6936188,1.8269653000000001,-2.4061737,-5.0624695
13.802322,-7.604095500000001,0.38716125,1.8216400000000001,-2.395523,-5.2542267
13.349808,-8.607269,-0.3502655,1.8461304,-2.205902,-5.3138733
12.748871000000001,-9.3159485,-0.7237549,1.8258971999999998,-1.9385223000000003,-5.282989499999999
12.3250885,-8.987946,-0.88656616,1.6352081,-1.614685,-5.1381073
12.4831085,-7.9440764999999995,-0.9607849,1.298584,-1.2418365,-4.8366394
12.906891,-7.699859599999999,-1.5186309999999998,0.900177,-0.7273102,-4.411590599999999
13.318695000000002,-8.700638,-2.3470306,0.550766,-0.07217407,-3.9620513999999996
13.10321,-10.2808075,-2.4906769,0.19816589999999998,0.44340515,-3.5647125
13.098419,-12.296738000000001,-2.5265807999999996,-0.26734924,0.69480896,-3.3282165999999997
12.990677,-14.14505,-2.0788727,-0.6295470999999999,0.73742676,-3.1769562000000002
12.040192,-14.724457000000001,-1.4755402,-0.7350005999999999,0.6511383000000001,-3.0267487
10.910126,-14.410812,-0.9727478,-0.61143494,0.50946045,-2.6102295
9.883011,-13.654251,-0.9799346999999999,-0.48999023,0.3017273,-1.9220734
8.707458500000001,-12.7229,-1.6167908000000002,-0.4601593,0.048202515,-1.280777
7.388244599999999,-11.738876,-2.2321014,-0.48999023,-0.12011719,-0.8525543
6.100174,-10.48671,-2.5672912999999995,-0.54537964,-0.07749939,-0.47651672
5.381912000000001,-9.368622,-2.7707977,-0.5081024000000001,0.17283629999999997,0.14666748
5.0826416,-8.516281,-3.0916137999999997,-0.3536377,0.49453735,0.950943
4.9126434,-7.6855009999999995,-3.5872192000000003,-0.23965454,0.62983704,1.7541504
4.654068,-7.233001700000001,-3.3956910000000002,-0.279068,0.46472168,2.57547
4.5798492,-7.496353,-2.7636107999999995,-0.40583800000000003,0.116378784,3.3509827000000003
3.9693297999999997,-8.250534,-2.0668945,-0.45271300000000003,-0.21173096,3.8878784
2.930252,-8.71022,-1.7796020000000001,-0.43885803,-0.37045288,4.2085266
2.9924927,-8.882599,-1.9017028999999999,-0.38986206,-0.35766602,4.517456
3.9310303,-8.844299000000001,-2.1483002,-0.49957275,-0.23942566,4.746475
4.278183,-8.533050999999999,-2.3350525,-0.79785156,-0.11158752400000001,4.772049
3.3228912000000004,-8.501923,-1.9567718999999997,-1.2484589,0.015167236,4.6687164
2.6740722999999997,-8.755707000000001,-1.6958008000000002,-1.6266327,0.14193726,4.4183807
2.8608092999999997,-8.837112,-2.3087158,-1.6617737000000001,0.294281,4.163787999999999
2.463379,-8.288834,-3.060501,-1.489212,0.46684265,4.0242309999999994
2.48732,-8.1380005,-3.5249634,-1.3773499,0.5936127,4.058319
4.3356476,-8.786835,-3.6781921000000004,-1.3475342,0.88868713,4.110519399999999
7.144042999999999,-9.869019,-4.1618347,-1.4146423000000001,1.0985413,3.92836
8.944489,-10.671066,-4.408432,-1.5509948999999998,1.0900268999999998,3.5906677000000005
10.143982000000001,-11.233704,-4.772354,-1.6639099,1.2135924999999999,2.9919891
11.628387,-11.394119,-5.500183,-1.7310181,1.2029419,2.3634796000000002
12.293975999999999,-10.795563000000001,-5.9287415,-1.6415404999999998,1.1294403,1.938446
12.392136,-9.761275999999999,-5.275131,-1.3368683000000001,1.0463562,1.6870421999999998
11.707397,-8.973587,-3.1802063,-0.9288788,0.93556213,1.4835815
10.634796000000001,-8.284058,-1.657486,-0.5528411999999999,0.7672576999999999,1.1490784
9.547821,-7.5514220000000005,-1.4180756,-0.25349426,0.49560547,0.6398925999999999
9.2964325,-6.780487,-1.6598816000000003,0.118270874,0.18455505,0.13815308
10.184677,-6.349533,-2.0142365,0.5475769,0.022628784,-0.23788452
10.950821000000001,-6.3231964000000005,-2.2560425,0.9214783000000001,-0.08709717,-0.530838
12.080886999999999,-5.9209747,-2.1315459999999997,1.1494446000000003,-0.30334473,-0.9260559000000002
12.258057,-5.8299866,-1.7317200000000001,1.2059174,-0.7305145000000001,-1.5545502
11.951599,-6.6009216,-1.0924683000000002,1.2080383,-1.3313141000000002,-2.378006
11.585281,-7.048645,-0.046188354,1.4242858999999999,-1.8128203999999999,-3.1769562000000002
11.293198,-7.182724,0.5164489999999999,1.8131104,-1.9885863999999998,-3.9194489000000003
11.652328500000001,-7.0941315000000005,0.33688354,2.0389404,-2.0035095000000003,-4.674713
12.262848,-6.854706,-0.17547607,1.9771576000000002,-1.9150848000000003,-5.261673
12.416077,-6.847534,-0.084503174,1.8088531000000003,-1.7851256999999998,-5.500290000000001
12.1072235,-7.048645,0.073516846,1.7257538000000001,-1.5113524999999999,-5.429992700000001
11.733734,-7.290450999999999,-0.29040527,1.7065887,-1.1534271,-5.1764526
11.855835,-7.194686999999999,-1.2648468000000002,1.6298828,-0.77311707,-4.867523
12.777603,-7.26651,-2.4619446,1.4509277,-0.3565979,-4.5543365
14.044128,-8.133208999999999,-3.060501,1.1718292,-0.07217407,-4.2645874
14.618744,-9.605652000000001,-2.0549316,0.7968445,0.12063599,-3.9460754000000002
14.367354999999998,-10.726135000000001,-0.8243103,0.43359375,0.29533386,-3.6328888
14.398468,-12.011826,-1.0733032,0.21308899,0.41571045,-3.2909393
13.924423,-13.395676000000002,-2.186615,0.045837402,0.37950134,-2.906372
12.339462,-14.109145999999999,-2.5002593999999996,-0.12034607,0.23780823,-2.5047759999999997
10.603667999999999,-14.149841,-2.1195679,-0.15762329,0.06524658,-2.0605621
9.179108,-13.584807999999999,-1.791565,-0.057495117000000005,-0.15206909,-1.6067505
7.984405499999999,-12.505035000000001,-1.9040985000000001,-0.008483886999999999,-0.27670288,-1.1454926
7.108124,-11.26004,-2.3853302000000003,-0.14378357,-0.2820282,-0.7438965
6.191147,-9.912109,-2.8833313,-0.34298706,-0.10519409,-0.181427
5.219101,-8.726974499999999,-3.261612,-0.41116333,0.294281,0.69847107
4.646896400000001,-8.020691000000001,-3.3956910000000002,-0.27481079999999997,0.68522644,1.6593474999999998
4.2733917,-7.6424103,-3.1802063,-0.27481079999999997,0.7704468000000001,2.2494965000000002
3.8544160000000005,-7.429321300000001,-3.0389404,-0.5038452,0.631958,2.7267456
3.682022,-7.525085400000001,-3.1418915000000003,-0.66682434,0.49028015,3.3222197999999996
3.4019012,-7.6495820000000005,-2.727707,-0.7019806,0.5243683000000001,3.8282165999999997
3.4857025,-7.862671000000001,-2.1530914,-0.89479065,0.6191864,4.135025
3.483307,-7.8722534,-2.2560425,-1.1983948,0.5627135999999999,4.3459473
3.7706146,-7.7669067,-3.0221862999999995,-1.4135742,0.38375854,4.5057373
3.4066925,-7.8937990000000005,-3.2735748,-1.4860077,0.34007263,4.619720500000001
2.535202,-8.262497,-2.9312134,-1.4849396000000001,0.43595886,4.587753299999999
2.1808624,-8.511505,-2.217743,-1.4061127,0.49134827,4.377899
3.7179413,-8.166733,-3.0389404,-1.2516479999999999,0.54248047,4.1094513
4.3883209999999995,-7.874649000000001,-4.233658,-1.1920013,0.6095885999999999,3.8612518
4.467331,-8.298416,-4.274353,-1.2644348,0.7001343000000001,3.708908
5.9254,-9.186661,-4.1259155,-1.3880005,0.8492736999999999,3.5693665
8.12088,-10.055756,-5.167389,-1.4647063999999999,1.0122681,3.3360748
9.559799,-10.841064,-5.9407195999999995,-1.4924011000000001,1.0005493,2.941925
10.84787,-11.774796,-5.677353,-1.3677673000000001,0.9803009,2.3443146
11.582886,-11.856200999999999,-4.719681,-1.2655028999999998,0.8929596,1.6870421999999998
11.252487,-10.893723,-3.4699097,-1.2303467,0.80667114,1.3386993
10.905334,-9.682266,-2.313507,-0.99598694,0.78430176,1.2151337
10.309174,-8.513900999999999,-1.2001953,-0.6380615,0.8524780000000001,1.0340424000000001
9.679504,-7.3120117,-1.0828857,-0.42395020000000005,0.934494,0.7059326
8.87265,-6.3471375,-1.360611,-0.30036926,0.89933777,0.33096313
8.685913000000001,-5.808441,-1.3582153000000001,-0.13313293,0.7288971,0.015640259
8.882233,-5.674377400000001,-0.9823303,0.14810179999999998,0.45619202,-0.23469543
9.449661,-5.911392,-0.7524871999999999,0.59124756,0.14833069,-0.45094300000000004
10.469589,-5.7629547,-0.16830444,1.0695496000000002,-0.22024536,-0.7034149000000001
11.161514,-5.6839447,-0.050979614000000006,1.4402618,-0.7198639,-1.1731873
10.802383,-6.708664,-0.61361694,1.6895447000000001,-1.2695312,-1.8901215
10.577332,-7.738174400000001,-0.17787170000000002,1.8802185000000002,-1.7457122999999999,-2.6134338
10.998702999999999,-7.8171843999999995,0.37997437,1.9760895,-2.0578308,-3.2099762000000003
11.556549,-7.651977499999999,-0.15393066,1.8610535,-2.2304077,-3.6861572
11.918076,-8.006317,-0.85783386,1.5957947000000001,-2.2911224,-4.0099945
11.965958,-8.717407000000001,-1.1307677999999999,1.4615784,-2.1792755,-4.1090546
11.946808,-9.433273,-1.0350037,1.5308228000000002,-1.8831328999999999,-4.064316000000001
11.930054,-9.842682,-0.5872803000000001,1.6991272000000002,-1.5070953,-3.9663239000000003
11.539795,-9.4189,-0.46038818,1.7502593999999998,-1.136383,-3.8821564
11.432053,-8.15715,-0.6974182,1.6298828,-0.86579895,-3.7916107000000006
12.047363,-7.752533000000001,-1.2313232,1.425354,-0.71240234,-3.7085266000000003
12.126373,-8.164337,-1.4779205,1.0855408000000002,-0.5259857,-3.6115875
11.611618,-8.961609,-1.6167908000000002,0.69885254,-0.2820282,-3.4251556000000005
11.111237,-10.000687,-2.1315459999999997,0.3941803,-0.051940917999999996,-3.155655
10.898147999999999,-11.272018,-2.5744781000000003,0.11187744,0.15258789,-2.857376
10.254105000000001,-12.093231,-1.7604369999999998,-0.15655518,0.28575134,-2.5601654
9.308394999999999,-11.995056,-0.46038818,-0.32380676,0.48495483,-2.2107544
8.484802,-11.456375,0.16448975,-0.3493805,0.6756439000000001,-1.6919707999999998
7.692322,-10.510651,-0.24971008,-0.32168579999999997,0.70440674,-0.9750519
6.868713400000001,-9.459610000000001,-1.1211853,-0.42500305,0.4774933,-0.31991577
6.349167,-8.645569,-1.6407318,-0.64338684,0.1770935,-0.03656006
5.820053,-7.934494,-2.313507,-0.8361969000000001,0.20692444,0.1711731
5.0993958,-7.470016499999999,-2.6989746,-0.9065094000000001,0.44554138,0.70700073
4.5726624000000005,-7.1492004,-2.531372,-0.85217285,0.6468811,1.5016937
4.203964,-7.0510406,-2.5601043999999997,-0.771225,0.8098602,2.2143555
4.038757299999999,-7.1970825,-2.569687,-0.69026184,0.88975525,2.57547
4.072280999999999,-7.781265299999999,-2.4068756000000002,-0.66789246,0.7821655,2.6606902999999997
3.7849730999999998,-8.489944,-2.1818237000000003,-0.7009125,0.55633545,2.7128906
3.2247314,-8.983153999999999,-1.9926758000000002,-0.7488556,0.20159912,2.9642944
3.4186707000000003,-8.980758999999999,-2.4691315,-1.0055847,-0.057266235,3.2796172999999995
4.989258,-8.545013,-3.2256927,-1.3017273,-0.22557068,3.4724274
5.764983999999999,-8.523468,-3.4627227999999994,-1.5722961000000002,-0.3523407,3.5267487
5.159256,-9.224976,-3.2855529999999997,-1.9131775000000002,-0.30760193,3.5629730000000004
4.7426605,-10.055756,-3.1083832,-2.1496735,-0.024246216,3.7174377
4.836029,-9.907318,-3.0078278,-2.2498016,0.51797485,3.9528656000000004
5.523162999999999,-8.382217,-3.0676727,-2.2636566000000005,1.1166534,4.0817566
6.6364746,-7.75972,-3.6997527999999997,-2.2295685,1.5906982,3.9645843999999997
7.677948,-8.171524,-4.8154449999999995,-2.2114563,1.759018,3.4713593
7.7832947,-8.604874,-5.6246795999999994,-2.2487487999999995,1.5140076,2.8737487999999995
8.161575,-9.703812,-6.5009613,-2.2902832,1.1017456,2.4732056
9.258118,-10.345459,-6.242386,-2.2348938,0.7161255,2.2313994999999998
9.634018,-9.756485000000001,-5.1219025,-2.0218353,0.48069763,2.0822601
9.107285000000001,-8.815567,-4.0684510000000005,-1.6468658,0.5009308,1.9139403999999998
8.202286,-8.217010499999999,-2.4786987000000003,-1.2601776000000002,0.65859985,1.618866
7.5773926,-7.7908479999999996,-1.2073822,-0.99598694,0.8279724,1.2715912
7.5151367,-7.3479156,-0.27365112,-0.7839965999999999,0.7949524,0.9296416999999999
8.211853,-7.0294952,0.28660583,-0.4601593,0.5467377,0.66119385
9.619644000000001,-6.466858,-0.022247314,0.08950806,0.2559204,0.472641
10.112853999999999,-5.9927980000000005,-0.66389465,0.7329406999999999,-0.05619812,0.203125
9.550217,-6.02153,-0.929657,1.3007202,-0.5153350999999999,-0.2474823
9.408951,-6.6344449999999995,-0.6064453000000001,1.6394806,-1.1235962,-0.9122009
10.086517,-7.704650999999999,-0.14196777,1.8312224999999998,-1.7531586,-1.8016968
10.682678,-8.080536,0.545166,2.0826263,-2.075943,-2.6794738999999996
11.585281,-7.9991455,0.7079773,2.3276367000000002,-2.0173492,-3.4368743999999998
12.23172,-8.135605,0.14294434,2.3372192000000003,-1.8650208,-4.119720500000001
12.526214999999999,-8.513900999999999,-0.35264587,2.1326904,-1.7563629,-4.65448
12.490295,-8.920914,-0.29759216,1.9824828999999997,-1.6583557,-4.961273
12.071304,-9.04541,0.44940186,2.0016632,-1.457016,-5.0582123
11.930054,-8.511505,0.8731841999999999,2.0549316,-1.1193389999999999,-5.0092163
12.102432,-7.376647999999999,0.48532104,1.9899445,-0.7784424,-4.8867035
12.50705,-6.3279877,-0.5489807,1.7832793999999998,-0.51638794,-4.730118
13.615570000000002,-6.402206400000001,-1.4372253000000001,1.4860687,-0.27030945,-4.5213165
14.295517000000002,-7.651977499999999,-1.2241364,1.1515808,-0.057266235,-4.2581940000000005
13.955551000000002,-8.949631,-0.9224701,0.79151917,0.07696533,-3.9439392
13.694579999999998,-10.335875999999999,-1.6981964,0.47193909999999994,0.19839478,-3.6147766000000003
13.316298999999999,-11.837050999999999,-2.6558685,0.23971558,0.2601776,-3.3047942999999997
12.569305,-12.97908,-2.5122223,0.06288147,0.26338196,-2.9266205000000003
11.475159,-13.505798,-1.6359406,-0.062820435,0.18774414,-2.4888
10.309174,-13.438766500000002,-1.2528687,-0.074539185,-0.047683715999999994,-2.089325
9.121658,-12.665436,-1.6934052,-0.009552001999999999,-0.33210754,-1.628067
7.9915924,-11.449188000000001,-2.24646,0.0042877196999999995,-0.43330383,-1.0411072000000001
6.954895,-10.249695,-2.6678467,-0.06921387,-0.32678223,-0.39341736
5.954117,-9.270462,-2.9838867000000002,-0.20556639999999998,-0.10839844,0.20739746
5.006027,-8.533050999999999,-3.0557098,-0.36322020000000005,0.18667603,0.70913696
4.452957,-8.042236,-2.9479675,-0.45697020000000005,0.49774170000000006,1.2907562
4.3787384000000005,-7.8578796,-2.7636107999999995,-0.4367218,0.77363586,2.126999
4.065094,-7.9320984,-2.5816498,-0.39198303,0.99201965,2.7895966
3.7706146,-8.197861,-2.4571533,-0.4793396,1.0591278,2.974945
3.9549712999999995,-8.41333,-2.1267548,-0.62101746,0.8982849,3.0857391
4.1967773,-8.805984500000001,-1.9998627,-0.7797394,0.56803894,3.4074402000000004
3.9645386,-8.875411999999999,-2.1315459999999997,-0.9342040999999999,0.21438599,3.83461
3.7275237999999997,-8.722183,-2.349411,-1.0662994,-0.051940917999999996,4.2223663
4.072280999999999,-8.80838,-2.7468567000000004,-1.3187714,-0.26712036,4.4013367
5.1137543,-9.392563,-3.4603271,-1.6042633,-0.34701538,4.4173126
5.2765656,-9.438049000000001,-3.6111602999999994,-1.7097168000000003,-0.3012085,4.3992004
3.4593657999999996,-8.501923,-2.775589,-1.6841582999999998,-0.1296997,4.3363495
3.6149902000000003,-7.867462,-2.7348784999999998,-1.6394043000000003,0.13554382,4.332092299999999
6.081024,-7.910553,-4.0660553,-1.7129211,0.5115814000000001,4.3992004
7.2374115,-8.250534,-5.0812073,-1.8780365,0.76512146,4.2276917
7.0315094,-8.98555,-5.457092299999999,-2.0559235,0.8002776999999999,3.8058472
7.5606384,-10.204193,-5.713272,-2.206131,0.8748474,3.3605652000000004
8.494369500000001,-10.927246,-5.689331,-2.3222504,0.8972167999999999,2.9802703999999998
9.461624,-10.515442,-5.610321,-2.1848297000000003,0.9025421,2.685196
9.890198,-9.928864,-5.234436,-1.7459412,0.9664611999999999,2.3166199
9.758514,-9.414108,-3.728485,-1.2655028999999998,0.9760437,1.7690735
9.526276,-8.820358,-2.3063202,-0.8085022,0.82476807,1.1640015
9.306000000000001,-8.358276,-1.4683533000000002,-0.42288208,0.6692505,0.75813293
9.195877000000001,-8.231384,-1.6479186999999997,-0.1267395,0.61279297,0.472641
10.112853999999999,-7.929702799999999,-1.9998627,0.25994873,0.48921204,0.15945435
11.173477,-7.3407288,-2.1100006000000002,0.7467804,0.19627379999999997,-0.19102478
11.520645,-7.019912700000001,-1.8514252,1.2101746000000002,-0.36087036,-0.69381714
11.494308,-7.144409,-1.4898987,1.6181641000000002,-1.0959014999999999,-1.4629517
11.740905999999999,-7.8985899999999996,-0.582489,2.0240326,-1.7702026000000002,-2.4632263
12.363403,-8.111664,0.8659973,2.3670502,-2.1281432999999996,-3.30159
13.258835000000001,-7.7621155,1.2227325,2.4256439999999997,-2.1036377,-3.9237059999999997
13.6610565,-7.4772034,1.0527496,2.1880797999999997,-1.9715424,-4.4840393
13.093628,-7.637619,0.6936188,1.8983307,-1.9278717,-4.88031
12.3993225,-7.81958,0.17167664,1.7406769,-1.8415833,-5.0720673
12.559723,-8.114059,0.18125916,1.7460022000000002,-1.5827178999999998,-5.135971
12.332275,-7.8291473,0.38476562,1.7140349999999998,-1.1225281,-5.1391754
12.425644,-7.070190400000001,-0.077316284,1.5127106000000001,-0.66978455,-5.055023
13.112793,-6.4931946,-0.48912048,1.2304077,-0.36087036,-4.843033
14.18779,-7.017517,-0.637558,0.94065857,-0.12223816,-4.545822
13.924423,-8.626419,-0.68544006,0.6775359999999999,0.27189636,-4.2198486
13.198975,-10.039000999999999,-1.3749847,0.5443878000000001,0.66604614,-3.9055939
13.450363000000001,-11.585647999999999,-2.811493,0.41336059999999997,0.83862305,-3.4869537000000004
13.337845000000002,-13.127517999999998,-3.2903442000000003,0.28659058,0.9621886999999999,-3.0651092999999996
12.4879,-13.848175,-2.6463012999999997,0.25675964,1.0250397,-2.7764130000000002
11.530211999999999,-13.953522,-1.5737,0.30256653,0.8801726999999999,-2.6038360000000003
10.517471,-13.467498999999998,-1.3414612,0.22053528,0.5818939000000001,-2.3556366
9.313187,-12.627136,-2.0238037,-0.0010375977,0.41358948,-1.932724
8.051437,-11.750854499999999,-2.423645,-0.28971863,0.3720398,-1.405426
6.9142,-10.7859955,-2.3853302000000003,-0.52301025,0.45193479999999997,-0.7992859
6.0067900000000005,-9.967178,-2.3518066,-0.6220856,0.65753174,-0.09513855
5.6763916,-9.332718,-2.1722412,-0.52194214,0.88124084,0.63349915
5.0347443,-8.904144,-2.4164581000000003,-0.32487488,0.8780365,1.3972931
4.203964,-8.554596,-2.2632293999999997,-0.36747742,0.6042633000000001,2.2015686000000003
4.4649353,-8.437286,-2.100418,-0.46868896,0.18455505,2.9866638
4.8527985000000005,-8.41333,-1.9328308,-0.40795898,-0.21492004,3.6513824
4.539154,-8.504318,-2.2081604,-0.31741333,-0.42477417,4.073242
3.7059631,-8.676697,-2.5409546,-0.38772583,-0.63783264,4.2213135
3.2007904,-8.688675,-2.8402252,-0.6359253,-0.8764495999999999,4.149933
2.717163,-8.442062,-2.7157287999999995,-0.8798828000000002,-0.9243927,4.163787999999999
2.1641082999999997,-8.207443,-2.32547,-1.075882,-0.6399689000000001,4.2223663
2.5256347999999997,-8.147583000000001,-2.3278656000000004,-1.3219604,-0.25965879999999997,4.199997
3.4234467000000004,-8.528259,-2.9599457,-1.5829468,0.027954102,4.2543334999999995
3.7203370000000002,-8.396576,-4.3270264,-1.7885436999999997,0.27296448,4.3459473
3.8041382000000006,-7.848312400000001,-4.813049299999999,-1.8972015,0.4316864,4.35553
5.4058532999999995,-8.645569,-4.772354,-1.9014587,0.7054596,4.245804
7.8958282,-9.653534,-4.899246,-1.8034668000000003,0.98243713,3.9166412000000004
9.976379,-10.141952499999999,-5.4187775,-1.7235718,1.0090636999999998,3.4234161
11.695419000000001,-10.752472000000001,-6.055649,-1.7725677,0.99308777,2.9962463
12.018631,-11.061325,-5.574402,-1.9355468999999996,0.91319275,2.7373962000000005
11.410507,-10.70459,-4.516174299999999,-2.0058594,0.6564635999999999,2.54245
10.914916999999999,-9.948013000000001,-3.8888855,-1.8641815,0.34753418,2.2921142999999997
9.796814,-9.189055999999999,-3.254425,-1.538208,0.18028260000000002,2.0204773
8.970825,-8.446854,-2.5050354,-1.0876006999999999,0.14939879999999997,1.6998291
8.8535,-7.81958,-1.5665131,-0.62101746,0.14407349,1.2481537
9.164749,-7.6017,-1.0972443,-0.17147827,0.14300537,0.70806885
9.851883,-7.2689056,-0.5417938,0.31214905,0.08441162,0.05505371
10.519867,-6.952881,-0.25209045,0.8905945,0.023696900000000003,-0.6235199
10.553390499999999,-6.823592999999999,-0.7596741,1.3539886,-0.08282471,-1.2584076000000002
10.179886,-7.0989227,-1.4348296999999999,1.6288147,-0.3203888,-1.9572296000000002
10.471985,-7.6902924,-1.3223114,1.7811583999999998,-0.7582091999999999,-2.7838745
11.230942,-8.044632,-0.38616943,1.8653107,-1.1257172,-3.6105193999999994
11.592467999999998,-8.008713,0.6960144,1.8940735,-1.2034912,-4.294418299999999
11.942017,-7.915344,1.4980621,1.8610535,-1.15448,-4.749283
12.763228999999999,-7.848312400000001,1.6512909,1.7364197000000001,-1.1970978,-5.0283812999999995
13.297134,-7.68071,1.505249,1.6778258999999998,-1.1704712,-5.0773926
14.065674,-7.7573240000000006,1.244278,1.7896729,-1.0255889999999999,-4.9197235
14.465515,-7.963226299999999,1.1269684,1.9228363000000002,-0.86898804,-4.7194519999999995
13.962723,-8.0829315,0.34165955,1.9750366000000001,-0.7422333000000001,-4.5064087
13.481491,-7.9847717000000005,-0.6686859,1.9025879,-0.6218566999999999,-4.2677917
13.586838,-8.221802,-1.3725891000000001,1.7151031000000003,-0.5579376,-4.0302277
13.742462,-9.287216,-1.8633881,1.3901978000000002,-0.37791443,-3.6605835
13.752045,-10.987105999999999,-2.452362,1.0333405,-0.13716125,-3.2302246
13.165466,-12.732483,-2.6846007999999997,0.7840729000000001,-0.035964966,-2.8552399
12.708160000000001,-14.317444,-2.9766998,0.5805969,0.016235351999999998,-2.5825348
11.661896,-15.030914000000001,-2.5194092,0.42720032,-0.0072021483999999995,-2.3641509999999997
10.062576,-14.595169,-1.4898987,0.2652893,-0.09667969,-2.123413
8.898987,-13.663818,-1.1259766000000002,0.0650177,-0.19041443,-1.7463074
7.8862457,-12.58165,-1.3821564,-0.17254639,-0.27565002,-1.2509613000000002
6.8495482999999995,-11.365387,-1.9112854,-0.46762085,-0.31079102,-0.7524109
5.930176,-10.010269000000001,-2.3973082999999997,-0.6551056,-0.24900818,-0.275177
4.752228,-8.928085000000001,-2.9407806,-0.7520446999999999,-0.010391235,0.30966187
3.8137053999999995,-7.9560394,-3.2592163,-0.8543091,0.34220886,0.9828949
3.7011871,-7.2952423,-2.8713531000000003,-0.9075774999999999,0.58828735,1.5730591
3.8280792000000003,-6.888229400000001,-2.7468567000000004,-0.91822815,0.725708,2.1131439999999997
3.926239,-6.677536,-2.7229156000000003,-0.8457947,0.805603,2.8183594
3.8927155,-6.7852783,-2.79953,-0.71795654,0.81944275,3.4766845999999996
3.5527344,-7.122864,-2.9407806,-0.67640686,0.71292114,3.7888029999999997
3.2893830000000004,-7.503539999999999,-2.9982452,-0.7318115,0.53608704,3.8772278
3.6485138,-8.032653999999999,-3.3166809999999995,-0.9075774999999999,0.2559204,3.9432678
4.1345367,-8.516281,-2.8976897999999998,-1.2069092,-0.02104187,4.0146484
3.9477843999999997,-8.805984500000001,-2.2033691,-1.5105133,-0.104141235,4.1243744
3.6221771,-9.088500999999999,-2.1961823,-1.6916046000000002,0.029022217000000003,4.125427200000001
4.3236694,-9.562561,-2.4810944,-1.6394043000000003,0.37522888,4.045532
5.310089,-10.129974,-2.8617706000000003,-1.4103851,0.79281616,3.8612518
4.637314,-9.991119,-2.3757477000000002,-1.2804108,1.1699218999999998,3.7110442999999997
4.694778400000001,-9.847458,-2.162674,-1.3262177,1.4841766,3.6130370000000003
6.875885,-10.225754,-3.3238525,-1.4838867,1.6641998,3.3882751000000004
8.760132,-10.402924,-4.590393,-1.7352904999999998,1.7504883000000002,3.1837463
9.566971,-10.726135000000001,-5.176971400000001,-2.0058594,1.7259827,3.0228882
10.366638,-11.322296000000001,-5.4858246,-2.189087,1.4969635000000001,2.7757416
10.299605999999999,-11.422852,-4.813049299999999,-2.2263641,1.157135,2.4668121
10.120041,-10.807541,-3.4938507000000003,-2.157135,0.7789611999999999,2.2420502
9.887802,-10.156311,-1.7724151999999997,-1.9387511999999998,0.42742920000000006,2.1845244999999998
9.70105,-9.102875,-0.048583984000000004,-1.5147705,0.200531,2.1568297999999997
8.922928,-8.025482,0.22674560000000002,-1.0620421999999998,0.11956787,1.9533539
8.245377000000001,-7.407775999999999,-0.32392883,-0.6828003,0.06097412,1.4995575
8.719421,-6.938507,-0.97514343,-0.26841736,-0.090286255,0.86891174
8.654785,-6.6248627,-1.6622772000000001,0.2919159,-0.16592407,0.14027405
8.345932000000001,-6.689514,-1.8442383000000002,0.94065857,-0.08921814,-0.4988861
8.590133999999999,-6.8858337,-1.4755402,1.3305511,-0.12757874,-1.0176697000000001
9.258118,-7.3886259999999995,-0.99668884,1.4711608999999999,-0.41093445,-1.5769348
9.758514,-8.047028,-0.7237549,1.552124,-0.96380615,-2.4227448
9.835129,-8.695847,-0.1443634,1.7406769,-1.5529022,-3.4464722
10.218200999999999,-8.865845,1.1772461,2.0314941,-1.8405151000000002,-4.3625945999999995
11.254883,-8.741348,1.7662201000000002,2.14122,-1.8980408,-5.035843
12.598038,-8.274475,1.5387726000000002,1.9824828999999997,-1.8799286,-5.448105
13.356995000000001,-7.335952799999999,1.7374878,1.837616,-1.8032379,-5.5578156
14.0920105,-7.1875,1.833252,1.837616,-1.6253357,-5.4907074
14.115951999999998,-7.515517999999999,1.833252,1.9366759999999998,-1.2993622,-5.3767242
13.12236,-7.419739,0.51405334,1.9420012999999998,-0.89456177,-5.164733999999999
12.511841,-7.139618,-0.97753906,1.7715607,-0.5014801,-4.846222
13.471924,-7.5011444,-1.7652283,1.4456023999999998,-0.15527344,-4.478714
14.664229999999998,-8.791625999999999,-1.7269287,1.0503844999999998,0.12809753,-4.06752
14.879715,-10.711777,-1.3486481000000001,0.7212219,0.37097168,-3.6105193999999994
14.333832000000001,-12.8497925,-1.815506,0.5337219,0.58828735,-3.2675018
13.821472,-15.066818,-2.7540436,0.38992309999999997,0.7288971,-3.062973
12.684219,-16.266312,-2.4619446,0.2642212,0.73210144,-2.9489899
11.398544000000001,-16.067595999999998,-1.597641,0.16195679,0.51478577,-2.8637695
10.584503,-15.258362,-1.2480774,0.09378052,0.27403259999999996,-2.6198273
9.24855,-14.190551999999999,-1.5928497,-0.044708252000000004,0.1685791,-2.1542969
7.8263855,-12.88092,-2.320694,-0.25030518,0.24420166,-1.5098114
6.5694275,-11.401306,-2.9048767000000004,-0.42607117,0.48709106,-0.71299744
5.4776764,-10.082092,-3.206543,-0.5081024000000001,0.89508057,0.19354248
4.606186,-9.253708,-2.933609,-0.47508240000000007,1.2263794,1.2449646
4.321274,-8.518677,-2.265625,-0.43778992,1.1795044,2.0929108
4.357193,-7.896194500000001,-2.1363373,-0.6519165,0.807724,2.4689484
4.2590330000000005,-7.5969086,-2.2895659999999998,-1.1856079,0.23780823,2.848175
4.0866394,-7.6280365,-2.3182982999999995,-1.4242249,-0.20213318,3.5736237
3.5958405,-7.778869599999999,-2.1578827,-1.139801,-0.2820282,4.435425
2.7578582999999997,-7.8339386,-2.1219634999999997,-0.82980347,-0.1797638,4.971252400000001
2.0707245,-7.9871674,-2.1028137000000005,-0.8234253,-0.24049377,4.980835
1.3596496999999999,-8.130828999999999,-1.7364959999999998,-0.89053345,-0.37896729999999995,4.6655273
0.72039795,-8.133208999999999,-1.3582153000000001,-1.0055847,-0.20533752,4.2958680000000005
0.46661377,-8.279266,-1.1690826,-1.1632385,0.16004944,3.8452606
1.9342651000000002,-8.530655,-1.7748108,-1.3943938999999999,0.42956543,3.545929
5.120941,-8.353485000000001,-3.7236937999999995,-1.7299651999999999,0.7001343000000001,3.4415282999999994
6.2126923,-8.073364,-5.543289,-2.0356903,0.89933777,3.2987822999999996
6.361145,-9.217789,-4.9638824,-2.1209105999999998,0.94621277,3.1560363999999996
7.8958282,-11.530594,-3.3597717000000005,-2.0346222,0.9568634,2.8886566000000005
10.7114105,-12.75882,-3.3286437999999996,-1.774704,1.0314331,2.4561615000000003
13.51741,-12.816269,-4.6550293,-1.5009308000000001,1.0985413,1.9459076000000002
15.253204,-12.198563,-5.0261383,-1.3901367,1.0868378,1.507019
14.918014999999999,-11.018234,-4.6310883,-1.425293,0.9259796,1.2438965
13.843017999999999,-9.615219,-3.9415587999999997,-1.4956055,0.725708,1.1565398999999998
11.937241,-8.377426,-3.1706237999999995,-1.3720245,0.54034424,1.2662659
9.756119,-7.144409,-2.7660065,-1.0854796999999998,0.43595886,1.4910278000000001
8.685913000000001,-6.1220856,-2.028595,-0.9618988000000002,0.50946045,1.6497650000000001
7.9963837,-5.530716,-0.7189635999999999,-0.9523163,0.43063354,1.5581512
7.9796143,-5.28891,0.29856873,-0.9160919,0.21011353,1.3067474
8.37706,-5.162018,1.2730103000000002,-0.5496521,-0.07749939,1.0851746000000002
8.549438,-4.845978,1.7398833999999999,0.23120117,-0.34701538,0.8550719999999999
8.269318,-4.843582,1.074295,0.9981841999999999,-0.60588074,0.25958252
7.972442599999999,-5.719864,0.18603516,1.5404053,-0.94569397,-0.767334
8.00116,-7.063003500000001,-0.40771484,1.7949982,-1.344101,-1.9593506
8.10173,-8.561783,-0.074920654,1.8695679,-1.6945801,-2.9628296
8.223831,-9.191452,0.80374146,1.8131104,-1.9683533,-3.7266388
8.448883,-9.011887,0.3177185,1.6394806,-2.1931152000000003,-4.3327637
9.973984,-8.851471,-0.33349609999999996,1.647995,-2.2410582999999997,-4.846222
11.795975,-9.457214,-0.9009246999999999,1.8717041,-2.0802002,-5.2371826
12.885345,-10.726135000000001,-0.45321655,1.9888762999999998,-1.7478333,-5.448105
12.947586,-10.469955,1.5674896,1.9398804,-1.4410399999999999,-5.418273999999999
13.694579999999998,-8.794022,1.8955078,1.8141785,-1.1619415000000002,-5.165801999999999
14.716904000000001,-6.739792,1.1509094,1.5787506000000002,-0.8040161,-4.7759247
15.406432999999998,-6.3303833,-0.4053192,1.2272186,-0.38856506,-4.338089
15.140671,-7.8985899999999996,-1.7436828999999998,0.8213501,0.016235351999999998,-3.9194489000000003
14.252426000000002,-9.631989,-2.2368927000000003,0.37606812,0.39015198,-3.538086
13.854996,-11.683823,-2.5672912999999995,-0.08732605,0.62023926,-3.2206268
13.787949,-13.127517999999998,-1.8514252,-0.46655273,0.72250366,-2.9394072999999996
13.026596000000001,-13.661423000000001,-0.57292175,-0.6966553000000001,0.8322296,-2.614502
11.355438000000001,-13.577637,-0.58010864,-0.86816406,0.8727111999999999,-2.2224730999999998
9.284454,-12.962326,-1.166687,-0.99279785,0.76937866,-1.772934
7.4050139999999995,-11.937607,-1.5114441,-1.0503235,0.56059265,-1.2072753999999999
6.0331269999999995,-10.757263,-2.0190125,-1.1738892,0.33474729999999997,-0.5276489000000001
5.1568604,-9.706207000000001,-2.6558685,-1.2761536,0.19094849,0.24574279999999998
4.800125,-8.791625999999999,-3.0461272999999998,-1.1515198,0.13128662,1.0393677
4.2757874000000005,-7.927307000000001,-3.2975159,-0.8457947,0.1770935,1.6465607
3.9956665,-7.302428999999999,-3.522583,-0.5027771,0.26551820000000004,2.097168
3.8089142,-7.1300507,-3.3501892,-0.6295470999999999,0.18881226,2.320877
3.507248,-7.2545470000000005,-2.8952942000000004,-1.1174316,0.069503784,2.6191560000000003
3.210373,-7.604095500000001,-2.6391144,-1.4146423000000001,0.18562317,3.3797455000000003
2.930252,-7.9991455,-2.4116668999999997,-1.2836151000000002,0.46044922,4.243683
2.5687256,-8.327148,-1.9591675,-1.026886,0.41784668,4.619720500000001
2.3580322,-8.568954,-2.1506958,-1.2186278999999998,0.07589722,4.2362212999999995
2.3149414,-8.755707000000001,-2.1171722,-1.6426086,-0.27030945,3.7653656000000004
2.693222,-8.523468,-1.4108886999999999,-2.0261078,-0.24475098,3.6844177000000005
4.065094,-8.317566000000001,-1.2241364,-2.1304932,-0.07963562,3.689743
5.465713500000001,-8.219406,-1.6838226000000003,-1.9291686999999997,0.10998535,3.5661620000000003
6.7753296,-7.83873,-3.6518555,-1.6884154999999998,0.41996765,3.324356
7.07222,-7.843521000000001,-5.148239,-1.5126495,0.84820557,3.0527039
6.619705000000001,-9.600861,-4.559265,-1.4221039,1.316925,2.8076935
7.773712,-12.00943,-3.3837127999999996,-1.3816223,1.811203,2.5200806
10.455231,-12.555313,-3.1418915000000003,-1.3666992,2.0274658,2.1483002
13.814285,-11.638321000000001,-5.3278045999999994,-1.3975983,2.0253296,1.7988892
14.185394,-10.108429,-6.1346435999999995,-1.491333,1.7185363999999999,1.5336456
11.922867,-9.327927,-4.992614700000001,-1.552063,1.1432953000000001,1.4175262
10.701827999999999,-8.645569,-3.048523,-1.5573883,0.5222473,1.4867706
10.345092999999999,-7.568191499999999,-0.70700073,-1.618103,0.0023956299,1.6540221999999998
9.708236999999999,-6.2082825,0.6361541999999999,-1.6862793000000003,-0.40240479999999995,1.7221985
8.930114999999999,-5.2434080000000005,1.05513,-1.6106415,-0.6527405,1.6817168999999998
8.171158,-4.6664124000000005,1.1221771,-1.2868042,-0.5568695,1.622055
7.718658400000001,-4.462905999999999,0.9066924999999999,-0.81703186,-0.44181824,1.4015503
7.606125,-4.4030457,0.76304626,-0.26948547,-0.47590637,0.8731841999999999
7.5343018,-4.8411865,0.24349976,0.30256653,-0.5717926,0.28727722
7.699493400000001,-6.265732,-0.54418945,0.8543700999999999,-0.81573486,-0.29115295
8.02272,-7.769302400000001,-1.1044312,1.3731537,-1.0926971,-1.1124725
7.917373700000001,-8.147583000000001,-1.2121735,1.9153748,-1.2897797,-2.1756134
8.14003,-8.511505,-1.3630066,2.3595886000000004,-1.4165344,-3.1588439999999998
8.887024,-8.636002000000001,-1.0158539,2.428833,-1.5752716,-3.9769745000000003
10.09848,-9.22258,-0.07014465,2.4245758,-1.7798004,-4.6598053
10.90773,-9.778030000000001,1.323288,2.6919556,-1.9342651000000002,-5.2947083
11.925262,-9.854645,1.9194488999999997,3.050949,-1.996048,-5.836914
13.493469000000001,-9.167511,1.7159423999999999,3.145752,-1.9385223000000003,-6.120285
13.883713,-8.15477,1.4334258999999998,2.8975525,-1.7787323,-6.128799400000001
13.95076,-7.948867999999999,0.9904938,2.5108642999999997,-1.5347899999999999,-5.832657
15.2939,-8.573746,0.38237,1.934555,-1.2077483999999998,-5.2861785999999995
16.512558,-8.968796000000001,0.37039185,1.2208252,-0.7795105,-4.6811066
15.765564000000001,-9.564941000000001,0.104644775,0.6999054,-0.24688720000000003,-4.126098600000001
14.839004500000001,-11.190613,-1.4156799,0.48791504,0.38162229999999997,-3.6541900000000003
14.475082,-12.864151,-1.8250885,0.3473053,0.83755493,-3.3708343999999997
14.269179999999999,-13.96788,-0.74290466,0.03944397,0.9856261999999999,-3.2707062000000002
13.596420000000002,-14.746001999999999,-0.17070007,-0.3536377,0.85780334,-3.1524506000000003
11.678664999999999,-14.93515,-0.7764281999999999,-0.677475,0.5818939000000001,-2.9116974
9.492752000000001,-14.336594,-1.9280396,-0.7850647,0.44128418,-2.2597656
7.567810000000001,-13.27356,-2.5720825,-0.88093567,0.45832825,-1.2349854
5.741043,-11.935211,-3.1778107,-1.1206207000000001,0.49028015,-0.15054321
4.646896400000001,-10.544174,-3.5752410000000006,-1.2761536,0.37416077,0.81352234
4.1728363,-9.306381,-2.95755,-1.2953339,0.21864319,1.5080719
3.7873687999999994,-8.494736,-1.8729706000000002,-1.0396729,0.21118164,2.1578827
3.8639832000000003,-7.9752045,-1.7317200000000001,-0.88520813,0.26551820000000004,2.971756
4.0315857,-7.7238007,-2.6271515,-1.1461945,0.29214478,3.6503296
3.926239,-7.8506927,-3.2687836,-1.3943938999999999,0.12915039,3.9496613
3.6221771,-7.9871674,-3.2759705,-1.3219604,-0.08921814,4.246872
2.3364868,-8.343903,-2.1722412,-0.91397095,-0.39068604,4.7155914
0.8520813,-8.693466,-1.5449677,-0.64019775,-0.78697205,4.8476870000000005
0.7156066999999999,-9.189055999999999,-2.1530914,-0.5869293000000001,-1.0937653,4.5749817
1.0867156999999998,-8.825134,-2.1722412,-0.6316681,-0.976593,4.1616516
2.6357574,-8.468399,-2.344635,-0.74246216,-0.6090698,3.8782959999999997
4.158478,-8.772461,-2.1578827,-0.79785156,-0.21066284,3.7227629999999996
4.484084999999999,-9.011887,-2.4284209999999997,-0.78826904,0.11424255,3.6631012000000003
4.934189,-9.057373,-3.5417328,-0.8138274999999999,0.42210388,3.7110442999999997
7.574997,-9.65593,-4.3557587,-0.92674255,0.8450165000000001,3.7142334000000004
9.954834,-11.499466,-4.808258,-1.0300751,1.250885,3.5320739999999997
11.013077000000001,-13.050903,-4.504196,-1.1887969999999999,1.3392944,3.0388641
12.825485,-13.237656,-4.808258,-1.3432617,1.173111,2.3933105
14.518188,-12.32785,-5.3182220000000004,-1.5041198999999998,0.8023986999999999,1.8457642
14.178207,-10.517838000000001,-4.760376,-1.6447296000000002,0.36671448,1.6625366000000001
12.478317,-9.122025,-3.9248046999999997,-1.6916046000000002,0.14939879999999997,1.8223267
10.838303,-8.209824000000001,-2.7660065,-1.6042633,0.19839478,2.000229
9.430511,-7.357498,-1.6072083000000001,-1.4604492,0.30386353,1.968277
8.152008,-6.636841,-1.0206299,-1.3336792,0.40505979999999997,1.7786560000000002
7.7114716,-6.143631,-0.9607849,-1.0726928999999998,0.5211792000000001,1.5645294
8.290863,-6.0670166,-0.76205444,-0.6700134,0.56378174,1.2172546
9.025879,-5.7342224,-0.79797363,-0.14378357,0.36138916,0.64308167
9.588516,-5.513962,-0.9871216,0.47407532,-0.08815002400000001,-0.10153198
9.270096,-5.487625,-1.4156799,1.0940552,-0.6261139,-0.9665375
8.638031,-6.5482483,-1.7532653999999999,1.5947266000000002,-1.1246643,-1.9817352
8.570984,-8.176314999999999,-1.4755402,1.9920807,-1.5283966,-3.0725555
9.133621,-8.849075,-0.77882385,2.2434845,-1.7979126,-4.0291595000000004
10.120041,-8.504318,-0.06535339,2.2722472999999996,-1.9513092,-4.7769775
11.089691,-8.183487,0.0016937256,2.1284332000000004,-2.0312042000000003,-5.2510223
11.762450999999999,-8.274475,0.44700623,1.9952698,-2.059967,-5.4385069999999995
12.492691,-8.300811999999999,0.96894836,1.9910126,-1.9619598000000003,-5.4576874
13.742462,-8.389389,1.13414,2.0549316,-1.7425078999999999,-5.403351
14.664229999999998,-8.319962,1.1197815,1.9856873,-1.5060272,-5.2339782999999995
15.011382999999999,-7.963226299999999,0.8372649999999999,1.7747650000000001,-1.297226,-4.896286
15.238845999999999,-7.8171843999999995,0.36799622,1.4700928,-1.1203918,-4.5085296999999995
15.581207000000001,-8.777252,-0.06774902,1.1462555,-0.8508911,-4.1538086000000005
15.123917,-10.367004,-0.6662903,0.8756714,-0.34487915,-3.7756347999999997
14.527756,-12.253632000000001,-1.5641174,0.69885254,0.08229065,-3.3910675
13.924423,-14.322220000000002,-2.3853302000000003,0.50283813,0.27722168,-3.0981292999999996
12.471146000000001,-15.145828,-1.9687346999999997,0.23971558,0.30493164,-2.9479217999999996
10.673096000000001,-14.726852,-0.91290283,0.01600647,0.18135071,-2.8627013999999997
9.46402,-13.96788,-0.25448608,-0.19277954,-0.029571532999999997,-2.6294098
8.214249,-13.125122,-0.6591034,-0.3770752,-0.13395691,-2.123413
6.9477234,-12.311096000000001,-1.2385101,-0.39305115,-0.22877502,-1.5684052
6.076233,-11.329467999999999,-1.6503143,-0.3813324,-0.29162598,-1.247757
5.571045,-10.218567,-1.6910095,-0.51768494,-0.08602905,-0.880249
5.0227814,-9.438049000000001,-1.7460785,-0.7009125,0.46684265,-0.074905396
4.661255000000001,-8.882599,-1.7484741000000001,-0.81703186,1.140091,1.1629333
4.689987,-8.430099499999999,-2.0932312,-0.86709595,1.5012207,2.4263306
4.9485626,-8.178711,-2.72052,-0.9331360000000001,1.3552704,3.2455292
5.3483887,-8.209824000000001,-3.139511,-0.8649597,0.8737792999999999,3.6013184000000003
5.049118,-8.674301,-3.2759705,-0.48466492,0.41996765,3.8644410000000002
4.270996,-9.378204,-3.0102234,-0.16294861,0.053527832000000004,4.168044999999999
4.199173,-9.962387,-2.3518066,-0.32061768,-0.4077301,4.402405
5.1305237,-9.708603,-2.4212493999999998,-0.8223572,-0.74116516,4.6527405
4.986862,-9.347076,-3.0437317000000004,-1.3368683000000001,-0.75927734,4.833832
3.7107544000000003,-9.921677,-3.3501892,-1.5872191999999998,-0.58883667,4.880707
2.1569214,-10.623184,-3.0341644,-1.4796143,-0.19041443,4.8924255
0.99572754,-9.890564,-2.5361632999999997,-1.0876006999999999,0.35179138,4.8285065000000005
1.9606018,-8.755707000000001,-2.9743042,-0.76057434,0.7502135999999999,4.569641000000001
4.4409943,-8.849075,-3.2400665,-0.79571533,0.9749755999999999,4.217041
6.191147,-9.696625,-2.8761444,-1.0918579,1.3052063,3.9251556000000005
7.2206573,-10.563324,-3.5584870000000004,-1.4487305,1.4649963,3.5693665
8.77449,-11.212158,-5.6917267,-1.6617737000000001,1.4138641,3.196518
9.674713,-11.717331,-6.714050299999999,-1.7810974,1.3659363000000002,2.8343353
10.09848,-11.755646,-6.065216,-1.8151855,1.2018738000000002,2.5190125
10.323547,-11.621567,-4.1498566,-1.6468658,0.89401245,2.2527008
10.081726,-11.214554,-1.834671,-1.3272858,0.56059265,1.9501648
9.959625,-10.611221,0.24829102,-0.8873290999999999,0.49028015,1.7030182
10.122437,-9.440445,0.8851471,-0.4644165,0.56484985,1.4462891000000002
10.328323,-7.9368896,-0.4699707,-0.15336609,0.6277008000000001,1.0180511
10.03624,-7.0821686,-1.9328308,0.11508179,0.5350189000000001,0.36291504
10.005111999999999,-6.677536,-2.6079865,0.50709534,0.4039917,-0.28157043
10.045822,-6.732605,-2.0716858,0.8405304,0.116378784,-0.802475
10.318756,-6.9169617,-1.6503143,1.1015167,-0.46632385,-1.4139403999999998
10.450439,-7.285675,-1.4922943000000002,1.3731537,-1.1470337,-2.185196
10.675491000000001,-7.632827799999999,-0.8386688,1.6170959999999999,-1.8692779999999998,-2.9638977000000004
11.463181,-7.9440764999999995,-0.1850586,1.9633179,-2.4913939999999997,-3.7245025999999997
12.001877,-8.298416,0.73431396,2.2541351,-2.906845,-4.487228400000001
12.3250885,-8.181107,1.026413,2.269043,-3.2637023999999997,-5.10083
12.78717,-7.616073599999999,0.6313629,2.0666504,-3.4778290000000003,-5.422530999999999
13.538955999999999,-6.876266499999999,0.30336,1.9377441000000002,-3.3830261,-5.500290000000001
13.773589999999999,-6.993575999999999,0.13098145,1.8365479,-3.0389404,-5.510956
12.703384,-6.9600525,-0.33349609999999996,1.5286865,-2.5936584,-5.4757996
12.732117,-7.508331299999999,-1.166687,1.040802,-2.0237427,-5.354355
13.376144,-7.99675,-1.5497589,0.5102997,-1.2887115,-5.148758
13.787949,-9.284821,-1.8083343999999997,0.085250854,-0.36405945,-4.8217163
14.204544,-11.003860000000001,-1.3749847,-0.25883484,0.5478058000000001,-4.4393005
14.554092,-12.7612,-1.0613403000000001,-0.57307434,1.141159,-4.272049
14.420029000000001,-14.544891,-1.4659576,-0.7307434,1.5129395,-4.288025
13.529373000000001,-15.811417,-1.5569305,-0.82554626,1.7174683000000002,-4.2187805
12.346649000000001,-15.959854,-0.7476959,-0.93634033,1.6492919999999998,-3.9087982000000006
11.336288,-15.054854999999998,-0.28082275,-0.96510315,1.3243866000000002,-3.3271637000000003
10.407333,-13.960709,-0.85543823,-0.8734894,0.91000366,-2.5772095
9.432891999999999,-13.070053,-1.6359406,-0.69877625,0.49560547,-1.7942352
8.408188,-12.076462,-2.1195679,-0.53686523,0.18988037,-1.0293884
7.292480499999999,-11.274414,-2.1578827,-0.39091492,0.08761597,-0.2048645
6.337204,-10.805145,-2.2823792000000003,-0.32913208,0.18988037,0.6974182
6.1767883,-9.916901,-2.7492522999999998,-0.44418335,0.29853820000000003,1.5932921999999998
6.322830000000001,-9.387772,-3.048523,-0.74458313,0.23887634,2.512619
5.7075195,-9.414108,-3.4962462999999997,-0.95977783,0.2239685,3.4809417999999996
4.405075,-9.854645,-3.6422882000000003,-0.9864044,0.09826660000000001,4.3012084999999995
2.9613647000000003,-9.900131,-3.0413360000000003,-0.8585663,-0.20852661,4.8349
1.8241272000000002,-9.703812,-2.3901215000000002,-0.61569214,-0.6303711,5.1821747
1.3117676,-9.236938,-1.7652283,-0.46122742,-1.0138702,5.506012
1.1106566999999998,-8.880203,-1.4779205,-0.5262146,-1.1725922,5.931061
0.5671691999999999,-8.260100999999999,-1.1020355,-0.9022522,-0.882843,6.155822799999999
0.3205719,-8.044632,-1.4060974,-1.1792145,-0.324646,5.7947083
0.72039795,-7.979980499999999,-2.5050354,-1.0140991,0.3262329,5.252487
0.8927765,-8.106873,-3.2640076000000002,-0.74990845,0.93981934,4.7166595000000004
0.91433716,-8.564178,-2.6582642000000005,-0.7286071999999999,1.3584747,4.262848
2.5567474,-10.139557,-1.9160613999999998,-0.9810790999999999,1.666336,3.9730988
5.8392029999999995,-12.339828500000001,-2.2991333,-1.3986664,1.9603423999999998,3.7451324
9.076157,-14.099564,-3.2807617,-1.8577881,1.9305267,3.4575042999999996
11.527832,-15.651016,-4.499405,-2.1848297000000003,1.7409058000000002,3.1741486
12.86618,-16.486588,-5.253586,-2.2977448,1.668457,2.8843994
13.493469000000001,-15.428345000000002,-5.5648346,-2.1283722000000003,1.3105316,2.6010437
14.575638,-13.381302,-4.370117,-1.8599243000000003,0.95899963,2.5041046000000002
14.084839,-11.346237,-1.6551056,-1.598938,1.0910950000000001,2.5328673999999998
12.813507000000001,-9.414108,-0.17070007,-1.3517914,1.2263794,2.4391173999999998
11.455994,-7.965622,-0.6591034,-1.2154388,1.1891022,2.240982
10.577332,-7.328766000000001,-1.8586121,-0.92355347,1.1560669,1.9650726000000003
10.263687,-7.2545470000000005,-2.7372742000000003,-0.37387085,1.0207825000000001,1.4516143999999997
9.952438,-7.185104400000001,-2.9503632,0.32919312,0.5765686,0.6867523
9.614853,-7.4484710000000005,-2.0668945,0.99072266,-0.13502502,-0.19102478
9.981171,-8.360672000000001,-1.2361145,1.2762146,-0.802948,-1.1252594
10.297211,-9.303986,-0.031829834,1.4509277,-1.457016,-2.3108978
10.167923,-9.746902,0.6672821,2.0666504,-2.0727386,-3.7628480000000004
9.985961999999999,-9.648743,1.0096436,2.6557312,-2.378479,-5.144500700000001
10.450439,-8.918517999999999,1.3735657,2.6067352,-2.4722137,-6.187393
10.895752,-8.367844,0.9617614999999999,2.2093964,-2.4210814999999997,-6.6720885999999995
11.202209,-7.673522999999999,1.5627136000000001,1.9270935000000002,-2.3092346,-6.680603
12.071304,-6.617691000000001,2.69516,1.8748932,-2.205902,-6.487793
13.194182999999999,-6.225036599999999,2.5993958,1.837616,-2.0514374,-6.313095
13.986664000000001,-6.1939087,1.7159423999999999,1.7172394,-1.7979126,-6.028671299999999
15.174194,-6.5769806,-0.63516235,1.4466553,-1.5262604,-5.6377106
16.771133,-7.520294,-1.6335449,1.1015167,-1.2642058999999999,-5.255279499999999
18.71283,-9.603256,0.09027099599999999,0.84265137,-0.8732605,-4.8195953000000005
18.858871,-12.299133,0.44461059999999997,0.6466522,-0.2735138,-4.3871
17.934707999999997,-15.801848999999999,-2.0190125,0.44850159999999994,0.20692444,-4.063263
16.060043,-18.547989,-3.5417328,0.23757935,0.35925293,-3.9034730000000004
13.989059,-19.737915,-3.0006409,0.13638306,0.3304901,-3.7596587999999995
12.092865,-19.232727,-1.2624511999999999,0.110824585,0.18988037,-3.3889465
10.864639,-17.939865,-0.5250397,-0.022338867000000002,0.07269287,-2.9031830000000003
9.483185,-16.572770000000002,-0.6279906999999999,-0.20556639999999998,-0.08496094,-2.471756
7.871886999999999,-14.990204,-1.0661316,-0.33338928,-0.19787598,-2.076538
6.883072,-13.290329000000002,-1.3438568000000002,-0.32273865,-0.043411255,-1.5407104
5.9373627,-11.978302000000001,-1.0517578,-0.06707764,0.49028015,-0.74176025
5.1329193,-10.984711,-1.1858368000000001,0.21202087,1.2210541000000001,0.08062744
4.7378693,-10.01506,-1.5138397,0.08099365,1.8442383000000002,0.7496033000000001
5.1137543,-9.371017,-2.1315459999999997,-0.37068176,2.238388,1.5538788000000001
5.3388214000000005,-9.703812,-2.2919617000000003,-0.9544524999999999,2.2106779999999997,2.6351318
4.467331,-9.821121,-1.8873291,-1.4838867,1.6343689,3.8591156000000004
3.6724547999999997,-9.588898,-2.1698456000000004,-1.7171783,0.77363586,4.86792
3.6101989999999997,-9.414108,-2.3326569,-1.8237,-0.16911316,5.247162
3.6844177000000005,-9.378204,-2.1291504,-1.953659,-0.90841675,5.3057404
3.282196,-9.311157000000001,-1.7676238999999998,-2.0442047,-1.0511627000000001,5.6168059999999995
2.2359313999999997,-9.08371,-0.8243103,-2.1688537999999995,-0.6325073,6.0556946
1.8360901,-8.870636,-0.88656616,-2.5299682999999997,-0.16485596,6.082321
2.087494,-8.470794999999999,-2.7660065,-2.8527527000000004,0.19413757,5.856491
1.4649963,-8.085327000000001,-4.523346,-2.907074,0.6000061,5.6540833
0.64378357,-8.128433,-6.029312,-2.671646,1.1187897,5.3558197
1.3452911,-9.730148,-7.0659943,-2.2434082,1.3446198,4.9371643
3.5383758999999997,-11.652695,-6.41716,-1.9430083999999999,1.3563385000000001,4.4940185999999995
7.601333599999999,-12.864151,-6.00058,-1.8332825000000001,1.3148041000000001,4.0018616
11.022644,-13.886475,-6.357315,-1.8375549,1.2902985,3.3850708
12.0282135,-15.346939,-5.8688965,-1.8854828000000001,1.20401,2.9781494
11.891739,-15.478622,-4.7795258,-2.0591278,0.9845581,2.8822632
12.562119000000001,-14.379684,-4.547287,-2.2519379,0.807724,2.879074
12.655502,-13.256804999999998,-3.5752410000000006,-2.2050629,0.69480896,2.8652189999999997
11.743300999999999,-12.150681,-1.5353851,-1.8993378,0.5776366999999999,2.718216
11.223755,-11.204971,0.29377747,-1.4689636000000001,0.48602295,2.38266
11.06575,-10.153915,2.0176086,-0.89372253,0.3539276,1.8787842000000001
10.632400500000001,-9.323135,1.7997284,-0.1309967,0.17176819,1.2193909
10.510284,-8.849075,0.8372649999999999,0.75743103,0.14300537,0.5099182
11.3051605,-8.382217,-0.29040527,1.5712891000000002,0.17922974,-0.26771545
10.977158,-8.355881,-0.86979675,2.157196,0.08973694,-1.1838378999999999
9.973984,-9.038223,-1.2576599,2.5662537,-0.30653379999999997,-2.2310027999999997
9.950042999999999,-9.660721,-1.2672424,2.747345,-0.87112427,-3.2994537000000004
10.471985,-9.9839325,-0.0007019042999999999,2.7398987,-1.3323822,-4.1080017
11.312347,-9.916901,1.541153,2.5907592999999998,-1.6924438000000002,-4.667267
12.396927,-9.81395,2.2833557,2.3372192000000003,-1.9640808,-5.194565
13.050537,-9.251311999999999,3.059082,2.096466,-2.1483765,-5.573807
13.847809,-8.918517999999999,3.7845306000000005,2.043213,-2.1792755,-5.688843
14.278763,-8.537842,3.8659362999999995,2.107132,-2.139862,-5.640915000000001
14.305099499999999,-7.683105499999999,2.9824677000000004,2.096466,-1.9981689999999999,-5.578064
14.252426000000002,-6.859497,1.4717255,1.9633179,-1.7489013999999998,-5.3927
14.554092,-7.26651,0.12619019,1.7406769,-1.4293213,-5.0944366
14.867737,-8.829925999999999,-1.2289276000000002,1.4764861999999999,-1.0373077,-4.8558197
14.065674,-10.721344,-2.2727966,1.1643677,-0.63357544,-4.721588
13.246857,-12.562485,-2.8138885,0.7989807,-0.43544006,-4.5980225
13.728104,-14.585587,-3.4291992,0.38778687,-0.31825256,-4.3913574
13.706543,-16.077179,-3.3525848,0.038375854,-0.03276062,-4.117584
12.629166,-16.79544,-2.2297057999999996,-0.18852234,0.34541320000000003,-3.7617797999999993
11.238128999999999,-16.61348,-0.9152832000000001,-0.40156555,0.39015198,-3.4113160000000002
10.172714,-15.797057999999998,-0.68544006,-0.6188812,0.25166320000000003,-2.966034
8.918152000000001,-14.724457000000001,-1.0565491000000002,-0.82128906,0.19946289,-2.4195557
7.6252747,-13.441162,-1.4803162,-0.96510315,0.27510070000000003,-1.7250061
6.938141000000001,-12.10759,-1.9136658,-1.0119629,0.5254364,-0.81632996
6.6652070000000005,-11.013442999999999,-2.550537,-0.9895934999999999,0.75553894,0.1477356
6.224670400000001,-10.022247,-3.120346,-0.9331360000000001,0.8130646,1.0169983
5.49205,-9.414108,-3.4627227999999994,-0.9544524999999999,0.69374084,1.8809203999999997
5.0539093,-9.248917,-3.716507,-1.202652,0.4774933,2.9461823
4.6708374,-9.378204,-3.7595977999999994,-1.3869476,0.22076416,4.051925700000001
4.3476105,-9.20343,-3.8170623999999997,-1.2442017,-0.16911316,4.700668299999999
3.6413269999999995,-8.992737,-3.5920105,-0.8862610000000001,-0.7251892,4.883896
3.1145935000000002,-8.884994500000001,-3.3717346,-0.5304718,-1.28125,5.0372925
2.5998535,-9.110046,-3.0437317000000004,-0.3110199,-1.5816497999999999,5.444229
1.3309174,-9.239334,-2.3877257999999997,-0.41009520000000005,-1.2929688,5.9789886
0.30619812,-8.698242,-1.7867737000000001,-0.75737,-0.46739197,6.241043
0.5743560999999999,-8.3510895,-1.9591675,-1.090805,0.35499573,6.0077515
1.1489563,-8.396576,-2.6630554,-1.2868042,0.8567351999999999,5.726532
0.8520813,-8.873016,-3.4268036,-1.3890686,1.3638,5.526260400000001
0.87602234,-9.7708435,-2.7971343999999996,-1.4167633,1.7377014,5.315338
3.8280792000000003,-11.193008,-1.9998627,-1.4210358,2.0466309,5.02771
7.914978,-12.440384,-2.5912322999999997,-1.425293,2.3054962000000003,4.452469000000001
10.280441,-13.196945000000001,-3.7141113,-1.4103851,2.320404,3.5384674
11.513458,-14.583191000000001,-4.746017500000001,-1.3805542,2.1659393,2.6074371
12.806335,-16.053238,-5.7180634,-1.3177032,2.1009674,1.9597473
14.245239000000002,-15.933517000000002,-5.943115,-1.2974548000000001,1.9805907999999999,1.5325775
14.982666,-14.293503,-4.8657227,-1.472168,1.7749939,1.3653258999999998
13.756820999999999,-12.289551,-3.0461272999999998,-1.7640533,1.572586,1.4452209999999999
12.013855,-10.709381,-1.7101593000000002,-1.9035950000000001,1.4373016,1.6177979
10.862244,-9.145966,-0.38616943,-1.7171783,1.4479523,1.809555
10.120041,-7.958435000000001,0.46377563,-1.2655028999999998,1.3989563,1.8809203999999997
10.431274,-7.0510406,0.7367096,-0.69451904,1.0356903,1.6177979
11.199814,-6.399811,0.71995544,0.055419922,0.3262329,0.99035645
11.5182495,-6.3040465999999995,0.53559875,0.9438629000000001,-0.31932068,0.20205688
10.584503,-7.0031586,0.72473145,1.790741,-0.68045044,-0.63417053
9.818359,-7.3886259999999995,0.5332031,2.4501342999999998,-0.9989624,-1.5545502
9.138411999999999,-7.9560394,-0.637558,2.6397552,-1.4261322,-2.6581726000000003
8.484802,-8.607269,-1.6455231,2.4906158,-1.7616881999999998,-3.7628480000000004
8.266922000000001,-8.592895500000001,-1.087677,2.2083282000000004,-1.9321289000000001,-4.676849400000001
8.594925,-9.136383,0.40631104,1.790741,-2.0578308,-5.4150696
9.365860000000001,-9.854645,1.8979034,1.3774108999999999,-2.2005767999999994,-5.851837000000001
10.855057,-9.85704,2.398285,1.1601105,-2.1483765,-5.906158400000001
13.002655,-9.708603,2.3791351,1.1441193,-1.8543701000000001,-5.673935
14.113570999999999,-9.035828,2.3767395000000002,1.0642242,-1.4857788,-5.3948364
14.12793,-7.970413000000001,1.7925567999999998,0.8639679,-1.1694031,-5.179657
13.900482,-7.199478,0.9569701999999999,0.5699463,-0.7528838999999999,-4.9644623
14.412842000000001,-7.127655,-1.1451263,0.33026123,-0.24261475,-4.578842
14.850983,-8.169128,-3.2664032000000005,0.35688782,0.27296448,-3.9812317000000004
14.652251999999999,-10.031815,-4.3437805,0.47726440000000003,0.7161255,-3.4592437999999994
14.431992000000001,-12.26561,-5.0309295999999994,0.52734375,0.81625366,-3.1236877
13.957947,-14.793884,-4.8010864,0.38246155,0.74061584,-2.966034
12.74408,-16.491379000000002,-3.455536,0.087387085,0.61491394,-2.8381958
11.058563000000001,-16.481796,-1.8801575000000001,-0.185318,0.44979858,-2.5196838
9.724991000000001,-15.277512,-1.657486,-0.28225708,0.31877136,-1.9998322
