accx,accy,accz,gyrx,gyry,gyrz
9.874856,-9.524623,-0.019536685,-0.6483549,-2.3815193,-1.8804876
9.727297,-10.824253,0.41412026,-0.5025152,-2.8111145,-2.0795946
9.645166,-11.268856,0.34602916,-0.37795106,-3.1368978,-2.2041588
9.445682000000001,-10.685647,-0.025091235,-0.49078658,-3.2348456000000003,-2.303154
9.630427000000001,-9.767433,-0.17585889999999998,-0.83201593,-2.991564,-2.5118256000000003
9.797792,-9.318913,0.087445825,-1.2727638000000001,-2.4219758999999996,-2.8775418
9.442339,-9.563553,0.53995955,-1.6581675,-1.6665975,-3.3225483999999996
8.162379,-10.424239,0.71683353,-1.9136837,-0.8755619000000001,-3.6674953
6.491504,-11.456311999999999,0.51629525,-2.1149201,-0.095713854,-3.8170873999999997
5.041834400000001,-12.204357,0.1408844,-2.2671652,0.51590186,-3.8202812999999995
2.999906,-12.737747,-0.20372742,-2.3331735,0.85180795,-3.6142802000000005
0.78027034,-13.040364,-0.19616173,-2.3576605,0.85020226,-3.071832
-0.17623239999999998,-12.292703,0.5754416,-2.294305,0.59416246,-2.2770786
0.99854493,-11.473331,1.8430276999999997,-2.041983,0.36100390000000004,-1.6393528000000002
2.0392276999999996,-11.009171499999999,2.1873807999999997,-1.7156586999999999,0.44565237,-1.3194165
1.8895613999999998,-11.507386,1.9809816999999998,-1.5325562,0.59894466,-1.1048981000000002
1.0394762,-11.424441,2.075773,-1.3733821000000002,0.77408844,-0.7280116999999999
0.5543726,-10.693242,2.4320395,-1.1599283,0.9657256,-0.34313172
0.51829684,-10.850589,2.7435637,-0.76122534,1.0908133,-0.018430676
0.9380578000000002,-12.527785,2.5336976000000004,-0.21186551,1.0860311000000002,0.3403392
1.3644364,-13.485054000000002,1.5474492,0.31405455,0.9747664,0.8274256999999999
1.9090311999999998,-13.285692999999998,0.49741933,0.57756436,0.93218035,1.2671264
1.5320592,-12.762425,-0.1982399,0.60896283,0.91940457,1.8484258999999998
2.3914435000000003,-12.39686,-0.18153796,0.59246945,0.8214566999999999,2.5196970000000003
4.6025367,-11.708671,0.40920737,0.78143626,0.68943995,2.9301112000000002
6.412611,-11.164268,0.20921493,1.1444823,0.5627465,2.9876022
6.801295,-10.709292999999999,-0.79526764,1.4207853000000001,0.42542399999999997,2.9508805000000002
6.695701,-10.197039,-2.013696,1.4452548,0.32480577,2.96418
6.496111,-9.467105,-2.9229946,1.1897386,0.28274333,3.0057012999999997
6.503178599999999,-9.062791,-3.0069067000000005,0.8442506999999999,0.2795494,3.1068432
7.450842,-8.977203,-2.3654616,0.60737455,0.4828977,3.2516356
8.67993,-9.055455,-2.2009132,0.46205845,0.8912,3.3086032999999997
9.299702,-9.351723,-2.6093830000000002,0.21078339999999998,1.3010906,3.3203144
9.610805000000001,-9.377791,-2.8729367000000003,-0.15488052,1.370834,3.3261611000000006
10.184617999999999,-9.108941,-2.1883673999999997,-0.4029616,1.0562208999999998,3.2734697
11.060005,-8.703708,-1.0650749,-0.32791245,0.4802448,3.1260068
12.372889500000001,-8.399923,-0.32648292,0.02872812,-0.039287362,2.8476093
13.435963000000001,-8.188017,-0.8973564,0.34122932,-0.32833135,2.461141
14.154138,-8.352279,-1.7987925,0.35665804,-0.37252307,2.0038648
14.451784,-8.215386,-1.8760486,0.21027727,-0.16491616,1.6434891999999999
14.702360999999998,-7.211268400000001,-1.4505415000000002,0.07400196,0.14329153,1.2282753999999998
14.893198000000002,-6.0630956,-1.0752838,0.013299409,0.49460885,0.59639645
14.10769,-5.6968594,-0.96847373,-0.007976155,0.8092219,-0.20792107
12.747630000000001,-6.7169422999999995,-1.1562557,0.020210912,1.0051177,-0.83767074
10.541326,-7.732333000000001,-1.6103401000000002,0.062290803,1.007247,-1.1496135
9.16035,-8.238995,-1.9138674999999998,0.13414600000000002,0.6117379,-1.1586543
9.208406,-8.221535000000001,-1.9832991000000002,0.28640854,-0.23996532,-1.0894518999999998
10.586518,-8.557863000000001,-2.4626472,0.33004177,-1.1183197,-1.2571433
11.690446000000001,-9.404894,-2.587634,0.058555797,-1.8018081000000001,-1.6734216
12.272544,-11.291428999999999,-1.7096803,-0.28637362,-2.1760416,-2.1807191
12.1156,-12.691807,-0.5490479,-0.532308,-2.3660905,-2.601797
11.144684,-13.055132,0.29559773,-0.6590014,-2.3351982000000002,-2.8626192
9.763238000000001,-12.467049000000001,0.66788656,-0.8346688,-2.0040917,-3.041498
8.537042999999999,-11.451964,1.2486624,-0.98691386,-1.4643137,-3.2251415
7.41535,-10.870164,1.9502305,-0.9565626,-1.0027964,-3.4327486000000005
6.241722,-10.6140995,2.5869157000000005,-0.63612014,-0.83831656,-3.59564
5.7842765,-10.608487,1.4850179,-0.41999602,-0.5519255,-3.6840059999999997
4.505878,-10.761219,0.51169837,-0.42584288,-0.23092452,-3.7441676
2.7396178,-11.321299,-0.54155886,-0.5498834,0.11878711,-3.6355731
0.6526307,-11.751431,-1.357206,-0.804335,0.2225993,-3.2123656000000005
-0.036765362999999995,-11.657301,-1.0180337,-1.0545105,0.05173156,-2.5448296000000004
0.94932014,-10.797255499999999,0.043133937000000004,-1.188674,-0.03609341,-2.0694718
1.1955111,-10.292347999999999,0.60681516,-1.249359,0.1118756,-1.8757054
0.48066953,-11.057725999999999,0.75142497,-1.3196086,0.32267648,-1.608478
-0.077342294,-11.993687,1.1218367,-1.297792,0.45097563,-1.1597188999999999
-0.63999885,-11.7701645,1.508213,-1.1854625,0.5792573000000001,-0.62898177
-1.0929626000000001,-11.038122,1.6581283,-0.9986075999999999,0.78953457,-0.18076375
-1.6553031999999999,-11.16762,1.7162212,-0.74471456,0.8374264000000001,0.31426397
-1.0126995,-12.660146000000001,1.4913098999999999,-0.25815165,0.6899810000000001,0.9589188
-0.09243534,-13.773679999999999,0.30660146,0.19216076,0.39559633,1.708433
1.6015773000000002,-14.588148,-1.0200735,0.34388223,0.064507365,2.4323955
3.4092855,-14.406217999999999,-1.1955878,0.27094492,-0.096778505,2.9977252
5.458119,-13.453163,-0.47932875,0.23954643,-0.11540117,3.3836524
7.135103999999999,-12.071918499999999,0.41842026,0.47324604,0.022985986,3.4901175
8.300228,-11.088946,0.14207193,0.86451393,0.21195279,3.3788702000000006
9.023325,-10.54914,-1.0340557,1.0470928,0.4488463,3.1473174
8.853978,-9.950331,-2.2943729999999998,0.90868825,0.8172155,2.8603852
7.6708016,-9.364777,-3.1516025,0.43385395,1.2622396,2.6740713
6.4284124,-8.9486065,-3.0027790000000003,-0.18469074,1.6050571000000002,2.6953642
6.048309,-8.727037,-1.6982839,-0.5221676,1.5949342,2.8236635
6.780772,-8.686116,-0.17581102,-0.46415287,1.3042846000000001,2.8923247
7.4905663,-8.6763,0.26273009999999997,-0.10751228,0.87044805,2.8598442000000004
7.9818854,-8.719903,-0.55711156,0.13201670000000001,0.38549086,2.7677605
8.086694,-9.076505000000001,-1.0932212,0.096359625,0.049061205,2.7065517999999997
8.560152,-9.409299,-0.29073268,0.11978195,-0.20643754,2.7762778
9.846509,-9.458312,0.60415286,0.43704790000000004,-0.43853143,2.8524091
11.906039,-8.93699,0.38505465,0.80168205,-0.48696432,2.7507262000000003
14.060437,-8.286686999999999,-0.43049659999999995,0.95179784,-0.29480356,2.2737625
14.929399499999999,-7.657806,-1.1988056,0.8400270000000001,0.09909979,1.5466061000000002
14.708260999999998,-7.22956,-1.5810925,0.65847784,0.57126373,0.7374714
13.066672,-7.154219,-2.2019856,0.42535418,0.9811716999999999,0.05078908
11.200114,-7.129396400000001,-2.5439830000000003,0.13735741,1.2196535,-0.3766595
10.653402,-7.708027,-2.4056268,-0.09260717,1.3325065,-0.73705256
9.865605,-8.80368,-1.9107740000000002,-0.113882735,1.2042073999999998,-1.0351373
8.745311000000001,-9.470342,-1.9177363999999997,0.039933134,0.739496,-1.0724175
8.008336,-9.200448,-2.1190696,0.19963075,-0.013194689499999999,-0.9414655000000001
9.268232000000001,-8.652482000000001,-2.2824788,0.2986433,-0.91655964,-1.0287669
10.404646000000001,-8.925057,-2.2600114,0.23104669,-1.6484984,-1.4040476
10.934109,-10.211979,-1.8560425999999999,0.041538835,-2.1116214,-1.9049744999999998
10.749133,-11.631453500000001,-1.4461458,-0.13995795,-2.3096466,-2.2696087000000005
10.3094225,-12.46611,-1.0078344000000001,-0.35397023,-2.3655496,-2.5565407
9.570600500000001,-12.159854,-0.34026393,-0.56796503,-2.2526965,-2.7668006000000003
8.96008,-11.5039,0.25250208,-0.722322,-1.981734,-2.995177
8.270932,-11.094348,0.5810536000000001,-0.84316856,-1.6186881000000002,-3.2581458
7.1986175,-10.99088,0.94988513,-0.9081123,-1.2087976,-3.548778
5.6480274,-11.017992,1.3561811000000001,-0.8591383,-0.87449723,-3.7111459000000004
4.345294,-11.200774000000001,1.3191861,-0.73192126,-0.47205920000000007,-3.6951761
3.0122793,-11.049241,0.9054296000000001,-0.66484827,-0.09623746,-3.5754117999999995
1.4754028000000001,-11.199013,0.19059761,-0.66271895,0.28541368,-3.3507702000000004
-0.29414204,-11.352663,-0.3782743,-0.76757836,0.59576815,-2.8599662999999995
-1.6914173,-11.432552000000001,-0.4275661,-0.9283581,0.76876515,-2.0726483
-1.5098506,-10.952678,0.21302649999999998,-1.0587691000000001,0.7714354999999999,-1.4045886
-0.87934244,-10.5346985,1.12991,-0.9996896999999999,0.6905220999999999,-0.98352796
-0.28012162,-11.356838,1.5050526000000002,-0.8224165999999999,0.47705084,-0.63219315
-0.06097553,-11.754909,1.5782673,-0.6488785,0.31576496,-0.23931955
0.07212293,-11.271777,1.4994598999999997,-0.5658357,0.3604803,0.13435544
0.2784744,-10.866199499999999,1.5840325000000002,-0.5541246,0.5744751,0.40530035
0.65164423,-12.449992,1.4870291000000002,-0.39069197,0.73843133,0.63952357
0.4315405,-13.947020000000002,0.73154354,-0.21237166,0.7213969,1.1180927999999999
0.9768247,-15.219585999999998,-0.39531144,-0.18894935,0.5164429,1.7611245
1.9029401999999997,-14.464263,-0.23406674,-0.28529152,0.28860766,2.4787166000000003
4.2929187,-13.022053999999999,0.8615870000000001,-0.12559389,0.08367108599999999,2.8901953999999996
5.9854755,-11.618821,1.5810063,0.37049848,-0.047804568,2.9732382
7.203214,-10.816285,0.7757404999999999,1.0353991,-0.10316641,2.9040357999999995
8.150322000000001,-10.1990795,-1.4765233,1.3143201999999998,0.04108505,2.6990993
8.220682,-9.352011,-3.513462,1.0332523999999998,0.49621457,2.4025852999999997
7.2021894,-8.366241,-4.463319,0.27628562,1.1775911000000001,2.1832674
6.230249,-7.440930000000001,-3.965861,-0.47958156,1.7966943,2.0911836999999998
5.8456445,-7.0069284,-2.4283142000000004,-0.9570861999999999,2.0548634999999997,2.0278282
5.8158129999999995,-7.1012889999999995,-1.4661996000000002,-1.0177711999999999,1.9420104,1.9815247
5.995359,-7.36941,-1.1956835,-0.9773146,1.498592,1.9362682
6.166257,-7.803306599999999,-0.9015989,-0.9528276,1.0381218,1.9229688999999999
6.331658,-8.185364,-0.22673089999999999,-0.92249376,0.6505889,1.9756603
6.9892397,-8.227359,0.7572764,-0.7643844,0.39774308,2.028893
8.12797,-8.266163,1.1996483,-0.41783180000000003,0.19971803,1.9692724999999998
9.122436,-8.46107,0.8653698000000001,-0.09950122,0.120392814,1.8122451000000002
9.550806,-8.441783000000001,0.34108755,0.086795226,0.18427186,1.6685173999999998
10.420858,-8.370368,0.05965393,0.17303194,0.2832844,1.4875267
11.2468,-8.405927,-0.26495194,0.22891739,0.37538540000000004,1.1186165000000001
11.054134,-8.02365,-0.5244164000000001,0.26883307,0.46801004,0.7667579999999999
10.527228,-7.5856449999999995,-1.1327543,0.26830947,0.64420104,0.46066222
10.446697,-7.465638,-1.6659716,0.1150172,0.8193448,0.19716984
11.045257000000001,-8.803422,-1.5723106000000002,-0.015393803999999999,0.90558153,-0.17011724
10.36426,-9.639209,-1.3924676,-0.031363565,0.78260565,-0.35004324
9.999096,-9.473367999999999,-1.1435857,0.08360127,0.34929276,-0.41392228
10.861583,-8.627563,-1.1449361,0.33166492,-0.27616346,-0.5730789000000001
11.843178,-8.653267999999999,-1.9417933,0.4194899,-0.90643674,-1.0213143
12.190796,-9.520399000000001,-2.3270586,0.28853783,-1.3791417,-1.5403228999999998
11.915865,-10.433012,-2.2735529999999997,0.060161497,-1.6484984,-2.0108986
11.278653,-10.819426,-1.7602842,-0.19053759,-1.7565691000000003,-2.3659682
10.950091,-10.379391,-1.1384333,-0.37948695,-1.7187653999999999,-2.6991866
10.668352,-9.5118,-1.0895437,-0.5402840999999999,-1.4568613000000001,-3.1458163
9.347395,-9.256635000000001,-1.1491593,-0.74307394,-1.0299361999999999,-3.6270385000000003
7.2303357,-9.4420805,-1.3513928999999998,-0.92725855,-0.551908,-3.9400458
5.3882375,-9.965807,-1.3436738000000001,-1.0763097,-0.25221753,-4.0944204
4.035283,-10.263789,-0.6355168999999999,-1.0454347,-0.20430824,-4.0715213
2.5261126,-11.024964,-0.3290112,-0.85487974,-0.27351055,-3.9453690000000003
0.5861293000000001,-11.535445,-0.20817105,-0.63769096,-0.51412165,-3.4646879999999998
-0.0563212,-11.470208999999999,0.21925142,-0.36831683,-0.8585275,-2.765736
-0.23979367,-11.042518,0.44308054,-0.11014773,-1.0661343,-2.0928767
-0.23764847,-10.726436,-0.28210402,0.0042935097999999994,-1.070934,-1.4828317
0.09381439999999999,-10.896939999999999,-0.76482296,-0.1868026,-0.8734325999999999,-0.81742495
0.8459385,-11.024944,-0.31048965,-0.41411427,-0.46141270000000006,-0.17704620000000001
1.7564534,-10.815155,0.408039,-0.5487839,0.0043458696,0.2647839
2.4935994,-10.396514999999999,0.73942524,-0.6147922,0.40784854,0.47664940000000006
2.1900625,-9.959831,1.5544785,-0.5908463,0.7677005,0.55648077
2.4278834,-11.136457,2.1781106,-0.18999654,0.85341364,0.63474137
1.9565511999999998,-12.695753,1.2779865,0.18634881,0.8560665000000001,0.8508655
1.5210747,-13.950946,-0.17572482,0.30983084,0.73895496,1.2634264
0.70998615,-13.955360999999998,-0.88342214,0.13629276,0.74321353,2.0256990000000004
1.8452686999999999,-12.952095,-0.16116807,0.07721337,0.6484595999999999,2.7959826
4.568271,-11.751392999999998,0.52667654,0.27043876,0.52443653,3.0828972
6.716348599999999,-10.897352,0.4334367,0.62072635,0.42275366,2.8763723
7.282376299999999,-10.398947999999999,-0.30801883,0.91881114,0.33599332,2.5069385
6.681537,-9.601955,-1.530527,0.9528974,0.48397979999999996,2.1566683999999996
5.6572595,-8.937698,-2.6555622000000003,0.6111445,0.9321978000000001,1.9213806
4.354631400000001,-8.251721,-2.1355035,0.19699532,1.4043617,1.8814473999999999
4.0785894,-8.163874,-1.2652493999999999,0.013334315,1.6662658,1.9921712
4.2583459999999995,-8.268787,-1.1651909,0.04951499,1.4900749,2.1332287999999995
4.8112154,-8.709214999999999,-1.1991216,0.14643313,1.0695378,2.2551575
5.3198204,-9.207649,-1.3538253,0.28749064,0.56115824,2.3722515
6.003595,-9.4808855,-1.4630584,0.3689277,0.14275047,2.538337
7.405132000000001,-9.1252985,-1.4171280000000002,0.39556143,-0.0062831854,2.6139447999999996
9.069504,-9.117867,-1.0217782,0.44718826,0.07195993,2.5612357000000006
10.736482,-8.959044,-1.3040258999999998,0.5813168000000001,0.2981895,2.4334776000000002
12.643291,-8.402728,-2.6750703,0.46954593,0.562764,2.1055653
13.99727,-8.069494,-3.4518163,0.043685592999999995,0.8289267,1.5657872
14.169354,-7.466787299999999,-2.4209976,-0.3385066,0.9774367,0.94616044
13.369098000000001,-7.1842619999999995,-0.9106107,-0.36034068,0.89599967,0.33663909999999997
12.349789999999999,-7.4291982999999995,-0.38209543,-0.1308997,0.67614055,-0.14508922
12.44055,-9.460191,-0.7849151,0.09000663,0.26466173,-0.5970248
11.424594,-11.009076,-0.980665,0.24171065,-0.20004964,-0.82220715
10.342011999999999,-10.992221,-1.2354176000000001,0.31943017,-0.69937086,-0.740229
10.62382,-8.932661,-1.1541008999999998,0.31197759999999997,-0.9830916,-0.67635
11.854727,-7.2551684000000005,-1.0597886,0.24062854,-1.0975503,-1.0713354
12.2051325,-7.6465726,-0.8563101999999999,0.14428636,-1.1736641,-1.7207724999999998
11.334083999999999,-9.334571,-0.6847416999999999,0.070842914,-1.3711481,-2.2978132000000002
10.394513,-10.824195,-0.35870886,0.06658431,-1.7533752,-2.6443658
9.425578999999999,-11.798156,-0.35344163,0.021851522999999998,-2.1499487999999998,-2.7907465
8.586200999999999,-11.339677,-0.14228262,-0.15697491,-2.2857006,-2.834921
8.342135,-10.3829155,0.5249239,-0.35925856,-2.1856234,-2.987707
7.808822599999999,-9.743826,1.3795007,-0.49179888,-1.8997560000000002,-3.2379
7.1910424,-9.595587,2.202273,-0.48542842,-1.5457683,-3.473729
6.4052653,-9.695847,2.389423,-0.38800415,-1.1065911,-3.7063462999999994
4.872392,-10.32623,1.7673613000000001,-0.37042868,-0.58810616,-3.8383629999999997
3.0389314,-11.006844500000001,1.3530973999999998,-0.42633158,-0.14892894,-3.7324214
1.3063722,-11.356953,0.98277193,-0.50033355,0.08951793599999999,-3.3161604
0.29259062,-10.899467999999999,0.8440040000000001,-0.5753826999999999,0.23643975,-2.7715827999999996
0.06508397,-10.825028,0.65139526,-0.7143109000000001,0.3706032,-2.2536216000000002
-0.15303737,-10.828178999999999,0.6746382,-0.87933177,0.5931152,-1.7958217
-0.33273658,-11.520017999999999,0.7065577,-1.0816329,0.8166745,-1.390207
-0.9636087,-12.429278,1.0122206,-1.2077852,0.9705252000000001,-0.96539396
-2.1361642000000005,-12.654264999999999,1.5351143,-1.1822511,1.0088527,-0.4224395
-3.3662093,-12.2109165,2.0406451,-0.9597216000000001,0.9635963,0.23071507
-3.2906675,-12.314615,2.4324036,-0.54930747,0.8108276,0.99885195
-1.3653749,-13.802055,1.8907490000000002,-0.02974041,0.5547878,1.6866338
0.16511372,-14.525985999999998,0.04873637,0.28536132,0.28169614,2.3807862
2.028406,-15.203229,-1.4534624,0.17835520000000002,-0.02703515,2.9285402
4.0568886,-15.239381,-1.250415,-0.11599458,-0.23944172,3.3985748
6.7520895,-14.488598000000001,0.15165831,-0.121300384,-0.42360887,3.6104580000000004
8.588739,-13.884981,0.4544195,0.1789137,-0.42734388,3.441702
9.069735000000001,-13.364367499999998,0.20684946,0.3636219,-0.16011651,3.2718816000000004
8.38663,-12.693607,-0.39149028,0.39503783,0.14329153,3.0791972000000003
8.00463,-11.363026,-0.80455714,0.34180528,0.5276305,3.0472577000000003
7.6930585,-9.87341,-1.5581368,0.18688986,0.9928829,2.967409
7.1516720000000005,-8.590425,-1.8595669,0.020804325,1.2281708,2.8875425
7.0815887,-7.7888556,-1.8356535,-0.11280063,1.2638278,2.8667905
7.571672400000001,-7.478538,-1.9075466,-0.24214698,1.1403283000000002,2.7912004
8.172032000000002,-7.5448575,-1.4762933999999999,-0.38107517,0.87683594,2.6272439999999997
8.323644,-7.874462599999999,-0.68872565,-0.4039739,0.59363884,2.4707406
8.75481,-8.310131,-0.056809615,-0.31295500000000004,0.31363568,2.3940856
9.464557000000001,-8.265578999999999,0.45048344,-0.11971214,0.07037167,2.3158423999999997
10.365878,-8.112408,0.69890577,0.15973254,-0.08719665,2.1902137
11.371405000000001,-8.02342,0.4452736,0.4131369000000001,-0.17341591,2.0017705
12.790208999999999,-7.936616000000001,0.20087352,0.625526,-0.24157102,1.6876811
13.935863500000002,-7.8468046000000005,-0.21279664,0.80812234,-0.16863371,1.1899655
14.16131,-7.214467,-0.8897523999999999,0.8677428,0.020856684,0.60068995
13.536539000000001,-6.3846273,-1.6819650000000002,0.76979494,0.3099181,-0.04766494
12.544161,-6.21213,-2.3268385,0.5339659999999999,0.61332613,-0.6390872
11.860722,-7.437530000000001,-2.2554912999999996,0.37320375,0.83372635,-1.1692833
10.34908,-8.417275,-2.1594357000000004,0.4456,0.7442781999999999,-1.4626033
9.353878,-9.2421255,-2.7541173,0.6052976,0.18374826,-1.4737735
9.885639,-9.342222,-3.5993852999999993,0.69314003,-0.77867866,-1.4727088
11.451744,-9.634162,-4.3191495,0.46584582,-1.7395173,-1.7936923999999999
12.471071,-10.85011,-3.7107542000000002,0.011763518999999998,-2.3463682999999995,-2.3361406000000002
12.625803999999999,-12.709103,-2.4527256,-0.40290925,-2.604555,-2.8359853999999998
12.010302000000001,-14.196715,-1.0872836000000001,-0.7302981,-2.628518,-3.2357707
11.235702,-14.610941,0.033039982999999995,-0.9224414000000001,-2.4608269,-3.4699763999999997
10.413763000000001,-13.953369,0.694941,-1.0534108999999998,-2.0727703999999996,-3.7004995000000003
9.448372,-13.188786499999999,1.1586404,-1.1572056999999998,-1.585684,-3.9959314
8.04289,-12.917378999999999,1.5004749,-1.1412358,-1.1145673,-4.2663527000000006
6.3310356,-12.757322,1.7227238,-1.0060427,-0.7659028,-4.3467426
4.7237983,-12.491469,1.5691981000000002,-0.78244853,-0.5242271,-4.228549
3.6906524,-12.085258999999999,0.9637620000000001,-0.5971993,-0.39327505,-3.9751617999999995
3.0304849999999997,-11.638607,0.04549941,-0.5844235,-0.21919589999999997,-3.7515852
1.9402418999999997,-11.729453,-0.7076398,-0.7393215,-0.06482153,-3.5040452000000006
1.1349951999999999,-12.041253999999999,-0.89566123,-0.9948551,0.07834783,-3.0664911
0.29297367,-12.019439,-0.8026800999999999,-1.3296791000000001,0.23539256,-2.5038145
0.059912503,-11.865644,-0.37037343,-1.6953953999999998,0.43607049999999997,-2.014075
-0.047548845,-12.587381,0.47246218,-1.8960733,0.5899213000000001,-1.63293
-0.82082814,-12.573495,1.3736302,-1.9397240000000002,0.71500903,-1.1549018999999998
-1.8661461,-12.168234,2.2660255,-1.7885611000000001,0.84170246,-0.5730789000000001
-2.5165741,-11.915865,3.2207757999999997,-1.4233683000000001,0.90292865,0.10669198
-2.4044297,-12.7968645,3.542461,-0.67491883,0.84702575,0.8322428
-1.9309523999999998,-13.9592495,2.0166264,-0.025481807000000002,0.5441413,1.7350667000000002
-0.6240343,-14.857888,0.54486287,0.27844983,0.15767305,2.7017696
1.9603628,-15.003025,0.47611097,0.4488114,-0.13402383,3.5556370999999998
4.872679,-14.737948999999999,0.98309755,0.7330557,-0.19579104,4.0655875
7.079386,-14.019017999999999,1.1645683999999998,1.2260065,-0.15692255,4.267888500000001
8.96325,-13.320582,0.39052305,1.8120881000000002,-0.21174334,4.229543700000001
9.340767999999999,-12.752763999999999,-1.8034468000000001,2.0154538,-0.035011306,3.9421053
9.450585,-11.655022,-3.4659230000000005,1.7215928,0.30246556,3.737675
9.005934,-10.345450999999999,-4.2942114,1.0114881,0.9018639999999999,3.5354087
8.921581,-9.124044,-3.8569343000000003,0.19275416,1.4368423000000001,3.265511
8.901776,-8.392653,-2.6885736000000002,-0.22244221,1.6401906000000002,2.9461157000000004
8.175001,-8.624260000000001,-2.7998369,-0.6179513000000001,1.590152,2.6905997000000004
7.1257095,-9.495691,-1.5143805000000001,-0.99857265,1.3617932,2.6937935
7.2508974,-9.678571,0.81323373,-0.8015948,0.9391268,2.8902304
8.346589,-9.439743,1.5607418,-0.08299041,0.2785022,3.0584278
9.954286999999999,-9.409529,0.45801076,0.46424013,-0.24528857,3.0232942000000005
11.047747,-9.082653,-0.61860424,0.71071553,-0.51729816,2.9146998
12.875835,-8.810681,-1.1057190000000001,0.7554309,-0.5045223,2.7582134999999997
15.095768,-8.33731,-1.3680564,0.7639481,-0.27084020000000003,2.3728101
16.599825,-7.4386220000000005,-2.2296817000000004,0.6031683000000001,0.16830209999999998,1.7382606
16.702976,-6.358339,-2.7734813999999997,0.20820032,0.8007221,0.8647234
15.474136999999999,-5.6796403,-2.5927767999999998,-0.2165779,1.4054438,-0.029565877999999997
13.950811999999999,-6.760536,-2.1221628,-0.47956413,1.8312867,-0.7711039000000001
12.300767,-8.746564999999999,-1.3692726999999998,-0.44760713,1.8089465,-1.1532961000000002
10.804563499999999,-9.167283,-0.9452787,-0.0888198,1.2287118000000001,-1.1937528999999998
10.736951,-8.644322,-1.6272143000000001,0.31466540000000004,0.20984094,-1.163419
12.191332000000001,-8.538567,-2.690537,0.47701594,-0.8228529,-1.4705621000000002
12.54757,-9.336544,-3.0591482999999995,0.27579692,-1.5553327,-1.9863941999999999
12.481988000000001,-10.619375999999999,-2.478037,-0.024940755,-1.9077321,-2.4314182
12.147164,-11.641173,-1.7108773999999998,-0.24319418,-2.0881991,-2.7662419999999996
11.758576,-11.814581,-1.1970147,-0.42207298,-2.100975,-3.0627560000000003
11.221689999999999,-11.484382,-0.7701475999999999,-0.6466794,-1.9348894,-3.3741577000000005
10.633042,-11.231928,0.04873637,-0.7936187,-1.6570156000000003,-3.7388093000000002
9.852859,-11.142269,0.47239515,-0.79148936,-1.4094756000000002,-4.139118
7.9086614,-12.105544,0.5245217,-0.7132288,-1.5846193000000002,-4.663991
4.6778584,-12.432917,2.1071560000000003,-0.39278635,-2.1845415,-4.793355
3.4424598,-12.372314999999999,1.086843,-0.1388584,-2.3373275000000002,-4.297751
3.8545307999999996,-11.917924000000001,-0.11976755,-0.40982077,-1.7049248,-3.7446737
4.012079,-11.687716499999999,-0.13709200000000002,-0.7803193,-0.773879,-3.4407072
2.8318522,-11.83542,-0.16678967,-1.0661693,-0.03874631,-3.1048012000000003
2.0320737,-12.397530999999999,-0.11839806,-1.2530068,0.29021335,-2.5682169999999998
2.0669816,-12.276442,0.3863763,-1.3541486,0.41797146,-2.04495
2.4845781000000002,-12.612683,1.0234734,-1.4020753000000001,0.5420119999999999,-1.67871
1.9211841,-12.836043,1.8095471999999997,-1.3818469999999998,0.7213969,-1.4460751
0.18534952,-12.528302,2.577655,-1.2434249,0.84543747,-1.1298738000000002
-1.5491346000000001,-12.008923,3.221341,-0.9437344000000001,0.9556200999999999,-0.6630331
-2.2448802000000003,-12.84631,3.4795220000000002,-0.33738959999999996,1.0423978999999999,-0.10355038
-2.830454,-14.045757,2.2301414,0.27633798,1.032275,0.63421774
-2.8949728,-15.447428,0.38357025,0.64097214,0.67722267,1.5381063
-1.8363432000000002,-15.858301999999998,-0.74585134,0.5462357,0.4818505,2.8045173
2.6093062999999996,-15.128232,-0.14839262,0.38121483,0.38177332,3.7627029999999997
6.316852,-14.100469,0.89291275,0.57817525,0.32056463,3.8984547
7.6190967999999994,-13.935948999999999,0.8870613000000002,1.0311754000000002,0.24816836,3.7951834000000004
7.7936053,-13.99182,-0.19854635,1.2611575000000002,0.45949283,3.873444
7.9943732999999995,-12.944778,-1.7340915000000001,1.1578688999999998,0.82466805,3.958075
8.105532,-11.589027999999999,-2.8216433999999997,0.6143733,1.3527348999999997,3.8888729
7.6565995,-10.260427,-2.5050244,-0.015882496,1.7274919999999998,3.7685672999999995
7.7290287,-9.932567,-1.2714647,-0.2671401,1.8281101999999998,3.7238519999999995
8.019513,-9.842285,-0.40186197,-0.1580221,1.6620247,3.7100115
8.42557,-9.981627,-0.44596317,0.026686084,1.3245303999999998,3.674878
9.101434,-10.179982,-0.9146904,0.08948303,0.84702575,3.5811887000000002
9.624088,-10.171957,-1.1352443,0.09321803599999999,0.39241982,3.4592774
10.148322,-10.190114999999999,-1.1305708,0.03466224,0.17364279999999999,3.4071095000000002
11.154242,-10.057495,-0.5822890000000001,0.03466224,0.14596188,3.3831637000000003
12.759649000000001,-9.410477,-0.1483543,0.13049826,0.21197024,3.32939
15.638561,-8.580934,-0.11401188400000001,0.29974285,0.21835814,2.972191
17.563738,-7.390928999999999,-0.38812882,0.47703338,0.17203711,2.1646794999999996
17.31707,-6.3214016,-0.46788445,0.7016747,0.15128514,1.1420736
15.344123000000002,-6.0112467,-1.0848223999999997,0.9295100000000001,0.18481292,0.28344148
13.653386,-6.565743400000001,-2.5359674,0.97049034,0.25188592,-0.2872114
13.18779,-8.364574000000001,-4.0075297,0.73309064,0.25562093,-0.74607587
12.515259,-9.513341,-4.479598999999999,0.40676644,0.07675958,-1.0138268
12.132828,-9.453323,-4.039315,0.11985176,-0.38208747,-1.1522315
13.126153,-9.085067,-3.4805946000000003,-0.03450516,-1.0315245000000002,-1.4577862
13.749029,-9.8506365,-3.1670978,-0.31559044,-1.7379291000000001,-2.0960531000000002
13.276375,-11.541967,-2.131079,-0.65200263,-2.1962526,-2.6305080000000003
12.540752000000001,-13.024792,-0.50588524,-0.8761204,-2.5678155,-3.044657
11.650885,-13.624981,0.7216986,-0.95277524,-2.7711639999999997,-3.324119
10.777336,-13.350470999999999,1.4788504999999998,-1.0054667,-2.8132265,-3.5540837999999995
10.029446,-12.641404,2.2144163,-1.0310009,-2.6865330000000003,-3.7877660000000004
8.00418,-13.029398,3.5667477,-0.9415877,-2.6540522999999996,-4.181687
6.881682400000001,-12.076296000000001,3.7356634,-0.62220985,-2.7450888,-4.120478
7.75435,-12.604322,2.0574044999999996,-0.67116636,-1.8853744,-4.1343184
6.783903,-12.782183999999999,1.7641148999999998,-0.90221304,-1.1411835,-4.1891565
5.704971,-13.307326999999999,1.4247798999999999,-1.0235658,-0.42947316,-4.085885500000001
4.809166,-13.9719,0.9447616,-1.1816577,0.044279,-3.8819962
3.2331779999999997,-13.951339,0.5628385,-1.3562604,0.26359707,-3.521603
2.5006287,-13.615547,0.41269332,-1.6160352,0.27052602,-3.0733852
2.7184630000000003,-13.534067000000002,1.0026916,-1.8529288000000002,0.31311208,-2.8231921000000004
2.0567436000000003,-13.626349,1.7614333999999998,-2.0184908,0.43287656,-2.681611
0.460654,-14.073012,2.7898482999999996,-1.9370537,0.6000267,-2.4447176
-1.9863064,-13.8618145,3.1374002,-1.6352165,0.69532174,-1.882582
-3.9916417999999996,-12.916516,3.209734,-1.2497953000000002,0.6995803,-1.0266026
-4.193521,-11.982655000000001,3.4379492,-0.8031831,0.71555007,-0.125367
-3.3236307999999997,-12.10515,3.6600256,-0.12978268,0.81988585,0.6406231
-2.926155,-12.514263,2.5194376,0.5808456,0.8358556,1.4428462
-1.6695629,-13.712475,0.6294451999999999,1.0168114,0.675617,2.3211657999999997
0.6067865,-14.544008999999999,-0.8473845999999999,1.0503566,0.47120398,3.1947205000000003
3.9153147000000006,-14.750456,-1.3206607,0.83582073,0.37645006,3.7802784
6.4497595,-14.578917,-0.7520571,0.6553886,0.3429223,4.0054607
7.900569,-14.084667000000001,0.09181284,0.7176619000000001,0.27637288,4.0783806
8.96145,-13.352664,0.41814256,1.0152231,0.19333012,4.0176954
9.211615,-12.424844,-0.19678423,1.3154546,0.19067723,3.8675797
8.792274,-11.170013,-1.095309,1.3479178,0.30511847,3.7307634
8.439886999999999,-10.055303,-1.4404953999999999,1.2121834999999999,0.5207189999999999,3.5881002
8.299911999999999,-9.394617,-1.3601747,1.0796431999999998,0.76133007,3.462489
8.45498,-9.256817999999999,-1.2723267,1.0322575999999999,0.8986700000000001,3.347489
8.765815,-9.863968,-1.2427344,1.1030655,0.8204094999999999,3.2814982
8.745148,-10.594678,-1.6554948,1.1323347,0.6218608,3.2766986
8.942822,-10.784538000000001,-1.9986987,1.0418394,0.37219146,3.3400540000000003
9.84965,-10.629547,-1.8327327000000002,0.9454971999999999,0.13957398,3.3565474
11.412844,-10.140908999999999,-1.4332745,0.9311156999999999,0.07089528,3.2612697999999996
13.138325,-9.72767,-1.6763625,0.88374746,0.21781708,2.9828547999999997
14.658135000000001,-9.286744,-2.0311546000000003,0.6154729,0.46855109999999994,2.5724409
15.930979999999998,-8.549656,-1.6577644,0.30136599999999997,0.7309788,2.0092404
16.947865,-6.944238,-0.95734555,0.25347418,0.84011424,1.2416272
16.541348,-5.733471400000001,-1.2656323999999999,0.34075809999999995,0.8667305000000001,0.18814649
14.358717,-5.991528,-2.2931855,0.23485151,0.9066462,-0.74127626
12.3146715,-8.141148,-2.934889,-0.079220496,0.9045169,-1.3050002
10.276651,-9.8553095,-2.383332,-0.28680995,0.68200487,-1.4072067
9.630562,-10.321481,-1.9386234,-0.3347367,0.12945107,-1.2224983999999999
11.013185,-9.744027,-1.3453882,-0.23944172,-0.77016145,-1.268802
12.238729,-9.977213,-1.433715,-0.21603686,-1.7389936000000001,-1.6605935
12.384400999999999,-11.395711,-1.4784291,-0.471012,-2.4411223,-2.1024237
12.335809,-12.728621,-0.5376707,-0.7015001999999999,-2.746677,-2.4526937
12.327859,-13.398748000000001,-0.033681627,-0.84309876,-2.616266,-2.836509
11.427257,-13.392628,-0.23920947,-1.099156,-2.0722294,-3.2400117
9.693538,-13.243106,-0.2688018,-1.5037233,-1.4424796999999998,-3.5668595
7.214544,-13.213054000000001,1.8003823,-1.6133648999999999,-1.2077328999999999,-3.7174989999999997
7.066706699999999,-12.322611,2.293827,-1.3567841,-1.0682636,-3.5924112999999998
7.451215299999999,-11.767425,2.5791588,-1.1321427,-0.85053384,-3.7611496
6.4610596,-11.740103,2.9242396,-0.77176714,-0.80210096,-3.8984894999999997
5.5365725,-12.144962,2.3436935,-0.49017572,-0.85053384,-3.9133947
4.79166,-12.429182,1.8730606,-0.34588936,-0.9191950999999999,-3.8106472
4.1573014,-12.580696000000001,1.3557216,-0.33632496,-1.0134254999999999,-3.625939
3.7133492999999995,-12.925902,0.93335557,-0.43586108,-0.9878738000000001,-3.4662414
2.5920491,-13.160870000000001,0.11789049,-0.75471526,-0.7893077,-3.2676752000000002
1.1968423000000001,-13.330905,-0.20445524,-1.3184566,-0.32937855,-3.0127
-0.026757599999999996,-13.563095,0.35355654,-1.9290426,0.3301465,-2.5985508
-1.928539,-13.709678,1.0077865,-2.2963471,0.9098400999999999,-2.083801
-3.80544,-13.612731,2.0420625,-2.4901134999999996,1.3420883,-1.2869011000000001
-4.183532,-12.690475,3.6868887000000004,-2.2963471,1.4789047,-0.43996260000000004
-3.3184977,-12.912504,5.3639790000000005,-1.4973178999999999,1.2840736000000001,0.24352579
-3.523422,-13.515201999999999,5.505429,-0.40657446,0.95350826,0.9062621999999999
-3.3664389999999997,-14.653348000000001,3.7583508,0.66442937,0.34876913,1.8128036
-1.7321953,-15.4227295,1.7025263,1.3165368,-0.20748474,2.8476617
1.8257033,-15.740554999999999,0.47859135,1.6561603999999999,-0.42573816,3.6275098
4.8938346,-15.391604000000001,-0.233789,1.8791959999999999,-0.39219293,4.0554996
7.4494243,-14.548060000000001,-1.0880018,2.072439,-0.30330333,4.151318
8.597435,-13.547742999999999,-2.6535034,2.0426285,-0.2234545,4.0214305
8.826406500000001,-12.045669,-4.085791599999999,1.5949516000000001,-0.10527826,3.8026536
8.077270500000001,-10.44345,-4.8226786,0.8156273,-0.04511676,3.575342
7.7199216,-10.180786999999999,-3.2047442999999998,0.24282765,-0.3581241,3.3709290000000003
7.423519000000001,-10.179715,-0.0526054,0.63409555,-0.8297644000000001,3.2793688999999997
7.4133773000000005,-9.907216,0.51466715,1.7338798999999998,-1.1677998,3.3123732000000006
7.7794604000000005,-10.331489,-2.147733,2.3614829,-1.3216331000000001,3.2346537
7.8385205000000004,-10.957628999999999,-3.7849648,2.307203,-1.2300731000000003,3.2426472
8.954601,-11.049385000000001,-3.7699962,2.2300072,-0.7706850000000001,3.3501769999999995
10.976266,-10.799756,-4.6690383,2.157611,-0.0893085,3.2777631
12.513257000000001,-10.372380999999999,-6.2519116,1.5960163,0.69851565,3.0062947
13.792009,-9.519519,-5.9773445,0.88430595,1.3937327,2.6437724
15.292743,-8.474248,-4.843422400000001,0.37857938,1.8291749,2.081113
16.040461999999998,-7.779068,-3.9295169999999997,0.16086699,1.9063708,1.1293153
14.359378,-7.6334906,-3.7470404999999998,0.123604216,1.8206576,0.26801276
11.457002000000001,-7.945886,-4.0511327,0.006492625,1.6529839,-0.2573837
9.527841,-8.079310000000001,-3.7633116,-0.1590344,1.134499,-0.45593235
9.458581,-8.940447,-2.832331,-0.115383714,0.24178046,-0.6720565
9.135566,-9.707453,-2.3267522,0.14383258,-0.56679565,-0.8519825000000001
8.456253,-9.947592,-3.4981777999999997,0.31152382,-1.0602701,-0.90893257
7.805720299999999,-9.691537,-4.882122,0.07995354,-1.2252909,-0.84826493
8.170203,-9.720832000000001,-5.641323000000001,-0.4571541,-1.2252909,-0.8610406999999999
9.235183000000001,-10.137383999999999,-5.3357277000000005,-1.0086257,-1.3583723,-1.0313674000000002
10.350259,-11.100352,-4.1032214,-1.3674131999999999,-1.7267414,-1.3960191000000002
10.935163000000001,-12.068442999999998,-3.0628542999999997,-1.5063413,-2.1893237,-1.8053685000000002
10.812023,-12.399024,-2.5377102000000002,-1.7049074,-2.4794497000000004,-2.2051537
10.125242,-11.89878,-1.3831016,-1.9268958999999999,-2.5369408,-2.6336844
8.487022999999999,-11.494898,-0.18345329999999999,-2.0093975,-2.7541296,-3.097331
6.8115897,-11.320072999999999,0.39538804,-1.9609821,-2.694509,-3.3390242999999993
4.4742455,-11.514012,0.97535944,-1.7985967,-2.8574007000000003,-3.5066807
1.6866575000000001,-11.73651,1.3652313,-1.4989063,-3.4913914,-3.2533112
1.2866153,-11.861038,-0.012976573,-1.5494683999999999,-2.6205072,-2.4947388
1.4305164,-11.804946000000001,0.4588248,-2.0370784,-1.3407968000000001,-1.9294091
1.6165555,-11.620746,1.795814,-2.1424790000000002,-0.0919614,-1.5440055
1.6528227,-11.903684,2.2500515,-2.0551775,0.81723297,-1.328946
0.70250666,-12.078844,2.4000819,-1.8497,1.3617932,-1.0702358
0.6124081,-12.301514,2.1087554,-1.6367871999999999,1.7056754,-0.69814914
1.2490742,-12.660079,1.4747133,-1.51807,1.9681206000000002,-0.47457248
0.93014735,-12.861068,0.86732346,-1.5899252000000001,2.0964022,-0.38940042
-0.35247436,-12.224257000000001,1.2711487,-1.6724268,2.0554218,-0.25310764
-0.6466739,-12.062486999999999,2.2990656000000005,-1.4525852,1.8323688999999999,-0.07424631
-0.75904816,-13.220916,2.6114034999999998,-0.9090722,1.5603592,0.041783184
-2.5414833999999997,-14.428963000000001,2.08466,-0.34428364,1.2148713,0.51714104
-3.4262269999999995,-14.827119,1.3359358000000001,0.20080014,0.7533539,1.4929023000000001
-0.6295793000000001,-13.649957,0.9221123999999999,0.6692465,0.42064179999999995,2.4739692000000004
3.21208,-12.258744,0.45735955,1.1457038999999998,0.38763762,2.9344394
6.019186,-10.998531,-0.5197811999999999,1.4682932,0.67031115,2.912082
7.391972999999999,-10.111969,-2.11476,1.5289608000000001,1.0775313,2.5873632
7.261049000000001,-9.373663,-3.6483517,1.195184,1.5534303,2.2131298
6.168881,-8.60546,-4.3020835,0.5968502,2.0139005,1.9501611
4.9921885,-7.9378223,-3.9158607000000005,0.1033933,2.27474,1.871918
4.4488864,-7.294625,-3.2026181,-0.12070697,2.2752635,1.9022518
4.874097,-7.1822987000000005,-3.1660828999999997,-0.2202431,2.0075126,1.9022518
5.1096096,-7.405294400000001,-3.205635,-0.33576643,1.5523657,1.8825644
5.4467897,-7.726213499999999,-2.9930778,-0.46352455,1.1483393999999998,1.8910817
5.76337,-7.8820853,-2.3636133999999998,-0.5742308,0.81988585,1.9139804
6.528883,-8.072567999999999,-1.4785153,-0.5492201999999999,0.6405009,1.8958639
7.170940400000001,-8.396638000000001,-0.9696421000000001,-0.42465606,0.6325073,1.8192264999999999
7.412151299999999,-8.8481455,-0.89710736,-0.31499702,0.7970046,1.7830110000000001
8.124072,-9.30406,-0.84287393,-0.26813492,1.1414104999999999,1.8186854
9.548871,-9.680323,-0.79175293,-0.24473007,1.798841,1.8634008000000002
10.798463,-10.24885,-1.1923219999999999,-0.22608995,2.4472134,1.8783058999999998
11.585379,-9.865164,-1.6880941000000003,-0.16488126,2.4908639999999997,1.8037803
12.300057,-8.731683,-1.8998756,-0.04351106,1.9611915,1.5796801
13.143717,-7.3095360000000005,-1.9147197,0.09276425,1.1265053,1.1208155
13.824379,-7.420215,-1.7664229,0.28119,0.31471777,0.38247144
12.473379,-8.545777000000001,-2.3658639999999997,0.45313984,-0.12709488,-0.17058848
10.81685,-9.51428,-3.2520921,0.3652974,-0.44809583,-0.39524725
9.979778999999999,-8.672402,-3.1288287999999995,0.15344934,-0.6674139,-0.41812852
10.5389595,-7.596744500000001,-2.3031932999999998,0.007592181999999999,-0.81166536,-0.7545582
9.901786,-7.9640245,-1.5963676000000002,-0.0339292,-0.996391,-1.1926707
9.140814,-9.29545,-1.2036802,0.08370599,-1.401482,-1.4705271999999998
9.018556,-10.118309,-0.9766044,0.33231068,-2.1009576,-1.638742
9.626348,-10.143246000000001,-1.0470802,0.54737014,-2.8025625,-1.8947817999999998
9.794718,-9.542359,-1.3776523,0.5180835,-3.0676606,-2.2743385
8.838675,-9.039586,-1.7347428,0.21413444,-2.7865927000000004,-2.6996752999999996
7.1376800000000005,-8.718256,-1.8699578000000001,-0.31391492,-2.0450546999999997,-3.0121415000000002
5.4627066,-8.778188,-1.5088451,-0.8451757,-1.1289313,-3.1824858
4.083273,-8.994049,-0.9953175,-1.1411486000000002,-0.49174652,-3.2426472
3.0737335999999997,-9.470025,-0.50356764,-1.2119566000000002,-0.23410101,-3.2607462000000003
2.3545537,-10.443239,-0.23455514,-1.0985626,-0.25431192,-3.1537402
1.8127650000000002,-11.111289,-0.49126145,-0.9793390999999999,-0.33524284,-2.8630904999999998
0.96879935,-11.167572,-0.78010756,-0.9979618,-0.30276227,-2.5617943
-0.14241669,-11.129005000000001,-0.80015177,-1.133155,-0.24633577,-2.1380632
-0.69351405,-11.263244,-0.41005015,-1.260407,-0.085573494,-1.6281128999999999
-0.7071035,-11.394925,0.18247648,-1.2923291000000001,0.08101819,-1.0494665
0.25982833,-11.960024,0.7412736,-1.178935,0.19334757,-0.5794144
0.91858816,-11.930671,1.1073183000000002,-1.070358,0.32749358,-0.17112954
1.2205545,-11.393460000000001,1.8473277,-0.88935,0.46856853,0.13974851
1.5034534,-11.334696000000001,2.6896174,-0.42303290000000005,0.48932052,0.40430552
1.6683371,-12.018767,2.3650787,0.34936255,0.3945666,0.67685616
2.1122606,-12.5845175,0.479731,0.8598539000000001,0.21996385,1.0297792
3.5101583,-12.661937,-1.1229093,0.9349030999999999,0.23912756,1.2645434
4.0562854,-11.63673,-2.1267982000000005,0.6751457,0.4951848,1.5126071
5.1875362,-10.9579735,-1.7847338,0.44785148,0.7256729999999999,1.6691108000000001
5.935255000000001,-10.307086,-1.1779473,0.5675985,0.9918357,1.7941985
6.499003,-10.365668,-2.301326,0.6788458,0.8869589,1.7430953000000002
6.468415,-9.987680000000001,-2.7214506000000003,0.65757024,1.0003529,1.7649293000000001
6.257696,-8.777660000000001,-3.3820013999999996,0.63838905,1.1568565,1.7697115
5.842551,-7.771636,-3.8172865,0.6197664,1.0988418,1.6760221999999998
5.0182085,-7.0812539999999995,-4.3094482,0.5755746999999999,0.75974184,1.600432
4.842023999999999,-7.0986648,-4.586380999999999,0.36800268,0.59472096,1.6036434
4.7203984000000005,-7.399261,-4.106487,0.16357225,0.48773226,1.6435591
4.711607,-8.271852,-3.382011,0.10288716,0.18004817,1.7399186999999998
4.910594000000001,-8.837966,-2.3438373,0.25354397,-0.37568212,1.900681
5.836556,-8.851957,-1.4861958999999998,0.65331167,-1.0155372999999999,2.0358918000000004
6.9223266,-8.447903,-1.2745006,1.1313399,-1.3445143999999998,2.0262922999999997
7.1307945,-8.133189,-2.3026857000000005,1.5343015,-1.4451326,1.9720126
7.526047999999999,-7.773436500000001,-3.5041629999999997,1.6737707999999998,-1.370607,1.9507022
9.075471,-7.1865315,-4.460886,1.5657174999999999,-1.1486186,1.7766403999999998
10.470869,-7.1330447,-5.0999465,1.2936903999999998,-0.8989666999999999,1.3624913
10.782508,-7.563436500000001,-5.592338,0.90031064,-0.6940126999999999,0.8642347
10.287463,-7.960711,-5.614795,0.3504272,-0.5236685999999999,0.44530329999999996
9.26061,-8.018191,-4.696255000000001,-0.27183503,-0.22184879999999998,0.18978710000000001
8.648776,-7.9237156,-3.0145106,-0.7190058000000001,0.1555612,0.05668829400000001
9.10468,-8.5156,-0.9040601,-0.81588906,0.55532885,-0.21050416
8.237825,-9.601199000000001,-0.12530294,-0.5300216,0.7789055,-0.46921432
6.576336,-10.221345,-0.6957646,-0.20477948,0.5042255999999999,-0.4511327
6.1402655,-9.286007000000001,-1.0657166,0.028344147000000004,-0.13561209,-0.29834658
7.393573,-8.507365,-1.3448135,0.11301007,-0.69188344,-0.4143935
8.451302,-8.432274000000001,-1.3941531999999999,-0.02804744,-0.96656334,-0.78382736
8.183477,-9.039797,-1.0001825,-0.22287855,-1.0208606,-1.1862653
7.075546000000001,-9.513992,-0.1991497,-0.2984513,-1.1475539,-1.3576567
6.477398,-9.214190499999999,0.7696113,-0.13664183,-1.4435269,-1.3608681
6.946134599999999,-8.2522955,1.2633531,0.14601424,-1.7155539,-1.3933313
7.533174000000001,-7.2982830000000005,0.9274466999999998,0.3653323,-1.8017906000000004,-1.5918974
7.6335864,-6.7322845000000004,-0.042932822999999995,0.39461893,-1.6154766999999999,-1.8591247
7.2264285,-6.4279623,-1.2064476999999998,0.1449496,-1.2007865,-2.0949361
7.076274000000001,-6.579515,-2.0262990000000003,-0.33412582,-0.5811597,-2.3185130000000003
7.0005217,-7.2898273,-2.2448992999999997,-0.8919853999999999,0.094876096,-2.570294
6.540107,-8.044336,-1.7804146,-1.3189278999999998,0.6580764,-2.775248
5.665246,-8.93087,-1.2853223999999999,-1.5526274,1.1456865,-2.9509152999999997
5.005529,-10.571072000000001,-1.0574614,-1.5877435,1.3745865,-3.0403461
4.8575387,-12.524653,-1.2372947,-1.5387695,1.262257,-3.0605745
3.9566386,-13.903359,-1.3065064,-1.5792263000000002,0.9913120999999999,-3.0712208999999997
2.3931675,-14.679692999999999,-0.44337740000000003,-1.5866789,0.60749674,-2.9242992
1.2898235,-15.832089000000002,0.11386823,-1.486078,0.31419417,-2.629932
-1.1582956,-15.966165,-0.2768942,-1.5323817,0.23540999999999998,-2.1609445
-4.4468464999999995,-15.323964000000002,-0.117172234,-1.7564993999999998,0.2854486,-1.4785033
-6.7203135,-14.493357999999999,1.8745545,-1.7133721999999998,0.35890952,-0.3249454
-5.455169000000001,-15.130378,3.8169800000000005,-0.95216435,0.45153412,0.9919928
-3.2247024,-15.685459,2.8775432,-0.01792453,0.5835508,2.2615976000000004
-0.89501005,-16.442678,1.2702293,0.42816418,0.46005133,3.2495937
1.8370136000000001,-16.537346,0.8027854,0.65812874,0.2897072,4.239719
5.489703700000001,-16.291643,1.3719063,0.9541016999999999,0.3136531,4.757680400000001
8.479764999999999,-15.259569,1.7380563999999998,1.4635458000000001,0.44727552,4.9003434
11.144117999999999,-13.627997,1.484472,2.1273293,0.4722861,4.54475
12.079456,-11.183383000000001,-0.45316490000000004,2.6463554,0.36742672,3.6983352
10.526375999999999,-9.549868,-3.351231,2.5058215,0.22209315,2.7715654
7.374850299999999,-8.863114,-4.9241834,1.7355554,0.43715262,2.2946020000000003
4.4860826,-8.494178,-4.6530447,0.8832937,0.92530376,2.4324827
4.0205636,-8.309288,-4.212425,0.07895869999999999,1.4725343000000002,2.8822892
5.9000793,-7.6625559999999995,-2.2136883999999997,-0.5156400999999999,1.6971756000000002,2.9855602
7.531057400000001,-7.065164599999999,-0.03337517,-0.48263590000000006,1.5257668,2.758266
8.536507,-6.95688,0.6788041,-0.06583382,1.0168636999999998,2.3696509999999997
8.519997,-7.511224,0.22622333,0.39620718,0.38072613,2.0295038
8.398055000000001,-8.408819,-0.94233865,0.60969585,-0.035534903,1.9182564999999998
9.051835,-8.93087,-1.4939531000000001,0.5804092,-0.26230553,1.9028102999999998
10.485052,-8.852752,-1.2717136999999998,0.56335735,-0.36822957,1.8208321
12.385492999999999,-8.923975,-1.2378981000000002,0.6677105999999999,-0.49172905,1.5584044
13.80241,-8.778205999999999,-1.7530918999999998,0.7283957,-0.6924245,1.1203094
14.363228,-8.437407,-2.2575886,0.69378585,-0.9154601000000001,0.48043677
14.293010999999998,-8.202401,-2.6447022000000002,0.57560956,-0.98998564,-0.15460126
13.925826,-7.997936200000001,-3.112357,0.33875096,-0.854775,-0.8450186
13.903714,-9.198542,-3.6431991999999997,-0.07274532,-0.60245275,-1.5732572
13.068625,-11.470839999999999,-3.6201190000000003,-0.56354934,-0.44436082,-2.2232354
11.366339,-13.193133,-3.1437687999999997,-0.96490526,-0.5204746,-2.4382772
10.575457,-13.267449,-2.0995424,-1.2843006000000001,-0.84360486,-2.382392
11.618486,-12.037865,-0.29617232,-1.3774662,-1.331215,-2.5905223
11.703365,-11.954134,1.2970636,-1.1639950000000001,-2.1706833999999997,-3.2846745999999998
12.010637,-13.807764,0.795009,-1.0947927,-2.3915896,-3.8122005
11.075854,-15.515289000000001,0.8864579,-1.1634712999999999,-2.7754052000000002,-4.2982225
10.513523,-17.471811,0.6459651999999999,-1.2678071000000002,-2.8206615000000004,-4.459525599999999
9.634861,-17.466562,1.3453882,-1.336992,-2.8717647,-4.475478
9.017464,-16.23197,1.5930635,-1.3641493,-2.6460588,-4.4866657
7.877555999999999,-14.736149,1.8494825000000001,-1.4344337,-2.0706062,-4.495182499999999
6.4072949999999995,-13.537075,1.809078,-1.4967246,-1.1427717,-4.369554
5.2897205000000005,-12.772252,1.7698226000000001,-1.5366228000000002,-0.17552777,-4.1678114
4.543639,-11.933947,1.8814881999999997,-1.408341,0.5782276,-4.0123725
3.2786772000000006,-11.534507000000001,1.1039186,-1.1980639,1.0179284,-3.9224004999999997
1.5212566,-11.416683,0.12564771,-1.0985277,1.0408096,-3.6812657999999994
0.5417121,-11.020338,0.07805097,-1.0532713,0.84119636,-3.269246
0.4531362,-10.497311,0.5837255,-0.95000017,0.701186,-2.8779779999999997
-0.030569167999999997,-10.253839,0.48278597,-0.8557872999999999,0.6729815,-2.5351605
-0.7041729999999999,-10.305506,-0.06744945,-0.9776811,0.6681993,-2.1641209999999997
-1.5114117,-11.126275999999999,0.13291651,-1.1586717,0.6713758000000001,-1.7031447
-3.0634959999999998,-11.717127,0.82131654,-1.234262,0.6080378000000001,-0.9456368
-4.113899,-11.46632,2.087217,-1.0559242,0.51008993,0.08972738
-3.1607292,-11.148352000000001,3.4365318,-0.52094585,0.45046946,1.0580186000000003
-1.2710721,-12.2325325,3.6561854,0.31691688,0.44621086,1.8570478
-0.25927287,-13.665462,2.330305,1.069625,0.41481242,2.6406307
1.0110713,-15.280801,0.25320122,1.5290306,0.24872687,3.5807176
3.0739923,-16.296307000000002,-1.1838274,1.5556469,0.103934355,4.4244447000000005
5.9510856,-17.073013,-1.392822,1.4465114,0.070912726,5.074423
8.771302,-17.355616,-1.2955504999999998,1.4433348999999998,0.0336674,5.3735895
11.276978,-16.901531,-1.0629872999999999,1.6594416,-0.12335987400000001,5.368266
13.021421,-15.967247,-1.8482279,2.0650735,-0.41027454,5.106886
12.727126,-15.029726,-3.4298854,2.0421921999999997,-0.469895,4.7044477
12.243574,-13.399370000000001,-4.088157,1.5716166,-0.12229522,4.3643007
11.158081,-11.412269,-3.26074,0.96476567,1.5513184,4.456384
12.384487,-9.439015,-2.3007896,0.47928485,1.9276811999999999,3.8324987999999998
12.117668,-8.41198,-2.7078803,0.46118580000000003,2.0431871,3.1112064999999998
11.120453999999999,-8.983169,-5.188551400000001,-0.100391336,1.9958189,2.5708873
8.991338,-9.71543,-5.6175440000000005,-1.156525,2.019765,2.4457996
8.177846,-10.028286,-3.196039,-2.0673425,1.9452393,2.6379778
8.89197,-10.370896,0.31770098,-2.2286284,1.5726115,2.865272
10.468015,-9.8266945,3.2218583,-1.6675749,0.88964665,3.0095236
12.540942999999999,-8.685789999999999,4.65655,-0.61941737,0.15610225,2.8823066
14.658173999999999,-7.818725,4.579897,0.5064247000000001,-0.39111084,2.4404764
15.985806,-7.217426299999999,3.0273529999999997,1.4167186,-0.5859419,1.7223607
15.726266,-6.6118179999999995,0.9100073000000001,1.9000702,-0.5710368,0.92334896
14.308189000000002,-6.171773,-1.0927806,1.9650139,-0.39697513,0.29148743
13.414741500000002,-6.149047400000001,-2.9084475,1.6477479,-0.16114625,-0.22752112
13.825682,-7.694121400000001,-3.7175057000000002,1.1990063,-0.1010022,-0.82318455
12.742248,-9.47831,-4.163919,0.80080944,-0.22769566,-1.2069999
12.186305,-9.818286,-4.139632,0.3797313,-0.63917446,-1.2767433000000001
13.497494,-9.1427765,-3.2091974999999997,0.03267256,-1.1550065,-1.5695223
14.54445,-9.676186,-2.4796076,-0.25476572,-1.6372933,-2.273239
14.458957999999999,-11.67587,-1.8687605999999999,-0.5624498,-2.0631537,-3.0302231
13.626301999999999,-14.110659,-1.2399954,-0.86693996,-2.4123592,-3.61524
12.534039,-15.419482,-0.37514266,-1.1570486,-2.6370006,-3.9351589999999996
11.827241,-15.455884,0.53624374,-1.4061943000000001,-2.6034553,-4.1757874
10.772816,-14.426070999999999,1.3698281,-1.5435169,-2.3170642999999997,-4.3881764
9.862195,-13.497092000000002,2.1747012000000003,-1.5302174,-2.0690005,-4.68202
8.687486,-13.30816,2.9732635,-1.2597961000000002,-1.9545593,-4.9146376
7.7057285,-13.524951000000001,2.8625937,-0.92284286,-1.6798794,-4.954571
6.9965660000000005,-13.959192000000002,2.1064953999999996,-0.6949900999999999,-1.2593423000000001,-4.9274135
5.593535,-14.468937,1.2783313,-0.6151413,-0.8324173,-4.7783623
3.7640202000000005,-14.565767000000001,0.46415909999999994,-0.58321923,-0.5055695,-4.4211807
2.2834651000000004,-14.339448,-0.46133393,-0.68436104,-0.25431192,-3.8925729
0.6946441,-13.698885,-1.2221058999999999,-0.90367913,-0.05681047,-3.3006269999999995
-0.23883599,-13.222841,-1.698734,-1.2773715,0.11458086,-2.5958457000000004
-0.71379775,-12.822531,-1.7245626,-1.7734813999999999,0.34400440000000004,-1.920316
-0.94464666,-13.014555,-0.79814065,-2.2914252,0.6160314,-1.3198528
-1.4570537000000001,-12.895305,0.8143925,-2.4953146,0.8837824000000001,-0.80560905
-2.07335,-12.26948,2.379214,-2.4026725,1.0424154,-0.19875810000000002
-1.9002396000000001,-11.754878999999999,4.0036225,-1.9038924,0.99876463,0.35643113
-1.7708186000000001,-12.461484,4.7896867,-0.9148492,0.8529075,0.8791747
-1.8769679,-13.684576999999999,3.59815,0.13542010000000002,0.50530773,1.6558287
-0.85767967,-14.895133,1.6035883,0.79283327,0.17952457,2.6369133
1.597603,-14.932339,0.38986220000000005,1.013216,0.10871656,3.5663532999999994
5.11978,-14.642047,-0.35533783,1.1537673000000002,0.25830874,4.1221013
7.453839299999999,-14.311618,-1.2451477,1.2442452,0.15981979999999998,4.3648415
9.607989,-13.935633,-1.7146506000000001,1.3320876,-0.018483037,4.3744235
10.764072,-12.772731,-2.1625772,1.3501867,-0.12974778,4.1242304
10.687965,-11.484428999999999,-2.6404502,1.132998,-0.10365511,3.7281804
9.459978999999999,-10.401073,-2.2908297,0.7667755,0.19230038,3.4279487
8.45904,-9.613208,-0.9935841000000001,0.5506339,0.6043202,3.2953910000000004
8.248657000000001,-9.041933,-0.09291418,0.6374116999999999,0.90614,3.2373762000000004
8.195209,-8.736346000000001,0.028107927999999997,0.9355139000000001,1.1004475,3.1894669999999996
8.115903,-8.992469,-0.7577265000000001,1.1324743,1.1675205,3.1415577
7.737092999999999,-9.825603,-1.1667998,1.1303450000000002,1.2345935,3.171368
8.22301,-10.56001,-0.83335453,1.1564202,1.1558093999999999,3.3779101000000002
9.714704,-11.0004,-0.8284703999999999,1.3751973,0.7959574,3.5785882000000004
11.473024,-10.888715,-1.4100316000000002,1.5620522,0.17207201,3.6919823
13.71326,-9.920212,-1.7623144,1.6839633999999999,-0.5508084,3.6467433
16.407139,-8.552472,-1.9145283,1.7095151000000002,-0.97773343,3.1537924
17.986735999999997,-7.2893289999999995,-2.078646,1.581216,-0.90427256,2.0550728
17.131384,-6.628644,-2.5085870999999997,1.3038657,-0.3501305,0.9004677
14.86965,-6.4647083,-3.1901875,0.7939154,0.51221925,-0.06408849
12.996713,-6.7703904999999995,-3.7561288,0.11253883,1.2835674,-0.7699520000000001
12.339399,-8.43392,-3.7134928999999994,-0.55230945,1.6881348000000003,-1.3634861999999999
10.849728,-10.215263,-3.0167612999999998,-1.012256,1.5885812,-1.6616058
9.169017,-10.97458,-1.6603789,-1.2315566999999998,1.1371692,-1.6046382
8.840225,-10.418148,-0.12889424,-1.1037986000000002,0.28066638,-1.4055486000000001
10.225980999999999,-9.7261095,0.70202786,-0.7471405,-0.86062187,-1.4917853
11.442139,-9.680513000000001,0.7602165,-0.48045424,-1.9550828999999998,-1.93468
11.753807,-10.706755000000001,0.5794543000000001,-0.43202135,-2.5906794,-2.4558353
11.425006,-11.860215,0.709536,-0.53527504,-2.772211,-2.8566678
11.02593,-12.88296,1.1048571000000003,-0.5480508000000001,-2.7402716000000003,-3.1345415
10.182013000000001,-13.143429999999999,0.9960167,-0.53901005,-2.601867,-3.2915862000000002
8.746948,-12.578169,1.5284583999999999,-0.49005353,-2.9452083,-3.5433673999999997
7.685196,-12.204922,2.059023,-0.3170216,-3.4237775999999998,-3.7983425000000004
6.820276299999999,-11.46203,0.7225509,-0.32820916,-2.8297024,-3.6184165
6.698775299999999,-11.069428,-0.9102659,-0.9222843000000001,-1.6229118,-3.5210097
5.858171,-10.624414,-0.56827813,-1.4881375,-0.51089275,-3.5092986000000006
5.013851,-10.901691,-0.674437,-1.8485305,0.4126831,-3.554555
3.6475758999999996,-11.563879,-0.63669485,-2.0609198,0.81937975,-3.5215332999999998
2.2031925,-12.100755,-0.37314109999999995,-2.0699606,0.62880725,-3.197356
1.7820904999999998,-11.967082000000001,0.32574552,-1.9752066000000001,0.1699427,-2.6948407000000003
2.3803918,-11.463341999999999,0.96600294,-1.8128735,-0.12601277,-2.3632107
2.7201102,-11.834539,0.85453844,-1.7159727999999999,-0.12548918,-2.1518688
2.1911638,-12.570602000000001,0.36928168,-1.8336080000000001,0.14864969,-1.9176456000000002
0.36850595,-12.147843,0.35710955,-2.1216223,0.6426476999999999,-1.5114726
-1.4088919,-11.505594,0.78017455,-2.3861618,1.1276048,-1.0531317
-1.5958982,-12.239723,2.5185084,-2.2344577,1.3564874,-0.5170887
-1.8281741000000002,-13.349245000000002,3.5084727,-1.4929371999999999,1.3107073,0.09187413
-1.8942732,-14.265075,2.770982,-0.566691,0.88325876,0.98298687
-1.2448412,-14.65965,1.5502264,0.09871582,0.33548720000000004,2.0939412
1.5955535,-14.684491,0.98135453,0.5735501000000001,-0.027541295,3.1495514
5.040953599999999,-14.004910999999998,0.74352413,0.8982686,-0.006230825600000001,3.6739006
7.246128,-12.842986,0.31154308,1.2336336,0.1678134,3.7649195
8.041511,-11.545492,-0.82689977,1.4609278,0.28225464,3.5668945
7.7007966,-10.488049499999999,-2.222844,1.3938549,0.34932765,3.3353242999999995
7.075785000000001,-9.663285,-3.128149,1.106399,0.45846307,3.192661
6.0771065,-9.094088000000001,-3.3041515,0.66989225,0.6394536999999999,3.1591332000000003
5.356231,-9.383556,-2.6219667999999996,0.28979447,0.7794466,3.3198955000000003
5.99895,-9.887095,-1.6224738,0.08700466,0.7938281,3.592446
7.4251759999999996,-10.275071,-0.658032,0.17589428,0.64051837,3.7154045
8.423127000000001,-10.926706,-0.4154706,0.47240826,0.4132067,3.7771542
9.015568,-11.725794,-1.094131,0.6406231,0.24233897,3.8532856
9.853538499999999,-11.865155999999999,-1.6399419999999998,0.5841966,0.18058921,3.9512334000000005
11.042689999999999,-12.059650999999999,-1.4794252,0.48092547,0.13109168,3.9853022000000005
12.800417,-11.596622,-0.6584916000000001,0.5565157,0.07892379,4.0188475
15.834465,-10.508314,-0.37982574,0.83438957,-0.040299654,3.8298633
18.75202,-8.710948,-0.78946406,1.0302854,-0.0062482785,3.1426225
19.682185999999998,-6.7657175,-1.1653059,1.0845824,0.42599997,1.9667243000000003
17.798617999999998,-5.7540426,-2.0491495,1.0260440999999998,1.050409,0.7312057
14.9648905,-6.1132684,-3.3699922999999994,0.8285427,1.4736163999999998,-0.13966125
13.350413,-7.7223253,-4.566346,0.4713436,1.566241,-0.6650752
11.988534,-9.274007000000001,-4.95006,0.10775663,1.2771796,-0.9126152
11.140747,-9.867587,-4.9019365,-0.26698299999999997,0.60484385,-0.8811993
11.666007,-8.9139,-3.5513864,-0.53208107,-0.33681363,-0.9152681
12.862044000000001,-8.351972,-2.04891,-0.57304394,-1.2806178,-1.3315465
13.551363,-9.009783,-1.2316539,-0.5986130000000001,-1.8054907,-1.951697
13.157670999999999,-10.771197,-0.9561291999999999,-0.7535109999999999,-2.0083156000000004,-2.5857053
12.04748,-12.091351,-0.12248736,-0.88128656,-2.0328023,-3.0168889
11.006067999999999,-12.430494,0.36445495,-0.8445474000000001,-2.0647418,-3.2814634
10.266989,-12.276681,0.116923235,-0.8003556,-2.0721946,-3.5710309000000002
8.262936,-11.9728,0.22342689999999998,-0.7598989,-2.3495274,-3.9543052000000003
6.918295,-12.389132,-1.3144742,-0.87646943,-2.16269,-4.090057
4.6830487000000005,-12.871209,-1.784887,-1.5397469,-1.5989485,-3.9223657
3.3039504999999996,-12.576243,-0.4617553,-1.8735237,-0.98199207,-3.635451
3.5879218999999996,-12.388605,-0.44497675,-2.2525394,-0.17392206,-3.3879108000000002
2.846093,-12.421799,0.7649475,-2.3675217999999996,0.4989198,-3.2958274
1.4673774,-12.893158999999999,1.2792027,-2.1609795,0.75391245,-3.0387056
-0.004127603499999999,-12.830192,1.5813606000000002,-1.7723818999999998,0.4249353,-2.5042508
0.4338964,-12.388701,2.1265012999999997,-1.2379097,-0.17657496,-1.9612788
1.0617996,-11.953664999999999,1.9409793999999998,-0.8083318,-0.56145495,-1.6062266
1.7152730999999999,-11.997259,1.7890146,-0.5906020000000001,-0.6152111,-1.3491046
1.5899413999999998,-12.192913,1.4523803,-0.5017298,-0.38152897,-1.1420386999999999
0.48072696,-11.926094,1.1923507,-0.46553168,0.007051130300000001,-0.8705528
-1.3276518999999998,-11.066986,1.0158215,-0.43835690000000005,0.31792918,-0.42551127
-1.4749143999999998,-10.772921,1.7619599999999997,-0.17540559,0.47497390000000006,0.12648399999999999
-0.6765055999999999,-11.897651,1.6540293999999998,0.47136107,0.71610856,0.6130294
-0.6782869,-12.9840145,-0.6877105,0.83386594,0.8348259,1.184747
-0.090634905,-14.030463000000001,-2.4427466,0.6677804,0.8300261999999998,1.8788993000000003
1.9264321,-14.420860999999999,-2.2585845,0.31166345,0.9258448,2.5890214
4.8277254,-14.352359,-1.0081886999999998,0.097668625,1.1036415000000002,2.9973237999999998
6.732907000000001,-13.509904999999998,0.30025205,0.16952384,1.2564276,3.0963187000000003
7.5345144,-12.261319,1.0151894000000001,0.5363048,1.2904965,3.002647
7.0000615,-11.053512,0.5786210999999999,1.0617012,1.1185466,2.8349557
6.2699065,-10.412134,-0.54631853,1.3875018,0.9045518,2.7290318
5.191319,-9.88879,-1.5068052,1.5024667,0.7283608,2.7646887
5.0724707,-9.3330965,-2.1321037,1.498208,0.59793234,2.938227
5.7789707,-8.991951,-2.8385847,1.3550212,0.5047841,3.0590734
6.9551077,-8.817711,-3.1431656,1.1479553999999998,0.38287288,3.0180757000000002
7.5194407000000005,-8.947237,-3.2884839,0.88816315,0.26310837,2.8780653
7.553946000000001,-9.252689,-3.0857238999999996,0.6028541999999999,0.21678734,2.8301735
7.890388499999999,-9.449052,-2.3156624,0.40269983,0.17526597,2.9158692000000004
9.273184,-9.362583,-1.5124843000000001,0.49000117,0.13161528,2.9392915
10.878553,-9.136925,-1.7751186999999997,0.6332055,0.08370599,2.7785292
12.308485000000001,-8.708372,-2.3238602000000004,0.5996602,0.034208454,2.4532871
13.862370499999999,-8.439283,-2.3368653999999998,0.46762607,-0.014224433,1.9337201000000002
14.784032,-8.115625,-2.021865,0.39151224,-0.02274164,1.3471149
14.873327,-7.580723,-1.9667602,0.33456215,0.18591247,0.7141713000000001
14.111923,-7.1322410000000005,-2.4818964,0.13227850000000002,0.5686631999999999,0.061557762
12.668535,-7.3961105,-2.8730037,-0.25684264,0.9907885000000001,-0.47183230000000004
11.802093,-8.811744000000001,-2.342669,-0.5490805999999999,1.1504861000000002,-0.87479395
10.394752,-9.649581,-1.9632261999999998,-0.5810201,1.0041053,-1.0419440999999998
9.550031,-9.884433,-1.9148538,-0.5309640999999999,0.46591565,-1.0073341999999998
10.2206745,-9.239473,-1.3878325,-0.3819304,-0.3682121,-1.0137396
11.838341,-9.015444,-1.1113118,-0.14718361,-1.2689066999999998,-1.3581454
12.472173,-9.531691,-1.4266857,-0.13013175,-2.0264146,-1.8915355
12.231469,-10.589085,-1.3613143,-0.31963959999999997,-2.4895377,-2.3748869999999997
11.610566,-11.549284,-0.64766026,-0.53576374,-2.714179,-2.7368681
10.835956,-11.76098,0.40665993,-0.6129595999999999,-2.7493124,-3.0520047999999997
9.275281,-11.283719999999999,1.9894859,-0.43357468,-3.1017118,-3.430497
7.908201700000001,-10.694514999999999,2.0037458,-0.24511404,-3.3939497000000003,-3.6247870000000004
7.8884254,-10.307325,1.6642479,-0.14877187,-2.8983636,-3.6663084
7.8365955000000005,-10.645407,0.5706819000000001,-0.34840262,-1.8416888999999999,-3.7546744
6.5221696,-10.873449,-0.06088934,-0.7604225,-0.5476145,-3.7408339999999995
5.682494,-11.151607499999999,-0.15260641,-1.1181103000000001,0.7044149000000001,-3.5859187000000006
5.2683352999999995,-11.232388,0.21249977,-1.307112,1.6700357,-3.5140634
2.9318627999999998,-11.883849,0.005841852,-1.152755,1.9825195,-3.3213790000000003
1.193184,-12.114977,-1.060708,-1.0473371999999999,1.6801586,-2.7570965
1.1109958,-11.428932000000001,-1.3406954,-1.1303798999999999,1.111094,-2.226377
1.9299947,-11.070262,-1.4121864,-1.3837494,0.71291465,-1.996936
2.3330824,-11.945735,-1.3387705,-1.7893814,0.57663935,-1.9756429
1.5579741000000003,-12.968405,-0.77970535,-2.2647567000000004,0.5191482,-1.8707836
-0.027811047000000002,-13.099664,0.38994843,-2.629391,0.42758822,-1.4795156
-0.9618466,-12.13547,2.4338017000000005,-2.6261968999999996,0.3578623,-0.89182836
-0.6628012,-11.677049,4.679266,-2.0747077000000003,0.31262338,-0.37812558
-0.6578883000000001,-11.587391,5.586506,-1.0052748,0.30195943,0.17441075
-0.75471944,-12.2641735,4.2424774,0.054576445,0.16090190000000001,0.8978323
-0.38863638,-13.042174000000001,2.0202754,0.7141189,-0.06159267,1.7644581000000001
1.2739738,-13.11559,0.5143224000000001,1.0122386,-0.22074924,2.6263015
3.9163966,-12.835842,-0.19734927,1.1405028,-0.24151866,3.2022603
6.0952735,-12.557588,-0.27789977,1.2459033000000002,-0.18509217,3.4769576
7.60274,-12.256225,-0.20998107,1.4524455,-0.0344528,3.5514832000000003
8.043895,-11.779032,-0.86648077,1.6174839,0.16835445,3.507309
7.688490400000001,-10.939222000000001,-1.6489921000000003,1.5882148,0.2689727,3.4993152999999997
7.5283275,-9.739833,-1.9000767,1.5062366000000003,0.37809068,3.5206084000000004
7.586842,-8.424975,-2.1174703,1.3827196000000002,0.49200833,3.4487357000000003
7.546533,-7.8070226,-2.1959522000000002,1.1644663,0.6176371,3.2682860000000002
7.125967999999999,-8.134971,-1.7389086,0.96644115,0.73314303,3.154892
7.055808,-8.817768,-1.1942853,0.93184876,0.7352723000000001,3.1868315
7.735866499999999,-9.30631,-1.0907695,1.0127621999999998,0.48668507,3.1719265
8.598363,-9.484564,-1.1628159,1.1564901,0.15557864,3.0340629
9.102076,-9.639641000000001,-1.9106207999999998,1.254979,-0.08766789,2.853596
9.528885,-10.02095,-2.7165856,1.1197508999999999,-0.19999728,2.7141266
10.467861,-10.583588,-2.6985528,0.83335984,-0.15901695,2.6087263
11.932203,-10.588319,-2.1209752999999996,0.6571688,-0.08342674,2.441576
13.607598000000001,-10.416252,-1.8349258000000002,0.5863783,0.08531169599999999,2.0966291
14.409809,-9.477791999999999,-2.0611875,0.48310715,0.36053267,1.6015663999999998
14.546039000000002,-8.486765,-2.2849494999999997,0.30583405,0.6160314,0.96864027
14.032579,-7.783138,-2.3424199,0.13231342,0.76403534,0.3511428
13.556773999999999,-8.4377985,-2.2248454,0.01998402,0.7879813,-0.29188886
11.893082000000001,-9.428989,-2.5329982999999996,-0.016737707,0.7278372,-0.69060934
10.879186,-9.654455,-3.248424,-0.19451694,0.33711034,-0.79440403
11.098398,-8.991653999999999,-2.9384900000000003,-0.3909712,-0.2947512,-0.93654364
12.025758999999999,-8.576576,-2.4582994,-0.5277701,-1.0554355,-1.3096951000000001
12.546717999999998,-8.951155,-1.9716634999999998,-0.76091117,-1.7080665000000002,-1.9149403999999999
12.605960000000001,-10.3249655,-1.127238,-1.0537076,-1.9199494,-2.5367138
11.928794,-12.087864,-0.8454212999999999,-1.3805553999999998,-1.7586461,-2.9780029999999997
10.466731,-13.467298499999998,-0.012382812,-1.7100736,-1.5712676,-3.3032625
8.527591000000001,-12.932269999999999,1.2905322,-1.7632887,-1.993393,-3.487447
8.373088000000001,-12.340999,2.4247901,-1.7052565,-2.0258734,-3.4709363
8.225844,-11.637554,3.3084612,-1.604132,-1.8039025000000002,-3.7009008000000003
6.848231,-10.972799,4.562955400000001,-1.1559141000000002,-2.0881643,-3.8510165
6.4058589999999995,-10.83066,4.074768499999999,-0.7060904,-1.6926378,-3.7551980000000005
7.0933684999999995,-11.033611,2.6289868,-0.6017545999999999,-1.0948275,-3.7727735
6.3131557,-11.273434,2.098853,-0.63102376,-0.42622685,-3.7727559999999998
5.9484997,-11.970616,1.4212173000000001,-0.6592458000000001,0.045396015,-3.7035537000000005
5.0348053,-12.867379,0.54204726,-0.7539996999999999,0.23968607,-3.5901769999999997
3.7979987,-13.062899,0.2750459,-0.87217593,0.22478095,-3.3905462999999996
2.7886512000000003,-12.984531,0.037263356,-1.0073866,0.21467550000000002,-3.1866746
1.2195201,-12.434593,-0.16106275,-1.2703726999999998,0.35679767,-2.8928307999999996
-0.09881349,-12.607330000000001,0.18920897,-1.5295889999999999,0.6820571999999999,-2.3195076
-0.88347006,-12.558976,0.75963235,-1.7095325000000001,1.1371868,-1.5497825
-1.2514969999999999,-12.10357,1.5896636999999998,-1.7286788,1.4890625,-0.76298815
-1.1349951999999999,-11.140555,2.6006489,-1.4981906,1.7323264999999999,-0.042219516
-0.61907357,-11.438231,3.2563443,-0.85672975,1.6514131,0.48635346
-0.87183416,-11.967168,2.6174371,0.04394739,1.1872253000000001,1.1453723
-0.36325788,-12.751183000000001,0.73872614,0.7625867,0.5330060999999999,1.8299428
0.37626314,-12.953091,-1.2864333000000001,1.0644065,-0.120148465,2.6364245
3.0407224,-13.006730000000001,-2.0167031000000004,1.0990338,-0.59178877,3.3353764999999997
6.0501285000000005,-12.671398,-2.0520415,1.09954,-0.8382466999999999,3.7276917000000003
8.370196,-12.137578,-1.7689990000000002,1.1980289,-0.8925439000000001,3.7330148000000003
9.286792,-11.530686,-2.3032124,1.2682958999999998,-0.79672533,3.561065
9.325435,-10.531652000000001,-3.0577402,1.0793116000000003,-0.51939255,3.3497405
9.126371,-9.571626,-3.2813684999999997,0.6497337,0.033143803,3.1421337000000005
8.695798,-8.322743,-2.8069046,0.3095865,0.62776005,2.9733777000000003
8.520446000000002,-7.904887700000001,-2.5945487000000003,0.089203775,1.2271584,2.7838874
7.7565527,-8.296761,-3.052406,-0.16790067,1.594463,2.7167969
6.959111,-8.423013000000001,-3.2115247000000005,-0.4622679,1.6562127,2.8615894
7.251175,-8.39049,-2.4250773999999997,-0.5847201999999999,1.3756685,3.0388625
8.393506,-8.316442,-1.6471055000000001,-0.44312164,0.91041607,3.0777134999999998
9.692428,-8.315033999999999,-1.5768499,-0.19716984,0.4249353,2.9680545
10.729652999999999,-8.607405,-2.0505571,-0.13224360000000002,-0.02804744,2.7764175
11.429152499999999,-8.794592999999999,-1.6074479,-0.15725416,-0.3123092,2.671017
13.103093,-8.377542,-0.50779104,-0.055571284000000006,-0.38683477,2.5491232999999998
15.404629000000002,-7.508800999999999,0.0015131354,0.2409078,-0.2255489,2.0359613999999997
15.749058999999999,-6.698057,-0.6323373999999999,0.4373446,0.14493214,1.2603546
14.287332000000001,-6.008163,-1.7408336,0.3143687,0.73155475,0.5763252
12.5381565,-5.5191903,-2.1838279,-0.058241636,1.2537748,0.07113962
11.525965,-6.160214,-1.5967793,-0.35260886,1.6114973999999997,-0.33606315
11.045898,-8.163749000000001,-0.7357191,-0.35419709999999993,1.506097,-0.6794043000000001
10.060493,-9.222781,-0.27386796,-0.07579965,0.8220501,-0.7432834
10.24047,-9.530014999999999,-0.33756329999999996,0.28029987,-0.37618828,-0.7363719
11.778208,-9.618916,-0.34768596,0.57733744,-1.6260883999999998,-0.9242915
12.779703,-10.054488000000001,-0.45815444,0.70352477,-2.6407006,-1.4129486999999998
12.714235,-10.661178999999999,-0.49110820000000005,0.5869193,-3.02771,-1.8941883999999998
11.929206,-11.215638,-0.2750842,0.3361853,-3.042074,-2.3354774
10.764550999999999,-10.853587,0.59804285,0.16160004,-3.0809424,-2.8198936000000003
8.591832,-10.948138,1.2727386,0.08175122,-3.5121260000000003,-3.3032449999999995
6.940599000000001,-11.566483999999999,0.9852619,-0.0752586,-3.1219227000000003,-3.3154797999999994
5.8490252,-10.839863000000001,0.67621833,-0.43938664,-2.6305952,-3.0988321
6.059389,-9.607864,2.0616279,-0.52773523,-2.4346992999999997,-3.031759
5.9164650000000005,-9.030402,3.420931,-0.22591542,-2.5161363999999997,-3.1616464
5.821214,-8.791967999999999,3.1075206000000004,0.06312856,-2.1994116000000004,-3.2095559
5.452458999999999,-9.384715,2.15821,0.056723199999999994,-1.5249466,-3.2782345
4.62894,-9.953078999999999,1.3429077,-0.0704764,-0.6450213,-3.1978445
3.6121800000000004,-10.606792,-0.15597744,-0.37388444,0.3866079,-3.0094013
2.3564307999999996,-11.095152,-1.3277860000000001,-0.85777694,1.2197059,-2.7624022999999998
0.5545163000000001,-11.235155,-1.635441,-1.3816026000000001,1.8973475,-2.3136609
-0.7059448,-11.194329,-1.2865098999999998,-1.7451721000000002,2.2268654999999997,-1.7174563000000003
-0.9947142,-11.24593,-0.47232813,-1.8037279999999998,2.0964372,-1.1622322
-1.0308571,-11.000198,-0.007038953000000001,-1.6083558,1.6258614,-0.7145378000000001
-1.1793837999999999,-10.660662,0.4183628,-1.3379518999999997,1.1324046,-0.34032175
-0.7530626,-11.253505,1.0000676,-0.93230253,0.722514,0.014189526000000001
-0.655044,-13.159317000000001,0.5630779,-0.38028979999999996,0.46326274,0.5092522
-0.24282952,-14.818691000000001,-1.0641078000000002,-0.007120943,0.14173819,1.3327683000000001
0.9146138,-14.750763000000001,-2.3471507999999996,0.032794736,-0.18029252,2.2446330000000003
3.298061,-13.391028,-1.5918854,0.074298665,-0.35437164,2.93985
5.8889510000000005,-11.861219,-0.36860170000000003,0.46450192,-0.25216517,3.2485988
8.042017999999999,-10.867617999999998,-0.6241109,1.0138618000000001,-0.012077678,3.1735497
8.812788000000001,-10.459394999999999,-2.3646955000000003,1.2853477,0.28759536,2.8472254
8.487225,-9.739459,-4.5058207999999995,0.97073466,0.57292175,2.4793973
7.0913095,-9.208464,-5.661559,0.12222540400000001,0.8369552,2.1376443
4.944812000000001,-8.72605,-4.4074,-0.7545058000000001,1.1084411,2.1131572999999997
4.2201347,-8.285172,-1.8023262999999998,-1.1542909,1.1707319,2.2978656
4.370893,-7.675609599999999,0.33143413,-0.9573130999999999,0.941832,2.4948435
5.1213984,-7.0271735,1.6854221999999999,-0.28712413,0.54258794,2.6151316000000002
6.146826,-6.758352799999999,0.9442826999999999,0.36709509999999995,0.2151991,2.547535
6.6055837,-7.200341000000001,-0.37085226,0.6273761,-0.0376293,2.4075246
7.032316000000001,-7.632629,-1.0424259,0.5890661,-0.11428416,2.3463159
7.8734474,-7.945091199999999,-0.72180396,0.53209853,-0.07595673,2.2888248
8.841949000000001,-8.10648,-0.5294059,0.6316520999999999,0.034749504,2.2307924999999997
10.173911,-8.128554,-1.2706218999999999,0.6737145,0.083182395,2.056731
11.120425,-8.506206500000001,-2.4254987,0.47780132,0.10075786,1.8278308999999997
11.682737,-9.106337,-2.9132453999999997,0.018413223,0.16996016,1.6718509
12.290807000000001,-8.745444,-1.7884113000000001,-0.30148816,0.22425735,1.3929124
12.740945,-7.4718537,-0.5491341,-0.25357887,0.44090506,0.84568185
12.467308000000001,-6.5923004,-0.91213334,-0.058747783,0.8114036,0.17922786
12.639068,-7.7926474,-2.0566769,-0.022567106,0.98494166,-0.55218726
11.361799000000001,-10.04585,-3.1509035,-0.16629498,0.97110116,-1.0733252
9.58351,-11.084147999999999,-3.239125,-0.42233476,0.7049385,-1.1755316
8.884202,-10.441516,-2.0554605,-0.42872268,0.22638665,-1.0882303
10.140977000000001,-9.802494,-1.3652122,-0.1471138,-0.37512362,-1.2106651000000002
11.206396,-10.124868,-1.9259724999999999,0.022689281000000002,-1.0288191999999998,-1.6429133000000002
10.86099,-10.861105,-2.2124243,-0.046513025,-1.5270758,-2.0794200000000003
9.894566000000001,-11.018336999999999,-1.7720731,-0.16414821,-1.8454064,-2.3258781
9.59325,-10.690147999999999,-1.1411532,-0.22802727,-1.9907400000000002,-2.5489311000000003
9.319429,-10.203772,-0.52684885,-0.30787608,-1.9651883999999997,-2.8491627999999998
8.347997,-9.740599000000001,0.08441955599999999,-0.35686746,-1.7251008999999997,-3.1637757
7.293313,-9.221124,0.25616044,-0.38933059999999997,-1.2736889,-3.3969343000000003
6.044306,-9.302938000000001,0.060908493,-0.43402848,-0.7823438,-3.5864246
4.354631400000001,-9.514251,0.080904864,-0.43083453,-0.3729943,-3.5795133000000003
2.9333472,-9.715133999999999,0.22463357,-0.3403392,-0.07648033,-3.3431606
1.8564161,-9.69035,0.15773958,-0.22588049999999998,0.07094763,-3.0168364
0.89116013,-9.678091,0.047405194000000005,-0.11889183,0.09810495400000001,-2.6021638
-0.0071634515,-9.696928999999999,-0.0031794999,-0.030543262,-0.0051661744,-2.1411700000000002
-0.30506918,-9.909917,0.05170518,0.08283333,-0.17709856,-1.573711
-0.22589771,-9.876417,-0.20042342,0.16161749,-0.34798375,-0.9423731
1.0284149999999999,-9.996281,-0.62368953,0.09827949,-0.46401322,-0.33498105
2.7991759999999997,-10.234962,-0.91245896,-0.13966125,-0.35011303,0.00036651915
3.8851190000000004,-9.96349,-0.7540585999999999,-0.5287824000000001,0.020909045,0.1004437
3.5738343999999995,-9.453064999999999,-0.15459839,-0.92697924,0.5606869999999999,0.07754498
3.4758348,-9.923057,0.8446551999999999,-1.0291682,1.0115579,0.0051487214
2.5297997000000003,-11.297260000000001,0.82501316,-0.83061963,1.323518,0.0030194195
0.69351405,-12.26629,0.012066776000000001,-0.58149135,1.3884618,0.34370768
-0.73114127,-12.751049,-0.8010999,-0.4633151,1.1510272,1.111321
0.7386879,-12.547399,-0.96758306,-0.42976987,0.9077632,1.9428133
3.7938712,-11.735007000000001,-0.6778847,-0.38240165,0.83323765,2.2206872000000004
5.138886,-11.152517,-0.5028590000000001,-0.25569072,0.8337787,2.178642
5.164293,-11.375952999999999,-0.9413905,-0.12421508,0.84866637,2.1594784
4.883606400000001,-11.262957,-1.3415287,-0.09761626,0.80449206,2.2717902999999997
4.548897,-10.594793,-1.2091292,-0.13857915,0.97963583,2.4676862
4.090867,-9.685092,-0.5203079,-0.08962265400000001,0.9556725,2.6566702999999996
3.9270082000000004,-8.846623,0.30821994,0.1802576,0.8742353999999999,2.8823764
4.623223,-8.389264,0.6218029,0.6119648,0.75551814,3.0702784
5.790971,-8.066841,-0.10926179,1.0697821,0.5590988,3.0473971
6.235382599999999,-8.545596000000002,-1.539826,1.2560786,0.19816469,2.9494493
6.300332,-9.057811000000001,-2.2597241,1.1639950000000001,-0.1701696,2.940391
6.9750757,-9.333412,-2.1291924,1.0064267,-0.35063663,3.00427
8.172981,-9.630868,-2.1393244,0.88027424,-0.44858453,3.017046
9.588471,-9.672737,-2.198959,0.72750556,-0.5603729000000001,2.8967577999999996
11.402768,-9.395527000000001,-2.0033817,0.5677905,-0.6375513,2.5879917000000003
13.132063,-9.858911500000001,-1.9692404,0.38735837,-0.6263812,2.0791060000000003
13.587966,-10.340835,-1.6209896000000001,0.14299482,-0.5316273,1.6511164
13.640916,-9.454415,-0.5535778,0.03122394,-0.26918212,1.3519495000000001
14.405653,-7.817404,-0.014068329,0.114790305,0.23225096,0.95429367
15.076566,-6.650939,-0.66444844,0.18825121,0.92586225,0.18880972
14.923998000000001,-8.277541000000001,-1.6120926000000002,0.20739748,1.3038133,-0.62404245
13.1026325,-9.892832,-2.5448543999999997,0.19250982,1.1989538999999998,-1.0711958000000001
11.370782,-10.039069,-3.0373417999999996,0.063687064,0.58836794,-1.1462450000000002
11.348047,-8.506637,-2.2045522,-0.09227556,-0.12971286,-1.2154473
12.819303,-8.049641000000001,-1.1930786,-0.06939429,-0.61306435,-1.7280853999999999
12.844825,-9.373233,-0.9184062,-0.0028274334000000004,-1.0149788,-2.448313
12.313476,-11.310639,-1.5181154,-0.076829396,-1.3333093999999999,-3.0375883999999997
11.524997,-12.930392999999999,-1.7722168000000003,-0.39995965,-1.7192366000000001,-3.4336559999999996
9.955368,-13.687516,-0.4323641,-0.6528055,-2.3346047000000003,-3.732282
8.357238,-13.26019,1.1001931,-0.6810275,-3.1325693,-3.87868
7.766694500000001,-12.277572,2.1000023,-0.6996501,-3.0016172,-3.7674152999999997
8.335443,-11.028872,1.9172863000000002,-0.78375757,-2.3521802000000003,-3.7567690000000002
8.40745,-10.558150999999999,2.1834164,-0.86734134,-1.5701854,-3.9947271
7.9379754,-10.893158,2.3802962000000005,-0.8061151999999999,-0.8467639000000001,-4.3029345999999995
7.0002527,-11.848416,1.7773788000000001,-0.76459384,-0.06318091599999999,-4.487643
5.6491094,-12.562078999999999,1.4268484,-0.6953741,0.42547637,-4.4935074
4.401471599999999,-13.16106,0.8642588999999999,-0.6091548000000001,0.6799279,-4.330092
2.1828225,-13.305153,0.57797945,-0.6277949,0.64053583,-3.9143372000000003
-0.16426139,-12.381853,0.8656859,-0.596379,0.22160445,-3.09775
-1.3163608,-11.417239,0.5582512,-0.53197634,-0.33519047,-2.1794972
-0.81661433,-10.974455,0.44771573,-0.6682342,-0.80737185,-1.3756685
0.067401566,-11.223539,1.1733216,-0.8508131,-1.1810642,-0.8609186
-0.40375817,-10.469863,3.1390474,-0.76139987,-0.6913249,-0.32805207
-1.2146168,-9.711849,3.5618730000000003,-0.42229986,0.11301007,0.13557717
-1.7962930000000001,-10.905541,3.4011261,0.047193702000000004,0.7028266,0.7136826000000001
-1.917248,-13.130234,2.4242442000000004,0.60772365,1.0115753,1.5483688
-1.1063797,-14.080626,0.9154757,1.0458361999999999,1.2399341999999998,2.4118006000000003
-0.19884324,-14.603892000000002,-0.92787766,1.2773889999999999,1.101006,3.3231417999999997
2.782953,-14.273809,-2.1307054,1.2049928,0.8508131,3.9214756
6.1620526,-13.465392000000001,-2.7054286,1.1246203000000001,0.46380379999999993,4.003995
8.108175,-13.308572,-4.013304,0.92179567,0.18699458,3.6707589999999994
8.53779,-13.686119,-5.1185064,0.27131143,0.08372344,3.3055837
8.385941,-14.164126000000001,-5.2124166,-0.64057076,0.32381094,3.1251168
6.9824494999999995,-13.479585,-2.8009477,-1.5923511000000001,1.0243512,3.1213992000000004
5.7240286,-13.089992,-0.2753236,-2.0384574,1.6258788999999998,3.2400990000000003
4.632493,-12.585504,2.385985,-1.8340269,1.7429904999999999,3.648925
5.4102545,-11.724827000000001,4.2941155,-0.90990996,1.3128716,4.118436
7.189031,-10.748855,3.8056123,0.39320523,0.47924995,4.386728
9.052534,-10.118653,1.6393098999999998,1.4402806000000001,-0.40812778,4.33456
10.341409,-9.713325,-0.77149796,2.014145,-0.9787806,4.0774555
11.522546,-9.676950999999999,-2.9671724,1.9992398,-1.0990862,3.8150105000000005
12.78702,-9.309546000000001,-4.0002894,1.5158882,-0.74988073,3.5781343
14.830835,-8.4199095,-3.8811923999999998,0.85793406,-0.046146505,3.271515
17.831192,-8.394157,-3.7620666,0.12917182,0.6421415,2.5220008
18.229538,-8.237204,-2.3015172,-0.4914847,1.1265577,1.4738607
16.102767999999998,-7.9202012999999996,-0.07760087,-0.5074719,1.4619226,0.70623004
14.16629,-7.201395,0.8090103,-0.0879995,1.509832,0.31017992
13.729416,-6.5122194,0.12724704,0.3985285,1.235152,-0.020367993
13.997663000000001,-6.8921595,-1.3305154,0.6540446999999999,0.6873805000000001,-0.4771032
13.541491,-7.423299,-2.0846696,0.7530571999999999,0.035290558,-0.91095716
13.635572,-7.419047,-2.488859,0.8174773,-0.6343574000000001,-1.273462
14.375247,-7.764271300000001,-3.0880127,0.7914021,-1.2438787,-1.7903413000000001
14.899414000000002,-8.874893,-4.220096599999999,0.5023407,-1.718172,-2.444578
15.459006,-11.746231,-5.5346565000000005,-0.25195572,-1.9822053,-3.1839867
14.800294000000001,-15.647801999999999,-4.679295,-1.2612448,-2.227616,-4.0761642
11.34887,-18.089228,-1.9990052,-1.9388863,-3.0857246,-4.3822427
10.798338000000001,-17.8106,0.6242736999999999,-2.0384223,-2.5049488999999996,-4.1937995
9.335672,-15.590525,2.049379,-1.9777547,-1.8970331999999999,-4.1341786
8.432780000000001,-13.764467000000002,3.1180263,-1.5923511000000001,-1.6739976000000003,-4.2331915
8.037527,-12.7558565,2.9057374,-1.0445795,-1.3982531,-4.4620914
7.0228543000000005,-12.992011,2.2563627,-0.66130525,-1.4488152,-4.653728500000001
6.1498422999999995,-12.407586,2.0411623,-0.2812249,-1.7352063999999998,-4.641476
5.6361136,-12.779069999999999,0.85046834,-0.22800982,-0.9968796999999998,-4.410464299999999
4.639551,-12.376165,0.46041456,-0.27803096,-0.38364083,-4.111821
3.8777065000000004,-12.688312,-0.7703871,-0.37330848,0.07574729,-3.8270182999999998
3.1127305,-12.873603999999998,-1.367003,-0.6687578000000001,0.28707176,-3.4277742
2.830818,-13.007603,-1.3597723999999998,-1.0222219000000001,0.43559927,-3.020013
1.8630624,-12.396171,-0.7983897,-1.4438236,0.7273136,-2.614922
0.65205604,-11.900121,0.033748667999999996,-1.7296911,1.0754545,-2.2359063999999997
-1.2581434,-11.917187,0.078223355,-2.0208645,1.4693753,-1.6844172
-2.3962607000000005,-12.06557,0.9095572000000001,-2.2785099,1.6567538,-0.8928405999999999
-2.3470838,-11.8023615,2.4636240000000003,-2.173633,1.7440552,-0.20348793
-2.8997900000000003,-11.849958,3.9227654999999997,-1.5646528,1.5859457000000001,0.37939966
-3.0189066,-12.439171,4.7352620000000005,-0.35627407,0.97803015,1.1709589
-1.4548893,-13.694317000000002,2.9016001,0.9026668,0.19444713,2.0423843999999995
0.3485,-14.600121,-0.26132232,1.4477681,-0.26972318,2.7977452
1.8948479,-14.934072500000001,-2.3974004,1.4009234,-0.46561894,3.5169258
4.315960400000001,-14.984082999999998,-2.9015234,1.1464718999999999,-0.42942079999999994,4.1232357
7.2915697,-14.894989,-2.204629,1.0362543,-0.24843016,4.510227700000001
10.299032,-14.682882999999999,-2.2095034,1.0857693000000002,0.023038346,4.537925700000001
11.787775,-14.233328,-2.9342666,0.9553583000000001,0.20350539999999998,4.2249184
11.275081,-13.663670999999999,-3.149084,0.58859485,0.37065557,3.8799717000000005
9.523492999999998,-12.771065,-2.3498037,0.17018706,0.6181956000000001,3.7671187000000006
8.015203,-11.842278,-0.87253326,-0.06297148,0.8380373,3.8592021
7.179895,-11.21672,0.85905874,0.039741147000000004,0.8949874,4.082779
7.733865299999999,-11.213272,2.3179607000000004,0.642351,0.7129321,4.3532004
9.786683,-10.711457000000001,1.9544538,1.4637203,0.38395497,4.3899393
10.907083,-10.286544000000001,-0.16187677,2.0844293,-0.11800171,4.0673504000000005
11.061652,-9.828782,-2.1353022999999998,2.1461442,-0.49649382,3.7101512000000003
11.324545,-9.752244000000001,-3.2858598,1.8188076000000002,-0.50340533,3.4040727999999993
12.074879,-9.902055,-3.4787559999999997,1.2593074,-0.18613936,3.1544034
13.205344,-9.887938499999999,-2.500849,0.74988073,0.37863174,2.9462729
15.010964000000001,-8.887698,-2.039247,0.47785370000000005,0.9423731,2.6731813
16.646729999999998,-7.540509700000001,-2.1211286,0.25747097,1.3059427,2.0359964
16.841276,-6.5049980000000005,-2.0004416000000003,0.047734755999999996,1.3203241000000001,1.1629652
15.902115,-6.0358686,-1.3033173,0.0035604715999999997,1.101006,0.27132890000000004
14.736588500000002,-6.194518,-1.1675468999999998,0.08660324,0.94821995,-0.40842449999999997
13.964315,-7.8790975,-1.7415041,0.14035937,0.76244706,-1.050409
12.459607,-9.191301,-2.392411,0.1068316,0.48298496,-1.3942912
11.76662,-9.708698,-2.6874819,0.019006636,-0.087126836,-1.5018208999999998
12.773525,-10.005877,-3.0136964,-0.10341076,-0.79033744,-1.7142273999999997
14.101282999999999,-10.824645,-3.134824,-0.41324160000000004,-1.5462395,-2.2561347
14.482783999999999,-12.537142,-2.7730122,-0.84974843,-2.1301918,-2.9055717
14.321732,-14.429499,-1.8411794999999997,-1.3091191,-2.4485222999999996,-3.4724896
13.773689000000001,-15.752899,-0.31525892,-1.6354433000000002,-2.5326297,-3.9430652000000004
12.538309,-15.986304,1.4880825,-1.6609949000000002,-2.757271,-4.4115114
11.34775,-15.294189000000001,2.1830812,-1.5225903,-2.773782,-4.6617045
10.93882,-14.76304,2.3730752,-1.4278538,-2.3383397999999995,-4.9065742
10.875891000000001,-14.250863,2.1592922000000003,-1.2606863000000001,-1.3625785,-5.090235
10.435989999999999,-14.956271,1.2452626,-1.18829,0.019320795,-5.3010364
9.570103999999999,-15.608644,0.1716068,-1.1744493999999999,1.3783388,-5.462863
8.43414,-16.063015,-1.208976,-1.2995546999999998,2.435537,-5.5799747
6.450419999999999,-16.502638,-2.0300244999999997,-1.5045087,3.0865798,-5.5443
3.9656309999999997,-16.101255,-2.0397546,-1.6572773,3.2058207999999997,-5.1769958
2.399622,-15.692708999999999,-1.6687584999999998,-1.6258614,2.7810252,-4.599431
1.5570356,-14.904653,-1.5347311000000001,-1.5412304,2.0549333,-4.0628470000000005
0.92106855,-14.145805,-1.5829121000000002,-1.5827343,1.4198776000000002,-3.7791089999999996
-1.1790389,-14.181182999999999,-1.6667666,-1.6769646,0.9892177,-3.5539267
-4.904819,-14.451316,-1.9065987000000002,-1.8850952,0.5383468000000001,-2.8054771
-7.1182394,-13.173022,-0.6334196,-1.9814547999999998,-0.10841985,-1.5082089
-6.4623528,-12.023547,1.565693,-1.6503484,-0.7424281999999999,-0.29398325
-4.461757700000001,-12.014439999999999,3.1172313999999997,-0.84175485,-1.0719288999999999,0.7924842
-2.6627447999999996,-12.898522,2.8571541000000003,0.08449139,-1.2625013999999999,1.817743
-0.9080728000000001,-14.090538,1.3477153999999998,0.8425228000000001,-1.6856914,2.8744175
0.9375694,-15.229631,0.32638714,1.2997816,-2.1648016,3.8256745000000003
4.316832,-16.501518,0.11839806,1.7735511999999998,-2.4788563,4.7332980000000004
7.727908599999999,-16.806894,-0.5131445,2.2462737999999995,-2.3558977000000003,5.2422013
10.4414015,-16.748081,-1.0271412,2.6875627,-1.9577183999999996,5.3896465
11.745197000000001,-15.960026999999998,-2.0651903000000003,2.9744772999999998,-1.4142228000000001,5.320444
11.73632,-14.712025,-3.6393495000000002,2.8403313,-0.75998616,5.1351949999999995
11.272486,-12.984484,-4.526200299999999,2.1621487,0.05551892,4.93717
10.873342999999998,-11.575161,-3.9370443999999996,1.2838118,0.89765775,4.690171
10.4564085,-11.158474,-2.0933175,0.6567324999999999,1.5779697,4.508116
10.322782499999999,-11.056816,-0.135847,0.667379,1.8654253,4.3494825
10.637439,-11.03389,-0.5861293000000001,0.9085310999999999,1.8308330000000002,4.1429405
10.417507,-10.759045,-2.2858784,0.7674562,1.4715046,3.7995992
9.745406,-11.16717,-2.8058509999999997,0.29848620000000003,1.0328684000000001,3.5792165000000002
9.889259,-11.982577000000001,-1.7680031000000003,-0.029408797999999996,0.6437472,3.596251
11.360593,-12.041551,-0.5385038000000001,-0.025691247,0.25886723,3.6223261
13.101531,-11.36994,-0.03835511,0.19308577,-0.08339183,3.5025616000000004
14.701557000000001,-10.769789999999999,-0.2609584,0.32829642,-0.16697565,3.2614095
16.590994,-9.8188505,-0.16572663,0.28942794,0.100234255,2.7588942000000003
17.641904999999998,-8.301215,0.35753092,0.36555922,0.6299068,1.8991974999999999
16.955017,-6.881184599999999,0.26658000000000004,0.5806187,1.0754545,0.9064018
15.346096,-6.1495833,-0.83438885,0.7275404999999999,1.4140133999999998,0.06373943
14.389860999999998,-7.377043,-2.4924119,0.56997216,1.7451198,-0.6069732
12.852965,-8.619786999999999,-3.1677206,0.26761132,1.796223,-1.0126051
11.6859255,-9.0336485,-2.9582279,0.07756243,1.3325589,-1.1148291000000001
11.924914999999999,-8.6998205,-2.4263415,0.13718288,0.3328692,-1.1573976000000001
13.499974,-8.411482000000001,-2.5896451000000003,0.29316294,-1.171465,-1.5896458999999998
14.098669000000001,-9.158816999999999,-2.9574327,0.14250614,-2.290954,-2.2811453
13.728045000000002,-10.786634,-2.9096827999999997,-0.4185474,-2.8467019000000002,-2.9247355
13.460345000000002,-12.589259,-1.8792088,-1.0062171999999998,-2.9334621,-3.379324
13.5085745,-14.060591,-0.46955085,-1.4299657,-2.8073096,-3.796667
13.396612,-14.842806,0.56087524,-1.6402255000000001,-2.5943797,-4.248079
12.603164,-15.2978,1.5780853000000001,-1.6498073,-2.509731,-4.821925599999999
10.784680999999999,-15.953619,2.3467102000000004,-1.5358896999999998,-2.6140668,-5.228098999999999
9.63444,-15.541989000000001,2.2057493,-1.3618281,-2.134974,-5.1695433
9.800339,-15.615414000000001,0.84429127,-1.5055209999999999,-1.1006744,-5.149297
8.669912,-15.309013,0.79665625,-1.6311673,-0.31442106,-5.14825
8.017118,-15.250232,0.4510772,-1.6146738999999999,0.14868459,-5.0763774
7.4317265,-15.25571,0.24562594,-1.555577,0.34723327,-4.998117
6.330652,-15.400893,0.36483803,-1.4224957,0.5016076,-4.773493
4.565656,-15.048247,0.36826655,-1.2053243999999999,0.60222584,-4.407776999999999
2.6478436000000003,-14.18395,-0.3477147,-1.0525556999999999,0.4739267,-3.9462593
1.2907620000000002,-13.684539000000001,-1.2145498,-1.1483568000000002,0.36267942,-3.461843
0.4653179,-13.524328,-1.5687385,-1.4363362,0.4105887,-3.0466292
-0.73968387,-13.302941,-1.4550999,-1.8185457999999999,0.6203249,-2.6085167
-3.4102435,-13.266032000000001,-0.7193236,-2.1246417,0.8731708,-1.8962653000000003
-5.785693599999999,-12.434172,0.7600824,-2.1283592999999996,0.78480476,-0.7134381999999999
-5.0801324999999995,-12.068099,2.9187232999999995,-1.5119264,0.4648859,0.5454852
-2.9301105,-12.117984,3.3704326,-0.48507935,0.25089110000000003,1.5787376
-1.2608249,-13.185865,1.5014326999999998,0.272411,0.033161256,2.4629388
0.20182163,-14.218809,0.18441099,0.6035174,-0.23244295,3.430689
2.8448862999999998,-15.268896,-0.20223343,0.7972838000000001,-0.29099876,4.3500237
5.859799400000001,-15.852535999999999,-0.34712094,0.9591108,-0.23670155,4.962721299999999
8.664798,-15.886992999999999,-0.5056075,1.1603298,-0.26118850000000005,5.258712
10.519528,-15.013407,-0.7759225000000001,1.3807125,-0.35274848,5.2203669999999995
10.9050045,-13.480792000000001,-1.0919762,1.5739553999999998,-0.47305405,4.977103
10.328644,-11.920164999999999,-1.3941915,1.6766855,-0.5145754,4.6816535
9.579067,-10.991608,-1.2590723999999998,1.7075778000000001,-0.40865138,4.465006
9.301368,-10.516942,-1.0899172,1.7192714,-0.10841985,4.327666000000001
10.182789,-9.729174,-1.8466957,1.6085478000000002,0.27324873,4.0556564
10.199183999999999,-9.696316,-3.1096754,1.0852631000000001,0.54367006,3.586128
9.452442,-10.718276,-3.2626936,0.31660274,0.729984,3.3402112
9.14248,-11.959794,-1.7052080000000003,-0.1529083,0.9407848,3.413131
9.716466,-13.062822,-0.8155704,-0.23808037,1.1276224,3.7649894
11.333575999999999,-12.862197,-1.1071746,-0.36157987,1.0861009,4.158386699999999
13.744910999999998,-12.120214,-0.9121620999999999,-0.5462880999999999,0.9556899,4.4681997
18.52956,-10.9629345,0.05856217,-0.61761963,0.92481506,4.3644050000000005
23.053959,-8.356023,1.2221538,-0.36316812,1.4289185,3.2635562
23.526413,-6.314889,1.4307557,0.12177162,2.1635275000000003,1.3977469
19.099745000000002,-6.004198000000001,0.38407785,0.64345056,2.61761,-0.010227629
14.804948000000001,-6.7239146,-1.8327327000000002,0.88992596,2.6671072999999996,-0.570234
12.534489,-7.7497916,-3.6165566,0.80473644,2.3290894,-0.7554831999999999
11.233564999999999,-8.828773,-4.2582793,0.66526717,1.5162198999999998,-0.7145029
11.375849,-8.343698,-4.2374597000000005,0.6253515000000001,0.42762312,-0.5462880999999999
13.179228,-7.3053412,-4.110423,0.5577373999999999,-0.7440164,-0.7315373000000001
14.924391,-6.7587839999999995,-3.6968870000000003,0.38261107,-1.5685798,-1.3335886000000001
15.650657999999998,-7.837735,-3.448378,-0.016074482,-1.9720824000000001,-2.2316303
14.881687,-10.050753,-2.4886098,-0.45418704,-2.1328447,-3.0333123
13.847267,-12.217055,-1.092206,-0.67669904,-2.3079883999999997,-3.6188705000000003
13.066212,-13.608901000000001,0.1414207,-0.5984385,-2.6034203,-4.0676120000000004
12.23438,-14.328013,1.0811927,-0.27319640000000006,-3.5658648,-4.7553763
9.284034,-15.018310999999999,1.4241478,-0.08529424,-4.608158,-4.8357663
8.22436,-14.482928,1.1809161,-0.25455627,-4.100319399999999,-4.471655999999999
7.937554400000001,-13.613985999999999,1.0959888999999998,-0.49144979999999994,-3.2097477999999997,-4.107004
8.238017999999999,-13.035423,1.0042527,-0.72247905,-2.5959678,-4.1554546000000006
7.1356687999999995,-13.072073,0.8516367,-0.94872606,-2.0721595,-4.2145514
6.264333000000001,-12.8550625,0.3018514,-1.18082,-1.1916933,-3.9031322
5.393523,-12.841071000000001,0.5628864,-1.3527697,-0.29686305,-3.6060946000000005
4.273152,-12.421932,0.49708417,-1.3122956000000001,0.39727184,-3.1690466
4.1872,-12.514522,-0.60694927,-1.350623,0.857201,-2.9023604
3.6040683,-12.89653,-1.7658578,-1.6838413,1.2048181999999998,-2.7612853
2.7433815,-13.904929999999998,-2.2426775,-2.2076669,1.5918101,-2.6750486
0.75533235,-15.090845000000002,-2.3039212000000004,-2.8273113,1.9665671999999998,-2.4679827999999997
-2.5731921000000004,-15.099981,-1.7285658,-3.3266150000000003,2.0171468,-1.9697262
-4.3703084,-14.169135,0.20803697,-3.6156763999999995,1.6466483,-1.1632445
-3.41281,-13.793187,3.381216,-3.1871457000000003,1.263374,-0.4909262
-3.3519205999999997,-14.442657999999998,4.7815843000000005,-1.961209,0.90617496,0.15371114
-4.336761,-15.378829000000001,4.0827174,-0.7150265,0.22053981,1.0932568
-4.622964,-15.410720000000001,2.4241674,0.28625146,-0.67214376,2.4996605
-1.4685937,-14.5718775,2.2379177,1.0075611,-1.0905515,3.7995992
2.8255315,-14.32066,2.130332,1.7017133999999998,-0.79511964,4.5853114
6.210559,-15.161589000000001,1.4648204,2.4054477000000003,-0.24947736,4.957957
8.815029,-15.905304999999998,0.022850262000000003,3.057555,0.05338962,5.11179
10.805837,-15.638658,-2.4516720000000003,3.3359525000000003,0.09916960400000001,4.9941373
11.4969,-13.945718,-4.9069357,2.9670596000000002,0.019320795,4.5853114
10.975298,-11.439064,-6.093866,2.0221734000000002,0.06084218,4.048204
10.002017,-9.553927,-5.6623925999999996,0.8798030000000001,0.3999422,3.5366303999999995
8.9648485,-9.175175,-3.3333703999999997,0.032882,0.81142104,3.2209702
8.391332,-9.712396,-0.70258325,-0.05333726,1.1718141000000002,3.1815782
8.37983,-10.187807000000001,-0.11651143,0.30436796,1.4145545,3.3024072999999996
9.259882000000001,-11.054719,-1.6236518999999998,0.43479642,1.5215431000000001,3.3588512
9.567803999999999,-11.253409,-2.6076975,0.21067870000000002,1.4337182,3.385991
10.146598,-11.229515,-2.0331082,0.0871792,1.2064065000000002,3.4690339999999997
11.630505,-10.91575,-1.4906875,0.18992673,1.019569,3.5701756000000002
14.5241375,-10.307134,-1.8096526000000002,0.27455774,0.84336054,3.465299
17.132189,-9.424268,-2.0612256999999996,0.17767452,0.69005084,2.999523
18.836985000000002,-7.799016,-1.3159298000000001,0.12177162,0.70869094,2.1190567000000002
19.083502,-5.792637,-1.0176028,0.31927308,0.87210613,1.0235308
16.988777,-5.360742,-2.5531672999999997,0.44436082,1.0951591999999999,-0.11562806
14.482161999999999,-7.072175,-4.502871,0.07707374,1.2947725,-0.8443728000000001
12.229428,-9.339042999999998,-4.3249054000000005,-0.41053635,1.14998,-1.0615791
11.327227,-9.499024,-3.0254282999999997,-0.51272535,0.568157,-0.834791
12.982732,-8.1098795,-1.8605915000000002,-0.32428217,-0.41130429999999996,-0.8747241
15.017342999999999,-7.6648164,-1.6656653000000001,-0.06771877400000001,-1.3870655,-1.4310128999999998
15.370085000000001,-8.60953,-2.0436811,-0.13742723,-2.067901,-2.2896452000000003
14.570891,-10.223098,-1.9182248,-0.47813293,-2.2962773,-2.9348235000000003
13.615222,-11.893063,-0.7056574000000001,-0.77623516,-2.3803847,-3.4336212
12.838428,-13.150431,0.4983579000000001,-0.8102866,-2.40646,-3.8009082999999997
11.869025,-13.585811999999999,1.0795455,-0.68148124,-2.4027423999999997,-4.126168
10.514711,-13.713567000000001,1.8195549,-0.5287126,-2.9329386000000004,-4.500925
8.4699,-13.130042000000001,3.1866060000000003,-0.11932816,-3.2864027,-4.6483703
9.048655499999999,-12.542055,0.42920375,-0.16032594,-2.6550646,-4.384878
9.545482000000002,-12.602302,-0.99205184,-0.8134805,-1.8373953,-4.6483703
8.6354065,-12.751576,-0.3257934,-1.2084834999999998,-1.3013523999999999,-4.8059387000000005
7.299174000000001,-13.657015,-0.71601,-1.5677943,-0.52735126,-4.6941504
6.115557,-14.007535,-0.32813013,-1.7913709999999998,-0.014189526000000001,-4.400306700000001
5.300006,-13.82821,0.25104642,-1.7631665,0.22692771,-4.0356727
4.8527308,-13.768307,0.3893738,-1.6433846,0.31848767,-3.658786
4.0546665,-13.842125,-0.12732364,-1.6338027,0.4499808,-3.2994578000000003
2.9445999,-13.708632999999999,-0.8431228999999999,-1.9122176,0.6251071,-2.9444053
1.6945393,-14.329832999999999,-0.80833036,-2.3481834,0.9594075000000001,-2.6526911
-1.1022713,-14.472221,-0.049291823,-2.6446973999999996,1.2468632,-2.1885033
-3.8024232000000002,-13.716238,1.3431853999999999,-2.5824065,1.0818423000000001,-1.3777628999999998
-4.2119279999999995,-12.769627999999999,3.5022383,-2.0149477,0.5952969,-0.42702970000000007
-3.0308104,-12.808107000000001,5.3568153,-0.82999134,0.2727077,0.41615630000000003
-2.6735189999999998,-13.162688000000001,4.687301000000001,0.49387583,0.12100368,1.2508426000000001
-1.7366486,-14.382007999999999,2.046305,1.5005118999999998,-0.15152949,2.2175455000000004
-0.2621555,-15.054147,-0.025005042999999998,1.9066849,-0.24947736,3.279526
2.8598068,-15.174354999999998,-0.98486924,1.9481889,0.020926498,4.1525397
5.612631299999999,-15.206179,-0.94225246,1.9253076,0.3978129,4.619397599999999
7.718667,-15.036726999999999,-0.6299528,2.1249208,0.7124085,4.916958999999999
9.58941,-14.701557000000001,-1.2670498,2.451245,0.7597941999999999,5.0106483
10.992814,-13.755339999999999,-2.8723621,2.4980898,0.6724928000000001,4.7902656
10.993072999999999,-12.086993,-4.3965106,2.058389,0.567616,4.3425884
9.637888,-11.227293,-4.313662,1.3450729,0.46755624,3.939086
8.657682000000001,-11.484861,-2.6564145,0.8856673,0.39514256,3.8704072999999997
8.735303,-11.7147045,-0.78460866,0.9628806999999999,0.23385666,3.9827366
9.941041,-11.404819,0.27416483,1.4989063,0.18647097,4.0221286
11.08186,-11.085049,-1.3118885,1.9742814999999998,0.38823104,3.8571079
11.105706,-11.070108,-4.27411,1.6106945,0.7858694,3.6303372000000005
10.813671000000001,-11.017512,-5.7306365999999995,0.5114512999999999,1.2734969999999999,3.5494237
11.727182,-10.952257000000001,-3.9090227999999994,-0.49410272,1.4959915000000001,3.5212017999999996
13.681253,-10.6822195,-1.127353,-0.7080975,1.3879381000000002,3.4408293
16.335562,-9.481211,0.20604499999999998,-0.39879027,1.0387326,3.0383914
17.972017,-8.288936999999999,0.11606132,-0.022462387,0.6975034000000001,2.1962349999999997
17.843294,-7.379351,-0.28484297,0.21123719,0.5127952,1.1188258999999998
15.665251999999999,-6.9600786999999995,-0.62751067,0.38049924,0.5319589,0.19097392
13.178749,-6.9385114,-1.6439737,0.400204,0.7704407,-0.34611624
12.261866,-7.794745,-2.9690112999999996,0.1436057,1.1084586,-0.72460836
10.958261,-8.83559,-3.323918,-0.2284636,1.1457214,-0.9865124
9.978361999999999,-9.352653,-2.7871954,-0.39613740000000003,0.7081673,-0.98064816
9.773610000000001,-8.850032,-2.1915948,-0.35620424,-0.18292795,-0.87737703
11.469184,-8.045283,-1.7342639,-0.2316401,-1.2662189,-1.032816
13.205928,-7.892131299999999,-1.5065658000000002,-0.23750441,-2.1929886,-1.6332791000000002
13.722529999999999,-9.270512,-1.2479056999999998,-0.41530108,-2.68114,-2.3221083
13.47494,-11.212611,-0.6853642,-0.6851988,-2.806245,-2.9071426
12.906835000000001,-12.807858,0.013857639,-0.8794889000000001,-2.6880688999999998,-3.3447142
11.951807,-13.206609,1.2800744,-0.8970643,-2.8887467,-3.795585
10.055245,-13.375103,1.8607352,-0.76611227,-3.3928678,-4.2246394
9.032212,-13.602447,2.0790482,-0.75227183,-3.3832684,-4.3523974
7.989231,-12.947402,1.0403381999999999,-0.7613126,-2.5911682000000003,-4.2368913
7.4488306,-12.988113,0.44328165,-1.1318111000000002,-1.8336778000000002,-4.160237
6.847810000000001,-12.654582000000001,1.0604494,-1.3585818,-0.9510823,-4.045778
6.834641499999999,-12.854977,0.5743977,-1.4592,-0.1557881,-4.010644399999999
6.0812626,-13.105046000000002,0.38626134,-1.5166737,0.3972893,-4.021291000000001
4.911877,-13.386785999999999,0.29533914,-1.4586589,0.6607816999999999,-3.916414
3.7700440000000004,-13.763527999999999,-0.27089915,-1.4176786,0.7118849,-3.6449456
2.9418417999999997,-14.192656,-0.81722724,-1.5566068000000002,0.6357710999999999,-3.2584774
1.9185313000000002,-13.748157500000001,-0.8057734000000001,-1.8584266,0.5686981,-2.8506987
1.3102987,-13.668085999999999,-0.2970917,-2.1719925,0.588909,-2.5068338
-0.08775228,-13.367384,0.6004849,-2.3854287,0.7448891,-2.14857
-1.9556988000000002,-12.834204,1.8483621,-2.3401897000000003,0.8550890999999999,-1.5672708
-2.6394637000000003,-12.321396,3.5076396,-1.8855839,0.7369129,-0.8081746999999999
-2.3610182,-12.451448,4.6910169999999995,-0.869907,0.6091548000000001,-0.045343652000000005
-2.1596944,-12.915099,3.526506,0.22347195,0.48884928,0.7818725999999999
-1.9947052,-13.655529999999999,1.1904066,0.8510749,0.22640412,1.7693275000000002
-0.19719604,-13.983085999999998,-0.05457822,1.0432530999999998,0.11461577,2.8126853
2.6196493999999997,-14.329987,-0.36704072,1.0629579,0.31105259999999996,3.6308781999999997
5.192726599999999,-14.141582500000002,-0.07567593,1.1087378,0.6373593000000001,4.153080999999999
7.329273700000001,-13.6317425,0.14840218,1.328056,0.88755226,4.3825216
8.605039,-12.807264,-0.52377474,1.564932,0.95356065,4.3101080000000005
8.541822,-12.087453,-1.3800753000000001,1.6649917,0.8502895,4.13657
7.7844405,-11.510182,-1.8504688999999999,1.6453218,0.6224542,4.0849433
7.4859886,-11.255526,-1.9479033,1.5926129999999998,0.40793579999999996,4.142434
7.973046000000001,-11.091714,-1.6748877,1.5335159999999999,0.32063442,4.21696
9.232616,-11.217027,-1.5008389,1.6091063,0.38290778,4.228671
10.374028,-11.072906,-2.4192736,1.5920718999999999,0.45903903,4.0407515
9.961814,-11.143965,-3.4489722,1.2769527,0.50960124,3.848067
10.154853999999998,-10.990037,-3.5560407999999994,0.5939705,0.6730339,3.9326980000000002
12.458095,-10.583309,-1.9772946,0.16491616,1.0344741,3.9470796999999997
14.861498999999998,-9.483682,-1.3490082,-0.0070162233999999995,1.513567,3.5802987
16.187925,-8.577256,-1.4853628,-0.19490092,1.7222384999999998,2.8675237
16.495160000000002,-8.276286,-1.2455498999999999,-0.37803832,1.6312196,1.9859753
15.677845999999999,-8.166248,-0.4913668,-0.32745868,1.3453522,1.2758706
14.303564000000001,-7.865996400000001,-0.08183382,-0.05490806,1.0147868,0.7217110999999999
13.249301999999998,-7.3821573,-0.7053796999999999,0.17929767,0.87051785,0.26764625
12.654122000000001,-7.316623,-1.8814787,0.12445943,0.88596404,-0.19760618
12.374221,-8.427379,-2.414447,-0.11665781,0.7896044,-0.5867273000000001
11.423703,-9.387549,-2.0474639999999997,-0.22631684,0.48085567,-0.77623516
11.171422,-9.405602,-1.7157711,-0.1757372,-0.24041910000000002,-0.785276
12.322678999999999,-8.676338000000001,-1.4366839,-0.013386675,-1.0974629999999999,-0.9588141
13.706985999999999,-8.474947,-1.9478267,-0.07674213,-1.7857685,-1.5438484
13.609523999999999,-9.376384,-1.8942446,-0.43552947,-2.103558,-2.246518
13.112592999999999,-11.050687,-1.2023107,-0.79112285,-2.186601,-2.8272762000000005
12.079158999999999,-12.402108,-0.24160369,-0.97103137,-2.2345102000000003,-3.217462
11.105169,-12.923422,0.47185886,-1.0136174,-2.3170292000000003,-3.5038707000000002
9.732334,-12.643904,1.6698025,-0.8576548,-2.8876822,-3.996804
7.4632916,-12.234283999999999,3.3033087,-0.5164429,-3.7963529,-4.207605
6.339377,-12.201024,2.8374354999999998,-0.18001325,-3.7718657999999996,-3.9733818
6.209371599999999,-11.808778,0.6488095,-0.37643259999999995,-2.8743653,-3.7338351999999997
5.5690184,-11.415534,0.44422978,-0.9242041999999999,-2.028509,-3.6449282
5.4569792999999995,-11.269948,0.1275918,-1.3197132,-0.6795963,-3.4410562999999996
5.0105853,-11.811392,0.22490174,-1.6529490000000002,0.23865633,-3.394735
3.8510735,-12.013702,0.7226946,-1.6481668,0.6788807,-3.2041626
3.148854,-12.267277,0.4709682,-1.5289258999999997,0.7587295000000001,-2.9401292999999997
2.5155685,-12.428396000000001,0.24328920000000004,-1.5060271,0.55857515,-2.5723011000000002
2.6141807999999997,-12.169143,0.48392564,-1.5624712,0.3557679,-2.1789215
3.2756990000000004,-12.344858,0.72201467,-1.6753241,0.3115762,-2.0112302
2.6701381,-12.393834,1.2174228,-1.7929418000000001,0.43561673,-1.9350988999999998
0.8959581,-12.523992999999999,1.7465127,-1.8190345,0.62618923,-1.7280331000000002
-1.1605462,-12.185654,2.4564220000000003,-1.6587957999999998,0.7773696,-1.2191299
-1.7828853999999998,-12.573772,3.4039129999999997,-1.1429812,0.8108974,-0.6223844000000001
-2.5141895,-12.679310000000001,3.0661392000000003,-0.37376225,0.8055741999999999,0.14575244
-2.079297,-13.019247,1.7801273000000002,0.2650108,0.709232,1.0102315
-1.7414082,-13.092614999999999,0.34465012,0.5828003,0.5830621,2.0376196
0.5100799,-13.545176500000002,-0.11529517,0.6685135,0.5665688,2.9393787000000002
3.1833978,-13.846004,0.0045298296,0.7510151999999999,0.730525,3.5946800000000003
5.6361040000000004,-14.060235999999998,0.20481917,0.9287943999999999,0.8950048,3.9662259
7.386686999999999,-13.967897,-0.021078552999999996,1.1731578999999999,0.9583603,4.1482987
8.380252,-13.281087,-0.6616999,1.2993278999999998,0.99401736,4.1301993999999995
8.302143,-12.325609,-1.0961421999999998,1.2801466000000001,1.0004053,4.017869999999999
7.7931743,-11.575602,-1.2611793,1.1997743,0.99562305,3.9667842
7.570053999999999,-11.146033000000001,-0.9644419,1.1566471,0.96207786,4.028517
8.099497999999999,-10.872061,-0.8852129999999999,1.2205436,0.8886168999999999,4.085483999999999
9.064323,-10.671971000000001,-1.1150467,1.2476835,0.7507534,3.9928595999999996
9.561925,-10.284255,-1.4873068,1.2002978000000002,0.6203249,3.8038752000000002
9.794756,-10.107994,-1.6984849999999998,1.103432,0.47926742,3.5638053
10.015329,-10.12824,-1.9685606,0.98949695,0.43455207,3.3588512
10.8871155,-10.208799,-2.5231342,0.76857316,0.5612455,3.1331453
11.430551,-10.458350999999999,-3.0142233,0.38318703,0.76459384,2.8797758
12.043409,-10.542245,-2.7890917999999996,-0.042638395,0.9019338,2.7317894
13.411435999999998,-10.282962,-1.9731861000000002,-0.28698447,0.864671,2.5252470000000002
14.896063,-9.428567,-0.79388857,-0.23216370000000003,0.53888786,2.1313262
16.206476000000002,-7.964867,-0.22682668,0.13671164,0.22959806,1.4707017
16.228673999999998,-6.899189,-1.1436911,0.46783552,0.17849483,0.55936056
14.651048999999999,-6.9024644,-2.9052298,0.37838740000000004,0.4169766,-0.26520279999999996
12.999039999999999,-8.571607,-3.841851,-0.03520329,0.6336418,-0.88535315
11.384966,-9.610919,-3.499432,-0.38599703,0.5596398,-1.1280936000000001
10.848482,-9.819272,-2.7344081,-0.473822,0.026249751,-1.1924962
11.271988,-8.962742,-2.0912778000000003,-0.40409607,-0.7514515,-1.2989613000000002
12.587305,-8.403025999999999,-2.1532682999999997,-0.40358993,-1.4722202,-1.7296213
12.906633,-9.2442045,-2.3950255,-0.8044048,-1.8714640999999999,-2.4621009999999997
12.223271,-11.079102,-1.5979860000000001,-1.2962735,-1.9246967000000001,-3.0790575000000002
10.91007,-12.908023,0.2918436,-1.4623591,-2.2723139999999997,-3.5932839999999997
9.182625,-14.188192,1.2631617,-1.3346183,-2.915363,-3.9057677
8.275979,-14.315862,2.0038607,-1.1759678999999998,-3.2304997,-3.925996
7.541745,-13.705205,2.7203972000000003,-0.9279218000000001,-3.3417470000000002,-3.7529988
7.556742,-12.800236,1.6447592,-0.9028937,-2.7338313999999997,-3.6076653
7.251682799999999,-12.398076,1.4271741000000002,-1.1594746,-1.9875112000000001,-3.6300230000000004
6.1594095,-12.335205,2.121732,-1.2206832,-1.4280458999999999,-3.6545099999999997
5.8184943,-12.377717,1.6236997,-1.1999138999999999,-0.74560463,-3.4862952000000003
5.1667156,-12.640858999999999,1.2785898,-1.2345062,-0.19622737,-3.3792892
4.113277,-12.609877000000001,1.1122695,-1.2004549999999998,0.13058554,-3.2392962000000005
3.0879933999999998,-12.454944,0.6631077,-1.2574049999999999,0.26527259999999997,-3.0662818
2.6983516,-12.573964,0.7331429,-1.3947450000000001,0.38983673,-2.8240824
2.5163636,-12.66254,0.9053626,-1.5384903,0.6623874,-2.6894127999999995
0.7712777,-12.592936,1.2294226000000001,-1.6454616000000002,0.91151565,-2.5025402999999997
-0.71088636,-12.880096,1.6656556,-1.6018282,1.0030755999999998,-2.0910616
-1.5023137,-12.907352000000001,2.0138683,-1.402215,1.0153104,-1.5778998
-2.846093,-12.813969,2.1250935,-1.0998541000000002,1.0004053,-0.9577494000000001
-4.337776,-12.488836000000001,2.3949392000000005,-0.71284485,0.85561275,0.021188296000000002
-2.8489852000000004,-12.506496,2.7338812000000003,-0.07244862,0.7736346,1.0198308
-1.0394762,-12.649602,1.5728182,0.5056219,0.80663884,1.7719979
0.63952005,-13.645504,0.1822945,0.80800015,0.79279834,2.433146
1.6709613,-14.037626000000001,-0.77050203,0.81810564,0.7922748000000001,3.1634965
3.579025,-14.172782999999999,-0.8234425999999999,0.6914121999999999,0.79492766,3.8533902
6.142784,-13.753176000000002,-0.0054683564,0.6786364,0.8981988000000001,4.279792
8.295814,-13.208657,0.40299204,0.8803964,1.0238276,4.335153599999999
9.611935,-12.768115,0.0972812,1.1252661,1.1026118,4.184497
10.031830000000001,-12.049175,-0.6953431999999999,1.2317312,1.185131,3.9210043
9.591161999999999,-11.421617,-1.4048793,1.1183546999999998,1.1436095,3.6149085
8.239989999999999,-11.032164999999999,-1.5326626,0.92352355,1.0424677,3.5185663999999996
7.8106327,-10.579049000000001,-0.8393401,0.8463276,0.85348344,3.6021326
8.564548,-10.093159,-0.35896742,1.0022902,0.73265433,3.6457834000000005
9.360659,-9.3332205,-0.8591449000000001,1.187557,0.6927211999999999,3.5079198
9.693155,-9.11192,-1.8814403000000002,1.1359127,0.6762278,3.2800846
9.710365,-9.047478,-2.6521242000000003,0.8010887,0.6623874,3.0485141
10.1858635,-9.342108999999999,-2.632128,0.43270203,0.6134134,2.888293
11.2483425,-9.159814,-2.074068,0.20062560000000002,0.5213124,2.668434
12.275637,-8.568292,-2.0325336,0.050492376,0.55005795,2.3777842999999996
13.532612,-8.183392,-2.255903,-0.25663322,0.5883854000000001,1.8875213
14.324288000000001,-8.191569,-1.4195701,-0.5057615,0.54208183,1.25086
14.136832,-8.136177,-0.12931563,-0.4088783,0.44465753,0.6211278
13.192654999999998,-7.8088994000000005,0.11883859,-0.08733627,0.37014943,0.10742501
12.581022,-7.5481133,-0.75125265,0.07180285,0.28869492,-0.41369540000000005
11.913558,-8.294443,-1.5089024,-0.020821778,0.24450317,-0.9572084000000001
11.069401,-9.819034,-1.6010505,-0.15123278,0.14229669,-1.3569934
10.035642,-11.170579,-1.4720126,-0.1922131,-0.13182472,-1.4714346999999999
9.245316,-11.159412,-1.3167248,-0.17784905,-0.6385985,-1.3766809
10.088763,-9.840782,-0.8762873999999999,-0.111840695,-1.2246976,-1.4320426000000002
11.119908,-9.092767,-0.893133,-0.124599054,-1.7122901999999998,-1.8823898999999997
11.054613,-9.608066,-0.93935066,-0.34180528,-2.000828,-2.4865880000000002
9.804935,-11.326959,-0.13167152,-0.45731118,-2.7402194,-3.2563305000000002
7.864942999999999,-13.386076999999998,0.6012989000000001,-0.5254488,-3.7074633,-3.4144224999999997
7.662949,-14.013675,0.9693356,-0.59890974,-3.4583175,-3.245143
8.415293,-13.143219,0.6002838,-0.7687303000000001,-2.9254683999999997,-2.9816506
9.0013075,-11.750235,0.121529676,-1.1354938,-2.2680554,-3.2259792999999997
8.3278475,-11.298257000000001,0.34905544,-1.5661538000000002,-1.5238644,-3.5932839999999997
6.891106599999999,-11.735419,0.9136274,-1.889284,-0.88933253,-3.8440177
6.439071,-12.162516,1.3478878,-1.9712447,-0.11426671,-3.7433996
6.2442985,-12.36608,1.7884494,-1.8983248,0.57560956,-3.7631044
5.328286,-12.046944,1.8690288000000002,-1.59277,1.0834655,-3.8152550000000005
4.4694767,-12.3466015,1.0942938,-1.2925385,1.2633915,-3.841871
3.4804988,-12.7627325,0.64332205,-1.1248473,1.0759954,-3.7822506000000002
1.9812113999999998,-13.449619,0.327115,-0.97207856,0.78162825,-3.4990535000000005
-0.15937722,-12.9699745,-0.013206416,-1.0120118,0.42709953,-2.8842263
-1.0662049999999998,-11.907457,0.589893,-1.0838493999999999,0.18010053,-2.1389709
-1.1381940000000002,-11.413226,1.3775853,-0.9912423,0.2237512,-1.5289258999999997
-1.3874495,-11.398708000000001,1.5988193000000002,-0.7516959,0.35842082,-0.92579246
-2.208565,-11.182818,1.3371617,-0.56855845,0.38770744,-0.18320721
-1.9863064,-11.209939,1.7800124,-0.28112018,0.37013197,0.61526346
-0.81036067,-11.823459,1.7701482,0.2032785,0.31796408,1.3961761000000001
0.6502939,-12.6271925,1.0091656,0.68078315,0.22640412,2.080764
2.1466602999999997,-14.064613,-0.2868158,0.9607863000000001,0.14018485,2.772787
3.2101072999999998,-14.144225,-1.2979733999999998,0.8596444999999999,0.14922565,3.4669394000000002
4.6364193,-13.460814000000001,-1.0940161,0.61103976,0.31796408,3.9891419999999997
6.049621,-12.924839,-0.3182373,0.47637016,0.54262286,4.3410177
7.5241427,-12.356313,0.44595358,0.54717815,0.730525,4.495916
9.130882000000001,-12.15812,0.51805735,0.7196516,0.92003286,4.385733
9.85937,-11.843733,0.09843999,0.7941772,1.0557846000000002,4.0482388
9.308646000000001,-11.544561999999999,-0.35847902,0.7616966,1.0770776000000002,3.717656
8.312917,-10.718937,-0.49080175,0.64830256,0.9828473,3.5324068
7.781778,-10.114564,-0.13673764,0.60945153,0.8737118,3.4466937000000004
8.036732,-9.981935,0.18901744,0.7196342,0.83857834,3.4057133
8.632524499999999,-10.291495,0.24405535,0.9192648999999999,0.907257,3.3445046
8.914082,-10.290184,-0.27757415,1.0747038999999998,1.0035992,3.2795608
9.279036,-10.108991,-1.0826963,1.0959969999999999,1.0600432,3.1805484
9.815059,-9.81208,-1.8237497,0.9735620999999999,1.0318213,3.0362793999999997
10.473483,-9.665737,-2.4076570999999998,0.7286924,0.89661056,2.803662
10.870576,-9.294847,-2.383083,0.42687264,0.63470644,2.5513396
11.603049,-8.85191,-1.7790258999999997,0.22937118,0.3403392,2.2873063
13.152834,-8.296588999999999,-1.1532198999999999,0.17453292,0.15083136,1.9066849
14.40821,-7.692531599999999,-0.901733,0.17985618,0.13964379,1.2008214
14.347138000000001,-7.720725999999999,-1.0714436,0.15378097,0.27272514,0.336866
12.967006,-8.066947,-1.5027733,0.07127925,0.48726103,-0.34768704
11.768248,-8.170127,-2.159455,-0.107041046,0.6437647,-0.77408844
11.332753,-8.485338,-2.151918,-0.3976907,0.6911329,-1.2281532
11.111365,-9.907092,-1.556346,-0.5206492,0.5809503,-1.7375975
10.050246000000001,-11.526808,-1.1414213,-0.41472512,0.37386698,-2.0356996
8.304375,-11.941875999999999,-1.3481176000000001,-0.2417281,0.035831608,-2.0069542
7.899783,-10.586594999999999,-1.7015017,-0.20872392,-0.43579125,-1.8733316999999998
9.045782,-9.195333999999999,-1.4740621,-0.3034604,-0.8696278000000001,-2.1538758
9.178450999999999,-9.783847999999999,-1.1421587,-0.45572293,-1.1725297,-2.8395112
7.4013205,-11.497599000000001,-0.73566157,-0.56217057,-1.6643808999999998,-3.5421805
4.852989,-14.212009,0.14349887,-0.63137287,-2.7178617000000003,-3.7662809999999998
4.415329,-16.519320999999998,0.0769688,-0.8006523,-2.64653,-3.3904589999999994
4.319954,-15.999032000000001,0.24170902,-1.2600579,-2.1658313,-3.1855226
3.6603897000000005,-14.443423999999998,1.8960737,-1.6390561999999997,-1.5174590000000001,-3.1024623
3.7762019999999996,-13.057766,3.0459032,-1.7609674,-0.67692596,-3.1461132000000003
3.2694836,-12.65259,4.0900626,-1.5964875,0.026790803,-3.2153327000000003
2.5765727000000003,-11.941311,4.8283005,-0.9316044,0.4159294,-3.0423183
2.0386436000000003,-11.575649,3.8325422,-0.009616764,0.59105575,-2.894873
1.1050868999999999,-11.778217,1.6339371999999999,0.6738542,0.36267942,-2.6681022999999997
-0.055440135,-11.743061,-0.52646583,0.8388924999999999,-0.09615019,-2.1937916
0.74327517,-11.196437,-1.3966336000000001,0.55091316,-0.39638174,-1.6343088
2.142887,-9.966994999999999,-0.92834693,0.1303761,-0.17866935,-1.4597061000000002
0.6637014,-9.893263000000001,-0.951676,-0.20818287,0.30094713,-1.4011678
-1.1443901,-10.595933,-1.3966815000000001,-0.7474198000000001,0.61660737,-0.94069755
-1.7182993999999998,-10.536192,0.1426178,-1.2951914,0.7044498,-0.33651695
-1.8724095,-10.256271,2.4972098,-1.2142779,0.7454301,0.06270968
-1.9968696,-10.208541,3.3098402,-0.6750060999999999,0.82262605,0.48007026
-1.5379586,-10.900886999999999,2.264752,-0.13418092,0.86734134,0.9085834999999999
-1.0829262,-12.239619,0.36316207,0.05211553,0.98923516,1.3456139999999999
-0.7762001999999999,-15.872724,-2.2897666,-0.16557938,1.157991,1.8252479
-0.7058585,-18.838737,-4.3081264,-1.0620154,0.89661056,2.7046494
2.111475,-19.823435,-2.6418962,-2.0351062,0.5649805,3.6814754
4.869921,-18.727167,0.5787456,-2.4615076,0.4558451,4.2765975
6.181886,-16.78913,3.4578497,-2.2294137000000003,0.7470358,4.4895453000000005
7.3611645999999995,-15.347254000000001,5.0314817000000005,-1.4282553,1.1287044,4.459735
8.382406,-15.148315,4.5460625,-0.38969709999999996,1.4167011999999999,4.279808999999999
8.298667,-15.054414999999999,2.3207572,0.41572,1.5290131999999999,4.1531157
7.727917999999999,-13.867320999999999,0.19441876,0.60308105,1.5689461999999998,4.091366000000001
7.0874690000000005,-12.598424000000001,-0.88345087,0.45190066,1.5966272,4.0791135
7.2508016,-11.694967,-0.9350411,0.26825709999999997,1.4944208,4.173867700000001
8.607978999999998,-11.093304,-0.759096,0.18893189999999999,1.5087848,4.172803
9.980105,-10.706064999999999,-0.9428654000000001,0.10056587,1.6179202,3.9481616
10.828256,-9.926446,-1.6211427,-0.13789846,1.6967043999999998,3.580857
11.359921,-9.066774,-2.3580685000000003,-0.5616295,1.4512936,3.1145400000000003
11.706391,-8.308062,-1.5923549,-0.9512917,0.8497659,2.7637462999999998
12.731685,-7.6622977,0.34560782,-1.0002655999999999,0.28497735,2.6759037999999995
4.29199,-11.056711,-0.0889015,-0.98850214,0.75110245,-3.4814432
3.9479046,-11.382715,-0.5805077,-0.7963239000000001,0.5642475,-3.223274
2.9205525000000003,-11.6802,-1.3001951999999999,-0.69785243,0.29489082,-2.9363593999999997
1.9354726000000002,-12.04747,-2.0642807,-0.8474271999999999,-0.04576253,-2.4780185
1.5748483999999998,-12.232349000000001,-2.1134002,-1.1636459,-0.15543902,-2.001055
0.90035397,-12.013395,-1.7573153000000001,-1.5506377,-0.059079394,-1.5177034
-0.27800512,-11.541105,-0.9095476999999998,-1.8476578999999997,0.122958444,-0.9470506
-0.5858229,-11.01827,0.7186149000000001,-1.8098716000000001,0.24165829,-0.34285247
-0.28822356,-12.053752000000001,1.8133876,-1.2509298,0.3209835,0.25492278
-0.5662383000000001,-12.714494,1.2952057,-0.48172832,0.1351932,1.0459584000000002
0.6664213000000001,-12.9604845,-0.11255621,0.09744173,-0.23207644,1.9562523
3.5036843,-13.029906,-1.0448201,0.4327893,-0.37154570000000003,2.691385
6.148817500000001,-13.24935,-1.9182535,0.56482345,-0.24965189999999998,3.1752599999999997
7.931636,-12.703606,-2.19125,0.5829225,0.0042586033,3.517013
9.224955,-11.287981,-1.8490707,0.6984284000000001,0.31353095,3.6681932999999995
9.446639,-9.483854,-1.9960746999999999,0.99120736,0.6292085999999999,3.6500943
9.293659,-7.7781773,-3.4206917000000003,1.0971488999999999,0.8261690999999999,3.5260712999999995
8.816906,-6.3268023,-4.875897,0.8559966999999998,0.87088436,3.2774665
7.8307443,-5.5409393,-5.113287000000001,0.3800978,0.7755894,3.0895642999999997
7.6624794000000005,-5.319475700000001,-3.8284337999999996,0.09850638,0.7010639,3.0315323
7.931780000000001,-5.8768554,-3.8076712999999995,0.04314454,0.6590189000000001,2.9969397
8.077873,-6.841728,-4.010317,-0.12718214,0.5190085999999999,3.0203621
8.341907,-7.3587995,-3.5957364999999997,-0.25813420000000004,0.2949083,3.1518377999999996
9.618944,-7.6324277,-2.738641,-0.22458896,0.007976155,3.2615142
11.131391,-7.087650999999999,-1.8901361,-0.02125811,-0.20493656,3.3157940000000004
14.050325,-6.1826620000000005,-1.7005441000000003,0.28480282,-0.26668632,3.1869712000000003
17.227785,-5.208605,-2.4732773,0.40512583,-0.047368235999999994,2.7185422999999997
19.046745,-4.395333,-2.7940717,0.28323203,0.36943385,1.7603564999999999
17.739723,-4.023935,-2.1838567,0.28269097,0.76335466,0.6728069999999999
14.7093525,-4.6382294,-2.3810816000000004,0.45462337,0.8602379000000001,-0.0543321
12.916555,-5.5821004,-3.4141510000000004,0.5605474,0.6898936999999999,-0.38278562
13.030127,-7.841728999999999,-4.835703,0.47326347,0.39125046,-0.59198076
12.831714999999999,-8.975614,-5.196079,0.25501007,-0.0675966,-0.6164677
