accx,accy,accz,gyrx,gyry,gyrz
8.707458500000001,-9.095688,-1.1571045,-0.27587890000000004,-0.62931824,2.8375244
8.748154,-9.047806,-0.7022095,-0.06388855,-0.6005554,2.5232697
8.882233,-9.016678,-0.39575195,0.15875244,-0.56007385,2.0321808
8.659576,-8.726974499999999,0.025634766,0.36116028,-0.6399689000000001,1.3887633999999998
8.506348,-8.585724,0.6983948,0.5060272,-0.81892395,0.6175232
8.697875999999999,-8.624023,1.4429931999999999,0.67541504,-1.0703278,-0.181427
9.037857,-8.942459,1.9170532,0.900177,-1.2855072,-0.86746216
9.351500999999999,-9.332718,2.0439453000000003,1.0333405,-1.234375,-1.3841094999999999
9.775269,-9.277649,2.0056305,1.0184174000000001,-0.92118835,-1.7889099
10.218200999999999,-8.382217,2.1325226,0.98539734,-0.62931824,-2.218216
11.094482000000001,-7.510727,2.1325226,1.0695496000000002,-0.5259857,-2.694397
12.281998,-6.955261,2.0606994999999997,1.2559813999999998,-0.5430298000000001,-3.1151732999999995
13.445587,-6.270523000000001,2.0678864,1.409378,-0.70921326,-3.4113160000000002
14.417632999999999,-5.4948120000000005,2.2498473999999997,1.3997955,-0.9840393,-3.5892181000000005
15.056885000000001,-4.862732,2.4413757,1.2368011,-1.3451691000000001,-3.6424712999999995
15.667404000000001,-4.941742,2.319275,1.0375976999999998,-1.7393188000000002,-3.5860138
16.443115,-6.5482483,2.3504028,0.9555664,-2.1004486,-3.447525
16.625076,-8.573746,2.6017914,1.0280151,-2.3070984,-3.2813567999999997
15.954711999999999,-9.959991,2.5108185,1.1281433,-2.2634277000000003,-3.1822814999999998
14.252426000000002,-9.526641999999999,2.288147,1.1270752,-1.9459839,-3.1833496
12.712952,-8.324753,2.2689972000000003,0.947052,-1.4272003,-3.2099762000000003
12.243698,-8.501923,2.470108,0.60191345,-0.83917236,-3.222763
11.999481,-9.727753,2.4868773999999996,0.20243835,-0.3331604,-3.2003937000000002
11.465575999999999,-10.865005499999999,2.0894318,-0.13313293,0.06311035,-3.113037
11.118423,-12.160263,1.3065338,-0.35896300000000003,0.35499573,-2.952179
10.515075999999999,-12.955138999999999,0.66249084,-0.45803833,0.51797485,-2.7029113999999996
9.511902000000001,-12.799515,0.62657166,-0.49745178,0.5286255,-2.4131622000000004
8.446487,-12.011826,1.3256836,-0.52726746,0.49348450000000005,-2.0839996
7.6970979999999996,-11.061325,2.4126434,-0.54112244,0.40612793,-1.6206055
7.524719,-10.264053,2.9106445,-0.5592345999999999,0.2793579,-0.99316406
7.689926,-9.821121,2.7047423999999998,-0.59651184,0.13554382,-0.28689575
7.505569500000001,-9.440445,1.9673308999999997,-0.6380615,0.006652831999999999,0.41404724
7.167984,-9.299194,1.0048523,-0.69558716,0.018371582,1.0169983
6.794494599999999,-9.268066000000001,0.32011414,-0.7595062,0.13128662,1.5666656
6.389862,-9.459610000000001,0.16688538,-0.7637634,0.21543884,2.1333922999999997
5.8272247,-9.706207000000001,0.2889862,-0.6412505999999999,0.19839478,2.6660156
4.903076,-9.541,0.5906677,-0.42927550000000003,0.15791321,3.0963898
4.168044999999999,-9.313553,0.7295227,-0.22686768,0.17602539,3.3637695
3.8735657,-9.742125999999999,0.5738983,-0.10223389,0.29853820000000003,3.4234161
3.3779602,-10.30954,0.43025208,-0.058563232,0.48921204,3.2998505
2.5184479,-10.419678,0.31054688,-0.12034607,0.6841583000000001,3.0804138
1.7953949,-10.041397,0.2554779,-0.32913208,0.84288025,2.878006
1.7379303,-9.801971,0.37757874,-0.6785431,0.96539307,2.7757416
2.7075806,-10.434036,0.43025208,-1.1366119,1.188034,2.7555084
3.5407714999999995,-10.836273,0.41349792,-1.5403441999999998,1.4554138,2.766159
3.6389312999999994,-10.352646,0.6098175,-1.7470093,1.6674042000000002,2.7842712000000005
3.9046936000000003,-9.416504,1.165268,-1.8439484,1.8282471000000002,2.8055725
4.848007,-9.074142,1.5124358999999998,-2.000534,1.8847198,2.7704162999999995
6.44014,-9.323135,1.3592072,-2.2317047000000003,1.7409058000000002,2.7672272
8.207061999999999,-9.677475,0.916275,-2.2902832,1.3776398,2.8162230999999998
9.667525999999999,-9.943237,0.5236206,-1.9866791000000001,0.8801726999999999,2.848175
10.541412,-10.103638,0.087875366,-1.4125061,0.36778259999999996,2.7704162999999995
10.373825,-9.744507,-0.5202484,-0.79785156,-0.048736572,2.5136871
9.468811,-9.138779,-1.0709076000000002,-0.3078308,-0.2554016,2.145111
8.590133999999999,-8.662338,-1.3199158000000002,0.021331787,-0.24261475,1.8244629
8.02272,-8.262497,-0.9248656999999999,0.23757935,-0.27244568,1.5123444
7.922165,-8.003921499999999,0.078308105,0.39950562,-0.5068054,1.0372314
8.254959,-8.116455,0.68403625,0.56248474,-0.8998870999999999,0.33842468
9.001938,-8.434891,0.56910706,0.7712859999999999,-1.1555481,-0.45307922
9.24855,-8.681488,0.32250977,0.9694214,-1.0831146,-1.1795806999999998
9.40657,-8.741348,1.0192261,1.0610351999999998,-0.79122925,-1.786789
10.07933,-8.633606,2.5706634999999998,1.0791473,-0.54196167,-2.3822632
10.98674,-7.805206299999999,3.830017,1.1515808,-0.57284546,-2.9394072999999996
12.147919,-6.9002075,4.062256,1.312439,-0.7805786,-3.3889465
13.3641815,-6.495575,3.5570831,1.4541168,-1.0362396,-3.653122
13.713729999999998,-6.1460266,2.925003,1.47435,-1.3664703,-3.7564545
13.831055,-5.7868958,2.4198303,1.3688965,-1.7105560000000002,-3.746872
14.697754000000002,-5.6815489999999995,2.173233,1.1973877,-1.9917908,-3.653122
16.330597,-6.639236500000001,2.1037903,1.0674286,-2.1664886,-3.5114440000000005
17.92752,-8.652756,2.4246216,1.0258789000000001,-2.1803284,-3.3548584000000004
17.889221,-9.742125999999999,2.8124847,0.9928589,-1.9236145,-3.1876067999999997
15.983429000000001,-9.126816,2.7526245,0.88739014,-1.457016,-3.0193024
14.135117000000001,-8.140396,2.3719482000000003,0.7212219,-0.9254608,-2.8936005000000002
12.981110000000001,-8.166733,2.1349182,0.5283966,-0.43544006,-2.7796173
12.521423,-9.646347,2.0343628000000002,0.35902405,-0.07005310000000001,-2.633667
11.860626,-11.068512,1.7805786,0.24078369,0.13554382,-2.4632263
11.211791999999999,-12.354187,1.3184966999999999,0.17367554,0.16004944,-2.2480469
10.522263,-13.201735999999999,1.0910492,0.15449524,0.0002593994,-2.0158234
9.535843,-13.177795000000001,1.1317443999999999,0.13638306,-0.18083191,-1.8262023999999997
8.506348,-12.452361999999999,1.5172119,0.033050537000000005,-0.21812439,-1.644043
7.788086,-11.408478,2.1205597000000003,-0.19491577,-0.19361877,-1.3244628999999999
7.1943207,-10.520233000000001,2.43898,-0.54537964,-0.16804504,-0.8291168
6.5095825,-9.591277999999999,2.2666016,-0.9011841,-0.17550659,-0.21765137
5.9756775,-8.695847,1.9433898999999997,-1.1451263,-0.12863159,0.31391907
5.5614777,-8.164337,1.5291901,-1.3443298000000001,0.20478821,0.6121979000000001
5.183197,-8.023087,1.1748505,-1.5414124,0.7342224,0.8998108
4.891098,-8.0159,0.9785155999999999,-1.4625702,1.1294403,1.41008
4.5104218000000005,-7.989563,0.91148376,-0.8607024999999999,1.0985413,2.1483002
4.3595885999999995,-8.190674000000001,0.8372649999999999,-0.024475097999999997,0.6958771,2.8385925
4.764206,-8.736557000000001,0.75346375,0.6306609999999999,0.24526978,3.2391357000000003
5.0634765999999996,-9.541,0.4517975,1.0035094999999998,-0.0039978027,3.3722839999999996
4.4194336,-9.976746,0.17646789999999998,1.0727539,-0.037017822,3.337143
3.4928894,-10.254471,-0.058166504,0.90870667,0.03327942,3.2114409999999998
2.839264,-10.244904,0.22434998,0.6764679,0.0013275146,3.1315459999999997
3.3947296000000002,-10.347855000000001,1.0766907,0.5688781999999999,-0.23196411,3.1571045
5.1352997,-11.209763,1.644104,0.54011536,-0.30760193,3.2050476000000003
5.2143097,-11.362991000000001,1.8069153000000002,0.40803528,0.015167236,3.2082367
3.6844177000000005,-10.575302,2.5634918,0.0650177,0.6490021,3.1102295
2.4537964,-9.648743,4.016769399999999,-0.4005127,1.3190613000000002,2.9302063
2.863205,-9.16272,4.1316833,-0.8266144,1.7877808000000002,2.7640228
4.8719482,-9.145966,2.3934937,-1.1078491000000001,1.9486237000000002,2.6106262000000005
7.05307,-9.363831,0.64572144,-1.2111816,1.8484955,2.4593658
8.649994,-9.754089,-0.8123474,-1.1302185,1.5821838,2.3272705
9.667525999999999,-10.029419,-1.870575,-0.8607024999999999,1.2231903,2.2132874
9.502335,-9.722961,-2.1195679,-0.5123595999999999,0.8290405000000001,2.1014252
8.671539,-9.394958500000001,-1.6694641,-0.23112488,0.39759827,1.8713379
8.262131,-8.920914,-0.9224701,-0.006362915,0.026885986,1.5677338
8.482407,-8.657547000000001,-0.637558,0.20455933,-0.31185913,1.253479
9.224609,-8.537842,-0.8937378,0.35583496,-0.66552734,0.89341736
9.83992,-8.255325,-1.1762542999999999,0.42507935,-1.0554199,0.45878599999999997
9.827942,-7.9512634,-0.97753906,0.4453125,-1.3632812,-0.034423828
9.789642,-7.991958599999999,-0.38856506,0.44424438,-1.4815216,-0.5766449
9.950042999999999,-8.195464999999999,0.2674408,0.42826843,-1.3164062,-1.16893
10.117645,-8.281661999999999,0.90190125,0.38459778,-0.9052124,-1.7718658
10.282836999999999,-7.934494,1.5986176,0.29937744,-0.47697449999999997,-2.3215485
10.323547,-7.230606,1.9529572,0.26101685,-0.24261475,-2.8296813999999997
10.998702999999999,-6.660782000000001,1.6153870000000001,0.31214905,-0.26818848,-3.271759
11.652328500000001,-6.387848,1.2610321000000002,0.41229248,-0.5515441999999999,-3.6328888
12.011459,-6.256164599999999,1.244278,0.45170593,-0.929718,-3.9300995000000003
12.471146000000001,-6.399811,1.1485138000000001,0.34091187,-1.2077483999999998,-4.0952150000000005
13.215744,-6.873871,1.0383759,0.13319397,-1.3398438,-4.049408000000001
14.204544,-8.051819,1.0934448,-0.025527954,-1.3888397,-3.823578
15.109557999999998,-9.248917,1.347229,-0.01914978,-1.4836578,-3.5029296999999997
15.691345000000002,-10.208984,1.5986176,0.14810179999999998,-1.6562195,-3.2014617999999997
15.243622,-9.926468,1.8236694,0.31002808,-1.7201384999999998,-3.0011902000000004
13.7161255,-8.865845,1.7949523999999997,0.34518433,-1.4506226,-2.857376
12.466353999999999,-8.422913000000001,1.7686157,0.3238678,-1.0106812,-2.6730804
11.75528,-8.992737,1.8045197,0.34944153,-0.65701294,-2.4472504
11.422485,-10.031815,1.7015686,0.37393188,-0.4503479,-2.2214202999999997
11.5733185,-11.427643,1.37117,0.35263062,-0.36938477,-2.0190125
11.448822,-12.940764999999999,0.92585754,0.28126526,-0.34169006,-1.8538971000000002
10.3403015,-13.680588,0.8085326999999999,0.20243835,-0.31825256,-1.6802521000000001
8.664368,-13.218506,1.2897644,0.12998962,-0.3203888,-1.4533539
7.0698240000000006,-11.896896,2.0726776,0.017074585,-0.30227659999999995,-1.2179413000000001
6.1025696,-10.30954,2.9178314,-0.18745422,-0.16485596,-0.9846344000000001
5.997223,-9.059769000000001,3.1261292000000003,-0.41009520000000005,0.04499817,-0.7055359
6.298889,-9.023864999999999,2.69516,-0.5592345999999999,0.26338196,-0.34654236
5.9373627,-8.932877000000001,2.3695526,-0.62101746,0.44554138,0.08807373
5.2095337,-8.262497,2.319275,-0.6423187,0.61172485,0.53868103
4.733078,-7.738174400000001,2.0559081999999997,-0.708374,0.8269042999999999,0.99568176
4.7067413,-7.4772034,1.5483398000000002,-0.8031769,1.0026703000000001,1.5016937
4.924621599999999,-7.539459,1.0527496,-0.7637634,1.0325011999999998,2.0343169999999997
4.879135,-7.4772034,0.8013458000000001,-0.5304718,0.91851807,2.5413818
4.527176,-7.4652405,0.75346375,-0.20130920000000002,0.7161255,2.907837
4.673233,-7.843521000000001,0.6241760000000001,0.08418274,0.549942,3.0569763
5.0778503,-8.619232,0.24589539,0.23332214,0.5222473,3.0431213
4.9605255,-8.918517999999999,0.15969849,0.21095276,0.61172485,2.8854675
4.5223846,-8.959213,0.47813416,0.0032348633000000003,0.758728,2.6596222000000003
4.1297455,-9.028641,0.8348694,-0.3578949,0.85780334,2.482788
4.2757874000000005,-9.416504,0.9617614999999999,-0.8266144,0.94514465,2.4018402
4.7187195,-10.055756,0.66249084,-1.3539124,1.0974883999999998,2.3847961
4.946167,-10.455597000000001,0.26983643,-1.8269043000000003,1.313736,2.368805
5.1496735000000005,-10.127578999999999,0.49967957,-2.1613922000000003,1.6013488999999999,2.3784027
5.2526245000000005,-9.057373,1.1078033,-2.3382263,1.8346405,2.4487
5.9445496,-8.0829315,1.3879242,-2.3467407000000002,1.8644714,2.5541687
7.414581299999999,-7.656769000000001,1.1245728000000002,-2.1986694,1.713211,2.6436462000000005
8.748154,-7.6088867,0.4733429,-1.8684386999999998,1.3691254,2.6564330000000003
9.945250999999999,-7.922530999999999,-0.28800964,-1.3262177,0.8311615,2.592514
10.663513,-8.401367,-1.1259766000000002,-0.79571533,0.29960632,2.4401855
10.455231,-8.516281,-1.7700195,-0.6551056,-0.057266235,2.2047577
9.868637,-8.707825,-2.0740814,-0.8873290999999999,-0.11479187,1.9736023
9.167145,-8.770081,-2.0405578999999996,-1.0492553999999998,0.095062256,1.8031616000000001
8.726608,-8.509109500000001,-1.3749847,-0.8575134,0.23143005,1.60289
8.345932000000001,-8.272079,-0.29519653,-0.4090271,0.1259613,1.267334
7.859909,-8.145187,0.65530396,0.12466431,-0.14248657,0.73043823
7.6683655,-8.15715,1.4597626,0.65623474,-0.3842926,0.047607422
8.029892,-8.533050999999999,1.9816895,1.0780792,-0.46739197,-0.59687805
9.030669999999999,-8.731766,2.4581451000000003,1.2463837,-0.44821167,-1.04216
10.208618,-8.3510895,3.0399323,1.2208252,-0.38856506,-1.3265839
11.135178,-7.2832794000000005,3.0638732999999996,1.2144318,-0.3842926,-1.5897063999999999
11.743300999999999,-6.181946,1.7733917000000001,1.2921906,-0.6165314000000001,-1.9199370999999998
12.246094,-5.7701416,0.44221497,1.3795471000000001,-0.9520874,-2.2949219
12.8302765,-6.0191345,0.91148376,1.488205,-1.2993622,-2.6176909999999998
13.354598999999999,-5.944916,2.611374,1.5883483999999999,-1.7073517,-2.886139
13.802322,-5.3200226,3.7845306000000005,1.5681,-2.1206818,-3.1322174
14.458328,-4.9345550000000005,4.0455017,1.376358,-2.4083099999999997,-3.3164977999999996
15.23645,-5.3104553,3.9114226999999997,1.1100311,-2.4658203,-3.4091796999999997
15.514175,-6.450088500000001,3.4086304,0.947052,-2.2495727999999997,-3.4326171999999997
14.90126,-7.728592,2.1923828,0.9427948,-1.9640808,-3.3740233999999996
14.317078,-8.904144,1.0240173000000001,0.9513091999999999,-1.6338501,-3.2898712
13.649094,-8.817963,0.7678375,0.85543823,-1.2077483999999998,-3.238739
12.9021,-7.8866119999999995,1.0120392,0.69885254,-0.7539520000000001,-3.2312775
12.621979,-8.008713,1.0024719000000002,0.52734375,-0.36192322,-3.2057189999999998
12.188628999999999,-8.626419,1.1461181999999999,0.33665466,-0.055130005,-3.10878
11.851044,-9.514664,1.3184966999999999,0.16088867,0.10040283,-2.952179
11.965958,-10.874573,1.189209,0.06074524,0.09187317,-2.7412567
11.949203500000001,-12.184204,0.9521941999999999,0.040512085,-0.008255005,-2.4664307
11.506271,-12.890488000000001,1.110199,0.06288147,-0.13290405,-2.1511077999999997
10.790405,-12.751633,1.7757874,0.042648315,-0.21066284,-1.8144836
9.437683,-11.676636,2.6353150000000003,-0.08518982,-0.2000122,-1.468277
8.254959,-10.386154,2.829239,-0.3078308,-0.11691284,-1.0688018999999997
7.6516113,-9.608047500000001,2.367157,-0.534729,0.019439697,-0.5755768
7.390640299999999,-9.217789,1.8260651,-0.6572418000000001,0.15153503,0.003921509
7.041092,-9.167511,1.3400421,-0.628479,0.28042603,0.56851196
6.409027,-9.220184,0.8588104,-0.55070496,0.39866638,1.060669
5.8392029999999995,-9.215392999999999,0.5308075,-0.5251465,0.51904297,1.5379028000000001
5.4417725,-9.318344,0.5715026999999999,-0.43566895,0.50413513,2.0737305
5.0706635,-9.536224,0.8348694,-0.19064331,0.34007263,2.5946502999999996
4.6492767,-9.507492,1.0790863000000002,0.099105835,0.17816162,3.02182
4.318878,-9.430878,1.0024719000000002,0.30895996,0.06097412,3.277481
4.0339813,-9.485947,0.61221313,0.32279968,0.07908630000000001,3.3051758
3.6173858999999995,-9.507492,0.27941895,0.06288147,0.3496704,3.1400604
2.9326477000000004,-9.155533,0.32250977,-0.39944458,0.7672576999999999,2.9621582
2.3700104,-8.760498,0.7678375,-0.8180847,1.0740508999999998,2.8982544
2.6884308,-9.011887,1.4238434,-1.013031,1.2221222,2.9461823
3.3659972999999996,-9.325531,1.5627136000000001,-1.0918579,1.3030853,2.9930573
3.6844177000000005,-9.406937,1.1149902,-1.1983948,1.410675,3.0324707
3.4785156,-8.88739,1.0288085999999999,-1.3113098,1.5438232,3.0985107000000003
4.0339813,-8.74852,1.3400421,-1.3453979999999999,1.5928345,3.2242126
5.3124847,-9.208206,1.2466736,-1.2676392,1.4575348,3.3669586000000002
6.732239,-9.382996,0.8157196,-1.0886688,1.1528778,3.4553833
8.214249,-9.459610000000001,0.13815308,-0.87561035,0.79174805,3.4905396
9.487961,-9.780426,-0.69262695,-0.6519165,0.49241638,3.4702911
9.736969,-9.756485000000001,-1.3582153000000001,-0.47294617,0.29960632,3.3573760000000004
9.04744,-9.483551,-1.1283722,-0.41755676,0.21331787,3.0985107000000003
8.295653999999999,-9.239334,-0.024642944,-0.36003113,0.17602539,2.7267456
8.175949000000001,-9.248917,0.56910706,-0.14697266,0.019439697,2.2228699
8.290863,-9.311157000000001,0.5595398,0.23225403,-0.32783508,1.5655975
8.398605,-9.440445,0.5906677,0.63705444,-0.8317108,0.8348235999999999
8.448883,-9.5529785,0.9042969000000001,0.8586273000000001,-1.2439728,0.04121399
8.7864685,-9.718169999999999,1.1724548000000001,0.80856323,-1.3132172,-0.81951904
9.590912,-9.703812,1.3927155,0.6264038000000001,-1.0628662,-1.5268555
10.397766,-9.533828999999999,1.3807526,0.44850159999999994,-0.71772766,-2.0871887
11.094482000000001,-9.114838,1.3328705,0.375,-0.47804259999999993,-2.6038360000000003
11.748092999999999,-8.288834,1.3568115,0.41868590000000006,-0.41305542,-3.0853424
12.619583,-7.4053802,1.0192261,0.5017699999999999,-0.48229979999999995,-3.4965363
13.500641,-6.976822,1.0958405,0.5699463,-0.66978455,-3.793747
14.36496,-6.438125599999999,1.7805786,0.6125641,-0.99468994,-3.986557
15.499801999999999,-6.450088500000001,2.446167,0.60617065,-1.390976,-4.0941467000000005
16.256378,-6.6152954,2.6448822,0.56248474,-1.7329254,-4.0930786
16.838165,-7.5729675,2.1229553,0.51242065,-1.8841858,-3.9524689
17.563614,-9.0047,1.2346953999999999,0.48472595,-1.7819214,-3.6957397000000003
16.421570000000003,-9.356659,0.95936584,0.54011536,-1.5582274999999999,-3.3878784
14.633102,-9.086105,1.2059784,0.6029663000000001,-1.3526306000000001,-3.076828
13.313904,-8.762894000000001,1.5507355,0.5390625,-1.0777893,-2.8605652000000004
12.535782000000001,-8.995132,1.8763428,0.4176178,-0.7187958000000001,-2.793457
12.068909,-9.916901,1.9026793999999998,0.3473053,-0.41625977,-2.7721557999999997
11.621201,-11.121185,1.6848145,0.33132935,-0.24475098,-2.7348632999999998
11.345871,-12.399689,1.5698853000000002,0.2695465,-0.09667969,-2.5942534999999998
11.137573,-13.412429999999999,1.5172119,0.14170837,0.031158447000000002,-2.3641509999999997
10.649155,-13.991821,1.5507355,0.008560181,0.06097412,-2.0744019000000002
9.636414,-13.714096,1.8452301,-0.11608887,0.018371582,-1.7494965
8.35791,-12.890488000000001,2.2115326,-0.23432922,-0.017852783,-1.4075469999999999
7.081786999999999,-11.765213000000001,2.8388214,-0.36109924,-0.039154053,-0.99742126
5.985244799999999,-10.314331,3.0159912,-0.49638367,-0.041290283,-0.51911926
5.657242,-9.524246,2.367157,-0.5954437,-0.018920898000000002,0.035888672
5.887085,-9.174698,1.936203,-0.62101746,0.006652831999999999,0.59620667
5.6285095,-8.736557000000001,1.8787383999999998,-0.6465911999999999,0.12277222,1.0361633
5.2981110000000005,-8.568954,1.7829741999999997,-0.7776184,0.46897888,1.4377746999999999
4.644500700000001,-8.595291,1.3400421,-1.0023804,0.87164307,2.048172
3.8089142,-8.339111,0.7486725000000001,-1.1664276000000002,0.9536743000000001,2.8875884999999997
3.1457214,-7.8937990000000005,0.5164489999999999,-1.1983948,0.66285706,3.5874786
2.9446106,-7.972809,0.40151978,-1.1131744,0.294281,3.752594
3.0475616000000003,-8.377426,0.33448792,-0.91822815,0.16751099,3.3222197999999996
2.8727875,-8.633606,0.35603333,-0.7531128,0.18881226,2.733139
2.8296967,-9.06456,0.39433290000000004,-0.7073059,0.31237793,2.4220734
2.7650452000000003,-9.306381,0.6217804,-0.70410156,0.46044922,2.4710693
3.014038,-9.354263000000001,1.031189,-0.6817321999999999,0.51052856,2.6457825
4.1441040000000005,-9.821121,1.1245728000000002,-0.677475,0.5265045,2.82901
5.0467224,-10.580093,0.6600951999999999,-0.7360687,0.53715515,2.9770813
4.491272,-10.967957,0.119003296,-0.87135315,0.6522064000000001,3.0250092
3.2534637,-10.541779,0.013656616000000002,-1.029007,0.94621277,2.9941254
3.9573669999999996,-10.405319,0.066329956,-1.155777,1.3062744,2.9163513
6.8639220000000005,-9.962387,-0.027038574,-1.2101135,1.5214538999999998,2.8268737999999995
10.165527,-8.968796000000001,0.2554779,-1.1547089,1.4330444,2.7544402999999997
11.446425999999999,-8.336716000000001,0.37757874,-1.0119629,1.1187897,2.7086334
10.912521,-8.973587,-0.050979614000000006,-0.8340759,0.7235718000000001,2.6351318
9.511902000000001,-9.873795,-0.31674194,-0.6700134,0.35606384,2.4572296000000002
8.812805,-10.316727,-0.31195068,-0.51982117,0.06629944,2.1845244999999998
8.592528999999999,-10.182648,-0.23773193,-0.29930115,-0.11904907,1.8766631999999999
8.448883,-9.667892,-0.25927734,0.025604248,-0.24688720000000003,1.5016937
8.726608,-8.928085000000001,-0.26167297,0.36116028,-0.36192322,0.9605254999999999
9.203049,-8.427703999999999,-0.046188354,0.57315063,-0.49934387,0.24681091
9.643585,-8.1380005,0.169281,0.6391906999999999,-0.58883667,-0.49461365
9.954834,-8.121246000000001,0.2387085,0.64237976,-0.5281066999999999,-1.1167296999999998
10.206223,-8.214615,0.24829102,0.6434479000000001,-0.37471008,-1.5886536
10.49353,-8.269684,0.29617309999999997,0.66156006,-0.25646973,-1.9742737000000001
10.752106,-7.778869599999999,0.36082458,0.6967163000000001,-0.25965879999999997,-2.3194122000000004
11.233336999999999,-6.792464999999999,0.49967957,0.78300476,-0.41944885,-2.6453857000000003
11.934845,-6.107727,0.7367096,0.9417267,-0.6591338999999999,-2.9319458
12.686615,-5.877884,1.2730103000000002,1.1313476999999998,-0.91160583,-3.1215667999999996
13.349808,-5.4062195,1.9768982,1.2890015,-1.2897797,-3.2185059
14.271576000000001,-5.0710296999999995,2.2977295,1.3337402,-1.6658172999999998,-3.2664337000000003
15.308273000000002,-5.377487,1.9768982,1.216568,-1.900177,-3.2707062000000002
16.057663,-6.9959717,1.4142609,1.0152283000000002,-1.9779358,-3.2163696
16.095963,-8.877808,1.2155457,0.86183167,-1.9843292000000001,-3.1279602000000004
15.346573000000001,-10.017456,1.2754059,0.78512573,-1.8927154999999998,-3.0437927000000005
14.075256,-9.895355,1.402298,0.7329406999999999,-1.6530304,-2.979889
12.535782000000001,-8.975967,1.4597626,0.6679535,-1.3355865,-2.9212952000000003
11.511063,-8.540237,1.6058044,0.5880585,-1.0202636999999999,-2.8627013999999997
11.116028,-9.2561035,1.8236694,0.46661377,-0.7102661,-2.8009186
10.761688000000001,-10.438827499999999,1.9170532,0.3164215,-0.43437195,-2.7093048
10.366638,-11.413269,1.8069153000000002,0.17472839999999998,-0.23728943,-2.5644226000000003
10.199050999999999,-12.394897,1.560318,0.075668335,-0.14355469,-2.3843994
9.789642,-12.801910000000001,1.1772461,0.025604248,-0.10307312,-2.1841277999999997
8.982788000000001,-12.337433,0.9713440000000001,-0.0010375977,-0.060455322,-1.9444427
8.192703,-11.427643,1.3137054,-0.041519165,-0.023178099999999997,-1.6206055
7.661194,-10.522629,1.8452301,-0.12780762,-0.005065918,-1.1902313
7.2589570000000005,-9.811554,2.1540833,-0.22047424,-0.015716553,-0.6544036999999999
6.8064575,-9.234542999999999,2.173233,-0.27693176,-0.048736572,-0.0834198
6.44014,-8.894577,1.9984589,-0.36003113,0.03541565,0.39274597
6.2174835,-8.865845,1.6058044,-0.52194214,0.29960632,0.79541016
5.788925,-8.750916,1.2562561,-0.69132996,0.60639954,1.2992858999999999
5.2023470000000005,-8.523468,1.0695038000000001,-0.7264862,0.8226471,1.9352417000000002
4.7235107,-8.406158,1.0695038000000001,-0.53260803,0.83436584,2.5328673999999998
4.476898,-8.475586,1.1173859,-0.15443420000000002,0.63835144,2.9152985
4.3284607,-8.923309,1.0216216999999999,0.2769928,0.3251648,2.9216766
3.9956665,-9.3806,0.758255,0.5944519,0.09400939999999999,2.4870605
3.483307,-9.617614999999999,0.41827393,0.51348877,0.027954102,1.9373778999999998
2.990097,-9.600861,0.29138184,-0.086257935,0.1685791,1.6572113000000002
2.7937775,-9.414108,0.44221497,-0.9288788,0.48709106,1.6795807
3.4497833,-9.591277999999999,0.43025208,-1.614914,0.7896271,1.844696
4.1895904999999996,-10.072525,0.15731812,-1.9696349999999998,1.0005493,1.9672089
3.9813080000000003,-10.287994,-0.031829834,-2.060196,1.2221222,2.0364532
3.4019012,-9.991119,0.27223206,-2.030365,1.4447632,2.0417786
3.5671082000000003,-9.138779,0.8707886,-2.0154419999999997,1.6940308000000002,2.0684052
4.972503700000001,-8.358276,1.2370911,-2.0090637,1.8239898999999997,2.1791992000000002
7.5941467000000005,-8.025482,0.8348694,-1.9078522,1.6674042000000002,2.3411102
10.606064,-7.5442350000000005,-0.13478088,-1.6713715,1.2317046999999999,2.4987793
11.8151245,-7.223419,-1.9639435,-1.3187714,0.7107849,2.6074371
10.98674,-7.5538177,-4.0157776,-0.9299469000000001,0.27616882,2.623413
9.820755,-8.327148,-4.7938995,-0.6540375,0.016235351999999998,2.5520325
8.863083,-8.477982,-3.6997527999999997,-0.5858612,-0.023178099999999997,2.4412537
8.693085,-8.363052,-1.6981964,-0.6593628,0.13981628,2.287857
8.539856,-7.991958599999999,0.023239136,-0.677475,0.31877136,2.0705414
8.506348,-7.328766000000001,0.9497985999999999,-0.51556396,0.32730103,1.8042145
8.314803999999999,-7.1563873,1.1197815,-0.21835327,0.19520569,1.4739838
7.903,-7.2808839999999995,1.0192261,0.110824585,-0.00932312,1.0500183
7.7665405,-7.525085400000001,1.0766907,0.41229248,-0.24581909,0.55999756
8.12088,-7.831542999999999,1.2394867,0.70736694,-0.45567322,0.087020874
8.843933,-7.972809,1.5004578000000002,0.98753357,-0.6303711,-0.33056640000000004
9.705841,-7.625641000000001,1.6464995999999998,1.2368011,-0.69854736,-0.739624
10.407333,-6.9911804,1.37117,1.3720856000000001,-0.67085266,-1.2296448
10.838303,-6.4884033,0.7438965,1.345459,-0.6602020000000001,-1.7793273999999997
11.369812,-6.3112335,0.33688354,1.2666321000000003,-0.7102661,-2.2714844
11.992294000000001,-6.047867,0.6170044,1.2698212,-0.8508911,-2.6624298
12.56691,-5.715072599999999,1.3520203000000002,1.3422698999999998,-1.1395721,-2.9607086
13.299529999999999,-5.700714,1.9577484,1.362503,-1.4357147,-3.1865387000000003
13.883713,-5.5929720000000005,2.2570342999999995,1.2932587,-1.5422363000000001,-3.3356779999999997
14.429595999999998,-5.7174683,2.2019653,1.1643677,-1.4303894,-3.397461
14.86055,-6.502762000000001,2.1540833,1.0194855,-1.2173308999999999,-3.3804169
15.202926999999999,-7.625641000000001,2.039154,0.9694214,-1.0607452,-3.2984009
15.183777,-8.109268,1.9146576000000002,1.0109711,-0.96699524,-3.1812134
14.558883999999999,-7.2138367,1.5579223999999998,1.0493164,-0.8721924000000001,-3.1002502
13.708939,-6.380661,0.9138794,1.0450591999999999,-0.78804016,-3.0501862
13.036178999999999,-6.8642883,0.5020752,0.9683533000000001,-0.7187958000000001,-2.9638977000000004
12.492691,-8.023087,0.6960144,0.820282,-0.6634064000000001,-2.8328705000000003
12.150314,-9.1770935,1.1006316999999999,0.6360016,-0.61972046,-2.6752167
12.191025,-10.668671,1.1700591999999999,0.46342468,-0.5515441999999999,-2.4941254
12.114410000000001,-11.99028,1.129364,0.32279968,-0.46739197,-2.2895966
11.32193,-12.32785,1.1748505,0.18965149,-0.41625977,-2.0467072
10.088913,-11.801132,1.1820374,0.012817383,-0.30227659999999995,-1.7654724
8.887024,-11.054138,1.5220032,-0.21514893,-0.09667969,-1.4309844999999999
7.962860000000001,-10.266449,1.9553528000000002,-0.5112915,0.19413757,-1.0187225
7.6970979999999996,-9.986328,1.8859253,-0.8575134,0.5478058000000001,-0.55641174
7.5151367,-9.854645,1.5746765,-1.1355438,0.81411743,-0.14201355
6.8735046,-9.586502000000001,1.1437225,-1.2718964,0.9302368000000001,0.203125
6.088196,-9.165115,0.73431396,-1.3283539,1.0697784,0.5503998000000001
5.547104,-8.856262,0.48532104,-1.3560486,1.1773833999999999,1.0010071
5.199951,-8.738953,0.44221497,-1.3049164,1.0431519,1.5911713
4.721115,-8.523468,0.5164489999999999,-1.1099701000000002,0.6724396,2.2175446
4.112976000000001,-8.190674000000001,0.53559875,-0.7872009,0.19839478,2.699051
3.9453888,-8.511505,0.3249054,-0.45057678,-0.13395691,2.9951935
3.9094696000000004,-9.074142,0.032806396,-0.23326111,-0.19255066,3.1219482000000003
3.6844177000000005,-9.131592,-0.32870483,-0.22154236,-0.057266235,3.0761414
3.4569702000000007,-8.837112,-0.8123474,-0.4005127,0.15046692,2.9003754
3.6293488,-8.504318,-0.79797363,-0.6561737,0.33901978,2.7395172000000003
4.2853699999999995,-8.506714,-0.34786987,-0.89585876,0.43275452,2.7256775
4.984466599999999,-9.406937,-0.082107544,-1.1366119,0.552063,2.8396605999999998
4.8575745,-9.924072,-0.012680054,-1.3517914,0.7384949000000001,2.9813384999999997
4.299728400000001,-9.873795,0.09027099599999999,-1.4678955,0.8982849,3.1102295
4.1369324,-9.325531,0.53559875,-1.519043,1.0112,3.228485
5.008407599999999,-8.576141,1.0527496,-1.519043,0.9430236999999999,3.2828063999999997
6.432968,-8.324753,1.2227325,-1.4316864,0.678833,3.2785492
7.728225699999999,-8.449249,0.9545745999999999,-1.2623138,0.30493164,3.3041077000000003
8.8654785,-8.626419,0.33688354,-1.0204925999999999,-0.1296997,3.2966614
9.729782,-8.942459,-0.31195068,-0.7264862,-0.48976135,3.2061157000000002
9.751327499999999,-9.167511,-0.64953613,-0.42607117,-0.7006836,3.0282134999999997
9.006729,-9.234542999999999,-0.57292175,-0.150177,-0.6634064000000001,2.752304
8.288467,-9.327927,-0.46278379999999997,0.12892151,-0.44927979999999995,2.3602905
8.04187,-9.299194,-0.19703674,0.41015625,-0.26286316,1.7818451000000002
8.113693,-9.009491,0.45658875,0.62854004,-0.23410034,1.0020752
8.405792,-9.090897,0.8588104,0.75531006,-0.33850098,0.1285553
9.10968,-9.248917,0.9569701999999999,0.8224181999999999,-0.47058105,-0.6469574
10.029053,-9.464386,1.0838623,0.83625793,-0.6026764,-1.2466888
10.505508,-9.545792,1.2610321000000002,0.7968445,-0.6282501,-1.6578827
11.0849,-9.167511,1.5531311,0.73612976,-0.5483551,-1.9550933999999998
11.705002,-8.3510895,1.8955078,0.7190857,-0.53131104,-2.3076935
12.293975999999999,-7.4221344,2.1636505,0.7979126,-0.6463623000000001,-2.7316742
13.167847,-6.8211975,2.2857513,0.9374695,-0.8306427,-3.1343384
14.044128,-6.167572,2.494049,1.1004486,-1.0298462,-3.447525
14.788727,-5.0973663,2.6017914,1.1973877,-1.295105,-3.6510010000000004
15.571639999999999,-4.4892426,2.2426605,1.1505127,-1.6008301,-3.7596587999999995
16.148636,-4.783722,1.7446747,0.95877075,-1.7798004,-3.7905425999999998
16.12709,-6.222641,1.3568115,0.73506165,-1.7808685000000002,-3.7212982000000006
15.849364999999999,-8.291229,0.99768066,0.644516,-1.7574310000000002,-3.5679016000000003
15.329819,-9.950409,0.7654419,0.7052307,-1.7435759999999998,-3.3825529999999997
14.163848999999999,-10.129974,0.8947296,0.75956726,-1.5965729,-3.2344817999999997
13.076874,-9.239334,1.3376465,0.74038696,-1.3568878,-3.125824
12.478317,-8.817963,1.8500061,0.6860656999999999,-1.1321106,-3.0501862
12.226929,-9.548186999999999,2.0559081999999997,0.55397034,-0.8530120999999999,-3.0054474
11.8941345,-10.687836,2.118164,0.28871155,-0.6261139,-2.933014
11.508666999999999,-11.918442,1.9457855,-0.0074310303000000005,-0.50787354,-2.8126373
11.108841,-12.957535,1.4956665,-0.28120422,-0.2735138,-2.649643
10.622817999999999,-13.527358999999999,1.0982361,-0.44950867,-0.10626221,-2.4025116
9.629227,-13.326232999999998,1.1413269,-0.47720337,-0.12544249999999998,-2.0626830000000003
8.300446,-12.248856,1.7518463,-0.4601593,-0.1563263,-1.7047577
7.335571300000001,-11.123581,2.5515137,-0.49212646,-0.12863159,-1.2914428999999998
6.816039999999999,-10.103638,2.7023467999999995,-0.5997161999999999,-0.047683715999999994,-0.78330994
6.4521180000000005,-9.524246,2.343216,-0.7062378,0.08973694,-0.21125793
6.2055206,-9.050201,2.0032349,-0.71369934,0.23994446,0.34587097
6.0714417,-8.743744,1.4837036,-0.6742859,0.44660950000000005,0.8209839
5.786529499999999,-8.286438,0.6002350000000001,-0.7318115,0.7427521,1.2875671
5.7194977,-8.102097,0.2339325,-0.84259033,1.0591278,1.8798523
5.776947,-8.592895500000001,0.16688538,-0.8276825000000001,1.2530059999999998,2.5467072
5.11615,-8.758102000000001,0.42066956,-0.614624,1.2444916000000001,3.1070404
4.479294,-8.80838,0.9282379000000001,-0.26521300000000003,1.0868378,3.417038
4.5176086,-9.303986,1.1269684,0.059692382999999995,0.87590027,3.4575042999999996
4.3045197,-9.665512,0.9497985999999999,0.19711304,0.70973206,3.2796172999999995
3.682022,-9.586502000000001,0.69122314,0.061813354,0.6766968000000001,2.9461823
3.251068,-9.409332000000001,0.8013458000000001,-0.33338928,0.73635864,2.5871887000000005
3.3444519999999995,-9.344681,1.3400421,-0.8926544,0.8290405000000001,2.3102264
4.0267944,-9.713394000000001,1.5986176,-1.4519196,1.0037384,2.2175446
4.2686005,-10.024628,1.1317443999999999,-1.8322296000000002,1.2455597,2.3645477
3.7945557,-9.924072,0.6529083000000001,-1.9185028000000002,1.3904266,2.6819916
3.5335845999999997,-9.332718,0.8707886,-1.7427368000000003,1.3925629,3.0590973
4.376343,-8.492339999999999,1.4118805,-1.4327545,1.3126678,3.371231
6.322830000000001,-8.217010499999999,1.6704407,-1.169632,1.2647247,3.5864105000000004
8.281296000000001,-8.051819,1.3400421,-1.0258179,1.2604674999999999,3.7078552000000005
9.820755,-7.9608307,0.49967957,-0.9523163,1.2253113000000002,3.6854858
11.027435,-8.343903,-0.5681305,-0.94485474,1.1369018999999998,3.5629730000000004
11.2812195,-8.568954,-1.5353851,-1.0247498,1.0175934000000002,3.3414001000000004
10.819138,-8.920914,-2.1339417000000003,-1.1674957000000001,0.8695221,3.036728
9.878219999999999,-9.512283,-2.0190125,-1.3049164,0.6170502,2.655365
8.489578,-9.869019,-1.0565491000000002,-1.2846832000000001,0.31558228,2.2686767999999997
7.326003999999999,-9.667892,0.40391540000000004,-0.9533844000000001,-0.11691284,1.9661407
6.907013,-9.212997,1.5243988000000002,-0.3344574,-0.7518158,1.665741
7.421767999999999,-9.057373,2.0654907,0.38246155,-1.4911041,1.1789093000000002
8.259735000000001,-9.119629,1.8907166000000002,1.0237578999999999,-2.06102,0.40872192
9.061798,-9.368622,1.4429931999999999,1.4850159,-2.2666168,-0.47224426
10.146378,-9.706207000000001,1.2155457,1.6245575,-2.045044,-1.2403107
10.778442,-9.490723,1.0934448,1.4274902,-1.4932404,-1.822998
11.252487,-9.054977000000001,0.82051086,1.0344086,-0.91693115,-2.2597656
11.5972595,-8.561783,0.7295227,0.6967163000000001,-0.6527405,-2.6656342
12.021027,-7.977585,0.9521941999999999,0.6040344,-0.74542236,-3.1055756000000003
12.679443,-8.011108,1.6464995999999998,0.69885254,-0.98724365,-3.55513
13.052933,-8.183487,3.0231779999999997,0.78086853,-1.2567443999999999,-3.936493
13.191803,-7.6017,4.39505,0.70417786,-1.5273285,-4.2166595000000004
13.771194,-6.7517548,4.981628400000001,0.4921875,-1.7180176,-4.3913574
14.929993,-6.708664,4.900223,0.28233337,-1.7915192,-4.4573975
15.727248999999999,-7.4580535999999995,4.430969,0.18858337,-1.8021698,-4.4669952
15.660217000000001,-8.829925999999999,3.162033,0.20349121,-1.6562195,-4.4062653
14.812667999999999,-9.5529785,1.5674896,0.28445435,-1.3877716,-4.229431
13.354598999999999,-9.335098,0.45898438,0.41548157,-1.199234,-3.9652557
12.174255,-8.923309,0.3249054,0.5007019,-1.0213318,-3.699997
11.853439,-9.1770935,1.0718994,0.5102997,-0.81573486,-3.507187
12.1622925,-10.405319,1.8476256999999998,0.44317627,-0.5515441999999999,-3.3463287000000004
12.296371,-11.9639435,1.9745177999999999,0.3153534,-0.25753784,-3.173767
12.013855,-13.285538,1.6872101000000002,0.2184143,-0.005065918,-2.9212952000000003
11.467972,-14.085204999999998,1.3975066999999999,0.18325806,0.14086914,-2.5580292
10.61084,-14.1067505,1.6129913,0.19071960000000002,0.10784912,-2.1415252999999996
9.748932,-13.37413,2.0918273999999997,0.21308899,-0.013595581,-1.7281952
9.059402,-12.847397,2.573059,0.17793274,-0.0466156,-1.2935638
7.9197693,-12.495453,2.8436127,-0.0052948,0.015167236,-0.7758484
6.483246,-11.365387,3.0638732999999996,-0.25349426,0.03755188,-0.18675232
5.7817383,-10.438827499999999,2.762207,-0.45164490000000007,0.050323485999999994,0.45559692
5.700332599999999,-9.854645,2.2235107000000003,-0.5336609,0.13342285,1.0457458
5.487259,-9.157928,1.6800232,-0.5304718,0.31451416,1.5240631000000002
5.27417,-8.645569,1.1628723,-0.49745178,0.48602295,2.0076904
4.9940489999999995,-8.360672000000001,0.95936584,-0.40795898,0.56059265,2.5946502999999996
4.3667755,-8.284058,0.9713440000000001,-0.22047424,0.47004700000000005,3.2817383
3.8639832000000003,-8.312775,0.9234619000000001,0.033050537000000005,0.18562317,3.9539185
3.8855286,-8.504318,0.7510680999999999,0.27912903,0.0002593994,4.425842299999999
4.0626983999999995,-8.980758999999999,0.44221497,0.4261322,0.10572815,4.5941467000000005
3.7155457000000003,-9.495514,-0.14675903,0.40803528,0.3304901,4.457794
3.045166,-9.105255,-0.37181090000000006,0.24717712,0.59680176,4.138214
2.4514007999999996,-8.559387,-0.007888794000000001,0.07034302,0.9334259,3.7632446
2.72435,-8.499527,0.6600951999999999,-0.0031585693,1.2061462,3.3637695
3.6556854,-9.033432000000001,1.129364,0.012817383,1.410675,2.9888
4.1441040000000005,-9.5529785,1.0431671,-0.025527954,1.6077423,2.6457825
4.115371700000001,-9.924072,0.8707886,-0.20449829,1.7504883000000002,2.3379211
4.1464996,-10.134766,0.9042969000000001,-0.5262146,1.809082,2.1142119999999998
4.9509583,-10.589661,0.8636017,-0.9033203000000002,1.7558136000000002,1.9554901000000002
7.050674400000001,-11.298355,0.7367096,-1.2047881999999999,1.6226653999999998,1.888382
9.6723175,-12.124344,0.55474854,-1.3464661,1.4064026,1.9714661
11.606842,-12.129135,0.29856873,-1.3187714,1.1187897,2.1706696
12.442413,-11.394119,0.08547974,-1.1515198,0.78855896,2.3815918
12.499878,-10.905700999999999,0.169281,-0.8777466,0.40719604,2.4550933999999995
12.040192,-10.036605999999999,0.64811707,-0.5773468,0.048202515,2.3592223999999997
11.060959,-8.784439,1.0168304,-0.34831238,-0.19894409,2.1749267999999997
10.244537,-8.008713,0.71276855,-0.22261047,-0.32145690000000005,1.9991608
9.629227,-7.508331299999999,-0.036621094,-0.095840454,-0.41412354,1.7818451000000002
8.8535,-7.333557000000001,-0.8314971999999999,0.073532104,-0.6165314000000001,1.3887633999999998
8.432129,-7.429321300000001,-1.2792052999999999,0.26101685,-0.84661865,0.7528076
8.233398,-7.972809,-1.1954193000000002,0.49005127,-1.0490264999999999,-0.072769165
7.871886999999999,-8.628815,-0.54418945,0.7254791,-1.0692596,-0.93244934
7.5007779999999995,-8.904144,0.33688354,0.8021698,-0.88816833,-1.6813202
7.4696503,-8.652756,1.1557007,0.6828613,-0.7379608,-2.3183594
8.362686,-8.317566000000001,1.8284607,0.57847595,-0.7422333000000001,-2.873352
9.796814,-8.267288,2.0080261000000004,0.60617065,-0.89456177,-3.3399352999999996
11.027435,-8.250534,1.8164977999999998,0.6775359999999999,-1.136383,-3.7042542000000003
11.566132000000001,-8.0589905,1.5339813,0.6636963,-1.3526306000000001,-3.9407501000000003
12.159897,-7.879425,1.7039642,0.56355286,-1.5379791,-4.0419464
13.230103,-7.525085400000001,2.0774689,0.49005127,-1.7446442,-4.036621
14.769576999999998,-7.699859599999999,2.336029,0.45703125,-1.8266754,-3.8864288
16.141448999999998,-8.128433,2.6568604,0.39311218,-1.8011017,-3.5988007000000004
16.735214000000003,-8.796402,2.8316345000000003,0.32707214,-1.7840576000000001,-3.2984009
15.722473,-8.817963,2.453354,0.23013306,-1.5997620000000001,-3.092804
13.919632,-8.336716000000001,1.5794678,0.15449524,-1.2216034,-3.0427246
12.562119000000001,-8.391785,1.3208923000000001,0.16300964,-0.81147766,-3.0363464
11.851044,-9.208206,1.6297455,0.16835022,-0.54196167,-3.0193024
11.393753,-10.362213,1.7614288,0.10122681,-0.40879822,-2.9777527000000004
11.0082855,-11.755646,1.6824188000000002,-0.01914978,-0.32783508,-2.906372
10.6371765,-13.25441,1.8500061,-0.100097656,-0.30441284,-2.7881317
10.23735,-14.149841,2.233078,-0.12886047,-0.29907227,-2.6294098
9.329956,-14.121108999999999,2.69516,-0.18106079,-0.26072693,-2.4291382
7.8048399999999996,-13.031754,2.6401062,-0.27799988,-0.11479187,-2.1873322
6.7897034,-11.329467999999999,2.6879882999999998,-0.36428833,0.07269287,-1.833664
6.624496499999999,-10.137161,2.6377106,-0.41542053,0.19520569,-1.2882385
7.223053,-9.694229,2.6640472,-0.40263367,0.15258789,-0.530838
7.148834,-9.299194,2.9154357999999996,-0.26202393,-0.012527466000000001,0.35440063
6.751388499999999,-9.06456,2.6448822,-0.064956665,-0.07537842,1.1640015
6.4664764,-9.074142,2.027176,0.0650177,0.027954102,1.6955718999999998
6.1504517,-9.153152,1.4741211,0.13531494,0.2782898,2.1568297999999997
5.685974,-9.14357,1.4382172,0.27806090000000006,0.5062561,2.5648193
5.266983,-9.136383,1.6105957,0.45916748,0.6277008000000001,2.8215485
4.970108,-9.397354,1.4860992,0.53266907,0.6766968000000001,2.9270172000000003
4.752228,-9.952805,1.2370911,0.46554565,0.6724396,2.9025116
4.0746765,-10.295181,1.13414,0.3622284,0.6138458000000001,2.8162230999999998
2.9948883,-10.436432,1.0048523,0.37713623,0.53182983,2.699051
1.7738494999999999,-10.216171000000001,0.9641571,0.5188141,0.51478577,2.5712127999999996
1.4745788999999998,-9.940842,1.3017426,0.5720824999999999,0.6735076999999999,2.4433746
2.1473389,-10.232925,1.620163,0.35476685,0.9557953000000001,2.3080902
4.0435486,-10.266449,1.2730103000000002,-0.0798645,1.2998809999999998,2.2761383
4.5798492,-9.727753,0.8947296,-0.6338043000000001,1.6130676000000002,2.3325958
4.831238,-8.849075,0.9713440000000001,-1.2005157,1.874054,2.4732056
5.745834400000001,-8.274475,0.86839294,-1.6266327,2.0125427,2.6425781
6.89505,-8.23616,0.23153687,-1.840744,1.9784546000000003,2.7459105999999998
7.9485016,-8.463608,-0.45559692,-1.8652495999999998,1.7941589,2.7384644000000002
8.654785,-8.865845,-0.73573303,-1.8439484,1.4735260000000001,2.7437897
9.313187,-9.404541,-0.43884277,-1.8886870999999998,1.0559386999999998,2.7970428
9.732178,-9.969574,-0.0007019042999999999,-1.9440765,0.6170502,2.8162230999999998
9.645980999999999,-10.156311,-0.25448608,-1.9664458999999999,0.28575134,2.7629547000000003
9.1623535,-9.612839,-1.2361145,-1.9685822,0.18028260000000002,2.6415252999999996
7.962860000000001,-8.657547000000001,-1.9160613999999998,-1.7789612000000001,0.21118164,2.4359283
7.122497599999999,-8.262497,-2.2440796,-1.1674957000000001,0.17495728,2.0108794999999997
6.5263367,-8.008713,-2.1530914,-0.25349426,0.06097412,1.3546753
6.44014,-8.116455,-1.4898987,0.57315063,-0.038085938,0.5695800999999999
7.1105194,-8.564178,-0.577713,1.0152283000000002,-0.00932312,-0.16226196
8.283676,-9.021469,0.29617309999999997,0.9886017,0.16111755,-0.65867615
8.8654785,-9.263275,0.60502625,0.69351196,0.43807983,-0.9111328000000002
8.985184,-9.248917,0.5403899999999999,0.48258972,0.50839233,-1.0485535
9.581344999999999,-9.284821,0.7271271,0.5518341,0.2559204,-1.325531
10.644363,-9.509888,1.3352661,0.8032379,-0.14355469,-1.8155518
11.580505,-9.71579,2.1277466,1.0035094999999998,-0.48336792,-2.3375244
11.925262,-9.04541,3.490036,1.0386658000000002,-0.76779175,-2.7242126
12.9092865,-8.070969,5.537079,1.009903,-1.1417084,-3.0011902000000004
13.979492,-7.182724,6.947265600000001,1.0450591999999999,-1.5635529,-3.1822814999999998
14.839004500000001,-6.9648438,6.4684295999999994,1.138794,-2.0024414,-3.2525939999999998
14.994629000000002,-7.618469,4.4142,1.200592,-2.315628,-3.2738953
13.922028,-8.511505,1.9170532,1.2261505,-2.3901977999999997,-3.2920074
12.451981,-8.805984500000001,0.20040894,1.2591705,-2.2314757999999997,-3.2888029999999997
10.90773,-7.7190247,0.06872558599999999,1.3188323999999998,-1.949173,-3.2749634
10.608459,-6.471634,0.96655273,1.3518523999999998,-1.6082916,-3.2994537000000004
11.32193,-6.2920685,1.7087555,1.3305511,-1.2322540000000002,-3.349533
11.645142,-7.1922913,1.6034088,1.2154999,-0.82424927,-3.412384
11.108841,-8.396576,1.0527496,0.98646545,-0.44714355,-3.4272919
10.962799,-9.87619,0.9857024999999999,0.66156006,-0.061523438,-3.3271637000000003
11.013077000000001,-11.528198,1.5172119,0.36648559999999997,0.20692444,-3.1002502
10.543808,-12.287155,2.2067412999999996,0.20349121,0.26231384,-2.7998505000000002
10.014694,-12.251236,2.4748992999999997,0.13212585,0.23994446,-2.4941254
9.667525999999999,-11.951965,2.611374,0.06607056,0.16430664,-2.1606902999999997
9.088135000000001,-11.521011,2.8843078999999996,-0.07772827,0.10891724,-1.7548218
8.444092,-10.833878,3.138092,-0.28225708,0.053527832000000004,-1.2392426
8.211853,-10.563324,2.9058533,-0.4835968,-0.051940917999999996,-0.6235199
7.993988000000001,-10.302368,2.4222259999999998,-0.67640686,-0.10733032,-0.00033569336000000005
7.7473755,-10.050964,1.6369323999999998,-0.87242126,-0.013595581,0.5290984999999999
7.1727753,-9.718169999999999,0.6983948,-1.1025238000000002,0.18881226,1.0042114
6.3348083,-9.514664,-0.039016723999999996,-1.2804108,0.36245728,1.5549469
5.262207,-9.347076,-0.23533629999999997,-1.2399292,0.33901978,2.2335205
4.4601440000000006,-9.038223,0.028030396000000003,-0.9118347,0.11956787,2.9035797000000003
4.112976000000001,-8.983153999999999,0.18125916,-0.37493896,-0.19680786,3.4276885999999998
3.8639832000000003,-8.940063,0.08547974,0.19604492,-0.4034729,3.6908112
3.7059631,-9.253708,-0.31913757,0.6040344,-0.38217163,3.6418
3.3109282999999996,-9.4739685,-0.6279906999999999,0.72654724,-0.17018127,3.3776245000000005
2.7770232999999998,-9.16272,-0.45559692,0.51348877,0.15258789,2.9770813
2.796173,-9.057373,-0.1850586,0.07034302,0.5115814000000001,2.70224
3.6485138,-9.505096,0.0016937256,-0.42500305,0.81411743,2.5882568
4.462539700000001,-10.106033,-0.022247314,-0.92248535,1.1624603,2.4582977
4.527176,-10.54657,0.17407227,-1.3805542,1.5321045,2.2686767999999997
4.0339813,-10.151535,1.1149902,-1.7097168000000003,1.8431702,2.0662689999999997
4.2566375999999995,-9.608047500000001,2.288147,-1.8332825000000001,2.061554,1.9022217000000001
5.4393769999999995,-9.303986,3.0064087,-1.7363433999999998,2.1126862,1.8074188000000002
7.292480499999999,-9.366226,2.85318,-1.5105133,1.970993,1.7882384999999998
9.195877000000001,-9.411713,2.015213,-1.2846832000000001,1.7110748,1.8329773
10.285233,-9.30159,0.88035583,-1.0993195,1.3776398,1.9331207
11.175873,-9.409332000000001,-0.51545715,-0.9853363000000002,1.0506133999999998,2.064148
10.43367,-9.028641,-1.4228668,-0.9342040999999999,0.7288971,2.1259308
9.116867,-8.243347,-1.4922943000000002,-0.87028503,0.47537229999999997,2.0918427
8.817596,-7.9608307,-1.2409058000000002,-0.72114563,0.3059845,2.0566864
8.683517,-7.5059357,-0.8123474,-0.49745178,0.13235474,2.0151367
8.444092,-7.120467999999999,-0.06535339,-0.26734924,-0.10626221,1.8851776000000002
8.195099,-7.070190400000001,0.80374146,-0.036193848,-0.47271729999999995,1.6380463
7.938919,-7.216232300000001,1.5890503,0.20881653,-0.87112427,1.2002106000000001
7.931732000000001,-7.5729675,1.8380432,0.5007019,-1.1960297,0.52163696
8.065811,-8.008713,1.4525757,0.8021698,-1.3270568999999999,-0.31459045
8.132843,-8.068572999999999,1.0575256000000002,1.0514526000000002,-1.1661986999999998,-1.1263275
8.037078999999999,-7.738174400000001,0.7438965,1.1569061,-0.80615234,-1.7494965
8.422546,-7.4149475,0.521225,1.0855408000000002,-0.48229979999999995,-2.2331237999999995
9.437683,-7.616073599999999,0.6648864999999999,0.97795105,-0.43223572,-2.696518
10.175094999999999,-7.8890076,1.1916046,0.95877075,-0.6452941999999999,-3.0565796
10.6922455,-7.742965700000001,1.6824188000000002,0.9886017,-1.0287780999999998,-3.2781525
11.5972595,-7.637619,1.8476256999999998,0.98327637,-1.5614166,-3.413437
12.461563,-7.328766000000001,2.039154,0.93959045,-2.112152,-3.4485931000000005
13.589232999999998,-7.1803284,2.3216705,0.8863373,-2.5148314999999997,-3.3900146
15.068848000000001,-7.486786,2.714325,0.88952637,-2.6735535,-3.2611084
16.299469000000002,-8.126038000000001,2.9776764,0.9331969999999999,-2.557434,-3.092804
16.16539,-8.492339999999999,3.0399323,0.9449158000000001,-2.2602234,-2.934082
14.372131,-8.049422999999999,2.659256,0.86183167,-1.7883148000000002,-2.8232880000000002
12.495087,-7.616073599999999,1.6273499,0.6775359999999999,-1.1683350000000001,-2.7487182999999997
11.841461,-8.09491,0.8851471,0.45703125,-0.6037445,-2.6720123
11.259674,-9.038223,0.86839294,0.21095276,-0.18296814,-2.5825348
10.673096000000001,-10.170685,1.1030273000000002,-0.039382935,0.10891724,-2.4951935
10.349884,-11.41806,1.1461181999999999,-0.23432922,0.28575134,-2.3822632
9.938080000000001,-12.258422999999999,1.3544159,-0.33552550000000003,0.38482666,-2.2235412999999995
9.253342,-12.416443,1.7207183999999998,-0.36109924,0.33901978,-2.011551
8.482407,-11.796341,2.288147,-0.3770752,0.18881226,-1.772934
7.665985000000001,-10.812332000000001,2.7837523999999996,-0.4559021,0.14300537,-1.534317
7.045883,-9.809158,2.8507842999999995,-0.6220856,0.22183228,-1.2605438
6.942932000000001,-9.263275,2.4916534,-0.8138274999999999,0.34434509999999996,-0.9036865
7.0051727,-9.210602,1.8643798999999999,-0.9384613000000002,0.40931702,-0.4797058
6.641266000000001,-8.889786,1.37117,-0.97787476,0.46044922,-0.01524353
6.162414599999999,-8.466003,0.8588104,-0.94592285,0.5904235999999999,0.50354004
5.966095,-8.403763,0.4158782999999999,-0.86709595,0.69055176,1.1448212
5.762588500000001,-8.482773,0.33209229999999995,-0.77015686,0.61172485,1.8968964
5.3316345,-8.449249,0.48532104,-0.6082306,0.38694763,2.5573577999999997
4.824066,-8.319962,0.7175598000000001,-0.33766174,0.15686035,2.9557648
4.7187195,-8.504318,0.76065063,-0.062820435,0.01411438,3.1464539
4.941375700000001,-9.0190735,0.5116577,0.087387085,0.0087890625,3.1624298
4.8695526,-9.359039,0.22914124,0.08099365,0.1259613,3.0101013
4.4194336,-9.524246,0.17886353,-0.029800415,0.26551820000000004,2.7640228
3.9286345999999996,-9.555374,0.5116577,-0.17573547,0.34434509999999996,2.5499115000000003
3.878357,-9.991119,0.8947296,-0.39730835,0.46151733,2.4082336
3.9765167000000003,-10.793167,0.9641571,-0.79252625,0.7576599,2.3198090000000002
3.5144347999999996,-10.991897999999999,0.8372649999999999,-1.3187714,1.219986,2.2910461
2.7028046000000003,-10.268844999999999,0.60502625,-1.7555237000000001,1.6908417000000002,2.3166199
3.0786896,-9.201035000000001,0.6672821,-1.9312897,1.920929,2.3613586
4.958130000000001,-8.844299000000001,0.9282379000000001,-1.8396758999999998,1.8133392,2.3890533
6.7585754,-8.892180999999999,0.82528687,-1.6127777,1.475647,2.4423217999999998
8.264526,-9.04541,0.30336,-1.411438,1.0250397,2.5637512000000005
9.691467,-9.445236,-0.29998779999999997,-1.2868042,0.63409424,2.7086334
10.452835,-9.416504,-0.78601074,-1.1653748,0.38801575,2.8279419999999997
10.215805,-8.837112,-1.008667,-1.0119629,0.16963196,2.8833313
9.576553,-8.365447999999999,-1.166687,-0.86709595,-0.045547485,2.7842712000000005
8.901382,-7.941681,-1.5210266000000001,-0.7030487,-0.14141846,2.5392609
8.281296000000001,-7.5610046,-1.7221375,-0.44737244,-0.19575499999999998,2.190918
7.8335724,-7.529876700000001,-1.1140136999999999,-0.08732605,-0.29481506,1.7019501
7.6109160000000005,-7.575363,0.008865356,0.29510498,-0.4226532,0.9850310999999999
7.88385,-7.733383,0.8420563,0.72654724,-0.4737854,0.14666748
8.266922000000001,-8.070969,1.1485138000000001,1.235733,-0.46099854,-0.62031555
8.506348,-8.365447999999999,0.84684753,1.6021881000000002,-0.33955383,-1.264801
8.903777999999999,-8.561783,0.43264769999999997,1.6650391,-0.14035034,-1.7899779999999998
9.533463000000001,-8.425308,0.6002350000000001,1.5031128,-0.07749939,-2.2150269000000002
10.019485000000001,-7.958435000000001,1.1389313,1.2730255,-0.26925659999999996,-2.6123657000000002
10.972366000000001,-7.34552,1.4429931999999999,1.153717,-0.6048126,-2.9724274
12.217361,-7.122864,1.7829741999999997,1.1920624,-1.0575409,-3.2248992999999997
13.177429,-6.907379,2.5203857000000003,1.235733,-1.6413116,-3.397461
14.115951999999998,-6.6009216,3.363144,1.1995239,-2.2612915,-3.541275
15.329819,-6.6943054,3.8395996,1.0887299,-2.604309,-3.58815
16.081604000000002,-7.429321300000001,4.141266000000001,0.9502411000000001,-2.571289,-3.4677733999999996
15.957092000000001,-8.245743,4.486023,0.9331969999999999,-2.4210814999999997,-3.2621765
15.411223999999999,-9.193848,3.6672057999999996,1.0184174000000001,-2.2112274,-3.076828
13.960327,-8.940063,1.9745177999999999,1.0173645,-1.8692779999999998,-2.9958649
12.109619,-8.018295,0.58348083,0.8969879000000001,-1.3717957,-3.0065155
11.223755,-7.9680176,-0.096466064,0.7286682,-0.8530120999999999,-3.0193024
11.001099,-8.923309,0.056762695,0.50390625,-0.3800354,-2.969223
10.661118,-9.9552,0.758255,0.23225403,0.03967285,-2.8137054
10.479172,-11.202575999999999,1.0886536,-0.008483886999999999,0.34434509999999996,-2.5846709999999997
10.500717,-12.169846000000001,1.129364,-0.14485168,0.42849729999999997,-2.298111
10.294815,-12.751633,1.3065338,-0.185318,0.3059845,-1.9604186999999997
9.076157,-12.5768585,1.6728363000000002,-0.21195984,0.13768005,-1.5843811
7.598938,-11.269623,2.470108,-0.29185486,-0.017852783,-1.1785126
6.8615265,-10.072525,3.09021,-0.47187805,-0.13183594,-0.73324585
6.832794,-9.205811,2.8244476,-0.69984436,-0.17018127,-0.31033325
7.1105194,-9.007095,2.1085814999999997,-0.9054413,-0.08709717,0.0018005370999999999
6.964477499999999,-8.705428999999999,1.5172119,-1.1366119,0.20585632,0.24681091
6.6532288,-8.738953,0.8875427,-1.4007874,0.6000061,0.6302948
6.160019,-9.009491,0.27462770000000003,-1.4966583,0.8737792999999999,1.2342986999999999
5.489654499999999,-8.944855,0.0040893555,-1.2314148,0.8407593000000001,1.9299164
4.8025208,-8.619232,0.107040405,-0.7009125,0.56591797,2.4859923999999998
4.417053,-8.540237,0.27941895,-0.1821289,0.3304901,2.7597656
4.452957,-9.059769000000001,0.2387085,0.13531494,0.25698853,2.844986
4.4816895,-9.495514,0.035202026000000004,0.21095276,0.3027954,2.8023682
4.294937,-9.507492,-0.20899963,0.07460022,0.37097168,2.6947784
4.4098663,-9.457214,-0.17308044,-0.21195984,0.3965454,2.6106262000000005
5.281357,-9.792404,0.2554779,-0.5262146,0.39120483,2.6191560000000003
6.167206,-10.718948,0.3751831,-0.76483154,0.48388672,2.6798706
5.501617400000001,-11.044571000000001,0.2387085,-0.9768219000000001,0.75553894,2.732071
3.9549712999999995,-10.441222999999999,0.71276855,-1.2559204,1.1145325000000001,2.7416534
3.0738982999999998,-9.167511,1.9768982,-1.569107,1.4277191,2.7139587000000005
3.744278,-8.212219000000001,2.8220520000000002,-1.7736359,1.5044098,2.7171478
5.6428833,-8.035049,2.4437714,-1.7693787,1.3211823,2.7799987999999995
7.1464386,-8.135605,1.3855438,-1.5424652,0.89508057,2.9067688
8.207061999999999,-8.418121000000001,0.24829102,-1.1216888,0.34220886,3.0090332
8.776886,-8.657547000000001,-0.7261505,-0.59757996,-0.10519409,3.0228882
8.748154,-8.837112,-1.4468079,-0.18638611,-0.43009949999999997,2.9003754
8.14003,-8.664734,-1.6167908000000002,-0.046844482,-0.53663635,2.6351318
7.7425995,-8.456436,-1.1547089,-0.031921387,-0.3800354,2.3347168
7.7785034,-8.365447999999999,-0.6471405,0.09271239999999999,-0.23516846,2.0289917
7.759353599999999,-7.9512634,-0.4819335999999999,0.30895996,-0.29055786,1.6135406
7.8335724,-7.800414999999999,-0.43884277,0.48898315,-0.56752014,0.9786377
7.9006042,-8.025482,-0.043807982999999995,0.62960815,-0.9467620999999999,0.13282776
8.216644,-8.592895500000001,0.6074219,0.7521057,-1.1843108999999998,-0.739624
8.570984,-9.069351,1.347229,0.80963135,-1.135315,-1.4693298000000001
9.380234,-9.153152,1.9768982,0.7531738,-0.8583374,-2.011551
10.35228,-8.609665,2.4078673999999998,0.6477050999999999,-0.52171326,-2.4387207
11.020247999999999,-7.3910065000000005,2.2187195,0.65730286,-0.37896729999999995,-2.8509827000000003
11.920471000000001,-6.6320496,1.2849883999999998,0.8032379,-0.44395447,-3.2398071
12.674652,-6.6440277000000005,0.86839294,0.98539734,-0.5973510999999999,-3.5189056000000005
12.957169,-6.2801056,1.4238434,1.1505127,-0.8956299000000001,-3.6392822
13.538955999999999,-5.949707,1.9314116999999997,1.2037811,-1.2705993999999998,-3.6222382000000004
14.635498000000002,-5.906601,1.8404387999999998,1.1356049,-1.6317291,-3.475235
16.098357999999998,-6.6943054,1.7374878,1.1079101999999998,-2.015213,-3.189743
17.034485,-8.212219000000001,1.7997284,1.1952515,-2.334793,-2.8360748
16.665786999999998,-9.605652000000001,1.8284607,1.3060455,-2.4221497000000003,-2.5569763
14.937164000000001,-9.627197,1.7111511000000001,1.2921906,-2.2463837000000004,-2.4227448
13.000259,-8.980758999999999,1.5986176,1.103653,-1.8500976999999998,-2.3684235
11.898926,-8.734161,1.8907166000000002,0.80963135,-1.3494263000000002,-2.332199
11.470367,-9.481155000000001,2.240265,0.4495697,-0.81359863,-2.2768097000000003
10.9843445,-10.687836,2.1875916,0.085250854,-0.35020447,-2.2086334
10.167923,-11.616775500000001,2.015213,-0.19491577,-0.03489685,-2.106369
9.557404,-12.392502,1.620163,-0.36642456,0.07908630000000001,-1.9721375
8.762527,-12.734879,1.1006316999999999,-0.44204712,0.053527832000000004,-1.819809
7.479233,-12.177017,1.3400421,-0.47294617,-0.03489685,-1.6568298
6.435364,-11.166672,2.027176,-0.5528411999999999,-0.08815002400000001,-1.5108795
6.104965,-10.024628,2.5084229,-0.74139404,-0.0029296875,-1.3425751
6.2102965999999995,-8.88739,2.264206,-0.9832001,0.18774414,-1.0805206
6.3515625,-8.398972,1.6105957,-1.1483306999999998,0.35925293,-0.69488525
6.2653656,-8.114059,1.0982361,-1.1493835,0.4551239,-0.21871948
6.037918,-7.8937990000000005,0.6241760000000001,-1.0684357,0.5712433000000001,0.30859375
5.9062347,-7.958435000000001,0.27941895,-1.0364685,0.6766968000000001,0.9008789
5.626114,-8.056595,0.30575562,-1.0055847,0.75553894,1.5869141000000002
5.240646400000001,-8.073364,0.5403899999999999,-0.79678345,0.70973206,2.3293915000000003
5.152069,-8.305603,0.8348694,-0.35043335,0.503067,2.9515076000000002
5.147278,-8.590515,1.0407715,0.1395874,0.29107666,3.2998505
5.3747253,-9.071747,0.89712524,0.45703125,0.23036194,3.389328
5.537536599999999,-9.749298,0.55714417,0.49005127,0.32197570000000003,3.3073120000000005
5.1688232,-10.161102,0.40631104,0.27593994,0.49667358,3.0825348
4.429016000000001,-10.041397,0.758255,-0.05003357,0.6415558000000001,2.8066406
3.9022980000000005,-9.8498535,1.4525757,-0.34724426,0.6681824000000001,2.606369
3.8544160000000005,-10.292786,1.7087555,-0.6050415,0.7012024,2.482788
3.7945557,-10.841064,1.189209,-0.92141724,0.8727111999999999,2.340042
3.5623169999999997,-11.0828705,0.75346375,-1.2985229999999999,1.2018738000000002,2.1823883
3.1600952,-10.091675,1.2299194,-1.614914,1.572586,2.0886536
3.7370910000000004,-8.66951,2.0008545,-1.7704315,1.8708648999999997,2.0598907
5.537536599999999,-8.1380005,1.9170532,-1.7150421000000002,1.9358520000000001,2.0598907
7.381073,-7.848312400000001,1.0575256000000002,-1.4487305,1.7366486,2.1142119999999998
8.690704,-7.867462,-0.11563110000000001,-1.0684357,1.3446198,2.2047577
9.918915,-8.461227000000001,-1.2839966,-0.6977234,0.8737792999999999,2.2825317000000003
10.438461,-8.78923,-1.8633881,-0.45164490000000007,0.46365356,2.287857
9.985961999999999,-8.636002000000001,-1.7436828999999998,-0.40690613,0.17283629999999997,2.1855927000000004
9.332336,-8.506714,-1.2552643,-0.534729,0.059921265,1.9821167000000002
8.970825,-8.193069,-0.9727478,-0.62420654,0.10040283,1.747757
8.669144000000001,-7.8818207,-0.7524871999999999,-0.5112915,0.14407349,1.4995575
8.080169999999999,-7.565796000000001,-0.08689880000000001,-0.25030518,0.08547974,1.1863708
7.661194,-7.558609,0.7367096,0.022399902000000003,-0.05619812,0.7037964
7.567810000000001,-7.6017,1.5100403,0.24078369,-0.19041443,0.08169556
7.654007000000001,-7.807602,2.027176,0.41015625,-0.30653379999999997,-0.5212555
8.104111,-8.252930000000001,2.0032349,0.5742035,-0.37684629999999997,-1.0027466
8.772095,-8.281661999999999,1.6058044,0.7723541,-0.37471008,-1.3425751
9.540633999999999,-7.9608307,0.95936584,0.9758148000000001,-0.45567322,-1.6706696
10.278046,-7.441284,0.27223206,1.1419983,-0.6484833000000001,-2.0520325
11.037018,-7.1252594,-0.17547607,1.2921906,-0.9520874,-2.4312744
11.67627,-7.058212299999999,0.16448975,1.4200287,-1.2780608999999998,-2.7391357000000003
12.1622925,-7.000763,1.2370911,1.4445343000000002,-1.6349182,-2.9553833
12.58606,-6.701477000000001,2.1660461,1.3199005,-1.980072,-3.07576
13.443192000000002,-6.466858,2.4270172000000003,1.1121674,-2.237854,-3.1077117999999997
14.431992000000001,-6.792464999999999,2.3168792999999996,0.9417267,-2.3592987,-3.07576
14.927597,-7.7669067,2.142105,0.89378357,-2.3592987,-3.0395355
15.006607,-9.232147,1.9960631999999998,0.93214417,-2.2229462000000004,-3.0640411
13.943573,-9.433273,2.1588592999999996,0.8959198,-1.8320006999999998,-3.1439362
12.375366,-8.087723,2.343216,0.68074036,-1.1885681000000001,-3.2046509
11.590073,-7.4580535999999995,2.1253509999999998,0.44850159999999994,-0.58776855,-3.175888
11.2213745,-7.9249268,1.8500061,0.35902405,-0.23516846,-3.0427246
10.960403,-9.02626,1.6177673000000001,0.31002808,-0.04447937,-2.8350067
10.804779,-10.426865,1.2323151,0.26741028,0.036483765,-2.5772095
10.653946000000001,-11.825073,0.8444519,0.28126526,-0.02104187,-2.2949219
10.165527,-12.478699,0.9234619000000001,0.34623718,-0.1446228,-1.9870605
9.289246,-12.138717999999999,1.4717255,0.39524840000000006,-0.26712036,-1.6717377
8.415359500000001,-10.939224000000001,2.2977295,0.39524840000000006,-0.35766602,-1.3649445
8.142425999999999,-9.847458,2.9034576000000003,0.34518433,-0.35980225,-1.0442963
8.178345,-9.366226,2.798111,0.20669556,-0.28416443,-0.6746521
7.998779300000001,-9.466782,1.9601439999999999,-0.013824463,-0.14355469,-0.2506714
7.1991119999999995,-9.562561,1.45018,-0.24923706,0.046066284000000006,0.18714905
6.1480559999999995,-9.2608795,1.6417236000000002,-0.48146057,0.2793579,0.5780945
5.4058532999999995,-9.133987,1.5004578000000002,-0.73713684,0.6053314000000001,0.9253844999999999
4.7187195,-8.825134,1.2346953999999999,-1.0077056999999998,0.9568634,1.3461608999999999
4.2207184,-8.430099499999999,1.2969513000000001,-1.2420653999999998,1.2018738000000002,1.921402
3.9142608999999995,-8.327148,1.4070892,-1.2931976,1.1912231000000002,2.5957183999999995
3.7778015,-8.382217,1.3041382,-1.0684357,0.9259796,3.1240845
3.8065186,-8.535446,1.0527496,-0.6796112,0.6234436,3.3350067
3.840042,-8.791625999999999,0.79896545,-0.325943,0.5019989,3.2348784999999998
3.7251282,-9.007095,0.42306520000000003,-0.21089172,0.5755005,2.973877
3.5814667,-9.150757,0.061538696,-0.40583800000000003,0.7810974,2.671341
3.500061,-8.995132,0.023239136,-0.77015686,0.9749755999999999,2.449768
3.8687744,-8.9640045,0.12858582,-1.1280823,1.0761718999999998,2.369873
4.644500700000001,-9.758881,0.051971435999999996,-1.4391479999999999,1.1475525,2.3432465000000002
4.855179,-10.618393,-0.103652954,-1.7214355,1.2902985,2.2718658
4.397888,-11.092452999999999,-0.18266296,-1.9355468999999996,1.4862976,2.1823883
3.7562407999999996,-10.472351,0.29377747,-1.9888153000000002,1.6450348000000001,2.147232
4.6636505,-9.634383999999999,1.2538605,-1.8513947,1.6492919999999998,2.1589508
6.986022999999999,-9.306381,1.7757874,-1.5914764,1.4649963,2.1461639999999997
9.399384,-9.227371,1.5243988000000002,-1.3187714,1.140091,2.0918427
10.728164999999999,-9.141174000000001,0.59783936,-1.0993195,0.74061584,2.0854492
11.101654,-9.174698,-0.68066406,-0.97468567,0.38801575,2.1493683
10.661118,-9.160324000000001,-1.5114441,-0.9342040999999999,0.16430664,2.173874
9.665131,-8.980758999999999,-1.5090485,-0.91716003,-0.0061340330000000005,2.1131439999999997
9.025879,-8.762894000000001,-1.1379546999999999,-0.8415222,-0.11904907,2.001297
8.918152000000001,-8.437286,-0.6591034,-0.64019775,-0.19680786,1.8713379
8.740982,-8.07576,-0.029434204,-0.30996704,-0.34275818,1.6476288000000001
8.23819,-7.7501373,0.8348694,0.09164429,-0.6442260999999999,1.286499
7.823989999999999,-7.4748077,1.6776276,0.47407532,-0.98831177,0.76664734
8.00116,-7.3910065000000005,1.9840851000000002,0.8181609999999999,-1.28125,0.079559326
8.566193,-7.5322723,1.6417236000000002,1.1462555,-1.4101562,-0.70448303
8.839141999999999,-7.5897369999999995,1.0982361,1.3806152,-1.3291931000000001,-1.4533539
8.958847,-7.5634003,0.55474854,1.3497162,-1.1235962,-2.1212769000000002
9.373047,-7.230606,0.34884644,1.1356049,-0.91693115,-2.727417
10.009903,-6.723037700000001,0.5906677,1.0375976999999998,-0.84342957,-3.1876067999999997
10.826324000000001,-6.7373962,1.1245728000000002,1.1601105,-0.9808502,-3.4581910000000002
11.455994,-6.660782000000001,1.8691711,1.3561096000000001,-1.312149,-3.6083832
12.229324,-6.4405212,2.6065826000000003,1.4360046,-1.6615448,-3.6797638
13.105606,-6.1172943,3.0878143,1.3657073999999998,-1.9268036,-3.6818847999999997
14.305099499999999,-6.3830566,3.1740112000000003,1.2485198999999998,-2.0173492,-3.6318207
15.760773,-7.211441000000001,3.1787872000000004,1.1196289,-1.9427794999999999,-3.5615082
16.862106,-8.391785,3.2458343999999997,0.960907,-1.7371826000000001,-3.5306243999999998
16.629868,-8.9664,3.1045685,0.80537415,-1.4016266000000002,-3.5284882000000004
15.1909485,-8.691071,2.1636505,0.6764679,-1.0362396,-3.5018616000000002
13.914841000000001,-8.837112,1.1724548000000001,0.5923156999999999,-0.71559143,-3.4400787000000004
12.918854,-9.830703999999999,1.3592072,0.49430847,-0.371521,-3.3431396
11.930054,-11.003860000000001,2.0918273999999997,0.35369873,-0.055130005,-3.1652374
11.353043,-12.124344,2.3695526,0.22373962,0.14193726,-2.9149017
10.979553,-13.153854,2.118164,0.13851929,0.23461914,-2.6134338
10.369034,-13.450745000000001,1.7039642,0.10443115,0.20585632,-2.2246094
9.64119,-13.046111999999999,1.6776276,0.12466431,0.03967285,-1.7633514
8.733794999999999,-12.033371,1.8907166000000002,0.15023804,-0.20852661,-1.2616119
8.128052,-11.006256,1.936203,0.12573242,-0.38856506,-0.7577362
7.733017,-10.381378,2.0870361,3.0517577999999997e-05,-0.4503479,-0.24320984
7.2517853,-10.168289,2.106186,-0.19810486,-0.3842926,0.24893188
6.7082977,-10.053360000000001,2.063095,-0.39730835,-0.17443848,0.63882446
6.1073455999999995,-9.895355,1.8500061,-0.6092987,0.16004944,0.99461365
5.211914,-9.57692,1.3927155,-0.87667847,0.5435485999999999,1.4398956
4.515213,-9.373413000000001,1.1006316999999999,-1.0769501,0.8002776999999999,1.9906464
4.112976000000001,-9.514664,0.92585754,-1.0492553999999998,0.78855896,2.5381927
3.416275,-9.454819,0.8779601999999999,-0.8053130999999999,0.63835144,2.9685516
2.7985687,-9.375809,0.8659973,-0.42607117,0.47216797,3.2487182999999997
2.5926666000000003,-9.653534,0.7271271,-0.072402954,0.34753418,3.3786774
2.6118164,-9.957596,0.4948883,0.10017395,0.37843323,3.3914642
2.4801330000000004,-9.701416,0.26264954,0.07460022,0.5286255,3.3328705000000003
2.6525269000000002,-9.517059,0.15252686,-0.100097656,0.7075958000000001,3.2764130000000002
3.6197815,-9.873795,0.30096436,-0.29504395,0.8769684000000001,3.290268
4.342819,-10.472351,0.32011414,-0.42713928,1.0442200000000001,3.3477936
4.242264,-10.76683,0.023239136,-0.5954437,1.2924194,3.3797455000000003
3.7418823,-10.460372999999999,0.18843079,-0.85217285,1.6045532,3.3978577000000003
3.780182,-9.794785000000001,1.0575256000000002,-1.1046448,1.8239898999999997,3.4415282999999994
4.9796906,-9.71579,1.8164977999999998,-1.2282256999999999,1.8399657999999999,3.4745483
6.4976044,-9.8498535,2.10141,-1.216507,1.6961669999999998,3.4692230000000004
7.7521667,-9.847458,1.8188933999999997,-1.1174316,1.489502,3.4575042999999996
8.791260000000001,-10.194626,1.0024719000000002,-0.95124817,1.2530059999999998,3.4777527000000004
9.339523,-10.261658,0.21237183,-0.72328186,0.9803009,3.453247
9.315582000000001,-10.053360000000001,-0.36462402,-0.43139648,0.71292114,3.2646942
8.834351,-9.73494,-0.5202484,-0.13206482,0.48709106,2.940857
8.45607,-9.421294999999999,-0.17308044,0.07673645,0.16004944,2.4881287
8.544647,-9.373413000000001,-0.1443634,0.23332214,-0.26712036,1.7530823
8.781677,-9.533828999999999,-0.37420654,0.39631653,-0.7709961,0.76345825
8.717025999999999,-9.631989,-0.16590881,0.44424438,-1.1651459,-0.22297668
8.913361,-9.89296,0.39433290000000004,0.33346558,-1.2780608999999998,-1.13591
9.499939,-10.302368,0.9545745999999999,0.10122681,-1.0777893,-1.9710693
9.993149,-10.668671,1.3041382,-0.12460327,-0.51319885,-2.647522
10.091308999999999,-10.683044,1.6800232,-0.12567139,0.01411438,-3.1450042999999996
10.292419,-10.027023,1.9912720000000002,0.087387085,0.16004944,-3.5817566
11.427277,-9.5529785,2.1780242999999997,0.33026123,0.07269287,-3.9844207999999997
12.444809,-8.873016,2.2283020000000002,0.48898315,-0.049804688,-4.1974792
12.818298,-7.481994599999999,1.8452301,0.58699036,-0.39601135,-4.185760500000001
14.271576000000001,-6.5674133,1.5459441999999999,0.73187256,-1.0468903,-4.082428
15.916397,-5.750992,1.8715668,0.9502411000000001,-1.8266754,-3.983368
16.35933,-5.8180237,1.8859253,1.1483917,-2.4189606,-3.9173126000000003
16.77591,-7.3239746,1.6872101000000002,1.2591705,-2.6575775,-3.8502045
17.142227,-9.392563,1.8284607,1.2538452,-2.584076,-3.7788239000000003
16.153427,-10.501083,2.1756287,1.136673,-2.252777,-3.746872
13.81189,-9.799576,3.0710602000000002,0.993927,-1.8469086,-3.7276917000000003
12.298752,-9.248917,3.5163727,0.914032,-1.5390472,-3.6456757000000004
12.076096000000001,-10.266449,3.0973968999999997,0.8447876,-1.3100128,-3.4901428
11.487122,-11.825073,2.4198303,0.73399353,-1.1587524,-3.189743
10.486343,-13.053299,1.9721221999999998,0.55929565,-1.0490264999999999,-2.7977142
10.170319000000001,-14.157028,2.0415497,0.33026123,-0.8764495999999999,-2.4003754
9.935684,-14.166610999999998,2.5850372000000004,0.099105835,-0.56433105,-2.0083618000000003
9.485565,-13.445953,2.908249,-0.11608887,-0.17550659,-1.6781311
8.817596,-12.481079,3.0207825,-0.31954956,0.18667603,-1.3500214
8.118484500000001,-11.513824000000001,2.9273987,-0.54325867,0.4785614,-0.96972656
7.847931,-10.936829,2.5658722000000003,-0.7403259,0.7001343000000001,-0.45947266
7.6252747,-10.80275,2.1756287,-0.79785156,0.7779083000000001,0.15199279999999998
7.041092,-10.769226,2.0798492,-0.6519165,0.7438201999999999,0.7272339
6.2725525,-10.714172,1.8045197,-0.37919617,0.70973206,1.2002106000000001
5.1352997,-10.520233000000001,1.37117,-0.185318,0.711853,1.6721343999999998
4.0339813,-9.912109,1.0216216999999999,-0.13418579,0.7384949000000001,2.2931824
3.6054077000000007,-9.3159485,0.71995544,-0.13845825,0.6830901999999999,3.0314026000000003
3.4617614999999997,-8.9664,0.6816406,-0.16615295,0.48495483,3.6748199999999995
3.6532898,-8.992737,0.6505126999999999,-0.27053833,0.34220886,4.0625763
3.55513,-9.100479,0.5332031,-0.49424744,0.45939636,4.2074584999999995
3.2247314,-9.282425,0.2674408,-0.77334595,0.79174805,4.125427200000001
2.5304108,-9.30159,0.20999146,-0.94911194,1.0314331,3.8932037000000004
1.8720093,-8.959213,0.65530396,-0.91397095,1.0356903,3.5853424
2.1401672,-8.839508,1.3208923000000001,-0.6934509,0.8727111999999999,3.293457
3.1983947999999995,-9.344681,1.5531311,-0.48892212,0.7288971,3.1102295
3.9118652000000003,-10.084488,0.76304626,-0.49638367,0.772583,2.974945
3.8424377,-10.728531,-0.26167297,-0.6604309,1.0367584,2.813034
3.471344,-10.489105,-0.72854614,-0.8415222,1.4277191,2.622345
4.1464996,-9.9839325,-0.7812195,-0.9789429000000001,1.8069457999999998,2.3901215000000002
6.0858,-10.297577,-0.9033203000000002,-1.0630951000000002,2.030655,2.1184692000000003
8.149612,-10.893723,-0.9583893,-1.0790863000000002,2.0359802,1.8819884999999998
10.062576,-11.690994,-0.70939636,-1.0279540999999999,1.8293152,1.7328491000000001
11.202209,-11.810715,0.037597656,-0.9789429000000001,1.5108032,1.6902313000000002
11.709778,-11.65509,0.9042969000000001,-1.0279540999999999,1.1677856000000002,1.7275238000000002
11.705002,-11.33905,1.6249542,-1.139801,0.7821655,1.7445679
10.84787,-10.553757000000001,1.7326965,-1.1035767,0.37950134,1.7094116000000001
10.009903,-9.624802,1.0718994,-0.79678345,-0.07217407,1.66893
9.545425,-8.738953,0.60502625,-0.32380676,-0.533432,1.5293883999999998
9.195877000000001,-7.8578796,0.71995544,0.18751526,-1.0010834000000002,1.2385712
9.164749,-7.3407288,0.9210663,0.6498413000000001,-1.4293213,0.7847595
9.349105999999999,-7.2832794000000005,0.92585754,1.0344086,-1.6572876,0.203125
9.34671,-7.470016499999999,0.7774048000000001,1.3273468000000002,-1.6125488000000001,-0.4701233
9.174332000000001,-7.721420299999999,0.5092621,1.4573059,-1.3132172,-1.1838378999999999
8.894211,-7.826751700000001,0.18125916,1.3838043,-0.92225647,-1.8570862000000001
8.480011,-7.5490265,-0.1850586,1.2346802,-0.7273102,-2.4919891
8.609299,-7.355102499999999,-0.27365112,1.153717,-0.85194397,-3.0437927000000005
9.440078999999999,-7.625641000000001,0.5164489999999999,1.1281433,-1.1619415000000002,-3.4411468999999997
10.129608000000001,-7.7309875,1.9218445,1.059967,-1.566742,-3.7032013
11.173477,-7.668747,2.9297942999999997,0.9193573,-2.032257,-3.843811
12.339462,-7.4484710000000005,3.399063,0.7489166,-2.4626312,-3.8533936
13.823868,-7.8291473,3.3535767,0.61361694,-2.7193604,-3.7671050000000004
15.370514000000002,-8.628815,3.1333007999999998,0.5688781999999999,-2.7715607,-3.6392822
16.373688,-9.296799,2.8364257999999998,0.6125641,-2.6650237999999997,-3.5199738
16.22525,-9.112442,2.398285,0.5965729000000001,-2.3209534,-3.4272919
14.618744,-7.9081573,1.5770721,0.42401123,-1.7020263999999998,-3.3271637000000003
13.277985000000001,-7.651977499999999,0.7558594,0.17260742,-1.0383759,-3.1833496
12.466353999999999,-8.485168,0.48052979999999995,-0.03086853,-0.56858826,-2.9638977000000004
11.673874,-9.651138000000001,0.49967957,-0.24923706,-0.25326538,-2.6432648
11.0849,-11.001465,0.47573853,-0.5400543000000001,-0.066848755,-2.3108978
10.653946000000001,-12.370956,0.5810852,-0.7296753,0.1174469,-2.1266022
9.856674,-13.031754,1.0192261,-0.7520446999999999,0.33369446,-2.0797272
8.961243,-12.895278999999999,1.6943816999999999,-0.7168884,0.54034424,-1.9977112000000001
8.197494500000001,-12.148285000000001,2.391098,-0.69451904,0.56484985,-1.7175446
7.7018889999999995,-11.075683999999999,3.0255585,-0.67214966,0.43275452,-1.264801
7.5175323,-10.2808075,2.9345856,-0.6082306,0.2601776,-0.7268524000000001
7.4098053,-10.048584,2.2378693,-0.49317932,0.050323485999999994,-0.16119385
6.964477499999999,-9.969574,1.5794678,-0.36854553,-0.13502502,0.35226440000000003
6.298889,-9.746902,1.3184966999999999,-0.31634520000000005,-0.08815002400000001,0.7709198
5.4776764,-9.804367,0.8947296,-0.3312683,0.16323853,1.2300415
4.8025208,-9.5529785,0.30096436,-0.3110199,0.35499573,1.8127441000000002
4.9006805,-9.081314,0.55474854,-0.12780762,0.40931702,2.3666840000000002
5.199951,-8.9664,1.2227325,0.16728210000000002,0.40505979999999997,2.7725525
4.9509583,-9.500305,1.323288,0.3984375,0.4540558,3.0292816000000005
3.9238434,-9.828308,1.0335846,0.48153687,0.58828735,3.1251526000000003
3.2055817,-10.228149,0.75346375,0.46128845,0.7107849,3.1453857000000003
2.8919373,-10.405319,0.79896545,0.4176178,0.7800293,3.1954498
2.64534,-10.024628,1.1078033,0.38459778,0.8183899,3.2817383
3.2486725,-10.118011,1.2993469,0.32174683,0.9046630999999999,3.343521
4.498443599999999,-10.94162,1.0599213,0.12466431,1.1038818000000001,3.3105010000000004
4.606186,-10.929642,0.8133239999999999,-0.19064331,1.3925629,3.1730804
3.6796265,-9.828308,0.9641571,-0.49745178,1.6897736,2.941925
3.7179413,-8.916122,1.5124358999999998,-0.69026184,1.8655396,2.670288
4.850403,-8.803589,1.6943816999999999,-0.7350005999999999,1.8591461,2.4103546000000002
6.1767883,-8.98555,1.1724548000000001,-0.6519165,1.7046814,2.2068939999999997
7.474441499999999,-9.3806,0.40391540000000004,-0.5443115,1.4500885000000001,2.1003722999999996
8.242981,-9.555374,-0.15872192,-0.5166168,1.1720581,2.0950317
8.487183,-9.744507,-0.37660217,-0.54112244,0.9238434000000001,2.177063
8.45607,-9.87619,-0.3622284,-0.5081024000000001,0.6372833000000001,2.270813
8.389023,-9.608047500000001,-0.22814941,-0.31954956,0.29000854,2.274002
8.503952,-9.114838,-0.33589172,-0.060684204000000005,0.013046265,2.1397858
8.707458500000001,-8.468399,-0.47955322,0.019210815,0.09826660000000001,1.8862457
9.088135000000001,-8.140396,-0.2760315,-0.1821289,0.5009308,1.571991
9.258118,-7.855484,0.18125916,-0.51449585,0.76937866,1.1213837
9.155167,-7.666351299999999,0.55474854,-0.56669617,0.6053314000000001,0.5003357
9.152771000000001,-7.934494,0.77023315,-0.16401672,0.08015442,-0.18782043
8.894211,-8.238555999999999,0.56433105,0.41441345,-0.43649292,-0.9303130999999999
8.652389999999999,-8.497131,0.056762695,0.81921387,-0.6005554,-1.690918
8.379456,-8.609665,-0.19703674,0.8458556999999999,-0.5717926,-2.393982
8.472824000000001,-8.724578999999999,0.066329956,0.6232147,-0.5515441999999999,-2.9766846
9.349105999999999,-8.954422000000001,0.7151642,0.43678284,-0.6506195,-3.3995972
10.627609,-8.741348,1.3113098,0.39950562,-0.93717957,-3.6563263
11.788788,-8.449249,1.0671082,0.42826843,-1.4090881000000002,-3.8203735
12.559723,-7.922530999999999,0.5667267,0.3707428,-1.9268036,-3.8992004000000002
13.294754000000001,-7.2521515,0.29856873,0.18112183,-2.2900543,-3.9066620000000003
14.8414,-7.958435000000001,1.1724548000000001,-0.046844482,-2.298584,-3.8256989000000003
15.839782999999999,-8.542618,3.0064087,-0.12246704,-2.1047057999999996,-3.6882782
16.455092999999998,-8.82753,3.952118,-0.006362915,-1.8948517,-3.571106
16.052872,-8.628815,3.6217193999999995,0.13212585,-1.5784607,-3.5061187999999994
14.321854,-7.910553,2.2785797000000003,0.23013306,-1.1789856,-3.5018616000000002
12.906891,-8.504318,0.9617614999999999,0.3515625,-0.7997588999999999,-3.4837493999999998
11.944412,-9.749298,0.8229065000000001,0.45063782,-0.36619568,-3.4017334000000004
11.132782,-10.979919,1.3496246,0.45703125,0.07057189999999999,-3.1929321
10.795197,-12.203354,1.7757874,0.40696716,0.31877136,-2.889328
10.450439,-13.005417,1.7279053,0.3238678,0.38908386,-2.5750884999999997
10.139191,-13.31427,1.5100403,0.24929810000000002,0.3954773,-2.2608337000000005
9.648375999999999,-13.465103,1.7662201000000002,0.24929810000000002,0.28042603,-1.9082183999999998
8.621262,-12.684586,2.7957153,0.23545837,0.10040283,-1.5236664
7.670761,-11.157089,3.8778992,0.12998962,-0.03489685,-1.1369781
7.191925,-10.118011,4.0215607,-0.010620117,-0.068984985,-0.626709
7.1105194,-9.603256,3.6672057999999996,-0.17147827,-0.033828735,0.03907776
6.938141000000001,-9.608047500000001,3.3296356,-0.32487488,0.09080505,0.68782043
6.6005554,-9.737335,2.9130402,-0.5059662,0.29747009999999996,1.2822418
5.681183,-9.624802,2.1564636000000004,-0.7541809,0.56910706,1.8894501
4.754623400000001,-9.30159,1.4238434,-0.9203644,0.7384949000000001,2.5381927
4.4936676,-9.20343,0.8229065000000001,-0.85324097,0.73316956,3.1176909999999998
4.4314117,-9.562561,0.38716125,-0.58799744,0.6372833000000001,3.5118407999999994
4.0507355,-9.63678,0.43743896,-0.23751831,0.50520325,3.705719
3.6413269999999995,-9.799576,0.33688354,0.043701172,0.42103577,3.6929321
3.4066925,-9.828308,-0.10125732400000001,0.120407104,0.50839233,3.5512542999999996
2.590271,-9.481155000000001,-0.16111755,-0.0074310303000000005,0.71824646,3.3999940000000004
1.6302032,-9.107650999999999,-0.18745422,-0.26202393,0.90786743,3.3190307999999997
2.0108794999999997,-9.564941000000001,-0.19703674,-0.5794678000000001,1.0346375,3.2615051
2.8416595,-10.163497999999999,-0.33589172,-0.94059753,1.1486206,3.1358032000000002
3.3157196000000004,-10.553757000000001,-0.67108154,-1.3294219999999999,1.3148041000000001,2.956833
3.3875427000000005,-10.141952499999999,-0.34068298,-1.6788177,1.5566101,2.7544402999999997
4.069885299999999,-9.801971,0.5786896,-1.9121245999999998,1.7686005,2.5541687
5.59021,-9.768448,1.3161011,-2.079361,1.8730011000000002,2.3911896
7.211075,-9.778030000000001,1.6105957,-2.2146605999999998,1.8229218,2.3251342999999998
8.788864,-9.921677,1.3256836,-2.1976166,1.6535491999999998,2.3762665000000003
10.007507,-10.352646,0.52841187,-1.9600525000000002,1.442627,2.496643
10.266083,-10.436432,-0.24491882,-1.5477905,1.2050781000000002,2.5701447
9.667525999999999,-9.924072,-0.75727844,-1.0897369,0.9036101999999999,2.4572296000000002
9.071381,-9.275253,-0.9583893,-0.63487244,0.63623047,2.2175446
8.956451,-8.820358,-0.89134216,-0.14697266,0.34220886,2.0034332
8.954056,-8.489944,-0.6447449000000001,0.33132935,-0.057266235,1.7371063000000002
9.035461,-8.434891,-0.19941711,0.7180175999999999,-0.5664673000000001,1.286499
9.298828,-8.741348,0.39912415,0.9726104999999999,-1.0245209000000002,0.61112976
9.480789,-9.253708,0.7558594,1.1025848,-1.1470337,-0.088760376
9.2677,-9.761275999999999,0.9450073,1.1292114,-0.94888306,-0.60754395
9.059402,-10.09407,1.6464995999999998,1.1281433,-0.58776855,-0.97398376
9.124054,-9.948013000000001,2.714325,1.1654358,-0.28948975,-1.2850494
9.418533,-9.074142,3.5690459999999997,1.2197571000000003,-0.40986633,-1.6493683000000001
10.359451,-7.7980347000000005,3.8204345999999996,1.3071136,-0.9989624,-2.1628265
11.616408999999999,-7.228210400000001,3.5618591,1.3891296,-1.6679381999999998,-2.7050476000000003
12.157501,-6.818802000000001,3.4660949999999997,1.2943268,-2.1760712000000004,-3.208908
12.621979,-6.2920685,3.2506256000000002,0.91296387,-2.4977875,-3.6275635000000004
13.388123,-5.794082599999999,2.8819122000000004,0.45170593,-2.6288147,-3.9247742
14.499023000000001,-5.901825,2.453354,0.14703369,-2.554245,-4.097351000000001
15.277145,-7.522689999999999,2.1229553,0.10549927,-2.378479,-4.1431427
15.080826,-9.500305,1.833252,0.24717712,-2.075943,-4.0994720000000004
14.558883999999999,-10.819504,1.778183,0.38565063,-1.6072235000000001,-3.9886932
13.141525,-10.022247,2.0439453000000003,0.44744873,-1.041565,-3.8022614000000003
11.57811,-8.628815,1.9697266,0.42507935,-0.44395447,-3.5466002999999997
11.250092,-8.269684,1.8284607,0.36116028,0.023696900000000003,-3.2462006000000003
11.415298,-9.428482,1.8093109,0.3238678,0.29000854,-2.936203
11.415298,-10.900909,1.4837036,0.31854248,0.3539276,-2.6847992
11.252487,-12.342224,0.78219604,0.31321716,0.3262329,-2.506897
10.98674,-13.656630999999999,1.1221771,0.32279968,0.25166320000000003,-2.4035797000000003
10.261291499999999,-14.233642999999999,2.4054717999999995,0.43145752,0.14300537,-2.2384644000000002
9.155167,-13.647064000000002,3.6935425000000004,0.5656891,-0.031692505,-2.0190125
8.345932000000001,-12.833038,4.4213867,0.50709534,-0.08921814,-1.8070221000000002
7.5366974,-12.050125,4.323226999999999,0.22692871,0.043930054,-1.503418
6.51915,-11.145126,3.727066,-0.16615295,0.18881226,-1.0016785
5.685974,-10.615997,2.9034576000000003,-0.52407837,0.20585632,-0.2986145
4.922226,-10.118011,2.1468964,-0.71902466,0.12382507,0.53868103
4.4409943,-9.438049000000001,1.723114,-0.7520446999999999,0.017303467,1.4537506000000002
4.390716599999999,-8.896973,1.5004578000000002,-0.86177063,-0.08921814,2.4423217999999998
4.3667755,-8.279266,1.3328705,-1.3422089,0.08761597,3.4053192
4.6157684,-8.188278,1.1724548000000001,-1.8599243000000003,0.598938,4.0135803
4.270996,-8.454041,1.3304749,-1.8556519,0.9110565,4.1840209999999995
3.6125946000000004,-8.317566000000001,1.3927155,-1.2793579,0.84394836,4.138214
3.6485138,-8.896973,0.5164489999999999,-0.40583800000000003,0.49134827,4.0711059999999994
3.4617614999999997,-9.952805,-0.6160126,0.35476685,0.11105347,4.0806885
2.6429443,-10.520233000000001,-1.2983704,0.85224915,-0.17764282,4.0466003
1.7427216,-10.661499000000001,-1.3462524,1.0397339,-0.29801940000000005,3.8260956
1.4003601,-10.7836,-0.6662903,0.7968445,-0.06791687,3.4319458
1.5128784,-11.032592999999999,0.08547974,0.18005371,0.49667358,3.0644226000000003
1.5775298999999998,-11.621567,-0.31913757,-0.59225464,1.1848296999999999,2.751236
1.5799103,-11.999847,-1.9902802,-1.2537842,1.7504883000000002,2.4252777
3.5575256,-11.765213000000001,-1.9687346999999997,-1.6734924,2.14357,2.0662689999999997
6.42099,-11.425247,0.5523529,-1.873764,2.4152222,1.7754517
8.39621,-11.164276,2.9513397,-1.9078522,2.4983063,1.6284485
9.531067,-11.456375,3.9042358,-1.8631133999999998,2.3704681,1.6891785
9.880614999999999,-12.030975,2.956131,-1.7757568,2.0562134,1.9224701000000002
10.385788,-12.421234,1.4453888000000001,-1.5722961000000002,1.5289153999999998,2.1408386000000004
11.171097,-12.066895,0.27462770000000003,-1.2697601,1.0122681,2.1493683
11.903717,-11.386932,-1.111618,-0.99172974,0.63409424,1.9373778999999998
11.302764999999999,-10.043792999999999,-2.0094452,-0.7797394,0.41996765,1.6465607
10.211014,-8.712616,-2.1602783,-0.57307434,0.27403259999999996,1.3557434
9.437683,-7.7070465,-1.3989258,-0.36322020000000005,0.07801819,1.0713196000000003
9.131226,-7.142013499999999,-0.2425232,-0.20130920000000002,-0.28097534,0.69207764
8.930114999999999,-7.4508667,0.5786896,-0.04045105,-0.8487549000000001,0.10832214
8.523102,-8.0542145,1.0240173000000001,0.18432617,-1.3579558999999999,-0.6288451999999999
7.8647003,-8.738953,1.129364,0.48472595,-1.4112091,-1.344696
7.0746155,-9.076538000000001,1.0910492,0.81069946,-1.0692596,-1.9614868000000003
6.952499400000001,-8.439667,1.4645386,1.0280151,-0.63464355,-2.506897
7.989197,-7.5634003,2.1037903,1.1728821000000003,-0.3523407,-3.000122
9.44487,-7.089339999999999,2.2857513,1.3710327,-0.3800354,-3.3761597
10.416916,-6.9792175,2.1995697,1.5499878,-0.6207885999999999,-3.5657806000000005
11.075317,-6.969635,2.2929382,1.6437378,-1.0277252000000001,-3.6499328999999996
11.515854,-7.005539,2.5155945,1.6852875,-1.5347899999999999,-3.7170410000000005
12.133560000000001,-7.007934599999999,2.5970001,1.7055206000000003,-2.0066986,-3.731964
13.51741,-7.4652405,2.8819122000000004,1.7364197000000001,-2.3039092999999995,-3.653122
15.442352,-9.1770935,3.5546875,1.7779541,-2.3752747000000003,-3.5210419
16.253982999999998,-10.814728,4.323226999999999,1.8248291,-2.3124237,-3.3473968999999997
14.98027,-10.498688000000001,5.0414886,1.7630463,-2.0897827,-3.1705627
13.143906,-9.562561,4.761368,1.5467986999999999,-1.6913756999999998,-3.0054474
12.095245,-9.847458,3.8587493999999998,1.3252258,-1.3206635,-2.8318024
11.539795,-11.099625,3.2434387000000005,1.1430664,-1.0330504999999999,-2.6890717
10.816742,-12.430800999999999,2.5993958,0.91189575,-0.7326355,-2.5995789
10.196655,-13.436371,2.0104218,0.65197754,-0.44502258,-2.5186157000000002
10.041031,-14.111542000000002,2.0104218,0.39097595,-0.18508911,-2.3907928
9.485565,-14.192947,2.094223,0.16088867,0.010910033999999999,-2.205429
8.446487,-13.441162,2.3791351,-0.056427002000000004,0.16751099,-1.9689484
7.4983826,-12.598403999999999,2.6089783,-0.26309204,0.2793579,-1.6568298
6.5885925,-11.580872,2.786148,-0.44525146,0.28042603,-1.2349854
6.0331269999999995,-10.762054,2.4509583,-0.61994934,0.18667603,-0.72257996
5.7985077,-10.297577,1.7039642,-0.74671936,0.09826660000000001,-0.19102478
5.420212,-9.713394000000001,1.3376465,-0.75523376,0.06629944,0.32350159999999994
5.1855927,-8.911331,1.3041382,-0.69132996,0.1685791,0.75920105
5.2095337,-8.600082,0.90908813,-0.6689606,0.4039917,1.1671906
5.101791400000001,-8.580933,0.56433105,-0.73713684,0.6564635999999999,1.6593474999999998
4.716324,-8.427703999999999,0.34884644,-0.7946625,0.7342224,2.2729340000000002
4.244659400000001,-8.506714,0.25068665,-0.6891937,0.58296204,2.8567047000000003
3.9070892,-8.88739,0.09985351599999999,-0.44204712,0.35073853,3.2881317
3.5623169999999997,-9.488327,-0.11323547,-0.17254639,0.18881226,3.5139769999999997
3.1409302,-10.005478,-0.18266296,-0.002105713,0.15472412,3.5065155
2.7770232999999998,-10.228149,-0.16590881,-0.024475097999999997,0.3017273,3.3882751000000004
2.7051849999999997,-10.161102,0.15492249,-0.23219299999999998,0.5584564000000001,3.2615051
2.8129272000000003,-9.842682,0.9282379000000001,-0.54644775,0.83969116,3.1954498
3.3899383999999997,-9.852249,1.5172119,-0.82554626,1.0346375,3.18161
3.8615875,-10.177856,1.3999023000000002,-0.9672241,1.1688538,3.1517792
3.6700592000000003,-10.405319,0.7558594,-1.0332794,1.2892303,3.0388641
3.0810852000000004,-9.981537,0.42546082,-1.090805,1.4191895,2.8630980999999998
3.3995056000000003,-9.562561,0.82051086,-1.1589813,1.5448913999999998,2.6873322
4.8456116,-9.823516999999999,1.2801971,-1.2207642,1.5608673,2.5552368
6.701111,-10.17308,1.2490691999999999,-1.2409973,1.4511566,2.449768
8.638031,-10.54657,0.8420563,-1.1461945,1.2018738000000002,2.4135590000000002
9.847092,-11.044571000000001,0.169281,-0.93634033,0.8822937,2.430603
10.057785,-10.946396,-0.38616943,-0.6785431,0.59254456,2.3986359
9.612457000000001,-10.563324,-0.637558,-0.48040770000000005,0.37950134,2.2622833
8.980392,-10.096466,-0.3502655,-0.36642456,0.27616882,2.0449677
8.736191,-9.524246,0.36322020000000005,-0.2524414,0.24420166,1.7861175999999999
8.858292,-8.9640045,0.88275146,-0.09690857,0.21757507,1.4345703
8.96843,-8.501923,1.129364,0.10122681,0.06097412,0.94029236
8.867874,-8.286438,1.2107544,0.33665466,-0.23622131,0.28195190000000003
8.649994,-8.197861,1.2035828000000002,0.5667572,-0.5068054,-0.4477539000000001
8.755341,-8.475586,1.1868134,0.7095031999999999,-0.61013794,-1.1039581
8.791260000000001,-8.803589,1.3759613000000002,0.6977844,-0.5068054,-1.6269989
8.88942,-8.834717,1.5986176,0.5720824999999999,-0.34062195,-2.0712128
9.382614,-8.444458000000001,1.8308563000000002,0.5241394,-0.36619568,-2.5111694
10.0961,-7.8578796,1.7805786,0.63705444,-0.5973510999999999,-2.9298096
10.960403,-7.6400146,1.5028534,0.85118103,-0.94569397,-3.2568512000000003
11.671478,-7.343124400000001,1.6297455,1.0461273000000002,-1.3739318999999999,-3.4688415999999997
12.454376,-7.096527,1.9074706999999997,1.103653,-1.8032379,-3.6073150000000003
13.337845000000002,-6.948089599999999,2.2019653,1.0216216999999999,-2.1047057999999996,-3.6541900000000003
14.429595999999998,-7.307220500000001,2.4318085,0.9438629000000001,-2.3124237,-3.635025
15.411223999999999,-8.329544,2.4509583,0.900177,-2.328415,-3.5849457
15.734435999999999,-9.861832000000001,2.1205597000000003,0.8682251,-2.1483765,-3.5274199999999998
14.862945999999999,-10.287994,1.6273499,0.8234863000000001,-1.8692779999999998,-3.4379425
13.189407000000001,-9.335098,1.2514648000000002,0.71162415,-1.5092163,-3.3463287000000004
12.001877,-8.609665,1.5124358999999998,0.564621,-1.1310577,-3.2675018
11.590073,-9.1770935,1.9601439999999999,0.4453125,-0.8221283000000001,-3.1854706000000004
11.2812195,-10.412491000000001,2.2594147,0.35583496,-0.53237915,-3.061905
10.912521,-11.710158999999999,2.3264617999999997,0.28019714,-0.26818848,-2.8627013999999997
10.625214,-12.7612,2.1445007,0.22799683,-0.11904907,-2.6187592
10.052994,-13.199341,1.8979034,0.15130615,0.022628784,-2.3875884999999997
9.282059,-12.859375,2.106186,0.035186768,0.18028260000000002,-2.1500397
8.606902999999999,-12.105194000000001,2.3504028,-0.12034607,0.23248291,-1.8262023999999997
8.087357,-11.494675,2.5682678,-0.3302002,0.15472412,-1.3926392
7.3283997,-10.7309265,2.7095337,-0.5283356,0.08229065,-0.8685303
6.8639220000000005,-10.228149,2.4174347000000003,-0.61250305,-0.04234314,-0.30073547
6.672378500000001,-10.09407,2.0559081999999997,-0.6423187,-0.080703735,0.17649841
6.432968,-9.940842,1.8404387999999998,-0.74246216,0.17495728,0.5205841
6.042709400000001,-9.847458,1.7015686,-0.93634033,0.549942,0.93603516
5.223892,-9.651138000000001,1.5794678,-1.0918579,0.8514099,1.5666656
4.4026794,-9.076538000000001,1.5004578000000002,-0.99598694,0.9110565,2.2803955
4.2279053,-9.062164,1.1963959,-0.6103668000000001,0.74168396,2.8524475
3.8496246,-9.023864999999999,0.79896545,-0.12246704,0.47644043,3.196518
3.1888275,-8.997527999999999,0.41110230000000003,0.32067870000000004,0.23568726,3.3158263999999997
2.8967285,-9.514664,0.008865356,0.6157531999999999,0.095062256,3.2668304
2.760254,-10.149139,-0.034225464,0.7254791,0.059921265,3.08786
2.3556366,-9.730148,0.6026305999999999,0.6690216,0.11531067,2.8439178
2.9805298,-9.720566,1.189209,0.45703125,0.23780823,2.605301
4.314102,-10.72374,1.0695038000000001,0.011749268,0.5307616999999999,2.386917
4.436203,-11.274414,0.57629395,-0.72328186,1.07724,2.1930389999999997
3.416275,-11.106812,0.4948883,-1.554184,1.7515564,2.0556183
2.973343,-10.462769,1.2658234,-2.1507416,2.3086853,1.9629517
4.0555267,-9.790009,2.130127,-2.3712463,2.572876,1.9341887999999998
5.84639,-9.426086,2.1133728,-2.2721709999999997,2.5036316000000003,1.9842528999999998
7.7234343999999995,-9.277649,1.5627136000000001,-2.0346222,2.1595459999999997,2.1206055
9.212631,-9.55777,0.77023315,-1.8279572,1.6460876,2.2942505
10.328323,-9.878586,-0.13957214,-1.6777648999999997,1.1336975,2.465744
10.807175,-9.835495,-0.98472595,-1.5371399,0.72250366,2.605301
10.445648,-9.224976,-1.6048278999999999,-1.3858795,0.36778259999999996,2.6575012000000005
9.736969,-8.492339999999999,-2.1770325,-1.2260895,0.14619446,2.6202087000000005
8.999542,-7.953644000000001,-2.8210754000000002,-1.0151671999999998,0.062042235999999994,2.4838562
8.178345,-7.479599,-2.751648,-0.7126312,-0.038085938,2.2494965000000002
7.543869,-7.429321300000001,-1.5473633,-0.31848145,-0.21705627,1.9022217000000001
7.1033479999999996,-7.7573240000000006,0.107040405,0.106552124,-0.46525574,1.4143371999999999
6.794494599999999,-8.073364,1.3065338,0.52201843,-0.7070770000000001,0.71658325
6.5933684999999995,-8.396576,1.6848145,0.9289398000000001,-0.802948,-0.12496948
6.8136444,-8.753311,1.3424377,1.2037811,-0.6016083000000001,-0.9111328000000002
7.431350699999999,-9.002303999999999,1.0240173000000001,1.2240143,-0.18722534,-1.5151367
8.137634,-8.987946,1.1269684,1.0908661,0.06843567,-1.9891815
9.054611,-8.595291,1.4645386,0.9736786000000001,-0.030639648,-2.3993073
10.220596,-8.341507,1.7877655,0.9438629000000001,-0.38323975,-2.7476501
11.57811,-8.317566000000001,2.2737884999999998,1.0152283000000002,-0.8583374,-2.983078
12.691406,-8.044632,2.8507842999999995,1.0855408000000002,-1.3941649999999999,-3.1045227000000004
13.668242999999999,-7.556213400000001,3.3703307999999996,1.1185608,-1.8746033,-3.1876067999999997
14.637894000000001,-7.1108856,3.7294617,1.1494446000000003,-2.175003,-3.2419434
16.031326,-7.3191833,3.7653809000000003,1.153717,-2.2506409,-3.2675018
17.362488,-8.118851,3.710312,1.1398621000000002,-2.1622314,-3.2504578
17.475020999999998,-9.148361,3.1356964,1.1324005,-1.9907226999999998,-3.2259521
15.550079,-8.700638,1.9194488999999997,1.0834045,-1.6860504,-3.2238312000000002
13.225310999999998,-7.5969086,0.82528687,0.95344543,-1.2631378,-3.2408752
11.829498,-7.3239746,0.40631104,0.81388855,-0.86579895,-3.2248992999999997
11.329102,-8.329544,0.39433290000000004,0.68074036,-0.58883667,-3.1492615
10.874207,-9.574524,0.8348694,0.55610657,-0.4226532,-3.0406036
10.534225,-10.963165,1.244278,0.46022034,-0.2820282,-2.8882751
10.536621,-12.272797,1.6058044,0.38139343,-0.13928223,-2.6933289
10.373825,-12.809097,2.142105,0.25250244,0.024765015,-2.4429932
9.746536,-12.634308,2.5371552000000004,0.09057617,0.1685791,-2.0946503
8.647598,-11.714935,2.7646027,-0.047912598,0.12915039,-1.5854492
7.862304700000001,-10.651916499999999,2.8938904,-0.19171143,-0.07963562,-0.96759033
7.6564026,-10.235321,2.7813567999999997,-0.3344574,-0.28948975,-0.37637329999999997
7.606125,-10.355041499999999,2.2546387,-0.4005127,-0.43649292,0.10406494
7.1296843999999995,-10.304764,1.9457855,-0.42288208,-0.44288635,0.46731567
6.301285,-10.010269000000001,1.6776276,-0.52301025,-0.23516846,0.7932892
5.652450599999999,-9.6870575,1.402298,-0.7126312,0.09933472,1.1948853000000002
5.0012360000000005,-9.435654,1.2706146,-0.8862610000000001,0.3965454,1.76268
4.3308563,-8.992737,1.1461181999999999,-0.8234253,0.47537229999999997,2.4124908
3.8735657,-9.090897,0.68403625,-0.43353270000000005,0.3262329,2.9344634999999997
3.2726135,-9.562561,0.18365479,0.10017395,0.11956787,3.2082367
2.1856537,-9.574524,-0.050979614000000006,0.50923157,0.0045166016,3.257248
1.5344238000000001,-9.591277999999999,-0.3047638,0.644516,0.048202515,3.1528473
1.7307587,-9.710999000000001,-0.37898254,0.50709534,0.27616882,2.941925
2.3700104,-9.385375999999999,0.17407227,0.20455933,0.58296204,2.7895966
3.3659972999999996,-9.4189,0.7367096,-0.15655518,0.86631775,2.752304
4.1512910000000005,-9.995911,0.67445374,-0.57839966,1.2061462,2.7373962000000005
4.2638245,-10.580093,0.35842896,-0.98854065,1.5928345,2.652176
3.6389312999999994,-10.690216,0.33688354,-1.2612457000000001,1.9070892,2.5264740000000003
3.1193847999999997,-10.027023,1.158081,-1.3592528999999998,2.064743,2.4316560000000003
3.8807525999999997,-9.184265,2.3863068,-1.2921295,2.0114746,2.3847961
5.927795400000001,-9.251311999999999,2.7023467999999995,-1.139801,1.7845764,2.3443146
7.9652557,-9.931258999999999,1.8859253,-0.9895934999999999,1.4319763,2.3134155
9.260513000000001,-10.328705000000001,0.47094727,-0.87561035,1.047409,2.3464355
10.215805,-10.747681,-0.7261505,-0.8085022,0.76086426,2.4668121
10.091308999999999,-10.711777,-1.463562,-0.7286071999999999,0.55952454,2.5818634
9.210236,-10.060547,-1.6239777,-0.6593628,0.42103577,2.529663
8.515915,-9.296799,-1.6072083000000001,-0.6359253,0.38587952,2.335785
8.314803999999999,-8.566559,-1.2576599,-0.5570984,0.39759827,2.1024933
8.252563,-8.0829315,-0.41490173,-0.29292297,0.23780823,1.7978363000000002
7.9532776,-7.848312400000001,0.37997437,0.06074524,-0.15739441,1.4260559
7.776108,-7.7980347000000005,0.9737396,0.35050964,-0.7060088999999999,0.9189911000000001
7.9915924,-8.097305,1.0958405,0.5891266,-1.1566162,0.21910095
8.341141,-8.535446,0.74150085,0.83200073,-1.2844543,-0.58729553
8.585358,-8.901749,0.3464508,0.97795105,-1.0266571,-1.3468323
8.582962,-9.196242999999999,0.061538696,0.88313293,-0.61227417,-1.9732056
8.762527,-8.86824,0.30336,0.6668854000000001,-0.43116759999999993,-2.5101013
9.6819,-8.240952,0.6289673000000001,0.61468506,-0.6026764,-2.9500580000000003
10.840683,-7.879425,0.74150085,0.7489166,-0.9755249,-3.2824097
11.688232000000001,-7.874649000000001,1.1125946000000002,0.85224915,-1.4229279,-3.5146483999999996
12.535782000000001,-7.6232452,1.857193,0.7925873000000001,-1.8458404999999998,-3.6541900000000003
13.210953,-7.314392,2.4174347000000003,0.5944519,-2.157959,-3.7287597999999997
13.974701000000001,-7.0534362999999995,2.4030762,0.4026947,-2.284729,-3.7383422999999993
15.468689000000001,-7.5610046,2.3863068,0.31961059999999997,-2.28154,-3.6392822
16.936325,-8.928085000000001,2.6185455,0.375,-2.2282715,-3.445404
17.079987,-10.019852,2.446167,0.47087097,-2.0642242,-3.2600403
15.401642,-9.464386,1.4765167,0.47407532,-1.7169495,-3.1471252
13.409668,-8.604874,0.48771667,0.36648559999999997,-1.2450409,-3.0874786
12.112015,-8.786835,0.7726288,0.21095276,-0.76460266,-3.0427246
11.343475,-9.708603,1.4621582,0.07992554,-0.44076538,-2.9969330000000003
10.886185000000001,-11.073288,1.4956665,-0.08305359,-0.19468689,-2.9244842999999996
10.553390499999999,-12.488266000000001,1.1916046,-0.29611206,0.022628784,-2.8296813999999997
10.294815,-13.520172,0.98809814,-0.46655273,0.22503662,-2.7039795
9.8423,-14.025345000000002,1.5315857,-0.548584,0.41464233,-2.5228882
8.757736,-13.520172,2.3408203,-0.5762786999999999,0.48495483,-2.299179
7.388244599999999,-12.081253,3.121338,-0.57839966,0.5307616999999999,-2.0520325
6.7394257,-10.831482000000001,3.5187682999999996,-0.548584,0.58296204,-1.7068938999999999
6.681961,-10.118011,3.2194977000000002,-0.5027771,0.5584564000000001,-1.2147369
6.6915436,-9.758881,2.6424866000000002,-0.47080994,0.48069763,-0.56385803
6.571822999999999,-9.672684,2.0846405,-0.44631958,0.40931702,0.17329407
6.2725525,-9.435654,1.8212891,-0.4559021,0.45619202,0.8998108
5.877502400000001,-9.153152,1.4549713,-0.5634918000000001,0.6085205,1.6295166
5.633301,-9.239334,1.0575256000000002,-0.6796112,0.7384949000000001,2.335785
5.345993,-9.3806,1.0527496,-0.6732178000000001,0.8002776999999999,2.9120939999999997
4.752228,-9.332718,1.2945556999999999,-0.54537964,0.8023986999999999,3.2519226000000003
4.2590330000000005,-9.373413000000001,1.3855438,-0.38986206,0.727829,3.3552399
4.318878,-10.331085,1.2059784,-0.33872986,0.63623047,3.3073120000000005
3.7849730999999998,-10.848236,1.0096436,-0.47401428,0.6266326999999999,3.2220917
2.5854797,-10.479538,0.84924316,-0.75097656,0.725708,3.2039795
1.5200653,-9.938446,0.61460876,-0.98854065,0.7629852,3.292389
1.2758483999999999,-10.027023,0.4733429,-1.0556488000000002,0.6990814000000001,3.3914642
1.8217316000000003,-10.446014,0.23153687,-0.9949188,0.63835144,3.4074402000000004
2.2167816000000005,-10.431656,-0.22337341,-0.9661559999999999,0.7203826999999999,3.3286133
2.432251,-9.682266,-0.2712555,-1.0588378999999999,0.94514465,3.2082367
3.4354248,-8.973587,0.22914124,-1.2015839,1.20401,3.0857391
5.425003,-9.136383,0.5116577,-1.2740173000000001,1.3361053,2.9483185
7.4672546,-9.318344,0.46377563,-1.172821,1.2317046999999999,2.8108978
8.829559,-9.519455,0.037597656,-0.97254944,0.9707184000000001,2.7107544
9.614853,-10.048584,-0.6591034,-0.84365845,0.69055176,2.6873322
9.727386,-10.630371,-1.1618958000000001,-0.76908875,0.43914795,2.6830597000000003
9.16954,-10.544174,-0.8674011,-0.6828003,0.20692444,2.6468506
8.863083,-10.2760315,0.032806396,-0.54325867,0.009841919000000001,2.5573577999999997
9.001938,-9.749298,0.8707886,-0.31954956,-0.18296814,2.3549652
9.274887,-9.268066000000001,1.1078033,0.0074920654,-0.38963318,1.9054259999999998
9.401779,-8.992737,0.93063354,0.38992309999999997,-0.5994873000000001,1.1959534
9.351500999999999,-8.71022,0.88993835,0.7286682,-0.7816466999999999,0.34161377
9.473602,-8.612061,1.0838623,0.96302795,-0.8998870999999999,-0.4477539000000001
9.880614999999999,-8.841904,1.4597626,1.009903,-0.9275818000000001,-1.0709229
10.218200999999999,-9.007095,1.5938263000000001,0.9055023000000001,-0.81785583,-1.5588226
10.136795,-9.047806,1.1197815,0.7457123000000001,-0.6868286,-1.9614868000000003
10.218200999999999,-8.755707000000001,0.9066924999999999,0.6264038000000001,-0.73158264,-2.39505
10.682678,-8.430099499999999,1.1628723,0.63705444,-0.8636627,-2.8137054
11.350662,-8.209824000000001,1.620163,0.7702179,-1.0543518,-3.0991974
12.095245,-7.6400146,2.2785797000000003,0.90870667,-1.4026947,-3.2408752
13.347412,-6.976822,2.8938904,0.93000793,-1.8373259999999998,-3.3250275
14.716904000000001,-6.2920685,3.3463898000000003,0.85118103,-2.265564,-3.3729706
15.834991,-6.763733,3.2147064,0.7563629,-2.5595703,-3.3846893
16.2061,-8.164337,2.7047423999999998,0.65730286,-2.571289,-3.349533
15.693741000000001,-9.529036999999999,1.7877655,0.60510254,-2.364624,-3.2675018
14.692963,-10.019852,1.0479584000000002,0.6306609999999999,-2.0706177,-3.1801453
12.988281,-9.095688,0.77023315,0.6264038000000001,-1.6508942,-3.1545867999999997
11.965958,-8.33194,0.86120605,0.5252074999999999,-1.1907043,-3.1854706000000004
11.654724,-8.973587,1.323288,0.3238678,-0.7433014,-3.2057189999999998
11.037018,-10.139557,1.8547973999999998,0.07885742,-0.36192322,-3.1492615
10.316360000000001,-11.073288,2.0032349,-0.12886047,-0.08177185,-2.9926605
10.0961,-12.153075999999999,1.7159423999999999,-0.25776672,0.09826660000000001,-2.7700195
9.878219999999999,-12.698959,1.6010132,-0.30569458,0.14086914,-2.5282134999999997
9.262909,-12.385315,1.8955078,-0.31741333,0.12809753,-2.282135
8.559021000000001,-11.712539999999999,2.3336487,-0.34085083,0.106781006,-1.9966431
7.737808,-11.066116000000001,2.841217,-0.41116333,0.10040283,-1.5907745
7.007568400000001,-10.043792999999999,3.3463898000000003,-0.5112915,0.095062256,-1.0730591
7.0315094,-9.751694,3.1500702,-0.5773468,0.07589722,-0.5319060999999999
7.124892999999999,-9.658325,2.4653167999999996,-0.5997161999999999,0.14939879999999997,-0.06958008
6.8016663,-9.409332000000001,1.6512909,-0.63912964,0.42317200000000005,0.29048157
6.2557983,-9.342285,1.0718994,-0.7030487,0.7470093000000001,0.7474823
5.606964,-9.414108,0.9234619000000001,-0.6593628,0.9621886999999999,1.4196625
4.93898,-9.330322,1.0790863000000002,-0.40370178,0.88549805,2.1536255
4.551117,-9.148361,1.2251282,-0.032989502000000004,0.65753174,2.6777344
4.4888763,-9.397354,1.1796417,0.24078369,0.45726013,2.940857
4.484084999999999,-9.837891,0.9521941999999999,0.2652893,0.39015198,3.0314026000000003
4.0579224,-10.225754,0.67445374,-0.0074310303000000005,0.46684265,3.0132904
3.4066925,-10.189835,0.61221313,-0.47827148,0.60639954,2.940857
2.9996796000000003,-9.754089,0.91148376,-0.9480591,0.7107849,2.8716125
3.3755646,-9.610443,1.2275238000000002,-1.2111816,0.7427521,2.8375244
4.156082,-10.134766,1.2275238000000002,-1.2250214,0.772583,2.8236847000000003
3.71315,-10.168289,0.94021606,-1.1547089,0.93237305,2.799179
2.5950623,-9.967178,0.88275146,-1.1291503999999999,1.1858978,2.7640228
2.1880493,-9.129196,1.2299194,-1.1461945,1.3989563,2.732071
3.6317443999999997,-8.454041,1.244278,-1.1366119,1.475647,2.7118225
5.6165465999999995,-8.427703999999999,0.49728394,-1.0375366,1.3669891,2.7011719
7.1943207,-8.688675,-0.66389465,-0.8692169,1.1028136999999998,2.6894531
8.290863,-9.122025,-1.7987518,-0.69451904,0.7800293,2.6575012000000005
8.956451,-9.459610000000001,-2.4451904,-0.57095337,0.5201110999999999,2.6308594
9.138411999999999,-9.710999000000001,-2.265625,-0.5048981,0.39334106,2.6042327999999997
9.030669999999999,-9.79718,-1.1451263,-0.5048981,0.3262329,2.5339202999999997
8.827164,-9.560165,0.27462770000000003,-0.5496521,0.25698853,2.4199371
8.709854,-9.155533,1.110199,-0.49317932,0.15791321,2.3198090000000002
8.508742999999999,-8.734161,1.3089294,-0.22367859,-0.12011719,2.1866455
8.281296000000001,-8.377426,1.2490691999999999,0.18539429,-0.53663635,1.9256592000000001
8.163971,-8.284058,1.2562561,0.6274719,-1.0064087,1.4569397
8.197494500000001,-8.288834,1.3735657,1.0461273000000002,-1.4165344,0.7890166999999999
8.441696,-8.434891,1.3927155,1.3795471000000001,-1.6551666,-0.039749146
8.8702545,-8.66951,1.2323151,1.4775543,-1.5273285,-0.9004822
9.138411999999999,-8.662338,0.97613525,1.2634277,-1.1161346,-1.6546936
9.329956,-8.434891,0.7510680999999999,0.88526917,-0.71559143,-2.2714844
9.660355000000001,-8.0542145,0.6816406,0.5795288000000001,-0.55900574,-2.8286132999999998
10.302002,-8.039841000000001,0.61460876,0.44850159999999994,-0.63890076,-3.2941284
10.905334,-8.238555999999999,1.1078033,0.41336059999999997,-0.8317108,-3.6126556000000005
11.590073,-8.080536,2.0511322,0.40803528,-1.1491547,-3.7884216
12.607605,-7.8866119999999995,2.7693787,0.40483093,-1.5401154,-3.8289032
14.015395999999999,-7.721420299999999,3.0614777,0.40164185,-1.8809967,-3.7212982000000006
15.521347,-8.135605,3.0566864,0.43572998,-2.1068267999999994,-3.5007935
16.660995,-8.612061,2.793335,0.5102997,-2.2229462000000004,-3.2664337000000003
16.85492,-9.052582000000001,1.9745177999999999,0.55822754,-2.1569061,-3.1300812000000002
15.466292999999999,-8.676697,0.71995544,0.47833252,-1.8021698,-3.0693665
13.479095000000001,-7.9057617,-0.11802673,0.33239746,-1.3174743999999998,-3.0256805
12.377761999999999,-8.008713,-0.16111755,0.21627808,-0.8817749,-2.9681702000000003
11.839066,-9.141174000000001,0.36082458,0.15449524,-0.5930939000000001,-2.8925322999999996
11.288406,-10.70459,0.8133239999999999,0.07778931,-0.40986633,-2.806244
10.833511,-12.2847595,1.2083588,-0.048965454000000005,-0.24688720000000003,-2.6954498
10.302002,-13.5513,1.5722809,-0.17147827,-0.049804688,-2.5314026000000003
9.315582000000001,-13.982254000000001,1.9218445,-0.24497986,0.06097412,-2.2927855999999998
7.974823,-13.1658325,2.3934937,-0.33872986,0.062042235999999994,-2.0381926999999997
7.0051727,-11.79155,2.7957153,-0.44204712,0.10040283,-1.7814636000000001
6.969269000000001,-10.618393,2.956131,-0.5081024000000001,0.21971129999999997,-1.4618835
7.0698240000000006,-10.041397,2.5922089,-0.567749,0.30065918,-1.0059509
6.804061999999999,-9.641556,2.2833557,-0.63487244,0.27189636,-0.47224426
6.4138184,-9.406937,2.1780242999999997,-0.7381897,0.3070526,0.042266846
5.997223,-9.165115,2.0487366000000002,-0.92248535,0.54248047,0.5503998000000001
5.6356964000000005,-8.858658,1.6967773000000002,-1.0694885,0.7534026999999999,1.2300415
5.4513397,-8.884994500000001,1.2251282,-0.9352722,0.74487305,2.0630797999999997
5.159256,-9.141174000000001,1.0216216999999999,-0.46548462,0.5531311,2.7693480999999998
4.4194336,-8.952026,1.0958405,0.063949585,0.32090759999999996,3.1698914
4.297333,-9.191452,0.8731841999999999,0.37927246,0.18774414,3.2753447999999996
4.709137,-10.144347999999999,0.58587646,0.37393188,0.22183228,3.147522
4.570282,-10.711777,0.6241760000000001,0.07992554,0.37416077,2.9781494
3.6461182,-10.513046000000001,0.67445374,-0.30889893,0.53822327,2.8961182
2.9254607999999998,-10.218567,0.6672821,-0.67533875,0.6553955,2.8833313
3.1529083,-10.608825999999999,0.5499573,-1.0844116000000001,0.86099243,2.8385925
3.5647125,-11.351028,0.21237183,-1.5808258,1.2785796999999999,2.7533722000000003
2.7099762000000003,-11.061325,0.2387085,-2.0101166,1.811203,2.671341
1.7786407,-10.146744,1.1987915,-2.1699066000000005,2.2351837000000003,2.625534
2.5280151,-9.215392999999999,2.4054717999999995,-2.060196,2.3747406000000004,2.6021118
4.692383,-8.846695,2.3168792999999996,-1.7928162,2.1925812000000002,2.590393
7.024338,-9.066956,1.0527496,-1.4764252,1.7877808000000002,2.6042327999999997
8.815201,-9.193848,-0.37660217,-1.1770782,1.2711181999999999,2.6947784
9.689072,-9.627197,-1.7221375,-0.95018005,0.7502135999999999,2.8577728
9.854279,-10.122803,-2.277588,-0.81489563,0.33795166,2.9888
9.538239,-10.139557,-2.059723,-0.76802063,0.036483765,3.0260773
9.258118,-9.718169999999999,-1.7053832999999998,-0.82022095,-0.15100098,3.0005188
8.96843,-9.167511,-1.3246917999999999,-0.8085022,-0.25753784,2.954712
8.539856,-8.695847,-0.47476196,-0.5805359,-0.4695282,2.7917175
8.068207000000001,-8.432495,0.87557983,-0.1586914,-0.8306427,2.3645477
7.852722,-8.408553999999999,1.9864807,0.42401123,-1.24823,1.4931641000000002
7.828780999999999,-8.590515,2.3719482000000003,1.0940552,-1.47406,0.22549438
7.998779300000001,-8.856262,2.1804047000000004,1.5755615,-1.3323822,-0.96865845
8.080169999999999,-9.08371,1.6943816999999999,1.6203003,-0.94462585,-1.8166199
8.084961,-9.088500999999999,1.110199,1.2527771,-0.44288635,-2.3492432
8.606902999999999,-8.873016,0.6194,0.7787323,-0.18190002,-2.7391357000000003
9.535843,-8.66951,0.39672852,0.5454406999999999,-0.38217163,-3.07576
10.570145,-8.588119500000001,0.34884644,0.6679535,-0.79548645,-3.3772278
11.551772999999999,-8.549805000000001,0.9737396,0.9427948,-1.2705993999999998,-3.5838928
12.633942,-7.8722534,2.331253,1.0525055,-1.7457122999999999,-3.7149199999999998
14.166229000000001,-6.9648438,3.5594788,0.92575073,-2.1174927,-3.7830962999999995
16.457489000000002,-6.524307299999999,4.430969,0.68499756,-2.2889862,-3.7926788
18.825348,-7.1875,4.9936066,0.49537659999999994,-2.301773,-3.730896
18.720001,-8.296020500000001,4.4213867,0.46981812,-2.2698212000000004,-3.6062622
16.30426,-8.932877000000001,2.5155945,0.5241394,-2.1068267999999994,-3.4954681000000005
13.663452,-8.992737,0.5906677,0.5283966,-1.7094879,-3.4059906000000004
11.889342999999998,-9.148361,-0.3909607,0.45277405,-1.15448,-3.2909393
11.120819000000001,-9.778030000000001,0.17646789999999998,0.38246155,-0.7187958000000001,-3.1503296
11.025039999999999,-11.030197,1.6177673000000001,0.32707214,-0.41200256,-2.9937286
10.677887,-12.138717999999999,2.5898132,0.21202087,-0.06365967,-2.8509827000000003
10.268478,-13.070053,2.3096924,0.07460022,0.23675537,-2.7210236
9.729782,-13.381302,1.6512909,-0.048965454000000005,0.40826416,-2.5612334999999997
9.078552,-13.149063,1.4286346,-0.16401672,0.5062561,-2.3726807
8.307617,-12.469116,1.7111511000000001,-0.2524414,0.49241638,-2.1351318
7.4864197,-11.504257,2.4437714,-0.30464172,0.42956543,-1.7974396000000001
7.2996674,-10.790787,2.8675537,-0.36003113,0.31344604,-1.3393707000000001
7.2733307,-10.304764,2.6353150000000003,-0.48040770000000005,0.18028260000000002,-0.786499
6.859131,-9.833099,2.1804047000000004,-0.67640686,0.10998535,-0.18675232
6.131302,-9.299194,1.9481811999999998,-0.9075774999999999,0.20266724,0.378891
5.662033,-8.760498,1.7901611000000002,-1.0993195,0.45619202,0.9179229999999999
5.7218933,-8.873016,1.2346953999999999,-1.1802826000000002,0.7054596,1.5059508999999998
5.4824677,-8.592895500000001,0.70558167,-1.0662994,0.7981415,2.1365814
5.0706635,-8.296020500000001,0.46138,-0.79678345,0.7384949000000001,2.6841277999999997
4.883911,-8.621628,0.31054688,-0.53686523,0.678833,3.0889282000000002
4.711532599999999,-9.06456,0.20280457,-0.34405518,0.69374084,3.3563080000000003
4.436203,-9.663116,0.17167664,-0.25137329999999997,0.70440674,3.499054
3.9214477999999997,-9.8498535,0.116607666,-0.2801361,0.6724396,3.5054474
3.4234467000000004,-9.809158,-0.074920654,-0.39837646,0.61598206,3.4042510000000004
3.1217804,-9.562561,-0.2137909,-0.5389862,0.5584564000000001,3.2444610000000003
3.39711,-9.677475,-0.17308044,-0.7030487,0.6511383000000001,3.0484467
3.8041382000000006,-9.998306,0.06872558599999999,-0.9203644,0.90893555,2.846054
3.6317443999999997,-9.847458,0.54756165,-1.1653748,1.2519531000000002,2.6542969
3.2678375,-8.98555,1.2801971,-1.3517914,1.5480957,2.5179443
3.9094696000000004,-8.509109500000001,1.778183,-1.4242249,1.6141357,2.4913177
5.3076935,-8.803589,1.5196075,-1.4188995,1.4628754,2.60849
6.6915436,-9.22258,1.0886536,-1.3390045,1.108139,2.813034
8.034683,-9.799576,0.6026305999999999,-1.1525878999999999,0.5765686,3.0069122000000004
9.298828,-10.510651,0.095062256,-0.8862610000000001,0.0077209473,3.1358032000000002
10.005111999999999,-10.570511,-0.19224548,-0.5752106,-0.5195923,3.1975860000000003
10.057785,-9.89296,-0.17547607,-0.34831238,-1.0351715,3.1358032000000002
9.887802,-9.287216,-0.0007019042999999999,-0.21195984,-1.3494263000000002,2.9131622000000004
9.368256,-8.499527,0.104644775,0.0074920654,-1.3675385,2.5211487
8.942093,-8.0589905,0.13337708,0.3387909,-1.2556915000000002,1.827652
8.590133999999999,-8.049422999999999,0.33448792,0.6551666,-1.15448,0.7964783000000001
8.152008,-8.303207,0.5786896,0.85757446,-1.105484,-0.39341736
7.795273,-8.894577,0.6505126999999999,0.8692931999999999,-0.9563446,-1.4277954
7.771316499999999,-9.466782,0.68403625,0.68392944,-0.62931824,-2.1212769000000002
8.324387,-9.675079,0.98809814,0.43466187,-0.17550659,-2.4866638
9.102492999999999,-9.505096,1.2897644,0.30682373,0.153656,-2.677353
9.763306,-8.911331,1.6273499,0.35263062,0.1302185,-2.8882751
10.335510000000001,-7.8842163,1.6656647,0.5209503,-0.10093689,-3.1769562000000002
11.570922999999999,-7.4532623,1.5770721,0.7467804,-0.36938477,-3.398529
12.96434,-6.859497,2.2354736,0.91722107,-0.76034546,-3.4347534
14.716904000000001,-6.102936,3.0375366,0.9715575999999999,-1.3185425,-3.3378143
16.227646,-5.4852295,3.2721709999999997,0.94065857,-1.9097595,-3.1652374
17.324188,-6.1388397,2.877121,0.9246825999999999,-2.395523,-2.967102
17.441498,-8.415726,2.0176086,0.9960479999999999,-2.6629028,-2.793457
16.088776,-10.285599000000001,1.0623169,1.0951233,-2.6490479,-2.7050476000000003
14.008224499999999,-10.972733,0.65530396,1.0951233,-2.3859253,-2.6741486
11.743300999999999,-10.13237,1.0072478999999999,0.95770264,-1.8714142,-2.6752167
10.555786,-9.215392999999999,1.536377,0.7659607,-1.2897797,-2.7093048
10.723372999999999,-9.706207000000001,1.7901611000000002,0.58166504,-0.8018799,-2.7146301
10.656342,-10.740494,1.9194488999999997,0.36009216,-0.39175415,-2.6613617
9.957230000000001,-11.714935,1.7039642,0.118270874,-0.024246216,-2.5644226000000003
9.373047,-12.555313,1.3376465,-0.06600952,0.23887634,-2.4376678
8.721817,-12.718109,1.2275238000000002,-0.1821289,0.38908386,-2.2459105999999998
7.9461059999999994,-12.076462,1.6464995999999998,-0.31529236,0.49348450000000005,-1.9785308999999998
7.357132000000001,-10.874573,2.4342040000000003,-0.5283356,0.55526733,-1.5854492
7.2565764999999995,-9.859436,2.9824677000000004,-0.7829437,0.49241638,-1.0783844
7.0746155,-9.105255,2.8483887,-1.0087738000000002,0.33155823,-0.5340271
6.942932000000001,-8.74852,2.3958892999999994,-1.1515198,0.19627379999999997,-0.047210693
6.835189999999999,-8.664734,1.9409942999999998,-1.2015839,0.21118164,0.30645752
6.456909,-8.463608,1.6560822,-1.2143707000000001,0.38375854,0.59194946
5.985244799999999,-8.41333,1.158081,-1.2122344999999999,0.56059265,0.99142456
5.6237183,-8.585724,0.71276855,-1.1216888,0.6447449000000001,1.5730591
5.266983,-8.832321,0.58587646,-0.83833313,0.55952454,2.1962433
4.819275,-9.117233,0.5667267,-0.44311523,0.3720398,2.670288
4.357193,-9.478760000000001,0.30815125,-0.11288452,0.2782898,2.9504395
3.6485138,-9.79718,-0.1563263,0.110824585,0.30493164,3.0271453999999998
3.014038,-9.981537,-0.44842529999999997,0.19816589999999998,0.3997345,2.9600372000000004
2.717163,-9.914505,-0.29998779999999997,0.10017395,0.53289795,2.8907928
2.9110869999999998,-9.608047500000001,0.2889862,-0.13845825,0.6181183000000001,2.8748169999999997
3.8567962999999996,-9.821121,1.0838623,-0.40690613,0.65753174,2.9003754
4.6564635999999995,-10.417282,1.5315857,-0.65296936,0.7427521,2.893982
4.3356476,-10.675858,1.584259,-0.8841399999999999,0.93981934,2.8247375
3.4042969,-10.395736999999999,1.7805786,-1.0939941,1.2519531000000002,2.7235412999999995
3.100235,-9.646347,2.453354,-1.2431335,1.5406342,2.6159515
4.0866394,-9.155533,2.7693787,-1.2878723,1.6610107,2.511551
5.580627400000001,-9.057373,2.2283020000000002,-1.2463226,1.5800476,2.4124908
7.175171000000001,-9.150757,1.6058044,-1.1600342,1.3286438,2.3645477
8.530289,-9.529036999999999,0.89712524,-1.0556488000000002,1.0420837,2.3645477
9.013916,-9.888167999999999,0.0016937256,-0.91397095,0.77363586,2.4220734
8.843933,-9.864227,-0.68544006,-0.76589966,0.51264954,2.4998322
8.444092,-9.435654,-0.8171234,-0.62420654,0.22822571,2.4742737
8.29805,-8.875411999999999,-0.49630737,-0.39837646,-0.05406189,2.353897
8.374664,-8.389389,-0.077316284,-0.04257202,-0.36299133,2.1823883
8.453674000000001,-8.130828999999999,0.30096436,0.37927246,-0.6676635999999999,1.8596191000000002
8.389023,-7.9608307,0.7654419,0.738266,-0.9499511999999999,1.2556152
8.367477000000001,-7.9440764999999995,1.2059784,0.9374695,-1.0628662,0.41192627
8.568588,-8.159546,1.3376465,1.0024414000000001,-0.93930054,-0.45094300000000004
8.717025999999999,-8.504318,1.2203369,0.93426514,-0.6484833000000001,-1.2136688
9.114471,-8.911331,1.0072478999999999,0.7244109999999999,-0.22238159,-1.7633514
9.394592,-8.896973,1.0192261,0.47514343,0.09187317,-2.1489716
9.550217,-8.547409,1.1197815,0.35050964,0.029022217000000003,-2.5005188
10.35228,-8.087723,1.1844177,0.37606812,-0.31718445,-2.854187
11.460785000000001,-7.991958599999999,1.5627136000000001,0.517746,-0.76034546,-3.1663055
12.236511,-7.6902924,2.2378693,0.6732788000000001,-1.171524,-3.3761597
13.249251999999998,-7.381439,2.6688232000000003,0.76382446,-1.5742035,-3.4667053
14.621139999999999,-7.060608,2.69516,0.7989807,-2.0162811,-3.4208983999999996
15.772751000000001,-7.211441000000001,2.2857513,0.8170929,-2.3880615,-3.2760314999999998
15.875701999999999,-8.181107,1.8907166000000002,0.86502075,-2.6458588,-3.078949
15.459106,-9.385375999999999,1.4046936,0.9374695,-2.696991,-2.889328
13.941177,-9.708603,0.7965698,0.9044341999999999,-2.4530487,-2.7700195
11.985123,-9.081314,0.38955688,0.73187256,-1.8927154999999998,-2.7071686
10.697037,-8.336716000000001,0.59306335,0.5230713,-1.1438293,-2.680542
10.27327,-8.628815,1.1078033,0.3387909,-0.45248413,-2.6794738999999996
10.179886,-9.581711,1.6369323999999998,0.16514587,0.0013275146,-2.6581726000000003
10.002716,-10.750076,1.9146576000000002,-0.058563232,0.2708435,-2.6102295
9.645980999999999,-11.995056,1.8835297,-0.34617615,0.5467377,-2.5399323
8.975601,-12.538544,1.9553528000000002,-0.5315399000000001,0.81518555,-2.408905
8.286072,-12.567276,2.1373138,-0.5166168,0.77363586,-2.1894531
7.479233,-11.746063000000001,2.4772950000000002,-0.49212646,0.5531311,-1.9306029999999998
6.916595500000001,-10.534607000000001,2.865158,-0.5805359,0.40505979999999997,-1.6696014
6.7609710000000005,-9.447632,2.7478333,-0.708374,0.34114075,-1.3532256999999999
6.9094086,-9.090897,2.2905425999999998,-0.8063812,0.27722168,-0.9249878
7.038696300000001,-9.062164,1.9912720000000002,-0.8862610000000001,0.18562317,-0.39234924
