accx,accy,accz,gyrx,gyry,gyrz
12.507989,-10.003558,0.2629025,-0.43479642,-2.2056947,-2.2849152000000004
12.854459,-9.748739,-0.4381389,-0.8686328999999999,-2.4415236,-3.0924616
12.247912,-9.507662,-0.9627468000000001,-1.4855893999999998,-2.4707928,-3.7551980000000005
11.449015,-9.204058999999999,-1.8115583999999998,-2.1579251,-2.2743735000000003,-4.273683
11.663938,-9.904631,-3.0120400000000003,-2.615725,-1.8623536,-4.7064547999999995
11.500786999999999,-11.1079855,-3.6022775,-2.7035673,-1.2959593999999999,-5.086535
10.28754,-11.221614,-2.9378674,-2.527359,-0.63746405,-5.3686676
9.900857,-10.213884,-2.694607,-2.2111576,0.037507123999999996,-5.436823
10.335195,-8.573847,-2.6022196,-1.8071138999999998,0.63212335,-5.3069180000000005
11.787353999999999,-8.305486,-2.6888224999999997,-1.3956351,1.049449,-5.053007599999999
11.996042,-9.323547999999999,-2.2158432,-1.063464,1.2352393,-4.693679
11.971995,-11.0411005,-2.1475127,-0.83402306,1.1793364,-4.232685
11.567222000000001,-12.939789,-1.9555360000000002,-0.6322804,0.9190379999999999,-3.6439507000000004
10.945428999999999,-14.298815,-1.0699591999999998,-0.45181337,0.5123414000000001,-3.0216362
10.272025,-14.717388,0.41347864,-0.2867925,0.01993166,-2.5271146
9.647609,-14.60963,1.6086162,-0.05736897,-0.32073915,-2.2503054
8.909638000000001,-14.726764000000001,2.0431066,0.058660515,-0.39791763,-2.1257412
7.6333470000000005,-14.526876000000001,2.1118773999999996,-0.05576327,-0.22650883,-1.9804251
6.337337000000001,-14.147194,1.8920512999999999,-0.41296235,0.18229964,-1.7706714
5.3759117,-13.605061,1.2996588,-0.93516487,0.78382736,-1.4177485
4.516824199999999,-13.142586999999999,0.49874094,-1.5026238,1.1900004,-0.7789579000000001
3.8449156,-12.587621,-0.08720641,-1.9902339,1.1585845,0.31974432
2.8091934,-11.708067,-0.1786266,-2.0583715,0.7135604,1.6660041
2.362828,-10.489573,-0.1789618,-1.4765311,0.17858209,2.9510376
3.1743572,-9.964686,0.10109277,-0.55189055,-0.15304792,3.6851056000000004
4.322358,-10.166803999999999,0.40086597,0.46057492,-0.38673005,4.0715737
4.4470089999999995,-9.9175205,0.018148048,1.2665156000000002,-0.5256757,4.1285415
3.724468,-9.436363,-0.7881233,1.7498671000000001,-0.8269719000000001,4.009824299999999
2.9874659,-9.5059,-1.4381588,1.9377866999999998,-1.1639252,4.0449576
1.6923175,-10.005465,-2.024307,1.9995189999999998,-1.4726739,4.2616053
-0.46573925,-10.361377000000001,-2.4122539,2.0655448,-1.6297187,4.529915
-2.2791363999999996,-10.40655,-1.8911129,2.1560228,-1.5615809999999999,4.6832247
-2.528076,-9.641355,0.053400274000000005,2.1565638,-1.2134402,4.6486144
-0.48658797,-9.0723295,2.222547,1.9313987000000001,-0.7407352,4.577824
2.4157016,-8.964878,3.0443616000000002,1.7195333,-0.26323056,4.4356847
4.983933,-9.370331,2.3556838,1.5310901000000001,0.060405847,4.129065
7.132202,-10.055781,0.7580521,1.3048431,0.13812536,3.6185737000000002
7.938167599999999,-10.925106,-1.0794688000000001,1.3197482,0.30473449999999996,3.1086058999999997
7.4825990000000004,-11.746988,-2.35237,1.4310128999999998,0.6039014,2.5714808
6.979222999999999,-12.040441,-2.887235,1.3452998,1.0462725,1.9779468
6.987247999999999,-11.936167999999999,-2.561202,1.0429389999999998,1.4487106,1.4498799
7.9618125,-11.523944,-2.4333997000000003,0.74803066,1.6722872,1.1086506
8.477591,-11.179178,-2.6183276,0.58939767,1.5940267,0.8850739
9.082777,-11.664081,-3.0072419999999997,0.5803569000000001,1.1346385,0.5534439
9.898558999999999,-11.429411,-2.5854602000000004,0.7874227,0.36063740000000005,0.26172957
10.782556,-11.373196,-2.8445127,1.0312278,-0.44528586,0.010471975
11.206261999999999,-11.016536,-2.39447,0.7858345,-1.0446843000000001,-0.43772858
11.106109,-10.17373,-1.5184985,-0.18404497,-1.3875018,-1.1627558
11.179304,-9.254241,-1.3647046,-1.345579,-1.505678,-2.141711
11.183968,-9.151769,-2.0620015,-2.3080235,-1.4332818,-3.0514464
10.694938,-9.6238575,-2.7987356,-3.1299338,-1.18363,-3.775409
9.96076,-9.780419,-2.9322553,-3.800664,-0.8844456,-4.308258
9.751383,-9.58215,-2.853247,-4.2041664,-0.46286133,-4.602119
10.567374000000001,-10.403821,-2.8774283,-4.1573396,0.15887733,-4.747435
10.512614,-10.712224,-2.8485732000000006,-3.6276492999999994,0.81578434,-4.721883999999999
10.817271,-10.108991,-3.7114724999999997,-2.7865927000000004,1.4082538,-4.507347599999999
10.744228999999999,-8.2773485,-5.234079,-1.9109086,1.7590474999999999,-4.2321444
11.177082,-6.684688,-6.4731073,-1.0304424,1.8830881000000002,-3.9494882000000007
11.998054,-7.606426700000001,-6.0854,-0.26869345,1.7143322,-3.6391337
11.832116000000001,-9.695062,-4.563549500000001,0.31738812,1.2794311,-3.3527427000000003
11.551286,-12.518965,-3.6652067,0.67245793,0.65928066,-3.064222
11.256607,-15.355328,-2.5500643,0.8619658000000001,-0.02953097,-2.7565382
10.247796000000001,-16.730585,-0.92028326,0.9567197000000001,-0.6539574,-2.4658884999999997
9.16511,-16.486301,1.0141551,1.0024997,-1.0441432,-2.3232253
7.8628836,-15.461160999999999,2.1895453999999996,0.9668251,-1.1207981000000002,-2.283833
6.5834417,-14.091543,2.6261422999999997,0.6697875,-0.83494806,-2.198661
5.809051999999999,-12.771092,2.6145833,0.024068091,-0.18444639999999998,-2.0938016999999998
5.1190042,-11.772942,2.017048,-0.7392517,0.633188,-1.7924881000000001
4.716050599999999,-10.99202,1.1264622,-1.4355508,1.1931943999999999,-0.9051103000000001
4.499021,-10.619961,0.20746237,-1.9747877,1.0771473999999999,0.40758675
4.1147423,-10.237347999999999,-0.65853953,-2.0599597,0.55120987,1.8714817
3.618788,-9.548508,-1.0092231,-1.5952309,0.038048177999999995,3.0191752999999997
3.6007165999999997,-8.792485000000001,-0.95533437,-0.8840442,-0.23448499,3.5429835
4.4851155,-8.8471985,-0.9096913000000001,-0.049898963,-0.34201473,3.7841356
4.875093,-9.301272,-1.1695867,0.76612973,-0.31965706,3.9347748999999994
4.0913363,-8.900521000000001,-2.1292787,1.3437115,-0.36117843,3.8506675
2.83869,-8.617795,-3.1309264,1.5444069,-0.56985,3.6989636
0.90907836,-9.534181,-3.5274637,1.5987041000000002,-0.8269544,3.6004746
-1.683459,-10.304317999999999,-3.7687223,1.6066803,-1.0521368,3.4764513999999997
-3.4148593000000003,-10.196771,-3.1795478,1.601357,-1.0414903,3.2347758
-3.0421875,-9.474622,-0.98649734,1.4586938999999999,-0.75562286,3.0654962
-0.024363395,-8.966074,1.0191925,1.0024997,-0.22436208,3.05005
3.8558524,-9.129369,1.4949780000000001,0.25672048,0.44476226,3.023975
5.251136,-9.673016,1.4623976,-0.44753733,1.1527376,2.9425204
7.162896000000001,-10.573111,0.49257349999999994,-0.69666564,1.6031023000000002,2.9180507999999996
8.480866,-11.423321000000001,-1.1122887,-0.60084707,1.8516896,2.8392494
9.182261,-11.6933,-2.5906126,-0.40762165,1.8309202000000002,2.5225244
9.134692999999999,-11.283786,-3.3418267,-0.24684192,1.6387595000000001,1.8709581000000002
9.454807,-10.00578,-3.3157682,-0.117513016,1.2293923999999998,1.1954284
9.656706,-8.655977,-3.2033652999999997,0.10019935,0.8455946,0.8488931999999999
9.279533,-8.080133,-3.5309017,0.37435567,0.5049063,0.74029887
9.02796,-8.094662,-4.32661,0.65010023,0.046041787,0.56782544
9.532697,-8.4925785,-4.5158667999999995,0.9945235,-0.44633305,0.26813492
9.881263,-8.894986,-3.3104915999999998,1.3367826,-0.90415037,-0.24822073
9.854859,-8.855156,-1.6732403999999999,1.2660094,-1.1415501000000001,-1.0445620999999998
10.105523,-7.831338000000001,-0.6264476999999999,0.63732445,-1.1330503,-1.8686193
11.1891,-6.677389999999999,-0.6558102,-0.26069984,-0.84665924,-2.4568303
12.457614999999999,-6.585338,-1.2430886,-0.96869266,-0.48413688,-2.7512147000000002
12.432381,-6.9818177,-1.4180282,-1.4562852,-0.21106267,-2.9593453
11.375724,-7.245774000000001,-1.1273817,-1.7666223,0.043912485,-3.1515062
11.0538,-6.9979453,-0.9734440999999999,-1.8566115,0.35479054,-3.2542536
12.162334,-7.708400200000001,-1.2989597,-1.7224654,0.75988144,-3.2696998
13.2355585,-7.6350136,-1.2903693999999999,-1.4339277,1.1218801999999999,-3.2510421000000003
14.21924,-6.7327538,-1.9819871999999998,-1.0027615,1.3960191000000002,-3.2739583999999997
13.815807000000001,-5.302275700000001,-3.6105711000000005,-0.5215218,1.476409,-3.334626
12.810004,-5.8531528,-4.973686,0.07731809,1.2789073999999998,-3.352725
11.657924000000001,-7.753067,-4.806982499999999,0.6618114,0.75244635,-3.3005571000000002
10.603335000000001,-9.337712,-3.4912057,1.1052296999999998,-0.044977135999999994,-3.040259
10.532639,-10.818957000000001,-2.4144855,1.3203067,-0.8604822,-2.709676
10.3519535,-11.90218,-1.4215525,1.319242,-1.6297011000000001,-2.4270197999999996
9.620984,-12.055007000000002,-0.356669,1.2186238,-2.1503155,-2.3008502
8.590117999999999,-11.311473,0.53607136,0.93703234,-2.1923604,-2.2694516
7.618378599999999,-10.076744999999999,1.0229658000000001,0.35519195,-1.7553299999999998,-2.1092303
7.262045,-9.191666,1.2004336000000002,-0.62531656,-0.9387428,-1.7509493000000003
6.834335,-8.753996,1.1668477,-1.7384351000000002,0.0630762,-1.2734795
6.417629,-8.649494,0.8555249,-2.677981,1.0409667,-0.70547956
5.8559303,-8.888579,0.10292194,-3.3912969,1.6414123999999999,-0.11033971599999999
4.9104980000000005,-9.012387,-0.7819559,-3.8693252,1.9693421999999998,0.6359630999999999
4.4602537,-8.576998,-1.5728948,-3.8544025,1.9006634999999998,1.5127118
4.6816510000000005,-8.160158000000001,-2.146287,-3.1363043999999998,1.3129761999999998,2.3303635
5.5501523,-8.258989999999999,-2.2071857,-1.9226023,0.43889794,2.875465
5.741104,-9.073441,-2.6445491000000003,-0.6396980999999999,-0.3925769,3.127787
4.840539499999999,-9.441735000000001,-3.5430355000000002,0.42334706,-1.0665008999999999,3.122464
3.5795230000000005,-9.379897999999999,-4.3729806,1.0504263999999999,-1.5338652,2.95479
2.8400881,-9.635082,-4.109743,1.2143826000000002,-1.705815,2.9255035
2.5363886000000004,-10.474737,-3.2705657,1.1627383,-1.7031621,3.141104
1.9399258999999998,-10.9146,-2.749434,1.139857,-1.374185,3.5765462
1.4298651000000002,-11.371825999999999,-1.4557226,1.054685,-0.75562286,4.0870376
1.1964976,-10.446937,0.4694934,0.81246823,0.02581342,4.5331264000000004
2.3005022999999998,-9.06144,2.4327772000000003,0.50530773,0.8184547,4.8945665
4.6821394,-8.423089,2.9406543,0.27269024,1.3300107,5.129330599999999
6.6698437,-8.334848,2.0548668,0.22053981,1.3896486000000001,5.09048
8.146635,-8.232644,0.337592,0.30941197,1.1878885000000001,4.878597
8.678139,-8.41174,-1.5982063,0.52075386,0.8929803,4.5943522
7.679603,-8.415159,-2.9013798,0.74700093,0.58051395,4.1567807
6.4790163,-8.164324,-3.0812416000000002,0.8135329000000001,0.43038073,3.537154
5.4870696,-7.861801600000001,-2.4682496,0.7304901,0.47403142,2.9233742
5.2058754,-8.042516,-2.1513147,0.7666881999999999,0.6166946,2.41393
5.6665487,-8.572669,-1.879525,0.99825853,0.7391295,2.0216148
6.286464700000001,-9.631835,-1.3814256,1.284126,0.59222513,1.3854947
7.220117599999999,-10.725114,-0.7521145,1.5385776000000002,0.259513,0.6753726
8.589764,-11.720326,-0.27167487,1.7935526000000002,-0.01675516,-0.11458086
9.268635,-11.970500999999999,0.27535236,1.8292098,-0.08915142,-0.8731533000000001
9.317169999999999,-11.053962,0.7408618,1.5359071000000002,-0.08328711,-1.6093507
9.708698,-10.198025999999999,0.7445871999999999,0.76564103,-0.20146336,-2.4605477000000002
10.484592,-9.975355,0.36529773,-0.16964601,-0.33028612,-3.0977325
10.674615,-10.314671,0.29894963,-1.121985,-0.5645093000000001,-3.5821486000000005
10.663047,-10.844144,0.97190225,-1.9311196,-0.9941046,-4.0724290000000005
11.247174000000001,-11.371998,1.1187626,-2.3889194,-1.3693853999999999,-4.473279
12.699027000000001,-11.944107,0.5626182,-2.4410697999999997,-1.5801862,-4.709614
12.973365,-11.302327,0.06365704,-2.1222157000000004,-1.5360118999999999,-4.714413599999999
12.277724000000001,-9.740963,-0.7367342,-1.5680561000000002,-1.2570559,-4.5807910000000005
10.840974000000001,-7.987325,-1.8406049,-0.9058433000000001,-0.8721934000000001,-4.5153065
10.388125,-7.612077,-3.332001,-0.30592132,-0.52778757,-4.528099500000001
10.110147999999999,-8.655844,-4.8548856,0.12363912,-0.29621729999999996,-4.489231
9.066583,-9.865126,-4.93625,0.26364943,-0.14397220000000002,-4.224133
9.032883,-11.546660000000001,-4.507161,0.204029,-0.101386175,-3.7274822999999997
9.249089,-13.397695,-3.1006541000000003,0.014538593,-0.14821336,-3.0908036
9.236649,-14.771018,-1.1398507,-0.12067206,-0.19134045,-2.4690475
8.632352000000001,-15.200184,0.7360638,-0.15687019,-0.2546959,-1.9952953000000002
7.4545383,-14.487679,2.2074540000000002,-0.22448425,-0.19401079999999998,-1.6466134999999997
6.465283400000001,-13.174879999999998,2.9881458,-0.43687338,0.04392994,-1.3437115
6.213595400000001,-11.980728,3.004522,-0.84304637,0.43359214,-1.0115579
5.981616000000001,-11.412547,2.19125,-1.3636431999999998,0.9100147,-0.69588023
5.1587,-11.19861,0.8246684000000001,-1.9790113999999999,1.226216,-0.17578956
3.6928932999999997,-11.164536,-0.6817825,-2.4916494,1.2240866000000001,0.7445748999999999
2.319426,-10.7195015,-1.6840241000000002,-2.4937787,0.8285776,1.8613936999999998
1.4889444,-9.954009,-2.0872269,-1.7910918000000002,0.17168804,2.8611183
1.6648321,-9.1686535,-1.6545466,-0.76955056,-0.329204,3.3769329
2.5566435000000003,-9.297614,-1.3843466,0.39140755,-0.57409114,3.5078672999999996
3.1780536,-9.653881,-1.4157106000000002,1.1611501,-0.60442495,3.4216483
2.7866687999999997,-9.464336999999999,-1.8563395,1.1111115,-0.5448045,3.3907733
2.2338285,-9.151195,-2.1171349999999998,0.37969637,-0.12959069,3.6984398
1.9601137999999998,-10.061115,-2.5967512000000004,-0.3112271,0.057770398,4.0524626
0.5511069000000001,-11.337339,-2.9882894,-0.772762,0.2376964,4.334054
-0.6435327,-11.89153,-1.9299852,-1.0325543,0.71518356,4.420814
-0.6543928000000001,-11.26422,0.23629813,-0.9548173000000001,0.9589886000000001,4.303703
1.1172016000000002,-10.043341,2.1697214,-0.71047115,1.0180855,4.0301046000000005
3.7349449999999997,-9.568617999999999,2.9354732000000006,-0.31017992,0.979217,3.650007
6.100886,-9.709147999999999,2.002405,-0.0397586,0.976023,3.3205062999999995
7.016543400000001,-10.459261999999999,-0.97775364,0.15240215,0.8493296,3.1097054
6.697050999999999,-11.217525,-4.2270107,0.38289034,0.41069344,2.9532017999999995
5.2424207,-11.989827,-5.401424400000001,0.54632294,0.15200073,2.6795866000000004
5.722707,-10.9379015,-4.4024005,0.46647415,0.02104867,2.1451318
6.0681614999999995,-10.705031,-3.2722990000000003,0.25033256,-0.03005457,1.616524
6.648314999999999,-9.616799,-1.7372710999999998,0.08904669999999999,-0.011955505,1.3498377000000001
7.2681355,-8.9293375,-0.6072653,0.096516706,-0.03164282,1.013408
7.456568700000001,-8.468751,0.16929879999999997,0.4020715,-0.36966074,0.50609314
7.7738867,-8.636633,0.68510556,0.9924117,-0.8109672,0.05841617
7.432435000000001,-9.539946,0.49476656,1.2910549999999998,-1.0856471,-0.5803569000000001
7.507805,-9.853806500000001,0.018100165,1.068543,-1.0073866,-1.3980086999999999
7.8434625,-9.66408,-0.49432606,0.47979102,-0.7758338,-2.2433414000000003
8.872356,-9.333317,-1.1131697,-0.030159289,-0.6544635999999999,-2.7958952999999998
10.355228,-9.636154,-2.017632,-0.45389032,-0.7124783,-3.1270017999999995
10.458688,-10.416472,-2.2276034,-0.7738265999999999,-0.93659604,-3.3585546
10.166803999999999,-10.625841000000001,-1.8147282999999998,-0.9425650999999999,-1.1138517,-3.6577214999999996
11.558401,-11.086925500000001,-1.1563419,-1.0160434,-1.0962937,-3.881839
12.509215,-11.740064,-0.33873165,-0.93352425,-0.9035919,-3.9776578000000002
12.7818575,-10.81075,-0.33308133,-0.7253763000000001,-0.6076189000000001,-3.9489121
12.799412,-8.712864,-1.9844580000000003,-0.44484952,-0.2972645,-3.8951385000000003
12.218426,-7.187900999999999,-3.6507266000000005,-0.19198622,-0.1359786,-3.8296711
11.424364,-7.9214554,-4.5717664000000005,0.0012217305,-0.083269656,-3.7184063999999997
9.89513,-9.458226,-4.049763,0.081611596,-0.15460126,-3.5539267
9.006422,-11.028775,-3.4922497000000003,0.095452055,-0.31803390000000004,-3.2898932
8.744755,-11.854975999999999,-2.381656,0.13323843,-0.5479984999999999,-2.9092894
8.834681,-12.519117999999999,-1.3457521000000001,0.19179423,-0.7449589,-2.5414437999999997
8.222014,-12.515134,-0.41622716,0.24289747,-0.76092863,-2.4222028
7.1449394,-11.976180000000001,0.61453414,0.104510315,-0.43301618,-2.518545
6.418654,-11.286497,1.0862206,-0.40011674,0.2483429,-2.5361203999999997
5.9684577,-10.741988000000001,1.0668563,-1.1799822,1.1873649,-2.3311665
5.5162697,-10.563247,0.6190640000000001,-1.9055331000000002,2.0263273999999996,-1.7674251
5.2003403,-10.820613,-0.04687847,-2.558705,2.4319417000000003,-0.6234665
4.866847,-11.025327,-0.59697986,-2.9473026,2.1216047000000002,0.9718866
4.331158599999999,-11.186821,-0.8368501,-2.7583184,1.3955303,2.4826436000000003
3.6131568,-10.522267,-0.61865216,-1.8948865000000001,0.5746671,3.5430357000000003
4.2193685,-10.247365,-0.5018151,-0.43418556,-0.11201523,4.048744999999999
5.398867,-10.357555,-0.30068302,1.2351695,-0.6001664000000001,4.0790787
5.3690934,-10.550289,-1.2408190000000001,2.5185974,-1.052102,3.7841706
3.6696696,-10.586691,-2.359955,2.9881083999999998,-1.4731627,3.4083487999999997
1.371169,-10.846039999999999,-3.1581627999999995,2.7155752,-1.6818342,3.3450108
-0.97470826,-12.08435,-3.2186882000000003,1.9649963,-1.6296663,3.7117742999999996
-4.2003303,-12.808978999999999,-3.3232095,1.2564626,-1.3411459,4.072691000000001
-5.5335846,-12.441258,-1.6980252,0.8162206999999999,-0.89559823,4.233976999999999
-3.9234452000000006,-11.455814,1.2256589,0.6591934,-0.34356806,4.1285940000000005
-0.5994602,-10.367275999999999,4.0443430000000005,0.61608374,0.14667746,3.8975646
3.08241,-10.109162,5.4986386,0.54740506,0.53688073,3.4525404
5.96025,-10.148092,4.632531,0.43987533,0.7423583,2.9830294
7.693461,-10.382944,1.341002,0.34086279999999997,0.8126253000000001,2.5614277999999997
7.478347,-10.888859,-2.405234,0.26260224,0.8062374,2.319211
5.909914499999999,-11.518897,-5.0455885,0.14657275,0.7828151,2.0780764
4.7431626,-11.492906,-5.802932299999999,-0.017366026,0.71733034,1.7097069999999999
5.2788415,-10.967292,-4.586821,-0.038135443,0.59117794,1.3189802
6.440767,-10.170463999999999,-2.5211709,0.13538519,0.42189842,1.0171430000000001
7.4892449999999995,-9.697761999999999,-1.131222,0.31956979999999996,0.15786503,0.60779345
8.112063000000001,-9.242892,-0.5296069999999999,0.47129124,-0.14608406,0.09089675
8.786644,-9.070328,-0.63131267,0.7688524,-0.42554617,-0.22261675
8.960385,-9.270961999999999,-0.8827995999999999,1.0467263,-0.5442635,-0.5750162
8.708459,-9.533625,-1.1025969,1.0366209000000002,-0.7087433000000001,-1.0370747
8.580828,-9.406493,-1.2910110000000001,0.7427772,-1.0403733,-1.7817892
9.067665,-9.1556,-1.5224346000000002,0.2865656,-1.4880677,-2.5675015
10.080594999999999,-9.648882,-1.5470852,-0.19462167,-1.9581023000000002,-3.0428593
10.30904,-9.957523,-0.95914596,-0.88399184,-2.2982669999999996,-3.1983159
10.469145,-9.982978999999998,-0.6342336,-1.710702,-2.4121847,-3.2126799
11.440567999999999,-10.251608000000001,-0.9469450999999999,-2.2408805,-2.2109656,-3.2190678
11.902716,-10.979924,-1.3307931,-2.3654447,-1.8095921999999998,-3.3154275
11.191888,-10.217208,-1.2808979999999999,-2.0721421,-1.2096528,-3.4543557000000003
10.948138,-9.025929,-2.1306383999999996,-1.6468054,-0.54691637,-3.6752620000000005
10.445433,-7.050445,-3.0249875,-1.2858888000000002,0.073234014,-3.8892741
11.035967999999999,-7.519067,-3.7560523,-0.9984504999999999,0.5288871,-3.9898925000000003
10.489102,-9.233611999999999,-3.5926527999999998,-0.7780503000000001,0.7870736999999999,-3.9494182999999996
9.706467,-11.565307,-3.1700475,-0.6811670999999999,0.8536231,-3.8360417
8.931579,-13.542917000000001,-3.0288377,-0.6220876999999999,0.7168066999999999,-3.6289585
8.748672000000001,-14.470191,-1.9550573,-0.5092346999999999,0.48045424,-3.3250093
8.704398,-14.278042000000001,0.031383193999999996,-0.31014502,0.20203932,-3.0923743
8.548814,-13.336585000000001,1.9917938999999998,-0.21645573,0.09611528,-3.0428767000000003
8.148253,-12.075836,3.1946216,-0.49965286,0.25209534,-2.9113835999999997
7.800548599999999,-11.265792,3.1516986,-1.0106852,0.61618847,-2.5494025000000002
7.197008599999999,-11.148169000000001,2.3654425,-1.6744863,1.0191675,-2.0383701000000003
6.2697725,-11.007936500000001,1.6815532,-1.9997458,1.4232113000000002,-1.4501591999999999
5.4751754,-10.934836,0.76862496,-1.9246793000000002,1.1660894,-0.51379
4.9772196,-11.036178,-0.049416326,-1.6494758000000003,0.23451988,0.8015599
4.3739767,-11.047373,-0.26992232,-1.1698419,-0.7236484000000001,2.0988457
3.8773042999999996,-10.722088000000001,-0.03230257,-0.5140169,-1.066466,3.0447967
4.2220216,-10.278758,0.12594458,0.09707521,-0.6182479999999999,3.6106498
4.109015,-10.387167,-0.6152810999999999,0.4590565,-0.17587683,3.9486852
2.7585707000000004,-10.771360000000001,-1.6092196,0.607584,-0.08431686,4.164285700000001
0.7906995,-10.745493,-2.0245848,0.5995904000000001,-0.32599258,4.304279
-0.37333268,-10.8814745,-1.8381531999999998,0.7140491,-0.6778684,4.4591765
-1.3094751,-11.238402,-0.7640568,1.0344915000000001,-0.8764171000000001,4.67743
-2.8988897999999996,-11.0805855,-0.5340219,1.3587038999999999,-0.8002858,4.869085
-3.6283742999999995,-11.085489,-0.33986172,1.4875093000000001,-0.44258058,4.838733
-1.8183004,-10.10403,0.51490664,1.3884966,-0.14713125,4.5033684
1.8300798999999999,-9.437321,0.8987258,1.1292628999999998,-0.0055326936,4.0977364000000005
4.568319,-9.55614,0.07602069,0.9078156,0.23134339,3.644736
6.372072,-9.973134,-1.6960142,0.56286865,0.13658947,2.8760583
7.7188005,-10.918163,-3.671987,0.014573500000000001,0.09505063,2.2340562000000004
8.567172,-11.621723,-4.6689425,-0.6550744000000001,0.3425907,1.8177778999999998
8.766427,-11.579796,-4.141624,-1.12565,0.814231,1.4893418999999999
8.593411999999999,-11.117341999999999,-3.3122056000000004,-1.3454918,1.1783416000000002,1.1598411
8.863574,-10.798003,-2.9224202999999997,-1.3199401000000002,1.3045114,0.8947430000000001
9.935784,-10.113002999999999,-3.1321905,-0.9670171000000001,1.1964581,0.74036866
10.508438,-9.456264,-3.4147252999999997,-0.50548226,0.96754074,0.45982444
10.677344,-8.862387,-3.608464,-0.16694075,0.62472314,-0.017662732
11.254318,-8.148492999999998,-3.5069114999999997,0.2637018,0.35271358,-0.56115824
11.839566,-7.2475834,-4.0896989999999995,0.57032126,0.18662806,-1.1099945
10.791605,-7.3323483,-4.4503994,0.7113961999999999,0.033318337,-1.6657248
10.012887,-6.8665899999999995,-3.7027671000000004,0.6554933000000001,-0.109851025,-2.2299898
9.992,-6.8556814,-2.5103207000000003,0.40210640000000003,-0.41168827,-2.7766967
10.326747,-7.673684599999999,-1.5837643999999997,0.20781635,-0.70127326,-3.073193
10.367631,-8.413522,-0.6328736999999999,0.025220007000000003,-1.0233389000000002,-3.325533
10.664750999999999,-8.356578,0.25822902,-0.11103784,-1.2389219999999999,-3.5155644
11.952707,-8.723619,0.028060043,-0.116361104,-1.2751201,-3.5847665999999996
13.075118,-9.411052,-0.41084499999999996,-0.04022984,-1.1633316999999999,-3.5970013
13.506468,-9.050897,-0.403672,0.05555383,-0.9402961,-3.6534278
13.20023,-8.648392999999999,-1.2578368999999998,0.11306243,-0.66933376,-3.7918324
12.056903,-7.5674779999999995,-2.0584197,0.14978416,-0.44842744,-3.9573943999999996
11.500653,-7.879222400000001,-3.0622222000000003,0.118909284,-0.29829422,-4.055342
10.710002000000001,-8.995514,-3.375087,-0.0056199604,-0.18011798,-3.9765407999999995
10.137002,-10.229619,-3.0848617999999997,-0.1195376,-0.13062043,-3.7332766000000004
10.222982,-11.75464,-2.6566157,-0.21376793,-0.10986847400000001,-3.363843
9.883714999999999,-12.424317,-1.8561288,-0.29148743,-0.086969756,-2.8538752
9.035631,-11.96168,-0.94603527,-0.37028906,-0.014573500000000001,-2.272052
8.268777,-10.734097,-0.44581953,-0.47567204,0.13287191,-1.7572848
7.8107095,-9.592742,-0.37536293,-0.64708084,0.38943532,-1.2382761999999998
7.670093,-9.178469,-0.48865655,-0.9111142,0.6832964,-0.62023765
7.311671700000001,-9.239484,-0.7226083999999999,-1.064965,0.91910785,0.080808744
6.5959105,-9.624835000000001,-1.1642333,-0.9462476999999999,1.0330255,0.8516334000000001
5.35694,-10.0463295,-1.3529155000000002,-0.76152205,0.77059776,1.7592396000000001
4.2362046,-10.142748,-1.2161203999999999,-0.517717,0.20579177,2.6152189
3.360128,-10.218577,-1.1022234,-0.21909118,-0.34513885,3.2401687999999997
2.3722133999999997,-9.886991,-0.99245405,0.25891959999999997,-0.81093234,3.5941739999999998
1.5475832,-8.982298,-0.9467823000000001,0.9440311,-1.1494913,3.6037557000000002
1.6643723999999998,-8.979989999999999,-1.0555268999999998,1.578022,-1.2431805,3.5286891000000002
1.4478216,-9.360696,-1.3418351,2.174244,-1.3320702,3.3945432
0.7415991999999999,-9.264441,-1.4143986000000002,2.340853,-1.4747333999999999,3.1496735
0.48885766,-9.483807,-0.7441561999999999,2.1380458,-1.6695645000000001,3.0682364
0.6820698000000001,-10.712864999999999,-0.32233614,2.0044234,-1.4220419,3.188542
0.73782593,-11.299828,-0.51571107,1.7760645,-0.78323394,2.878205
2.0600669999999996,-11.659379,-0.52627426,1.098929,-0.29829422,2.5662447999999998
3.8713572,-11.209021,-0.37294957,0.38456586,0.42832124,2.4943895
5.7533913,-10.511312,-0.035194762000000004,-0.11740830000000001,1.177818,2.4315752999999996
7.910183999999999,-10.410496,-0.49383762,-0.5262342,1.6345706,2.3336275
8.432282,-10.571827,-1.0973104999999999,-0.49590039999999996,1.8746406999999998,2.3549203999999997
9.052342,-10.473703,-2.6103982999999995,-0.6896494000000001,1.9007333999999998,2.2149273999999997
8.901019,-10.841874,-4.360904,-0.9467713,1.8389661,2.1031218
7.878705,-10.032261,-4.697807,-1.0441780999999999,1.9784354,2.0115793
7.165482000000001,-8.129464,-4.0497727,-0.96699965,2.0705364,1.8369765
8.690128999999999,-8.408139,-4.423259,-0.72958255,1.9278733000000001,1.6368221
7.403523,-6.974251700000001,-4.886039299999999,-0.23078490000000002,1.6063486,1.5186458999999999
7.024636,-6.492931400000001,-4.2257370000000005,0.38669515,1.0894518999999998,1.3451078
7.097065,-6.4094695999999995,-3.6141050000000003,0.8099026,0.34899604,0.91605353
7.106076700000001,-6.7077293000000004,-2.7959871,1.2123232,-0.39995965,0.453454
7.3446255,-6.8374186,-2.0095685000000003,1.6360542,-0.9557074000000001,-0.077248275
7.547041,-7.4329333,-2.097292,1.7366723999999998,-1.2490274,-0.77991784
7.3751273,-7.5441008,-1.7733276999999998,1.3544627,-1.380503,-1.5943757
7.8157473,-7.3412642,-0.72017586,0.7199309,-1.4411882,-2.3726354
8.914533,-8.281084,-0.22330239999999998,0.13170254,-1.4486407,-2.8879266
9.418952,-9.091971000000001,0.3069558,-0.46287876,-1.4954853000000001,-3.1972162999999996
9.668075,-9.164986,0.8719969999999999,-0.9643293,-1.4422529,-3.3904417000000002
10.710739,-9.001653,0.5387816,-1.2698841,-1.2176116000000001,-3.5144822999999996
12.613335000000001,-10.525542999999999,-0.60364527,-1.2863774,-0.8465719,-3.5751498
13.088104,-10.382379,-0.82960045,-1.0212969,-0.43031093,-3.5922017
13.343479,-8.956901,-1.4000143,-0.6630331,-0.11943288,-3.6283998
12.704899000000001,-7.119925,-2.6563953999999996,-0.30265754,0.080704026,-3.689085
12.337666,-7.212896300000001,-4.00684,0.024713863,0.14564772,-3.6502166
11.680813,-8.948080000000001,-4.270068,0.3148225,0.03227114,-3.4692260000000004
10.586011,-10.56295,-3.7432578000000003,0.48623127,-0.2637018,-3.225962
9.982873,-12.226977,-3.1197692999999997,0.5075417,-0.65547585,-3.0023851
9.4488125,-13.126498000000002,-1.8909692999999999,0.38669515,-1.002552,-2.7990369999999998
8.774021000000001,-13.217813,-0.4667544,0.13330825,-1.2176116000000001,-2.5067816
7.943846000000001,-12.6281595,0.91816676,-0.15413003,-1.2905313999999999,-2.184716
7.216717699999999,-11.60865,1.7149188999999998,-0.41763982,-1.1808896999999998,-1.7849482
6.847436,-10.983496,1.6049864999999999,-0.6103242,-0.9498431,-1.4085854
6.139001400000001,-10.222571,1.3384258,-0.7684335999999999,-0.4675737,-1.0572681000000002
5.017423,-9.501399000000001,0.89704037,-0.8977799000000001,0.25530675,-0.76447165
4.082861,-8.971878,0.23091596,-1.1394556999999998,1.0974456,-0.45680502
3.7012443999999998,-8.6711855,-0.44444045,-1.4870728000000002,1.6941911,0.106395274
3.633929,-8.613476,-1.022305,-1.674434,1.7910743000000002,1.0342298
3.4443273999999997,-8.886846,-1.3532889,-1.4253231000000002,1.2369323,2.180335
3.3045537000000005,-9.485617,-1.4253353000000002,-0.58210224,0.5475621,3.0570664
3.406815,-10.070950999999999,-1.0668275,0.51180035,0.043982297000000004,3.4877263999999997
3.2738695,-10.327227,-0.7421929,1.4561456,-0.2546261,3.5824802000000004
3.514439,-10.474767,-0.31581438,1.8772063,-0.529306,3.4174595
3.4166217000000003,-10.079733000000001,0.08904515,1.7159204,-0.7268074999999999,3.3078003
3.2739272,-10.018172999999999,0.13034992,1.2171228,-0.776305,3.4408817000000003
2.3285334,-10.677441,-0.6337451999999999,0.6592458000000001,-0.5814739000000001,3.6596587
0.77111495,-11.178039,-1.0757914,0.23286183,-0.17957693,3.7826347
-0.75907683,-11.234782000000001,-0.68681985,-0.063093655,0.4118279,3.7352489999999996
-0.6592578,-10.36403,0.6936673000000001,-0.33297393,1.0442305,3.5292477999999994
2.1454442000000005,-9.70843,2.062509,-0.5608092,1.4637029,3.2716022000000002
4.6988697,-9.455680000000001,1.8195933000000002,-0.7631103,1.6239241000000002,2.9793467999999996
6.907665,-9.812109,0.113322355,-0.9254608,1.5169355,2.7211778
8.011334,-10.299597,-2.5052927000000005,-0.94462454,1.3221043,2.5636094
7.4009466,-10.737123500000001,-4.6037917,-0.8727519,1.0676528,2.4470215
6.631172,-10.766447,-5.337651999999999,-0.7588517,0.8792095999999999,2.264966
6.467552700000001,-9.947123,-4.732283,-0.6486516,0.7434579000000001,1.9450473000000001
6.832362,-8.871198,-3.3782089,-0.45540875,0.62901664,1.6575916000000002
7.638681,-7.990811,-2.3495736000000003,-0.019966567,0.51296973,1.4638251
8.151461999999999,-7.572774000000001,-1.8571535,0.53361696,0.35911894,1.2242787
8.335107,-7.4025655,-1.5526111,1.1197335,0.061557762,0.7526558000000001
8.349079,-7.5676026,-1.4808807,1.7797995,-0.32649875,0.30176744
8.338507,-8.200955,-1.2386355,2.3467347999999997,-0.73638934,-0.22947589
8.425492,-8.65773,-0.80564886,2.3089308999999996,-1.02011,-0.9236457
8.79646,-8.439551,-0.4257657,1.7712823,-1.0701486,-1.6380264
9.46902,-7.94942,-0.23535961,1.0047511,-1.0440559,-2.3438725
10.479938,-8.308675,-0.13919888,0.24565509,-1.1270987,-2.9139842999999996
10.874416,-8.858393,0.43843580000000004,-0.3872711,-1.3176887,-3.3095107000000006
10.995658,-8.71611,1.1749688,-0.9020385000000001,-1.5087848,-3.6150830000000003
11.782058000000001,-8.596477,1.3242042,-1.1964058000000002,-1.5135843999999998,-3.7854097
13.383185000000001,-10.189733,1.0097114999999999,-1.1958647,-1.3240591,-3.8945277000000003
13.653213000000001,-10.479325,0.878605,-0.89510953,-1.0403384,-3.9419134
13.743877,-9.942651,-0.7452861999999999,-0.3877947,-0.7810872,-3.9701178
13.021402,-8.6874,-2.7855484,0.1434486,-0.5969026,-3.9876932999999997
12.08435,-8.033322,-4.1007504,0.5645093000000001,-0.49204323,-3.958424
11.593998,-9.048186,-4.6331058,0.79182094,-0.42709953,-3.8210843
10.609674,-10.140564999999999,-4.1104136,0.8285427,-0.36215582,-3.6049602
10.033716,-11.451036,-3.1764257000000002,0.76040506,-0.32648128,-3.254149
9.477936,-12.7132015,-1.8250041000000001,0.67790335,-0.36322048,-2.799543
9.028046,-13.498413000000001,-0.18556021,0.57035613,-0.5144009,-2.2970452
8.358675,-13.454820000000002,1.3667922,0.4473977,-0.7587295000000001,-1.8525448
7.575676,-12.665030499999999,2.560771,0.31857494,-0.9503666999999999,-1.5554898000000001
6.9163795,-11.733331,3.0211954,0.13864896,-0.9035219999999999,-1.4011154
6.236100700000001,-11.2148905,2.689062,-0.25684264,-0.59318507,-1.2270538
5.408272,-10.849756,1.8264215,-0.7614871,-0.017208947,-1.0071946
4.632397,-10.585436999999999,0.8065011999999999,-1.201188,0.65989155,-0.74848443
3.9113402,-10.293841,-0.014911088000000001,-1.7324487000000002,1.2411908999999999,-0.20231856
3.0783112,-9.870432000000001,-0.29976365,-2.1434040000000003,1.4040823999999998,0.718587
2.4574087000000002,-9.42785,-0.45582727,-2.1056175,1.0053794,1.7960136000000002
2.1451854999999997,-8.865048,-0.5007808,-1.6494060000000001,0.3617893,2.525823
2.45919,-8.444809,-0.44876915,-0.9366135,-0.25247929999999996,2.9996102000000002
3.3432440000000003,-8.564960000000001,-0.33455619999999997,-0.046041787,-0.60276693,3.3626385
3.8775053,-8.797169,-0.58136964,0.75188786,-0.7241371,3.6245427
3.5853074,-8.766714,-1.0027683,1.1037636999999998,-0.73743653,3.7602943999999994
3.216409,-8.962828,-1.0248523999999999,1.1357032,-0.72199035,3.981218
2.5915701,-9.825698,-1.3085175,0.96961766,-0.58466786,4.2596154
0.8085219,-10.531863000000001,-1.94051,0.7290066,-0.26738444,4.493839
-0.43387723,-10.706918,-1.5515959,0.5054299,0.18772762,4.575817
0.03529053,-9.926322,-0.41438842,0.3361504,0.6274284000000001,4.526301999999999
2.2189077999999998,-9.56971,0.48537174,0.21106267,0.9393710999999999,4.3187127
4.076368,-9.791317,0.96392477,0.12800245,1.0229374,3.9215803
5.399375,-10.443287,1.0202651,0.0694641,0.8643045,3.386061
6.712508000000001,-11.302796,-0.24670811,-0.04230678,0.65830326,2.938384
7.288879,-11.930404,-2.0207253,-0.20628047,0.6194348000000001,2.6466696
6.8696446,-11.697428,-3.0870261,-0.32710959999999994,0.7062126,2.3070459999999997
6.620207000000001,-10.959104,-3.2698762,-0.364896,0.8675159,1.7949488999999998
6.851085,-10.264938,-2.7356052,-0.29197612,0.9984504999999999,1.1864923
7.5652466,-9.875498,-1.9860286,-0.102450825,1.0548944,0.67228335
8.262858999999999,-9.761285,-1.2102785,0.1386664,1.0719288999999999,0.31614894
8.992497,-9.802379,-0.81327206,0.29410544,0.906908,-0.111823246
9.987115,-9.472277,-0.6216784000000001,0.47561967,0.61997586,-0.44132397
10.290546,-9.217944000000001,-0.72613263,0.6938906,0.26385888,-0.7410319000000001
9.931569999999999,-9.056154,-0.81323373,0.76522213,0.055710907999999996,-1.2233187
9.786347,-8.575638,-0.60255355,0.67099184,-0.10662217,-1.8019477
10.46384,-8.001317,-0.12904747,0.45912632,-0.39461893,-2.4402146
11.456752999999999,-7.898480999999999,0.24246559,0.29462904,-0.7805460999999999,-2.8362648
11.993945,-8.137269,0.46418783,0.081716314,-1.2995721000000002,-3.035878
11.587457,-8.390384,0.6010308000000001,-0.16952384,-1.7350143,-3.2674484
11.3448,-8.53669,0.29858568,-0.33773866,-1.9474034,-3.4973955
12.114927999999999,-9.732286,-0.52306604,-0.35318482,-1.9117464,-3.7358947
11.888542999999999,-9.967311,-0.7318404000000001,-0.21636847,-1.6317431999999998,-3.9616008000000003
11.822904,-9.104498,-1.2085164,-0.06305875,-1.308613,-4.1388564
11.6269045,-7.5143647,-1.8851753,0.0109083075,-0.96686006,-4.2900367
11.385166,-7.013249000000001,-2.763857,0.015166911000000002,-0.7161435,-4.336899
11.087011,-8.344789500000001,-3.2216377,-0.11044443400000001,-0.59370863,-4.239457
9.981102,-9.764358999999999,-3.0153437000000003,-0.28237683,-0.51811844,-4.0355853999999995
9.880985,-11.231688499999999,-2.9304452000000003,-0.46710247,-0.47924995,-3.719384
10.295278999999999,-12.413515,-2.2250562,-0.58100265,-0.45315728,-3.3259866000000002
10.377974,-12.880058,-1.1957505,-0.5618564,-0.44252822,-2.8682043999999998
10.210524000000001,-12.723267,-0.2391137,-0.47349036,-0.45369834,-2.3859
9.564759,-11.930738,0.25751078,-0.40268236,-0.40418336,-1.9781387
8.952312,-11.338718,-0.051484913,-0.47349036,-0.13962634,-1.6241510000000001
8.05578,-10.922156,-0.7173603000000001,-0.763599,0.35168386,-1.3116847
6.9529533,-10.713278,-1.4187465,-1.1250567,1.0032501,-1.0279466
5.9295945,-10.620094,-2.0262130000000003,-1.4284822,1.6883616000000001,-0.6979048000000001
5.0120697,-10.606065,-2.1927345000000003,-1.772888,2.0620542,0.011676253000000001
4.3427563,-10.580581,-2.0430872,-2.0709903,1.820902,1.1072018999999997
3.7272358,-10.238899,-1.4590361,-2.1125116000000004,1.1640298,2.3805244
3.1093592999999995,-9.7652025,-0.83757794,-1.6616408,0.40067524,3.3945955999999997
2.950279,-9.407882,-0.51607496,-0.79021525,-0.13004448,3.9886708
3.2860226999999997,-9.508237,-0.4876606,0.12908456,-0.34032175,4.2399282
3.2976872999999998,-9.638577,-0.91178864,0.7912974,-0.40472440000000004,4.251116000000001
2.8914678,-9.337779,-1.2409626,1.1027163999999998,-0.6022084,4.2804027
2.4606552,-9.333853,-1.1457597,1.1617959,-0.97911227,4.4219837
1.4776151000000002,-10.1458025,-1.3150104999999999,1.1415674999999998,-1.4347829,4.545483
-0.8285374,-10.7445545,-1.8357686000000002,1.113904,-1.6280082,4.3676863
-2.2198176,-11.028642,-1.7051599999999998,1.0085036,-1.3495933,3.8023569999999998
-1.8932581000000002,-10.58785,-0.40169916,0.76735145,-0.65757024,3.149726
0.56421757,-9.916831,1.5725691000000002,0.42985713,0.27504644,2.7430293999999997
3.5277605000000003,-9.8967495,2.4764187,0.108873636,0.89626145,2.6301763
6.1030307,-10.345987,1.8749281000000002,-0.11894419,1.1815878999999998,2.6701095
7.7309732,-11.357489999999999,0.18372147,-0.18175858,1.1911697,2.7504817999999998
8.11078,-12.606976,-1.7391002,-0.071575955,1.1161206,2.7025726000000003
8.76544,-13.522632999999999,-2.973043,0.14294246,1.0399894,2.5066767000000003
9.768888,-12.963932000000002,-3.2834466,0.24195500000000003,1.0783168,2.1910164
11.059737,-10.816582,-2.941727,0.19244,1.1390018,1.8827914000000001
11.792247999999999,-8.7161875,-2.5963776000000003,0.21108012,1.0272136,1.6927598999999998
11.032232,-7.607336500000001,-2.3007033,0.37023670000000003,0.6780081,1.5101635
9.413848,-7.6598554000000005,-2.1529236000000003,0.6012659,0.033370696,1.0640923
8.140344,-8.133007000000001,-1.9589357,0.9808226999999999,-0.63255966,0.5541246
7.5774474000000005,-8.594522999999999,-1.408844,1.3523858999999998,-1.1015296,-0.03195698
7.757088700000001,-8.712586,-0.81589603,1.4497926,-1.2154473,-0.71493924
8.439388000000001,-8.029472,-0.18738937,1.1926881999999999,-1.1563678999999998,-1.4883993999999998
9.320742999999998,-7.603668700000001,-0.060956374,0.6901729999999999,-1.1627558,-2.2640061
10.374871,-8.091051,-0.7910634,0.1945693,-1.3251064,-2.8085663
10.538184,-8.436841000000001,-1.3247501,-0.2924823,-1.5577238000000002,-3.1423256
10.542895,-8.796727,-1.2767799,-0.8977450000000001,-1.7339497,-3.4510918
11.380896,-8.641612,-1.1388258999999998,-1.4423052,-1.6833701,-3.7188427
13.233260999999999,-9.52944,-1.1351292,-1.8128036,-1.3117895,-3.931232
13.707628,-9.32465,-0.77624804,-1.966637,-0.7171907,-4.0770893
13.955016,-8.711207,-1.1227753,-1.8484608,0.018465584,-4.229334400000001
13.288443,-7.3106565,-1.9373019,-1.5370591,0.6854606,-4.383726
12.594985000000001,-6.684150999999999,-2.9440827,-1.0691363999999999,1.1853228999999998,-4.472074500000001
11.779596000000002,-7.8184,-3.5340238,-0.67736226,1.3215982,-4.4236417
10.7174425,-9.305075,-3.3354199999999996,-0.44046873,1.2257797,-4.294819
10.372380999999999,-10.893627,-3.274377,-0.29461157,0.9271538,-4.088277
10.601928,-12.296716,-2.888049,-0.17802358,0.4427202,-3.7103257000000007
10.61407,-13.265113000000001,-1.7363517,-0.027384216,-0.032620203,-3.2796657
10.323338,-13.806337,-0.50497544,0.21320942,-0.37065557,-2.8979971
9.682343,-13.5164175,0.6753276999999999,0.46659634,-0.3903429,-2.653651
8.95802,-12.704036,1.5146295,0.4580791,-0.12098622,-2.3358613999999998
8.291369,-12.217918,1.7359589,0.14028956,0.3208264,-1.8998781000000002
7.397633,-12.024744,1.4878813999999998,-0.37391934,0.7807556,-1.2099844
6.478662,-11.925289,0.54357,-0.8333249,1.0714053,-0.33751178
5.8389025000000006,-11.830803999999999,-0.3073772,-1.2277693,1.1038858999999999,0.65633106
4.9825919999999995,-11.673055,-0.6710373000000001,-1.5594168,0.7951371,1.6980832
4.1639476,-11.767616,-0.6009829000000001,-1.7164439999999999,0.3160442,2.6663918
3.6039343,-11.269488,-0.14705187,-1.5386473999999999,-0.13695599,3.4584919999999997
3.6371372,-10.450738000000001,0.35838327,-0.93340206,-0.40205404,3.9791064
3.3499477,-10.092096000000002,0.12445061,-0.15938346,-0.3658559,4.2905254
2.1141374,-9.774396000000001,-1.0537648000000002,0.44319147,-0.31314698,4.456611
0.42197326,-9.278231,-2.1325347000000003,0.7886619,-0.5404587,4.538048000000001
-1.1957122,-9.029866,-2.694013,0.91109675,-1.057879,4.6343904
-1.8200433999999996,-9.658631,-2.541225,0.85414666,-1.5236549,4.733944
-2.1929545,-10.003347999999999,-2.5260935,0.6827379,-1.6860055,4.6961575
-1.6687584999999998,-10.354702,-2.0551445,0.5022709,-1.2936903999999998,4.390585
-0.4496215,-10.23073,-0.8556303,0.31435126,-0.5936912,4.020104
1.5427661,-9.954555000000001,0.79343843,0.13283701,0.35650095,3.6075432000000003
3.8655437999999993,-10.0393,2.1064665000000002,-0.13491395,1.1640298,3.1779478
5.8128057,-10.624022,1.8981613999999998,-0.29993483,1.6351466000000001,2.8558998
7.187086999999999,-11.413705,0.41855437,-0.25254914,1.7336181,2.5460863
8.389532,-12.682105,-1.3036715,-0.03429572,1.5622091999999999,2.269277
8.974637,-13.56209,-2.6669970000000003,0.20629792,1.3045813,1.9956619
9.494810000000001,-13.648644,-3.1766365000000003,0.27921778,1.1645709,1.7326931
10.481145,-12.595742,-2.777724,0.14826572,1.0527826999999998,1.4404551
11.036839,-11.098312,-1.9060047999999998,0.036494836,0.9149016,1.3355783
10.975556,-10.071852,-0.9661466000000001,0.0024085543,0.74029887,1.3116149
11.023747,-9.457298,-0.60224706,-0.041748274,0.4459316,1.065698
10.49392,-9.374085000000001,-0.47023082,0.08546878,-0.08105309,0.62226224
9.951117,-9.526366000000001,0.02273534,0.48682470000000005,-0.6043377,0.32735395
9.7793665,-9.557357000000001,0.419943,0.8190132,-1.1856196,-0.18950784
9.688271499999999,-8.930113,0.51626647,0.9153554,-1.6008508999999997,-0.94753927
9.412431,-8.300477,-0.0036296096999999996,0.7114835,-1.8308153999999999,-1.8179001000000001
9.574067,-8.057504,-0.8652358,0.34363788,-1.8707311000000002,-2.4657313999999997
9.581192999999999,-8.444148,-1.6839473999999999,-0.09498082,-1.7685246,-2.859652
9.119860000000001,-8.531211,-1.6367816000000002,-0.526688,-1.6939992,-3.1220972999999996
9.4969845,-8.096912,-1.6233933,-0.8381071,-1.6210618,-3.3871953
11.223749,-8.30311,-1.6452668000000001,-0.9765117,-1.4672285,-3.6304593
12.096186999999999,-8.903030000000001,-0.94404334,-1.020686,-1.1712556,-3.8316784
12.551909,-8.684421,-0.5557612,-0.9935461,-0.7901104999999999,-3.9610422
13.434325,-8.067148,-1.2239541999999999,-0.8343721,-0.45952773,-4.0456734
13.438769,-7.106345,-1.8515607,-0.6086661,-0.26789057,-4.1095524
12.886302,-7.6395526,-2.6146693,-0.44736278,-0.17687167,-4.1718254
11.923498,-8.993273,-2.8830880000000003,-0.39786527,-0.14599679999999998,-4.1633260000000005
10.767683,-10.264431,-2.6645262,-0.41968188,-0.19071212,-3.9977638999999994
10.531031,-11.524451,-2.1588037,-0.48303732,-0.28173104,-3.6623987999999996
10.561437,-12.388309,-1.2562664,-0.5181707999999999,-0.43504077,-3.2642195
10.289494,-12.686971,-0.35463873,-0.49953067,-0.5819626,-2.8985033
9.58578,-12.463103,0.17763062,-0.42874014,-0.51595426,-2.7617042
8.576606,-11.834741000000001,0.6164590999999999,-0.5059359999999999,-0.14866714,-2.7036896
7.7669435,-11.125022999999999,0.9423961,-0.88069314,0.5688901,-2.5434508
7.1913967,-10.638578,0.81320494,-1.4774212,1.4775783000000002,-2.2315083
6.869912599999999,-10.413504,0.2629408,-1.9937769,2.226569,-1.4825176000000002
6.1232953000000006,-10.618083,-0.24000435,-2.2972023,2.3133292,-0.33908257
5.315434,-11.031466,-0.45620078,-2.4302837999999998,1.6926378,1.0827323999999998
4.4894733,-11.129945,-0.42053676,-2.1433516,0.76852083,2.3826709999999998
4.061580999999999,-10.882288,-0.16866672,-1.3097299,-0.08796459400000001,3.4255053999999996
4.5467043,-10.651572999999999,0.19383456,-0.25253168,-0.5707925,3.920568
5.637071,-10.9662,0.31649432,0.8956681000000001,-0.8161858000000001,4.1521206
5.09285,-11.362096000000001,-0.46956040000000004,1.7793458,-1.1339753000000001,4.2953253
3.4386196000000004,-11.186515,-1.4787834999999998,2.3031366,-1.5108792,4.41296
0.98228353,-11.281249,-2.2114380000000002,2.4638987,-1.9361985000000002,4.575851999999999
-1.4613729,-12.120742,-2.1126723,2.546959,-2.3024383,4.891529599999999
-4.05437,-12.083803999999999,-2.19125,2.6305254000000002,-2.3082852000000003,5.1332054000000005
-4.3890123,-11.363715,-1.0231190000000001,2.7125034,-1.8856188000000003,5.178461599999999
-2.7752627999999997,-10.369058,1.0588213,2.8141689999999997,-1.2542983,4.9484797
0.44298476,-9.851183,3.0070598,2.8024577999999996,-0.6362598,4.414566000000001
3.7904042999999996,-10.135029,3.4950172999999993,2.6273315,-0.06773623,3.7534177000000004
5.9011517,-10.750129,2.5437915,2.3052832999999997,0.46457174,3.0225437000000004
6.8441224,-11.993341000000001,0.58112067,1.862912,0.8483871,2.2692945
7.669595200000001,-13.129083999999999,-1.4501201000000001,1.4381164,1.1592652,1.5714246
7.6616178,-13.78771,-3.0062554,1.0149089,1.3982705,0.8847074
7.447269400000001,-13.604179,-3.3413190000000004,0.40168753,1.5547742,0.15756832
7.884882000000001,-13.124056,-2.8894662999999996,-0.34622097,1.6362113,-0.40563196
8.757587,-12.270456,-2.1470435,-0.94828975,1.7203186999999998,-0.59620446
9.8928795,-10.936685,-1.6766595000000002,-1.2974777,1.6995667,-0.48813367
10.607108,-9.809130999999999,-1.8176491000000001,-1.4188653999999998,1.4360568999999999,-0.38859755
10.826772,-9.039347,-2.0524723999999996,-1.4337705,0.804719,-0.5291315
11.109067,-8.709531,-2.399105,-1.0031105,0.12973033,-0.40563196
11.101032,-8.371901,-2.5530044999999997,-0.24560273,-0.39297834,-0.28530896
10.788197,-7.703717,-2.4802303,0.47460738,-1.0264456,-0.64676666
10.427821,-7.0307937,-2.7036092000000003,0.8403236999999999,-1.6120036,-1.3414426000000002
10.126075,-7.373863,-3.4508681000000005,0.7625867,-2.1874561000000003,-2.096821
9.257238000000001,-8.659694,-3.4293876000000005,0.31916836,-2.5430493,-2.52694
8.046012,-10.021745,-2.7029102000000003,-0.45427429999999996,-2.7101995999999997,-2.685032
7.2789574,-10.480427,-1.703532,-1.2240169,-2.6761307999999997,-2.794691
8.035525,-10.65052,-1.0928764,-1.8340793000000002,-2.4057095,-2.8953092000000002
9.161901,-11.869187,-0.47214615,-2.2051013,-1.8643258000000003,-3.0182676
8.438115,-11.197517999999999,1.2597618,-2.3914150000000003,-1.0514736,-3.1199505000000003
9.091139,-9.296168,1.7599393,-2.3211482000000005,-0.22795746,-3.19767
10.25496,-7.090361,0.87521476,-2.030481,0.49492303,-3.2977296999999997
11.175798,-7.1144185,-0.73415804,-1.5966446,1.0112786,-3.4004773999999998
10.93792,-8.574652,-2.4664013,-1.1175518,1.299258,-3.4712852999999995
9.796517,-9.986253999999999,-3.5610974000000004,-0.77845174,1.3562254999999999,-3.444128
9.441927,-11.30001,-3.9471002,-0.5197416,1.2252735000000001,-3.2711136
9.755452,-12.219172,-3.2466908,-0.31534609999999996,0.9197187,-2.9213842999999997
9.795206,-12.100956,-1.8179173,-0.16255997,0.50609314,-2.5040414
9.250295,-11.507672999999999,-0.63107324,-0.033213615,0.08716174,-2.1580298
8.361079,-10.579432,0.44359767,-0.023073252000000002,-0.22848105,-1.8854792
7.5118365,-9.8354,1.3521683999999998,-0.12742649,-0.30780625,-1.569819
6.906381,-9.237051,1.775291,-0.24027948,-0.15343189,-1.2988566000000001
6.4235473,-9.019973,1.7373189999999998,-0.33129840000000005,0.20427333,-1.1599108999999999
6.0166097,-9.256788,1.2570708000000002,-0.522953,0.7078532,-1.0779502
5.5141816,-9.807627,0.4735348,-0.89184576,1.0426946,-0.6872059
4.789964,-10.126583,0.044254426,-1.3177061,1.0794163,0.14959218
3.7859127999999997,-9.792255,-0.15212758,-1.4859209,0.6684611,1.3063266000000002
3.3576187999999996,-8.960951,-0.07434475,-1.2181525,0.10793116,2.1899867000000004
3.8130152,-8.979148,-0.11105265,-0.72467816,-0.21676989,2.6520627
4.322157,-9.454674,-0.3850355,-0.10293952,-0.36583847,2.8894625
3.9889412,-9.183516000000001,-0.30964687,0.45172609999999996,-0.32855824,3.0725822
4.495573,-9.247364,-0.12625104,0.7812443,-0.38926077,3.1817179
5.102226,-9.645923,-0.24167071,0.8525759,-0.62453115,3.299353
4.444893,-10.036686,-1.1277264,0.82650065,-0.74270743,3.4744968000000003
2.5113547,-10.307297,-2.1467276,0.8909033000000002,-0.66552895,3.6581402
0.26553613,-10.280023,-2.4763706,0.9909805,-0.39139009999999996,3.7896332999999998
-0.3683527,-9.257133,-1.3897861999999999,1.0005449,-0.025150195,3.8705294
1.8846389,-8.535022999999999,-0.2486522,0.85309947,0.26389378,3.7960211999999998
4.331111,-8.485836,0.21033539999999998,0.67584383,0.3480012,3.5075010000000004
5.914080599999999,-9.017674000000001,0.29621065,0.50070006,0.3416133,3.2152455
6.9086795,-9.798836,-0.47720268,0.33515558,0.36397097,3.0081797000000003
7.3899425999999995,-10.142719,-1.7806827,0.16641714,0.4017748,2.8548697999999995
7.185765700000001,-9.964926,-2.7361321,0.06738716,0.43636720000000007,2.7042131
6.7470713,-9.296197,-2.6439266,-0.03267256,0.4752357,2.4023932999999995
6.5948286,-8.432148,-2.0042245,-0.0864287,0.44861943,1.9653455000000002
6.8211759999999995,-8.069791,-1.7270526000000002,0.03864159,0.47788859999999994,1.6230688999999998
7.140600999999999,-8.055425999999999,-1.8752153000000003,0.19303341,0.5343150999999999,1.3467833
8.110664,-7.806964999999999,-2.3017855,0.25583035,0.45713663,0.7622899999999999
8.719204,-7.6008143,-2.3967009999999997,0.32983232,0.12761848,0.07559021
8.624949,-7.891902,-2.2328131,0.6135705,-0.04855506,-0.33534756
8.616924000000001,-8.328469,-2.0700936000000003,0.747699,-0.24179791,-0.9544333
8.608889,-8.364365,-1.737702,0.5688377,-0.32642892,-1.623034
9.247374,-8.358608,-1.5271847,0.20900318,-0.46005133,-2.2272146
10.598461,-8.930123,-1.6369061000000003,-0.124756135,-0.74111915,-2.674909
11.573083,-9.411453999999999,-1.3923433,-0.38505453,-1.0951068000000002,-2.9533063999999998
11.734595,-9.416826,-0.9600462,-0.73638934,-1.4304719,-3.217881
11.988380000000001,-8.596027000000001,-1.1984223999999999,-1.0903945,-1.4469826000000001,-3.4217703
14.509974,-9.198360000000001,-2.0208209999999998,-1.3879556999999998,-1.0663613,-3.5010781000000004
13.984992000000002,-10.103924000000001,-2.2142343999999996,-1.4890975,-0.5782101,-3.5681510000000003
13.907860999999999,-9.639764999999999,-2.0927718,-1.3970139,-0.07623598,-3.6815276
13.871737,-8.402135000000001,-2.9747574,-1.1372391000000002,0.3059562,-3.8327080999999996
12.572165,-7.6487083,-3.9490154000000004,-0.7481179,0.6162932,-3.9812357000000005
11.578417,-8.081858,-4.368824,-0.43668140000000005,0.7589739000000001,-4.0254097
10.679202,-9.025988,-3.9933943999999997,-0.22109829999999997,0.8153829,-3.9061866000000003
10.261549,-10.053329,-3.63481,-0.079499744,0.787702,-3.6272303999999997
10.371654,-11.155621,-3.2227294,-0.0076270886,0.6716725,-3.1523962000000005
10.016832,-11.768889,-2.3971515,0.021624627999999996,0.52208036,-2.5785494
9.008806,-11.572364,-1.0939586000000001,0.062081363,0.19043288,-1.8966492
8.305792,-10.766772,0.0007757214,0.14564772,-0.18908897,-1.2679642
7.738702,-10.006882000000001,0.7906036999999999,0.22177899,-0.52019536,-0.7244687
7.3163643,-9.437435,1.3650876,0.13447762,-0.50689596,-0.4481831
6.699752,-9.3531885,1.2984905,-0.29668853,-0.15395549,-0.3395887
5.9595795,-9.745809,0.8026800999999999,-0.97912973,0.46300095,-0.47586402
4.9766736,-9.99109,0.30469567,-1.6653058999999997,1.3934883,-0.41732568
4.14308,-10.294081,-0.023300372000000003,-2.0853019,1.9519064,0.14480996
3.3379673999999997,-10.353659,-0.25804704,-2.1720622000000005,1.9433892,1.1210948
2.4001392999999998,-9.713065,-0.21327548,-1.7967814999999998,1.1986747,2.2842171000000002
1.9592135,-8.870325999999999,-0.025273193,-0.7880335999999999,0.10951941,3.1338084
2.1006916,-8.465418,0.24286781,0.5289395,-0.9311505999999999,3.701285
3.7925687000000003,-9.038408,0.14396814,1.6803506999999998,-1.6599128,3.8519242
4.7781754,-9.26468,-0.33010298,2.3047771,-2.1517642,3.5506279999999997
5.131694,-8.765,-1.1099806,2.4107187000000003,-2.3120027000000003,3.3930597000000002
5.693747,-9.644113,-1.3858788999999998,2.173284,-2.0351934,3.5660741000000002
3.8383746,-10.422458,-1.2528187,1.7649816000000003,-1.4501766,3.8332841
1.1528081000000001,-10.607022,-0.71801156,1.273654,-0.7789055,3.8668294000000003
-0.7074196,-9.760900999999999,0.033241097000000004,0.80786055,-0.19282398,3.6171597999999996
-0.6479285,-8.466529,1.1645683999999998,0.42832124,0.32192597,3.2418792
2.3579154,-8.40088,2.2003577,0.13447762,0.58383006,2.7665040000000003
5.5605139999999995,-9.564012,1.5266483,-0.12793264,0.6120521,2.2224673999999998
9.152966000000001,-10.235116,-0.5799906,-0.42924628,0.5055695,1.751368
10.402519,-10.45614,-3.0546662999999996,-0.70125586,0.48642325,1.4601773
9.048358,-10.379984,-4.7192974,-0.8806408000000001,0.55881953,1.2472646
7.512142999999999,-9.952160000000001,-5.2971715999999995,-0.88809335,0.73926914,1.0236706
7.268327,-9.028592,-5.1696844,-0.84018403,0.9144129000000001,0.6872583000000001
8.251616499999999,-7.8341727,-4.8013897000000005,-0.79707444,1.0480179,0.43120104
8.8394785,-7.032316000000001,-4.0014677,-0.6783571,1.1646059,0.29918435
9.234848,-6.564603999999999,-3.0264528,-0.52450633,1.2343493,0.1847431
9.384265,-5.971723,-2.3464134,-0.41006509999999996,1.0756987,-0.16498597
9.344723,-5.945808400000001,-2.1648467,-0.20458749,0.8979021,-0.33587116
8.919216,-6.228918,-2.0747,0.050387654000000004,0.5327268000000001,-0.47586402
8.557959,-6.5299935,-1.6291871999999998,0.225514,0.18725638,-0.75000286
8.587025,-6.6201115,-0.8306635,0.33995524,-0.19015363,-1.2567767
9.037316,-6.7281666,-0.2352734,0.43577382,-0.6527531,-1.8396816999999999
9.678944,-7.381228,-0.2516306,0.60081214,-1.0514561000000002,-2.1819582000000004
9.50905,-8.000082,-0.18664239999999999,0.6125233,-1.477299,-2.4954891
9.08682,-7.889325599999999,0.074651204,0.45547858,-1.7184511000000002,-2.8292835
9.528827,-7.546792,-0.12617444,0.30164525,-1.6822529999999998,-3.1353619999999998
10.732077,-8.769491,-0.5289271,0.32026792,-1.3884094,-3.3802315999999997
10.367525,-9.066832000000002,-0.35203385,0.49221775,-1.0040705,-3.6107197
11.221814,-9.427361,-0.65632725,0.7008893,-0.59950316,-3.7922339999999997
11.505096,-8.442328999999999,-0.8449424999999999,0.8222421,-0.23006929999999998,-3.8540010000000002
11.999614999999999,-7.942448,-1.1421204,0.87388635,0.050981067000000005,-3.8034215
12.023585,-8.908145,-1.210834,0.8158715999999999,0.2197195,-3.6879156
11.341649,-9.708335,-1.2175857,0.6519154,0.27881634,-3.5314120000000004
11.526711,-10.650310000000001,-1.7007164000000001,0.4911531,0.1606401,-3.262579
11.668830999999999,-11.471195,-1.6177046,0.35274848,-0.09698795,-2.8372595
11.420264999999999,-11.771151,-0.9529976000000001,0.24682446,-0.42648867,-2.3549552000000005
10.496936999999999,-11.070779,0.008370129,0.1664346,-0.6809401999999999,-1.9802157
9.509577,-9.9508,0.44819456,0.05623451,-0.71555007,-1.6634732
8.263655,-9.247633,0.15080597,-0.13325588,-0.49942598,-1.3701707
7.108576299999999,-8.9344225,-0.46355575,-0.46542695,-0.08847074,-1.0960319
6.1318855,-8.724528,-0.9975202,-0.93493795,0.46034804,-0.71432835
5.5608306,-8.517822,-1.6791015999999999,-1.4092312,0.9750979999999999,-0.21715386
4.937007,-8.323845,-2.1171927000000004,-2.0187526,1.2556247999999999,0.702687
3.9899660000000003,-8.132097,-2.1504529,-2.4914575,1.0304599,1.9531281000000003
2.999657,-8.004592,-1.9266333999999998,-2.5590715,0.5524316,3.3068230000000005
2.7575746,-7.7886353,-1.5132504,-2.1827087000000005,0.18725638,4.2692847
3.2826612,-7.7895064,-1.1265868,-1.3091540000000002,-0.09431759,4.780317299999999
3.5078406,-8.022682000000001,-0.99155384,-0.12473868,-0.16086699,4.8154507
3.6911504,-8.313463,-1.1576731000000002,0.8973261,-0.23591615,4.476351
3.4249727999999995,-8.533700999999999,-1.5348461000000002,1.2747362,-0.5159193,4.0834947
2.887321,-9.332005,-1.9051046000000003,1.2816477,-0.739496,3.9078271
1.6701664,-10.650654,-2.4911668,1.1187735,-0.8007221,3.956801
-0.45678493,-11.326365,-2.9001443,0.991539,-0.7772998000000001,4.005775
-0.8890819999999999,-11.713833000000001,-2.0983932000000003,1.0272136,-0.62292546,3.9765057999999995
0.18555063,-11.306646,-0.44863509999999995,1.0532887,-0.33227578,3.822655
3.0247387999999997,-10.847793,1.4315985,0.8872032,0.05417502,3.5298760000000002
6.751955000000001,-11.085202,2.6514444,0.5326744999999999,0.40338048,3.1418195
9.698069,-11.173855,2.3984444,0.083932884,0.6088581,2.7234118
10.765116,-11.216978,0.357665,-0.29932398,0.62163395,2.3726006
10.096233,-11.575534,-1.7402973000000002,-0.5207887999999999,0.590218,2.1399654999999997
8.429753999999999,-11.298927,-2.4589026,-0.66343457,0.6328215,1.9408933999999998
7.3666615,-10.74354,-2.2961543,-0.7683114000000001,0.74993306,1.6789893
7.1842619999999995,-9.929664,-1.521477,-0.80185664,0.8563806999999999,1.2366182
7.4913419999999995,-9.359796000000001,-0.8500278,-0.5974262,0.85213953,0.851232
7.989681200000001,-8.636968,-0.9047497,-0.10503391,0.72438145,0.6909933000000001
8.314967,-8.041387,-1.401738,0.349572,0.40605086,0.46476373
8.521185000000001,-7.7996197,-1.8163276999999998,0.6167819,-0.08686504,-0.028693212000000003
8.463455,-7.86954,-1.9401078,1.0325367,-0.47013932,-0.337983
8.235882,-8.171793,-1.4765617,1.3918476999999998,-0.8071100999999999,-0.761173
8.093216,-8.20514,-0.8999134,1.4408216,-1.0056587,-1.3430133999999998
8.254806,-8.059965,-0.34195906,1.1315318,-1.1584448999999999,-2.1691825000000002
9.150361,-8.180959,0.007824250999999999,0.47253045,-1.428325,-3.005457
10.083563999999999,-8.778561,0.28500578,-0.34084535,-1.5837641000000002,-3.6043317000000004
10.051741,-9.29658,0.9105628000000001,-1.0696076,-1.6465786,-3.9822829
9.815471,-9.189445,1.1478281000000001,-1.7041221000000002,-1.5848287,-4.3229537
11.503181,-9.838685,0.121788256,-2.0639915,-1.3096253,-4.6136208
12.5415945,-10.592399,-0.62218595,-2.1113596,-0.8071100999999999,-4.79887
12.366147,-9.99425,-0.6038751,-1.8089988000000001,-0.23591615,-4.825486
12.700838000000001,-8.81321,-1.5577729999999999,-1.2447339,0.27084020000000003,-4.732861499999999
12.665538,-7.6566663,-2.9167027,-0.6586349,0.56787777,-4.596569000000001
12.666227000000001,-8.115281,-4.2361665,-0.21574014,0.72598714,-4.444324
12.125587,-9.761572,-4.8036017,0.012060225,0.71799356,-4.2761264
11.290213,-11.737986,-4.453981400000001,0.15685274,0.60514057,-4.023263
11.073259,-13.518572,-3.5520853999999997,0.20690878,0.4236263,-3.6506355000000004
11.0654545,-14.870195,-2.1203241000000004,0.19730946,0.30171508,-3.1263037000000002
10.663545,-15.611707999999998,-0.567014,0.22659610000000002,0.26818728,-2.5700147
9.568522,-15.346153,0.94169694,0.28675759999999995,0.42947316,-2.0387366
8.159822,-14.188048,2.0793738,0.26492350000000003,0.64720297,-1.427627
6.858191000000001,-12.708078,2.3168306,0.15474088,0.8148768,-0.73773324
6.055769000000001,-11.54622,1.7424905,-0.011327186999999999,1.0059903000000001,-0.107477374
5.4216223,-10.777192,0.8080909000000001,-0.17793632,1.0858392,0.43708279999999994
4.7237315,-10.113549,0.13332829999999998,-0.33658674,1.0448414000000001,0.9145700000000001
4.100703,-9.898444,-0.27626213,-0.6469236999999999,0.78028435,1.5704124
3.4668233,-10.113375999999999,-0.6009733,-0.91043353,0.28307495,2.4695013
2.6069217,-9.927309,-0.42441535,-0.8513542,-0.30777135,3.4079822999999996
2.1112838,-9.564414,-0.0015993267000000001,-0.5122541,-0.8198684000000002,4.196888400000001
1.6647172,-9.288517,0.35471532,-0.024102997,-1.0375983,4.6456475
0.9146329,-9.385846,0.2629887,0.4911531,-1.0003355,4.811192
0.38810009999999995,-9.079627,0.010228029,0.9265953000000001,-1.0024648,4.807998
0.039466022999999996,-8.485463000000001,-0.24843195,1.2641071000000002,-1.0381218,4.63446
0.14556746,-8.338784,-0.55059934,1.5020478000000002,-1.0753846000000002,4.2591790000000005
0.41821915,-9.178699499999999,-1.2114373,1.4903367,-0.9172927,3.824278
-0.18976443,-10.108837,-2.1318932,1.0458361999999999,-0.43874088,3.3020582000000003
0.20355502,-10.905445,-1.9215384999999998,0.33147293,0.3310017,2.8511697999999996
1.4935126,-11.230281,-1.0681013000000001,-0.35894442,1.2285024,2.4977057
4.041709399999999,-11.734212,-0.33663434,-0.7927809,1.8422648999999998,2.1831102000000002
6.9122710000000005,-12.659848,-0.25730965,-1.0408446,2.1845589,1.9041717
9.303428,-13.572624,-0.71679527,-1.167538,2.2495024,1.6917826
10.967618,-14.322976,-1.3561141,-1.2590979,2.1669834,1.603399
12.211433999999999,-14.124975,-1.8368220000000002,-1.2665505,1.9711049999999999,1.5496428999999998
12.328261,-12.342205,-2.265116,-1.2372813,1.6570156000000003,1.408568
11.743522,-9.914896,-2.9828305,-1.3133951000000001,1.4180101999999999,1.169039
10.871754,-7.9657483,-3.7350314,-1.4853450000000001,1.3493315000000001,1.080673
9.765978,-6.996135000000001,-3.467599,-1.4603343999999998,1.1773816000000001,1.1807326999999999
9.030852000000001,-6.6510735,-2.42298,-1.164885,0.7919955,1.1674333000000001
8.4042425,-6.729545599999999,-1.3293087,-0.88540554,0.31503192,0.78682935
7.762873599999999,-6.8916235,-0.5130583,-0.57932717,-0.067701325,0.21191788
7.1294154999999995,-7.287930499999999,-0.24376804,-0.013456488,-0.23218115,-0.27780405
6.8868446,-7.717058,-0.12410584,0.5811423000000001,-0.17788395,-0.9634391999999999
7.00258,-7.423481,-0.04075889,0.9835803,-0.07887143,-1.8077073000000001
7.7707744000000005,-6.9867883,-0.25623703,1.1416723,-0.15711454,-2.5870318
8.4312,-7.148032700000001,-0.88851696,1.2609131000000002,-0.46108109999999997,-3.1023228
8.452538,-8.210953,-0.88450426,1.2955055,-0.9779778,-3.328046
8.806275999999999,-8.422467,0.042425255999999995,1.0868514999999999,-1.5188030000000001,-3.5239244
10.602233,-7.625303,0.7667286999999999,0.7770206000000001,-1.8307631000000002,-3.7613589999999997
13.477066,-7.784028999999999,0.56669796,0.4773300999999999,-1.8078644,-3.9769419999999998
14.846675,-8.529803,1.1779758999999999,0.22874285,-1.4394951999999999,-4.1179996
15.409904999999998,-8.514605,1.9436703999999998,0.10046115,-0.96146697,-4.226594
15.742929,-7.910174400000001,1.6210374,0.08555604,-0.5398478,-4.288344
14.752189999999999,-7.057685,0.5054350999999999,0.080215335,-0.22844614,-4.3421173
13.551851000000001,-8.227981,-0.688898,0.10737266,-0.03415609,-4.3623457000000005
11.8444605,-9.692581,-1.0213952,0.14090043,0.057910025,-4.2595983
10.868546,-10.85463,-1.7086172999999998,0.18350391,0.09838421,-4.0120583
11.147097,-12.139617999999999,-2.2469678,0.27132890000000004,0.031834807,-3.6905336
11.397195,-12.758797,-1.9566853,0.36288884,-0.18161896,-3.2881129999999996
10.960703,-12.605577,-1.3240032,0.44486699,-0.4408527,-2.8792869999999997
10.1499405,-12.106923,-0.73567116,0.48478267,-0.6186494,-2.4491682
9.353964,-11.346908,-0.25216689999999997,0.43687338,-0.6080029,-2.0334308
8.619873,-10.864561,-0.24120146,0.28091073,-0.30351275,-1.5750898000000002
8.06279,-10.565085,-0.4743201,-0.05921902,0.13510594,-1.0682986
7.255676299999999,-10.457365,-0.5605591999999999,-0.45368087,0.5519255,-0.46572366
6.2720519999999995,-10.3782425,-0.6774729,-0.7411366,0.8255406999999999,0.22362904
5.360761,-10.252738,-0.61911184,-1.061073,0.8617214,1.1589161000000001
4.4607425,-9.754294,-0.5382931,-1.2175591000000001,0.7185345999999999,2.1735458
3.7499807,-9.106058,-0.58640707,-1.1302577,0.44226643,3.0779579
3.3378427000000004,-8.70368,-0.56901556,-0.7762701,0.20217894,3.794468
3.0736666,-8.441314,-0.6620446999999999,-0.27642524,0.19046777,4.1825247
2.9587355,-8.863296,-0.90133077,0.1712517,0.13245304,4.322011
2.502161,-8.910165,-1.3184198,0.4331558,-0.122522116,4.334246
1.6317635,-8.577313,-1.844675,0.48638836,-0.51590186,4.3608623
1.1166556,-8.921025,-1.8311331999999998,0.5034228000000001,-0.8762949000000001,4.481168
0.34503320000000004,-9.589755,-1.8111273999999997,0.5460088000000001,-1.0098999,4.6632233
-0.38029498,-9.857885000000001,-1.7152827000000002,0.6514091999999999,-0.87735957,4.783529
0.29170954,-9.756506,-0.93395895,0.7940550000000001,-0.60374427,4.716979
1.5130876,-9.372361,-0.04604529,0.85953975,-0.2934073,4.4982023
3.83463,-9.658372,0.5365789000000001,0.79672533,-0.03148574,4.1340914
6.253655,-10.07503,0.38315848,0.61041147,0.13084733,3.730589
7.9694449999999994,-10.674002,-0.5106545,0.416645,0.17769197,3.3414502
9.047812,-11.705875,-1.7736821,0.29581586,0.14735815,2.8597045
9.423291,-12.697399,-2.6324728,0.18617427,0.17716837,2.3992517
9.236734,-12.73268,-2.5982068,0.035499997,0.48324677,2.0324706999999997
8.890572,-12.037787,-2.0388544,-0.1518611,0.8920726999999999,1.620992
9.208972,-10.966095,-1.3369316999999998,-0.18165387,1.1614294,1.141358
9.788809,-9.911814,-1.0996281,0.030176742000000003,1.1933688999999998,0.7096509
10.288881,-9.145736,-1.349305,0.36608282,0.9000663000000001,0.3588397
10.732939,-8.614998,-1.7555436000000002,0.54386204,0.36187658,-0.044662975
10.752130000000001,-8.740263,-1.960832,0.7254111999999999,-0.23696335,-0.32517229999999997
11.372975,-8.895321000000001,-1.9130342,0.8840442,-0.6926339,-0.66320765
12.025741,-8.496036,-1.7499603,0.8286823,-0.91249305,-1.2253433
11.511801,-7.712240700000001,-1.4580497,0.6562089,-0.9348506999999999,-1.8273946
11.172227000000001,-7.2472296,-1.182161,0.32614967,-0.96785486,-2.4928188
11.730276,-7.5135317,-1.0199108000000001,-0.027279496,-1.0716496000000002,-3.0261915
12.056069,-7.8439119999999996,-0.45954305,-0.33285174,-1.2249594,-3.3897784
11.571244,-7.8513535999999995,-0.091707505,-0.62402505,-1.2813858,-3.6192019999999996
11.866736,-8.178814,-0.57736653,-0.91041607,-1.1206236,-3.7586712999999996
12.371051,-9.198627,-1.5691215,-1.0977947,-0.7442781999999999,-3.7799641999999998
12.038458,-8.976877,-1.5955821000000001,-1.0945833,-0.3157475,-3.7448308
12.534125,-8.553113,-1.9908264999999998,-0.89392275,-0.006475171500000001,-3.680428
12.603738,-7.609261,-2.4180862999999997,-0.49146727,0.15426965,-3.6186782999999996
12.332993,-7.310550999999999,-2.6257787,-0.037926003,0.17397442,-3.5819392
12.134456,-8.642704,-2.8978748,0.32882002,0.06855653,-3.5553402999999997
11.427342,-10.249242,-2.4670236,0.579554,-0.13849187,-3.4855970999999997
10.868631,-11.73132,-1.9237313999999999,0.7131764,-0.42008328,-3.2614794
10.604982000000001,-13.076421,-1.403098,0.6705904,-0.71977377,-2.8643646
9.871888,-13.573476999999999,-0.6619202,0.46244243,-1.0237403,-2.344815
8.763736999999999,-13.14795,0.20627484,0.21542598,-1.2132481000000002,-1.8188949
7.7274009999999995,-12.236037,1.0228988,0.02274164,-1.2867091,-1.4499671
6.8411726999999996,-11.201378,1.7901542000000001,-0.17048377,-1.024805,-1.3152976
6.2657695,-10.340835,2.2457802000000004,-0.53885293,-0.44244096,-1.3152976
5.796132,-9.700194,2.055422,-0.95565504,0.31504938,-1.3445842
5.3874515999999995,-9.408542,1.4550713,-1.4012201000000002,1.2402309,-1.2311902
4.988778599999999,-9.683062,0.8619030000000001,-1.8488971,1.9636525000000002,-0.6504319000000001
4.2548699999999995,-9.920345,0.18240944,-2.2108784,2.0876930000000002,0.41900119999999996
3.4024669999999997,-9.982231,-0.5672438,-2.3173435000000002,1.596889,1.5491368
2.8050945,-9.505154,-0.9019149,-2.024041,0.89687234,2.6435804
2.789044,-8.850721,-0.68954927,-1.1845549,0.3091851,3.3382737999999996
4.428986,-9.227148,-0.22460485,-0.02942625,-0.1645671,3.6299707999999997
5.4323096,-9.590454,-0.21258596,0.8552985999999999,-0.5079083,3.594331
5.3445477,-9.205103,-0.5175402,1.4174342,-0.93696254,3.343597
4.697596,-9.535024,-0.6040188,1.6415520000000001,-1.3005495,3.2573602000000004
3.238713,-10.687209,-0.9556696,1.6708212,-1.4959042,3.4000235
0.5913295,-11.186150999999999,-1.2435962,1.5803258,-1.2856444,3.6342468
-1.2574347,-10.968403,-1.181031,1.3407794,-0.7714181,3.8008559
-1.5754708999999998,-10.075088000000001,-0.267394,1.055453,-0.1603085,3.8727286
0.25810453,-9.348822,1.5510117,0.83294094,0.43481390000000003,3.9483187000000006
3.3559527,-8.86368,2.973359,0.76054466,0.68287754,3.7359297
5.982861,-8.743443,2.721326,0.8026071,0.7222696,3.4069526
8.110071000000001,-9.033408999999999,1.0091656,0.82177085,0.6466794,3.1088502
8.892315,-9.41334,-0.9950877,0.8574279,0.43161990000000006,2.7963665
7.9503202,-9.815672,-2.3392692000000004,0.88884383,0.2128429,2.5190337000000005
7.097084,-9.487598,-2.7966382999999997,0.8414756,0.12447688,2.1969855
6.681336,-8.869091000000001,-2.9103722999999997,0.72169363,0.17718582,1.8211464
6.9130273,-8.450823,-2.7783945,0.6716376000000001,0.24211207,1.4602298
7.0980134,-8.383183,-2.3103759999999998,0.6663318,0.20539035,1.1456342
7.618330499999999,-8.886931,-1.5651088,0.6381098000000001,-0.059166662,0.76127774
8.76182,-8.678819,-0.9223231,0.55506706,-0.58829814,0.28965485
8.806506,-9.114764,-0.8451244000000001,0.49438196,-0.96890205,-0.0808262
8.946251,-9.624595,-0.8826847,0.33787829999999996,-1.0615267,-0.42577308
8.988188000000001,-9.538346,-0.90875274,0.022218041,-0.95399696,-0.8899608
8.910587,-9.115041999999999,-1.0370054,-0.50689596,-0.8688249,-1.6623738000000001
9.4728985,-9.065185000000001,-1.318123,-1.0738313,-0.8230449000000001,-2.4896073
10.072607000000001,-9.2801075,-1.5839273,-1.3729981000000002,-0.7224441,-2.9649653
10.34639,-9.506149,-1.6691321,-1.6136092,-0.6990218,-3.3040652
10.580035,-9.554436,-1.9666740000000003,-1.8893539000000001,-0.57819265,-3.5995147000000003
11.598452,-10.3236065,-2.6329036,-2.0863142,-0.2795494,-3.8097744
12.113961999999999,-10.92953,-3.0772388,-2.0714092,0.07974409,-3.8789768
11.853712,-10.544946000000001,-2.9797277,-1.7807595,0.43694317,-3.8544898
11.426472,-9.0067,-3.1084015,-1.3080544,0.67116636,-3.8071040000000003
11.473455,-7.380443,-3.3459449999999995,-0.79436916,0.78614867,-3.7975397000000006
12.008291,-7.454960000000001,-3.6213644,-0.43610543,0.7829547,-3.7730352999999996
11.43647,-8.953299000000001,-3.048997,-0.14864969,0.65147907,-3.6373010000000003
10.536365,-10.8201065,-1.8015888999999998,0.06852163,0.3996804,-3.3679445
10.180319,-12.190700999999999,-1.4659122,0.19043288,0.07496189,-3.0102217000000002
9.755403999999999,-12.736761,-0.7914848000000001,0.23888321,-0.30562459999999997,-2.5396285
8.857857000000001,-12.744058,0.100997,0.27825785,-0.66441196,-2.0318077000000003
7.689055000000001,-12.084791000000001,1.1587458000000002,0.34693655,-0.82091564,-1.6942958
6.755163700000001,-11.265599,2.0211086,0.33468434,-0.6213023,-1.5271631
6.227864299999999,-10.491286,2.3391349999999997,0.20320868,-0.08791223,-1.4185687
6.046729,-10.229629,1.9896581999999998,-0.09700539999999999,0.6317743,-1.1683757
5.432262000000001,-10.124121,1.3982808999999998,-0.47921506,1.2338431,-0.70738196
4.854847,-10.201348,0.90587974,-1.0392214,1.533551,0.053302355
4.2473807,-10.388336,0.46916777,-1.8526146000000001,1.5500443000000002,1.1009188
3.5074,-10.123077,0.14551,-2.5334675,1.4872299999999998,2.3263319
2.697231,-9.493575,0.06336973,-2.596282,1.0682812,3.3499849999999998
2.6320607999999996,-8.835552999999999,0.3187257,-2.0006009999999996,0.471012,3.8716638
3.8043675,-9.179255,0.5888491,-1.0248399,-0.13847442,4.0255146
4.3370295,-9.319189999999999,0.3703351,-0.01982694,-0.6298195,3.9302197
3.8337586000000003,-9.264105,-0.11891521,0.657832,-0.9060877,3.6598157999999996
2.5573523,-9.364316,-0.9856162,0.9197187,-1.0136174,3.4585793
1.3415096000000002,-10.042976,-1.8868417000000002,0.9777509,-0.9550616,3.445821
-0.13341449,-10.072388,-3.4859862,0.90800756,-0.8496611999999999,3.5224583
-0.8088954,-10.848913,-4.591916,0.8036718,-0.6915518,3.573579
-0.83479106,-10.766475999999999,-3.3058372000000005,0.5454852,-0.40889573,3.3856595
1.1385865,-9.774549,-0.74453926,0.13348278,-0.12728687,2.9805686000000002
4.360358,-9.319823,1.2387503,-0.32004103,0.13512339,2.5137104999999997
6.633902,-9.214948,1.7005057000000001,-0.66339964,0.29162705,2.1171367
8.39182,-9.123872,0.83772165,-0.9050754000000001,0.40022144,1.7498147000000002
9.028765,-9.434381,-0.80296737,-1.0424154,0.5274559,1.4953806
8.494666,-10.056557000000002,-1.9276292000000002,-1.1536801,0.7345218000000001,1.2840388
7.8345656,-10.199577,-2.3014023,-1.2281882,0.9421287,1.0966601
7.587301700000001,-9.880621000000001,-2.3107302000000005,-1.1696323999999998,1.0299711,0.94174474
7.929883500000001,-8.858422000000001,-2.3586142000000003,-0.87952375,0.9724799999999999,0.8959822000000001
8.815066999999999,-7.654530499999999,-2.83869,-0.38285542,0.7755196,0.823586
9.374075,-6.918754600000001,-3.0255144,0.11698942,0.4177969,0.5254837
9.126706,-6.802492,-2.556835,0.63334507,-0.021886429,0.22579324
8.927576,-7.0757375,-1.9011493999999998,1.1374309999999999,-0.35992178,-0.09414306
8.819004,-7.376507000000001,-1.3329096,1.3695423999999998,-0.48500955,-0.61741024
8.675075,-7.4501524,-0.85555357,1.2300731000000003,-0.42006585,-1.3030454
8.65547,-7.6271605,-0.44916179999999994,0.74939203,-0.34499922,-2.0461543
8.859504,-8.264593,-0.024995467,0.26230553,-0.25239205,-2.6407703999999996
9.101011,-9.090036999999999,0.51934063,-0.020350538,-0.13154547,-2.8691467999999998
9.33235,-9.471558,1.2515353999999999,-0.25029767,-0.040526547,-2.8861637000000004
10.242806,-9.482974,1.4772223999999998,-0.47813293,-0.014957472,-2.8632824
11.8701935,-10.42535,0.9483623999999999,-0.5297947,0.039304815,-2.8515887
11.859602,-9.9861,0.7394923000000001,-0.39936623,0.11650073,-2.9591184
12.326011,-9.198781,0.07267839,-0.08210029,0.047298424000000006,-3.2332572999999996
12.550683,-7.9891353,-1.0771035,0.32618457,-0.118246056,-3.4930322
12.11942,-6.9810996,-2.3104812999999997,0.6940126999999999,-0.39611992,-3.6644409
11.904592999999998,-8.192929,-3.1280437,0.8989666999999999,-0.71445054,-3.7043567000000004
10.939366,-10.012618,-2.7164326,0.93516487,-1.0833433000000001,-3.605885
9.628359,-11.209603999999999,-1.9495218999999997,0.83882266,-1.3872924,-3.3556747000000002
8.896624000000001,-11.721217,-1.728537,0.6317394000000001,-1.4948395,-2.9681592
8.52307,-11.0762,-1.0707923000000001,0.38793433,-1.4501243000000001,-2.5492105
8.381267,-9.793146,-0.08069417599999999,0.21333160000000004,-1.155216,-2.2628193
8.624087,-8.5357895,0.6699838,0.0940907,-0.5515415,-2.1361258
8.6768265,-7.954936,1.2959431000000001,-0.11030481,0.15908676,-2.0259433000000002
8.080316,-8.209277,1.4257853999999999,-0.44460517,0.91073024,-1.7304939
7.1976504,-8.604387,1.0776398,-0.8582133,1.3861055,-1.1773992
6.1562777,-9.025260000000001,0.37749857,-1.1179881,1.4047283000000002,-0.25595254
5.4734898,-9.465361999999999,-0.21119733,-1.1659149,1.2588711000000001,0.8571136999999999
4.907012,-9.94946,-0.61843187,-1.1201173999999998,0.90594804,1.9957665
4.266554,-9.775889,-0.81998533,-1.0280339,0.60091686,3.0130491000000004
3.9265866000000003,-8.933705,-0.5389921999999999,-0.8145626,0.30227357,3.7928972
4.134068,-8.553151,-0.098669834,-0.26785567,0.012164945,4.186818
4.272759400000001,-8.910549000000001,-0.2381656,0.54445547,-0.27579692,4.229945
3.4499009,-9.883035000000001,-0.98136413,1.1917458,-0.61863196,4.024991
1.6387448,-10.575610000000001,-1.6882282,1.5372162,-0.90502304,3.6300056000000005
-0.41310513,-11.084752,-2.0895634,1.4951712,-1.0673735,3.2616365000000003
-1.5313983999999998,-12.404492999999999,-1.7690276999999999,1.1401188,-0.97261965,3.077993
-2.3664002,-12.460383,-1.3163226000000001,0.75471526,-0.63671356,3.0774517000000006
-1.3871909,-12.329037,-0.9355582,0.5779658000000001,-0.2390752,3.1360075000000003
0.18619227,-12.055925,-0.56018573,0.60405844,0.15056956,3.0572232999999995
2.580164,-11.627661,0.1394383,0.58063614,0.56365407,2.772438
5.5679555,-11.59147,1.0671818000000002,0.3549476,0.8718792,2.3641531000000002
8.125614,-11.630046,0.8381430000000001,0.0030717794,0.9990962999999999,2.0213182
9.716169,-11.555911,-0.40946594,-0.40306634,0.9879261999999999,1.8930365000000002
10.279696000000001,-11.195584,-1.8660313000000002,-0.79272854,0.8580388000000001,1.8493857
9.57312,-10.914659,-3.004407,-1.0312103000000001,0.7686081,1.8536443999999999
8.438642,-10.5988245,-3.4217834000000003,-1.029081,0.6956708,1.8073407
7.417178999999999,-9.843961,-2.6577747000000005,-0.8273384,0.5290617,1.6758476000000002
7.1939635,-8.782574,-1.5000726999999998,-0.42544144,0.09894271,1.5044389
7.7612934000000005,-7.68871,-1.0562546999999998,0.13988814,-0.52012557,1.3628578000000002
8.4172945,-6.837821000000001,-1.6300299999999999,0.72542864,-1.148287,1.1227528999999998
8.627333,-6.473001999999999,-2.524657,0.9505935999999999,-1.6550608,0.50738466
8.223766,-7.04581,-3.1402826,0.85053384,-2.139477,-0.20856684
7.716838,-7.462114,-3.4175506,0.60086447,-2.1469294999999997,-0.78189003
7.873906599999999,-7.9629902999999995,-3.2117066000000003,-0.026720991,-1.6050222,-1.4877535
8.278948,-7.871599000000001,-2.3184299999999998,-0.76930624,-0.9779429000000001,-2.2505672000000003
9.096347999999999,-7.893731,-1.3674339,-1.3495583999999998,-0.4046197,-3.092706
10.116480000000001,-8.205159,-0.86293733,-1.5145793,-0.13580407,-3.7022274
10.978468,-8.578185000000001,-0.73943484,-1.4538941,-0.07457792,-4.032269
11.759983,-8.666752,-0.8998655000000001,-1.4831633999999998,-0.110776044,-4.2191067
12.976736,-8.055128999999999,-1.7263343,-1.6263676,-0.12993976,-4.2765975
15.007163,-8.561167,-3.3304972999999998,-1.7030049999999999,0.023876105,-4.211113
14.812495000000002,-8.956172,-4.0304565000000006,-1.5518246,0.17612118,-4.104124
14.796425,-9.070261,-4.2241573,-1.1366283000000001,0.37201694,-3.9470970000000003
14.117132999999999,-7.998166,-4.3882650000000005,-0.61227894,0.5540722,-3.806022
13.427076000000001,-7.8444009999999995,-3.8200830000000003,-0.06452482,0.6578844,-3.642607
12.813767,-9.87001,-2.4858902,0.45448375,0.6456321999999999,-3.4232888
11.450644,-12.148122,-1.1273434,0.83723444,0.5189562,-3.1033525
10.331469,-13.82233,-0.6790914,1.0453649999999999,0.34646532,-2.7461708
9.433547,-14.959719,-0.8047295,1.1065737,0.24478243,-2.34108
8.200467,-15.26794,-0.51097053,1.0474943,0.15749851,-1.9412773999999997
7.129185700000001,-14.620222,0.34757105,0.93996453,0.18889698,-1.5351392
6.3767457,-13.707389000000001,1.5259013000000001,0.83349943,0.28951523,-1.0517703
5.640519,-12.453814,2.4592762,0.7712260999999999,0.30335566,-0.5114512999999999
4.9688115,-11.448986,2.630184,0.6738018,0.27834509999999996,0.073548175
4.3922586,-10.977865,2.360664,0.45554838,0.2144486,0.65271825
3.6948564,-10.759542,1.7447505,0.29159215,0.111177474,1.0881604
2.7800417,-10.02053,0.8355285,0.11381292,0.061679937000000004,1.4054263999999999
2.1066005000000003,-9.422266,-0.043335054000000005,-0.28595474,0.14844026,1.8259634999999999
1.4504553,-8.700192999999999,-0.829361,-0.8023104,0.29005626,2.2598173999999998
1.1911536,-8.184330000000001,-1.4296256999999999,-1.2505285,0.3997153,2.7511451
0.73087317,-7.642627,-1.8400302,-1.2888558,0.5450314,3.0098553
0.27366683,-7.2720046,-2.1015537,-1.0125877,0.51255083,3.06787
0.2621651,-7.4712977,-2.4750106,-0.6383542,0.34965926,2.9747217
0.47471273,-7.6529603,-3.1287525,-0.23698081,-0.028274333,2.8081126
1.0777835,-7.486448299999999,-3.6730120000000004,0.097825706,-0.46317548,2.7176172999999997
2.7441957,-8.067578,-3.768531,0.22931881,-0.7160213000000001,2.6393566
3.7643745,-9.12686,-4.3154817,0.011065387,-0.58880424,2.4876351000000003
4.477186,-9.846260000000001,-4.848008999999999,-0.46057492,-0.17732546,2.2837633999999998
4.76675,-10.233286999999999,-5.0410395,-0.88535315,0.29590312,2.1432295
5.7320733,-10.168471,-3.6779344,-1.0711435,0.66533697,2.0192063
7.658285,-10.205792,-2.211208,-1.1525805,0.8229053,1.794024
8.863219,-9.895561,-1.5068052,-1.2388172,0.80161226,1.4682583
9.612204,-9.447166000000001,-1.5584719999999999,-1.280356,0.64456755,1.2286943000000001
9.689603,-9.259787,-2.1108623,-1.2649099,0.460924,1.1291583
9.311902,-8.876858,-2.8061001,-1.1850611,0.39011599999999996,1.0972012
9.060924,-7.877555999999999,-3.6730597,-1.0737964,0.44921285,1.0226932
8.867942,-6.627983599999999,-4.377635,-0.97478384,0.6318092,0.8981290000000001
8.435788,-5.844505000000001,-4.316592,-0.8640426999999999,0.83409286,0.73364913
7.9913473,-5.6216717,-3.3979661,-0.66762334,0.9256528,0.5766044
7.9192724000000005,-5.3360343,-2.426083,-0.37273252,0.87720245,0.38974947
8.227779,-5.045569400000001,-2.1764153999999998,0.013718287,0.6722484999999999,0.08367108599999999
8.161603999999999,-5.0369983,-2.104264,0.34588936,0.2873859,-0.2830924
7.571960000000001,-5.37483,-1.7620653999999998,0.66369635,-0.10917035,-0.5891708000000001
7.115185,-5.7774386,-1.2073097,0.939982,-0.35032248,-0.9932145
7.327750999999999,-5.7315373,-0.6552451,1.1491772,-0.20500638,-1.6916255
7.776501,-5.3963585,-0.24178565,1.1624765,0.06700319,-2.5087537999999996
8.569049,-5.8147116,-0.064365715,1.2066683,0.16868608,-2.9042627999999997
9.177703,-6.258309,0.20495325,1.2960815,0.088296205,-3.0756717
9.721244,-6.466394,0.50592357,1.4046934,-0.035709437000000004,-3.2598562
10.460478,-6.3634624,0.77166075,1.5324514,0.020682152,-3.3652565
12.2921,-7.2695246,0.65758187,1.625076,0.16973327,-3.3977196000000003
13.492763,-8.879232,0.19982007,1.7459052,0.29377383,-3.3711035000000003
14.342954,-9.067541,0.2559689,1.8231012,0.29270917,-3.3498104
15.066932000000001,-8.238889,0.45778096,1.8875213,0.08564331,-3.3519397000000004
15.756414000000001,-7.1276720000000005,0.38235399999999997,1.9082732,-0.25130996,-3.3519397000000004
15.052557,-8.94875,-0.333474,1.8550407,-0.6819525,-3.3434224
13.009393,-10.553727,-0.32182857,1.7443168999999998,-1.0402162,-3.2566621
12.01373,-11.443892,-0.42303628,1.6128238000000001,-1.2036488,-3.0474669999999997
11.621953,-11.878076,-0.29531044,1.4829364999999999,-1.2371767,-2.7014556
10.794124,-11.76051,-0.35462916,1.3216506000000001,-1.26114,-2.248438
9.909342,-11.326001,-0.5957061,1.1545003999999999,-1.3234133999999997,-1.7565691000000003
8.894441,-10.616628,-0.9037344999999999,0.9889559000000001,-1.3202194,-1.2551012
8.070499,-9.825555,-1.4128375,0.7201054,-1.1190004,-0.7723081999999999
7.233257000000001,-9.2195635,-1.7767848999999998,0.33098423,-0.7272089,-0.2538058
6.4550165999999995,-8.834325999999999,-2.1875916,-0.033108898,-0.23481660000000001,0.39453167
5.456539,-8.683769,-2.3675113,-0.20718804,0.12395328,1.1046538000000001
4.3973727,-8.521011,-2.3017664,-0.46694538,0.24267058,1.7652959
3.1836178,-8.395967500000001,-2.1255531000000003,-1.0392039,0.15004596,2.3359313
1.8163371,-8.007724000000001,-2.1226418,-1.6018631,0.031346112,2.8368583
0.8611752,-7.4593463,-2.2390287,-1.8856013999999999,0.037192967,3.3388324000000003
0.34085768,-7.0396905,-2.2222502,-1.6215680000000001,0.23202407,3.7290356
0.2100098,-6.738796700000001,-2.197906,-1.1477808999999999,0.34222415,3.996263
0.34000537,-6.808822,-2.4302776,-0.8560840000000001,0.26129323,4.0345902
0.23718877,-7.2247334,-2.537787,-0.68361056,0.07871435,4.0420256000000006
-0.08491755,-7.513378599999999,-2.2589486,-0.5680871999999999,0.014294246000000002,4.0420427000000005
0.6535405,-8.496993,-2.1858487,-0.6484771,0.15109316,3.9872046
1.7420787,-9.146664,-3.7379617999999994,-0.88589424,0.45558329999999997,3.9360839999999997
2.8697476,-9.703469,-4.6964855000000005,-1.1760028999999999,0.86549133,3.9243902999999998
3.97154,-9.899622,-4.0073957,-1.353817,1.1502767,3.8951037000000004
5.533258999999999,-10.668409,-2.2905233,-1.3782865,1.198727,3.7865093
7.6306652999999995,-11.7905245,-0.8438603000000001,-1.2425523,0.90434235,3.556021
9.484715,-12.324373,-1.5381213,-1.0248225,0.40875609999999996,3.2792117999999997
10.862233999999999,-12.798387,-2.7612329,-0.7868816999999999,-0.057019908,3.0364714
10.957677,-12.566331,-3.1100967,-0.58033943,-0.27953193,2.7873433
10.718027000000001,-11.680333000000001,-3.0963540000000003,-0.54520595,-0.12941617,2.4556956000000003
10.084186,-10.629461000000001,-3.0413928,-0.54415876,0.28897417,2.0958438000000004
9.103425,-9.747523,-2.4740243,-0.5276479000000001,0.73506284,1.808388
8.425359,-9.149469999999999,-1.6373084,-0.47813293,1.1875395,1.5305315000000002
8.202611,-8.853461,-0.74655044,-0.38018507,1.5330099,1.2169832
8.463244,-8.475147999999999,-0.064116724,-0.18589501,1.5404625,0.749584
8.807818,-8.416145,0.32501766,0.21067870000000002,1.2615415,0.39240238
9.364699,-8.606715,0.43449970000000004,0.83402306,0.87186176,-0.14948745
9.616081,-8.497117,0.69591784,1.4595141,0.47635272,-0.9884323
10.234675,-8.087345,0.74193436,1.8193661,-0.07351327,-2.0727703999999996
11.024906,-7.9793954,0.6679248000000001,2.0019624,-0.70432764,-3.00434
11.5892,-8.066467999999999,0.8126878000000001,2.133438,-1.2989263999999998,-3.5680814
11.887345,-7.98699,0.85478747,2.002486,-1.6736834999999999,-3.9018406999999997
12.223405,-7.949544400000001,0.92065674,1.6330521999999998,-1.7407564999999998,-4.158421499999999
13.054575999999999,-8.10602,0.6913305000000001,1.2428663999999998,-1.4506478,-4.3058844
14.224210999999999,-9.355506,0.5855451,0.97403336,-1.0444748,-4.381998
14.425266,-8.883742999999999,1.0675075,0.8755444,-0.7288146,-4.458653
15.072573,-7.680101,1.1954824,0.9798976999999999,-0.54782397,-4.5486245
15.154445,-6.0140142,0.47666642,1.1353366000000003,-0.46849874,-4.6194153
15.008054000000001,-6.836672,-1.0571933,1.225832,-0.43655920000000004,-4.6071805999999995
13.777472,-8.715574,-1.7485238,1.2210324,-0.47062802,-4.4543943
12.477258,-10.767252000000001,-2.1748354,1.1693879999999999,-0.5930629,-4.144581
11.981859,-12.844691000000001,-2.9341037,1.0411063,-0.76234233,-3.7022274
11.828745,-14.302482999999999,-2.9640505,0.76588535,-0.8991587,-3.153932
11.059584,-14.708165,-2.3066218,0.42999676,-0.9071349,-2.6008372000000004
9.977242,-13.818107000000001,-1.4815989999999999,0.105819315,-0.7516959,-2.0599947
8.970317999999999,-12.660434,-0.6458215,-0.23434536,-0.4749041,-1.6139233999999998
8.282128,-12.065608000000001,-0.03410301,-0.63304836,-0.05222025,-1.1481298999999998
7.3748784,-11.782642,-0.008389283,-1.0030059,0.37255797,-0.6615845
6.1781607,-11.509866,-0.35169864,-1.1355636,0.64456755,-0.11328932
4.7713566,-11.070195,-0.72107613,-1.1472746999999999,0.6876772,0.51909584
3.5843403,-10.594391,-1.0181487,-1.1642917,0.41886157,1.3596464
2.4294636,-10.098828999999999,-1.4851999,-1.0658376,0.010035643,2.2177374
1.6818501000000001,-9.316413,-1.8437077000000002,-0.7214144,-0.33969343,3.092357
1.537202,-8.815422,-1.7584836,0.013718287,-0.37693876,3.8365479
1.7586081000000002,-8.720514999999999,-1.6530718,0.5614724,-0.32531193,4.24485
1.8453453999999998,-8.757903,-1.7650724999999998,0.8111418,-0.30721286,4.302865
1.6193518999999998,-8.749822,-1.6714592000000001,0.8803440999999999,-0.42538909999999996,4.1575489999999995
1.1636491000000002,-8.679432,-1.2380991000000001,0.7568446,-0.50630254,4.0649242
1.0979618,-9.561397999999999,-0.57808477,0.49066442,-0.34766957,4.0659714
0.64396363,-10.31086,-0.9606686,0.23570672,0.00577704,4.080894
0.45713928,-10.687851,-0.99646676,0.13508849,0.35020033,4.0755706
1.1557578000000002,-10.536756500000001,-0.71110666,0.24155357,0.52480304,4.0223379999999995
2.3874598,-10.715709,0.29785785,0.49759337,0.54874897,3.936625
4.548695599999999,-11.190796,0.62244457,0.6418448,0.51733303,3.677374
7.1483774,-11.262909,-1.1489869,0.51356316,0.38957494,3.2834529999999997
9.618561999999999,-11.755741,-2.8741147999999996,0.23195426,0.2761809,2.9789630000000002
10.362622,-11.607387,-3.7559757000000005,-0.14543828,0.19261454,2.8213944
9.511656,-11.318972,-4.015737000000001,-0.5191307,0.18409733,2.7665737
8.622899,-10.822318,-3.3390877,-0.75122464,0.24265313,2.6393392
7.997686999999999,-10.203849,-2.138884,-0.80871576,0.3294309,2.3183557999999995
7.5046444,-9.59642,-0.81826156,-0.67296404,0.3533768,1.945728
7.323900999999999,-9.187394,0.1499345,-0.36102134,0.33635986,1.6529490000000002
7.1980333,-8.618973,0.52835244,0.03021165,0.23307127,1.2776508
7.674392999999999,-8.263625,-0.15289372,0.31819096,0.03239331,0.7655538000000001
7.6563315,-8.23589,-0.9594524,0.7941074,-0.24439846,0.120392814
7.298541999999999,-8.627974499999999,-1.3410977,1.313116,-0.49087384,-0.6466794
7.0175676,-9.046856,-1.3785143,1.5404276000000001,-0.65694195,-1.409493
6.9328136,-8.909092999999999,-0.78010756,1.3189628,-0.69261646,-2.0009153000000004
8.047074,-9.002303999999999,0.09415916,0.74085736,-0.8187863000000001,-2.5412342999999997
9.246311,-9.174332000000001,0.7813045999999999,0.2671052,-1.0609857,-2.8978748
9.888465,-9.199624,1.3583646999999999,0.004118977,-1.5432725,-3.2779727
10.460804,-8.93246,1.5178665,-0.20931734,-2.0010724,-3.7054212
11.653278,-8.886979,1.0084473,-0.56918675,-2.2230608,-4.1728206
13.118405,-9.542071,0.42529643,-0.96576047,-1.8499093999999998,-4.4900866
14.146935000000001,-9.522133,0.37586093,-1.1552683000000001,-1.0982659,-4.6907644
14.181479000000001,-9.10287,-0.5813122,-1.0078055000000001,-0.41741294,-5.050075
12.61368,-7.885887599999999,-2.291385,-0.5798158,0.12447688,-5.5297093
11.236744999999999,-7.5578437,-4.003278,-0.04483751,0.45186573,-5.7586093
10.4096155,-8.646794,-4.737589,0.26867598,0.5726949,-5.695794599999999
10.151071,-10.200486,-4.0336456,0.32937855,0.47315875,-5.3034797
11.41498,-12.983487,-3.3407447,0.20959659,0.29588565,-4.7275032999999995
12.92436,-15.805389000000002,-3.0213006,0.012112585,0.16173966,-4.097213
13.52699,-17.513123999999998,-2.5927386,-0.06452482,0.058468528,-3.5286891000000002
12.261253,-17.135282999999998,-1.4200968,-0.026197392000000003,-0.042114794000000004,-2.9958403
10.921937,-15.381367000000001,0.06775591,-0.050160762000000005,-0.085241884,-2.456586
11.447731,-15.045135,1.0992163000000001,-0.21889919,-0.07405432,-1.8715688999999998
10.476788,-15.142627,1.5835537,-0.5388354999999999,0.022270402,-1.265259
8.664041000000001,-15.341115,1.1311358,-0.88858205,0.18781488,-0.68661255
6.4786425,-15.270276,-0.13872005,-1.2069126000000001,0.35018286,-0.087214105
4.020573000000001,-14.324106,-1.1327063999999998,-1.5960338,0.3624176,0.64683646
2.33744,-12.81938,-1.6318305,-2.070868,0.13938199,1.441066
1.2274402,-10.976150500000001,-1.4605683,-2.3795992999999998,-0.21565288,2.2267957000000003
0.6706829000000001,-9.360686,-0.76662344,-2.3008327,-0.5701816,3.0651996
0.14287637,-8.160014,-0.44415313,-1.681747,-0.77035344,3.843442
-0.45406514,-7.450631,-0.85884804,-0.37329102,-0.96944314,4.594037999999999
-0.81114596,-7.205914999999999,-1.326876,1.0080848,-1.109977,5.045974
-0.9521931999999999,-7.2513570000000005,-1.6410335999999999,1.973723,-1.36017,5.0374565
-0.75111854,-7.6498574999999995,-1.5501307,2.0626125,-1.7146987,4.6350183
-0.82780963,-8.466663,-1.5918665,1.451503,-1.7716488000000001,4.0441375
-1.2985288000000001,-9.073067,-2.027592,0.6253515000000001,-1.3063964,3.5485510000000002
-0.9522315,-9.797858,-2.0422733,-0.1704663,-0.37695622,3.237132
-0.08038772,-10.560678999999999,-0.9936415999999999,-0.77998763,0.6110049,3.0848868
1.8702450000000002,-11.339964,0.6009925,-1.1243935,1.2460778000000001,3.091816
3.9131217000000005,-12.015253,2.2814252,-1.0898011,1.2785583999999999,3.1647357999999994
6.4421453,-12.798521000000001,3.174156,-0.7224965,0.9245533000000001,3.1790998
9.579804,-13.629874,1.4763606000000002,-0.27373743,0.33314845,3.0944688
12.753874,-14.202193,-2.2582492999999997,0.011571533,-0.042114794000000004,2.9736397
13.445875,-12.412576,-5.8498583,0.03551745,-0.049043752,2.7873082
13.026354,-9.890428,-7.3722644,-0.050178215,0.22614232,2.3784822999999995
11.766391,-8.173508,-6.8459897,-0.1523847,0.5758714,1.836575
10.379294999999999,-7.547175,-5.1648197,-0.22743386,0.8952841,1.279239
9.1876335,-7.7726803,-3.5334682,-0.28333676,1.0799923,0.7788531999999999
8.116430000000001,-8.240813000000001,-2.18966,-0.284925,1.1508003,0.37109190000000003
8.156672,-8.938781,-0.9909505,-0.19708258,1.0384709,-0.022811454
8.771954,-9.023076,-0.49978483,0.09833185,0.7414333000000001,-0.31026718
9.171813,-8.312514,-0.67182255,0.56306064,0.31717870000000004,-0.63444465
9.350889,-7.572774000000001,-1.195674,0.96282834,-0.1060113,-0.98632044
10.013442,-6.758774000000001,-1.4953418,1.0783516000000002,-0.43231806,-1.3951464
11.258983,-6.478164,-1.5943277,0.92930055,-0.6809053,-1.8827391
11.910358,-6.527044,-1.5636244,0.783967,-0.8369028000000001,-2.2905178
11.976984,-6.728243400000001,-1.5677999,0.6908188,-0.9795485999999999,-2.624818
11.864256,-7.3259416,-1.4936848999999999,0.6088232,-1.1525631,-2.9740236
11.599542999999999,-7.6605550000000004,-1.3141677,0.4800179,-1.2175068000000002,-3.2918131
11.521225,-8.509692,-0.98398817,0.3458719,-1.1115652,-3.4914438999999997
11.331823,-8.924502,-0.35755008,0.26281170000000004,-0.82784456,-3.6074907999999994
11.770786,-9.262084,-0.3536236,0.30061552,-0.50738466,-3.7043739999999996
11.427505499999999,-8.510017,-1.1287513,0.5082224,-0.19383627,-3.799669
11.064736,-7.664347,-2.2291646000000003,0.7179585999999999,-0.02242748,-3.8390436
10.906374000000001,-7.810192599999999,-2.831134,0.812189,-0.018692477,-3.8337204
10.463762,-8.383105,-2.5289474,0.74138093,-0.100146994,-3.7299256
10.531155,-9.316519,-2.3613915,0.50928706,-0.19970058,-3.4658922999999997
10.897621000000001,-10.736405,-2.2612374,0.26867598,-0.28113765,-3.140109
10.779826,-11.807255,-2.0852156,0.07649778,-0.36311576,-2.6700744999999997
10.195248,-12.10562,-1.6343875,0.06799803,-0.4871563,-2.060553
9.136638,-11.500624,-0.96740115,0.22450170000000003,-0.509514,-1.5532383
8.2872505,-10.605499,-0.24943751,0.26068237,-0.34875170000000005,-1.2413131000000002
7.4699860000000005,-10.100457,0.06589801,0.041905355,0.00043633230000000004,-0.88465506
6.733271,-9.96619,-0.44954488,-0.40523055,0.453454,-0.43111378
5.899543,-9.807665,-1.2792507,-0.82630867,0.8154178000000001,0.09267698
4.890185400000001,-9.767328,-1.9692788,-1.1244108999999998,0.95116955,0.72987926
3.9409614,-9.680715,-2.2999563,-1.3836447,0.67277205,1.6103455
3.230391,-9.798548,-2.184211,-1.3729981000000002,0.16119862,2.4647189999999997
2.269454,-9.608324,-1.6817447,-0.9652369000000001,-0.31627113,3.08754
1.5077533,-8.739794,-0.8242565999999999,-0.25192082,-0.6282138,3.4293099999999996
2.2170882,-8.486708,-0.45901635,0.47521824,-0.78525853,3.6385052000000004
2.4268202999999997,-8.720382,-1.0208589,1.0112611999999999,-0.91888094,3.8083084
1.6592488,-8.625015,-2.029268,1.27423,-1.0876194,3.94406
0.7040294,-8.415389,-2.488284,1.3508848,-1.2462523,4.048396
0.43437523,-8.971897,-2.319857,1.3072516,-1.2680688999999998,4.117598
0.07367438,-10.093083,-2.3727784,1.1640473999999998,-1.0439687,4.042008
-0.2439117,-10.549877,-2.0370060000000003,0.9739984,-0.55742323,3.8445065
0.9937085999999999,-10.326842,-0.76784927,0.75415677,0.03398156,3.5432102999999997
3.1032493,-10.195708,0.5471229999999999,0.37353536,0.59983474,3.1343843999999996
5.3491545,-10.638664,1.0573752,-0.0959582,0.96342176,2.7378106
6.660353,-11.416492,0.27207708,-0.46645668,1.116714,2.3284437999999996
7.6590896,-12.500357000000001,-1.1842966000000001,-0.648512,1.1342895,2.0271475
8.504319,-13.264347,-2.6039145,-0.61870176,1.1055438999999998,1.7498147000000002
8.642387,-12.675104,-3.3510777999999997,-0.47071528,1.0837098,1.3713226
8.55498,-11.135624,-3.6304237999999995,-0.27907816,1.0203718000000002,0.8901005
8.678761,-9.532697,-3.4138634,-0.058695424,0.9043249,0.51160836
9.01099,-8.441563,-2.9948592,0.08714429,0.71268773,0.2353402
9.471931,-7.582953999999999,-2.8840744,0.17657496,0.44226643,0.045308746
9.486583999999999,-7.186866800000001,-3.1218953,0.24417156,0.0834791,-0.22724187
9.295612,-7.000922999999999,-2.971482,0.303792,-0.28487265,-0.59774035
9.219104,-6.9802856,-2.3508668,0.39856339,-0.5254837,-0.9458636999999999
8.78806,-7.0562773000000005,-1.4570632,0.42144465,-0.60852647,-1.3946228
8.8715515,-6.3991169999999995,-0.58886826,0.40067524,-0.46214575,-1.8598752
9.365494,-6.096394,-0.47125550000000005,0.39004618,-0.2752908,-2.327257
9.86753,-6.6312685,-0.57302827,0.2926219,-0.35726890000000006,-2.8372247
9.824166,-7.333085499999999,-1.0079685,0.10950196,-0.5925566999999999,-3.1688547000000002
9.658736,-8.002753,-1.7137886999999998,-0.17952457,-0.9449562,-3.2673259999999997
9.768994000000001,-8.227300999999999,-2.1491024,-0.595803,-1.2851208,-3.2790548999999998
10.92752,-9.070337,-2.4928619999999997,-0.94821995,-1.3612347,-3.2524385
11.849556,-10.140622,-2.4453707000000002,-1.103118,-1.1456516,-3.1965356
11.944002000000001,-9.950225999999999,-2.314762,-1.0387152,-0.67401123,-3.1209629
11.808116,-9.070778,-2.4066706,-0.87156504,-0.074612826,-3.0852882999999998
10.69262,-7.605517,-2.3229884999999997,-0.7001563000000001,0.45875978,-3.0773122
10.097488,-7.240036999999999,-2.6589334,-0.45474553,0.7808254,-3.0203447
10.045917,-8.6679,-3.4121108,-0.19231783,0.8872905000000001,-2.92772
9.063442,-10.1391,-3.7955660000000004,-0.052307516,0.9804386999999999,-2.9223967
8.684431,-11.97032,-4.076636,-0.01823869,1.1821988,-3.0772947999999998
8.644867999999999,-13.175272,-3.7060232,0.12334242,1.3088923000000001,-2.9612653
8.6876,-13.497618,-2.3992105,0.27452284,1.1443948999999998,-2.4395863999999996
8.290460000000001,-12.971306,-0.8325214,0.30380946,0.80744165,-1.7379639
7.6880880000000005,-11.661439,0.19814414,0.20744984,0.46621236,-1.1151432
7.103271,-10.318933,0.44413400000000003,0.00036651915,0.14735815,-0.53970814
6.428039,-9.374861,0.1425412,-0.29237756,-0.08897688,0.06021386
5.578241,-8.614059,0.009308656,-0.4792325,-0.14008012,0.5611234
5.0020430000000005,-8.215502,-0.47215572,-0.5138424,-0.0043458696,1.0034771
4.8062544,-7.558964,-0.85406923,-0.71452034,0.27937484,1.3303249
3.7159063999999997,-7.151489999999999,-1.0726215000000001,-1.1829493,0.5434083000000001,1.6891296000000002
1.4536061000000002,-7.3213539999999995,-1.026605,-1.5071442,0.6924594000000001,2.2709527
-0.15577634,-7.414718,-1.5783535,-1.4597759,0.6956533,3.1098974
-0.77839327,-7.230307000000001,-1.8727541,-0.92851514,0.5274385,3.773175
-0.05529648,-7.307937,-2.0464103,-0.13695599,0.26392868,3.9445837
0.9783474,-7.9254880000000005,-2.056648,0.52790976,-0.09377654,3.7662459999999998
1.9260298999999999,-8.821216,-1.7410539,0.9984854,-0.58297485,3.4580383
2.942043,-9.50022,-0.8234713,1.2103509,-0.9934065000000001,3.367543
4.519476999999999,-10.810462,-0.48535258,1.1938401,-1.1243584999999998,3.48359
5.5998273,-11.830114,-1.4426789,1.0953686000000002,-0.9289864,3.590596
5.3839083,-12.184925999999999,-1.9568002,1.0128495000000002,-0.47757444,3.5788674
4.073686,-11.924188000000001,-1.0946098999999998,0.86592764,0.11007792,3.5266995000000003
3.5730587999999996,-11.010933999999999,0.48769888,0.7163704000000001,0.5524665,3.3132458
5.623395400000001,-10.484428999999999,1.4117267,0.600306,0.76220274,2.940618
8.19925,-10.297327000000001,1.0557375,0.5060757,0.7542091,2.4812124
10.080824,-10.369996,-0.08221689,0.40441024,0.6450737,2.0569577000000003
10.227503,-10.678456,-1.4735162,0.19999728,0.5625720000000001,1.7796249
8.876425999999999,-10.932481,-2.1665037,-0.16090190000000001,0.6163281,1.7072287
7.794821700000001,-10.937325999999999,-2.4009151,-0.5409997,0.76324993,1.6561080000000001
7.8070892999999995,-9.801689,-1.8293808,-0.8140739,0.8521569999999999,1.3904864
7.6523476,-8.795885,-1.4494018999999998,-0.9200154,0.7440861999999999,1.0247700000000002
7.419123599999999,-7.9358783,-1.2759755,-0.7783994000000001,0.57480675,0.79480547
7.777075999999999,-7.1447,-1.0719703,-0.51597166,0.30705577,0.57602847
8.027223,-6.7404537,-1.0639353,-0.2881364,-0.15924384,0.13898057
8.160836999999999,-6.7064753,-1.1475600000000001,0.21755528,-0.71020937,-0.31719613
7.859617999999999,-6.913612,-1.3232944,0.911184,-0.9737017,-0.7574380000000001
7.180182,-7.384896,-1.6518458999999999,1.2752947000000001,-1.0988069999999999,-1.4856417
6.6232142000000005,-7.7160716,-1.7198796000000003,1.0932218999999999,-1.1541687,-2.3309919999999997
7.4206367,-7.7381845,-1.3665242,0.49117056,-1.1999488,-3.1417148
8.720851,-8.131523,-1.0078824,-0.14014994,-1.2350823,-3.5590580000000003
9.382991,-8.654129,-0.37731662,-0.60805523,-1.2292178999999999,-3.7709233999999996
9.730716000000001,-8.899037,0.25119007,-0.9588664000000001,-1.2191125,-3.8497076
10.689899,-9.28096,0.23872107,-1.2159708999999999,-1.0945483,-3.8103156000000005
12.867494,-11.106883999999999,-0.10625467,-1.3277593,-0.8784242,-3.6916157999999997
13.135366000000001,-11.026956,0.815513,-1.2931668,-0.5744751,-3.5745041
13.61752,-9.712778,0.60086805,-1.1201524,-0.26996753,-3.5255127
13.296678,-8.275865,-1.4055687,-0.81566215,-0.013386675,-3.5335064
12.711947,-7.7905793,-3.361239,-0.44622833,0.11381292,-3.5856742999999995
11.403736,-9.420858,-4.335248,-0.1518611,0.025970499999999997,-3.6559587
10.411186,-10.837660000000001,-3.9529707000000003,0.028588492000000004,-0.18318976,-3.6671114
9.66497,-12.22081,-2.980216,0.11321951,-0.41688934,-3.5782216
9.5428095,-13.664638,-2.2049737,0.15474088,-0.6708173000000001,-3.3168585
9.013872000000001,-14.152098,-1.3626933,0.13664183,-0.89385295,-2.9373019
8.236427,-13.578532999999998,-0.49998593,0.05625196,-1.031734,-2.4938835999999998
7.593977000000001,-12.476137,0.16811126,-0.021973696,-1.010441,-2.0286136000000003
7.2077727,-11.393564999999999,0.7156651999999999,-0.109275065,-0.8656484,-1.5303745
6.863611,-10.551793,1.0485360000000001,-0.15344934,-0.52974236,-1.1007791999999998
6.5037627,-10.038897500000001,0.93693733,-0.21945770000000003,-0.0016755160999999998,-0.7616966
6.0603952,-9.854553999999998,0.32229784,-0.34349826,0.65626127,-0.49659854
5.3925276,-9.831052,-0.19676508,-0.6857922,1.1880456,-0.069673546
4.664365,-10.155103,-0.45721590000000006,-1.0424328,1.3562604,0.73466146
3.5677053999999995,-10.091608,-0.42997947,-1.1196287,1.1081968999999998,1.7907776000000002
2.6944057999999997,-9.62245,-0.56916875,-0.75497705,0.71268773,2.9714928
2.1281102,-9.121553,-0.5082507,-0.19764109,0.55936056,3.6645806000000003
2.0515819,-9.263539999999999,-0.3898239,0.30113912,0.5620484,3.92542
2.0812411,-9.394789999999999,-0.19826864,0.6088058000000001,0.5551020000000001,3.9770467000000003
2.7573159,-9.746901,-0.06839755,0.67587876,0.29799749999999997,4.0813828
2.8026812000000003,-9.406473,-0.16348568,0.5555906,-0.06768387,4.3204055
2.6528234,-9.7726145,-0.81700695,0.40919244,-0.50260246,4.6919684
0.93383443,-10.175098,-1.8941679,0.39215803,-0.78047633,4.9379029999999995
-0.85176116,-10.455556,-1.76332,0.51511645,-0.9018465,4.9905944
-1.7710198,-10.080824,-0.5936279000000001,0.7674562,-0.7527954000000001,4.8527308
-0.36252046,-9.518666,0.98698574,0.97717494,-0.41423646,4.5290594
2.5587888,-9.352345,1.0867665000000002,0.93567103,0.043022364,4.054766000000001
5.226159,-9.488719999999999,0.10538318,0.663644,0.47260025,3.394683
6.178850700000001,-10.160321000000001,-1.4675403,0.35437164,0.8063596,2.8086014
6.437252,-11.493595,-2.9432209,0.18935077,1.1683583,2.4317148
6.465148999999999,-13.193756,-3.6468768,0.073303826,1.543639,2.1011322
7.175153999999999,-13.91966,-3.2078087,-0.07840019,1.8231186000000001,1.6491965
8.433441,-13.586194,-2.3913286,-0.17102481,1.8774157999999999,1.15094
9.468541,-12.6263685,-1.4442399,-0.13002703,1.7273,0.897012
10.437082,-11.442167999999999,-0.8779825000000001,-0.018779743,1.409493,0.8751953000000001
11.057783,-10.726397500000001,-1.021625,0.014748032,0.99427915,0.75808376
11.848272,-9.978823,-1.7503721999999997,0.15048228,0.27937484,0.46743408
12.145191,-9.502241999999999,-2.2499175,0.47307150000000003,-0.39933133,0.20179497
11.52993,-9.302306,-1.9230324,0.68387234,-0.99447113,-0.32466614
10.409635,-8.74893,-1.2444007,0.71157074,-1.3984975,-1.1013027
10.184523,-8.260044,-1.0735217,0.51192254,-1.7211040000000002,-2.0472713
10.506848,-8.318854,-1.3179411,0.25801203,-1.9835318,-2.751529
10.301619,-8.802128999999999,-1.3202777,0.048799407,-2.193809,-3.2103933999999996
9.361961,-9.197364,-1.2735716000000001,-0.31262338,-2.303468,-3.5686572
8.773111,-9.025441,-1.5238614,-0.7890459,-2.165046,-3.824156
10.200237,-9.535416,-1.8741044999999998,-1.273462,-1.7439852999999998,-3.9966294999999996
10.942277,-9.604091,-1.8356343999999998,-1.5529416,-1.1142530000000002,-4.092448
11.665087,-8.575169,-1.7425383,-1.5933983,-0.41530108,-4.2159476
12.592572,-7.374189,-2.356833,-1.4193367000000001,0.044610616,-4.3378587
12.853425,-6.299738400000001,-2.8967352,-1.0695901,0.33845425,-4.42516
12.961979,-7.6005273,-3.3747616000000003,-0.76030034,0.40978587,-4.467205
11.802447,-9.146989999999999,-3.147475,-0.59210294,0.2942625,-4.4038672
11.527334,-10.996913000000001,-2.8417258,-0.53832936,0.080808744,-4.235111
11.458276,-13.072735,-2.9547993999999997,-0.5287475,-0.1666964,-3.8449254
11.202394,-14.161626,-2.7005446,-0.5031784,-0.43605307,-3.315253
10.433854,-14.164959,-1.9126416000000002,-0.4744503,-0.71818554,-2.794115
9.478893,-13.487611,-0.9389868,-0.43664646,-0.6835931,-2.4449096000000003
8.60229,-12.520037,-0.1575289,-0.48881435,-0.37803832,-2.1989577000000002
7.8473406,-11.925125999999999,0.34500447,-0.68631583,0.1558579,-1.9658167000000002
7.0463557,-11.450547,0.34528220000000004,-1.0035818,0.7526034,-1.6852725
6.352162,-11.330799,-0.23611617,-1.3527873,1.1880456,-1.201921
5.4987535,-11.242846,-0.8668159,-1.5252607,1.3908528999999998,-0.30230847
4.703639,-11.502338,-1.1649611,-1.6146913999999999,1.0869038,1.0130589
3.6171026,-11.340701,-1.1237999,-1.4448708000000001,0.56470126,2.4242623
2.8938143,-10.764942999999999,-0.85576427,-0.9849591000000001,0.13829988,3.6060072999999995
2.83145,-9.852725,-0.5193215,-0.20882864,-0.09803514,4.2863193
3.3649452000000006,-9.661868,-0.42022070000000006,0.81430084,-0.11878711,4.607861
3.7612045,-10.283968,-0.74901164,1.7778098999999998,-0.15604989,4.788311
3.0409906,-10.275922999999999,-1.2636213,2.4330938,-0.2923252,4.8442135
1.6436673,-10.179974000000001,-1.7476907,2.7301314,-0.57021654,4.878265
-0.06780379,-10.856948,-1.7926537,2.7551417000000002,-0.83850855,4.997506
-2.2207754,-11.528991,-1.5924983999999998,2.6210134,-0.95453805,5.0906715
-3.7991002000000003,-11.253898,-1.1067053,2.55127,-0.9135576999999999,5.032116
-2.9719033,-10.920183,0.29030177,2.6721165,-0.79325217,4.779793700000001
-0.32373437,-10.57606,1.5354014999999999,2.8094566000000003,-0.5728694000000001,4.334246
3.0885682,-10.782498,2.3792331,2.6550822,-0.23483405,3.7018432999999997
5.228946,-11.404484,2.3629048,2.1355326,0.014276793000000001,3.0300486
6.57941,-12.337905000000001,1.0396292999999999,1.3684428999999998,0.32035518,2.3497367000000002
7.741488499999999,-13.925376000000002,-0.8383058000000001,0.62318724,0.7707025,1.8621092000000001
8.0551,-15.069057,-2.4170616000000003,0.022183135,1.3535901000000001,1.5011926000000002
7.803939,-15.255823999999999,-3.1369693,-0.40205404,1.8177953000000002,1.1647803999999997
7.975353999999999,-14.419099,-3.0574818,-0.7347486999999999,2.13932,0.70005155
8.649485,-13.077331,-2.1844409,-0.92373294,2.2904828,0.28536132
9.602099,-11.598835000000001,-1.3904756999999999,-0.92425656,2.3181639,0.16133824
10.23664,-10.508861,-1.5620922,-0.76881754,2.1308026,0.2880317
10.2053995,-9.461300999999999,-2.6245623,-0.5553463000000001,1.5202167,0.26834437
10.1568165,-8.794487,-3.565608,-0.22212805,0.4023333,0.06339036
9.640416,-8.558582000000001,-3.5495669999999997,0.43156755,-0.7378903,-0.15217526
9.021142,-8.548698,-2.856005,0.8856324000000001,-1.5257319,-0.6999468000000001
8.583884,-8.204939,-2.0823617,0.9803863000000002,-2.0298355,-1.5617729999999999
8.893607000000001,-8.031991,-1.5389258,0.57101935,-2.2422419,-2.4433212
9.330577,-8.778714,-1.2311944,-0.15079644,-2.196462,-3.043767
9.285347,-9.932049000000001,-0.8770631,-0.9833533999999999,-2.0287707,-3.2987595
8.332741,-10.433767999999999,-0.55246687,-1.8356152,-1.8946421000000002,-3.5404352999999995
8.105704,-10.2331915,-0.46735775,-2.4589596,-1.7274745999999999,-3.8539662000000003
9.9048605,-11.097364,-0.8504205,-2.8193523999999996,-1.4043617,-4.136099
10.692179,-11.232771000000001,-0.57988524,-2.9029187999999997,-0.81293947,-4.2782383
11.573197,-9.874692999999999,-0.117488265,-2.6511202000000003,-0.10868165,-4.3431644
12.615767,-8.254872,-0.94423485,-2.149146,0.48165852,-4.383097599999999
12.644967,-7.390460000000001,-2.2757845000000003,-1.5609353000000001,0.8686504,-4.4001493
12.2493105,-8.868535000000001,-3.6680415,-1.0328684000000001,1.0192896999999999,-4.370863
11.01304,-10.879157000000001,-4.097934700000001,-0.6548999,0.9213593000000001,-4.2282
10.352806,-12.738063,-3.9672976,-0.405248,0.61313415,-3.958843
10.790294,-14.312624,-3.3127230000000005,-0.3339164,0.23038346,-3.5468233000000002
11.112419000000001,-15.148545,-1.8996171000000002,-0.3376514,-0.20343557,-3.1294801
10.613372,-15.209567999999999,-0.5300188,-0.30410618,-0.5531821,-2.7493997
9.268567,-14.282360999999998,0.7930075,-0.27588418,-0.664953,-2.4784374
8.272436,-13.228164999999999,1.7685106,-0.3578623,-0.55955255,-2.1063507
7.489101,-12.343058000000001,2.0894868000000004,-0.5606869999999999,-0.35302776,-1.5974475000000001
6.698526400000001,-11.659217,1.7947702,-0.7906516,-0.048537605,-1.0033723
5.9315963,-11.348114,1.018934,-0.82791436,0.4087212,-0.35126495
4.978618,-11.05199,0.20803697,-0.81779146,0.8265879,0.41207224
4.2030687,-10.948694,-0.52734685,-0.93437946,0.8106356,1.3281956
3.164857,-10.606716,-1.0231477,-0.88540554,0.42682028,2.4476671000000003
2.7042794,-9.915328,-0.87655556,-0.45741588,0.033440508,3.4974303
2.814202,-9.264536,-0.44788809999999996,0.30485666,-0.11719886,4.1718779999999995
2.6242461,-9.125902,-0.50233227,0.9649402,-0.011798426,4.380026
1.6107423,-9.189406,-0.8861228000000001,1.4467033999999999,-0.026162485,4.4822326
0.47887868,-8.916888,-1.2385494,1.6324762,-0.24549802,4.5354475999999995
0.13439132,-9.127367,-0.93885267,1.5547568,-0.5409299,4.6179667
0.41222405,-10.006824499999999,-0.48096640000000007,1.4317983,-0.72883207,4.8213325
-0.18283083,-10.815489999999999,-1.2880901000000002,1.5079122,-0.79911643,5.0427623
-1.2961538000000001,-10.968528,-1.6057143999999999,1.765575,-0.53080696,5.226964499999999
-1.1121451,-11.006691,-0.6257484999999999,1.9843521000000002,-0.09484119,5.2317467
0.8563581,-10.591996,0.69000894,2.0365026000000004,0.35175365,4.971431
4.00097,-10.48603,0.97821337,1.9566710999999999,0.7664439000000001,4.523213
6.35741,-11.079839,0.06753564599999999,1.7921565,0.9511521000000001,3.9445662000000006
7.4674005999999995,-12.045947,-1.5180867,1.6266120000000002,1.0155722,3.336668
8.145495,-13.149683999999999,-3.158833,1.4403155,0.9639453000000001,2.7745326
8.197996,-14.228999,-3.9347363,1.129961,0.8521569999999999,2.2209141
8.031656,-14.533935000000001,-3.3045635,0.7067711,0.89367837,1.7817368999999998
7.993386999999999,-14.054127,-1.8581017,0.22659610000000002,1.0208955,1.3468182
8.2982645,-13.423637,-0.9551620000000001,-0.10979866,1.116714,0.90074694
9.056183,-12.557502000000001,-0.8395795,-0.029408797999999996,1.2609829,0.75117224
9.808939,-11.522249,-0.93683195,0.24684192,1.1396127,0.5680523000000001
10.103732,-10.584526,-0.93594134,0.52417475,0.57002455,0.19275416
10.199779,-9.774089,-0.97547436,0.76159185,-0.22525219999999999,-0.07393215
10.133708,-9.509893,-1.1311071000000001,1.1384783,-1.1339405,-0.16123351
10.023584,-9.461713,-1.6528418999999999,1.3253332,-1.9441221999999998,-0.4587947
9.656601,-9.143102,-1.9935752,1.1028212,-2.6862013,-1.1545527
9.070127000000001,-8.778139999999999,-1.9295063000000001,0.41716859999999995,-3.1594474,-1.9982971999999999
9.347719999999999,-8.953032,-1.6441845000000002,-0.66713464,-3.266436,-2.7115958
9.112878,-9.343152,-0.82870024,-1.9047999,-3.0433830000000004,-3.1369152000000002
8.458198,-9.514414,0.49274585,-3.1674759999999997,-2.6643672,-3.5196660000000004
8.870986,-9.321019,0.32812053,-4.003226799999999,-2.1006433999999996,-3.827891
10.309566499999999,-10.681500999999999,-0.5381208000000001,-4.391824199999999,-1.2116599,-4.0227222000000005
9.912742999999999,-11.112169999999999,-0.8848778,-4.15336,-0.20929988,-4.1504803
10.033161,-10.491947,-1.1473205,-3.3138739999999998,0.68287754,-4.255881
10.748385,-9.118461,-2.192945,-2.3546237999999997,1.1326838,-4.39055
11.567624,-8.548583,-3.37479,-1.4230542,1.2764117,-4.5300193
11.857073,-9.856114,-4.536476,-0.73741907,1.1294898000000002,-4.602433
11.426548,-12.083096000000001,-4.772257,-0.34828046,0.785084,-4.495950700000001
11.214269,-14.669915,-4.2885995,-0.16249016,0.28202775,-4.197307599999999
11.571694,-16.954674,-2.9572700000000003,-0.12578587,-0.35622170000000003,-3.8119214
11.263809,-18.504870999999998,-0.6981301,-0.13587388,-0.97317815,-3.3993604
10.161174,-18.674477,1.596808,-0.12257447,-1.3649696000000002,-3.062407
8.440825,-17.033175,3.858687,-0.1390853,-1.3889155,-2.739277
7.188466,-15.206466,4.9611114999999995,-0.30037117,-0.9029111999999999,-2.4944072
6.521116,-13.914862,4.7346487,-0.71984357,-0.07194247,-2.0813227
5.751169,-13.073634,3.6771300000000005,-1.2963607,0.7659028,-1.3552482
5.091088,-12.732978,1.9912863,-1.6168207,1.3323145,-0.38587484
3.6139517,-12.356112,0.5696955,-1.65726,1.3530664,0.8294154
2.8100650000000003,-12.122514,-0.32102415,-1.4289011,0.96607465,2.1320069999999998
2.0219226000000003,-11.408266000000001,-0.7809119999999999,-0.93596774,0.43427283,3.2429787999999995
2.0365462,-10.861229,-0.60995644,-0.23968607,-0.020839231,3.9972928
1.9268151999999998,-10.393345,-0.2632377,0.7291287,-0.2832844,4.4508166
1.9542528000000001,-10.244081,-0.10658029,1.8278484,-0.36898005,4.68771
1.4445081,-10.564941000000001,-0.56502205,2.618884,-0.56648153,4.783529
-0.49866435,-10.367344000000001,-1.4268581,3.0857419999999998,-0.78206456,4.9474849999999995
-2.4084425,-10.791663,-1.7956703999999999,3.2289288,-1.1030655,5.1524386
-3.3738132000000003,-11.909257,-1.0689152,3.0575202,-1.2648925,5.143922
-4.283323,-12.176843,-0.5872498,2.6561467999999997,-1.155216,4.8740239999999995
-3.4311687999999996,-12.169066,0.7148129,2.202588,-0.76024795,4.5865507
-1.2636882999999999,-11.939884,1.6366476,1.6377995,-0.036826447000000005,4.223522
1.5476981,-11.791223,2.5062884999999997,1.0889806999999998,0.8489629999999999,3.858347
3.993835,-12.2896,2.6400094,0.5092696,1.5707964,3.3803189
6.063297,-13.277256,1.5488952,0.0977908,2.0504130000000003,2.8714156
7.142593400000001,-14.724014000000002,-0.724811,-0.15505505,2.235662,2.369424
7.4238257,-16.0941,-2.5305276,-0.23755677,2.2181041,1.9456930000000001
8.07208,-16.661709,-4.171571,-0.18486528,2.0403073,1.5757356000000002
9.499521000000001,-15.854432999999998,-5.162186,-0.092240654,1.7203709999999999,1.1610454
9.956691000000001,-14.030463000000001,-5.146901000000001,-0.009180431999999999,1.2125326,0.7229503
9.902208,-11.942497999999999,-4.7591367,0.07382743,0.6413561,0.5084144
10.02978,-10.630514,-4.1062765,0.22341959,0.049410272000000005,0.48127455
9.911286,-9.574997,-3.183953,0.33681363,-0.509514,0.2624975
10.159527,-8.80325,-2.9784252999999996,0.36875317,-1.116906,-0.26874580000000003
10.215485000000001,-8.668524,-2.3134787,0.47200683,-1.5204086,-0.7382743
10.22213,-8.958979,-1.8442343,0.33040828,-1.6715891,-1.3307438
9.852169,-8.923428999999999,-1.3172802,-0.08052949,-1.5832231,-2.1420076
9.687975,-8.159545,-1.0302728,-0.64266515,-1.3953035,-2.9932048
9.754543,-8.015863000000001,-1.1799583,-1.2819618,-1.2675453,-3.7187379999999997
9.844287,-8.688892999999998,-1.5950937,-1.8238865000000002,-1.1962137,-4.126517
9.043148,-9.237041,-1.8543188999999998,-2.2114192999999998,-1.1302229,-4.295273
9.069436999999999,-8.768936,-1.8734244999999998,-2.2928738999999996,-0.9311156999999999,-4.350634599999999
11.061939,-8.981292,-2.3771357999999996,-2.211943,-0.7400196,-4.547577400000001
12.535964,-9.624231,-2.6670352999999998,-1.9170521,-0.38601446,-4.674812
12.718986,-9.671244,-2.717237,-1.429442,-0.064489916,-4.6561894
13.47381,-9.226995,-3.6513681000000004,-0.85027206,0.16704546,-4.538012999999999
13.245538,-8.722403,-3.8457487,-0.31901127,0.23144811,-4.360216599999999
12.977435,-10.411339,-3.9535449999999996,0.029112091,0.14575244,-4.138769
12.185472,-13.242655,-3.7270155,0.15687019,-0.04426155,-3.9013519999999997
11.200957,-15.614619,-2.8353764999999997,0.18137461,-0.31042427,-3.5899330000000003
10.267132,-16.785805,-1.7739694,0.13983577,-0.6165201,-3.297154
9.936703,-16.861683,-0.24300189999999997,0.12280136,-0.90875804,-2.8963215
9.653144000000001,-16.313248,0.6237566,0.115366265,-1.0806904,-2.5268702999999997
8.652942,-15.651414,1.6335734,0.043493606,-0.98860687,-2.2793477
7.357075,-14.514867,2.1585069,-0.17420131,-0.5787163000000001,-2.0935574
6.232768,-13.333568,2.0009875,-0.602191,0.15374605,-1.7422224999999998
5.2330737,-12.165695,1.2330903999999998,-1.1153701999999999,0.8505513000000001,-1.1838218999999999
4.499289,-11.336699000000001,0.15343003,-1.5162023999999998,1.3163273000000002,-0.3911981
3.7725722999999998,-10.654859,-0.5354009,-1.6684474999999999,1.5106348,0.54195964
3.2166386,-10.345316,-0.9109363000000001,-1.6492838,1.3030278999999998,1.5837117
2.8547217999999996,-10.157209,-0.9284235000000001,-1.4171898,0.8926136999999998,2.565861
2.1856284,-9.664750999999999,-0.66713953,-0.9950471,0.38531634,3.3787305
2.037868,-8.790550999999999,-0.4495832,-0.24713862,0.027576202999999997,3.9770467000000003
2.3798747000000002,-8.662327000000001,-0.6095541999999999,0.6785491,-0.31042427,4.359256299999999
7.6559289999999995,-9.075422999999999,-0.058466405,-0.6094689999999999,2.194961,1.360903
8.111286999999999,-8.913592999999999,-0.29848033,-0.45774750000000003,1.6147263,0.9536828000000002
8.385462,-8.7765875,-0.9683780000000001,-0.29431486,0.7965508000000001,0.6225764
8.928628999999999,-8.648125,-1.6999693999999999,-0.32040754,-0.09667379,0.068940505
8.87929,-9.071956,-2.2657096,-0.31028464,-0.9286897,-0.43353978
8.675658,-9.479899000000001,-2.554211,-0.040404372,-1.4226876,-0.8423656999999999
8.982164,-9.100197999999999,-2.1007493,0.17144369,-1.5046833,-1.3864198
10.120549,-7.891661999999999,-1.7401631999999998,0.23797564,-1.1890055,-1.9623784
11.231344,-7.809723399999999,-1.5112298000000002,0.085748024,-0.9026145000000001,-2.637367
11.51994,-8.688558,-0.9432771999999999,-0.0824668,-0.8504466,-3.1936557
11.468122,-9.593432,-0.8069321999999999,-0.20596631,-0.98352796,-3.4438487999999996
11.715900999999999,-9.3974905,-1.0738473,-0.44177774,-1.1437666000000002,-3.5779947999999995
13.000889,-10.011125,-1.57187,-0.7973710999999999,-1.1767533000000001,-3.7137290000000003
12.619675,-10.571684,-0.62725216,-1.1055963,-0.9845925999999999,-3.7797549
12.749229,-10.153369,0.17905755,-1.2408069,-0.64125144,-3.7142699999999995
12.190433,-8.790742,0.43336007,-1.156682,-0.22282618,-3.6093934
11.334985000000001,-7.603295,0.099397674,-0.88413143,0.10506882,-3.5588135999999997
11.176995,-8.552385000000001,-0.6829508000000001,-0.47425829999999997,0.26741934,-3.5535078
10.377360000000001,-10.545711500000001,-0.70132875,-0.038798667,0.23602088,-3.5412555
9.444666,-12.127781,-0.7774069,0.28590238,0.056618482000000005,-3.463536
9.214841999999999,-13.304894,-0.9764321,0.43654174,-0.21591468,-3.3256726000000003
9.209413,-13.769131,-0.9408829,0.5020265,-0.4953768,-3.1494641
8.570035,-13.422277,-0.3159197,0.5568473,-0.7136302,-2.8822367
7.618234599999999,-12.639795,0.63511467,0.5861339,-0.88132143,-2.586264
6.889411,-11.241667999999999,1.5222238000000001,0.49987975,-0.92923075,-2.2652802000000003
6.456501,-10.304960000000001,2.049676,0.2773677,-0.85524625,-1.927786
6.1227784000000005,-9.783072,2.1796333999999997,-0.05742133,-0.50921726,-1.5040375
5.658169,-9.575178999999999,1.8520107,-0.42048472,-0.009372418,-1.0414729
4.999676999999999,-9.623206,1.1191744,-0.7090050999999999,0.5176122999999999,-0.52031755
4.4143815,-9.590472,0.3481169,-0.9970019,0.87639964,0.21692698
3.8946288,-9.76887,0.08140285,-1.2477185,0.8215614,1.1634016
2.814202,-9.295488,0.088039584,-1.2067206,0.50218356,2.098706
2.085618,-8.899497,-0.11894394,-0.7808603,0.10346312,2.8498259
1.6982647000000002,-9.049671,-0.62021315,-0.021764256000000003,-0.21537364,3.2192597000000003
1.6543838,-9.816754,-1.1791346999999999,0.8086285,-0.4166101,3.3608407999999996
1.261093,-10.066,-1.3878803,1.4165616,-0.6439043000000001,3.4337782999999997
0.7601591,-9.933648,-1.408413,1.7050819,-0.9079377000000001,3.4092913
0.64724845,-11.086122,-1.4688045,1.7066702,-1.0947752,3.4066384
-0.34740824,-11.736684,-1.8667016,1.631621,-1.1208678,3.4790347
-0.49371314,-12.029100999999999,-1.5678477,1.6747307,-0.9515884,3.5721830000000003
0.51669747,-11.544524000000001,-0.21771914,1.853592,-0.62207025,3.5993402000000003
2.4062877,-10.530982,1.1229955,2.0010374,-0.15416493,3.5045687999999995
4.9645779999999995,-10.306215,1.7776276999999998,1.8376223000000003,0.30468214,3.2384236
