accx,accy,accz,gyrx,gyry,gyrz
13.115886999999999,-6.058383999999999,1.1148074,0.47979102,-1.0874274,-3.849533
11.76685,-5.0889044000000005,1.357905,0.65439373,-0.73450434,-3.8548562999999993
11.405307,-4.705286,1.616134,0.8135503000000001,-0.47312385,-3.773943
11.749439,-5.962941000000001,1.6357951000000002,0.9338559000000001,-0.4236263,-3.6035988
12.349789999999999,-8.010883,1.1542925,1.0360798,-0.60994023,-3.3502118999999997
12.625995,-9.979961999999999,0.3990847,1.150521,-0.7387454999999999,-3.0915017000000002
12.40029,-11.460258,-0.013742718000000001,1.1861781,-0.6812718000000001,-2.8764596
11.899805,-12.272141,0.49039954,1.125493,-0.5157099,-2.6810875
11.254692,-12.600052,1.5869535,1.0323448,-0.3528183,-2.4553816000000004
10.62155,-12.677633,2.7670937,0.84496623,-0.27455774,-2.2270052000000002
9.674251,-12.578982,3.3274230000000005,0.6639755999999999,-0.32887238,-2.0167453
8.4767,-12.49103,3.212473,0.51118946,-0.47685885,-1.6978737000000002
7.4537059999999995,-12.410048,2.5625042999999996,0.39196604,-0.5529727,-1.2778603000000002
6.5302906,-12.339792,1.8613194,0.25940830000000004,-0.41936769999999995,-0.86744606
5.8317394,-12.006012,1.5966836000000002,0.10183996,-0.17554522,-0.5006651
5.3298283,-11.416023,1.6132993999999998,-0.058887407,0.042690754000000004,-0.06096435
4.9662447,-10.863748,1.300789,-0.26970574,0.14435618,0.41278782
4.7140393,-10.788704,0.96660626,-0.57684875,0.19811232,0.9493543999999999
4.229903,-10.77182,0.39509115,-0.83501786,0.2891487,1.4923438
3.6472886,-10.794651,-0.33443168,-0.86217517,0.39402553,2.0789664
2.8408162999999997,-11.102373,-0.73444533,-0.63379884,0.4211654,2.669324
2.1971495,-11.779808000000001,-0.8608209000000001,-0.28832838,0.43819982,3.1334944
1.9763178,-12.297626,-0.7143053,-0.045588,0.6016324000000001,3.2431533
1.7413125,-12.083642,-0.71567476,0.016144296000000002,0.9098400999999999,3.0158591
1.1146637,-11.67837,-0.7906899000000001,-0.2728997,1.2249768,2.5995805
1.0867951999999999,-12.230493,-0.9999623,-0.924466,1.5523657,2.2493105
1.4280072,-13.061491,-1.329711,-1.6297883999999998,1.8105522,2.0821601999999997
1.7546433999999997,-13.6820965,-1.3636701999999998,-2.0827887,1.9350988999999998,2.0779018
1.7168533,-13.211559,-0.38316804,-2.2094822,1.9148880000000001,2.2573042
1.3459723,-11.712148,1.0429908,-2.0018926,1.7679487,2.5144086
2.004301,-10.993733,2.0046842000000002,-1.6659865000000003,1.5315961999999999,2.6959229
4.4399223,-11.106252,2.237171,-1.425899,1.2803386,2.7800477000000003
7.668685400000001,-11.472488,1.8280783999999999,-1.4386749,1.1323521,2.8801248
10.043963,-11.196475,1.0090028,-1.6808741999999999,1.2915261999999998,3.0462103
10.544007,-10.552453,-0.3061322,-1.9837761000000003,1.6497724999999999,3.187268
9.251914,-9.91641,-1.2448412,-2.0923705000000004,1.9212584,3.238912
7.684448700000001,-9.6070795,-0.92775315,-1.9065802,1.9979308,3.1287122000000003
6.144211,-9.379467,0.27324545,-1.5499396,1.8557911,2.7922822999999997
5.060097,-9.137107,1.6593828999999998,-1.2481023999999998,1.4826398,2.4132842999999995
5.1598687000000005,-8.830016,2.7929034,-0.99578017,0.99342394,2.0390508
6.0633063,-8.600949,2.9021938,-0.7562337,0.5058139,1.6808043999999998
7.0535197,-8.544016000000001,2.1911447,-0.41873938,0.02565634,1.2559913
7.766148599999999,-8.851805,1.3071671999999999,-0.081786126,-0.40922734,0.73750633
8.487445,-9.075547,1.1625763999999998,0.29030059999999996,-0.83189374,0.18814649
9.380664,-9.299586999999999,1.5624944,0.6277949,-0.99052674,-0.27867672
10.259116,-9.026849,2.6127922999999997,0.9274853999999999,-0.7430041000000001,-0.6906966
11.489438,-8.513283,3.407715,1.1776783000000002,-0.36559412,-1.1117747
12.663631,-7.883789999999999,3.4399123,1.4230891,-0.24420647,-1.6531409
13.200957999999998,-7.6653332999999995,2.9153621,1.7244028000000002,-0.5470909,-2.1359513
13.35343,-7.4173803,2.7634642000000005,2.0075824,-1.1289313,-2.5176375
13.269824,-7.0845575,3.0953484,1.9894834,-1.6255996000000001,-2.8093517000000006
13.188422000000001,-6.4938215999999995,3.5864184,1.7233206,-1.8805748,-3.1340702
14.008301999999999,-6.977086999999999,4.025314,1.3544278,-1.8757926,-3.4614418
14.168818,-7.7069350000000005,4.3231144,1.3565571,-1.535628,-3.7813779999999997
13.412395000000002,-7.4078326,4.5395694,1.6429483,-1.0969918,-4.048064
11.995984,-5.9519470000000005,4.644129,1.7270557,-0.9974381999999999,-4.0299654
11.017111,-4.8030175999999996,4.1966524000000005,1.9202810000000001,-1.0741105,-3.8873019999999996
10.89333,-5.3805375,3.3238223,1.9000526999999998,-1.0719812,-3.9240413
11.021507000000001,-7.189405000000001,2.7023642000000003,1.408725,-0.91334826,-3.9719504999999997
11.353371000000001,-9.135411999999999,1.7112221999999997,0.6203424,-0.7520449,-3.7185636
11.695101,-10.706008,0.7300208,0.03265511,-0.6232222,-3.1921023999999996
11.958625999999999,-11.779060000000001,0.6579265999999999,-0.093479834,-0.64078015,-2.7247033
12.189915,-12.420342,1.3032693000000002,0.17479472,-0.88992596,-2.3755152
12.349724,-12.562367,3.32139,0.5548751000000001,-1.0544058,-2.1056175
11.434016999999999,-13.017667,3.0411627,0.7220426999999999,-1.0889982,-1.8112328999999998
9.486728,-13.65669,1.9866606,0.6059783000000001,-0.9942617,-1.5418762
9.2653885,-13.835172,1.8977017,0.22696261,-0.6509031,-1.3023298
9.403054,-13.678094,0.35178486,-0.26647687,-0.19736183,-1.1074986
7.6018295,-13.312806,-1.3385407,-0.5997126,0.1550376,-0.8594350000000001
5.0086889999999995,-12.761478,-1.8970314,-0.61568236,0.2231578,-0.52248174
3.3737269999999997,-11.997996,-0.54854995,-0.5353099,0.064001225,-0.15943582
3.0833104,-11.120617,1.3435495000000002,-0.7429168,0.051225413,0.20306906
2.958065,-10.282503,2.6337657,-1.0931870000000001,0.19708258,0.7151661
2.9457204,-9.746383999999999,2.5878064999999997,-1.2161454,0.3562566,1.4503162
3.0555377,-9.583855999999999,1.3296821,-1.0042799,0.39617229,2.1221107999999997
3.06182,-9.600136000000001,0.037521932,-0.61728805,0.35571554,2.6411195
3.3451307,-9.941272,-0.9809523000000001,-0.35058429999999996,0.36210346,2.853526
2.8256943,-10.092757,-1.346997,-0.34419638,0.45046946,2.7773947999999997
2.1387405,-10.2095175,-0.81343484,-0.5560619000000001,0.52553606,2.539454
1.8641447,-11.139702999999999,-0.2753715,-0.93561864,0.57290435,2.2972372
2.4062781,-12.656343,-0.81784016,-1.2837421,0.61496675,2.1721494
2.2534132000000002,-13.022035,-1.5382364,-1.4950839,0.6362598,2.1870546
1.2775843,-13.120072,-1.046994,-1.5190298999999998,0.63997734,2.3345
0.53453904,-12.120157,0.59498787,-1.4056358,0.7054621,2.6028094
1.1743463,-11.199693,1.9741724999999999,-1.1948524,0.82894415,2.877472
3.4953814,-10.941454,2.2845953,-1.061771,0.9354091999999998,3.078691
6.165366000000001,-11.194884,1.6262854,-1.0479306000000002,0.9849242,3.1415055
8.182883,-11.057084,0.8486775,-1.1405553,1.0243163,3.1777036
8.8562765,-10.652091,0.21707748,-1.2033696000000003,1.0147344,3.3091967
8.362515,-10.195889,0.046255976,-1.1117921999999998,0.94074994,3.4305668
7.4028907,-10.006949,0.73782593,-0.96382314,0.89601713,3.3789225
6.4723505999999995,-10.047363,1.7191709,-0.8115781,0.9742777,3.2192423
5.764634,-10.1855755,2.7193341,-0.743423,1.0935186000000001,2.9780903
5.599999400000001,-10.369958,3.5288043,-0.75035197,1.1696498,2.7273736
6.077173,-10.37421,3.7975678,-0.7423583,1.1446218000000001,2.5155082
6.982881,-10.353294,3.2453787,-0.8381769,0.94235563,2.1668262
8.032413,-10.159546,2.6589906,-0.9079203000000001,0.77998763,1.4912965
8.490250999999999,-10.139502,2.2190037,-0.8094488000000001,0.6277251,0.6688625
8.821867,-10.064591,2.371543,-0.6108826999999999,0.6032556,0.04392994
9.997909,-9.789048,2.6486576,-0.4346917,0.64584166,-0.4867898
11.422067,-9.110675,2.6204633999999998,-0.13763666,0.69533914,-0.8727344000000001
12.654264999999999,-8.718973,2.3759196,0.36433747,0.52927107,-1.2975127
14.534517999999998,-9.271642,1.6881324,0.8375661,0.02141519,-1.7404249
15.265784,-9.089376,1.2173078000000002,1.169196,-0.75363314,-2.1833196
14.938372,-7.8322864,0.7240545,1.3129239,-1.5915133999999997,-2.6246088
15.204416,-6.3367624000000005,0.12770672,1.2804608,-2.2553144,-2.9615793
15.892701,-4.908104,0.8015979,1.2320105,-2.5725803,-3.209102
16.271914000000002,-5.39993,1.6637978999999998,1.2123232,-2.5709746,-3.4188383
15.338845000000001,-5.6551905,1.9645381999999998,1.1356683,-2.3527212000000004,-3.5700184999999998
14.060514000000001,-5.6186742999999995,2.0914788,0.96106553,-1.9737055000000001,-3.690324
12.279296,-4.644426,2.5600526,0.7113961999999999,-1.6032071,-3.7297163
11.434641000000001,-3.8600852,2.4551964,0.50433034,-1.2018337,-3.7142699999999995
11.512183,-5.1494203,1.5839368,0.41809362,-0.9032079,-3.5774712999999996
11.933639999999999,-6.9893546,0.7848385,0.43512803,-0.80258965,-3.3012029999999997
12.324163,-9.212361,0.38295734,0.50113636,-0.93034774,-2.9679672999999998
12.160505,-10.730917,0.8555345,0.60547215,-1.1975751000000001,-2.648031
12.028326,-11.568485,1.93078,0.7614348000000001,-1.4419212,-2.3887799
11.534602,-12.019544,2.6127347999999997,0.9014450999999999,-1.5473217,-2.1998130000000002
11.062812,-12.172485,2.5939355,0.91580915,-1.5712676,-1.9916824
10.146942,-12.263197,2.0677092,0.781157,-1.5105823999999999,-1.7622241
9.254642500000001,-12.380656,1.5006665000000001,0.53626984,-1.2907408,-1.5429235000000001
8.237078,-12.482621,1.3348728,0.24455553,-0.9079901,-1.3252110000000001
6.825744599999999,-12.614322,1.1741165,-0.00720821,-0.48373544,-1.073936
5.3662486,-12.416684,0.8486870000000001,-0.22174408,-0.10365511,-0.7284655
4.4820127,-11.991666,0.6242736999999999,-0.35960764,0.05496042,-0.24830799
4.0673275,-11.653633000000001,0.62700313,-0.50014156,0.12576842,0.28028244
4.1517277,-11.349071499999999,0.954664,-0.6891258000000001,0.23116885,0.7620281999999999
3.7145080000000004,-11.067341,0.6459556,-0.7359879,0.31473523,1.2922069
2.9417843999999995,-10.799123,-0.051025227,-0.35428438,0.29078930000000003,2.0071461
2.4480138,-10.764339999999999,-0.72546226,0.36274922,0.25513223,2.6544537999999998
2.3964522,-11.409051,-1.0680534,0.99513435,0.32644638,3.0307992
2.0746045,-11.994194,-1.092934,1.2772669,0.49946088,3.1154474999999997
1.1340854,-12.12555,-1.0672586000000002,1.0323972,0.7405956,3.0488982000000004
-0.16822618,-12.110714999999999,-1.1621839,0.35794958,1.0461503,2.8993235
-0.70741,-13.012917,-1.1558535,-0.3564137,1.2931668,2.7140741000000004
-0.18454507,-14.135176000000001,-1.1508448,-0.94036597,1.460317,2.5538529999999997
0.4197802,-14.754832999999998,-0.62001204,-1.1719363,1.5183318000000001,2.5197667999999998
-0.11143572,-14.114911,0.95054597,-1.1107274999999999,1.5497302,2.6986282000000004
-0.6490489,-12.419605,2.8730612,-0.94462454,1.5513358999999998,3.068603
0.56509864,-11.5962105,3.5746388,-0.7077485,1.4826746000000002,3.4364486000000003
3.2113235,-11.732229,2.2751238,-0.49907690000000005,1.3623517,3.5578012
5.749015,-12.266224000000001,-0.02671929,-0.28667033,1.1483743,3.4880755
7.071332000000001,-12.481442,-2.1406174,-0.00986111,0.8811469000000001,3.385869
7.669786500000001,-11.967733,-3.0346699,0.2770361,0.5675985,3.3326364
7.6088595,-11.371281,-2.6603124,0.43621013,0.2237163,3.2511992000000003
7.003356,-10.912272999999999,-1.1111491000000002,0.8423656999999999,-0.2803697,3.0137822999999995
6.083743,-10.713957,0.5655584,1.5274773000000001,-0.6615147,2.5373422999999997
5.1134977,-10.790045,1.5951704,1.966637,-0.7525510999999999,1.9656247
4.617093,-10.979053,1.9523182000000001,1.7526596999999997,-0.30911526,1.6606109
5.489933000000001,-10.791855,2.1058824,1.0228328000000002,0.47125635,1.4434221999999999
7.066084,-10.520371,1.7488781000000002,0.26960102,0.9939998999999999,0.99201024
8.112801,-10.098723,1.4756614,-0.14878932,0.97803015,0.23930210000000002
8.589582,-9.847284,1.1412776000000002,-0.20523326,0.6069906,-0.6193301
9.147162,-10.065157000000001,0.2920447,-0.35639623,0.2769663,-1.1937004
10.082491000000001,-10.14837,-0.41831490000000005,-0.506512,0.08000589,-1.5769746999999998
11.317258,-9.449541,0.43149263,-0.4745899,-0.020594886,-1.8729476999999999
13.072523,-8.636949000000001,0.49362692,-0.21746802,-0.09032079,-2.1699853
13.506084,-8.529995,-1.5031469,0.06410594,-0.3729943,-2.4574409999999998
12.912332000000001,-8.475733,-4.4537515999999995,0.3009995,-0.868598,-2.6778237999999996
12.825787,-7.481717,-6.0359739999999995,0.4564385,-1.4626556999999998,-2.8678553
13.593682999999999,-6.274609,-5.69503,0.43355724,-1.9209967000000001,-3.067486
14.448519000000001,-5.757183599999999,-4.3694180000000005,0.19079939999999998,-2.1264741000000003,-3.3496184
14.416082000000001,-7.061660000000001,-3.5316486000000005,-0.21427408,-2.035979,-3.7025414
12.980624,-8.040888,-3.6902883,-0.6363994000000001,-1.5920020000000001,-4.1198845
11.868546,-8.396063999999999,-2.5794172000000004,-0.8818101,-1.0612998,-4.3440022
10.667173,-7.818045599999999,-0.9175059999999999,-0.8866098,-0.56463146,-4.368489299999999
9.762147,-7.200158999999999,-0.041122805,-0.72424185,-0.30272737,-4.269476999999999
9.446409,-8.15964,-0.36922422,-0.4580791,-0.21488494,-4.1539536
9.61319,-9.806344000000001,-0.7745147,-0.21160372,-0.33199653,-3.9069545
10.188765,-11.371089,-1.0367564,0.13491395,-0.76850337,-3.4406373999999995
11.111155499999999,-12.443586,-0.88845956,0.51180035,-1.3524731,-3.005736
12.194484,-13.344935000000001,-0.5608944,0.8455771000000001,-1.6697389999999999,-2.7161512
12.868546499999999,-14.143957,0.2150855,0.85090035,-1.482884,-2.4776695
12.399695,-14.729378,1.3263782,0.6310587,-1.0123084,-2.0704317
10.84196,-15.141248000000001,2.2115815,0.45750317,-0.6726848000000001,-1.472639
9.244425,-15.044599,2.9912867999999997,0.65181065,-0.63009876,-0.81679666
7.8422556,-14.599037,3.158316,1.0696774,-0.79192567,-0.23390903
6.5257607,-13.779395999999998,2.929459,1.2725021,-0.8334471,0.19406316
4.481773400000001,-13.171173999999999,2.3793576,1.0462551,-0.49010590000000004,0.4378682
3.0978,-12.422086,2.3775382,0.5581214,0.07414158400000001,0.5842664000000001
2.707277,-11.352222,2.7030537,0.0689056,0.46008626,0.7354294
2.931681,-10.199844,2.7492905,-0.19350465,0.6197838999999999,1.0505835
1.8436886000000001,-9.470953999999999,1.8954608,-0.07054621,0.5723982,1.4934608
0.16508499,-9.151788,1.0773621000000002,0.26747170000000003,0.49202576,1.9134743000000003
-0.98168015,-9.108425,1.0790188,0.48626620000000004,0.57506853,2.1556911
-0.91241115,-9.303877,1.7778383000000002,0.43675119999999995,0.8422959000000001,2.2254169999999998
0.052902278,-9.872653,1.4872302,0.071575955,1.2553803999999997,2.0843594
1.1615708999999999,-9.810213000000001,0.06073611,-0.58156115,1.7541606,1.7569706000000003
2.0904253,-9.497626,-1.3317796,-1.3225582,2.1944025000000003,1.4657973
2.6295424,-9.817855999999999,-2.0986135,-1.9996935000000002,2.5377436,1.2688195
3.151976,-11.382743,-2.2830147999999997,-2.4047843999999996,2.7464325,1.2773541000000002
2.8588588,-12.285032000000001,-1.3740036,-2.631014,2.885361,1.4221466999999999
2.9552686,-12.597131,-0.13251428,-2.6416605,2.9582982,1.6239066999999998
3.702633,-11.857274,0.31494287,-2.5373247,2.998755,1.8549359
4.763781,-10.646058,-0.29102957,-2.5506415000000002,3.0104487,2.0832775000000003
6.0512013,-9.816524000000001,-1.2346706,-2.630473,2.9268822999999995,2.2578976
7.655584299999999,-9.460755,-2.1650287999999995,-2.6246262000000002,2.67456,2.3893907000000003
8.531412,-9.426748,-2.6555338,-2.5048616000000004,2.2423117,2.4798683999999995
8.1877775,-9.365159,-2.4728274,-2.3504697999999995,1.7642835,2.5442886000000002
7.0323066999999995,-9.225912,-1.4429662,-2.1993067,1.3464167999999999,2.616685
5.7587447,-9.091387,-0.3163698,-1.939532,1.0749308000000002,2.6853461
4.9919105,-8.883092,0.9006029000000001,-1.4918376,0.97698295,2.6975982000000003
4.7359133,-8.502021000000001,1.9607457999999998,-0.9403485,0.97911227,2.610297
4.8343053,-8.478978999999999,2.1732552000000003,-0.49373618,0.92746794,2.3574336
5.102561,-8.334455499999999,1.7390332,-0.17914059999999998,0.7853283000000001,2.0694368
5.4470673,-8.058366,1.603531,0.050823987,0.5127952,1.7101258999999998
5.785646,-8.064217999999999,1.9035628,0.1998751,0.2184105,1.3396275
6.325844999999999,-8.178908999999999,2.1808400000000003,0.34999087,-0.09457939,0.8589462999999999
7.08315,-8.879127,2.4268491,0.47720793,-0.27344072,0.4000818
7.759014,-9.045696000000001,2.964328,0.5315226,-0.2606649,-0.070999995
9.028871,-9.126199,4.0003470000000005,0.63959336,-0.1105317,-0.5133537
10.682822,-9.003798,4.8329544,0.8913745000000001,-0.08019788,-1.0063045
12.630114,-8.899239,4.872469000000001,1.151673,-0.38575268,-1.5806923000000002
14.129841,-8.8158045,3.8215387,1.2656081,-0.99525654,-2.1364226000000004
14.47475,-8.082471,2.8360276,1.201188,-1.6505578999999997,-2.5585654
14.541835,-7.255379,2.1244519,1.0531840000000001,-2.1355150000000003,-2.7885299
14.371635999999999,-6.47961,1.7360356,1.0382963,-2.34471,-2.8960597999999997
15.170734,-6.7368619999999995,1.7866874,1.1687074,-2.2701848,-2.9391694
14.944301000000001,-6.6541476,1.8309705000000003,1.3214934999999999,-1.9848583,-2.9412987
14.468065,-6.062358000000001,1.9765093,1.4263704,-1.5754913000000001,-2.9327815
13.463477,-5.160328,2.38338,1.4705446000000002,-1.1735942,-2.9620507000000003
12.942278,-4.684284,2.3968735,1.5062017,-0.87283915,-3.0626688
12.899528,-5.870879,1.6094398,1.5078074,-0.6689498,-3.198944
12.728102999999999,-7.8455496,0.80454755,1.4737386000000001,-0.57738984,-3.2575
12.103446,-9.883285,0.77318347,1.4636156999999999,-0.6034825,-3.135606
11.230262,-11.477822,1.554287,1.5551931,-0.7684859,-2.8364394
10.190901,-11.82547,3.1430695,1.6658993000000002,-0.9303302999999999,-2.517044
9.114065,-11.354071000000001,4.2993736,1.622266,-1.0516831,-2.1337523
8.278767,-10.691174,4.6138663,1.3811139,-1.1102388,-1.6764933999999998
7.753699,-10.045084,4.323373,1.0244559000000002,-1.0809697,-1.1361743999999998
7.6366130000000005,-9.67404,3.881901,0.68802625,-0.9846275,-0.70181435
7.57468,-9.546659,3.40195,0.35798448,-0.86058694,-0.34461525
7.182174000000001,-9.775592999999999,2.7856824000000002,0.0625526,-0.67479664,-0.09229301
6.0584793,-10.242165,2.2337903999999997,-0.16313593,-0.32613220000000004,0.062063905999999995
5.009666,-10.712186,2.027324,-0.33348006,0.12686798,0.11210250000000001
3.9816529999999997,-10.950035,1.9025188999999998,-0.6214768,0.5777389,0.14245377
3.1987493,-10.82749,1.4251534,-0.93554884,0.8832937,0.19992746
2.3024272999999997,-10.8181715,0.24095245,-1.0755591,0.9274853999999999,0.38624138
1.4621103000000002,-10.539132,-0.6592960999999999,-1.0467961,0.7523416,0.76899207
1.074786,-10.216154,-1.0547607,-0.84292424,0.5596398,1.2214687
1.4932731000000001,-10.167916,-1.1128249,-0.5661149999999999,0.37067303,1.5632216
2.2727869,-10.297404,-0.9416587,-0.42132250000000004,0.18010053,1.7069495
2.9365938,-10.205601,-0.5217732,-0.6214768,0.10290461,1.7202663
3.548226,-10.072991,0.13555971,-1.1218628000000002,0.2674019,1.6856563999999998
4.452554,-10.905905,0.15985607,-1.6589703999999998,0.6575877,1.668622
4.9119253,-12.128164,-0.56039643,-2.0619495,1.0940945,1.7314363999999998
4.858554,-12.38285,-0.8151682,-2.2211060000000002,1.3943435,1.8842225
3.8166258,-11.8287735,-0.48646346,-2.1550977000000002,1.5332718,2.0742540000000003
2.1932897999999996,-10.202537,-0.047242387999999996,-1.949079,1.4635458000000001,2.296766
2.1431265,-9.130096,0.58834153,-1.6994271,1.1228576000000001,2.4910736
3.685203,-9.339445,0.40675572,-1.4918202,0.6528055,2.5368536
5.702624299999999,-9.738674000000001,-0.41654322,-1.352351,0.18277088,2.5560172000000003
6.9658628,-10.007753999999998,-1.4412328,-1.2549441000000001,-0.07007497,2.6363897
7.468856,-10.006575999999999,-1.3799603999999999,-1.2134053,-0.0061959187,2.7157150000000003
7.239213499999999,-9.846192,-0.3614191,-1.2448211999999999,0.2732662,2.7673416
6.5184345,-9.691748,0.8857684000000001,-1.3113531,0.7044498,2.7481953999999997
5.694848,-9.255208,2.0331368000000003,-1.3949368999999998,1.0914416,2.5400473999999997
5.2830553,-8.701573,2.723117,-1.345963,1.1058232,2.0614955000000004
5.1384068,-8.247287,2.7336326,-1.1931768999999999,0.72254884,1.5706742
5.8039665000000005,-7.8842305999999995,2.2708333,-1.0755417,0.29827678,1.0745643
6.811379400000001,-7.8478675,1.8217769,-0.96214765,0.23865633,0.62367594
7.394980400000001,-8.106872000000001,1.6473832,-0.8242841000000001,0.5516637,0.1717404
8.081742,-8.304126,1.9089066000000003,-0.5671622,0.98710585,-0.19502309
9.05465,-8.308005,2.0670962,-0.34252086,1.319818,-0.5990493
10.181544,-8.283823,2.0117423999999997,-0.078487456,1.422548,-0.9243089
11.506821,-7.827833,1.8673433000000002,0.29092893,1.1814133999999998,-1.2271934
13.348038,-7.297182,1.515252,0.757246,0.54740506,-1.5348773999999998
14.929438000000001,-6.725935000000001,1.1571271,1.2267569999999999,-0.26808256,-1.721715
15.076067000000002,-5.823560700000001,0.7249547,1.6712575,-1.0005623,-1.8420205000000003
14.880614999999999,-5.1670513,0.8772164000000001,2.0321567,-1.5297112,-1.9533026000000002
14.467769,-4.6180224,1.6497006,2.2238111000000003,-1.8251431,-2.084761
14.708595,-4.70973,2.5017781,2.2690501,-1.8821107,-2.2806740000000003
14.947479999999999,-5.3798094,2.9050095000000002,2.1961129,-1.7245423999999998,-2.505839
14.422096,-5.1719356,2.2460868,2.0492084,-1.4264401000000002,-2.7618964
13.352367000000001,-4.977229599999999,1.8418403,1.8799115000000002,-1.0825579,-2.9737617999999997
12.045698,-4.173266,1.5274146,1.703197,-0.7343996,-3.0988495
11.185749000000001,-4.575904,1.3033173,1.543482,-0.42140976,-3.1542112999999996
11.080203,-6.322349,1.3618603,1.4471397,-0.17758726,-3.045617
11.183307000000001,-7.655641999999999,1.6830281000000002,1.5041072,-0.08389798,-2.8183227000000004
11.407653,-8.727286,1.9121819,1.7170374,-0.16961110000000001,-2.5521599999999998
11.715489,-9.337903,1.8935838,1.9198447,-0.51136404,-2.3285834999999997
11.845657000000001,-9.443249,1.9589933000000002,2.1380982000000004,-1.0628531,-1.9841601000000002
11.525897,-9.155244999999999,2.0263565,2.3728623,-1.5302348,-1.5561705
11.022263,-8.885324,2.0409803,2.5203078,-1.8645352,-1.1106053999999999
10.318933,-9.038275,1.9481045,2.4505818,-1.9736532,-0.712967
9.601745,-9.508573,1.7528046000000002,2.1002944,-1.9704767,-0.30574676
8.508801,-10.060042999999999,1.5422107,1.6441176,-1.7000380000000002,-0.07628834
7.048999,-10.448086,1.5937531,1.0164796999999999,-1.0740408000000001,-0.0198793
5.712556,-10.338546000000001,1.9621537,0.32606240000000003,-0.37667695,-0.009773844
4.7773614,-10.092661,2.0372071,-0.3334626,0.19076449,0.19942132
3.6884115,-9.880966,1.7273111,-0.7641226,0.5809503,0.57311374
2.3301327,-9.916266,1.6901436,-1.0068456000000001,0.82049674,1.0112263000000001
1.6469713,-9.908135000000001,1.6213247,-0.93286103,0.9450609000000001,1.6021075
1.6512139,-9.755558,1.0023851000000001,-0.42715190000000003,0.9535780999999999,2.2653849999999998
2.0443802,-10.160867,-0.038345534,0.22706734,0.82157886,2.7806761000000004
2.9401178,-10.843052,-0.82933235,0.74979347,0.6826156999999999,3.0526855
4.4093537000000005,-11.299512,-0.9529976000000001,0.8195368000000001,0.6650577,3.0047762000000002
4.6749187,-11.310822,-1.2357241,0.3649309,0.8178264000000001,2.7854582999999997
3.8716635999999998,-11.594727,-1.1126621,-0.38189548,1.0776186,2.5592287000000002
3.0742123,-13.423034,-0.99306697,-1.0084511999999999,1.3554925,2.353751
2.4710653,-14.147482,-0.07381802,-1.3778851,1.539136,2.2153462999999998
2.0425221999999996,-14.559111999999999,0.9985065999999999,-1.4641218,1.5811985,2.2062880000000002
0.8889288000000001,-13.570354,2.6359777,-1.3683032,1.5577762,2.34471
0.09405382,-11.524088,3.8578059999999996,-1.1857069,1.5226427,2.503343
1.5242255,-10.923210000000001,3.5437440000000002,-1.0366558000000001,1.4555696000000002,2.6183255
4.5338044,-11.209902,1.9322261000000003,-0.9339082000000001,1.2703204,2.6358836
7.329503999999999,-11.882835,-0.24888206,-0.83170176,1.0478084,2.597556
8.641449,-11.9128685,-1.7924143,-0.7449414000000001,0.86310023,2.5688105
8.633702,-11.414414,-1.8647863000000002,-0.657099,0.80187404,2.5272892000000002
8.176791999999999,-10.612031,-0.67212903,-0.60974824,0.88491684,2.4367938
7.431889,-10.155696,0.65918124,-0.6496639,1.094112,2.2903955000000003
6.557460000000001,-9.763287,1.7392823,-0.710349,1.3469753,2.0961056
6.0558934,-9.441152,2.3836288,-0.70342004,1.4246948,1.8512359
6.2769074,-9.076898,2.5830947999999996,-0.64434063,1.2463571000000002,1.5462046999999999
6.6641455,-8.647234,2.1978676,-0.5639508000000001,0.94027865,1.2369323
7.348466,-8.215866,1.8903563,-0.5330759,0.59161425,0.8382293
7.845032700000001,-7.8621655,1.7066541000000002,-0.5165651,0.32651618,0.3064449
8.415111999999999,-7.793759,1.5457158000000002,-0.34835026,0.08271115,-0.39461893
9.159248,-7.588307,1.528353,-0.15992452,-0.09187413,-0.95729566
10.180817,-7.4196696,1.2860023,0.007749262,-0.117425755,-1.4385178
10.993227000000001,-7.0882254,0.92854804,0.3106337,-0.064734265,-1.7722771000000002
11.531241,-6.7465444,0.7641526,0.715201,-0.20739748,-2.1427755
12.3481045,-6.9397087,0.47027868,1.0942341999999998,-0.6518805,-2.5516016
12.9297905,-7.018966000000001,0.22283314,1.3476211,-1.2363738000000002,-2.8545034
13.078058,-6.519477999999999,0.09273222,1.4333167,-1.8011797999999999,-3.0392115
13.0864,-5.779622,0.23952551,1.3470799999999998,-2.182325,-3.165905
13.580333,-5.3875475,0.9971084000000001,1.2156044,-2.3196647,-3.3213440999999997
14.363592,-6.404585400000001,2.0124798,1.078247,-2.2275636000000003,-3.514046
14.055573,-7.013469000000001,2.2743194,0.9712583,-1.9528838,-3.681196
12.75102,-7.0745883,2.730386,0.90790284,-1.6302946000000003,-3.806825
11.156463,-6.2515764,3.2405999,0.9174846999999999,-1.3252808999999999,-3.9212835
10.887853,-6.370358,3.14419,0.948377,-1.0910577,-4.028272
11.417106,-8.525934,2.5334868,1.0000038,-0.9531767,-4.026143
11.656266,-10.536547,1.9663866,1.0633593000000001,-0.9308190000000001,-3.8126892999999997
11.740408,-12.105112,1.5623028,1.1826001,-1.0995749,-3.4485612
11.884310000000001,-12.840716,1.7684723000000002,1.3135523,-1.3391213,-3.0583754
11.986101,-13.036437,2.3899305,1.4258642,-1.5547044,-2.6415732000000003
11.683302000000001,-12.935652000000001,3.072345,1.4551682,-1.7314189999999998,-2.2034432999999995
11.012121,-12.818518,3.4808917,1.3396275,-1.7197253000000001,-1.8196628000000001
10.251253,-12.62002,3.7317940000000003,0.9952216,-1.4855021000000002,-1.4938797
9.55025,-12.421721,3.6782312000000004,0.49110073,-1.0628357,-1.0632197
8.592875999999999,-12.375725,3.294843,0.03010693,-0.6816906999999999,-0.46755624
6.996796000000001,-12.297903,2.8572211,-0.03693117,-0.369748,0.10309660000000001
5.0043893,-11.99382,2.3967874,0.17650515,-0.116361104,0.6780081
3.6004674,-11.379937,2.0915265,0.3010693,-0.0008552113400000001,1.1592301999999999
2.761568,-10.868086,1.7376158,0.12807226,0.18439403,1.573903
2.0752366,-10.642782,1.381397,-0.14500195,0.40901792,1.9593066000000003
1.555101,-10.453171000000001,0.90036345,-0.26637214,0.7156373,2.3324580000000004
1.6163161,-10.793626,0.1743362,-0.08271115,0.89451617,2.711491
1.4071681,-11.660634,-0.56110513,0.24516639999999998,1.0153453000000001,2.988824
0.5679429,-12.321357,-0.81319535,0.41551054,1.1383038,3.0388625
-0.27396372,-12.423789999999999,-0.009940726,0.33885568,1.281508,2.9691367000000004
-0.42194453,-12.343498,1.6114509,0.020001473,1.4603693000000002,2.8594775
0.15928145,-12.828669,1.9819106,-0.46811476,1.6264548,2.7498186000000002
1.578976,-13.974936499999998,1.010468,-0.8891929000000001,1.7206852,2.6885924
2.2879183,-14.251285000000001,0.27760290000000004,-1.1271511,1.7606008999999998,2.69231
2.6214592,-14.013665,0.6734794,-1.171849,1.8117042,2.8110272999999997
2.5670056,-12.605031,2.0775254000000003,-1.1090345,1.8633484,3.0260868
2.9978185,-11.881542,2.9907982000000004,-1.0393086999999999,1.8894236,3.1991012000000003
5.0780535,-12.113453999999999,2.7980556,-0.96584773,1.8165038,3.239017
7.3288910000000005,-12.706957000000001,1.7816979,-0.8551065999999999,1.6317955,3.221459
8.718304,-12.883343,0.68569934,-0.68956214,1.3863848,3.2028189
9.131505,-12.502263000000001,-0.14329776,-0.49579567,1.1915537,3.1431982999999994
8.883303,-11.849478999999999,-0.35422692,-0.31532863,1.1606789,3.0580437000000003
8.272216,-11.172715,0.27829242,-0.16043067,1.299607,2.9632723
7.521758,-10.538778,1.4610758999999998,-0.11677998,1.5295717,2.8259325
6.8764443,-10.111135,2.2437692000000005,-0.15243706,1.6823578000000001,2.6050259999999996
6.6982293,-9.827844,2.6089041,-0.16097172,1.659459,2.3165057
7.411175,-9.616771,2.4600232,-0.19130553,1.4177833,1.9007683000000002
8.295334,-9.267992999999999,2.2664568,-0.31321678,0.9482723,1.3487381
8.872193,-9.088495,2.0142324,-0.41435862,0.40423572,0.7184648
9.618284,-9.050139,1.837205,-0.37175512,-0.16638224,-0.033161256
10.603,-8.931541000000001,1.6533111,-0.29989994,-0.46928412,-0.76989967
11.624022,-8.966199000000001,1.3535093,-0.15456636,-0.4075344,-1.4896036
12.353535,-8.662547,0.9495404000000001,0.12168436,-0.17650515,-2.0762262
13.026296,-8.160214999999999,0.10625467,0.45704937,-0.080145516,-2.6703014
13.826428,-7.7859343999999995,-0.5862251,0.6987251,-0.3048043,-3.204215
14.201744,-7.1455812000000005,-1.1187912,0.8877094000000001,-0.8653341999999998,-3.629552
14.344228,-5.93898,-1.6578888999999999,0.85255843,-1.4375927,-3.903167
14.481166,-5.2757190000000005,-1.9108986000000001,0.7003308000000001,-1.8916576,-4.1640067
15.100995999999999,-5.267962000000001,-1.099245,0.58854246,-2.0774305,-4.4014235
16.009882,-6.350859,0.17496826,0.528922,-1.9651185000000002,-4.532899400000001
15.860044,-6.622783,1.3255546,0.5374392,-1.7250485,-4.5749617
14.795132,-6.21258,2.4926417,0.570967,-1.4115001,-4.5701623
13.195825,-5.6011295,3.2087187999999998,0.5773549,-1.0441955,-4.5142765
12.610605,-6.414152,2.6235277999999997,0.528922,-0.7306471999999999,-4.3551025
12.908951,-8.802043,1.7627167000000001,0.52944565,-0.52731633,-4.125138
13.010025,-11.197202,1.094064,0.56616735,-0.41818088,-3.821189
13.077044,-13.001827,0.7861505,0.65561545,-0.5283635,-3.4293972999999998
13.293125,-14.325361,1.6192847,0.7950847,-0.8270068000000002,-2.9646685
12.9995,-15.227439000000002,2.8333652000000003,0.9265604,-1.1501197,-2.4829228
12.2109165,-15.605397,3.6069512,1.0740232,-1.3870132,-2.0549157
11.098658,-15.397398,4.0282636,1.1767708000000001,-1.4998661,-1.6828290000000001
10.411914,-15.237169,3.9284443999999996,1.1501371,-1.5264825,-1.2590979
9.499005,-15.006004,3.3191586,0.9824632999999999,-1.325787,-0.8172679
8.384571000000001,-14.642239000000002,2.6987919999999996,0.570967,-0.83445936,-0.35627407
6.959436999999999,-13.903176,2.3095236,0.07005752,-0.30213395,0.11960741
5.3035879999999995,-12.935555,1.9770647000000001,-0.19502309,0.08857546,0.6343748
3.642031,-12.009258,1.620616,-0.24506168,0.29937634,1.0852457
2.4281034,-11.233489,1.4563641999999999,-0.36536723,0.4101,1.4120935
1.6946734,-10.630543,1.4221271,-0.5133537,0.42128757,1.8432946
1.5315325,-10.374555,1.5014709,-0.34353316,0.49048987,2.4453459
1.0802254999999998,-10.465017,1.0385377,0.10252064,0.5357288,2.9627662
0.3585365,-10.651995,0.41962695,0.52572805,0.57353264,3.340176
0.23894133,-11.415889,-0.25167849999999997,0.71630055,0.6741334,3.4173722
-0.095873415,-11.959268,-1.0215197,0.60238296,0.88654,3.3236828000000003
-0.7486381,-11.97006,-0.94945425,0.31812117,1.1271511,3.2257175
-0.8886318999999999,-12.345375,0.111014344,-0.058747783,1.3635036,3.1810021
0.37580347,-13.735785,0.41238686,-0.36376149999999996,1.5178778999999998,3.1299164
0.8878562,-14.483234,0.31453106,-0.43563417,1.5711104999999999,3.1048883999999997
0.43404964,-14.653147,1.2145882,-0.33288664,1.5647225,3.1421509999999997
0.23546495,-13.550798,3.1308496,-0.13007939,1.5588757,3.2299936000000002
1.4846061000000002,-13.049721,3.855153,0.042900192999999996,1.5306537,3.3029134
4.206162,-13.391038,3.1835797,0.118507855,1.4491992,3.2848144
7.1255465,-14.072398999999999,2.0706685,0.056740652999999995,1.1585495000000001,3.1985776
8.757722,-14.468017999999999,1.1824195,0.06633996,0.5155004,3.03888
9.196397,-14.281049,0.78863084,0.32131509999999996,-0.20683897,2.8765294999999997
8.920978,-13.679865,0.95793927,0.76262164,-0.50440013,2.78017
8.61678,-12.965167,1.8413327000000002,1.135232,-0.19193386,2.5864034
8.127932000000001,-12.289753,2.8509197,1.1581306,0.69490284,2.4064775000000003
7.8174615,-11.799363,3.4217834000000003,0.93561864,1.6413773999999997,2.2185752
7.8208227,-11.339869,3.4413872000000003,0.574702,2.2631335,1.8666995
8.398103,-10.966391999999999,2.9070110000000002,0.25691247,2.4340012000000004,1.5169704
9.128296,-10.650319,1.9260874,-0.06511823,1.9735485000000001,0.9654812
9.696363,-10.468349,1.1816822,-0.21312216,1.3443398000000002,0.3117856
10.293037,-10.331267,1.065123,-0.23387411,0.6469936,-0.32431707
10.887872,-10.259499,1.7620271,-0.15348426,0.22593287,-0.69907415
11.7701645,-9.786549,2.5821560000000003,-0.26794294,0.18280579,-1.1084411
12.832336999999999,-8.882498,2.1534216,-0.51014227,0.39947096,-1.7051691999999998
13.604485999999998,-8.218059,0.42689574,-0.72254884,0.5831145000000001,-2.4344552000000004
14.87846,-7.594369400000001,-1.3046676000000001,-0.6528055,0.42502257,-3.0072372000000005
15.862687,-6.827344,-3.3469982000000003,-0.34831536,-0.117931895,-3.3644364
15.604410999999999,-5.5115576,-4.5485144,-0.039566614,-0.8892627000000001,-3.5842779
15.574501999999999,-4.6439466,-4.9411535,0.023753932000000002,-1.639859,-3.7881671999999997
15.537478,-3.9474065,-4.3102236,-0.12634438,-2.0359092,-3.9430652000000004
15.274144,-5.1598496,-3.268248,-0.27324873,-2.141833,-4.070282499999999
14.519531,-5.534982,-2.4720516,-0.33236304,-2.0076869999999998,-4.149083999999999
14.068626,-5.014914,-2.1285987,-0.34566244,-1.7367423,-4.191669999999999
13.681465,-3.9161286,-1.4422863000000001,-0.30361748,-1.3774138999999999,-4.247573
13.1287775,-4.439453,-0.5737081999999999,-0.23547982,-0.9946806,-4.2401204
12.761937,-7.154660000000001,0.41733807,0.08176868,-1.0505835,-4.127791
12.758422999999999,-10.095946000000001,0.9421567,0.76955056,-1.6590227,-3.8004022000000006
13.1472225,-12.714169,1.0067905000000001,1.429093,-2.3403993,-3.3947701
13.773268,-14.897854,1.0819589,1.8437833,-2.8455675,-2.8938606
14.03144,-16.45825,1.8202254,1.7772514,-2.9669375,-2.4674592
13.757476,-17.216043,3.0687826,1.3471149,-2.8370502,-2.0490515
12.931878,-17.325163,3.9168086000000004,0.83342963,-2.5485299,-1.7275269
11.941474000000001,-16.864403,4.2293,0.45600218,-2.2094471,-1.5353662000000001
10.866707,-16.313238000000002,4.3098598,0.18877481,-1.7841103999999999,-1.3804507
8.955425,-15.752555,4.005729,-0.15774286,-1.1277443999999999,-1.1941369
6.829958400000001,-14.921038000000001,4.497307,-0.61660737,-0.47085494,-0.89442885
4.9078550000000005,-14.218349,4.6443205,-0.8295549999999999,0.015655603,-0.43717006
3.4290235,-13.14274,4.0135055,-0.5804092,0.42130503,0.17444566
2.5340328,-11.943159,2.4865603,-0.148161,0.6789331000000001,0.8739213
2.0059006,-10.772078500000001,0.7814674,0.11264355,0.81840235,1.6335583999999999
1.9171043999999997,-10.11171,-0.24670811,0.33943164,1.0292032,2.3878548
2.3324027000000003,-9.98115,-0.15501020000000001,0.66149724,1.3044242,3.0202749
2.7205696,-10.655989,0.52187854,0.97343993,1.561005,3.3338058
2.4990485000000002,-11.375312,0.9850895000000001,0.9979094000000001,1.8213209,3.1602676
1.3349684,-11.662875,0.80415493,0.5140344,2.070449,2.7573060000000003
-0.47779647,-11.602685000000001,0.9669989,-0.18222983,2.3025432,2.4192708
-1.8494443,-11.951184,2.6391478,-0.88118184,2.4808632999999998,2.2425387000000003
-1.8989947,-13.544410999999998,4.0207744,-1.1973832,2.555389,2.2670257
-1.7633104,-14.520766,3.9905595999999997,-1.1707493999999998,2.5357015,2.5065720000000002
-1.6387258000000002,-14.3846035,3.3233147000000005,-0.8540245000000001,2.4505296000000003,2.939885
-1.1272285,-12.823478999999999,3.4505043,-0.46540950000000003,2.2823147999999995,3.4397472999999996
0.8118738,-11.910637,3.4220803,-0.24237387,2.0331864,3.6697117999999995
4.314342,-12.187004,2.6757312,-0.17051867,1.7776701000000001,3.656395
7.630234700000001,-12.655712,0.9932201999999999,-0.30092967,1.5130957,3.5600529
8.532992,-12.703241,-0.60543615,-0.5170538,1.2858015,3.3423230000000004
7.858325,-12.607407,-0.8895896000000001,-0.7172255999999999,1.2921719999999999,3.02771
6.900807400000001,-12.785603,0.21675186,-1.0669547,1.6376598999999998,2.7019439999999997
5.972508400000001,-12.998389,1.9865457999999998,-1.4092312,2.1886252999999996,2.605602
4.915458999999999,-12.927349000000001,3.5220814,-1.496009,2.7640605,2.7876399
4.5200895999999995,-12.8576,4.198242,-1.2958546,3.0243764,2.9569194
5.4023056,-12.568610000000001,3.7024797999999994,-1.0467263,2.9801846000000003,3.0303802
7.383306,-11.800589,2.6955454,-1.0397973,2.7821596,2.7903101
8.79734,-11.189072999999999,1.7291596000000002,-1.2713676999999999,2.2828383,2.2457325
9.573694,-10.801192,0.9489179,-1.2969018,1.4838265,1.5665028
10.814944,-10.703643,1.1233307,-0.80717987,0.43353978,0.6785666
12.102527,-10.84287,1.3723181,-0.04914847,-0.39207077,-0.33016393
12.444917,-10.952084,1.3160448,0.50977576,-0.7301061,-1.3612870000000001
11.836186,-10.931695,1.7279146,0.71418875,-0.6843262,-2.0788617
12.019898,-10.676751,2.2204113,0.80203116,-0.5224992,-2.5483727000000003
13.350662,-10.397826,2.0433745,0.9761103000000001,-0.59913665,-2.9231124
14.867599499999999,-9.68763,1.0782527,1.2502491000000002,-1.0255379999999998,-3.2850935
16.059347,-7.833416000000001,-0.35911109999999996,1.4567914,-1.6861626,-3.6071591
16.403702,-5.932123000000001,-0.621257,1.5094829,-2.339317,-3.8578932
16.791216,-4.2708535,1.006848,1.4056882,-2.7960525,-4.0426016
18.092226,-3.9642042999999996,3.5044887000000005,1.2459905,-2.9158168,-4.1410728
17.940088,-3.6494913,4.686305,1.1363316,-2.7428197999999995,-4.164495
16.715466,-4.5326260000000005,4.2055206,1.1011981000000002,-2.3834915,-4.1586485
14.165285,-5.4273586,3.2209482000000005,1.1033274,-1.8756529999999998,-4.155978
12.142452,-5.920746299999999,2.8594334,1.0958748,-1.2948947,-4.144808
11.681319,-7.250820599999999,2.9835777,1.0703231000000002,-0.80621994,-4.109151
12.13026,-9.450766999999999,2.9724493,1.0069852,-0.40217623,-4.036213399999999
12.578713,-11.717836,2.7873392000000003,0.8813389000000001,-0.09983283,-3.8664105
12.565958,-13.588234,2.9321692,0.6332753000000001,0.42608723,-3.7657921
12.361761999999999,-14.740219,3.3420756000000003,0.1595231,1.1947826000000001,-3.8706515
11.76706,-15.158447,4.1530876,-0.44146359999999996,1.9767598999999998,-3.9744637000000003
10.997641,-14.955917000000001,4.826126599999999,-0.56335735,2.3078662999999997,-3.7338525999999996
10.2812195,-14.427249,5.2408023,-0.12152728,1.7420131,-2.940688
9.840361,-13.956539000000001,5.206029,0.38042942,0.6337116,-2.1688159
9.362938,-13.639949,4.7106876,0.3298672,-0.20043361,-1.5880402
8.764942,-13.289093,3.9525205999999997,-0.09969321,-0.33456215,-1.1265053
7.927987,-12.952344,3.0236087000000005,-0.25195572,-0.13974851,-0.6516885
7.660506699999999,-12.91305,2.3264169999999997,-0.023055799999999998,-0.12590805,-0.15289085
7.8778429999999995,-12.711113000000001,1.3755455,0.23724261,-0.26270697,0.41667992
7.326257000000001,-12.459675,-0.049196057,0.18933332,-0.4420919,1.1470303999999998
5.5344653,-12.697706,-0.4442202,-0.11993903,-0.28134707,1.9577533
2.736611,-13.219373999999998,0.4076368,-0.35414475,0.0061086523,2.6508583999999997
-0.13600023,-12.773075,0.72533774,-0.4739267,0.28396508,3.1565502
-0.5335430999999999,-12.061433000000001,-0.24481190000000003,-0.57185715,0.541087,3.4578637999999997
0.5424111999999999,-12.427267,-1.8919748,-0.8055566999999999,0.7944739000000001,3.6101089
1.1202086000000002,-12.7755375,-1.4657878,-1.2048181999999998,0.9680120000000001,3.6170204
0.92924714,-13.056214,0.29415159999999996,-1.6381136,1.0718067,3.5323718
0.90690446,-13.975319,1.0680821000000003,-1.9777373,1.0734124,3.4264479
0.6837074000000001,-14.562014000000001,0.28772559999999997,-2.1379759999999997,0.94724256,3.4365532
0.39585729999999997,-14.785009,-0.9699773000000002,-2.1470168,0.75614643,3.5739107000000003
0.69765127,-13.745935000000001,-0.73518276,-1.9921188000000003,0.5251172,3.823039
1.5141793,-12.471406,0.06296751,-1.6535598000000002,0.28078857,4.090266000000001
3.5616623999999995,-12.534412,0.67834437,-1.3203241000000001,0.006632251,4.2792330000000005
5.813341599999999,-13.256341,0.69889617,-1.1089822,-0.20467477,4.3431120000000005
7.6358757,-13.784070000000002,0.34476504,-0.96153677,-0.29197612,4.166921
8.837928,-13.871689000000002,0.14076948,-1.3176538,-0.07586946,3.6308608
9.309863,-13.42406,0.5620245,-2.499416,0.586867,3.1688023
8.790042999999999,-12.872580000000001,1.2973508999999999,-3.4485612,1.3624738,3.0011284
8.053357,-12.585227,2.209647,-3.6838315,1.9874238999999998,2.8408900000000004
7.448199000000001,-12.495855,2.843536,-3.197827,2.204595,2.4906197
7.478250500000001,-12.651297,3.5617197,-2.2556112,2.0076523,2.0647595
8.219130999999999,-12.605587,3.9308864999999997,-1.3059427,1.5125896,1.6979959
9.374975,-12.091821000000001,3.5062509,-0.34136894,0.8301484,1.1880282
11.206913,-11.809092999999999,3.0328405,0.4336794,0.18442895,0.45926595
13.995257,-11.026515,2.5025058,0.9521818000000001,-0.34095007,-0.40893063
15.356419,-9.990056,0.39421007,1.2491845,-0.5778436,-1.0136697000000001
14.503518,-9.736299,-0.47576618,1.3567316999999999,-0.6363994000000001,-1.530549
13.897221,-9.575897,1.9148825,1.5398517,-0.5932723000000001,-1.9356400000000002
14.044818,-8.450421,4.9341717,1.9215376,-0.6928259,-2.3162439999999997
14.898342000000001,-7.273173,6.8037276,2.3809259999999997,-1.1059104,-2.6942124
15.188652,-6.1947575,7.3007445,2.7546182,-1.7952631999999997,-3.0556526
15.306993499999999,-4.862480000000001,6.9693394,2.9265506,-2.5506415000000002,-3.3734596
15.849547,-3.6140857000000004,6.3846273,2.7588767999999995,-3.1750505,-3.6183292999999996
16.120993,-2.8555452999999997,5.333008,2.380402,-3.3597763,-3.7961261
16.050058,-3.7036672,4.5464163,1.852859,-3.0914843,-3.9957392
15.089179000000001,-4.907405000000001,3.8390832,1.3993176999999999,-2.5170963,-4.2533845999999995
13.875835,-5.52508,3.5056187999999993,1.1869286000000001,-1.8266790000000002,-4.5695863
12.448575,-5.5582733,3.9636967000000003,1.2332321000000002,-1.1671191,-4.920921
11.660845,-5.973026,4.251106299999999,1.4200697,-0.65236914,-5.1642019999999995
11.788388000000001,-7.754264,3.9172203999999997,1.5292051000000002,-0.14772467,-5.255221400000001
12.451315,-10.043225,3.4574091,1.4781194,0.21638592,-5.198253599999999
13.152921,-12.422938,2.8277438,1.3822833,0.43249258,-5.001293
14.045709,-14.717149,2.6179349999999997,1.2848765,0.4016177,-4.5855559999999995
14.732470499999998,-15.954644,2.9772662999999997,1.2859411,0.011955505,-3.9504828
14.778766000000001,-15.948457000000001,3.5059826000000003,1.3263979,-0.65608674,-3.1280490000000003
14.534423,-15.698732000000001,4.440871,1.3956002,-1.106434,-2.4514546000000004
14.215860000000001,-15.433254000000002,5.413596599999999,1.3945355,-1.2954183000000001,-1.8286513
13.605875,-15.488435999999998,5.8558345,1.2460254,-1.2512265,-1.2478755
12.478015,-15.791397,5.503082,1.0006148000000001,-1.0052922,-0.64793605
11.151924000000001,-15.941236499999999,4.2299223,0.7514864,-0.61723566,-0.2944894
9.463417,-15.659592000000002,3.0338461,0.48052403,-0.27228883,0.0062657319999999996
7.3218136,-15.000804,1.9399354,0.18402752,-0.07958701,0.35866517
4.7514944,-14.251782,1.1790581,-0.38287288,0.12376129599999999,0.8574628000000001
2.459343,-13.543759,0.73947316,-0.9002931999999999,0.3143338,1.5207403
1.2762626,-12.805206,0.6148693000000001,-0.98972386,0.47242573,2.3522327
1.2078556,-12.36427,0.7461003,-0.58461547,0.46818456,3.2007594
1.1572806,-11.850954,0.5122346999999999,0.10259046,0.3707603,3.8251858
0.8538681,-11.776849,-0.008887276999999999,0.54068553,0.39151224,3.9917947999999996
0.7724652,-10.971036999999999,-0.060927648,0.5843537,0.59007835,3.8294443999999994
0.7571135999999999,-10.338508000000001,-0.38573462,0.1669931,0.80939645,3.6037209999999997
0.35765544,-10.43393,-0.6575244,-0.47177994,0.96429443,3.4206185
0.47619715,-11.942288000000001,-1.4990096000000002,-1.0551912,0.9786759,3.293925
0.612341,-13.422077,-2.0377433000000003,-1.3937676,0.8892453000000001,3.3029659
0.019919759,-13.70532,-0.67072123,-1.456582,0.82482517,3.4360470000000003
-0.12119449,-13.041974,1.7682521,-1.2873025,0.926508,3.6324666
0.90480715,-12.366798,3.6715562000000004,-1.0168812,1.1612548,3.8714892999999995
4.0345364,-12.343786,3.9332235,-0.78424627,1.3294871000000001,4.0503507
7.586535499999999,-12.657722,2.779534,-0.6612878000000001,1.2996769,4.0732493
9.867099000000001,-12.606765,1.102118,-0.5319415,1.0846,4.0183935
10.173634,-12.47605,-0.2934717,-0.32058206,0.80087924,3.9374976000000004
9.944653,-12.433339,-0.46181276,-0.084247045,0.6512871,3.7666125
9.459682,-12.603308,0.40683234,0.13185963,0.7849095,3.5803160000000003
8.828014999999999,-12.88498,1.9689339,0.24525367,1.2176988000000002,3.4131657999999994
8.494024000000001,-12.995918,3.5774448,0.21596704,1.7718407999999999,3.189048
8.477926,-12.814687,4.815525,-0.0054628807,2.271162,2.9164974999999997
8.677402,-12.475849,5.127413,-0.24712117,2.3824267000000003,2.6173306
9.54368,-12.182742,4.5598817,-0.6224193,1.9475082,2.0174086
10.543882,-11.9906025,3.6816885000000004,-1.1270639,1.3071294,1.0858392
11.320235,-11.775881,3.4173303,-1.3522462,0.75722855,-0.011274827
12.299569,-11.643951,3.2273742999999997,-1.2606863000000001,0.46603779999999995,-0.7831467
13.397579,-11.144597000000001,3.1348432999999996,-0.9572607,0.49638909999999997,-1.3969091
13.877358,-10.281239,2.7246973999999997,-0.44781658,0.58314943,-1.9196526999999999
14.323626999999998,-9.051596,1.9791332,0.23355997,0.33297393,-2.422168
15.277832,-8.428136,0.7317541999999999,0.9745395,-0.3105988,-2.8416405
15.985146499999999,-8.01595,-0.6684707,1.5728732,-1.3289286,-3.1088676
16.164837,-6.652183999999999,-1.8707238000000002,1.8012496,-2.3334353,-3.276018
16.540561999999998,-4.803219,-3.245915,1.6628450000000001,-3.1159537,-3.506506
17.31229,-3.2833126000000004,-2.8438232000000006,1.2694478,-3.3927629999999995,-3.8296362999999998
17.548656,-4.079001399999999,-0.27307305,0.8819323,-3.0238528,-4.0995164
16.616335,-5.2246747000000004,1.5993363,0.66792005,-2.2296407000000005,-4.3076644
15.0820055,-4.984516999999999,3.3203747000000003,0.5374916000000001,-1.3470451,-4.505689599999999
13.428637,-4.30352,4.175986,0.32510248,-0.5155528,-4.751624
12.453095,-5.0788007,4.0075107,-0.022479841,0.21266837,-4.814962
12.262699000000001,-6.9751425000000005,3.324282,-0.24179791,0.6193649999999999,-4.4364870000000005
12.030835,-9.090191,2.1525597999999997,-0.08157669,0.45327947,-3.8035436000000002
12.695015,-11.098016000000001,1.4795017,0.55293775,-0.35531414,-3.3457440000000003
13.965503,-12.745743,1.4661516,1.22845,-1.4811912,-2.81663
14.821947,-13.982052,2.7062047000000002,1.6686918999999998,-2.2897847000000002,-2.3146381000000003
14.538206,-14.458613,4.472283,1.7496227,-2.5266607000000003,-1.945728
13.638847,-14.218273000000002,5.562286,1.4930245,-2.2290995,-1.7535671999999998
12.914189,-14.085595999999999,5.327443,0.96017545,-1.6882396000000002,-1.6635953999999997
12.075808,-14.326338,3.748362,0.30487412,-1.0515958,-1.5161501
10.1188545,-14.734827,2.278466,-0.2151991,-0.5490805999999999,-1.2084659
7.1712375,-15.3010845,1.7108869999999998,-0.20240583,-0.26694809999999997,-0.8321031999999999
4.981357,-14.68883,2.4201164,0.33946654,-0.33349752,-0.29712486
3.535738,-13.765721,3.1170974,1.0879334999999999,-0.61987114,0.5194449000000001
2.2592453999999997,-13.064822999999999,2.9068482,1.6820087,-0.45059165,1.5963479
2.1868925,-12.153868,2.40193,1.9439129000000002,0.0673348,2.7647934
2.9334333,-11.718917999999999,1.7136164,1.8912213,0.6342701,3.6404777000000004
3.221542,-11.573868,0.6123123,1.7852799,1.0957875,3.8773537000000005
2.9019258,-11.76775,-0.13515747,1.6266469,1.3486508,3.7235203
1.5053016000000001,-12.342512,-0.5559719,1.19014,1.5147363,3.3365110000000002
-0.19657353,-12.481472,0.5671289,0.3879169,1.5030252,2.8904223
-1.4681723,-12.9633,2.4519117,-0.19442968,1.4279586000000002,2.5635746
-2.9777355,-14.458172,3.5309782,-0.41374776,1.3944308,2.4187819999999998
-4.486877400000001,-16.20164,4.364734599999999,-0.37754962,1.2693256000000002,2.47095
-4.6778874,-17.058018,4.330871599999999,-0.05974262,1.088876,2.7376537
-3.4535306000000006,-16.654573000000003,3.7149966,0.37035885,1.0063568,3.0298915
-0.40653545,-15.016260999999998,2.8613584,0.78824306,1.1197508999999999,3.2582679
3.5900671,-13.938151000000001,2.3640635,0.9920975000000001,1.4284822,3.31733
6.730656,-13.678486,1.500293,0.82761765,1.784093,3.2114057999999996
8.055511,-13.501775,0.23229502,0.44169047,2.083801,3.0671717999999997
8.067521000000001,-13.197969,0.11536221,0.10206685,2.3153539,2.8552887000000005
7.410945,-12.821477,2.0953383000000003,-0.21944025,2.5719347000000004,2.5640981
6.510936,-12.658317,4.0934625,-0.531924,2.8455498,2.2468320999999998
5.8909907,-12.697017,5.324312,-0.6900159,3.0968075,1.9524648999999998
5.8396115,-12.849145,6.3654547,-0.7187614999999999,3.1133007999999998,1.6506276999999998
6.8228425999999995,-12.983555,6.4927397000000004,-0.7443131,2.7907116000000003,1.5729082
8.073143,-12.332772,5.9075685,-0.7171732,2.2562568,1.4467558
9.150744,-11.066872,4.3054166,-0.5787686,1.5205832000000001,1.1055264
9.945035,-10.0120535,2.4446907,-0.46856853,0.89085096,0.73663366
10.625907000000002,-9.424717999999999,1.4548798,-0.18430677,0.5134234999999999,0.35175365
11.626636,-9.129417,1.2667912000000001,0.11803662,0.11472049,-0.022444934
12.647839999999999,-9.197451,0.91189396,0.26389378,-0.15303047,-0.51270795
13.367632999999998,-9.069417999999999,0.8842745000000001,0.13824753,-0.4255811,-1.1307465
13.848004999999999,-8.514644,0.8335461,0.02432989,-0.8211075999999999,-1.8174637999999999
14.227141,-7.899084599999999,0.04354574,-0.005986479,-1.3832258,-2.4945642999999995
13.073174,-8.020154,-1.0217303,-0.12629202,-1.9794302,-3.0210428
14.0251,-6.9027133,-0.9517526,-0.37542033,-2.5298548,-3.4319806000000006
14.642689,-6.1807942,-1.0501735,-0.6884276999999999,-2.8359506000000003,-3.7700160000000005
14.127379000000001,-5.557746400000001,-0.20584388,-0.7405956,-2.8327565,-3.9643059000000003
14.529491,-5.413433599999999,0.6187096,-0.38713148,-2.9461508,-4.1000752
14.562492,-5.2216773000000005,0.49399084,0.533774,-3.2277422000000002,-4.37102
14.885087,-4.542021,-0.22886653,1.4467033999999999,-3.5018985000000002,-4.477485
14.748043,-4.460656,-0.76458347,1.927402,-3.5295794000000003,-4.318852
14.222315,-4.9946779999999995,-0.11347558,1.9311196,-3.3097203,-4.161283999999999
13.992223000000001,-6.7027399999999995,0.41858307,1.6250411,-2.9312456,-4.0138383
14.461351,-9.710489,0.7777708000000001,1.1608534,-2.4851394,-3.8269835
14.902632,-12.480830000000001,1.7511287,0.653556,-2.0635376,-3.6188354
15.307920999999999,-14.560835999999998,3.1617444,0.2793225,-1.7521360000000001,-3.4101638999999997
14.491692,-16.338856,6.0039783,0.08395033,-1.6110785,-3.1413484
14.186728,-17.13851,8.769463,0.081297435,-1.5913738000000002,-2.6856777999999997
13.150267999999999,-17.0645,10.458821,0.0371057,-1.5892445,-2.0458226
10.793464,-16.948496,9.750702,-0.023020892999999997,-1.5770097,-1.4134200000000001
9.165972,-16.278072,7.9191956999999995,0.05255186,-1.6142725,-0.89760536
8.746929,-15.399035999999999,6.014867,0.3767293,-1.8511486000000001,-0.49729666
8.241599,-14.641070000000001,4.494032,0.8962789000000001,-2.0065875,-0.08101819
7.421661,-13.998868,3.5445676,1.41157,-1.7159379000000001,0.4763178
6.4611363,-13.483436,3.2147424,1.7304416,-1.0510547,1.0177015
5.166658999999999,-13.254655,3.2654805000000002,1.7479995,-0.28665286,1.4052168999999999
3.563099,-13.169163000000001,3.6887083,1.3051049,0.3398854,1.673509
1.5565759,-12.937394,3.79503,0.93567103,0.8349306000000001,1.9960982
0.10712616,-12.494811,3.3450828,1.049065,1.1207981000000002,2.3831074
-0.3194152,-11.722031,3.6069797999999995,1.4642788999999998,1.1724423000000002,2.6418176
-0.5824231,-11.200851,4.303204,1.5552979,1.1607312,2.5140595
-1.0800053,-10.804995,5.5633583,1.0368128,1.3097823999999998,2.168589
-2.2080286,-10.530303,6.5033317,0.1622109,1.8011099,1.8252304
-2.5054457,-10.675813,6.5842366,-0.62402505,2.5303957,1.5452273
-1.2510375,-11.55706,5.3382845,-1.3804681,3.2330653999999996,1.4531261999999998
0.094829544,-11.878525999999999,3.4273667000000003,-1.7094278000000003,3.7095053,1.7357998
0.6664883,-12.009431,1.9362580000000003,-1.3533108,3.8005242,2.3341336
0.7421259,-11.328165,2.8808472000000003,-0.36850882,3.3996918,3.0320034
1.6795613,-11.457011999999999,4.052464,0.61840504,2.5921453999999997,3.4690513999999997
3.9745185,-11.487093,3.7658398,0.92130697,1.8921463,3.4972732000000004
6.029471400000001,-10.828314,1.7230016,0.79780746,1.3992129999999998,3.4067605000000003
7.0962796,-10.500786999999999,0.23077229999999999,0.74190456,1.2182224,3.5116373999999997
7.4533124000000015,-10.622681,0.8823208,1.1342371999999998,1.1639252,3.7346904000000003
7.6367183,-11.185107,2.083348,1.8778869999999999,1.1921297,3.7368197
6.805011,-12.26673,3.0924563,2.3921134,1.5163246000000001,3.4509523
5.4521623,-13.014335,4.905614,2.0290499,2.4042258,2.980359
4.871099,-13.180425,6.730876400000001,0.93352425,3.4630299,2.3053706000000003
5.760717400000001,-12.615977,6.9745965,-0.32379347,4.164634700000001,1.4999883
7.913612400000001,-11.865625,4.4355080000000005,-1.3410761,4.307298,0.6738018
9.650472,-11.176622,1.6241211000000002,-1.8276216,3.84044,0.041922808
9.966611,-10.660557,0.51516515,-1.7227621,2.8178514999999997,-0.4557753
9.892372,-10.80396,1.244142,-1.1941543,1.4700036,-1.0232341
10.503057,-10.486556,2.5354403999999997,-0.73368406,0.35850808,-1.5502363000000001
12.897018,-9.992372999999999,2.7531214,-0.34508649999999996,-0.21425661,-1.9617151999999998
14.816747,-9.486048,0.55729353,0.06372197,-0.33349752,-2.22149
16.045135000000002,-8.536364,-3.0102298,0.25322983,-0.5506863000000001,-2.628204
17.559305,-8.494676,-5.488659999999999,0.11004301,-0.9909107,-3.170635
17.673164,-8.412075,-5.924107599999999,-0.37117916,-1.5503935,-3.7481991999999997
16.193432,-7.919952,-4.8153625,-0.9386380999999999,-2.0561025,-4.278395
14.030644,-7.9595910000000005,-2.7612229999999998,-1.3251064,-2.1827959999999997,-4.625489
13.092213000000001,-7.7864995,-0.057958834,-1.3618281,-1.9698658,-4.778258
13.450453,-8.706362,1.7164127,-1.1281458999999998,-1.5599753,-4.853324400000001
12.821276,-8.671674000000001,2.360319,-0.67725754,-0.8573056999999998,-4.917726999999999
11.545453,-8.320089999999999,3.1789443,-0.11138691,0.044436082,-4.84746
10.358657000000001,-7.383852,3.201565,0.49811697,0.98293453,-4.607896299999999
10.955244,-7.931932400000001,1.9793345000000002,0.99103284,1.8410431,-4.1921587
11.670325,-9.624978,0.89225197,1.4216928,2.2046127,-3.5916955
12.638684,-12.285414999999999,0.6695911999999999,1.9098264999999999,1.7042267,-2.9981616
13.187446,-15.161359,2.1570897,2.4016952999999996,0.5597270999999999,-2.505228
12.853444,-17.283522,4.4387636,2.6801102,-0.6667331999999999,-2.18688
12.089157,-17.803917000000002,6.3454294,2.5943970000000003,-1.4465986000000002,-2.003254
11.470889,-17.351765,7.3291683,2.1168923,-1.5759450000000002,-1.7541083
10.499848,-16.360126,7.8331003,1.4812958,-1.4918376,-1.3537996
8.710767,-15.31001,7.745271000000001,0.8973261,-1.3992129999999998,-0.8667305000000001
6.9277663,-14.215821,6.6907883,0.55398494,-1.3177584,-0.35676274
5.2824802,-13.21425,4.7581882,0.54120916,-1.1373090000000001,0.009459685
3.6201095999999997,-12.273684,3.303414,0.5390973000000001,-0.76361644,0.32726669999999997
2.3138428,-11.074016,2.1951093999999998,0.23087215,-0.36011377,0.63334507
1.7669495,-10.130768,1.0311347,-0.3866079,-0.04923574,1.0112961999999999
1.4891073000000001,-9.342127,0.03065536,-0.9317091000000001,0.19294615,1.5106173999999999
1.301421,-9.092133500000001,-1.0576626,-0.9785538,0.34412658,2.1520607000000003
0.41368935,-9.174935000000001,-2.1793457999999997,-0.55162877,0.30368727,2.7312484
-0.12774503,-9.243084,-2.3186505,0.11163126,0.11098549,3.0660722000000002
0.11901098,-9.966928,-1.8066359,0.6966482,-0.12908456,3.0160336
0.86734265,-10.572392,-0.23151929999999998,0.7253937,-0.15091862,2.8217435
1.6660389,-10.756822999999999,1.136288,0.12173671,0.22809708,2.6359532000000003
2.0074806,-10.904678,0.83070177,-0.71825534,0.8413185,2.395342
2.4917702999999998,-12.023011,-0.58119726,-1.371951,1.3773790000000001,2.1345026000000002
2.8970892000000004,-13.289869,-1.1959803,-1.7467080000000001,1.7175436000000002,1.9205078999999998
3.0535553,-14.113714000000002,0.026824636000000002,-1.8648668999999998,1.819209,1.808196
2.7171412,-13.076441,2.5260456000000002,-1.5965923,1.7601296999999998,1.8805922
3.1390474,-11.617241,4.0104120000000005,-1.1802963,1.6744165000000002,2.0445485
5.2326136,-10.720948,4.241855,-0.93916166,1.6100138000000002,2.1504726
7.828512700000001,-10.379918,2.9851098,-1.118023,1.643018,2.1840177000000005
8.993186999999999,-10.4064455,0.47351563,-1.6056331,1.7420306,2.1345202999999997
9.179082000000001,-9.576825999999999,-0.96282345,-1.9607028999999998,1.8218619999999999,2.0179322
9.003022,-8.497501,-0.69230735,-2.0943080000000003,1.8708359,1.8640815
8.554971,-7.907052,0.6632321999999999,-2.050116,1.8644654999999999,1.6996016999999999
7.795070599999999,-7.571414,1.8748897,-1.8707311000000002,1.8016336,1.5707613999999999
6.8433657000000006,-7.3363895,2.9590417999999996,-1.5902044,1.6137313999999998,1.5313867
6.479044999999999,-7.594378999999999,4.1194634,-1.2218351,1.2304571000000002,1.4957122999999999
6.9027899999999995,-7.5100265,3.9465542,-0.9189333000000001,0.79075634,1.3855296
7.663064,-7.1287164999999995,2.4566426,-0.6815161999999999,0.46603779999999995,1.1545003999999999
8.231045,-6.8615330000000005,0.7921838999999999,-0.5154306,0.34253833,0.89153165
8.867185000000001,-6.539369000000001,0.43769836,-0.33124605,0.30792844,0.49174652
9.370887,-6.35356,1.4080013,-0.112992615,0.27759463,0.043528512000000005
10.003300999999999,-6.5791699999999995,2.5779326,0.031782445,0.31859240000000005,-0.3626096
10.430397,-6.840052,3.2059797999999997,0.3229732,0.37447783,-0.6351602
10.50141,-6.954772999999999,3.5879123,0.81910044,0.09927433,-0.90716976
10.772864,-7.1197433000000006,3.7413232000000005,1.3067106000000002,-0.61243606,-1.261716
11.654533,-7.4792085,3.4957547,1.5664854,-1.4865143,-1.5550184999999999
12.383108,-7.376258,3.163564,1.4685374,-2.1535094,-1.8477974999999998
12.645147999999999,-6.763438000000001,3.1089284,1.2268443000000002,-2.4340537,-2.1517642
12.460460000000001,-5.779153,3.3019586000000003,1.1374309999999999,-2.4148897999999996,-2.4589071
13.131019,-5.559432,3.6376733999999997,1.2348378999999998,-2.1354102999999998,-2.8171709
13.905198,-6.719336500000001,3.8022127,1.4669318,-1.7878106,-3.2254732
13.422574,-6.7603539999999995,3.6835462999999997,1.7613164000000001,-1.4865143,-3.5810492
11.811967,-6.021293,4.2457433,1.990199,-1.1394382,-3.8450824999999997
11.226191499999999,-5.772746,4.00277,1.9987161,-0.60124844,-4.009039
11.400902,-7.1087294000000005,3.143204,1.7581226000000003,-0.013561208,-3.9664525999999998
11.434525500000001,-8.800588000000001,2.0459793,1.5707265,0.33773866,-3.7050896
11.721408,-10.042508,1.7476618000000002,1.5371988,0.19935150000000001,-3.2584598
11.960886,-10.851297,2.7953072,1.6181296,-0.38564795,-2.7740438
12.060839,-11.105247,4.411814700000001,1.6356877,-0.8567646999999999,-2.4195151000000004
11.814945,-10.601898,5.6435356,1.5159056999999998,-0.9733351999999998,-2.1208717999999998
11.066211000000001,-10.241486,5.836853,1.2944584,-0.8817927,-1.6854296000000002
10.088313000000001,-9.984128,5.546887,0.9404880999999999,-0.79075634,-1.0769728
9.158712,-10.227752,4.715504599999999,0.48692942,-0.59698987,-0.61280257
8.059821000000001,-10.509406,3.1295952999999996,-0.07253588,-0.26535985,-0.30033624
6.543219000000001,-10.800493,1.9734447,-0.5883505,0.08862782,-0.0043458696
4.9725842,-10.831541,1.266456,-0.92212725,0.33135074,0.44544294
3.737301,-10.713189999999999,0.9986980999999999,-1.0200751000000001,0.31859240000000005,0.88940233
3.161706,-10.254873,0.7568646,-1.1398396000000002,0.2451315,1.268959
3.0987673,-9.693069,0.6676375,-1.3852503,0.18764035,1.6218821
2.733125,-9.614214,0.3461728,-1.5087498,0.18125243,2.1318498
1.9702269000000001,-9.902543,-0.043047745,-1.3320003999999999,0.19031070000000003,2.5811324
1.6567876,-10.678886,-1.0873027,-0.93807954,0.18870499999999998,2.9021334999999997
2.1348808,-11.270839,-2.012135,-0.5468291000000001,0.18125243,2.9888937
2.278763,-11.312814,-2.282852,-0.38074356,0.23820254,2.9021334999999997
1.4573698,-11.298266,-2.102425,-0.5484348000000001,0.45219734,2.7839397999999997
0.8204546,-11.571991,-1.1697686999999999,-0.9263684000000001,0.75935787,2.65407
1.6431407,-12.913165,-0.77697587,-1.3219124,1.014333,2.545999
2.569256,-13.496804000000001,-0.69888663,-1.6301026,1.1873475,2.513536
2.83235,-13.984167999999999,-0.51107585,-1.7903413000000001,1.2645434,2.5614452
2.6756735000000003,-13.492217000000002,1.0502023,-1.7770244,1.2751899,2.678033
3.3080684999999996,-12.597074000000001,2.7472507999999998,-1.6849408,1.240039,2.8483598
4.977105,-12.187635,3.500208,-1.6066978,1.1617959,2.9835706
6.837955,-12.006193,3.1668583999999997,-1.5688939,1.0143504,3.022439
7.940225999999999,-11.860301,2.0565328999999997,-1.5513358999999998,0.7982089,3.0144452999999998
8.13612,-11.6632,1.0617039,-1.4049376,0.62734115,2.9670772999999997
7.821761,-10.931092,0.8063288000000001,-1.2750329,0.61777675,2.873929
7.0500240000000005,-10.330444,1.1430206,-1.29102,0.82590723,2.8579416
6.2369533,-9.918660000000001,1.8509765,-1.3538344,1.261873,2.8015152999999997
5.7129389999999995,-9.701603,2.7391197999999997,-1.3224360000000002,1.8287909,2.6098779999999997
5.4736910000000005,-9.56789,3.4923644,-1.2047833000000001,2.25041,2.2569551
5.606138,-9.629106,3.6965324999999996,-1.0110168,2.277009,1.8310947
6.238916000000001,-9.669692,3.547594,-0.6932099,1.8330668999999997,1.3221916
6.925736,-9.678991,3.2774897000000003,-0.3040887,1.0622598,0.7611206
7.5642595,-9.778619,3.3146765,0.1600816,0.17167059,0.09358455
8.595941,-9.609061,3.7787205999999998,0.63863343,-0.39790016,-0.42542399999999997
9.516003999999999,-9.554033,3.4353730000000002,0.93940604,-0.57995546,-0.89226466
10.423694,-9.652493,3.138808,1.1624591,-0.50063026,-1.2350823
11.699458,-9.191475,3.3793485,1.4445915,-0.57834977,-1.5656476000000001
13.099396,-8.602482,3.6949620000000003,1.7112778000000002,-0.92703164,-1.8573794
14.052833999999999,-8.072567999999999,3.478057,1.885357,-1.5871152,-2.1597402000000003
14.300854999999999,-7.267761999999999,3.1453488,2.0248263,-2.370157,-2.486047
14.047893,-6.443467,2.972095,2.1877005,-3.0424929,-2.8517632
13.728361999999999,-5.780311599999999,2.9566956,2.226569,-3.3496358,-3.2014923
13.93321,-6.0643883,3.4711232000000005,2.0706062,-3.2836275,-3.5693203999999996
13.352357999999999,-6.5468683,3.8898212999999995,1.7842151999999998,-2.9232519,-3.8456059999999996
12.484823,-6.746161,3.6142964,1.5084707,-2.4196720000000003,-4.0361786
11.210907,-6.4662795,3.5008974000000004,1.3125749,-1.8426313,-4.162872
10.535081,-6.4188165999999995,3.1602504000000002,1.2199502,-1.3363812,-4.172994999999999
10.260686999999999,-7.336907000000001,2.5240345,1.1746938,-0.9600358,-4.11231
10.589928,-8.882076,2.0059388,1.1906636,-0.7630754,-3.9776227
11.38079,-10.751709,2.6386497,1.2534955,-0.7167544,-3.7865093
12.051769,-12.4652,3.4445667,1.29287,-0.696526,-3.5831782999999997
12.218328999999999,-13.535294,3.9843538,1.2162153,-0.64861673,-3.3095458
11.967694999999999,-14.1502495,4.0481834,1.0959271000000002,-0.7444353,-2.8496165
11.189081,-14.55192,4.1886077,0.99052674,-0.97014123,-2.368918
10.513247,-14.685862,4.3034434,0.837217,-1.0930997,-2.028247
9.781386,-14.789117999999998,4.429704,0.5422912,-1.0393436,-1.7003346999999998
8.8177395,-14.710329000000002,4.265941000000001,0.2314132,-0.7662693,-1.3335537
7.795128,-14.30866,3.8243062000000005,-0.04855506,-0.33506832,-0.91036373
6.530434,-13.572691,3.4856703,-0.32377604,0.03913028,-0.3673918
5.368461,-12.778678,3.0817015,-0.46272168,0.15943582,0.26872835
4.2868853,-12.145717999999999,2.3789267999999995,-0.5718397,0.23767893,0.79518944
3.018935,-11.859352000000001,1.439624,-0.79328704,0.35533157,1.2870581
1.664765,-11.752245,0.6583193,-0.8230973,0.47031388,1.8662282
1.5113351000000002,-11.529478999999998,0.43612778,-0.46696284,0.48788935,2.3070111
1.6178291,-11.5883,0.08866208,0.024888393999999998,0.40962878,2.5406932999999996
1.1931744,-11.934904,-0.23935314,0.23727751,0.36917204,2.6120248
0.6833722,-12.107527000000001,0.10341994,0.09993755,0.46446702,2.6051132999999997
-0.275496,-12.105544,-0.00038307227,-0.34772193,0.7620281999999999,2.577956
-1.0697676,-11.995343,0.07363607,-0.9151983,1.1229448,2.5657039
-0.70596385,-12.738072,0.30024245,-1.3165542,1.3907132,2.6322532
0.34501404,-12.99046,0.3551176,-1.632232,1.6323889999999999,2.8116555
0.77528083,-13.081947,0.71538746,-1.8212161,1.7846166,3.1092167
1.2275646999999998,-12.073450999999999,2.4819443,-1.8973299,1.8043214,3.4978144
2.5791106,-10.927749,3.713675,-1.7999057,1.5637103,3.8592546000000003
4.3578877,-10.705434,3.1985959999999998,-1.491698,1.1043222,4.0088468
5.8076725,-10.939893,1.7199561999999997,-1.1366457,0.54803336,4.012564
6.705555400000001,-11.105313,0.43552443,-0.85449576,0.13601351,3.8912115
7.1427655,-11.303907,-0.19792385,-0.7922049,0.04818854,3.6942510000000004
6.9427447,-11.354598,0.15454093,-0.84971356,0.29358184,3.5111136
6.5082545,-11.699247,0.9964859,-0.8411789000000001,0.79344416,3.3152353999999997
5.9303517,-12.1637125,1.6464637999999998,-0.7986103,1.3592973,3.0762126
5.3646975,-12.295307000000001,2.2655659,-0.6852337,1.6520764,2.7621404999999997
5.19106,-12.414069999999999,2.5445287,-0.43821725,1.5094131000000002,2.3453212000000003
6.1519394,-12.125760000000001,3.124845,-0.19388862,1.1154921999999998,1.8678339
7.740502,-11.632909,3.2776716,0.03499385,0.68324405,1.3557369
9.061249,-11.169324000000001,2.9776783,0.22078414,0.40591124,0.8340579
10.43145,-10.815356,2.4899697,0.28946286,0.33883822,0.21975441
11.460230000000001,-10.798319000000001,2.1173556000000002,0.33311355,0.35054937,-0.32585296
12.332456,-10.883486,2.4560678,0.23197171,0.4825661,-0.8853357
13.182829000000002,-10.581739,2.9962093999999997,0.12550662,0.6832615,-1.3606936
13.54941,-9.638089,2.9470994,0.17500417,0.79131484,-1.8685321
14.090375,-9.036742,2.5875862,0.39165187,0.63268185,-2.4045925
14.711451,-8.51291,2.1061122,0.67165506,0.20095721,-2.9156249
14.595426999999999,-7.5690007,1.4600224,0.8478635,-0.2568252,-3.3468084000000005
14.21248,-6.4525747,1.1915368,0.9420764000000001,-0.64168775,-3.7731924
13.718248999999998,-5.346875,1.0564271,0.91600114,-0.7034375,-4.095782
14.013023,-5.215778,0.82960045,0.812189,-0.46071455,-4.278378
13.970664999999999,-5.99714,0.6656455,0.76642644,-0.09606292,-4.2868953
13.462185,-5.9602118,0.29080933,0.9026843000000001,0.28612927,-4.1602015
12.349762,-5.534063,0.7670446999999999,1.1789698999999998,0.51769954,-3.9387543
11.639717999999998,-5.142305,1.2666476,1.5164642,0.47191957,-3.6358523000000003
11.334841,-6.0789065,1.5824332,1.7373880000000002,0.16371189,-3.3483968
11.574978999999999,-7.9893556,1.4763415000000002,1.8342538000000002,-0.33187437,-3.073193
12.119171000000001,-10.339963000000001,1.5144666000000002,1.8518293000000001,-0.7907389,-2.928383
12.470583,-12.418121000000001,1.9437661,1.8624758000000001,-1.1894419,-2.817136
12.229678,-14.060926,2.4123976000000003,1.8331891,-1.38162,-2.6494622000000003
11.170722999999999,-15.016060000000001,2.8859993999999998,1.7352587,-1.3752322,-2.4471786
9.877125999999999,-15.198132999999999,3.488275,1.581949,-1.2059526000000003,-2.1096668
8.561665,-14.767263,3.8637337999999994,1.3924412,-1.0883001,-1.6183391000000003
7.3605137,-13.964632,3.6724660000000005,1.2242262,-1.1367503,-1.0897312
6.323671,-13.001864999999999,2.953449,0.97668624,-1.1069402,-0.61011475
5.5388417,-12.079991999999999,1.9325901,0.55827844,-0.8232193999999999,-0.17893115
5.2743497,-11.4815855,1.1983553999999998,-0.0389732,-0.3217689,0.21495475
5.423163400000001,-10.996042,1.174241,-0.63463664,0.16584119,0.6525437
4.936451,-10.992728,1.3880624,-1.1147941000000001,0.51665235,1.1886041
4.1829004,-10.616168,1.3929082,-1.3314593000000001,0.7482052,1.7310349999999999
3.272481,-10.224505,1.3411552,-1.2744918,0.7657632,2.2229037
2.0387584999999997,-10.21625,0.7788242,-0.923157,0.55176836,2.5268702999999997
1.241815,-10.398937,0.23305158,-0.41743040000000003,0.20097466,2.6301412999999996
1.3009613000000002,-10.760222,-0.18644127,-0.054925512999999995,-0.1263793,2.4944072
1.5984648000000001,-11.018423,-0.6003604,-0.020333085,-0.25893706,2.1893759
1.7018751,-10.795025,-0.949617,-0.29499555,-0.09018116400000001,1.911502
1.5559055,-10.83768,-1.1364126,-0.7278023,0.30531046,1.7155888
1.5700696,-11.905312,-0.83049107,-1.1179881,0.739688,1.6815375
1.8735491000000002,-12.872186,0.05523902,-1.2931143999999999,1.0239497,1.833259
2.175362,-12.641261,1.1829176000000001,-1.2239296,1.1053868999999998,2.0802405
2.8723621,-11.50548,2.3696563,-1.0120466000000001,0.99201024,2.3645022
4.2411847,-10.221603,3.0510460999999998,-0.7820819999999999,0.7130717,2.5774324
6.0439515,-9.466913,2.7674005,-0.5446649,0.28508207,2.6844384999999997
7.9981275,-9.33685,1.7358918999999997,-0.4169068,-0.12266174,2.6961498
9.102428999999999,-9.648411999999999,0.59438455,-0.45629890000000006,-0.3313333,2.6668632000000003
9.290650999999999,-9.910769,0.025187002000000003,-0.6213198,-0.30258772,2.621083
8.48576,-9.955388000000001,0.25441745,-0.7501425,-0.073146746,2.580644
7.1610570000000004,-9.936291,0.8858642,-0.7874053000000001,0.21853268,2.5662622
5.772085,-9.511225,1.9014558000000001,-0.78475237,0.5331457,2.5018597000000002
4.8977895,-8.953108,2.5739202000000003,-0.76771796,0.8403062,2.3304508
4.8125753,-8.472515,2.539884,-0.70488614,0.9819048,2.0243726000000004
5.442174,-8.062292,2.1439022999999997,-0.4834562,0.88980377,1.7459401
6.265338400000001,-7.844324,1.5777885,-0.14648548,0.5986130000000001,1.4861653000000001
6.993396000000001,-7.83672,0.9947142,0.13191198,0.3015929,1.2317312
7.5810002999999995,-7.9568133,0.59007496,0.28148670000000003,0.11847295,0.9155299000000001
8.033159,-8.041463,0.8614815999999998,0.41936769999999995,0.043406337,0.61423373
8.316221,-8.090841000000001,1.5744462,0.56094885,-0.0018325957,0.29536206
8.876121000000001,-8.266384,2.0286932,0.68073076,0.030630529,-0.027733281000000002
9.877949000000001,-8.53983,2.1754005000000003,0.67594856,0.027977629,-0.47862163
10.963749,-8.48052,2.2080476000000004,0.6253689,-0.10828023,-1.056186
11.871879,-8.751228,2.2145023,0.63070965,-0.35473818,-1.6167159
11.860319,-8.710527,2.2735244999999997,0.53859115,-0.6182479999999999,-2.2480714
11.675928,-8.277952,2.0287029999999997,0.21282545,-0.6778684,-2.9507408
11.417488,-7.6133795,1.5287647,-0.2263343,-0.50113636,-3.5804732000000006
11.961910000000001,-7.615946000000001,1.1364604,-0.49888492,-0.14076081,-4.0856586
11.935489,-7.598966000000001,1.1622317,-0.38870227,0.26644197,-4.377914
11.715767999999999,-6.830878,0.89133257,-0.0011519173,0.61672956,-4.466263
11.079494,-5.429283,0.5308903,0.34058356,0.8520174,-4.3321166
11.044979,-4.413136,-0.12947842,0.7020411999999999,0.951571,-4.069148
11.463907,-4.934871,-0.20707929999999997,1.0400592,0.72958255,-3.7965972000000003
11.963749,-6.4588,-0.11674127,1.4403678,0.18767525,-3.5070121
12.856441499999999,-8.234292,-0.15171577,1.7943555,-0.39201840000000004,-3.233397
13.351553,-10.142959,-0.018100165,2.0536242,-0.87215847,-2.9571113999999996
13.056654,-12.018903,0.91618437,2.0727703999999996,-0.98396426,-2.6771257
12.122264999999999,-13.587774,2.7282217,1.8220365,-0.8290489,-2.3635771
10.732364,-14.319586,4.2664385000000005,1.4180101999999999,-0.54318136,-2.0436408999999998
8.964705,-14.371426000000001,4.500773400000001,0.9804386999999999,-0.24242623,-1.6971058
7.642301,-14.014276999999998,4.0773926,0.5636366,-0.038013272,-1.2893445
6.813486,-13.0437155,3.4108467000000005,0.15001105,0.09770353,-0.8278271
6.273843,-12.239179,2.9133317,-0.32587042,0.28775242,-0.34339353
5.43774,-11.793023,2.6480348,-0.8768185,0.35856044,0.27089256
4.539052,-11.1194,2.5908133999999996,-1.3942388000000001,0.24251350000000002,1.0023077
4.005049,-10.76615,2.21841,-1.7961532,0.14137167,1.7150826000000001
3.3377662000000003,-10.165063,1.488887,-1.9547862,0.058852499999999995,2.3144810000000002
2.6012616000000004,-9.525466,0.44131842,-1.7604787,-0.21687461,2.8622527
1.7318411,-8.881836999999999,-0.40785706,-0.9976651,-0.664569,3.2902248
1.1821035,-8.650653,-0.90855163,0.03769911,-1.1244806999999999,3.383408
0.4428411,-8.911535,-1.3227963,0.8995252,-1.3150532,2.985752
-0.10562260400000001,-9.00803,-1.7653023999999997,1.1768755,-1.2064588,2.3160868
-0.7267839,-9.27892,-2.2138321,0.7541916999999999,-0.68638563,1.674626
-1.0888159,-10.078258,-2.562581,-0.073548175,0.09452703,1.2753819
0.029190108,-12.045928,-2.0326772,-0.73521996,0.79400265,1.2253608
1.5515097,-13.216558,-0.93796206,-0.84648466,1.1187037,1.4228273999999999
2.5004084,-13.08076,0.6745614999999999,-0.52974236,1.0883874,1.7763089
3.2362710999999997,-12.108417,2.7217092999999997,-0.08951793599999999,0.792938,2.1159325
4.859071,-11.106156,4.7804356,0.13510594,0.44160320000000003,2.2958583999999997
8.002552,-10.792257000000001,5.046249400000001,0.17769197,0.1254019,2.3868772999999996
10.9940405,-10.74783,3.7889104,0.10744247,-0.057176985,2.4188343999999997
12.18595,-10.978785,1.5122831,0.0009773844000000001,-0.12636183,2.4257459999999997
11.3743925,-10.75732,-0.4343369000000001,-0.02989749,-0.10189232,2.4363923
8.973611,-10.201827,-0.9546544,-0.016580628,-0.031625368,2.4188167999999997
6.7059293,-9.93024,0.37122577,0.017470745,0.05087635,2.3639959999999998
4.8234067000000005,-9.186216,2.2507029,0.09360201,0.16053538,2.2830827
4.0019274,-8.583615,3.0434039,0.21017255,0.2866878,2.1489367
4.3708160000000005,-8.069513,2.5551114,0.24265313,0.3548429,1.8849032
5.0890765,-7.6980960000000005,1.5254225000000001,0.27937484,0.34204963,1.5399563
5.872479,-7.711943600000001,0.82976323,0.30653217,0.3015929,1.1880979999999999
6.366757,-7.7315383,0.6803938,0.28682742,0.35323718,0.83409286
6.673329400000001,-7.7921977,0.962766,0.11276572,0.5714906,0.33583626
6.9518614,-7.7981929999999995,1.3942682,-0.21725859,0.9111142,-0.14695673
7.361192999999999,-7.742168400000001,1.6517406000000003,-0.34981635,1.1320206,-0.34126422
7.947131,-7.907359,1.761261,0.023858652,1.0559068,-0.30986574
8.677342999999999,-8.095188,2.0350523000000003,0.65786695,0.6124708999999999,-0.22999948
9.364930000000001,-8.1830845,1.9779745,1.0523288,0.05461135,-0.21561797
10.191753,-8.416844000000001,1.6746578,1.0879858999999998,-0.36910224,-0.2965489
10.626942999999999,-8.665813,1.7146028000000002,0.8239525,-0.62409484,-0.46155232
11.143745,-9.159239,1.7542698,0.42736130000000006,-0.81944954,-0.71015704
11.379583,-9.051558,1.7738737,-0.05808456,-0.91739744,-1.0582979
11.757877,-9.123086,1.4302481000000002,-0.6026621999999999,-0.815732,-1.3755636999999998
10.72745,-10.025661999999999,1.2769045,-0.9242041999999999,-0.7113961999999999,-1.4548889999999999
8.786595,-10.495030999999999,2.1459900000000003,-0.71818554,-0.7992385999999999,-1.2350299
6.764950999999999,-9.774960499999999,3.1338186,-0.18851301,-1.083483,-0.8592081
5.4979973,-8.678407,2.4034912999999998,0.36721727,-1.1281983,-0.58185786
5.177614,-8.437771000000001,0.49147213,0.6349682,-0.99352866,-0.38756782
5.003814,-8.273959,-1.1288278,0.6961944,-0.8290314000000001,-0.1794373
4.943854,-8.589831,-2.2170787,0.5519255,-0.763023,-0.013351769
5.114982,-9.003969999999999,-2.48046,0.21603686,-0.6278123999999999,-0.034627332999999996
4.84234,-9.086963,-2.2508175,-0.09908234,-0.335557,-0.18154915
3.4829698,-9.210006,-1.3244628,-0.2885902,0.030647982,-0.14960963
1.4539412,-9.381449,0.6658179,-0.18905406,0.16905259,0.25970498
-0.29000485,-9.688616,2.7682145,0.18037978,-0.05396558,0.7308392
-0.8762873999999999,-9.810002,3.9739726,0.47848199999999996,-0.43085197,0.92886424
-0.8502098,-9.0216875,4.023159,0.5402143,-0.766217,0.8718966999999999
-0.84116924,-8.703086,2.8431337,0.2570172,-0.8540594000000001,0.8010887
-0.6158078,-8.866332,1.4634413999999998,-0.116116755,-0.7986976,0.8112116
0.5943079000000001,-9.579794999999999,0.6177615,-0.21193533,-0.6528404000000001,0.77288413
1.5572270000000001,-9.605537,0.63825583,-0.2449395,-0.5474399999999999,0.67706555
1.6103593,-9.690483,1.5088546,-0.21779963,-0.49207813,0.67067766
0.052318095999999994,-10.078134,2.3988272999999998,0.05581563,-0.3329041,0.76010835
-0.91538954,-10.45795,3.4020553,0.6754424,-0.10986847400000001,0.88467246
-0.2045223,-10.515047000000001,3.6613953,1.3360670000000001,0.07483972,0.8165348000000001
1.4268292999999999,-10.5396595,2.9645772,1.7049598000000001,0.25316,0.4140968
2.7417437999999996,-10.845858999999999,1.9347352,1.600083,0.5262517,-0.26139796
2.9263275,-11.304022999999999,1.3680947,0.94958127,1.1059453000000001,-1.0961016000000001
3.0064182,-11.520352,2.2580194,-0.12035791,1.6425468,-1.513951
3.7633116,-11.691547,3.8296885,-0.92525136,1.6563872,-1.2834628000000001
4.2474099999999995,-12.44462,4.0684476,-0.7240324,1.0255729,-0.60582125
3.853276,-11.847028,4.978378299999999,0.24584708,0.21856758,0.16816248
2.8243245999999997,-9.877863,6.2396345,1.2349252,-0.32438690000000003,0.6909234999999999
2.3539026,-7.5931726,6.9428589999999994,1.6059473,-0.53998744,0.983685
3.4542297999999994,-6.4023633,5.8896785000000005,1.4819067,-0.49579567,1.1188956
5.0224605,-6.5062623,3.6447123999999995,1.1721108,-0.38400733,1.100273
6.4131374,-7.421144,1.3347674999999999,0.82342887,-0.22111577,0.853274
6.051996,-8.515208,-1.2002516,0.46837655,-0.056618482000000005,0.42956042
3.3715053,-10.479517,-2.8785105,0.088296205,0.09719738,-0.08040732
0.23906583,-11.821381,-1.3004538,-0.19594811,0.1892984,-0.43545964
-2.1377254,-11.291189,2.5396732999999996,-0.37163296,0.28831095,-0.6159266999999999
-2.0031423999999998,-10.153895,4.8943996,-0.38653806,0.3463257,-0.55152404
-0.56081784,-8.8123,3.9364507000000004,-0.22736403,0.32131509999999996,-0.2981197
0.8690186,-7.834738000000001,1.3880146,-0.071907565,0.19994491,0.011676253000000001
2.1430213,-7.2528605,-0.39484218,0.079237945,-0.03267256,0.2799508
3.2340205,-6.553265000000001,-0.8006401999999999,0.18943803,-0.2620961,0.36620498
4.2549269999999995,-5.851659,-0.6750020999999999,0.29164450000000003,-0.37336084,0.1979727
4.8455005,-5.7840657,-0.49587747,0.09307841,-0.29244736,-0.10543534
4.83826,-6.3857956,-0.12892297,-0.30347785,-0.11517428,-0.30930725
4.3173013,-7.5357594,0.38964197,-0.53344244,-0.05129523,-0.28427923
3.6962550000000003,-8.908892,1.0749677,-0.42111304,-0.20886356,-0.16397369
2.9966307,-10.146924,1.9374073,-0.24918066,-0.4585329000000001,-0.17462020000000003
2.6298199,-11.148111,2.2723656,-0.24331635,-0.79175115,-0.32951817
2.6627355,-11.601593,2.2036617,-0.45146433,-1.0414205,-0.5429894000000001
3.7915822999999995,-11.783380000000001,2.1259074,-0.82889175,-1.1979241000000003,-0.81821036
5.0531735,-11.428444,2.1778138,-1.0647031999999998,-1.2612796,-0.99494237
6.45403,-11.331986,1.7544136000000001,-1.126994,-1.2085707,-1.091302
6.5357876,-11.326097,0.46722367,-1.0721557,-0.98445296,-1.1450582
5.4570940000000006,-11.125607,0.079114,-0.9491798,-0.7060555000000001,-1.2233013000000001
3.5189977,-9.893962,0.8792179,-0.73466146,-0.45212755,-1.2983505
2.8114247000000003,-8.67786,1.7501901000000002,-0.48179814,-0.22216296,-1.3425421999999998
3.4059339,-8.404261,1.6324049999999999,-0.27738518,-0.08375835400000001,-1.3755462999999999
4.4895687,-9.253236,0.8651879000000001,-0.10279989,-0.20086995,-1.419738
5.5331244,-10.294282,0.44424890000000006,0.015899949,-0.40475932,-1.5421729
6.010107,-11.038046000000001,0.73316205,-0.05806710599999999,-0.536235,-1.6922712
6.03969,-11.51295,2.0111008000000004,-0.33915237,-0.53358203,-1.7928895
5.896153,-11.326519000000001,3.3807662000000005,-0.65215975,-0.45214498,-1.8152471999999997
5.5225230000000005,-10.323127000000001,4.149496,-0.81981605,-0.37281978,-1.7503034
5.110146,-9.068518,4.4648123,-0.8256804,-0.35897929999999995,-1.6172221000000002
4.668895,-7.961189699999999,4.56467,-0.7799003999999999,-0.46650904,-1.3356133
4.393858,-7.2191405,4.1002903,-0.759672,-0.5564633000000001,-0.87781334
4.0337796,-6.631345,3.306651,-0.69207543,-0.42870522,-0.37957420000000003
3.8216437999999995,-6.238198000000001,2.7032166,-0.43284166,-0.03584906,0.111753434
3.8804934,-6.2471137,1.9976357,-0.16400859,0.37667695,0.5573011
3.8594532,-6.817594500000001,1.2252854,-0.08148942,0.56512016,1.1087902
3.612544,-7.5491285,0.83849734,-0.0559378,0.61037654,1.644327
3.081625,-8.382214999999999,1.4142836,0.14365806,0.58056635,2.070711
2.5580513,-9.517056,2.4742541,0.51576227,0.53478634,2.2341435
2.1091194,-11.05131,3.3356209000000003,0.90329516,0.48846530000000005,2.0387714
1.4148008,-12.538636,3.8134558,1.047023,0.51775193,1.5612843
0.7476709,-13.277064000000001,4.4277315,0.870291,0.6769085,0.96240944
0.53962433,-13.404198000000001,5.5228677,0.44495425,0.8531169,0.55145425
0.7701668,-13.010542,6.149430799999999,0.015376351000000002,0.90263194,0.39762092
1.4609514,-13.638024,5.0645123,-0.07777187,0.7567573000000001,0.49555132
1.7705313000000003,-13.519444,3.6648142,0.2091428,0.5353099,0.7782249
1.9373881000000002,-12.045342999999999,3.2581446,0.7015351,0.40329322,1.1939623
2.7282887000000002,-9.900378,3.7557652000000004,1.096538,0.3207915,1.5990707
4.161467,-8.355217999999999,3.7933445,1.3280908,0.25850073,1.8279706000000002
6.280125,-7.733386,3.3386089999999995,1.3776058,0.12011356,1.8955846
7.851056599999999,-7.8352838,2.0996766,1.2312076,-0.13646729999999999,1.8817441000000004
8.087345,-8.550748,0.73256826,1.015101,-0.46755624,1.7704968
7.18543,-9.475847,-0.20627484,0.7233691999999999,-0.7337364000000001,1.5485084999999998
5.699512,-9.982443,0.033557132,0.4343252,-0.8556302,1.238695
4.1889625,-9.938005,1.400177,0.21926571,-0.8428544,0.86234975
2.919844,-9.312391,2.726833,0.06539748599999999,-0.6395061,0.49768063
2.180361,-8.424928,3.0328884,-0.0522028,-0.27911305,0.21556562
2.6328080000000003,-7.744591000000001,1.9577388,-0.17250834,0.08337438,0.011152654
3.6295238,-7.0781507,0.72465783,-0.28431413,0.31546825,-0.13522811
4.378430000000001,-6.7561789999999995,-0.6698115,-0.3641455,0.34369025,-0.23795820000000004
4.997474700000001,-6.754033,-1.6869831999999998,-0.47860420000000004,0.29523990000000006,-0.36519268
5.7586393,-6.699742999999999,-1.9270642,-0.6707649,0.23828979999999997,-0.62016785
6.54931,-6.8069453,-1.7720061999999999,-0.91244066,0.21432643,-0.8634318000000001
7.128764,-6.9120984,-0.9820153,-1.0423281,0.30482176,-0.9800198
7.527953999999999,-7.040303,-0.07467037,-0.9545030999999999,0.39158207,-0.94914496
7.563561,-7.3513675,0.6585873999999999,-0.70218086,0.3165329,-0.95553285
7.235594,-7.693011,0.9143551999999999,-0.5084144,0.03387684,-1.1210773
6.976263,-8.331592,0.81721765,-0.48977429999999994,-0.31318188,-1.3968219
6.7477508,-9.033773,0.60717916,-0.59039253,-0.52345914,-1.63478
6.735244000000001,-9.548641,0.45078029999999997,-0.7452905,-0.6693163000000001,-1.7678615000000002
6.8793940000000005,-9.58377,0.3885885,-0.77138317,-0.7454301,-1.7151525
7.6521273,-10.288393,0.48088977,-0.6340432,-0.6985855,-1.5767479
7.403225999999999,-10.876724000000001,0.8479688,-0.4461236,-0.53675854,-1.4851879
6.440412,-10.7652025,1.735078,-0.23904029999999998,-0.2711369,-1.4436666
5.344059,-9.959698,2.6258166000000003,-0.033562682999999996,-0.023073252000000002,-1.4074684
5.542826,-9.550499,2.733307,0.1378112,0.0503702,-1.3435893
6.163087,-9.787171,2.1479435000000002,0.31082568,-0.07098254,-1.2919625
6.5003533,-10.485531,1.6422116999999998,0.39334485,-0.26101398,-1.2983505
6.3116426,-11.23596,1.6252321,0.30709067,-0.41805872,-1.3292253
5.399116,-11.86621,1.9145857,0.10908308,-0.49150217,-1.3654058999999998
4.531841,-11.803644,2.9607751,-0.08360127,-0.36109117,-1.4250264
4.084929499999999,-11.07777,3.7511970000000003,-0.33114132,-0.08854055400000001,-1.3739406
4.0055666,-10.131860000000001,4.1391344,-0.5611059,0.027488936000000002,-1.1003253
3.7896763999999994,-8.908575,4.094276399999999,-0.62446135,-0.07044149,-0.720245
3.2998517,-7.9702687,3.5550735,-0.55791193,-0.23972097,-0.42318997
2.8375217999999998,-7.260828500000001,2.8239417,-0.5307546,-0.24930283,-0.20174260000000002
2.8114536,-6.8998213,2.2695307999999996,-0.6175324000000001,-0.119415425,0.17990854
3.14872,-7.166449000000001,1.4969985000000001,-0.6084916,0.06527531,0.68827057
3.2941532,-7.4732899999999995,0.89939624,-0.45835838,0.09934414,1.2094258999999998
3.2559803,-7.615189599999999,0.92825115,-0.20390682,0.05784021,1.6054760000000001
2.8966967999999995,-7.650442,1.2509991000000003,0.09311332,0.043458696,1.8705741000000002
1.9278111,-8.460688000000001,1.0389495,0.46359435,0.039200094,2.0877628
1.1787709,-9.484860000000001,1.2829952,0.7542615,0.06316347,2.172935
1.3368839,-10.495271,2.103852,0.9874200000000001,0.12863077,2.0254896000000002
1.9975398999999998,-11.038352,2.8382304,1.0874972,0.26490608,1.6421976999999999
1.8490131999999997,-11.545779,2.8311148,0.9102241,0.47570693,1.1966501
1.3434344999999999,-12.160591,2.9365075000000003,0.51204467,0.6843785,0.8964186
1.3664091999999999,-12.600309,3.3036822999999997,0.034016468,0.84992296,0.6526135000000001
2.5064802000000004,-13.319979,3.6004102,-0.16824974,0.8914618000000001,0.53017867
3.179672,-12.538588,3.7427692,-0.02984513,0.79138464,0.5695707
3.555878,-11.031505000000001,3.8167214,0.2842094,0.6604151,0.72235686
3.8164246,-9.592216,3.4914449999999997,0.55943036,0.5475621,0.9406103000000001
5.053211699999999,-8.865335,2.9728515,0.7122165,0.47783625,1.0784738
6.850778,-8.583615,2.3736978,0.73987997,0.34688420000000003,1.1583226999999998
8.193609,-8.960473,1.3579146,0.73829174,0.15418239,1.1450232
8.258032,-9.426164,-0.046380475,0.6669601,-0.011344640500000001,0.97893775
7.405352000000001,-9.227771,-0.88324016,0.41090286,-0.013491395,0.6983935
6.206968,-8.450804,-0.62669665,0.040945426,0.1626996,0.48226938
4.833778400000001,-7.660908999999999,0.68032676,-0.16716763,0.3825587,0.41360813
3.7503254,-7.0962415,1.8161073,-0.057526052,0.46718973,0.42051962
3.0621264,-6.7494364000000004,2.1021953,0.06597344599999999,0.35274848,0.44928265
3.0465548,-6.3587313,1.542881,0.14582226,0.07806858,0.44980624
3.3811586000000005,-5.9946785,0.7981311,0.13941689999999998,-0.22694516,0.3821922
3.940291,-5.9198837,0.14334564,0.029234264,-0.47607344,0.24432865
4.8895826,-6.162761,-0.12101252400000001,-0.10967649,-0.5772153,0.023945916
5.9811273,-6.3385534,-0.4344327,-0.3156777,-0.5154481,-0.13199925
6.4577847,-6.565724400000001,-0.80415493,-0.5893104,-0.31422907,-0.23739968
6.442749,-7.419975999999999,-0.6989536999999999,-0.6893876,-0.0832173,-0.36889279999999997
6.374428,-8.00441,0.2240111,-0.65106016,-0.06351253400000001,-0.7542964
6.6008906000000005,-8.616397000000001,0.82511854,-0.5925044,-0.35150929999999997,-1.2594819
7.2296844,-9.405679,0.19550093,-0.6420194,-0.89182836,-1.7731673
8.022558,-9.684287,-0.34058958,-0.772954,-1.4294596000000002,-2.2277732000000006
8.590309,-9.686845,-0.8810087999999999,-0.8948652,-1.7738653000000002,-2.5892133999999998
9.246866,-9.46177,-0.9192777,-0.9757787,-1.7680185000000002,-2.8947856
9.985937,-10.20474,-0.7236714,-0.99440134,-1.4528819,-3.1534784
10.312766,-10.509482,-0.8066736,-0.9406452,-0.89287555,-3.420182
9.7713785,-9.7789345,-0.46224374,-0.8485441999999999,-0.21949259999999998,-3.6948621
9.345365,-7.577610000000001,0.39659473,-0.70961595,0.42088616,-3.9610248
9.830093,-6.454739,0.63924223,-0.54459506,0.83397067,-4.151597
10.427419,-7.2286315000000005,0.17674954,-0.35986945,1.1097152,-4.118052
11.072080999999999,-9.116775500000001,-0.16485515,-0.09157742599999999,1.0538124,-3.9493136
11.523369,-10.973757,0.27417442,0.18202038,0.6795963,-3.7624586000000004
11.502989999999999,-12.292512,1.4775577,0.36568138,0.34051374,-3.6506703000000003
11.404857000000002,-12.809994,2.6842449,0.41359067,0.20263273,-3.5745563999999996
11.024427000000001,-12.610978,3.5867152,0.274645,0.10841985,-3.349915
10.343103999999999,-11.759677,4.063008,0.040421825,-0.18488273,-2.7436051
9.593355,-10.910712,3.8600852,-0.095294975,-0.405248,-1.9818214
8.938427,-10.350738,3.3246171,-0.2608569,-0.39516,-1.2706520000000001
8.270864999999999,-10.344215,2.56645,-0.5621531,-0.13484414,-0.6350555
6.5876174,-10.244665,1.9846879000000002,-1.0039831,0.24469516,-0.03672173
5.379723,-9.895466,1.4283615,-1.3643762,0.26916468,0.71916294
4.6951537000000005,-9.331764,1.0015616,-1.4479426000000002,0.090844385,1.5959116000000002
4.2590075,-8.761332000000001,0.7131465,-1.3829989999999999,0.024836035,2.491283
3.4807193,-8.359757,0.06690357,-1.2600403999999998,0.038676497000000004,3.3424625
1.9811541000000001,-8.643547,-1.1130261000000001,-1.0188884,0.061034165,4.0467377
0.4824795,-9.345316,-1.5675603999999999,-0.6206914000000001,0.09831439999999998,4.620061
0.022965182999999997,-9.70958,-1.1305516000000002,-0.11393509,0.1664346,5.0017295
0.5876998999999999,-10.004842,-1.0034578,0.35077628,0.15845844,5.092766
1.1980011000000002,-10.502654,-1.1549534,0.5738119,0.18079865,4.990001
0.9403754000000001,-11.365428999999999,-1.6310546000000001,0.37472218,0.26331782,4.759513
0.3377644,-12.622433000000001,-1.2650962,-0.13522811,0.38308233,4.4353356
1.0100658000000002,-14.156322,-0.28198907,-0.5887694,0.41395718,4.1409507
1.9264226000000002,-14.898504,0.5128189000000001,-0.6398726,0.3128328,3.988182
2.6074102000000003,-14.548817000000001,1.3944309,-0.19856611,0.12545426,3.9924407
3.5893106,-13.948811,2.2362897,0.43062508,-0.079482295,4.0004344
5.4849725,-14.135856,2.8912763999999997,0.81814057,-0.22321016,3.8444542999999998
7.7593393,-14.561851,2.8763267999999997,0.786201,-0.26579618,3.5596513999999995
10.104623,-14.922082000000001,2.0846791000000002,0.43060762,-0.22746876,3.1710540000000003
11.406112,-15.109414000000001,0.7372896,-0.042603485,-0.12419763,2.759575
11.489017500000001,-14.395826999999999,-0.5836106,-0.34709364,0.052516956,2.2911286
10.872529,-13.244589999999999,-0.87897843,-0.37103954,0.2606649,1.8109709999999999
9.690828,-12.028383,0.11174218,-0.31834805,0.6040061,1.3606236999999999
8.491916999999999,-11.179246000000001,1.9224194,-0.3130248,0.9974033000000001,0.9784141
7.930094199999999,-10.564176,3.2819333,-0.30344296,1.2396027,0.5259375
8.523712,-10.058568,2.9102767000000003,-0.24116959999999998,1.1943636999999998,0.093148224
9.53058,-9.552347,1.3100401000000002,-0.17353809,0.91648984,-0.33639476
10.224103999999999,-8.787544,-0.18458338,-0.26083946,0.5236510999999999,-0.7617315
10.432121,-7.932823,-1.0398401,-0.37262779999999995,0.13131857,-1.2567941
10.499034,-7.319525,-0.75644326,-0.28586748,-0.23703316,-1.6640319
10.700204,-6.644637599999999,0.55871093,-0.06921976,-0.5005430000000001,-1.9711748
10.821657,-6.275394,1.591397,0.25176373,-0.5223770000000001,-2.1431245999999997
10.675343,-6.0981274,1.8091066999999998,0.5743529,-0.50745445,-2.3012166
10.922051,-6.3287086,1.5538177,0.7952593000000001,-0.6405533,-2.5572738999999998
11.548173,-6.7443990000000005,1.2692238,0.86180866,-1.0046464,-2.8873154999999997
11.580542999999999,-7.042764699999999,0.9319478000000001,0.73511523,-1.4507351000000002,-3.2673959999999997
11.158263,-7.1241389999999996,0.37558323,0.4205022,-1.753637,-3.6112782999999995
10.613468,-7.204008999999999,0.012334928,-0.0069289569999999995,-1.7972877,-3.8556068
10.979254,-8.1576395,0.8105043000000001,-0.2949083,-1.6317258,-4.0403150000000005
10.892421,-9.627037,2.0504038,-0.26083946,-1.2793263000000001,-4.23834
10.571205,-10.2237015,2.927333,-0.021310471,-0.8785115,-4.324594
9.366988000000001,-9.606553,3.5041535,0.27996826,-0.45317474,-4.288396400000001
9.004498,-9.088188,3.1879659,0.52963763,-0.11301007,-4.114317
9.409538000000001,-9.691258,2.3051374,0.7106283,0.12280136,-3.8726413
10.334447,-11.238182,1.3945458999999998,0.82348126,0.18933332,-3.5585692000000004
11.348085000000001,-13.253851000000001,0.7831338000000001,0.94272214,0.09297369,-3.3419216
11.669263,-14.980818,0.7181935,1.0459933000000001,0.04399975,-3.3291457
11.222936,-15.943659,1.2970157,0.9778730999999999,-0.08213519,-3.1838121
10.673093,-15.836839999999999,2.7982855,0.82669264,-0.36852628,-2.7526286
9.709052999999999,-15.143412,4.0948033,0.6717598000000001,-0.5580341,-2.29057
8.48575,-14.713231,4.5246005,0.5147325,-0.5122541,-1.8077421999999999
7.2919436,-14.275227,4.11388,0.37740999999999997,-0.38875464,-1.3632592
6.2594585,-13.751757999999999,3.2784187999999994,0.24644049,-0.3253992,-0.80166465
5.562046499999999,-13.033805000000001,2.3986549999999998,0.1314582,-0.3376514,-0.21769492
5.052963,-12.3525095,1.6722254,-0.02555162,-0.30410618,0.29544935
5.0199226999999995,-11.5194235,1.5573612,-0.26031587,-0.20776399999999998,0.8011585
4.4668813,-11.0987625,0.7278182,-0.5983338,-0.015062191499999999,1.2861156
2.6107522999999997,-11.317162,-0.46058694,-0.93530446,0.1616524,1.8035359
0.929908,-10.940046,-0.9790561,-1.013024,0.18348646,2.478507
0.21420443,-10.31264,-0.75473857,-0.74473196,0.057316612,3.1332674
0.08277234,-10.236439,-0.47334325,-0.23795820000000004,-0.02677335,3.5106949999999997
-0.05943366,-10.699994,-0.505732,0.15009831,-0.044872414000000006,3.6144896
-0.5667554,-11.216155,-0.7905175,0.17137387,0.06263987,3.5931966
-0.48446190000000006,-11.189589,-0.87535846,-0.16289158,0.3687357,3.5250763999999997
-0.35496435,-11.351188,-1.0746997999999999,-0.6542366999999999,0.7935314,3.409012
0.28353095,-12.407845,-1.2868928999999998,-1.0353816999999998,1.1831936,3.2557197
0.9065309000000001,-13.127753,-1.2286661,-1.1924089,1.3886711999999999,3.2136574
1.139956,-13.913903,-0.62290424,-1.0630451,1.3918651000000002,3.3238573
1.0088208,-13.713679999999998,0.93762684,-0.7756069,1.2960291000000002,3.5165417000000003
2.230467,-13.373282999999999,2.4338592999999995,-0.5232846,1.1688120000000002,3.7188253
4.983521499999999,-13.296007999999999,2.9637728,-0.34601152,1.0501121999999998,3.7539589999999996
7.262332000000001,-13.394341,1.8804252000000001,-0.24541074,0.9260716999999998,3.6246126000000003
8.6300535,-13.561065,0.41937795,-0.2427404,0.7860788000000001,3.4462748
9.165416,-13.408947,-0.37587053,-0.23211133,0.6508507,3.2668724
9.0564995,-12.633369,-0.1365461,-0.21453588,0.5774073000000001,3.1636187999999996
8.479611,-11.965061,0.7452288,-0.1943075,0.64126885,3.0837698
7.272886,-11.535101,1.7911884999999999,-0.15226252,0.8568694,2.9384363
6.4900775,-11.183603,2.6950955000000003,-0.111247286,1.0996097,2.7595925
6.373231,-11.02956,2.9369674,0.103777274,1.3141281999999999,2.5184227999999997
6.956697999999999,-11.089233,2.6576502,0.46202356,1.4594618000000001,2.1612412999999995
8.2351055,-10.890533999999999,2.404334,0.67975336,1.5456985,1.8322641
9.034175999999999,-10.859007,2.0474639999999997,0.39868554,1.5393106,1.4548541000000001
9.630589500000001,-10.948607,1.7246104,0.1335875,1.2965702,0.8149989000000001
10.041483,-11.220493,1.7021433000000001,0.21450096,0.8675159,-0.01860521
10.382954,-11.452961,1.7691904999999999,0.37313393,0.5028817,-0.9453925
10.628455,-10.901126,2.0283678,0.5589068,0.30270990000000003,-1.7076825
11.071104,-10.054536,2.1927726,0.69519955,-0.04647812,-2.4140697
11.615518,-9.687878999999999,2.3344424,0.7745073,-0.6687578000000001,-3.0076213
12.791155999999999,-9.4236355,2.8322065,0.74363244,-1.502903,-3.5442052000000004
13.916144000000001,-8.841596000000001,2.9799385,0.53815484,-2.26254,-3.9892292
13.682442000000002,-8.019503,1.50715,0.2592163,-2.7437622999999998,-4.324594
14.305795999999999,-6.971494,-0.19281943,0.043615777,-2.8374515,-4.5279427000000005
15.411487,-6.5642023,0.5716779000000001,-0.05057964,-2.6905297999999997,-4.587022
16.021366,-5.7866898,1.6148028,-0.029810224,-2.3578175999999997,-4.4912033
14.912947,-5.2809386,1.963839,0.11016518,-1.8212509999999997,-4.3730445
13.0045185,-4.817478700000001,1.868416,0.2592163,-1.1446568000000001,-4.269756
11.853491,-5.602308,1.224797,0.3779336,-0.5303532,-4.1494503
11.220455000000001,-7.5198717,0.7036271,0.4849223,-0.1385617,-3.9764535000000003
11.365169999999999,-9.972491999999999,0.44509166,0.5189911,0.14355333,-3.7720404000000003
11.42175,-12.894969999999999,0.6591429,0.49289843,0.32454398,-3.5953085
11.375014,-15.256179000000001,1.736955,0.51101494,0.39800490000000005,-3.4739207999999997
10.820604,-16.669179999999997,2.9503174,0.61001,0.30963886,-3.306247
9.95215,-17.075197,3.8821117999999997,0.73989743,0.036547195,-3.0225263
9.230069,-16.897126999999998,4.6173425,0.83891,-0.28602457,-2.7611458
8.825947,-16.240866,4.942973,0.79951787,-0.5617691,-2.5391748
8.42602,-15.722732999999998,4.581764700000001,0.6616543,-0.7044149000000001,-2.3352854
7.7910960000000005,-15.363075,3.7907684,0.33320079999999996,-0.5798682,-2.053153
6.9687456999999995,-14.89749,3.028033,-0.060161497,-0.19552924,-1.6560381999999998
6.0774989999999995,-14.275120999999999,2.1029136000000004,-0.42694244,0.11958996,-0.89589494
5.296281,-13.389381,1.6056378,-0.66594785,0.22179644,0.062290803
4.504384,-12.668746,1.3914046,-0.9805609000000001,0.41343358,0.94806284
3.324282,-12.131611,1.1720958000000001,-1.2978094,0.69078386,1.9658865
2.2086701,-11.490252499999999,0.8031876,-1.3063266000000002,0.83079416,3.1098452
1.8566269,-11.101051,0.25640944,-0.94275707,0.6780081,4.0467377
1.5671965,-11.125539,-0.31787340000000003,-0.28427923,0.4954117,4.5929036
1.298165,-11.599927000000001,-0.87722594,0.42263147,0.3415784,4.7041683
0.37495115,-11.748559,-1.3659496000000002,0.72872734,0.30590385,4.4864388
-0.99593043,-12.377467999999999,-1.743745,0.30073768,0.41184536,4.0265093
-2.7552953,-13.350681,-1.8960928,-0.65584236,0.5917713000000001,3.5729682
-2.6354412999999997,-14.458554999999999,-1.8360653999999998,-1.5160627,0.69451886,3.3068230000000005
-1.7432853,-15.073529999999998,-1.6743323,-1.8812555,0.5939005999999999,3.267937
-1.7905849999999999,-15.515385,-0.53125423,-1.6417091000000001,0.34475487,3.4877787000000002
-1.4844817,-14.565375,1.2203342,-0.9715026,0.070092425,3.8471072
0.6943471999999999,-13.890794,2.7116156000000005,-0.35613444,-0.13217378,4.064837000000001
4.0572906,-13.645885999999999,3.4838126000000003,0.031922072,-0.23064525,3.9354906
7.191502000000001,-13.730076,2.922899,0.11920599,-0.18381807,3.4915137
9.003874,-13.716209,1.0736557,-0.24647539999999998,-0.079482295,3.137526
9.557960000000001,-13.152078,-1.3477153999999998,-0.8213869,0.19359192,2.9123437
8.702558999999999,-12.740485000000001,-2.293693,-1.1615514999999998,0.6407453000000001,2.604136
7.6533240000000005,-13.033106,-1.0344292,-1.1940146999999999,1.1161032,2.2927167
6.631881,-13.610845000000001,1.3693302,-1.0652093999999999,1.6180948,2.0121900000000004
5.805719,-13.746835999999998,3.6932669000000002,-0.8810247999999999,1.9231084999999999,1.8093654
6.122213400000001,-13.869610999999999,4.827237,-0.5738643,1.8299602,1.6794779
7.9868274,-13.502388,4.2141585,-0.21347122,1.4344337,1.4585716999999998
10.397682000000001,-12.471579,2.9482105,-0.023980823999999998,0.89784974,1.0396228
11.598566,-11.059919,1.4050421999999998,-0.023439772,0.32773793,0.40402627
11.092116,-10.346352,-0.28047594,-0.04579744,-0.18327703,-0.25762805
11.126975999999999,-9.87658,-0.01682645,0.06649704,-0.45052183,-0.89324206
11.563132000000001,-9.062235000000001,1.6693236,0.3981445,-0.40100685,-1.3281257
11.156521000000001,-8.116497,2.9825048,0.80430007,-0.36800268,-1.7055706999999998
11.218233,-7.7542257,3.3233243999999997,1.1087902,-0.61128414,-2.1436658
11.46701,-8.170242,2.8574990000000002,1.2429363000000002,-1.1792666,-2.6195647999999996
11.817674,-8.106133999999999,2.4424975,1.2115377,-1.8164513999999998,-3.0784292
12.618917999999999,-7.506933,1.674859,1.0332174,-2.287568,-3.5053542
13.16516,-6.693192,0.78926295,0.835716,-2.4382074,-3.7986567000000004
14.0200815,-6.857309299999999,0.57720375,0.7393564,-2.247129,-3.9679537000000003
14.149473,-7.4092592999999995,1.3929178999999998,0.7377680999999999,-1.8909943999999999,-4.031815
13.5184,-7.5133595,2.8802629,0.79738855,-1.5050497999999999,-4.0291624
11.622107000000002,-6.83512,3.8684747,0.8947954,-1.1813958999999998,-4.0046754
10.617488999999999,-6.3482833,3.5932847999999997,0.9725149,-0.97220075,-3.9477252999999997
10.666025,-7.098578,2.3051374,0.9618684000000001,-0.8939402,-3.7816224000000003
10.999547,-8.573416,1.3230549999999999,0.9118298,-0.8955459000000001,-3.5900025
11.348438999999999,-10.372793,1.0223335999999998,0.7830071,-0.9216211,-3.3956952000000005
11.563898,-12.238392999999999,1.3653846,0.6483375,-1.0403384,-3.164666
11.232656500000001,-13.703166,2.500763,0.61533326,-1.1968246999999999,-2.9022207000000004
10.4061,-14.095987,3.5536942000000002,0.5557128,-1.2718912,-2.6094418
9.345709,-14.0167,4.0243754,0.37152824,-1.1499975,-2.2772882
8.493497999999999,-13.710961,4.0342875,0.08299041,-0.79388046,-1.9078543000000001
8.016247,-13.420353,3.6058402000000003,-0.20921262,-0.38449603,-1.5724718999999998
7.4357204,-13.248161999999999,2.9024718,-0.38063887,-0.16465436,-1.213702
6.6389585,-13.181881,2.046305,-0.37638026,-0.20617574,-0.80168205
6.157398000000001,-12.896914,1.5922973,-0.2353053,-0.25089110000000003,-0.39605013
5.448054,-12.7718115,1.182774,-0.22678809,-0.13323843,-0.035639625
4.496387,-12.843877,1.1590234,-0.4886922,0.11159635,0.44128904
3.8120192999999998,-12.791271,1.4712370000000001,-0.73036796,0.30003956,1.1562108
3.1062946,-12.761919,1.257971,-0.5137202000000001,0.33997267,1.7896606
2.290437,-12.491355,0.95350516,-0.011746066000000001,0.15365879,2.2203207000000003
1.5806136,-11.991617999999999,0.82033974,0.51523864,-0.06298893,2.3491432999999997
1.1101531,-12.26154,0.73047096,0.7904770999999999,-0.15240215,2.315092
0.40747398,-12.914361999999999,0.85079396,0.64886105,-0.021991148999999998,2.2208443
-0.35449508,-13.216185000000001,1.318755,0.16285667,0.38042942,2.1436658
-0.73773974,-13.285760999999999,1.5340608,-0.41364303,0.9521295,2.169741
-0.87863374,-13.97349,0.85134935,-0.801717,1.4046061,2.3592489
-1.4503499,-14.597389999999999,0.21407036,-0.8458913,1.548875,2.7068486000000003
-1.4926698,-14.777319,1.086096,-0.49933869999999997,1.3497853000000002,3.1715775
0.03193865,-13.493089000000001,2.777791,0.16125096,0.92605424,3.6299183
2.2663417000000003,-12.381336,3.1193573,0.7287099,0.51242864,3.821538
4.8606987,-11.805139,2.4773188,0.93898714,0.20847958,3.6996443
6.5294576,-11.704639,0.96586883,0.78087777,0.063687064,3.47235
7.334225,-11.536442,-0.46904328,0.50406855,0.041852996,3.2556849
7.360188000000001,-11.337378,-1.0322361,0.14953981,0.22019073,3.0294552
6.5100646,-11.081199,-0.54834884,-0.26193902,0.62475806,2.7925617999999996
5.340085,-11.015185,0.5047073000000001,-0.61379737,1.0942690000000002,2.593472
4.4355936,-10.66635,1.5982828000000002,-0.7527256,1.3748133,2.3693717
4.3095055,-10.211864,2.4872212000000005,-0.6760881999999999,1.3364858999999998,2.0984093999999995
5.5055337,-9.686460499999999,2.5250494,-0.49349186,1.0948101000000001,1.7838136999999998
7.882918400000001,-9.206605999999999,1.2227668,-0.33592352,0.8057486999999999,1.3398544
9.826531,-8.995581,-0.36687790000000003,-0.35934582,0.5960125,0.7952767
10.707108999999999,-8.633577,-1.4752975,-0.4024729,0.46399578,0.126676
11.4103155,-8.595281,-1.8177544999999997,-0.4104491,0.40437534,-0.536043
12.152739,-8.584783999999999,-1.7600352,-0.38224456,0.43737950000000003,-1.1673809
12.640197,-8.62854,-1.492459,-0.15334463,0.51775193,-1.5980409
12.773593,-8.306051,-0.8443679000000001,0.18840829,0.38840556,-1.9791859
13.015636,-7.935361400000001,-0.15999971,0.49607494,-0.06085963,-2.400264
13.498969,-7.810489,0.18103996,0.70155257,-0.73426,-2.8325124
13.801347,-7.177950999999999,0.32093796,0.7271042,-1.3416346000000001,-3.2333446
14.034628,-6.494109,0.052509632,0.57592374,-1.655183,-3.5261235
14.222449,-6.036903,-0.063963495,0.3294658,-1.6429307,-3.6746510999999997
15.14706,-6.736422,0.5911476,0.16763887,-1.3432229,-3.7273426
15.069354,-7.157610000000001,1.0477601,0.16018632,-0.91312134,-3.7401185
13.949585999999998,-7.108442299999999,1.7847338,0.25865778,-0.42442918,-3.7656699999999996
11.716811,-6.249489,2.402476,0.3991917,-0.050754175,-3.7763166
10.850522,-6.093253,2.2563531,0.5210855,0.20687388,-3.7438532999999996
11.076046,-7.3952484,1.6348375,0.55728364,0.35379568,-3.6384529999999997
11.692496,-9.420589,1.1690983,0.5370727,0.39638174,-3.4963133
12.074573,-11.374564999999999,0.9999623,0.5349434000000001,0.3037571,-3.3414154000000003
11.807686,-13.036132,1.2336556,0.56101865,0.12808971,-3.1151682999999997
11.123451,-13.832031,1.8675731,0.6291563,-0.11782718,-2.8005729
10.237587,-13.684922,2.8397148,0.6728069999999999,-0.30414107,-2.4561496
9.322744,-13.065436,3.448522,0.6541669,-0.36695546,-2.120261
8.602032000000001,-12.448269,3.4741687999999993,0.57114154,-0.40900046,-1.7470919999999999
8.051518,-12.233969,2.9418612,0.36831683,-0.44626322,-1.3345486
7.442903,-12.202767,2.1494951,0.0723439,-0.36802012,-0.8836601999999999
6.7041287,-12.153944000000001,1.2048485,-0.335941,-0.16786577,-0.36517525
5.873839,-11.89427,0.700122,-0.73197365,-0.040631264,0.24272294
4.9232445,-11.539286,0.45464933,-0.9502271000000001,0.039200094,0.7787659
3.7280303999999997,-11.324527,0.34135570000000004,-1.1035542,0.11105530000000001,1.3238671
2.6634824,-10.987346,0.29785785,-1.1727566,0.17493436,1.9823624
1.9505273,-10.531384,0.11885775,-0.9885545,0.19835667,2.7611458
1.2583063,-10.141943,-0.246756,-0.4988151,0.08285078,3.4595568
0.8284608,-10.486211,-0.8581584999999999,0.203837,-0.07311184,3.9258912000000006
0.5629534,-11.315447,-1.5673019,0.9437519,-0.103445664,3.9950762
0.2484511,-12.030566,-1.9636284,1.304686,-0.04649557,3.6538641000000003
-0.5036729999999999,-12.255028999999999,-2.190618,0.91500634,0.08391543,3.172101
-0.6331802,-12.795083,-1.6071701999999999,-0.033562682999999996,0.3687008,2.7691392999999995
0.6130784,-14.322297,-0.7159045999999999,-1.0630801,0.71897095,2.4731665
1.5291,-15.464656,0.05984546599999999,-1.6747307,1.0213318,2.372548
1.6392716,-15.709257999999998,1.0502023,-1.673125,1.1560188999999998,2.583349
1.4340023000000002,-14.239945,2.5412536,-1.1684979,1.12195,2.9655588
2.336195,-12.83475,3.5417712,-0.5137202000000001,0.9356360999999999,3.2945532999999996
4.728673000000001,-12.125808000000001,3.8597309999999996,-0.06710791,0.62741095,3.4398693999999996
8.112005,-11.952917999999999,3.1241076,0.18839084,0.31440362,3.4063241
10.176449,-11.384955999999999,0.7466749,0.29057986,0.046635196,3.2870834
10.448584,-11.035335,-2.00116,0.23630013,-0.07309439,3.069912
9.810367,-10.707799000000001,-3.2345377999999996,0.016982054,0.099885195,2.7994907
9.031666,-10.803673,-2.1915565,-0.23905775,0.48846530000000005,2.5604503
7.694178999999999,-11.011844,0.22135831,-0.29068458,0.87601566,2.2660832
6.1177697,-10.82499,2.6790542999999998,-0.28164378,1.1022452,1.9115544999999998
5.6743345000000005,-10.244962,3.9560065000000004,-0.30239573,1.1943463,1.5916356000000003
6.642856599999999,-9.805482000000001,3.5296662000000003,-0.34925783,1.1900701999999999,1.266376
8.2816105,-9.527486999999999,2.0463626,-0.34178782,0.96171135,0.79953533
9.524613,-9.076102,0.9231659,-0.26832690000000003,0.5049760999999999,0.15700983
10.437915,-8.674499,0.12922943,-0.104911745,-0.06352998,-0.5940926
11.436967999999998,-8.367985000000001,-0.32380143,0.09896017,-0.51920056,-1.2115726
11.783014999999999,-7.957522,-0.43957543,0.20488420000000002,-0.6357710999999999,-1.6629846000000001
11.668133000000001,-7.383881,0.12498691,0.31880185,-0.515483,-1.9318176999999999
11.9816675,-6.7960277,0.76813656,0.4657411,-0.4494572,-2.2959107999999997
12.361369,-6.9173465,0.57159173,0.6265034,-0.6304478,-2.7824737999999996
12.608326,-7.165013,0.23638432,0.71111697,-1.0201274999999999,-3.2727542
12.702217,-6.8530197,0.14678372,0.63287383,-1.4028608,-3.6522934
12.972465,-6.2555513,0.32387802,0.38428658,-1.6264374,-3.8545769999999995
13.391843,-5.915306,0.74983525,0.11119492,-1.5625584,-3.9173915
13.922196,-7.181102,1.4240136,-0.00057595863,-1.252745,-3.9450724000000004
13.522719,-8.23093,1.8510627,0.05372123400000001,-0.8417896999999999,-3.9695593999999996
12.22487,-8.389091,2.0906074,0.21713641,-0.40475932,-3.9786177000000005
10.507807000000001,-7.376066000000001,2.4848173,0.39226276,-0.05873033,-3.9189796
10.247183999999999,-6.9732556,2.520721,0.6259623000000001,0.14193018,-3.8087970999999996
10.905664999999999,-8.479324,2.2301414,0.8223816999999999,0.23935445,-3.6592050000000005
11.572958,-10.7215805,1.8235198000000001,0.92991143,0.24148375,-3.4931195
11.683963,-13.089608,1.4769638999999999,0.9362993000000001,0.15470599,-3.3414154000000003
11.255103,-14.624521,1.6684521,0.90277153,0.013648475,-3.143914
10.539486,-14.931458,2.5640368,0.91127133,-0.11517428,-2.922484
9.667164,-14.395109,3.6700144,0.9602627,-0.16467181,-2.6909137000000003
8.901814,-13.614245,4.323813400000001,0.9948551,-0.20886356,-2.3459668
8.238142,-13.113005,4.2389245,0.97036815,-0.25464353,-1.9238415
7.558265,-13.0287285,3.671221,0.72602206,-0.32597515,-1.4750825
7.043626299999999,-12.859467500000001,3.2664285,0.20594884,-0.27858946,-1.0667801000000001
6.4525747,-12.666658,2.4433882000000002,-0.34552282,0.004590215999999999,-0.72450364
5.876252,-12.297080000000001,1.6102347,-0.7564781,0.27820548,-0.27682668
5.171427700000001,-11.770728,0.93872815,-1.0268993,0.21059142,0.40507346
4.166734,-11.193142,0.6965403,-1.3308485,-0.031590457999999995,1.3047035
3.4966357000000006,-10.563802,0.76682454,-1.5326084999999998,-0.22003366,2.2655594
2.6811996,-10.231380999999999,0.49327257,-1.4303846000000002,-0.21790436,3.1747713
1.7100921000000002,-10.205764,-0.12898044,-0.99921846,-0.21258110000000002,3.8449602
1.2838284,-10.776167999999998,-1.2503096000000002,-0.37374482,-0.29668853,4.267627
1.1877731000000002,-11.385703,-2.624342,0.23097688,-0.35257396,4.442753
1.2199223,-11.813997,-3.2940864999999997,0.48754027,-0.24345598,4.311801
0.63838035,-11.738914999999999,-3.0995336,0.17666222,0.015760323,3.9019102999999995
-0.70027524,-12.139292,-2.8510442000000005,-0.63297856,0.43045056,3.3509624
-1.316514,-13.262364000000002,-2.9023757000000003,-1.5895586000000002,0.9404183,2.9139144
-1.0309719000000002,-14.57412,-2.7311904,-2.2421896,1.3215633999999998,2.7286827999999996
0.23430616,-15.192809,-1.0811256999999999,-2.3901935,1.4812608999999999,2.8180959999999997
1.5963196000000002,-14.74722,1.1143285,-2.1506472000000003,1.4200348,3.0571012000000004
3.3786497000000004,-13.721964999999999,2.6741798,-1.7290453000000001,1.2305268999999999,3.2647257
5.6162515,-13.448154,3.0848139999999997,-1.2659048000000002,0.93670076,3.2785661
8.246139,-13.503001000000001,2.4087009999999998,-0.72933817,0.5608615,3.1236506
10.656103,-13.233001999999999,0.83015597,-0.25289822,0.1802576,3.023591
11.9039135,-12.535504,-1.0611964,-0.038362335,-0.040648717,3.0086684
11.611668,-11.741731,-1.8687605999999999,-0.058590703,0.016301375,2.9943044
10.141895,-11.452473,-1.3269719,-0.10649999,0.34101987,2.9091322
8.41695,-11.588875,0.59063995,-0.19486602,0.82650065,2.6956785
6.855816,-11.528149,2.4803932,-0.42428955,1.2827122,2.3869298
6.3043356,-11.321816,3.823406,-0.7362496999999999,1.5169181,2.046765
6.867241,-11.136332000000001,4.2743970000000004,-0.89116514,1.4509096000000001,1.6837191999999999
8.16259,-10.574126,4.23766,-0.7889411999999999,1.1602775,1.2365658000000002
8.939039,-9.729088,3.9323134,-0.52331954,0.77593845,0.63929665
9.088801,-9.372993,2.843555,-0.14269812,0.37241834,-0.16184439
9.469824000000001,-9.090363,1.6094877,0.36299357,0.08126253,-0.9422159999999999
10.0531,-8.651821,1.1455296999999998,0.7180459,0.054628804,-1.5576017
10.93838,-8.035936999999999,1.2538433999999998,0.9522690999999999,0.20900318,-1.9174361
11.672883,-7.2009735,0.9630341,1.1801218,0.18664551,-2.244284
12.183701,-6.8624907,0.21662736,1.4138038999999998,-0.19289379,-2.6733557999999995
12.610078,-6.836748599999999,-0.024641125,1.5612494,-0.8641474,-3.1630776000000003
12.798866,-6.485499400000001,0.70915294,1.5655253999999998,-1.6141851999999999,-3.6176836000000003
13.119019,-5.9030190000000005,1.7576505,1.478224,-2.2109308,-3.9386845
13.496019,-5.143301,2.8084848,1.3414077,-2.4536712000000005,-4.135644999999999
14.618603,-5.668943,3.749521,1.1817101,-2.2817214,-4.2117586
14.703320000000001,-6.7722387,4.106439,1.086415,-1.8377793000000002,-4.187289
13.493011,-7.598200299999999,3.4653866,1.0656631,-1.2170705,-4.145226999999999
11.665154,-7.3943389999999996,2.9466112,1.1103785,-0.6623874,-4.088259
10.945783,-7.1680865,2.359141,1.1912745,-0.29084167,-4.051014
11.328252,-8.195534,1.8215661,1.231225,-0.07737044,-4.04035
12.090824000000001,-10.267152000000001,1.2896128,1.2056559,-0.00710349,-4.007887
12.5981455,-12.917532000000001,1.2238488,1.1114431999999999,0.0008726646000000001,-3.8992925000000005
12.542236,-14.888420000000002,1.8001811999999997,0.94429296,-0.0039095376000000005,-3.7214956
12.183633,-16.038038,2.656022,0.7893775,-0.010297443,-3.4782317000000003
11.344503,-16.186729999999997,3.4258153,0.7185695,-0.025202554,-3.1817179
10.419441,-15.668844,4.008842,0.71645766,-0.13912019,-2.8250597
9.68807,-14.902211,4.0144343000000005,0.66055477,-0.30681142,-2.4183630000000003
9.138064,-14.27086,3.5883910000000006,0.53544956,-0.47980845,-1.9488521
8.87838,-13.985192999999999,2.898593,0.41568506,-0.5617866,-1.373417
8.500374,-13.751538,2.0184557,0.32518974,-0.4494572,-0.8160636
7.7054505,-13.518410000000001,1.2828516,0.12397074,-0.2237512,-0.2491283
6.5759050000000006,-13.080989,0.66683304,-0.19167206,-0.075764745,0.37526324
5.25171,-12.5528,0.23666205,-0.5717524,0.06740461,1.0241765999999999
4.2087193,-12.049528,0.11557291,-0.95822066,0.25851816,1.6491266
3.0485177000000006,-11.538424000000001,0.12090719,-1.1759505,0.37241834,2.3225095000000002
2.0825531,-11.199989,-0.22646275,-1.1179183000000001,0.32239723,2.9575825
1.2005293,-11.028383,-0.76259154,-0.8081049,0.18771017,3.4292227999999993
0.47042233,-11.1244955,-1.1311741000000002,-0.34232888,0.06154031,3.6612991999999998
0.048046842,-11.212707,-0.9489849,0.008988446,0.0019198620999999999,3.6879156
-0.25385243,-10.96215,-1.0524911,-0.06817256,0.014172073,3.5649571000000004
-0.7751276,-10.836310000000001,-1.5977466,-0.6037094,0.16268215,3.3328633
-0.60563725,-11.999853,-2.2897189,-1.3388246000000001,0.35273105,3.1220624
0.045700524000000006,-12.64782,-2.202608,-1.8621092000000001,0.5353274,3.0491426
0.8599015,-13.370267000000002,-1.6365135,-2.0473585,0.6343399000000001,3.1816828
1.1739538,-13.088919,-0.26891676,-1.8759496999999998,0.61037654,3.4515805
1.7702343,-12.080146000000001,1.1625477,-1.4479600000000001,0.48261845,3.7587235
3.4478326,-11.515086,2.210327,-0.84377944,0.25797713,4.0211687000000005
5.6734824,-11.417239,2.397381,-0.29974285,-0.04703662,4.1116467000000005
7.419803,-11.69353,1.3433674999999998,0.011658799,-0.30520573,4.0451144999999995
8.81322,-12.079801,-0.26447308,-0.029338984,-0.35417965,3.8726237
9.348122,-12.334171000000001,-1.4306313,-0.21244147,-0.09014626,3.6059550000000002
9.120941,-12.620594,-1.0642993,-0.41578978,0.47464228,3.2982709999999997
8.412276,-13.204692999999999,0.52216583,-0.68567,1.2560786,3.0336964
7.454682400000001,-13.525095,2.2833312,-0.92788684,1.9906876,2.8404536
6.920689,-13.551957000000002,3.6835082000000003,-1.0034771,2.3446927000000004,2.596125
7.198511999999999,-13.298373000000002,4.5467997,-0.79161155,2.1014287,2.2522425999999998
8.204824,-12.804094000000001,4.363835,-0.33648202,1.3641493,1.7720851999999998
9.61839,-12.147911,3.2988364999999997,0.067544244,0.472513,1.1237128
10.653958,-11.495549,1.8935357,0.28047442,-0.18861774,0.30925488
7.562469,-11.365056,0.8490030999999999,-1.2119043,1.2437391000000002,2.7933996
6.955644599999999,-10.915022,2.1784747,-1.2954706,1.4023895,2.54003
7.009035000000001,-10.573561,2.8983824,-1.2071046,1.2692907,2.2525568
8.2264,-10.279696000000001,2.7223127000000003,-0.9670346,0.890275,2.0007756000000003
9.401618,-9.937163,2.1291634999999998,-0.70991266,0.45856779999999997,1.6712575
10.382292999999999,-9.773878,1.6410528000000002,-0.55073863,0.13011430000000002,1.1612897
11.124333,-9.434936,1.2783505,-0.46556658,0.064647,0.5246284999999999
11.487025,-9.121583,1.2973700000000001,-0.2441192,0.07901105,-0.0763407
11.710701,-8.715871,1.51032,0.005497787,0.1412844,-0.6512696
12.089952,-8.186886999999999,1.3716766000000002,0.22322759999999997,0.25467846,-1.1356857
12.161069,-7.508887,1.2278711000000002,0.51602405,0.30206412,-1.5487528
12.788753,-7.3810077000000005,1.3738792,0.82103777,0.022602014,-2.016658
13.396047,-7.537866,1.6252991,1.2032473999999997,-0.52834606,-2.4978979
13.527335,-7.151461599999999,1.7585316000000002,1.4534403999999999,-1.1495786,-2.8859543999999997
13.982713,-6.4039917,1.8242859,1.4912268,-1.6217424999999999,-3.1952439999999998
14.124220000000001,-5.3733644,1.9324464,1.4592873,-1.7926276999999997,-3.4656653
14.698263,-5.134633999999999,2.554029,1.4358648999999999,-1.7042616999999998,-3.7610972
14.906367000000001,-5.722745400000001,3.3725873999999996,1.3640097,-1.4013598,-4.02726
14.234257000000001,-5.710573,3.2425249,1.2580681999999999,-0.9536828000000002,-4.22635
12.649065,-5.2849900000000005,3.2666008,1.1883423,-0.5980894,-4.3205800000000005
11.236533999999999,-4.5080137,3.0368629,1.1840837,-0.31808627,-4.3418730000000005
11.428741,-5.44091,2.7443299999999997,1.228258,-0.18978710000000001,-4.3083277
11.953608000000001,-7.482953,2.6574395,1.3155768,-0.19404571,-4.2252849999999995
12.250604,-9.481374,2.2028763,1.3853028,-0.28934067,-4.0836864
12.502416,-10.966555,2.2796342000000003,1.3858438,-0.41175807,-3.8867260999999997
12.836694999999999,-11.884922999999999,2.9169805,1.3113008,-0.49907690000000005,-3.6253629999999997
12.671063,-12.240452000000001,3.5086834000000002,1.2053767,-0.5794493000000001,-3.2516532000000002
12.079246000000001,-12.431682,3.6224751000000004,1.1271162000000001,-0.68484974,-2.7991938999999997
11.205898,-12.54464,3.4762757000000004,1.0329033,-0.7487288000000001,-2.3759866
10.474613,-12.715644000000001,3.2643697,0.8811993,-0.8285776,-1.9820657
9.790331,-12.80376,3.0357613999999997,0.73853606,-0.92439616,-1.4726216
9.162111999999999,-12.77796,2.7404990000000002,0.64004713,-0.86849326,-0.929126
8.453610000000001,-12.552817999999998,2.4437425,0.49577823,-0.581055,-0.44844490000000004
7.5057453999999995,-12.210132000000002,2.051371,0.25303784,-0.34363788,0.08759808
6.5896955,-11.850255,1.4981095,-0.09667379,-0.07853982,0.72425926
5.434090599999999,-11.601047,0.98687077,-0.49220031,0.19079939999999998,1.3124702
4.305530999999999,-11.214231,0.7484945,-0.7594102,0.44259804,1.9092156999999998
3.4526398,-10.795331,0.65615493,-0.72694707,0.50008917,2.496903
3.1787335999999997,-10.567011,0.33425927,-0.37402406,0.43833944,2.9642847000000003
2.955757,-11.061394,0.050134584,0.08909906,0.38564795,3.125588
2.4388585,-11.667098,0.06630981,0.43509313,0.3877598,3.0105882
2.2312331000000003,-11.54871,0.30317298,0.24080308,0.41011748,2.8982763
1.9995509999999999,-11.509388000000001,-0.103008136,-0.4778188,0.48466048,2.920634
1.7641914,-12.292071,-0.67364216,-1.1804883,0.5937785,2.9855776
2.0490823000000002,-12.914698,-0.9917071,-1.6867211,0.7284655,3.0899134
2.2695117000000002,-13.0656185,-0.9180326999999999,-1.9102978,0.84929466,3.2506757
1.821748,-12.118328,0.17863618,-1.8230138999999999,0.8987921999999998,3.5035217000000003
