accx,accy,accz,gyrx,gyry,gyrz
5.761962400000001,0.16305472,-3.3156532999999997,-0.04469788,-0.6166946,0.6531022
5.8611684,-0.03086605,-3.3419703999999997,-0.12454669,-0.35159656,0.75105006
5.8090134,-0.33614590000000005,-3.3671860000000002,-0.24698155,0.0029146996999999996,0.7196342
5.634773,-0.7433709,-3.1532786,-0.18256144,0.22170918,0.63126814
5.6984105000000005,-1.1036503,-2.7262294,-0.059602994000000006,0.06892305,0.5578072
6.3704348,-0.98515654,-2.2512965,-0.06227334599999999,0.009826204,0.31454325
7.365139,-0.8214889000000001,-1.9775243999999998,-0.26879814,0.10246828,0.046251226
8.588375,-0.93677455,-1.9735116999999998,-0.54454273,0.28771752,-0.14962707
9.721426,-1.3319231000000002,-2.2681517999999996,-0.55892426,0.34199727,-0.21031217
10.217065,-1.6036363999999999,-2.617734,-0.34812337,0.35744342,-0.2672797
10.657271000000001,-1.7817363000000002,-3.0714638,-0.032986722999999996,0.41973424,-0.45198792
11.660002,-1.478228,-3.4079642,0.46153486,0.5017123,-0.6383018
13.962726000000002,-2.5406310000000003,-3.7939572,1.0140886,0.38299504,-0.7740535
13.776628500000001,-2.211869,-3.4435709,1.4942287,0.17697638,-0.9561088
14.058110000000001,-1.5503508999999998,-3.6472309999999997,1.7013294999999997,0.060946897,-1.0870434
14.153801999999999,-0.6059916,-4.0355134,1.6283747,0.039636426,-1.1520046
14.016326999999999,-0.9865835,-4.4442224999999995,1.3526301,0.10086258,-1.1935258999999998
13.249914000000002,-1.8403462,-3.8888635999999996,0.9784141,0.14611897,-1.2557993
12.661389999999999,-2.778452,-2.3997083,0.64359015,-0.060946897,-1.2334416000000001
12.46928,-2.8959975,-1.3327563999999998,0.44024184,-0.35212016,-1.0407398
11.915692,-2.5117571,-0.3501568,0.34601152,-0.6284058000000001,-0.78096503
10.315102,-1.7635306,0.6960805999999999,0.21505947,-0.70719,-0.5669702
8.888933,-0.92935246,0.6450075,-0.08567821,-0.5213997,-0.56217057
7.728521300000001,-0.2261563,-0.10398497,-0.47162285,-0.15676548,-0.65640086
6.4757414,0.072103776,-1.3124917999999999,-0.8394510000000001,0.21106267,-0.6521423000000001
5.8130736,0.13369223,-2.278083,-1.1205188,0.64437556,-0.5036148
5.5808845,-0.00908839,-2.968542,-1.2232664,0.8972214,-0.33754668
5.6141442999999995,-0.28694028,-3.2362613999999996,-0.9933018,0.77372193,-0.16772614
5.0987496,-0.66833663,-2.9736083,-0.55518925,0.44102725,-0.035168383
4.9557867,-1.1922166,-2.3679900000000003,-0.36674604,0.28665286,0.10161307
5.7080736,-1.8894657,-2.1551838,-0.18629645,0.39418262,0.49446923
7.5620766,-1.9708493999999999,-2.8729174,0.114458695,0.50223595,0.9027540999999999
9.518417,-1.8599116999999998,-3.7738078,0.30129617,0.36808994,1.0124305
10.234361,-2.3237834,-4.232537000000001,0.27096236,-0.048694685,1.047023
9.948636,-3.2077227,-4.1349874,0.11232939,-0.48893654,1.1013203
9.751353,-4.28406,-3.6994534,-0.08728392,-0.51448816,1.1646582
9.653967,-4.881997599999999,-3.0824006,-0.18043214,-0.093951076,1.0635164
9.580771,-4.940158,-2.1964982,-0.0074351025,0.36650170000000004,0.7989594
10.481557,-5.211860700000001,-2.4362532999999997,0.4327893,0.42505747,0.48382273
10.114737,-5.705335,-3.3576763,0.7915766,-0.003979351,0.1441991
7.977537599999999,-4.6120563,-2.307455,0.804876,-0.42292818,-0.044750242999999995
7.798690299999999,-3.0844883999999997,-2.194123,0.5094442,-0.49958304,-0.08042477
8.813372,-2.5030324,-3.3699155,-0.0058293995,-0.15783012,-0.005899213
9.65254,-2.3604243,-4.857711,-0.46841148,0.20732766,0.08086111
10.454837,-2.0278697,-5.250073,-0.65100783,0.10831513,0.13144074
11.848713,-1.7064146,-4.8003073,-0.65633106,-0.31859240000000005,0.23204152
13.207059,-1.3843657,-3.8178802000000003,-0.5557303000000001,-0.658216,0.3432888
13.187378,-1.128914,-2.6583207000000004,-0.48066369999999997,-0.6976081000000001,0.4140968
12.050448,-0.6947686,-2.5536747,-0.46202356,-0.55813885,0.43059018
10.3497505,-0.07412448,-3.770025,-0.45458844,-0.5011713,0.45029494
8.194251,0.373189,-4.5607724,-0.4641702999999999,-0.57517326,0.47637016
6.873533,0.539088,-5.002924,-0.49289843,-0.6204122,0.5429196
6.170595,0.5029355999999999,-4.8381457,-0.55838317,-0.46232027,0.62330943
6.1292615,0.35859397,-4.2015652999999995,-0.6408849,-0.06679375,0.6121219
6.0487785,-0.14676456,-3.4508586,-0.6754948000000001,0.1285435,0.63235027
6.2941074,-0.6258922,-2.9164536,-0.5823291,0.1344078,0.7334921
6.6904054,-0.704671,-2.4079254,-0.3805865,-0.10353293,0.8537976
7.6277637,-0.46955085,-2.31639,-0.31883675,-0.26110125,0.7973710999999999
8.313349,-0.43267056,-2.4896537999999997,-0.42636648,-0.24991369,0.55941296
8.758057,-0.5370099,-2.7777145,-0.680818,-0.026337017999999997,0.1953198
9.412889999999999,-1.0865941000000001,-3.1396889999999997,-0.8080351,0.23448499,-0.15707964
9.998436,-1.6699365000000002,-3.322606,-0.7090226,0.47616073,-0.31782445
10.853328,-2.0289422999999998,-3.2606632999999996,-0.45724136,0.6688625,-0.43493605
11.297807,-1.7232026999999999,-3.0027695,-0.024993114,0.7604225,-0.5382071999999999
11.595884,-2.209829,-3.0322084,0.42640138,0.76361644,-0.618056
11.632572999999999,-2.7795436000000002,-2.8478742,0.85812604,0.6981316999999999,-0.7431612
12.446017999999999,-2.4439723,-2.9202173,1.2052022,0.52246433,-0.9182875
13.207489,-1.4800763000000001,-3.2296631000000002,1.3707466999999998,0.36808994,-1.1136597
14.154960999999998,-0.9903854999999999,-3.6123428,1.3132555000000001,0.34733796,-1.2653637
14.483312,-1.2646365,-3.3377277999999997,1.1210948,0.33882076,-1.3398893
13.819524,-2.0555944,-2.115574,0.9198758,0.15835372,-1.2563229
12.624146000000001,-2.7085986,-0.819066,0.7702836,-0.15515977,-1.0748086000000001
11.580236,-2.9082751,0.32626265,0.6441312,-0.32656854,-0.95235634
10.331161999999999,-2.673203,1.06564,0.42694244,-0.19826939999999998,-0.8735722
9.206118,-1.9945998,1.1067915000000002,0.19324285,0.04124213,-0.7820121999999999
8.487703,-1.1887785,0.5179616,0.05057964,0.16421802,-0.6335022
7.782487,-0.5362533,-0.33080205,-0.072902404,0.15144221,-0.5201081
7.2443943,-0.337592,-1.4022073,-0.18095574,0.018884463,-0.47219880000000003
6.7151995,-0.44982259999999996,-2.255051,-0.24322908,-0.09286897,-0.38435640000000004
6.0467379999999995,-0.8009754,-2.701464,-0.24057618,-0.1306728,-0.27417377
5.5097949999999996,-1.3752965,-2.8016853,-0.18521434,-0.21957988,-0.09904744
5.884919,-1.6328168,-2.8726877999999996,-0.299132,-0.25843089999999996,0.048921578
6.8564095,-1.6674082,-3.0253707999999997,-0.47479936,-0.09447467,0.26823965
7.640347500000001,-1.5426513000000002,-3.3137953,-0.40399137,0.07531096,0.606275
7.9343843,-1.5328828,-3.4198587,-0.24589944,0.10299188,0.7739488
8.320195,-1.7943584,-3.5556099999999997,-0.23897047,0.05242969,0.77288413
9.061785,-2.2483375,-4.0475129999999995,-0.30925488,-0.19668116,0.7776838
9.648537,-2.78076,-4.256833,-0.35662309999999997,-0.29143506,0.8213345
9.949172,-3.4031279999999997,-4.080754,-0.37046358,-0.024748769,0.7792720999999999
10.049068,-3.4460702000000003,-3.813111,-0.22513002,0.40111157,0.5386784
10.421720500000001,-3.6237487999999995,-4.108660700000001,0.16503833,0.48520154,0.26132816
11.217065,-4.542768,-5.150972,0.59302795,0.15357152,0.04680973
9.5539,-3.9421968,-4.0350532999999995,0.7511374,-0.16632988,-0.11979939999999999
8.481757,-3.0752275,-2.6604178,0.6446723000000001,-0.24937265,-0.19378391
9.087595,-1.9660993000000002,-2.7604187000000002,0.39287362,-0.06892305,-0.16238543
9.786864,-2.0739918,-3.7776767999999996,0.11712904,0.09342747,-0.12990485
10.564233999999999,-2.1726136,-4.136089,-0.114947386,-0.08117526,-0.15653858
11.333538,-2.0424263,-3.8888347000000003,-0.31084314,-0.4410098,-0.12086405
12.303792999999999,-1.490084,-3.2611039,-0.4604353,-0.5980545,0.022305308
12.587898,-1.0316231,-2.4456482000000004,-0.525379,-0.49745375,0.17296213
11.454119,-0.46477202,-2.115143,-0.4854459,-0.35531414,0.14741051
9.815873,0.26273009999999997,-2.7267659,-0.36301103,-0.36754888,0.10323623
8.352067,0.83477193,-3.7413137,-0.23577653,-0.53256977,0.12398819
7.007321000000001,1.0541478000000002,-4.079279,-0.16976817,-0.6544810000000001,0.21289526
6.177002,1.1710328,-4.100358,-0.18627898,-0.6193475,0.37578684
6.0655565000000005,1.1128632999999999,-4.1851125,-0.29965559999999997,-0.34519120000000003,0.57752943
5.9836655,0.93214893,-4.1581154,-0.44285983,0.08862782,0.6616369000000001
5.7721043,0.49563807,-3.7739227,-0.46256462,0.23394394,0.5812470000000001
6.0200768,-0.08527189,-3.0655265,-0.23684117,0.042847835,0.4550946
7.060491000000001,-0.089274995,-2.3618226000000004,-0.18041469,-0.118420586,0.3353301
8.307554,0.15849616,-2.0875237,-0.37578684,-0.06892305,0.23204152
8.432216,0.12365573,-2.1854367000000003,-0.652055,0.08756317,0.19373155
8.737802,-0.1955967,-2.7754254,-0.8170933000000001,0.20839229999999997,0.267175
8.982509,-0.55172944,-3.2806692,-0.7771602,0.23129103,0.26984537
9.473396000000001,-0.8488306999999999,-3.6101017,-0.5525189,0.24246114,0.055309486
10.458984,-1.0634086,-3.8324849999999997,-0.17404424,0.3127281,-0.24755749999999999
12.286794,-0.8696698,-3.9909427,0.388615,0.49851840000000003,-0.43919465
14.488129,-2.0808198,-4.1431084,1.0449635,0.46071455,-0.49455649999999995
13.476521,-0.992751,-3.7180419999999996,1.602317,0.1865757,-0.579205
13.089780000000001,-0.7252132,-4.316123,1.7465858,-0.11683234,-0.6952345
12.595838,-0.86961234,-4.6509279999999995,1.437296,-0.19881046,-0.82459825
12.140796,-1.7197933,-4.2639585,0.8458913,0.02581342,-0.82938045
11.926965,-2.5453715,-3.223764,0.2890789,0.33190927,-0.656907
12.395711,-2.5115464,-1.9938049,0.008011062,0.41973424,-0.42802453
12.596699000000001,-2.148212,-0.75549513,0.006946410500000001,0.1913579,-0.28801423
11.432725,-1.8322346,0.46091256,0.12245230000000001,-0.068382,-0.28427923
9.353447000000001,-1.6045462,1.3755168,0.105417885,-0.064664446,-0.32899457
7.526872,-1.1595215,1.1311358,-0.08194321,0.08117526,-0.30024898
6.6963906,-0.650926,-0.1380784,-0.26879814,0.14025466,-0.23212878
6.396129,-0.19006132,-2.2177873,-0.40985566,0.098750725,-0.19113101
6.286953400000001,-0.013828908999999999,-3.8512169999999997,-0.49396309999999993,0.22116812,-0.26513296
5.5517993,-0.21273918,-4.2640734,-0.5152561,0.548557,-0.38542107
4.9917574,-0.63299817,-3.5181453,-0.41943753,0.6060481,-0.42376593
5.0543227,-0.96350336,-2.2892973,-0.33267722,0.42238712,-0.40566690000000005
6.5032935,-1.0448775,-1.7753101999999998,-0.31936035,0.4048291,-0.2518161
7.869808,-0.9143935,-2.046822,-0.19425514,0.36117843,0.16976817
8.638806,-0.88363284,-2.8129091,-0.24216443,0.2573837,0.43912485
8.875210000000001,-1.2929742,-3.519764,-0.22619466,0.20254546,0.78087777
9.802464500000001,-1.9901563000000002,-3.8884133999999997,0.03621558,0.032201323999999996,0.98422605
11.181275999999999,-2.5392616,-4.030936,0.48282787,-0.25471336,0.8820021
12.118951,-2.4039605,-3.7054388999999994,0.94809777,-0.32656854,0.54771924
11.191275,-1.8893125,-3.0421972000000004,1.2861156,-0.24087289,0.22352432
10.269728,-1.8182334,-2.848372,1.401098,-0.074787356,-0.026651177999999998
11.240202,-3.9727563999999997,-3.9579312999999994,1.3601177,0.044977135999999994,-0.19805996
9.548996,-4.289605,-3.5448549,1.0572157,0.13281955,-0.22839378
8.733435,-3.9672782,-3.3502927000000002,0.60686845,-0.011972958,-0.25288075
8.873975,-3.5292928,-3.6637225,0.05804965,-0.09979793,-0.24171065
8.635647,-2.9463525,-2.5552837999999998,-0.45722390000000007,-0.010367256,-0.099571034
10.334515,-2.1371124,-1.715752,-0.6887941999999999,0.038048177999999995,0.11599458
12.588866000000001,-1.4856597,-1.5229325,-0.6563135999999999,-0.09553932400000001,0.28581512
13.630679,-1.183157,-1.8756655,-0.50248027,-0.336674,0.41676718
12.724176,-1.0750828000000001,-2.5793214,-0.27197465,-0.6246708000000001,0.52110296
11.060455000000001,-0.50939035,-3.5491455000000003,-0.02125811,-0.78169805,0.57274723
9.079761,0.24201548,-4.327558,0.20655972,-0.77904516,0.53441983
7.270137299999999,0.47375506,-5.1788305999999995,0.42055455,-0.76414007,0.38641590000000003
6.445986,0.7557824000000001,-5.5603037,0.52541393,-0.92064375,0.20116664
5.7330594,0.5841469,-5.477943,0.39500290000000005,-0.92064375,0.13515829999999998
5.1115537,0.053649273,-4.50085,1.7453292e-05,-0.6023130999999999,0.17083283
5.299881500000001,-0.4103853,-2.9884232999999996,-0.49289843,-0.09341002,0.22141246
6.0014496,-0.6798288,-2.2303138,-0.7462853,0.3105988,0.22352432
6.6195364,-0.6703382,-1.8442439999999998,-0.66589546,0.33775613,0.21074851
7.2299914,-0.31832350000000004,-1.6916183999999999,-0.5961696,0.30422834,0.02019346
8.18952,-0.0016089035,-1.6799921999999998,-0.68399453,0.35105553,-0.16505578
9.30449,0.34987906,-1.7581006000000001,-0.81496406,0.49691270000000004,-0.21935298
10.230472,0.5213997,-2.3390489,-0.7659727,0.61508894,-0.17357299
10.560652000000001,0.5181148,-3.2419884,-0.48279297,0.6550220999999999,-0.17144369
10.682382,0.20728998,-4.135045,0.0016231562,0.57304394,-0.31250120000000003
11.151033,-0.1965065,-4.616585700000001,0.60048056,0.40109409999999995,-0.55843556
13.198085,-1.7186728999999998,-4.875083,1.0470928,0.30688125,-0.7197389
13.940852,-2.4507816000000004,-3.8198529999999997,1.334566,0.3164631,-0.7846826
14.532153,-2.232689,-3.2807171000000004,1.4553951,0.37608355,-0.8395208000000001
14.513401000000002,-1.5484643,-3.4020553,1.4415547,0.42186353,-0.8730485999999998
13.650378,-1.6973358,-3.5025256000000002,1.3090144,0.3010344,-0.9198758
12.331097,-2.244497,-2.7348297,1.0497632,0.040718533,-0.96141464
11.41136,-2.4890982999999998,-1.3443346999999999,0.7468613000000001,-0.1956165,-0.8709193000000001
11.248726,-2.3751152,-0.15513470000000001,0.4844335999999999,-0.28078857,-0.60847414
11.191131,-2.0357034,0.6178764,0.30876620000000005,-0.24884905,-0.34285247
10.323932000000001,-1.3640726,0.860591,0.1831374,-0.18018779,-0.22467624
8.690971000000001,-0.77168953,0.30324003,0.09796533,-0.17912313,-0.2518161
7.268758,-0.16982551,-0.45007163,-0.004223697,-0.21106267,-0.31091297
6.598774400000001,0.12016019,-1.2931083,-0.1335875,-0.1823171,-0.29600784
5.9891624000000006,0.080876134,-2.0269694,-0.2576106,-0.08436921,-0.22521728
5.944161,-0.045097183,-2.819929,-0.35449383,0.09927433,-0.19380136
5.7764425,-0.38668275,-3.4146774,-0.38590974,0.29888764,-0.23425809
5.3077345000000005,-0.82586557,-3.2771928,-0.38856265,0.34999087,-0.25448647
5.4683185,-1.2701815,-2.8924830000000004,-0.3645993,0.1934872,-0.17835520000000002
6.4070373,-1.3626168,-2.5702617,-0.50727993,0.2605602,-0.02984513
7.968928,-1.0931925,-2.599854,-0.5535835,0.46816713,0.23682372
9.2774935,-0.72098035,-2.9155917000000002,-0.53496087,0.53258723,0.39173916
9.996845,-0.93711925,-3.4435230000000003,-0.6967878000000001,0.5363048,0.37151077
10.425714,-1.5232198000000001,-3.7920036,-0.90545934,0.3105988,0.51523864
10.954248,-2.0415933,-3.8928857000000003,-0.8958775,0.024207717000000004,0.8053647
11.462528,-2.1873713,-3.6920984,-0.7042403,-0.108856186,1.029465
11.269881,-1.832273,-3.573978,-0.3071256,-0.091821775,1.0614046
10.398707,-1.5635382,-3.590814,0.2571219,-0.02794272,0.76223767
10.592044,-2.5821753,-4.1698375,0.6851115,-0.10566223400000001,0.25759315
10.0452175,-3.170057,-4.3896446,0.79105306,-0.22542672,0.005794493
8.9744835,-2.605198,-3.402879,0.6686181999999999,-0.21797417,-0.015463616999999999
9.100055000000001,-1.5804316999999999,-3.4282288999999997,0.3933972,-0.13599606,0.06382669
8.794535,-1.5445378,-4.0363464,0.10009463,-0.055623643,0.129294
7.993990400000001,-2.229203,-3.7432672999999994,-0.19160224,-0.007173303000000001,0.1308997
8.586191,-2.7226958,-2.4642177000000003,-0.39709732,-0.25204299999999996,0.17987363
10.175289999999999,-2.772275,-1.5401804,-0.50302136,-0.5213997,0.28475046
12.454771000000001,-2.103852,-1.0171909,-0.5301611999999999,-0.5533392,0.46572366
13.903981,-0.6533489,-1.2145115,-0.43008402,-0.51448816,0.6435378
12.750236,0.5016044,-2.605868,-0.19479620000000003,-0.6246708000000001,0.6563135999999999
9.812492,0.87792504,-3.3792818,0.09103637,-0.90202105,0.5333376999999999
7.555928,0.9300229,-3.8694322,0.25607470000000004,-1.0744945,0.40770890000000004
6.357276000000001,0.88278043,-3.878396,0.18950784,-0.9717469999999999,0.351806
6.258529,0.8976533000000001,-3.8547032,-0.05958554,-0.703996,0.35021776
6.334272400000001,0.6757681999999999,-3.7997992,-0.42156679999999996,-0.31539845,0.36564648
6.218077,0.36516362,-3.5401623,-0.7649254,0.045500733,0.40077996
6.3031764,-0.05534437,-2.8296878,-0.8639379999999999,0.3122045,0.45668286
6.533365,-0.38437474,-2.0449547999999997,-0.6967878000000001,0.30688125,0.49127528
7.263261,-0.12397176,-1.3624636,-0.5205968,0.23235568,0.32040754
8.63738,0.33018914,-1.210585,-0.5142089,0.21690951,0.0095294975
9.639994,0.65908545,-1.5867811,-0.6387556,0.32976252,-0.22095868
10.250324,0.45647848,-2.5008872,-0.73246235,0.5128825,-0.28057912
10.717673,0.22625206,-3.3143029999999998,-0.5972341999999999,0.5762379,-0.21989404
11.077177,0.015370775,-3.8304352999999995,-0.2506991,0.51075315,-0.25661576
11.617566,-0.038192306,-3.9806190000000004,0.16875589,0.38992402,-0.41737804
12.892824000000001,-1.4238126,-3.8981720999999996,0.68350583,0.32923892,-0.6127501999999999
13.320122,-2.08534,-2.8471081000000003,1.0284528,0.35159656,-0.7431612
13.690179999999998,-1.5940306999999998,-2.1418242000000003,1.2179606,0.34840262,-0.8144928000000001
13.935212,-0.27793807,-2.3712652000000003,1.2887685,0.31805134,-0.8432558000000001
13.459503,0.35399709999999995,-2.8321680000000002,1.2951565,0.23394394,-0.85549057
12.757437,-0.34356794,-2.7906911,1.2035965,0.1418429,-0.8847771999999999
11.605336999999999,-1.4220026000000001,-1.852729,1.0018364,0.02581342,-0.91244066
11.304730000000001,-2.1426957000000004,-0.7371843000000001,0.7766715,-0.11311479,-0.8730485999999998
11.498853,-2.1799016,0.050259084,0.58077574,-0.21478021,-0.75274307
11.119937,-1.6409474999999998,0.48940358,0.45462337,-0.21584487,-0.5861339
10.055791000000001,-0.8886798,0.64887655,0.37264526,-0.21212731,-0.47806314
8.577572,-0.22150196,-0.19089448,0.26083946,-0.12428489,-0.49298569999999997
7.278823399999999,0.26098716,-0.93665004,0.059096847,0.072658055,-0.5893279
6.492605999999999,0.40511808,-1.4292618000000001,-0.18788469,0.23448499,-0.6414783000000001
6.191903599999999,0.2179011,-1.855535,-0.39283872,0.33508575,-0.59252185
6.3156075,-0.070992865,-2.3720793999999996,-0.4556531,0.43996260000000004,-0.43069490000000005
6.513291400000001,-0.34869152,-2.7946367000000003,-0.34438837,0.41919318,-0.25928609999999996
6.6174493000000005,-0.8052179,-2.9015617000000002,-0.23207644,0.24619615,-0.15920894
6.905759,-1.1815194,-2.5463195,-0.26612779999999997,0.21745057,-0.027715827999999998
7.346675,-1.2251034,-2.367425,-0.17671458,0.322851,0.27888617
8.373434,-0.9945035,-2.499604,-0.104841925,0.34838519,0.44123667
9.951031,-0.9383546999999999,-3.1256304,-0.26188666,0.29888764,0.35498253
10.740744,-1.0451072,-3.7937657999999996,-0.48014009999999996,0.14292501,0.43643704
10.456417,-1.4246362,-4.0450230000000005,-0.596187,0.07798131,0.6573608
9.763975,-1.9219979999999999,-3.7602660000000006,-0.5370902,0.16793558,0.8681617
9.353553,-2.329587,-3.1001849999999997,-0.27518606,0.3883183,0.87509066
9.825766,-2.4922299999999997,-2.8537734,0.26190412,0.47242573,0.5759063
11.056797,-3.2163706000000003,-3.6526515,0.83042765,0.11203268,0.17879152
9.915816,-3.034392,-3.5066339999999996,1.1594048000000001,-0.31166345,-0.11555825
8.800549,-2.1468327,-2.6950955000000003,1.1136248,-0.3835361,-0.14803882
9.681625,-1.1808203000000002,-3.4018445,0.7388677,-0.17592919,-0.013369222
9.815662,-0.8016840999999999,-4.3156924000000005,0.32684782,0.05508259,0.03080506
9.105474000000001,-1.3316646,-4.1467285,-0.060144044,0.17378244,0.048380528
9.326172,-1.8486685,-3.2123866000000003,-0.31831315,-0.11524409,0.056897733
10.648375,-1.9503359,-2.1114178,-0.44022440000000007,-0.6214943,0.11704178
12.591615,-1.5889072,-1.4383214,-0.5658532,-0.6837675999999999,0.29057986
13.714120999999999,-0.71527255,-1.3598586000000001,-0.6329262,-0.50757664,0.45933574
12.521560000000001,0.47631207,-2.3991146,-0.53443724,-0.44528586,0.5865528
9.868641,1.0275818,-3.4947013999999994,-0.26508059999999994,-0.6635393,0.63446206
7.388420599999999,1.125859,-4.422761,0.0090408055,-1.0574601000000001,0.63978535
6.3222632,1.2872665,-4.913199,0.11285299,-1.2938125,0.66001374
6.3630510000000005,1.4961941,-4.931366400000001,-0.046827182,-1.1506257,0.7015351
6.0323253,1.2085834999999998,-4.6216617,-0.419455,-0.64278734,0.73879784
6.102341,0.8842745000000001,-4.269129799999999,-0.79792964,-0.15196581,0.82503456
6.156000000000001,0.274251,-3.7647673999999998,-0.9017417999999999,0.12161454,0.90329516
6.45155,-0.19044438,-3.1923902,-0.80112356,0.07052875,0.8431335999999999
6.758688,-0.081948735,-2.356852,-0.7223394000000001,0.10299188,0.57751197
7.2104545,0.15510596,-1.7154359000000001,-0.75961965,0.2563016,0.23575908
7.947878,0.36785474,-1.7137313000000003,-0.8777959000000001,0.40748203,-0.09161233
8.902935000000001,0.2987964,-2.380344,-0.8580911,0.49158943,-0.2672797
9.980115,0.19154571,-3.3033183,-0.6371848000000001,0.4905248,-0.30295426
10.9156065,0.15601577,-4.065536499999999,-0.26455700000000004,0.43196899999999994,-0.33168238
11.714226,0.26334304,-4.3818007,0.14159857,0.3814068,-0.39023817
13.388051,-1.4290512,-4.3789563,0.5637239,0.42291072,-0.52651346
14.176805499999999,-1.7181175,-3.4561355000000002,0.981067,0.32976252,-0.6303257
15.012526000000001,-1.031336,-2.9015138,1.2536176,0.16952384,-0.7048512
15.036994,0.29397926,-2.6353072999999996,1.3505008,0.023143066,-0.78150606
14.463909,0.7986578000000001,-2.6955454,1.2238075000000002,-0.030072022,-0.8432558000000001
13.561439000000002,0.1088021,-2.4365313,0.87406087,0.023666665,-0.8565726999999999
12.137329,-0.98447657,-1.3680564,0.5339136999999999,0.0657291,-0.7607541
11.346198,-1.9511116000000002,-0.36734718,0.26083946,0.12747885,-0.5781578
10.836109,-2.3537588,0.28943026,0.10218903,0.16313593,-0.45465827
10.197547,-2.1021953,0.75491095,0.049497537,0.12747885,-0.44401175
9.0352,-1.240005,0.9215091000000001,0.083025314,0.101386175,-0.49565604
7.657174,-0.33981383,0.526054,0.07930776,0.038048177999999995,-0.57124627
6.854274,0.12353123,-0.36597767,-0.013299409,0.02846632,-0.61489695
6.465877,0.2587749,-1.3632966999999998,-0.18257889,0.17058848,-0.54408896
6.315511,0.16715358,-2.4796364,-0.30023155,0.30527553,-0.38440877
6.080334,-0.04051947,-3.0842776,-0.30288443,0.33135074,-0.23905775
5.779976400000001,-0.42323738,-2.9345825,-0.21984167,0.22062707,-0.071907565
6.132518,-0.81283146,-2.4638155,-0.1932254,0.18284069,0.15910421
7.4076314,-1.0716159,-2.1594071,-0.069202304,0.14877187,0.45612434
8.438881,-0.88921607,-2.0186088,0.16767378,0.03218387,0.69408256
9.296246,-0.7093254,-2.2733328,0.21558307,-0.02528982,0.65947264
9.955694,-0.8097669,-2.90771,0.012758356499999998,0.007696901999999999,0.6302035
10.156146000000001,-1.2716371000000002,-3.5167181000000003,-0.27466246,0.006632251,0.6642723
9.842725999999999,-1.8082926,-3.660428,-0.5041034000000001,0.17006488,0.6999294
9.592398,-2.1324964,-3.4407647000000003,-0.5376486999999999,0.48094293,0.69354147
9.72135,-2.2813487,-3.1187541000000003,-0.24539329,0.6246708000000001,0.58175313
10.341678,-3.365625,-3.3723001000000004,0.3864508,0.36170202,0.36562902
10.567843,-4.279559,-3.6232316,1.0183299000000001,-0.19989257,0.087214105
9.651401,-3.5302407999999996,-2.8631012000000005,1.252553,-0.5725204,-0.07991862
9.528012,-1.895614,-2.5681548,1.0550516,-0.4873483,-0.091106184
10.240556,-0.8501139999999999,-3.626957,0.6265383000000001,-0.21532127,-0.034121186
9.829663,-0.7240736,-4.339892400000001,0.16713274,0.06305875,0.0015184365
10.184925,-0.90895385,-4.309381,-0.15756832,0.044436082,0.04145157
10.762568,-1.2327936000000002,-3.4462616,-0.31353095,-0.3159395,0.062203534000000005
11.485541,-1.381895,-2.2428209999999997,-0.3795393,-0.5267404,0.11489502
11.916277000000001,-1.1777078,-1.3189178999999998,-0.4317072,-0.46764353,0.20699605
11.806106,-0.39448783,-1.0572124,-0.39125046,-0.37501890000000004,0.28949776
10.599198,0.46710876,-2.1332147,-0.21186551,-0.47190213,0.33101913
8.782459,0.97920936,-3.5334105000000005,0.005846853000000001,-0.6566278,0.34166566
7.399635000000001,1.205519,-4.608196700000001,0.17032668,-0.80674356,0.35550612
6.7625475,1.3442293,-5.006908,0.16235052,-0.7449938,0.37786379999999997
6.620944500000001,1.2269901,-4.810976,-0.044715334,-0.45115015,0.35550612
6.573386,0.85834044,-4.3361864,-0.32578316,-0.0625526,0.30494392
6.724757,0.5402564000000001,-3.741917,-0.4982566,0.1870993,0.27033404
6.971331,0.24688049999999997,-3.0396018,-0.41308454,0.2546959,0.22881266
7.142919,0.1802355,-2.4438863,-0.17407914,0.109362334,0.15961036
7.503734599999999,0.27101406,-1.885702,-0.2491283,0.2009223,-0.07566002
8.025431,0.33577242,-1.6750984,-0.564806,0.26373670000000005,-0.21352358
8.735925,0.2901006,-1.9138098999999997,-0.80913466,0.21849777,-0.11452851
9.557481,0.11574528,-2.6006967999999997,-0.74897313,0.11576769,0.045169123
10.538328,0.00050757074,-3.338858,-0.48973940000000005,0.008761553,0.026529005
11.387360000000001,0.040299203,-3.8319294000000004,-0.201219,-0.022095867999999998,-0.18957767
11.719244,0.27143544,-3.7571537000000004,0.05215044,0.15461873,-0.39983746
13.004826,-0.7328843,-3.5925955999999997,0.28052676,0.46497315,-0.45519933
13.677365,-1.605523,-2.9591854,0.54134876,0.6039014,-0.4786391
13.393892000000001,-0.70768774,-2.9875998,0.8037939000000001,0.5123414000000001,-0.56272906
13.112515,0.11166556,-4.073715,0.91931725,0.32443926,-0.65215975
11.713038000000001,-0.7120546999999999,-4.423144000000001,0.82773983,0.12320279,-0.71499157
10.743041999999999,-1.9691063999999998,-3.3573123999999996,0.5732883000000001,0.034313172,-0.75703657
10.909544,-2.3342412,-1.6814862000000002,0.31831315,-0.0066497047,-0.63193136
12.145249,-2.1147122000000005,-0.7707893,0.13306389999999998,-0.05349434,-0.38973203
12.5007305,-1.7656470000000002,-0.4465761,0.033527777,-0.017296214,-0.22310543
10.950265,-1.3480695,-0.055622093,0.0021118484,-0.08438667,-0.16880825
8.8394785,-0.8236533000000001,0.04617936,0.020210912,-0.21851522,-0.19435987
7.4995303,-0.13975435,-0.1520797,-0.0031939526,-0.26057765,-0.25612706
6.8331,0.258162,-0.7495575,-0.15756832,-0.22118558,-0.33011156
6.224991999999999,0.35736814,-1.6887742,-0.38114499999999996,-0.054576445,-0.3098832
6.0381193,0.26202142,-2.5652627999999997,-0.582364,0.2530902,-0.23909265
5.602767,0.08562623,-2.8989568,-0.6052453000000001,0.4623028,-0.13899802
4.992054,-0.39117426,-2.5871169999999997,-0.5094442,0.40639990000000004,-0.029880037999999998
5.4999795,-0.63653207,-2.1182939999999997,-0.41095522,0.43516293,0.11437143
6.753114,-0.7573243000000001,-1.9787119999999998,-0.13255775,0.43249258,0.38744563
8.000426,-0.46870807,-2.0230908,0.061732296,0.30845204,0.42736130000000006
9.106911,-0.42626366,-2.3189759999999997,-0.09049532,0.23659684,0.37573448
10.293391,-0.79203063,-2.993729,-0.31461304,0.18175858,0.63922685
11.050936,-1.3484432,-3.640786,-0.34494686,0.1248085,0.91551244
11.343451,-2.1283114,-3.8664730000000005,-0.19537215,0.12000884,0.9314822
11.322554,-2.4958692000000005,-3.3933597,0.16500343,0.19666370000000002,0.75846773
11.132961,-2.6148702999999998,-2.7778487000000003,0.8330631,0.035901424,0.4832642
11.862197,-3.7887955,-3.152407,1.42555,-0.36704275,0.13512339
10.402759,-3.5245905,-2.6139127999999996,1.6145169,-0.6273586,-0.13580407
9.113835,-2.2169447,-2.0179195,1.315891,-0.47298422,-0.18905406
9.303436,-0.5999391,-2.8738275,0.74736744,-0.15465362,-0.18160151
8.796173,-0.88031924,-4.100692700000001,0.21823597,0.12000884,-0.19383627
8.042238000000001,-1.6779236000000002,-3.8629293,-0.14107497,0.24883159,-0.17947221
9.830343,-2.081184,-2.7183862000000003,-0.30609584,0.1248085,-0.1773429
11.974686,-1.9019538,-1.945241,-0.3241949,-0.21320942,-0.14645058
12.910015,-1.4274231000000002,-1.0274382,-0.34440583,-0.37875390000000003,-0.013369222
12.784682,-0.5627331999999999,-1.0563601,-0.37742746,-0.309028,0.14470525
11.645914,0.41982806,-2.3570054,-0.3263242,-0.26803023,0.32196090000000005
9.520208,1.1018978000000001,-4.153365,-0.24061109,-0.305293,0.38744563
7.761398299999999,1.3896426000000002,-5.357132,-0.12669346,-0.40165263,0.33154273
7.023783,1.5285158,-5.681143799999999,-0.026616272000000003,-0.5049063,0.26874580000000003
6.6410465,1.4888296,-5.0617065000000006,-0.069202304,-0.45594979999999996,0.26659903
6.4877505,0.98336565,-4.333859400000001,-0.23102923,-0.2717652,0.2926917
6.685492,0.45688072,-3.6333637000000003,-0.44289476,-0.022095867999999998,0.37999308
6.560908,0.05443457,-3.1794424,-0.4434358,0.086481065,0.4641005
6.638566,-0.20033722,-2.841812,-0.44289476,0.03005457,0.36561158
6.8481164,-0.26128402,-2.435449,-0.5701293000000001,-0.05297074,0.26872835
7.4249554,-0.26997977,-2.2096853,-0.78997093,-0.11046189,0.20697859
8.70773,-0.08372044599999999,-2.3484533,-0.93050486,-0.12908456,0.13459979
9.768161,0.15673402,-2.554077,-0.96883225,0.0018325957,0.007888888
10.163673,0.2450609,-2.8821687999999996,-0.8959123999999999,0.28290042,-0.14379768
10.507384,0.16274826,-3.3513269999999995,-0.62229717,0.5692915,-0.29391345
11.7126255,-0.4565647,-3.8305597000000002,-0.15704472,0.70876074,-0.36098644
13.307711,-2.4150217,-4.144162000000001,0.4077438,0.57409114,-0.4227362
12.954537,-1.2126632,-3.3039026,0.89428926,0.27811822,-0.5142962000000001
13.205985,-0.53955734,-3.5600822,1.2190077,0.006632251,-0.59788
13.250335999999999,-0.9935649999999999,-4.076933,1.2520118999999998,-0.018378316999999998,-0.6276901999999999
13.248726999999999,-1.5074086000000002,-3.8152754,1.065698,-0.016249016,-0.52014303
13.025597,-1.8504211,-2.6229725,0.7942121,-0.14027211,-0.29817206
12.688187,-1.9858946,-1.5545168,0.56904715,-0.28771752,-0.09747664
11.983105,-2.2374867999999997,-0.28499618,0.4322308,-0.37555996,0.012147492
10.587378999999999,-2.1284549999999998,0.9609462999999999,0.34225908,-0.38035959999999996,-0.008063421
8.763352000000001,-1.6404496,1.6717561,0.24698155,-0.34787902,-0.12995721
7.6019735,-0.9739421,1.5269932,0.038833577,-0.17114699,-0.28326693
6.768389,-0.42073786,0.68540245,-0.30023155,0.10403907,-0.34341097
6.2725496,-0.22252668,-0.3013917,-0.62229717,0.47188467,-0.32745868
5.7203608,-0.31765312,-1.5256428999999998,-0.7724129,0.83386594,-0.35566318
5.099525,-0.5592376,-2.3159015,-0.6430491,0.9664063,-0.33916983
4.9233212,-0.8656379999999999,-2.4706726000000003,-0.29384363,0.74602354,-0.32211795
5.653802,-0.96059203,-2.0699406000000002,-0.09155997,0.41119957,-0.24652776
7.0960407000000005,-1.1007677,-1.6937923,-0.12616985,0.45485026,0.030787607999999998
8.848261,-0.923932,-1.8634646000000001,-0.06494370000000001,0.5730265,0.40819759999999994
10.115855999999999,-0.54422116,-2.2909349999999997,0.040439277999999995,0.50488883,0.53063244
11.020022,-0.8506216000000001,-3.1143490000000003,0.020734511,0.27385962,0.43109632
11.093638,-1.6005718,-3.6343120000000004,-0.0053407075,-0.09077457,0.5572486999999999
11.712148,-2.4442022,-3.4220135000000003,0.037768926,-0.35161403,0.73558646
11.638865,-2.69997,-2.6493185,0.09526007,-0.37823029999999996,0.7499505
10.917368,-2.5703862,-1.8226866999999998,0.2070484,-0.025830872,0.57480675
10.722461000000001,-2.4688529999999997,-1.9194601999999998,0.45991170000000003,0.26960102,0.361894
11.208341,-3.987658,-3.7164521,0.8123111,0.13171999,0.094125606
9.399952,-3.8207724,-3.579858,1.0023426,-0.23876104,-0.25452137
8.239626,-2.4464526,-2.7070186,0.77078974,-0.32765067,-0.39186132
8.750347999999999,-0.639951,-2.621019,0.24218188,-0.06628761,-0.27368507
8.773016,-0.7899429,-3.2697423,-0.33855897,0.25415483,-0.10920525
8.418339,-1.3671754999999999,-3.0709274,-0.60152775,0.31538099999999997,-0.009651671
10.107324,-1.8586953999999998,-2.79411,-0.37742746,0.1381079,0.0094945915
12.22375,-1.842999,-2.557515,0.062255893,-0.21427408,0.052080624000000006
13.310889000000001,-1.5481962,-2.0539951000000003,0.24165829,-0.6571688,0.23785347
12.791004,-0.9762788,-1.8340063000000002,0.18523179,-0.9100147,0.5689599
11.842708,0.22117634,-2.5016917999999997,0.07929031,-1.0266026,0.90538955
10.465889,0.845316,-3.8844967000000006,0.039898228,-1.1112336999999999,1.1247251
8.229542,0.89798844,-5.035667,-0.07239625599999999,-1.0846174,1.2183969
6.759530000000001,0.5302295,-5.513818,-0.36465165,-0.9164026,1.194451
6.5074496,0.049186482999999996,-5.004983,-0.78892374,-0.6938906,1.1279016000000002
6.613580000000001,-0.5630779,-3.4028695,-1.1657927,-0.42346925,1.1177961
6.839544999999999,-1.6766019,-1.9728127,-1.2296717,-0.14826572,1.2146794
5.866292,-2.3134022,-2.0068102,-0.9672440000000001,0.008761553,1.3536075
4.4739203000000005,-2.3662949,-3.0499737000000002,-0.35133478,-0.15943582,1.3174093999999998
4.243416000000001,-2.2468147000000003,-3.5877303999999994,0.22088887,-0.6742031999999999,0.9096481
5.611674,-2.2854476000000004,-3.6456223,0.3635521,-0.9946630999999999,0.36721727
7.356510000000001,-2.032754,-3.5278084,-0.042603485,-0.67207396,0.0132121425
8.776674,-1.5445954,-3.7893605000000004,-0.72769755,0.14023721,-0.1805194
9.84762,-1.1400231,-4.0555096,-0.8772723,0.6917263000000001,-0.32798228
10.47492,-1.0394857,-3.8919568,-0.561071,0.8689994000000001,-0.6819874
10.371921,-0.9910846,-2.706693,0.023387412000000003,0.70876074,-1.2366705
10.611237,-1.0984023,-1.0090698,0.4726875,0.6800151999999999,-1.8035883999999998
12.673707,-2.0995328,-0.15991351,0.6387729999999999,0.8956156999999999,-2.1623757
14.868185,-0.84148526,0.1380401,0.6771005,1.120257,-2.3178146
17.114664,0.83500177,-1.3759668999999999,0.6440963000000001,1.1505908999999999,-2.3981872
16.807957000000002,1.8755122,-3.1737057999999996,0.5599889,0.9025271999999999,-2.4828354999999998
16.017295999999998,1.7776276999999998,-4.276571,0.4322308,0.5256408,-2.5600313999999997
15.518612,1.0870633,-3.5716126000000004,0.24111724,0.33135074,-2.5765247000000002
15.908934,0.5242727,-1.2768756,0.0,0.46336746,-2.4977407000000005
16.76446,0.28332025,0.029649794,-0.18259634,0.66032785,-2.3838232
16.686342,0.31991324,-0.1570309,-0.23369959,0.7103664000000001,-2.3284612
15.292466000000001,0.25045264,-1.1348804,-0.18791960000000002,0.6528753,-2.2555412999999995
12.752782,0.44528320000000005,-2.0319397,-0.16502088,0.5378930000000001,-2.1203132
10.483137,0.48709556,-2.6919062,-0.28745574,0.534158,-1.9191116999999998
9.23321,0.35772246,-3.1464121,-0.49666834,0.70024353,-1.6524078999999998
8.978112,-0.29450595,-3.628767,-0.610586,0.84077746,-1.3707991000000002
9.000293,-1.1930978,-3.9267108,-0.5344547,0.76839864,-1.0540566
9.134205,-2.084009,-3.879057,-0.29544935,0.3845833,-0.7256381
8.991501,-2.8949728,-3.7070095999999997,-0.06974336,-0.03806563,-0.36950365
8.92658,-3.243109,-3.3685174,-0.13308136,-0.16582373,0.112242125
8.542464,-3.2578287,-2.9116461,-0.42214277,0.005026548,0.79253656
7.756696000000001,-3.2435017000000004,-2.8216913,-0.57651716,-0.02422517,1.6059298999999998
7.125766800000001,-3.310798,-3.3265995999999998,-0.60259235,-0.34787902,2.206934
6.5959105,-3.4705966,-3.8281464999999995,-0.68563515,-0.77586865,2.4129527000000004
6.1667356,-3.7445410000000003,-3.9350523999999996,-0.8895245,-1.0452254,2.5412342999999997
5.5997314000000005,-4.0550017,-3.3198671,-1.1019136,-1.1362443000000002,2.96603
5.034374,-4.1225185,-2.8534193,-1.0604097,-1.1314621,3.432347
4.8047414,-3.7454796000000004,-2.7468772,-0.73460907,-1.2810542999999999,3.6569884
4.9390373,-3.6170642,-3.3504457000000003,-0.16128588,-1.6824101000000002,3.5121957999999998
4.516269,-4.3314557,-4.37164,0.54454273,-2.214753,3.2018588
3.4386387000000003,-4.283591,-4.428008599999999,0.9592328999999999,-2.4409826,2.9819996
3.820782,-4.403253,-4.047063,0.82135195,-2.2041066000000002,2.8191082
5.783022,-3.6944160000000004,-4.3014803,0.18682005,-1.5280532,2.6514344
7.920919400000001,-2.767544,-4.9070024000000005,-0.6643420999999999,-0.57677895,2.573715
8.203147999999999,-3.1010945,-5.1896334,-1.1365235,0.07955211,2.676445
7.906286200000001,-3.8130057,-4.3100514,-1.2174368999999998,0.11096803,2.639182
9.487782000000001,-4.2089014,-3.2818949999999996,-0.9454273999999999,-0.460732,1.9689758000000002
12.133058,-3.8852434000000002,-2.5842628,-0.70586354,-0.9014975000000001,1.2742997
14.612406,-2.9743934,-2.667696,-0.5653296,-0.9941221,1.0049431
14.923873,-1.6703675,-2.9041283,-0.5094442,-0.7636339,1.0315593
14.076699,-0.29312688,-4.2134123,-0.44076544,-0.51822317,0.97993255
13.271673000000002,0.51430327,-5.9038330000000006,-0.28213248,-0.556027,0.7606145000000001
12.494888000000001,0.7703392,-6.440795400000001,-0.17194983,-0.5884901,0.33953634
11.201503,0.39232346,-5.304162,-0.24754004,-0.31168088,-0.13421582
10.340893,-0.32964328,-3.4260452000000003,-0.37529814,0.17856464,-0.47171015
12.11628,-0.11337981400000001,-2.3729317,-0.37049848,0.5682268,-0.69687504
15.065418,0.99165916,-2.2254297999999997,-0.39550906,0.7715926,-1.0434101999999998
14.548338000000001,1.6526504000000002,-2.1161199,-0.4365242999999999,0.97705275,-1.4181848
12.428924,1.4686894,-1.953228,-0.42479570000000005,1.1868063999999998,-1.7029701000000002
12.07576,1.26569,-1.8037628,-0.28159142,1.3172175,-1.9041891
13.088803,1.3861661,-1.6879792000000002,0.012758356499999998,1.3725793,-2.0537813000000003
14.597563000000001,1.8096333999999998,-1.6864468999999997,0.30340803,1.3576741,-2.1895156000000005
15.683936,2.2178926,-2.0305896,0.58021724,1.2059701999999999,-2.383282
15.9276,1.8332688999999998,-2.4856317000000003,0.86873764,1.1458087,-2.4210857999999997
16.11338,-0.301181,-2.3724337,1.1322299999999998,1.3150882,-2.3646592999999996
16.249360999999997,-1.4146476000000001,-2.3505123,1.2951391,1.5940267,-2.4482257
16.64859,-1.8932006000000001,-2.685145,1.4260736999999999,1.6834574,-2.6899014
16.053936,-2.1471107000000003,-2.624361,1.5426617,1.5301476,-2.8756917
14.980979999999999,-2.6697457,-2.227211,1.563431,1.3448983,-2.8442757000000003
14.219976999999998,-3.3231232000000004,-1.5107986999999998,1.4835823000000001,1.1404854,-2.6686084
13.704602,-4.045291000000001,-1.0088879000000002,1.2376303999999998,1.0835178,-2.3902109
13.933335000000001,-4.803803,-1.5246947,0.9054768,1.04999,-2.0835915000000003
13.366119,-5.3756824,-1.4484346000000001,0.635038,0.95575976,-1.800918
11.7828045,-5.542528599999999,-1.0494266,0.4386187,0.79553854,-1.4612943999999999
10.73607,-4.7356734000000005,-0.92030245,0.34440583,0.6209358,-1.1014423
10.518226,-3.760563,-1.4429183,0.30501375,0.46549675,-0.8336914000000001
10.024656,-3.1926775000000003,-1.9940636000000003,0.11177088,0.36276668,-0.65535367
8.578339,-3.276369,-2.3483384,-0.17886133,0.32656854,-0.49885002
7.247784599999999,-3.7453453999999997,-2.7695646000000003,-0.43385395,0.4564385,-0.35246924
6.3442225,-3.9844114999999998,-3.2136888999999997,-0.44767696,0.54428095,-0.08204792400000001
5.7348027,-3.9697014999999998,-3.8946097,-0.23635249,0.29461157,0.23148301
5.60701,-3.6686354,-3.9173257000000006,-0.05110324,-0.046582837,0.5711066
5.1625404,-3.2500234,-3.5204150000000003,0.06866125,-0.28293532,1.0140014000000002
4.7678995,-2.936881,-3.019213,0.17564994,-0.48574257,1.4254802
4.8597693,-2.6192088,-2.5413015,0.030857421,-0.6065891999999999,1.692184
5.9256015,-2.5574002,-2.96338,-0.36144024,-0.70453703,1.9296011000000002
6.797895,-2.8274182999999997,-3.9636106,-0.6675361,-0.929702,2.307552
7.601159599999999,-3.127268,-4.422311,-0.55361843,-1.2645434,2.8281665
7.5163660000000005,-3.2396615,-3.8802156,-0.122958444,-1.5780743,3.1688547000000002
6.699972,-3.1313765,-2.8647294,0.39177406,-1.8527718,3.2071822
6.836145,-3.2140625,-2.6945302000000004,0.7835656,-1.8692651000000002,2.8276253
7.308013000000001,-4.390985,-3.593515,0.8075289000000001,-1.5072838,2.080258
6.380193,-3.5935817,-3.6391196000000003,0.5834111999999999,-1.1165569,1.5958244
6.988224499999999,-2.681209,-4.1535087,0.17938495,-0.7103839,1.5037408
8.046787,-2.4152803,-5.5304623,-0.282115,-0.259513,1.5937124
8.203311,-2.6751754,-6.212838,-0.67551225,0.047088984,1.6911193
7.969378,-3.5262279999999997,-5.057684,-0.84053314,-0.05030039,1.6192641
8.865844000000001,-3.7580826000000003,-3.3234199999999996,-0.85011494,-0.3356268,1.4494436000000002
11.597006,-3.253768,-2.9245843999999996,-0.8144579000000001,-0.6108478,1.3296791000000001
13.916153,-2.531102,-3.5040483,-0.7692015,-0.7731983,1.3413728
16.811691,-1.1498680000000001,-4.5279812999999995,-0.6850940999999999,-0.84187704,1.4483788999999998
16.432564000000003,0.4620043,-5.511979,-0.5413661999999999,-0.94088954,1.5564498
13.225454999999998,1.0839891000000001,-5.5344176,-0.35878733,-1.0452254,1.5489798000000001
10.265571000000001,0.8327321,-5.280575,-0.18257889,-1.1708541000000001,1.4270858999999998
8.488211,0.24570256,-4.381054,-0.11444124,-1.1948,1.3211445
8.233075,-0.27658775,-3.3762937000000006,-0.111247286,-1.0819471,1.2216083
8.769521000000001,-0.37919366,-2.8241045,-0.12508775,-0.6954788000000001,0.9511870000000001
9.217284,-0.54294753,-2.39537,-0.05269149,-0.1860521,0.53012633
9.022243,-0.63928056,-2.2620322999999996,0.046303585,-0.029548422999999997,0.037192967
8.519948,-0.7394444,-1.8297256000000002,-0.13733996,0.18069394,-0.6111794
8.587177,-0.70486253,-1.4952077,-0.44928265,0.6922674,-1.1946081
9.519039,-0.64039147,-1.4294726,-0.53178436,1.3624738,-1.6593194
11.216261,-0.4144267,-1.5092857,-0.20760691,1.5695397,-1.9148356
12.547264,-0.44173977,-1.8354621,0.282115,1.2581381,-2.1384122000000003
13.111041,-0.51478213,-2.0802643,0.7063871,0.8407949,-2.4088335
13.935547,-0.47505748,-1.8963323,0.9863903,0.76892227,-2.6547680000000002
16.378494,-1.2760904,-2.0112921999999998,1.1210598999999999,1.1521965,-2.7356814999999997
18.448713,-2.0348319999999998,-2.0896113,1.2067729999999999,1.7228493999999999,-2.7798731
19.018122,-1.2271433,-2.9013414,1.3425072,1.9804949,-2.8964436
18.223782999999997,-0.7204153,-3.564928,1.5570431,1.7819463,-3.0646586
16.993872,-1.4733918,-3.12541,1.6954477,1.2799546999999998,-3.2376556
15.993573999999999,-3.0416036,-1.7951915,1.6496677,0.88177526,-3.3228275999999997
14.928059,-4.4530234,-1.032897,1.4244853000000002,0.79927355,-3.2110567000000003
14.769438000000001,-5.284166,-1.1475121000000001,1.110937,0.7981914000000001,-2.810748
14.683235999999999,-5.57216,-1.6000067,0.78836524,0.855159,-2.3124740000000004
13.441862,-5.46896,-1.6549392,0.52965504,0.8349306000000001,-1.8924779999999999
11.702963,-4.9875145,-1.8289689999999998,0.38060394,0.6028366999999999,-1.6422849999999998
10.537131,-4.166878,-2.1247868999999997,0.22994713,0.2568252,-1.483652
9.72407,-3.6497114,-2.3925354,-0.03672173,0.15196581,-1.2707218999999998
8.967261,-3.5613843999999997,-2.7740178,-0.42160174,0.30527553,-0.9364215
8.034136,-3.6297057,-3.4083855000000005,-0.6930877,0.46975538,-0.53185415
7.188753599999999,-3.9600480000000005,-3.7832983000000002,-0.60152775,0.42716932,-0.15496778
5.8772,-4.270633,-4.0323910000000005,-0.30501375,0.21797417,0.08562585
4.71289,-4.45809,-4.036442299999999,-0.061208695,-0.1386664,0.29590312
4.5422125,-4.239987999999999,-3.9757445,0.0,-0.29410544,0.63978535
5.137957,-3.4962527999999997,-3.6958334,-0.03832743,-0.31274554,1.0901326
6.131848000000001,-3.0790488999999996,-3.7315166,-0.22464132,-0.31168088,1.4404027
6.6389685,-3.3112576000000002,-4.091882,-0.5376486999999999,-0.42401028,1.6990955
6.4864287,-3.7533803,-4.4410143,-0.8234986999999999,-0.6912202,2.013185
6.1684117,-4.2193309999999995,-4.380125,-0.9746790999999999,-1.0963286,2.4134936000000002
6.0173855000000005,-4.343905400000001,-3.4215822,-0.91612333,-1.4657624,2.8718169999999996
6.103893,-3.8904245000000004,-2.236644,-0.6121741999999999,-1.5695572,3.2231520000000002
6.4058209999999995,-3.3288693,-2.0611587,-0.08943067,-1.5578459999999998,3.2050528999999996
6.586017999999999,-3.7126122,-2.9316904999999998,0.3422765,-1.4354111,2.6487814999999997
6.02476,-3.5836985,-3.5809019999999996,0.440748,-1.2656081,1.9317304
6.2561255,-3.4706156000000004,-4.1031065,0.23846434,-1.0537425,1.6096822
7.119120599999999,-3.3880155,-4.985551999999999,-0.197484,-0.73541194,1.6245874
8.181198,-3.7257705000000003,-5.595708999999999,-0.66327745,-0.42133993,1.7470223000000003
8.577772999999999,-4.0254959999999995,-5.4089904,-0.9917135,-0.31700414,1.8673103
9.444455,-4.5306344,-4.809913,-1.1333121000000002,-0.40217623,1.9264071
10.937729,-5.0312905,-4.0108814,-1.1077603999999999,-0.63533473,1.7725563999999998
13.271864,-4.573308,-3.2196555,-0.96670294,-0.88711596,1.6495978999999998
15.23487,-2.8980567,-2.82738,-0.7718543999999999,-1.0755591,1.7166883999999998
16.426607,-0.8589245999999999,-3.4765243999999997,-0.53551936,-1.3214934999999999,1.8178128
14.383348000000002,0.28943983,-4.1868935,-0.30236083,-1.5956498,1.8859504
11.042527,0.21510465,-4.677350499999999,-0.09686577,-1.737772,1.7299879
8.880295,-0.31045136,-4.6000084999999995,-0.046844635,-1.5610399,1.3179678999999997
8.035812,-0.89578575,-4.0990553,-0.18416715,-1.0947228999999998,0.88465506
8.00511,-1.3513928999999998,-3.3327383999999998,-0.4556531,-0.49106583,0.5780356
8.867931,-1.7759135,-2.7465515,-0.6254736,0.22169173,0.29110345
10.054316499999999,-1.4542955,-2.1321802000000005,-0.5722411000000001,0.72633624,-0.02560398
9.432417,-1.1799871000000002,-1.5703473,-0.5195496000000001,1.0579836,-0.5973215000000001
9.131581,-1.1250162000000001,-1.3175389,-0.52007324,1.2693081,-1.2669868
9.776541,-0.8204929,-1.4020445,-0.45300022,1.3470277,-1.7024290000000002
11.159528,-0.4521402,-1.5397686000000002,-0.14372787,1.2059701999999999,-1.8695967
13.635064000000002,0.28642312,-1.8829439,0.32630676,0.9749409,-1.9968138
15.636234,1.0655252,-2.1989975,0.72928584,0.8003382,-2.1448002
15.754795000000001,1.4901416,-2.4596686,1.051334,0.8322777,-2.2640412
16.605826999999998,0.3271054,-2.6319939999999997,1.316432,1.0457314,-2.3539953
17.481829,-1.1311167,-2.0715303,1.542138,1.3640621000000002,-2.5498912000000002
17.664545,-0.9143073,-1.3381288999999998,1.7124821,1.5918974,-2.8314826
17.848955,-0.43313983,-1.7605331000000002,1.8892142,1.5695397,-3.056665
16.821392000000003,-0.90080404,-2.0540335,2.0041964,1.2560087,-3.1631299999999998
14.836619,-2.3707385,-1.5636531,1.9674573,0.8929628000000001,-3.0838223
13.978183,-3.6547203,-0.6083188,1.7497449,0.6550045999999999,-2.8384116
14.085759,-4.675129,-0.37901172,1.4330200000000002,0.58260834,-2.509958
14.130099,-5.437347,-0.6242354,1.1109544,0.5378930000000001,-2.1495824
13.536701,-5.459795,-0.67604595,0.8916364,0.3798011,-1.8333810000000001
12.547245,-4.6226959999999995,-0.565769,0.7787834,0.1397136,-1.6481318
11.745188,-3.4325767,-1.0635618999999998,0.59779274,0.00024434610000000003,-1.5512487
10.808969,-3.103623,-1.5262078000000001,0.20600120000000002,0.14503686,-1.4085854
9.625283999999999,-3.3501968,-2.0928101999999997,-0.37049848,0.47614327,-1.1488106000000002
8.265473,-3.8704379,-2.6807492,-0.80805254,0.8466418,-0.87732464
6.90912,-4.2291656,-3.3939724,-0.8469209999999999,1.0984403999999999,-0.6686531
5.99284,-4.4272714,-3.8023467000000006,-0.49132764,1.0244385,-0.45572293
5.6123533,-4.345706,-3.830742,-0.14425147,0.678968,-0.20181242
5.5007358,-4.0953393,-3.6920314,0.096342176,0.42184609999999995,0.18624409
6.142784,-3.7832696000000006,-3.4655209000000005,0.26455700000000004,0.29834658,0.6759835
7.177280400000001,-3.4890127,-3.561758,0.20013689999999998,0.28185323,1.0635164
7.880667999999999,-3.4381120000000003,-4.149774,-0.100059725,0.25949556,1.3525778
7.905011999999999,-3.890415,-5.095043,-0.42318997,0.026337017999999997,1.7518044999999998
7.995704700000001,-4.694771,-5.3549004,-0.5509480999999999,-0.49000117,2.3070285
7.859331,-4.859051,-4.1871333,-0.42638394,-0.9573828999999999,2.8042203999999997
7.526967999999999,-4.4465017,-2.4155292999999998,-0.098995075,-1.406142,3.1523613999999998
6.8289814,-3.9869778,-1.5854883,0.41573742,-1.6355655,3.1433206
6.5983529999999995,-4.4697833,-2.6102066,1.0816853000000002,-1.5248418,2.7728221
5.5687795,-4.0587654,-2.863973,1.3920397,-1.1564726,2.1345549999999998
5.378699,-3.6275125,-3.4276923999999998,1.2541586999999998,-0.84772384,1.4622194
6.1572547,-3.3128664,-4.6513114,0.6957406,-0.66088635,1.0097426999999999
6.6055546000000005,-2.9991207,-5.212091,-0.07346091,-0.36917204,0.97780323
6.340545,-2.9536689999999997,-4.955614,-0.86234975,0.021537364,1.226949
6.8790684,-3.0168473999999996,-4.1154985,-1.3680589,0.2632131,1.4121983
8.955665,-3.4533296,-3.3621488,-1.5405323999999998,0.24033184,1.3429785
12.088832,-3.4152424,-2.867114,-1.4936876000000001,-0.022095867999999998,1.1646582
14.546365,-2.5947592,-2.3882353,-1.2956626,-0.3835361,1.114096
15.865235,-0.82192945,-2.229586,-1.1056311,-0.54642767,1.243966
15.673410999999998,0.4879766,-3.923656,-0.9448689,-0.6262765,1.4164568000000002
13.8969145,1.0188190000000001,-5.6812879999999994,-0.8208458000000001,-0.77426296,1.4675426
11.081878999999999,1.0648163999999998,-6.807635,-0.7079753000000001,-0.9446071,1.3680065000000001
8.214630999999999,0.43569684,-6.7378583,-0.6036395999999999,-0.9435424000000001,1.0927856000000002
6.747281599999999,-0.20123744,-5.881146,-0.5621182,-0.7604225,0.8612327
7.430357000000001,-0.64824444,-4.2887044,-0.6228033000000001,-0.56826174,0.68875927
8.945466,-0.86353105,-3.1813192000000003,-0.61109215,-0.35320228,0.58922315
9.582457000000002,-0.7863899000000001,-2.4469604,-0.6020513000000001,-0.10726794,0.34965926
9.002342,-0.72588366,-1.7893689,-0.71010464,0.15250687,-0.11023499999999999
8.482341,-0.7608869,-1.5925081,-0.87725484,0.47455502,-0.6031683000000001
8.964934,-0.82095265,-1.6457552,-0.8171108,0.61721826,-0.8799950000000001
10.485894,-0.98836476,-1.9760400000000002,-0.47003463,0.60976565,-0.95717347
12.370783,-0.82607615,-2.1227758,-0.023404865,0.45219734,-1.0881254999999999
13.493222,-0.1692126,-1.8308845,0.35185838,0.33295646,-1.2558167
13.958158,-0.38428852,-2.0621738,0.6542191999999999,0.45219734,-1.3973978999999999
15.7937155,-2.390572,-2.6131945,0.9682912,0.8791223,-1.5837117
15.88526,-2.2087277999999997,-2.3260627,1.1876267,1.2405801,-1.8078294999999998
16.028376,-0.99931103,-1.9764901000000001,1.3728759,1.3294697,-2.0771686999999996
15.45486,0.05038358,-2.0804462,1.4803883,1.1580609,-2.2682998
14.804823999999998,-1.0555173,-1.8320241000000002,1.4894465000000001,0.92383766,-2.357713
13.313648,-2.5231054,-0.6376238000000001,1.3302726,0.8413185,-2.3614478
12.827108,-3.4756436,0.22060175,1.0476165000000002,0.8152433000000001,-2.2198493
12.965961,-3.772103,0.2775933,0.77825975,0.7199483,-1.9994667000000002
12.426089,-3.7021828,0.17687404,0.5802347,0.5033006,-1.7950537
11.587658,-3.0009593999999997,0.526552,0.46951103,0.33082715,-1.6071341000000001
10.888722999999999,-1.9397918,0.36829525,0.3076841,0.30473449999999996,-1.4075208000000001
10.060646,-1.310519,-0.55769575,-0.045238934,0.3840597,-1.2041725
9.334954,-1.3030204,-1.3613143,-0.539778,0.6528753,-0.9800722
8.300707000000001,-1.7073723000000003,-2.1223834,-0.88364273,0.95736545,-0.7165623999999999
7.590998599999999,-2.0926282,-2.7633683999999996,-0.82882196,1.0478607,-0.4754277
7.1252494,-2.5138542999999998,-3.4009156000000003,-0.41360813,0.85995865,-0.28909633
6.446560400000001,-2.9563122,-3.664766,-0.010105456,0.5080828,-0.08361872
6.289308999999999,-3.1811279999999997,-3.6505157999999995,0.17247343,0.30473449999999996,0.3789459
6.594579700000001,-3.196556,-3.2926595,0.24806364,0.25523695,0.85378015
7.134702000000001,-3.134144,-3.1982322,0.14372787,0.20359266,1.064581
7.711628,-3.2336185,-3.8713474000000003,-0.102712624,0.044977135999999994,1.1715871
8.202785,-3.5604172,-4.759539,-0.37261033,-0.29197612,1.3307438
8.399003,-4.082027399999999,-4.805919599999999,-0.52859044,-0.6465049,1.6437509999999997
8.278221,-4.5895886,-3.6186826,-0.46684065,-0.86475825,1.9940212
8.269467,-4.5999413,-2.1739447,-0.2038719,-0.93396056,2.1696887
8.472102,-4.667554,-1.6399131999999998,0.11498229,-0.9701586999999999,2.0722818
8.32824,-5.723808999999999,-2.5914072999999997,0.27839747,-0.8695579,1.7145417
6.7654204,-5.0651535999999995,-3.119616,0.17886133,-0.75883424,1.4984175
7.2357564,-4.0264153,-3.82173,-0.093148224,-0.6108478,1.4925706
8.323194,-3.2258804,-4.779449,-0.43383649999999996,-0.4271867999999999,1.5521911
8.483661999999999,-2.8236258,-5.327874700000001,-0.7047814,-0.27335346,1.6070118999999998
8.43755,-3.1468909,-5.264256,-0.83733916,-0.21692698,1.6059473
8.446313,-3.6975286,-4.340266000000001,-0.9123882999999999,-0.42399284,1.4297563
9.578914,-3.7102082000000003,-3.2487112999999996,-0.95019215,-0.79077375,1.2391838
11.539688,-3.216361,-3.076894,-0.9656209000000001,-0.9211848,1.3243558000000002
12.920166,-2.5822136,-3.5000165,-0.94380426,-0.8338834,1.4372088
12.736253,-1.7017508000000001,-4.309007599999999,-0.8628908000000002,-0.72635365,1.4643487
10.566417,-1.0336822,-4.720197,-0.71862185,-0.7641574999999999,1.3770648
8.7781105,-0.6719949000000001,-4.671863,-0.5530774,-0.87008154,1.2471774
7.950866,-0.68998975,-4.048901600000001,-0.41039672,-0.93767816,1.145512
7.5917454,-0.8835754000000001,-3.1708043,-0.32257175,-0.8860513000000001,1.0603223999999998
7.8633820000000005,-1.1679778,-2.588017,-0.27253315,-0.7444527,0.9038187
8.922002,-1.0936233999999998,-2.605849,-0.260822,-0.57464963,0.63713247
8.626232,-1.4105201,-2.419063,-0.09953613,-0.27387705,0.31454325
8.417936,-1.8560234,-2.003621,0.060144044,-0.0029321532,-0.01441642
8.9859085,-1.8349066000000003,-1.6153008999999998,-0.08141961,0.3084695,-0.53344244
9.745349000000001,-1.5199733,-1.3668209999999998,-0.3779336,0.63425267,-1.0162703000000002
10.603795,-1.2592256000000002,-1.3591309,-0.5237907999999999,0.8908335,-1.2595344
11.275876,-1.1812418,-1.4482144,-0.27679175,0.8727344000000001,-1.3564174999999998
11.893245,-1.1763958,-1.4372585,0.16554448,0.6464873999999999,-1.5768002
12.6675205,-1.0156108,-1.5505425,0.5499009,0.43729225,-1.9073656000000003
13.717626999999998,-0.5047073000000001,-1.5647162000000001,0.7995528000000001,0.48094293,-2.1431944
16.131596,-1.5585871,-1.9762218999999996,0.9363517,0.809379,-2.2283666
17.264129999999998,-2.0884717,-1.4394419,0.9853431,1.1724423000000002,-2.2624353999999998
17.093689,-1.0555078000000002,-1.9688957999999999,1.0747563,1.3496981000000001,-2.3651655
16.440735,-0.11833102,-2.7953932,1.1982558,1.2017115,-2.5179515
14.885757,-0.86286074,-2.7424047000000003,1.3111088,0.9328784999999999,-2.6765845
13.548117999999999,-2.4628674999999998,-1.9148921000000003,1.3254902,0.6374466,-2.6957482999999995
13.422401999999998,-3.404689,-0.6287748000000001,1.1338532,0.42823398,-2.513693
14.201916,-3.9301489999999997,-0.31359252,0.79688245,0.34199727,-2.21772
14.249331,-4.222538500000001,-0.558663,0.40669662,0.34360296,-1.8562623
12.999835000000001,-4.1995254,-0.80416447,0.16554448,0.30208158,-1.5054686000000002
11.213685,-3.6161258000000003,-1.0883083,0.05269149,0.20732766,-1.2414353
9.887698,-2.8941972000000002,-1.5249149,-0.069184855,0.10831513,-1.1637157
9.011851,-2.3282654,-1.8101697,-0.33269465,0.07689921,-1.0503216999999998
8.374036,-2.2800844,-2.0813083999999997,-0.65154886,0.2568252,-0.8895594000000001
7.568886,-2.5241206000000003,-2.3639200000000002,-0.8069879,0.5639857,-0.70378655
6.5015025,-2.8339972,-2.7737594,-0.59564596,0.6933495,-0.50469685
5.527828700000001,-3.140034,-3.5107903,-0.18149678,0.4947834,-0.2720619
5.077757,-3.2306017999999996,-3.911024,0.13095206,0.3105988,0.0031241393
5.106363,-3.2404467999999995,-3.661769,0.43863615,0.27227136,0.44230133
5.4644685,-3.1272392000000004,-3.0280810000000002,0.6675361,0.19081685,0.8383514000000001
7.0397479999999995,-3.0462290000000003,-3.0429442000000004,0.4982566,0.08595747,0.9996373
8.374908,-3.4743695,-3.7543955,-0.04576253,-0.0699877,1.1918155000000001
9.038619,-4.165394,-4.328937000000001,-0.57382935,-0.29197612,1.5750898000000002
9.112964,-4.496224400000001,-4.026559,-0.78463024,-0.54483944,2.0371482
8.697906,-4.355867,-2.9703615,-0.6707126,-0.7928856,2.389024
8.007437,-4.0110730000000006,-1.5813798000000001,-0.23101178,-0.90840894,2.534864
8.372705,-4.9553943,-1.8389384999999998,0.4806986,-0.9584476000000001,2.4225519
7.967271,-5.43208,-2.2463932,0.9502096,-1.1224037,1.8886383000000002
6.668685000000001,-4.556482,-2.1995435000000003,0.9140115,-1.194259,1.3440604999999999
7.136597999999999,-3.2572155,-3.3147244,0.36465165,-0.8067261,1.16307
7.8888945999999995,-2.6822624,-5.4409957,-0.4327544,-0.27546529999999997,1.2636882
7.4732614,-2.9172293999999996,-6.4666333,-1.1476761,0.072658055,1.4111336
7.1897782999999995,-3.5295992,-5.826644,-1.5224333,0.12322024,1.4521313999999999
8.10852,-3.9399940000000004,-4.3088927,-1.6107993,-0.071593404,1.4111336
10.107659,-3.9663975,-3.1170112999999997,-1.3765761,-0.45699700000000004,1.3392608999999998
12.139876,-3.394346,-2.0740013,-1.1402236000000001,-0.7881034,1.2892398
13.5829,-1.648609,-1.9812306,-0.9459161,-1.0132684,1.2871104
14.060495000000001,0.086842485,-4.1145309999999995,-0.7873005999999999,-1.0915289,1.3749354999999999
12.034081,0.9015223,-5.612516,-0.6638010999999999,-1.0345788,1.4121983
9.242691,0.83858347,-6.535423799999999,-0.6036395999999999,-0.8626290000000001,1.3610951
7.5752735,0.39907509999999996,-6.415388,-0.52326715,-0.80939645,1.2413131000000002
6.9978976,-0.20806570000000002,-5.041585400000001,-0.49982738,-0.77745694,1.0273356
7.690291,-0.78625584,-3.55787,-0.5929755999999999,-0.5767614999999999,0.7271042
8.370312,-1.1893723,-2.2277472,-0.6606071,-0.23022638,0.48115236
8.9109125,-1.1792018,-1.356957,-0.69359386,0.13334316,0.24534093
9.192413,-1.0881167999999999,-1.4090068,-0.7862359,0.5064945,-0.09745918
9.231994,-1.0274861,-1.5192933000000002,-0.8330631,0.8168489999999999,-0.5595176
9.652751,-1.0236074,-1.6604458999999998,-0.75375533,1.0074215,-0.92204
10.884088499999999,-0.94362193,-1.8868224999999998,-0.4391423,1.1490201,-1.1791444
11.931494,-0.73547006,-1.9226301,0.039933134,1.0723652,-1.3585293
13.118136999999999,-0.36213735,-2.0458453000000003,0.5147674,0.89350384,-1.5730653
13.972235999999999,0.1871787,-2.2748747000000002,0.88259554,0.85995865,-1.7540558999999998
15.470536,-0.12971786,-2.4995944,1.2403182,0.9770701999999999,-1.8807493000000002
16.423794,-1.1040335,-2.0835588,1.5522784,1.1559316000000002,-1.9983845
16.509447,-0.9564453000000002,-1.9550476000000003,1.7790314999999999,1.2549441000000001,-2.1921685
16.320929,-0.67164063,-1.7862276999999998,1.9387292,1.1633841,-2.3635597
15.693944,-0.8542895,-1.3853233999999999,1.9775976999999998,0.8674111999999999,-2.5009172000000004
14.800188,-1.9568577,-0.78503,1.8524924999999999,0.56505036,-2.5301864
14.044108999999999,-2.8952124,-0.027016172,1.573013,0.45964992,-2.4418203999999997
13.713567000000001,-3.3938,0.25123796,1.2099844,0.47987828,-2.2496421000000004
13.473475,-3.7088099999999997,0.06335058,0.8889834000000001,0.3968355,-1.9882791000000002
12.567730000000001,-3.8077576,-0.031411927,0.6510427,0.24193753,-1.7077348
11.364222,-3.4775300000000002,-0.06261316,0.5003859,0.05988224599999999,-1.4383781999999998
10.434104,-2.7382772,-0.65943974,0.36198127,-0.01303761,-1.2329006
9.6383,-2.1738489,-1.3866258999999999,0.11072369,0.025272367999999996,-1.1280411
8.652531,-2.032907,-2.1087937,-0.23420574,0.16954128,-1.0024123999999999
7.7747674,-2.1819319999999998,-2.8989952000000003,-0.5967106,0.41228166,-0.8528201999999999
6.793882400000001,-2.5242355,-3.5092676,-0.71649253,0.5895373,-0.6425604
6.2379489999999995,-2.782953,-3.7955759,-0.5062153,0.6028541999999999,-0.35351643
5.806686,-2.8967352,-3.8471375,-0.22354177,0.41706386,-0.061261058
5.6178217,-2.8858845,-3.7180898,0.055902895,0.21158627,0.35393533
5.7927423,-2.8676312000000004,-3.4166217000000003,0.34655258,0.02953097,0.8617738000000001
6.0381290000000005,-2.569285,-3.1081047,0.40936697,-0.13386676,1.2306840000000001
7.058078,-2.614794,-3.4704912000000006,0.09688323,-0.20093976,1.3919698999999999
8.033609,-2.914002,-4.092696,-0.46204102,-0.24939009999999998,1.6022296999999999
8.558342,-3.4467025000000002,-4.555265400000001,-0.87725484,-0.34042647,1.9051316000000003
8.508274,-3.7734725,-4.264101999999999,-1.0140537,-0.3877947,2.2176153999999997
7.983772,-3.9305706,-2.9950411,-0.7899535,-0.32976252,2.3953946
7.8931184000000005,-4.1934924,-2.129221,-0.28370327,-0.34840262,2.2878822999999997
8.110062,-5.1783323,-2.5567775,0.24966934,-0.60391885,1.7688563000000002
6.918725500000001,-4.615456,-2.5003892999999997,0.43065998,-0.87646943,1.1896862
6.648803,-3.9758785000000003,-3.031203,0.26190412,-0.8881806000000001,1.089068
8.067981,-3.1581723999999998,-4.884985400000001,-0.17777924,-0.60178953,1.2429187
8.9379,-2.8395805,-6.2235165,-0.69519955,-0.24778439,1.3089271999999998
8.917760000000001,-3.0612454,-6.5441199999999995,-1.0768681999999998,-0.21797417,1.2679468
8.96981,-3.4096017,-5.329445400000001,-1.2578588,-0.42238712,1.3206383
9.974685000000001,-3.5210855000000003,-3.609642,-1.3004622,-0.6837675999999999,1.4829888
11.778648,-3.1176912999999997,-2.310874,-1.2248546,-0.9099972,1.6293870000000001
13.475237,-2.37546,-2.1216362,-1.0726095,-1.0904642,1.6671734
14.607168,-1.0650368000000001,-3.1271338,-0.90067714,-1.1995822,1.632581
12.114345,-0.17942148,-4.4023333,-0.7431088,-1.2570734,1.5330448
8.770814,-0.030837318,-4.9584779999999995,-0.67018896,-1.2363214,1.4377499
7.3368970000000004,0.032637756000000004,-5.1803627,-0.6957230999999999,-1.1373090000000001,1.3983577
7.4552570000000005,0.11658804,-4.974816000000001,-0.7564082,-0.9989043,1.3073388000000001
7.4552855,-0.3056438,-4.218353700000001,-0.8490329,-0.7779805000000001,1.1231368999999998
7.288065,-1.0561111,-3.4624273999999997,-0.9565626,-0.46232027,0.8346339
7.607039500000001,-1.6743226999999998,-2.8498278,-0.8799077,0.02687807,0.5365141999999999
8.658439,-1.8216715,-2.190254,-0.6009691999999999,0.26323056,0.21500711
9.517364,-1.3773267,-1.8990041000000002,-0.35503490000000004,0.37128390000000006,-0.27312657
10.501026,-0.9238171000000001,-1.8794962,-0.22888248,0.5522745,-0.68514645
11.185203999999999,-0.4095809,-2.0255810000000003,-0.07237881,0.65928066,-1.0114707
11.7001095,-0.38106117,-2.3958395,0.20228367,0.61189497,-1.189791
12.233048,-0.47126508,-2.5193706000000002,0.5349958,0.61721826,-1.4602122
13.19164,-0.41385216,-2.473967,0.79210025,0.69919634,-1.7279806
14.117832,-0.10515334,-2.1584972999999996,1.0481575,0.8711462,-1.8972427
16.132092999999998,-1.2897469,-2.2022252,1.281316,1.1612548,-2.0138307
16.717571,-1.8887761000000003,-0.9374832000000001,1.4713475,1.3784436000000002,-2.1357245
16.553204,-1.1272955,-0.48180914,1.6416916000000001,1.416771,-2.2501830000000003
15.815579000000001,-0.46173617,-0.46509764,1.7486978,1.2203517,-2.4029694
15.240166,-1.1543117,-0.84137994,1.7481567,0.94884825,-2.5738369999999997
14.169278,-2.1955404,-0.82081854,1.5890001,0.74658203,-2.6270695
13.85605,-2.8542907000000004,-0.3852079,1.3212317,0.6512871,-2.5264688
13.990767000000002,-2.9897547,-0.33262163,0.98906064,0.6225415,-2.2278254
13.330044000000001,-3.239125,-0.35928348,0.6845705,0.5703736,-1.8679736
12.004518,-3.3492105000000003,-0.28662422,0.519026,0.3798011,-1.5693302
10.902667999999998,-3.0021086,-0.5750871999999999,0.42586035,0.074787356,-1.4346607
9.89038,-2.5495088,-1.0405583,0.25392795,-0.07744026,-1.3766459
9.066363,-2.3907254,-1.571918,-0.072902404,0.072658055,-1.2403531
8.680705,-2.3026187,-2.2696072999999997,-0.43381903,0.43996260000000004,-1.0284876
8.148253,-2.3607402000000004,-2.971434,-0.5977753,0.7902326999999999,-0.7181506
7.257064999999999,-2.6228477999999997,-3.4823665999999998,-0.3635521,0.8360127,-0.44718826
6.3519893,-3.0488625,-3.6172462,0.15810938,0.48733082,-0.26621506
5.641659,-3.418968,-3.6038002999999996,0.5413836999999999,0.019949114,-0.050073497
5.740261,-3.3349025,-3.3540947,0.6409198,-0.032201323999999996,0.41303217
6.5098724,-3.0827932000000002,-3.0833392,0.6084567,0.12534955,0.94535756
7.86615,-2.8218062,-3.2723374,0.40404373,0.18444639999999998,1.2567593000000001
8.65932,-3.0820557999999996,-3.8746803,-0.061191242,-0.0013264503,1.2647529
8.91414,-3.5803561,-4.365214,-0.5205968,-0.28878218,1.3073214
8.388622,-3.9880793,-4.0449657,-0.8389274,-0.41441098,1.6421628000000001
7.744974000000001,-4.3398356,-2.9371683999999996,-0.86180866,-0.4053527,2.064829
7.8523016000000005,-4.341741000000001,-1.7533218000000002,-0.5690297,-0.25097835,2.254337
8.275317999999999,-4.396415,-1.8330487000000002,-0.07663741,-0.24619615,2.0898573000000003
8.145611,-5.086203599999999,-3.23177,0.46153486,-0.5469513,1.6155466
6.5486107,-4.4000639999999995,-3.7149389999999998,0.7271565,-0.87859875,1.1838393
6.5120373,-3.3607793,-4.2945848,0.603657,-0.8333424,1.0773568
8.170778,-2.696848,-5.451281,0.2549926,-0.5267229,1.1023848
9.408992,-2.420423,-6.3634624,-0.23952898,-0.15144221,1.1045141
8.989251,-2.9386718,-5.9055285,-0.77131337,0.054558992,1.1130314
8.513906,-3.5995480000000004,-4.329301,-1.1380943000000001,-0.11205014,1.1534879999999998
9.516435000000001,-3.3901322,-2.8663668999999996,-1.2504063,-0.3798011,1.2194965
11.692802,-2.8568666,-2.0563032999999997,-1.224331,-0.48041934,1.2711407
13.368026,-1.8906915000000002,-2.0019646,-1.0933788999999998,-0.53471655,1.294022
13.38151,-0.5626757,-2.788297,-0.9219702,-0.6363819000000001,1.3014746000000001
11.260381,0.059309165999999996,-3.7358549,-0.72075117,-0.79555595,1.3408666999999999
8.892439,0.39791632,-4.4192557,-0.55679494,-0.9387428,1.3461899
7.9074836,0.61390203,-4.802203700000001,-0.48279297,-0.98239344,1.2801815
7.5140777000000005,0.38565803,-5.0215316,-0.5376312,-0.8184547,1.1662639
7.2399892999999995,-0.29232246,-4.7915254,-0.6254562,-0.5634621,1.0305122
7.3887463,-1.0504512,-4.083579,-0.5685061,-0.48148397,0.95919806
8.082988,-1.5012124,-2.9670482000000002,-0.26986279999999996,-0.5890137,0.8766789
8.622871,-1.534214,-2.1868925,-0.08834857,-0.66406286,0.65629613
9.262554,-1.391625,-1.7926441000000002,-0.17723818,-0.46603779999999995,0.2676986
9.715498,-1.4187847,-1.8244008999999999,-0.48333403,-0.030613074,-0.16666149
10.140996000000001,-1.3494487,-1.9466008999999997,-0.66271895,0.28185323,-0.52173126
10.76459,-1.136288,-2.261965,-0.5429545,0.39044762,-0.7548898
11.415803,-0.90698105,-2.5154057,-0.2741214,0.49319515,-1.0519273999999998
12.186285,-0.831851,-2.7564826,0.10114183,0.64383453,-1.461818
12.811948,-0.8131763000000001,-2.4807662999999995,0.47909287,0.8887041999999999,-1.846157
14.123529999999999,-2.0883950000000002,-2.052147,0.75696677,1.1644487,-2.1485002
14.597984,-1.4874313,-1.555082,0.9118646999999999,1.3353165,-2.3491957
15.579798,-0.68360204,-2.1092823,1.0263234,1.359821,-2.5408327999999996
16.282792999999998,0.23380816,-2.8721897999999997,1.1397175,1.1793538000000001,-2.6797786
16.36409,-0.13209289999999999,-3.2336566,1.1753745,0.8828398999999999,-2.8330882
15.784310000000001,-1.0859716,-2.1078837000000004,1.1099073,0.6496988,-2.9118724
15.583351,-1.7191039000000001,-1.2113321000000001,0.98906064,0.38247144,-2.7809202999999996
15.532010000000001,-1.7445686000000002,-0.5077527000000001,0.8868541999999999,0.12374385,-2.4178743
14.781120999999999,-1.2707753000000002,-0.0154856965,0.73087406,-0.09236282,-1.9627273999999997
12.890382,-0.7248302,-0.21121648,0.47376963,-0.15517722,-1.6470672
11.12463,-0.48733497,-0.88278043,0.08836602,0.13651966,-1.5453843
9.584258,-0.44308054,-1.564898,-0.24432865,0.5011713,-1.4229493999999998
8.6453285,-0.8988790999999999,-1.8923675,-0.41413173,0.5245936,-1.1078128999999999
8.071734,-1.7646703000000001,-2.182286,-0.5509480999999999,0.48200756,-0.7351850000000001
7.84623,-2.4731145,-2.5729337,-0.56531215,0.4559149,-0.33700562
7.155234299999999,-3.0410671000000002,-2.7232418,-0.47801077,0.2541723,-0.061802108
5.925228,-3.648505,-2.6962924,-0.47748718,0.27652997,0.11971214
5.251423,-3.8438332,-2.6491458,-0.39390334,0.6475521,0.5365141999999999
5.473413,-3.6864767,-3.0559015,0.06974336,0.6443581,1.2045914
6.688192999999999,-3.3574083,-3.5229623,0.57917005,0.24778439,1.6421628000000001
8.134357000000001,-3.310338,-3.8801197999999997,0.81391686,-0.36011377,1.4201743999999998
7.5742106,-3.7316027000000003,-3.6118925,0.67018896,-0.6720565,0.99377304
7.011305,-4.431198,-3.4571697999999995,0.09208357,-0.15250687,1.0794861
6.8069167,-4.6831255,-3.428947,-0.35344663,0.47774896,1.4111161
7.066965,-4.498743,-2.9812217,-0.3151192,0.66245717,1.6836842
8.431919,-4.732638,-2.9950888,0.14531611,0.37287214,1.8444465
8.351167,-5.337097,-2.954713,0.8027466999999999,-0.25206044,1.8375175
6.5322824,-5.803439599999999,-1.7798015999999999,1.0923318000000002,-0.84665924,1.6432099999999998
6.465148999999999,-6.099506400000001,-1.425115,0.77825975,-0.9659001,1.5718784
9.047592999999999,-4.849206400000001,-2.9268255,0.06600835,-0.6848323000000001,1.7358521
12.262871,-2.820159,-4.9552984,-0.72874475,-0.39259437,1.9626052
11.792593,-2.0851104,-6.439214700000001,-1.1849389,-0.24141394,2.1324257999999996
9.540894,-2.5521903,-6.4276175,-1.2152902,-0.26057765,2.2846708
8.843625999999999,-3.0941992000000003,-5.129836,-0.76440185,-0.8557174999999999,2.060553
9.01685,-3.4680779999999998,-3.2759192,-0.14425147,-1.4939669,1.7257292000000002
9.34794,-3.200837,-2.4005032,0.17140879,-1.6084256000000001,1.536745
10.11488,-1.9291806,-3.2550225,0.05429719400000001,-1.3012651000000002,1.4201743999999998
9.918028,-0.38910565,-5.5331917,-0.22942352,-0.95473,1.2908281000000001
8.480339,0.18377891,-7.2912636,-0.5828876000000001,-0.60178953,1.0501995000000002
7.239185000000001,0.25060588,-7.897054,-0.8777959000000001,-0.34894368,0.69195324
7.1736317,-0.030521285,-6.7462664000000006,-1.1460879,-0.115785144,0.3331659
7.311451400000001,-0.5991059,-4.4947214,-1.3041973,0.12374385,0.1473756
8.894775,-1.1122406999999999,-2.5858432999999996,-1.2110316,0.33028612,0.121300384
11.479154,-0.58549726,-1.4833995,-0.9512568000000001,0.24991369,-0.09267698
12.161491,-0.11532391,-1.5956588,-0.78569484,0.19242255,-0.4237834
11.974524,0.26162878,-2.8835285,-0.72076863,0.206263,-0.74104935
11.957322999999999,0.62274146,-3.9871885999999996,-0.6403788,0.28663543,-0.98965406
12.206934,0.8556398000000001,-4.4311404,-0.45087089999999996,0.40481165,-1.2031078000000002
12.933764,0.9799180000000001,-4.1860027,-0.26242772,0.5453456,-1.3840983999999998
13.408362,1.086843,-3.5245905,-0.044174284,0.746041,-1.5182445
12.914352000000001,0.8698135,-2.6753383,0.20654227,1.1511319,-1.6513258000000002
13.332524,-1.2372372999999999,-2.1226993,0.46045277,1.6339598,-1.9026009
14.381376000000001,-2.6397605,-1.3809563999999999,0.755361,1.8777648,-2.196968
15.547360999999999,-2.1308298,-1.3960111000000002,1.0657153999999998,1.8586011000000002,-2.440232
15.708003,-1.9331455000000002,-1.5500156999999999,1.2962036,1.6818689999999998,-2.6068587000000005
15.538369,-2.2091298,-1.7187495,1.4841232,1.2884718000000002,-2.6829723999999997
15.388588,-2.9810684,-1.2361263,1.5756658000000001,0.9834581,-2.6744552
15.186719,-3.566901,-0.60685354,1.5762068,0.7508232,-2.556279
14.535639000000002,-3.9032576,-0.56749284,1.4282204,0.580479,-2.2597826000000003
13.480447,-3.4258633,-0.14136325,1.179092,0.40055305,-1.9361286
12.166442,-2.4174924,0.054769757999999995,0.8591558000000001,0.29621729999999996,-1.6566665
11.220081,-1.6322135,-0.03203442,0.48546332,0.30527553,-1.4453247
9.990563,-1.5164586000000002,-0.392266,0.07717845599999999,0.34412658,-1.1360348
9.125078,-2.033587,-0.99929196,-0.22729422,0.37021923,-0.70752156
8.230615,-2.7907486,-1.6816107,-0.34972906,0.29037043,-0.22523473
7.251702000000001,-3.2553577000000002,-2.0386627,-0.32470104,0.15142477,0.10533062
6.4807305,-3.516,-2.2596857999999997,-0.16927949,-0.14878932,0.34540066
5.616979,-3.6474419,-2.6279047,-0.020228365,-0.35426694,0.5684537
4.9880605000000005,-3.4516153,-3.3818386,-0.27839747,-0.16901769,0.9325643
5.068458000000001,-3.0158226000000004,-3.8701599,-0.4923923,0.007173303000000001,1.4670016000000001
5.8546276,-2.9430964,-4.2710547,-0.44928265,-0.10726794,1.8886207
6.377999999999999,-3.3191010000000003,-4.6361127,-0.41627848,-0.39737657,1.9594113999999998
6.2015095,-3.7573452000000005,-4.4634237,-0.45725882,-0.6736622,1.7571276000000002
6.019789,-4.126359,-3.902798,-0.59459877,-0.7220951,1.8204657
6.320462,-4.1129704,-3.2236105999999998,-0.6776415,-0.5922076999999999,2.069594
6.947102,-3.5023150000000003,-2.8854917999999996,-0.5594653,-0.33616787,2.1515720000000003
7.488421400000001,-2.7991188,-2.6338133999999997,-0.16076228,-0.099815376,1.9796396
8.563830000000001,-3.4108275999999997,-3.5746007000000004,0.36142278,-0.3574609,1.5910422
7.8046,-4.255491999999999,-4.507324,0.6398377,-0.8892453000000001,1.1843455
7.1515474,-4.4385915,-3.6954024,0.49345693,-1.018609,1.0603049999999998
8.564633,-4.013094000000001,-2.9576051,-0.09688323,-0.58156115,1.1864748
10.762061,-3.3437805,-3.5567207,-0.7500378000000001,-0.12856095,1.2897459
11.855253999999999,-3.018935,-3.8952989999999996,-1.0641272,-0.07958701,1.2971985000000001
10.890783,-3.450782,-3.79819,-1.0007718,-0.35585517,1.3360496000000002
11.292089,-3.6103796999999997,-3.0960188,-0.6627364,-0.78970915,1.3110389999999998
12.658145,-3.304324,-2.0696054,-0.3295007,-1.0941993,1.1843455
13.70328,-2.5058577,-1.5064222,-0.1857903,-1.0862231000000002,1.0587168
13.672443,-1.3041409,-2.2244813,-0.1990897,-0.9435424000000001,0.9788679
11.798396,-0.15310441,-3.6036086000000003,-0.30394909999999997,-0.9483421000000001,0.8814436
9.257995,0.38647205,-4.778414700000001,-0.47589892,-0.92224944,0.7584852
7.7874669999999995,0.52279794,-5.4605517,-0.7415206,-0.6837675999999999,0.5934643000000001
7.6251683,0.40957129999999997,-4.939822,-0.9869313,-0.38460076,0.47528806
7.7546277,0.090634905,-3.4594489999999998,-1.1636634,-0.107791536,0.34594172
8.007617999999999,-0.41979933,-2.0332901000000003,-1.1540815,0.16898277,0.23148301
9.092881,-0.12899959,-1.3164948,-0.9831963,0.29995229999999995,0.038781215
9.8392105,0.3639091,-1.6571037,-0.8937831,0.46814966,-0.24706881
9.966275999999999,0.73715556,-2.4671483,-0.8309513000000001,0.6039014,-0.52333695
10.276317,0.9139816999999999,-3.1882912999999995,-0.58075833,0.5437573,-0.66867054
11.045295,0.6289664,-3.8482099,-0.02448697,0.19027579,-0.77991784
12.076277000000001,0.35658282,-4.0292597,0.5679825,-0.10833259,-1.0955955
12.657378,0.09317275,-3.7995023999999997,0.8096582,-0.096621424,-1.4676822
12.798109,0.046495397,-2.9560537,0.7638782,0.28717646,-1.6364207
13.699191,-0.9408254999999999,-2.4553401000000004,0.6850940999999999,0.8455771000000001,-1.6827418
14.545694000000001,-1.8640009999999998,-1.4881976000000001,0.70158744,1.296448,-1.7599376
14.989684,-1.519686,-1.2562951,0.8745845,1.4556221,-1.9127063999999998
14.341987,-1.0463045,-1.1783303,1.1338357,1.3954605,-2.1293714
13.722760000000001,-1.4558566000000002,-0.85876185,1.355283,1.1154747999999999,-2.345478
12.863893,-2.1639082000000003,0.25459942,1.4154446000000003,0.7806334,-2.4791005
13.423063,-2.5745617999999997,1.1225454,1.2615938,0.6251944,-2.438644
14.619302,-2.3617362999999996,0.7311126,1.0039483,0.6922674,-2.2587178
14.219192499999998,-2.4913871,-0.5278066,0.7873005999999999,0.700261,-2.0106542000000003
12.619875,-2.4924502,-1.159081,0.6760358,0.4559149,-1.7748427
11.347788000000001,-2.0330317,-1.0446094000000001,0.51687926,0.17645279,-1.6252506000000002
10.392521,-1.5121586,-0.84982663,0.18788469,0.19240509,-1.5432899
9.688061,-1.2206597,-0.60174906,-0.22996458,0.45910886,-1.3702755
9.189732000000001,-1.4076086,-0.82615286,-0.59301054,0.8200255,-1.0381044
8.408896,-1.6819363,-1.4710358000000001,-0.65954244,1.0345613999999999,-0.65376544
7.524228999999999,-2.1236665,-2.330765,-0.36678094,0.8972039,-0.43764132
6.4673996,-2.518777,-2.891104,-0.03832743,0.3931005,-0.31946507
5.953029,-2.6027176,-3.0275543,0.0021118484,0.25204299999999996,-0.013369222
5.8857617,-2.6862939999999997,-2.9843724,0.05427974,0.32550392,0.65095544
6.737551700000001,-2.8313541,-3.2783036,0.0021118484,0.1870993,1.1688993
7.96322,-2.880464,-4.0604224,-0.27520353,-0.057752945,1.4483788999999998
8.897839999999999,-3.4767639999999997,-4.685865,-0.51848495,-0.27920032,1.7539337
8.564039999999999,-4.0663504999999995,-4.7464666,-0.5850344,-0.45540875,2.1888349999999996
8.034367,-4.622447,-4.257015,-0.42692497,-0.68059117,2.5955315
8.127625,-4.714212,-3.042954,0.093148224,-0.90895003,2.7882333
8.425436,-4.2224526,-2.4369812,1.0199181,-1.1256152,2.5662622
9.088524000000001,-4.8801875,-3.42277,1.6842601000000001,-1.3502566,1.9402301
6.9029145000000005,-4.9506345000000005,-3.6107912000000004,1.6507150000000002,-1.268802,1.2370371
5.4443765,-4.366028,-3.4523335,1.1397,-0.710925,0.9059306
6.673521000000001,-4.002042299999999,-4.5408525,0.42530182,-0.042324234,1.0118719999999999
7.487004,-3.513807,-5.085389599999999,-0.26138049999999996,0.47188467,1.2508774999999999
7.652165400000001,-3.6134345999999997,-4.2090735,-0.7010813,0.6794916,1.5090641000000002
7.997390299999999,-3.8555937000000005,-3.0800447,-0.8671668,0.15461873,1.4185511999999998
9.60549,-3.9931165999999996,-1.9397343,-0.875684,-0.6454576999999999,1.2370371
12.5294895,-3.0731206,-0.9593758,-0.9597915000000001,-0.8935213,1.3200798
14.730297,-1.3921133999999997,-1.2103072,-1.1008489,-0.7199831999999999,1.5186458999999999
15.511928,-0.15486655,-3.4769747000000004,-1.1492993,-0.5235464,1.6628973000000002
13.329469,0.73035604,-5.6887574,-0.9933192,-0.55974454,1.6911019
9.827614,0.78434044,-6.319639,-0.70266956,-0.8967153,1.6581151
7.1222806,0.39437288,-6.108863400000001,-0.43650684,-1.2842307,1.4968293
6.0833507,-0.014097058999999999,-5.360225,-0.33803537,-1.4902494,1.2854873
6.216267,-0.73922414,-4.328113,-0.45408230000000005,-1.3268342,1.0624343
8.308618,-0.66114444,-4.033636,-0.7511199000000001,-0.82164866,0.82288784
8.475349000000001,-1.0147966999999998,-3.8672294999999997,-0.9416924000000001,-0.17114699,0.6227335
7.825371700000001,-1.2749603,-3.4914355,-0.9794788000000001,0.22966787,0.23998277
7.910021,-1.382211,-3.1088707,-0.9943839,0.4346219,-0.41954225
8.467467,-1.2481548,-2.427931,-0.9943839,0.7156897,-1.0098825
9.670794,-1.1554991000000001,-2.1079414,-0.86769044,0.90997976,-1.2930795
11.191216,-0.9422908000000001,-2.1705353,-0.5754524999999999,1.0744771,-1.4107322
12.861231,-0.55850023,-2.5911105,-0.17301449,1.229375,-1.5475311
13.71166,0.06816771,-3.0901291,0.33587116,1.3874844,-1.7658019
14.466647,0.44779232,-3.2487307,0.8006,1.4620098999999998,-2.0048072
16.255508,-1.0023085999999999,-3.4833622,1.2328482,1.5056607,-2.185257
16.742335999999998,-1.3175579,-2.5765154,1.5724718999999998,1.5370591,-2.3497543
17.806501,-0.969259,-1.9213756000000002,1.8306409,1.50779,-2.4780533
18.022976,-0.9809715,-1.7376923999999998,1.9610693,1.3789672,-2.5903654
16.717821,-1.9799759999999997,-1.3389716999999999,1.9908796999999998,1.1809421999999998,-2.704283
14.876420000000001,-3.1689557999999995,-0.5370769,1.8710977,1.0089923,-2.7330284
14.043391,-3.9721434,0.25640944,1.5831183000000002,0.8956156999999999,-2.560555
13.80352,-4.309908,0.75788933,1.2764989,0.7827626999999999,-2.2448947
13.4042635,-4.181272,0.84847635,0.9927607,0.5969724000000001,-1.8743963
12.157373,-3.719632,0.5865986,0.73885024,0.3371976,-1.597046
10.600251,-3.1789443,-0.02510081,0.44820055,0.18229964,-1.4101912
9.422371,-2.66467,-0.6717268,0.07609635599999999,0.19453439,-1.2441231000000001
8.462363,-2.4426508,-1.4653951,-0.31248376,0.36435494,-1.0067059
7.885035,-2.4819252,-2.1845176,-0.56267667,0.49850094,-0.72509706
7.3487053,-2.6800504000000003,-2.7695837000000005,-0.53766614,0.47188467,-0.44350561
6.3877397,-2.8111374,-3.4574665999999996,-0.2523397,0.24511404,-0.13475688
5.3551397000000005,-3.0361254,-3.8952322,0.15116297,-0.1274963,0.2123193
4.640374700000001,-3.0701807,-3.9827354,0.17245598,-0.32925636,0.5327791999999999
4.811416599999999,-2.7753682,-3.9607277,0.08354891,-0.38035959999999996,0.8537627
5.8275633000000004,-2.816357,-4.195800299999999,-0.09049532,-0.37716565,1.2599357
7.371776,-3.4108756000000002,-4.664575,-0.40776128,-0.45221480000000003,1.6868433
7.947093,-3.9290477999999998,-4.868743,-0.6611482,-0.55548596,2.124956
7.9119077,-4.3068624,-4.5558596,-0.61803854,-0.8349655,2.4400926
7.7871312999999995,-4.465119400000001,-3.6719296000000003,-0.34388223,-1.3837843,2.5343053
7.431267299999999,-4.4458985,-2.5075338,0.031922072,-1.5626457,2.4427453999999997
6.795912700000001,-3.8785205,-1.84275,0.3172485,-1.1623370000000002,2.1701946
7.377138599999999,-3.7658303,-2.5766782999999998,0.41732568,-0.59381336,1.7294292000000002
8.395622999999999,-4.470635400000001,-4.5423083,0.2735978,-0.31860986,1.4020579
7.818955,-3.3571975,-4.36259,-0.10700613,-0.20095721,1.1773992
7.4500660000000005,-3.3953516,-4.7597494000000005,-0.61803854,-0.21160372,1.0198482
7.666301,-3.527799,-4.821673400000001,-1.2270188,-0.13974851,0.9703332
8.441198,-3.9782245,-4.0093017,-1.6629846000000001,0.013543755,1.0193071
10.852687,-4.1055293,-3.3227403,-1.8652682,0.045500733,1.0757511999999998
13.272228,-3.6269953,-2.9278789,-1.8455808999999999,-0.10461503,1.0565699
15.491270000000002,-2.6952295,-2.9456055,-1.6693900000000002,-0.38781217,1.0097253000000002
16.187656,-1.5498433999999999,-3.0071557,-1.446878,-0.598072,1.0501821000000002
14.900018,-0.41666773,-3.7970986000000004,-1.2046611,-0.7535109999999999,1.1050203
12.292301,0.19525194,-4.625387,-1.0364463,-0.85358816,1.1119318
10.179015,0.59727675,-5.157369,-0.9108175,-0.85678214,1.1316366000000002
8.576068,0.68455976,-5.215223,-0.8011585,-0.81951934,1.1619704
7.380317999999999,0.33155861,-4.691256500000001,-0.6675361,-0.8003556,1.0496584
7.01457,-0.17495868,-3.5497297999999997,-0.62868506,-0.75244635,0.859086
7.225864,-0.6370492,-2.4783049999999998,-0.6127153000000001,-0.5288696999999999,0.6882008000000001
7.859005499999999,-0.7773686,-1.6937541,-0.6324026,-0.14400712,0.46568874
7.867490299999999,-0.6986376,-1.1062074,-0.7745422,0.42024037,0.039304815
7.9736304,-0.73843884,-0.7202812,-0.9070825000000001,0.95150113,-0.38015017
8.791719,-0.7659434,-0.78048104,-0.75005525,1.2096877000000001,-0.75012505
9.572315,-0.7861218000000001,-1.1080364999999999,-0.3295007,1.18733,-0.94547975
10.296379,-0.7012904000000001,-1.1178814,0.27944466,0.9765292,-1.1387227
11.30273,-0.6707978,-0.99181247,0.7766366,0.7492175,-1.4804754999999998
12.989282000000001,-0.29677567,-0.93738747,1.0481225,0.7066314,-1.6880650000000001
15.099463,-1.2389708000000001,-1.6122364,1.1588637,0.8615469000000001,-1.7210691999999999
16.549727999999998,-1.7387363,-1.6471533999999999,1.2456241000000001,1.0957700000000001,-1.6864767
17.389748,-0.82075155,-1.6172162,1.3813583,1.1846596999999999,-1.7200220000000002
17.104359,0.15418659,-1.4982243999999998,1.5756658000000001,1.0356085,-1.8642734
16.254215,-0.21726902,-1.0309815,1.6869131000000002,0.7896741999999999,-2.0261004000000002
14.904354999999999,-1.1262708000000001,0.023788787000000002,1.6304866000000002,0.4410098,-2.088391
13.507473000000001,-1.8945797999999998,0.9017521000000001,1.4085156,0.18708184,-2.0101306
13.567089000000001,-2.0642807,0.95368713,1.0635687,0.073705256,-1.7913362000000002
13.373647,-2.1882523999999997,0.07025546,0.7825009,0.05932374,-1.5922464
11.846232,-2.3453597999999998,-0.6130976,0.5184675,0.07955211,-1.3676225
10.337713,-2.2567554,-1.0109085999999998,0.33426547,0.088610366,-1.1466987
9.154316,-1.7039436999999997,-1.2141093,0.22621213,0.028989919,-1.0658028
8.56814,-1.2091676000000002,-1.2996876,0.09951867,0.0018325957,-1.0242639999999998
8.218615,-0.9420801,-1.4883507,-0.09262462,0.008761553,-0.87362456
7.624249000000001,-1.1782537,-2.1692232999999996,-0.27787387,0.15940093,-0.63140774
6.6994743,-1.5419233,-2.9165400000000004,-0.3545462,0.41119957,-0.41954225
5.863112999999999,-1.8193346999999997,-3.4696290000000003,-0.21240658,0.42291072,-0.20821778
5.859225,-2.107817,-3.459564,-0.16556193,0.18708184,0.020664698000000002
6.2499776,-2.2745585,-3.2366064,-0.19217820000000002,0.26427776,0.40608576
6.408119,-2.1245859,-2.982888,-0.12084660000000001,0.34732053,0.8074591
7.274820299999999,-2.0939305,-2.80135,-0.14639822,0.21104520000000002,0.9921673000000001
8.715133999999999,-2.3768487,-2.9008818,-0.37795106,0.07902851,1.1284426
9.320704,-3.1079035,-3.4845307,-0.59461623,0.03111922,1.3695948
9.079905,-3.917067,-3.8292288999999995,-0.6824412,-0.008255407,1.6474687
8.871388,-4.3805943,-3.5469906000000004,-0.60526276,-0.10461503,1.8177953000000002
8.607432000000001,-3.9396684,-2.8320436,-0.27148595,-0.1881814,1.9013791000000002
8.330922,-3.7396949999999998,-2.6702533,0.3135135,-0.36332518,1.8859328999999998
8.672286999999999,-4.850892,-3.5655410000000005,0.7340505999999999,-0.6284233,1.5159755
7.4402595,-4.591073000000001,-3.0071652,0.7787659,-0.7801273,1.0789276
7.6050960000000005,-3.6890435,-2.7654276,0.4774697,-0.6704682,1.0230422
8.740436,-3.2293856,-3.9649513,-0.0010646508,-0.42507493,1.1380244
8.748345,-3.0643580000000004,-4.514545,-0.5041209,-0.16742943,1.2306491000000002
8.773217,-3.129394,-4.0823339999999995,-0.83681554,-0.05403539,1.2609829
9.586183,-3.1323244999999997,-3.5153489999999996,-1.0332523999999998,-0.27122417,1.0874448
10.791213,-3.0195098,-2.7245154,-1.0987197,-0.51396453,1.0012256
11.401475999999999,-2.6182892000000004,-1.8054005000000002,-1.1040428999999998,-0.53632224,1.1476064
11.93544,-1.6566726000000003,-1.9144037,-1.0369699,-0.53951615,1.3115625
12.642783,-0.2864806,-3.2534327999999997,-0.7985055999999999,-0.6875026,1.4265449
10.519988,0.46103704,-4.494596499999999,-0.5126381,-0.9238550999999999,1.4611546999999998
7.9786296000000005,0.5502642,-5.1224523,-0.26403340000000003,-1.2134402,1.5239516000000002
7.022299,0.364273,-5.1577806,-0.1272345,-1.3688791999999999,1.5984946000000002
7.173487700000001,0.18507179999999998,-4.6489367,-0.10859439,-1.3507801000000002,1.6203113
7.76543,-0.42670420000000003,-4.374417,-0.23689353,-1.2193044,1.4563551000000001
8.640683000000001,-0.47952029999999995,-3.7664049,-0.3683692,-0.9440835,1.1715697
7.9179889999999995,-0.96259356,-3.002961,-0.497733,-0.5645441999999999,0.8729264000000001
7.372571000000001,-1.3308984,-2.3828917,-0.7622899999999999,0.01993166,0.4098032999999999
7.743653,-1.5431875,-1.8990137999999999,-1.1051251,0.62678266,-0.078330375
8.647158000000001,-1.4625891000000002,-1.4965963,-1.2791867000000001,1.1857243999999998,-0.69102824
9.74986,-1.5336201999999999,-1.9300903999999999,-1.0848966999999998,1.317741,-1.1360523
10.553009,-1.4419223,-2.2545145,-0.66701245,1.222987,-1.3862453000000001
11.482525,-1.1705538999999998,-2.6846662,-0.27947956,1.1830714,-1.6593368999999998
12.69015,-0.50917006,-2.9068387,0.027646014,1.3289286,-1.8179698
15.412367000000001,-0.8610028000000001,-3.4994513999999994,0.37526324,1.5322768999999998,-1.8621441000000003
17.323591,-1.3011528,-3.2155182,0.7734426,1.6062614,-1.9435986
17.934965,-0.70138615,-2.9591757999999997,1.1359476,1.4886262,-2.0713567999999998
17.532087,0.19228312,-2.5759695,1.3845522,1.2043643999999998,-2.2379658
16.495876000000003,0.20538420000000002,-2.1880033,1.467595,0.9461779,-2.3604007
16.44649,-0.8364478999999999,-1.1323329,1.3723,0.8051204000000001,-2.3667886
14.803637,-1.9574611000000002,-0.09775046,1.1311653999999998,0.7726398,-2.2145436000000003
14.180991,-2.8964477000000004,0.28012162,0.88203704,0.6842738,-1.9867082999999999
13.810070999999999,-3.5566727999999994,0.12855905,0.7356388,0.4559149,-1.7982651
12.325609,-3.8441017,0.10976936,0.6254562,0.23233823,-1.6800888999999999
10.871227000000001,-3.2499852000000002,0.31198364,0.46469390000000005,0.21902137,-1.5736238
9.682277000000001,-2.296997,0.03811569,0.23047073,0.31696925,-1.4352192
8.7145405,-1.5845115,-0.47400406,0.012217305,0.33932692,-1.2483816
8.004535,-1.4056358,-1.3447081,-0.18099064,0.34306192,-0.99925333
7.3448934999999995,-1.6866096999999998,-2.0279941999999997,-0.25340435,0.33560935,-0.6984808000000001
6.681374000000001,-2.1881568,-2.7151492000000004,-0.13362241,0.24085544,-0.38175586
6.1259484,-2.7696509999999996,-3.1691759999999998,-0.12669346,0.025254915,-0.118246056
6.29404,-3.270901,-3.1828902,-0.33590606,0.036442474,0.30333823
6.9416814,-3.2741666,-3.006016,-0.38220966,0.08541641400000001,0.96768034
7.4221787,-3.0311744,-3.020247,-0.30344296,0.0023736479,1.4148337
7.800108,-3.0980492,-3.3849034,-0.38116246,-0.125367,1.4472969
7.8485475000000005,-3.4619772000000006,-3.7941105000000004,-0.46844637,-0.35480797,1.5101111999999999
7.7636395,-3.9980870000000004,-3.8533144,-0.55574775,-0.5459041,1.7651038000000001
7.6960273,-4.533861,-3.6904607000000005,-0.5482952,-0.5629385,2.0584064
7.221611500000001,-4.4039617,-3.0402627,-0.30344296,-0.5006651,2.252714
7.422303,-4.166447,-2.80271,0.19853120000000002,-0.40484658,2.2324855
7.9758806,-5.078092,-4.0893635999999995,0.6659129,-0.3851418,1.9061613000000002
6.411423,-5.031961,-3.842818,0.8373216999999998,-0.7311533,1.4675426
5.898882,-4.6177545,-2.915132,0.6717598000000001,-1.0782295,1.180593
8.087029,-3.9849379999999996,-3.2184009999999996,0.12719959,-0.9137496999999999,1.1795459
9.871858999999999,-3.216907,-3.9700556000000002,-0.5562888,-0.5145056,1.2955927999999999
9.747581,-3.2031066000000004,-4.1477437,-0.98427844,-0.29838148,1.3882173999999998
9.770785,-3.4385335,-4.040838,-1.0726445,-0.26696557,1.4643313
10.657617,-3.508578,-3.3603196000000004,-0.93156946,-0.44050366,1.5362038999999998
11.501419,-2.9174017999999995,-2.3226628,-0.62016785,-0.91107935,1.4196334
12.906757,-2.0570788,-1.8978262,-0.3119427,-1.2602848,1.3110216000000001
13.077427,-0.8394454,-2.752834,-0.114458695,-1.2890303,1.2311727
12.048073,0.29082847,-4.4740734,-0.0016057029000000002,-1.2677374,1.1790048
9.751986,0.85516095,-5.392834,0.08513716,-1.272537,1.1523886
7.925315400000001,0.76358753,-5.877804,0.102712624,-1.1974704,1.0453999
7.2367425,0.34393185,-5.2863975,0.08728392,-0.95527107,0.84843946
7.4213070000000005,-0.19629581,-3.6366775000000002,0.023928462999999997,-0.66675067,0.5471433000000001
7.7317203999999995,-0.781908,-2.2301607000000003,0.04150393,-0.4266632000000001,0.1585457
8.573856,-1.1214919,-1.4916163999999998,-0.11498229,-0.05510004599999999,-0.34182274
9.556083000000001,-0.62981874,-1.1460373,-0.50518554,0.47188467,-0.85285515
9.5584,-0.35800976,-1.1833677,-0.8304450999999999,0.9866345999999999,-1.2483816
10.174917,-0.13029245,-1.3680469,-0.74846697,1.2043643999999998,-1.4070146000000001
10.677566,-0.12600204,-1.6169481,-0.34335864,1.159108,-1.4533181999999998
11.622652,0.07272627,-1.7425861,0.11442378,1.0489254,-1.6018457
12.610356,0.44170147,-1.8175726000000003,0.58074087,0.9504365,-1.814776
14.009260000000001,0.5000051,-1.584339,0.97520274,0.9376607,-2.0170596
17.102894,-1.4441058999999998,-2.0731490000000004,1.227525,1.1245157,-2.1895330000000004
18.242207999999998,-1.2275839,-2.0824766,1.357936,1.2794136,-2.3130324
18.457361,-0.8653124,-2.7537436,1.4883645,1.253862,-2.4280147999999997
17.475567,-1.2231882,-3.1702006000000003,1.61984,1.0510547,-2.514775
15.622998999999998,-2.5581183,-2.1539197,1.6523032,0.8540943000000001,-2.6153934
13.831245999999998,-3.6601884,-0.5850184,1.537862,0.6512696,-2.5477792999999997
13.16809,-4.2914724,0.22569661,1.3121559999999999,0.46443212,-2.319944
13.335023999999999,-4.3955245000000005,0.42482716,1.068892,0.29461157,-1.9414692999999998
12.699525999999999,-4.059637,0.36248216,0.9336639000000001,0.09925687,-1.5438136
11.468753,-3.271916,0.041553766,0.7830245,-0.007731808299999999,-1.2308236000000001
10.026208,-2.3965383,-0.6151087,0.5168617999999999,-0.027419122,-1.0237403
8.986253,-2.0921013,-1.2287235,0.12081169,-0.07532841,-0.8251742
8.095303999999999,-2.1137066000000004,-1.5514139,-0.26668632,-0.05242969,-0.5984036
7.515590700000001,-2.4180577000000003,-1.9021453999999998,-0.5813168000000001,0.05773549,-0.3402345
7.0313683000000005,-2.698543,-2.5328548,-0.60526276,0.13491395,-0.085241884
5.886307700000001,-3.1007113,-3.0985281000000002,-0.3896622,0.14716616,0.17823303
4.874767299999999,-3.2472365,-3.3473813999999997,-0.15011577,-0.03700098,0.44546038
4.405330999999999,-3.2682578999999996,-3.2230074,-0.15598008,-0.12164945,0.73663366
4.5556293,-2.9288652,-2.9703232999999996,-0.20495401,-0.07480481,1.1433476999999999
5.6461120000000005,-2.8364012,-3.4260260000000002,-0.44662976,-0.06948156,1.4281331
6.6647296,-3.1229105,-4.2712655,-0.8767486999999999,-0.032742377,1.6692852999999999
7.60953,-3.716481,-4.893652400000001,-1.1093836000000001,-0.030613074,2.0323138
8.14585,-4.2053866,-4.696169,-1.0673211999999999,-0.23821999,2.371955
8.386936,-4.4480433,-3.9910767,-0.8048935,-0.61245346,2.5848675
8.076513,-4.0621557,-2.7372813,-0.21772982,-0.89458597,2.589667
7.684151600000001,-3.5025062999999994,-2.1525787999999997,0.44713590000000003,-1.0910053,2.3634377
8.636709,-4.540182,-3.3622252999999995,0.8421039,-1.1995997,1.8720925
8.034825999999999,-4.432912,-4.0850253,0.68985885,-0.976023,1.3711655
7.644781599999999,-3.7605917,-4.2394419999999995,0.100042276,-0.47085494,1.1747462
8.702914,-3.7985735000000003,-5.1510773,-0.5243493,-0.07745771,1.2428839
8.768754,-4.309352400000001,-4.9479239999999995,-1.0236706,0.13439035,1.3647951
8.757339,-4.813169,-3.6931519999999995,-1.2956976,0.24350834,1.5314043
10.006413,-4.8409705,-2.8513794,-1.3260313,0.03005457,1.6176409999999999
11.622308,-4.4471245,-2.163755,-1.0800969999999999,-0.5240875,1.4670016000000001
13.509656,-3.3538074,-1.5448635,-0.76654863,-0.8354891,1.3317908999999999
14.238682,-1.9283284,-2.0696628,-0.45462337,-1.0143504,1.3738358999999998
13.693675,-0.4075793,-3.9137727999999994,-0.1362753,-1.1995997,1.4984001
11.525074,0.4266563,-5.2703657,0.17510888,-1.4593745,1.5479151000000002
8.806792999999999,0.5475251999999999,-5.811197,0.4199786,-1.583415,1.4403678
7.1222520000000005,0.18719785,-5.356854,0.5136678,-1.5120833999999999,1.1582354
6.6167115999999995,-0.4049457,-4.0839047,0.46149996,-1.3523858999999998,0.8372519
6.4377303,-1.4579349,-2.7232895,0.25176373,-1.0777059,0.513598
7.914733,-1.8215566000000003,-1.88054,-0.03728023,-0.5389925999999999,0.23839453
9.005981,-1.8505743000000001,-1.2352451999999998,-0.43226570000000003,0.15142477,-0.12411036
8.833704,-1.5145624,-0.759096,-0.86610216,0.9493718000000001,-0.6282138
8.494005,-1.6646788000000001,-0.69082296,-1.0183647,1.5344062,-1.1642742
8.903969,-1.4722329,-0.8847533000000001,-0.7644193,1.6669465,-1.5837466999999998
10.12798,-1.0114927,-1.1954345,-0.3162013,1.458275,-1.8451096999999999
12.258198,-0.47876373,-1.69317,0.25654593,1.1463323,-2.030359
13.929466,0.26978824,-2.2770773999999996,0.74735,0.96907663,-2.1602638
15.243145000000002,0.57041377,-2.854377,1.2668996000000001,1.0047337,-2.2725758999999996
17.804873,-1.2959623,-3.7720935,1.6139758,1.3140235,-2.4280147999999997
18.17201,-1.4851233,-3.7978072,1.845005,1.5823154,-2.6265635
18.1387,-1.053104,-3.6165566,2.025472,1.5940267,-2.811289
17.442516,-1.2159576,-2.9697678,2.1713292999999996,1.3023124,-3.0550942
16.655226000000003,-2.6306531000000004,-1.6341959,2.2192385,0.9057212,-3.1871110000000002
15.567244,-4.1084404,-0.60504353,2.095739,0.6118775,-3.0971391
14.507024,-5.407065,-0.00022026655,1.8407464,0.43249258,-2.8283236
13.773679999999999,-6.153884,0.3029048,1.4904763,0.27492425,-2.4232152
12.761718,-6.063038,0.62318194,1.1093488,0.1397136,-1.9632859
11.681194999999999,-5.137047,0.82462054,0.6818827,0.0018325957,-1.5533953999999999
10.851824,-4.1409345,-0.09251195,0.24059364,-0.08864527,-1.289903
9.818191,-3.591858,-0.8152448,-0.14959218,-0.042865288,-1.0950719
9.245774,-3.4884572,-1.5134132,-0.53019613,0.30366984,-0.8576548
8.322983,-3.6979977999999996,-2.0880408,-0.82351613,0.6422288,-0.5350656
6.9690037,-4.0517650000000005,-2.714048,-0.82777476,0.67736226,-0.12517501
5.6523848,-4.304851,-3.3373256000000002,-0.49453905,0.4351455,0.26872835
4.8229947,-4.498571,-3.8817286,-0.045779984,-0.07480481,0.5375614000000001
4.5083203,-4.48977,-3.9925709000000005,-0.14906856,-0.20840977,0.84631014
4.7881255,-4.23813,-4.2265034,-0.4684638,0.036966074,1.5952833
6.0025606,-4.1637845,-4.583307,-0.6079331,0.037507123999999996,2.429446
7.397719400000001,-4.312350299999999,-4.5896273,-0.5786465000000001,-0.33297393,2.6162834
8.040668,-4.7106585999999995,-4.251317,-0.48762754,-0.9100147,2.2095868999999997
7.9700103,-5.2730856,-3.9291625,-0.37103954,-1.1926881999999999,2.0616004
7.180220599999999,-5.600344000000001,-3.3646769999999995,-0.35667548,-1.0058333000000002,2.1542249
6.436706,-5.6154375,-2.3364537,-0.388615,-0.6539749,2.108445
6.428125,-4.6631865999999995,-1.3909258999999998,-0.3976558,-0.39259437,1.9609995999999998
8.449069999999999,-5.534111,-2.7169497000000002,-0.5185024,-0.20947441,1.8390883000000002
7.497414,-6.257418599999999,-4.408654,-0.80700535,-0.10620329,1.6809964
5.2339263,-5.9742136,-4.1323156,-1.1673983,-0.20734511,1.4664606000000002
6.603687,-5.3957453,-3.4520655,-1.5480198,-0.34681436,1.3189976
11.459866,-4.364658400000001,-3.9383564,-1.8546218,-0.28667033,1.3110216000000001
13.868815,-3.4636437999999994,-4.249909400000001,-1.9962378,-0.21640338,1.3834176999999999
13.156072,-3.3828347,-4.315424,-1.9264945,-0.32445672,1.3797002
13.11038,-2.9798713,-4.4567013,-1.66192,-0.6571688,1.2684355
13.429526999999998,-2.3340786000000002,-4.178744,-1.3733996000000002,-0.9499478000000001,1.2524657
12.336421000000001,-1.8056686000000002,-4.035887000000001,-1.0875496,-1.085682,1.3594718000000001
10.81302,-1.2856288999999999,-4.24264,-0.83575094,-1.0899406999999999,1.480842
9.879375999999999,-0.7870986,-4.628595400000001,-0.5749289000000001,-1.1000636000000001,1.4371914
9.110980999999999,-0.35029086,-4.386158,-0.3768864,-1.1160333,1.1981685
8.215827,-0.5712565,-3.8869576,-0.25979227,-1.1085808000000001,0.9027191999999999
7.5414004,-1.2139655,-2.9594247000000005,-0.22731169,-0.9424952,0.6403089
7.558428,-1.754471,-1.7893211,-0.32578316,-0.5459041,0.44387212
8.108252,-2.0063124,-0.9959017,-0.42694244,-0.06574655,0.34166566
8.567718,-1.9873023999999997,-0.4538736,-0.24380504,0.19720475,0.28310984
8.264727,-1.9699683000000001,-0.24343285,-0.02289872,0.27012459999999994,-0.08150688
8.173785,-1.7028712,-0.20808485,-0.11020009,0.5458691999999999,-0.7320260000000001
8.831387,-1.2937021,-0.29464003,-0.33164746,1.0042101,-1.2324118999999998
10.514846,-0.76384616,-0.542009,-0.37051594,1.2783489,-1.4538592
12.0578985,0.0070102224,-0.9848021999999998,-0.08091346,1.3832258,-1.5826646
12.684078,0.48882896,-1.2204968999999999,0.36089918,1.3347753999999998,-1.7146987
12.789002,0.68563235,-1.2424853999999999,0.87564915,1.1362268,-1.8727907
13.000467,0.24847025,-1.2234180000000001,1.3653885000000001,0.9307492,-2.0346177
15.041073999999998,-2.4034145000000002,-1.2971785,1.669355,0.8876221,-2.2113497000000004
16.365028,-2.557697,-0.60644174,1.7726262,0.95523614,-2.38117
18.323381,-1.5871258999999998,-1.3561238000000002,1.7688912,1.0419965,-2.5126457
18.290885999999997,-1.092436,-2.2191377,1.7018182000000002,1.0627658000000002,-2.5355446
16.634145999999998,-2.322232,-2.4682016,1.6272926,1.0121863000000002,-2.4674067
14.768815,-3.3323457000000003,-1.3735343,1.5474438999999998,0.7827626999999999,-2.3439074
13.829589000000002,-4.0715027,-0.20280804,1.4574895,0.5059535,-2.2001796000000002
13.167496,-4.596925,0.27147377,1.3259964,0.24776694,-2.0005488000000002
12.562759,-4.707987,0.37357208,1.1231891999999999,0.05932374,-1.7290628000000001
11.736098,-4.2940583,0.11247001599999999,0.8607440000000001,-0.08545132,-1.3958270000000002
10.785093,-3.5395496,-0.8020096999999999,0.6323677,-0.13069025,-1.1206236
9.776502,-2.8501343999999995,-1.5732491000000002,0.33693582,-0.098750725,-0.96092594
8.681203,-2.677771,-2.1720486,-0.043650682999999996,0.0108908545,-0.87840676
7.6328588,-2.8762022999999997,-2.4217157000000005,-0.41414917,0.2717303,-0.7644890999999999
6.751993700000001,-3.2046678,-2.578536,-0.54723054,0.62200046,-0.5233544
6.3995957,-3.4193413,-2.6938026,-0.38540359999999996,0.8487710999999999,-0.20767672
6.0514402,-3.5907760000000004,-2.786458,-0.06867871,0.5511924,0.049951322
5.779641000000001,-3.4760551,-2.863178,0.032986722999999996,0.24776694,0.22509511
5.6414860000000004,-3.2956092000000003,-3.066618,-0.012252212,0.14981906,0.5625720000000001
5.752146,-2.924594,-3.2580487999999996,-0.32525957,0.18229964,1.0379473
6.7862306,-2.8841033,-3.3478794,-0.72076863,0.15727162,1.5814602
8.058318,-3.2741764,-3.860382,-0.8772723,-0.083845615,2.0514948
8.784623,-4.0981646000000005,-4.0803709999999995,-0.7793244,-0.5996776999999999,2.3437327999999997
8.580475,-4.7770834,-3.5160766000000003,-0.511556,-1.0617187,2.5763679
7.821828,-5.0743957,-2.4405918,-0.10807078,-1.1751127000000001,2.6822917
7.277071,-4.703457,-1.7614142,0.39603266,-0.93610734,2.4459392999999996
8.153310000000001,-5.026866,-2.7808268,0.65528387,-0.70506066,1.9445061999999997
7.703488,-4.524716000000001,-3.7079480000000005,0.5434781,-0.44956190000000007,1.5835721
6.492806400000001,-3.8400505,-4.1192336,0.098995075,-0.05510004599999999,1.4936178999999998
6.3918004,-4.0769519999999995,-5.0719824000000004,-0.47855183,0.20359266,1.4787128
6.57103,-4.404852,-4.846381,-0.9379574,0.14716616,1.3546896000000002
8.112647,-4.6316120000000005,-3.9940553,-1.2270188,-0.08597492,1.1928451999999998
9.804275500000001,-4.568798,-3.6209714,-1.3632767,-0.39365903,1.1183372
11.500194,-4.4458694,-3.248185,-1.4021451,-0.58369046,1.1513413000000001
13.650694,-3.6585891000000004,-2.832063,-1.3579534,-0.67099184,1.2945281000000002
15.234535000000001,-1.8026136000000001,-2.895586,-1.231801,-0.71891856,1.5239691999999998
14.269307999999999,-0.253862,-4.102837999999999,-1.0135477,-0.89936817,1.7688389
11.360362,0.31792125,-4.85637,-0.6691243,-1.2671963,1.8806272000000002
8.905654,0.10924264,-5.2521315,-0.33484143,-1.5381586999999999,1.6959015
7.9868274,-0.19081788,-5.0023875,-0.16556193,-1.470021,1.279082
7.9241757,-0.5450448,-4.296270400000001,-0.23795820000000004,-1.1458435,0.9165771
8.070069,-0.9220261999999999,-3.5239870000000004,-0.5227436,-0.7577696,0.6413736
8.068833,-1.5645438,-2.9658507999999997,-0.6936287,-0.29944614,0.51733303
8.018661,-1.9577291,-2.1724029,-0.8277573,0.112573735,0.13247049
7.709674400000001,-1.9902999,-1.4608461000000001,-0.9070825000000001,0.5293758000000001,-0.5073672
7.817489599999999,-1.9373881000000002,-1.1904738000000001,-0.7266155,0.8258898000000001,-1.0966601
8.681939999999999,-1.614889,-0.9760203000000002,-0.29171434,0.93767816,-1.4953632
10.728533,-1.0507864,-1.0440539,0.21345377,0.763599,-1.7567437
13.407682000000001,-0.08294473,-1.2597332,0.5163382000000001,0.7007846,-2.0090659
14.819811999999999,0.7066150999999999,-1.7627836,0.7260744,0.8540943000000001,-2.1974916
15.586357999999999,0.52594864,-2.351652,1.0135300999999999,1.1724249,-2.2752287
17.613846,-2.0451272,-2.938423,1.3339901,1.5083135,-2.31675
17.367579,-1.7653791,-1.9398589,1.6400859,1.6658993000000002,-2.4003165
17.867239,-1.4366455,-1.4001578000000001,1.8918669999999997,1.5423824,-2.5951476
17.333033,-1.6511851999999998,-0.58573663,1.9962028000000003,1.2165992,-2.8049011000000004
16.770032999999998,-3.2125974,0.15623602,1.8689858,0.93554884,-2.8112717000000003
15.593195999999999,-4.194584,0.6699071999999999,1.492082,0.8828398999999999,-2.5797187999999998
14.7963295,-5.0244527,0.29943803,1.0699566999999999,0.85463536,-2.158117
14.336269,-5.4864473,-0.31188790000000005,0.772378,0.73431236,-1.6582723000000001
12.717855,-5.561587,0.09263645,0.6169564000000001,0.44420373,-1.2984028
11.021708,-5.021656,0.6715161000000001,0.5834111999999999,0.024731316,-1.2047135
9.606284,-4.1602607,0.46335465,0.55414206,-0.27548277,-1.1935434
8.89307,-3.4806519999999996,-0.26533502,0.29914942,-0.30742228,-1.1562806
8.76931,-3.066484,-1.3755549999999999,-0.21718878,-0.042847835,-0.98965406
7.843634599999999,-3.2134400000000003,-2.5462432,-0.7063871,0.4362276,-0.7027219
6.312485,-3.5090567999999998,-3.5387452000000006,-0.92996377,0.8003382,-0.35405749999999997
5.061697000000001,-3.8600662000000003,-4.2170515,-0.712775,0.7524289000000001,-0.14590952
4.3848080000000005,-4.0956078,-3.9988339999999996,-0.41201988,0.35477307,0.068050385
4.325049,-4.1017466,-3.4711517999999995,-0.15969762,0.010367256,0.47050586
5.5013485,-3.4846837999999996,-3.0469282000000004,0.12189379,-0.27281243,1.1683757
6.9990562999999995,-2.9909708,-2.82579,0.14531611,-0.47776642,1.6288285
8.051585000000001,-3.0047326,-3.3329394,-0.17512634,-0.5251347,1.7741619999999998
8.591928,-3.5847614,-4.5242366999999994,-0.51635563,-0.6369229999999999,1.8891444
8.275155999999999,-4.0847955,-5.2154427000000005,-0.60737455,-0.8812690999999999,2.1792705000000003
7.5911613,-4.295974,-4.489999299999999,-0.40350267,-1.0777059,2.3996357999999995
7.0719449999999995,-4.040292,-3.0194235000000003,0.04576253,-1.0351024,2.3623905
7.377560000000001,-3.9241061,-2.003219,0.43490115,-0.9611179,2.0099735
7.9829006,-5.4944534,-2.7948763,0.47481683,-0.665145,1.405793
6.229358,-5.031961,-2.4798663,0.057473693,-0.16423549,0.97141534
5.497796,-4.261362999999999,-2.6599581000000003,-0.5259375,0.19826939999999998,0.8974134
7.421594,-3.6009943,-4.126004,-1.0241940999999999,0.31379274,0.97354466
9.038456,-3.2500234,-5.047274,-1.3313371,0.23394394,1.0187836
9.520208,-3.6354900000000003,-4.70836,-1.4064038,0.00024434610000000003,1.0113485
10.451657,-4.0779,-3.5649184999999997,-1.3238846000000002,-0.26803023,1.0001609
12.640207,-3.9312312999999994,-2.58003,-1.2232664,-0.49905944,1.0821565
14.91668,-2.8970127,-2.4229993999999997,-1.1184243999999999,-0.6640803000000001,1.2434249
15.533245,-1.6710378000000001,-3.3389822999999996,-0.9368753000000001,-0.8440063,1.3365906
14.849634,-0.47708779999999995,-4.826615,-0.6808354999999999,-1.0611951000000002,1.4009931999999998
11.998762,0.06874232,-5.882889,-0.42531928,-1.2986122,1.4191097
8.921581,-0.03907337,-5.7201595,-0.28372073,-1.4135944999999999,1.3152976
7.5317564,-0.33597353,-4.6864586,-0.30288443,-1.3491743999999999,1.1577293
7.2186046,-0.8299165000000001,-3.5173601999999997,-0.38805652,-1.064389,1.0209303
7.233620599999999,-1.0900896,-2.3635464,-0.44022440000000007,-0.6928259,0.9250943000000001
7.276161,-1.5682979,-1.8159733,-0.36196384,-0.36969563,0.83035785
6.881769,-1.7610023999999997,-1.5637584,-0.09155997,-0.24832545,0.6711838000000001
7.057867,-1.5973252,-1.4437995000000001,0.02872812,-0.05242969,0.26448720000000003
7.500947999999999,-1.1145296,-1.0875039,-0.03939208,0.27757716,-0.35086355
8.145878999999999,-0.8482561,-1.0274094,-0.21771237,0.7167544,-1.1110243
9.439714,-0.75033325,-1.3700293,-0.18790215,1.0153976999999998,-1.4660766
11.309251,-0.74320805,-1.9412857,0.0031939526,1.2134227,-1.5560483
12.491661,-0.7159908,-2.2561522000000003,0.37156314,1.151673,-1.6034166
13.140892000000001,-0.59944105,-1.9117221999999998,0.83894485,0.9456543,-1.6726188999999998
14.691587,-1.6690075,-1.7469148999999997,1.1902622,0.82269585,-1.7593966
16.356668,-2.9748435,-1.1655357,1.3962808999999998,0.83547163,-1.9121653000000003
17.076979,-1.7507073,-0.8541554,1.3888283000000001,0.9664236999999999,-2.0777096999999998
17.603703,-0.76357794,-1.2248353,1.2828868999999998,1.1287743000000001,-2.2257137000000005
17.714458,0.07659529999999999,-1.7768999,1.160993,1.1814831000000001,-2.2789462000000005
16.384844,-0.78786474,-1.3483856,1.0529396999999998,1.028697,-2.2874634
13.82029,-2.316936,-0.61292523,0.9635090000000001,0.8035321,-2.2544591
12.495616,-3.6956230000000003,-0.07078218,0.8943066999999999,0.65235174,-2.1368065
12.318724000000001,-4.696303400000001,0.16958609,0.7952767,0.5464102,-1.9733914000000001
11.708853,-4.5974607,0.21247104,0.6265383000000001,0.48998374,-1.7982476000000003
10.969456,-3.6359782,-0.15491442,0.29810223,0.6156125,-1.6028755
10.142576,-2.4376900000000004,-0.94501054,-0.08728392,0.8365363000000001,-1.4666176000000002
9.229982000000001,-1.8696511999999998,-1.676037,-0.36144024,1.0031455,-1.3313895
8.486957,-1.8583313999999997,-2.1458847999999997,-0.419455,0.9664236999999999,-1.1626511
7.9083357,-2.3114963,-2.422731,-0.24752259,0.763599,-0.9864601000000001
7.5305976999999995,-2.7507942,-2.6072283,0.028204521,0.50914747,-0.70752156
7.31805,-3.1670117,-2.5427763,0.19216076,0.16900024,-0.39982003
7.133495299999999,-3.4802212999999997,-2.549432,-0.0015882496,-0.07532841,-0.06127851
7.354930400000001,-3.5772532999999997,-2.9108512,-0.27574456,-0.16901769,0.54927254
7.29904,-3.3248949999999997,-3.3704614999999998,-0.37102209999999997,-0.26748917,1.2940046
7.4452679999999996,-3.2452734,-4.042580600000001,-0.26136306,-0.52248174,1.7949315
7.9729314,-3.5609632000000007,-4.129519,-0.11550589,-0.94780105,1.9796396
7.931808,-4.139977,-3.6014730000000004,-0.04256858,-1.4444693000000002,2.0014737
7.870852,-4.656147499999999,-2.8913147,-0.08676032,-1.6057552,2.083452
7.405725500000001,-4.596446,-2.2185824,-0.15276867,-1.3789847,2.1819234
6.614011,-4.0504723,-2.2827947,-0.060667645,-0.9733527,2.2346322999999995
6.982075999999999,-4.1368837,-3.4623508000000003,0.028204521,-0.5166175000000001,2.0664175
6.5434203,-4.5733566,-4.627034,-0.09953613,-0.009843656999999999,1.6112705
5.22615,-4.7930384,-4.191414,-0.28105035,-0.037524577,1.1460181
5.634802,-4.737531,-3.2242906000000002,-0.45247662,-0.3915297,0.9006248
7.7830520000000005,-3.9066763,-2.8289793,-0.69519955,-0.59061944,0.9783443000000002
10.038389,-3.3350751000000005,-3.3084803,-0.92676985,-0.51235884,1.1124903
11.486575,-2.8755797999999997,-3.8858087,-0.9890431999999999,-0.5006477,1.1832808000000001
12.4799,-2.888518,-4.084805,-0.8277573,-0.67685616,1.226949
13.173770000000001,-2.6106662999999997,-3.6997502,-0.47322857,-1.042555,1.2131085
13.381941000000001,-1.9204561999999998,-3.1898427000000003,-0.05321509,-1.4050773,1.0906563
13.141926999999999,-1.2540253000000001,-3.5864375,0.1884432,-1.5317707,0.9932494000000001
12.690505,-0.6412055,-4.096383,0.23155282,-1.5786154,0.98899084
10.991636,-0.025215732,-4.2360706,0.14318681,-1.5126071,0.9480105
8.498372,-0.023683443999999998,-4.0517650000000005,-0.060144044,-1.2661316,0.8633620000000001
7.122606299999999,-0.43743023,-3.7468586000000004,-0.2544341,-0.9446071,0.83887506
7.2437053,-0.80534244,-2.937178,-0.38432150000000004,-0.71357787,0.7851015
7.5275617,-1.113936,-1.9791332,-0.3188542,-0.5086413,0.61636305
7.914886,-1.0551438,-1.0772567,-0.3678107,-0.14718361,0.20062560000000002
8.402585,-0.5793872,-0.76489955,-0.49504519,0.35957274,-0.2635447
9.296598,-0.06283343,-0.8995781999999999,-0.48919833,0.8865748999999999,-0.7378554
9.397442999999999,0.2305712,-1.5894626,-0.2565634,1.1804185,-1.1706446000000001
9.726349,0.12446018,-2.444633,0.14531611,1.2980537,-1.4261434
10.7386265,0.063168615,-2.6849917999999997,0.6430491,1.2139463,-1.6060694
11.50638,-0.22973803,-2.558463,1.1061722,0.8950921000000001,-1.7673727
12.519577,-0.9017712999999999,-2.1626057999999997,1.4037334,0.6960024,-1.9228116999999998
15.219107999999999,-2.6104939999999996,-2.0873513,1.4979638000000002,0.7710515,-2.0558932
17.303078,-2.2215319,-1.7367921999999998,1.4862525,0.97281164,-2.1612935
18.639837,-1.7911407,-1.8212403999999998,1.4186385,1.1330328,-2.2214377
18.097666,-1.2385302,-1.4745504999999999,1.3531712,1.1373090000000001,-2.2528536
17.022545,-1.2751327,-0.49754384,1.2791692,0.9499129000000001,-2.2321017000000003
15.114307,-2.2743194,0.26600537,1.1817625,0.65767497,-2.1879098
13.490072,-3.3654047999999994,0.66327053,1.0050304,0.3734132,-2.0952851999999997
12.588511,-4.083522,0.38626134,0.75323176,0.22382103,-1.9334582999999999
12.120886,-4.2920184,-0.38105157,0.44289476,0.29515263,-1.7237221
11.372209,-3.7951832000000003,-1.1839709999999999,0.17512634,0.46603779999999995,-1.5592248
10.356589,-3.0423408,-1.7804242,-0.05427974,0.61243606,-1.4570183
9.394848,-2.5182597999999996,-2.2144642000000005,-0.24326399,0.73007125,-1.3638701000000002
8.514901,-2.3446702999999998,-2.5324332999999997,-0.39816195,0.74019414,-1.1844677
7.817920699999999,-2.3280163,-2.689723,-0.48333403,0.6736446999999999,-0.97366685
7.2934756,-2.605763,-2.8947527,-0.4513945,0.633188,-0.6979221999999999
6.951239,-2.824622,-3.077727,-0.25762805,0.7305948,-0.37480944
6.667699000000001,-3.091355,-3.271782,-0.07929031,0.69441414,-0.03837979
6.3414839999999995,-3.1250556,-3.211697,-0.005305801,0.5852786999999999,0.28258625
6.4196014,-3.1797584999999997,-3.0615327000000003,0.11604694,0.36170202,0.67704815
6.8271046,-3.0593588,-3.0327832999999997,0.13360496,0.12002629,0.94055796
7.6265383,-3.3417883,-3.2354762999999997,-0.04576253,-0.014102261000000001,1.1635935
8.129799,-3.9729097,-3.4219751000000005,-0.23474678,-0.31274554,1.5303745
8.028917,-4.5363607,-3.5617006,-0.27040386,-0.7928856,1.9679459
7.8668776,-4.700613,-3.1889138,-0.10273008,-1.0691712,2.4491508
7.450823,-4.563655000000001,-2.521487,0.21399482,-1.0883348999999998,2.635482
6.8101344,-3.9043589,-2.0225258000000004,0.56639427,-1.0713005,2.2857355999999998
7.2341857,-4.3819637,-3.0548866,0.6946759,-1.0287145,1.7603389999999999
6.736096400000001,-4.135926,-3.3628763999999998,0.36091664,-0.7210304,1.4020753000000001
6.6853867,-3.6105042000000003,-3.6070660000000005,-0.23261748,-0.29623473,1.3988813999999998
7.887391,-3.7929324999999996,-4.447851999999999,-0.7649429,0.07902851,1.5697665
7.783741,-3.7403943999999996,-4.7773614,-1.1434176,0.19881046,1.6842253
7.7568398,-4.1290402,-4.5525459999999995,-1.2264603,-0.2664245,1.4845945
8.227942,-4.3944325,-3.7927315000000004,-1.1726867,-0.83494806,1.2434424
10.03973,-4.2254114000000005,-3.0859919,-1.1599283,-1.0303202,1.248242
13.390981,-3.1263676,-3.3646385999999997,-1.1503290000000002,-1.0164623,1.3850584
15.611555,-1.4608461000000001,-4.2655,-1.0220474,-1.0249795,1.519187
14.632125,-0.37296876,-5.6660699999999995,-0.75375533,-1.2315216999999998,1.5926653
11.660039999999999,0.11077493,-6.732543,-0.536043,-1.4934433999999999,1.6112879999999998
8.775122999999999,0.018789696,-6.4576125,-0.42797219999999997,-1.6345009,1.5245101
7.3196974,-0.3196738,-5.3694572,-0.52007324,-1.4742796,1.2647353000000001
7.5973573000000005,-0.7709999999999999,-4.3870683,-0.82508695,-0.9972985999999999,0.87613785
8.962339,-0.4819528,-3.6006782,-1.1333121000000002,-0.3574609,0.6121044
8.800654,-0.8000847,-3.251144,-1.3973280000000001,0.31431633,0.49179888
8.232319,-1.4188135,-2.77872,-1.1758806999999998,0.65928066,0.44655994
8.240708,-1.6999023000000002,-2.2176533,-0.6270619000000001,0.38512436,0.023876105
8.712232,-1.5019593,-1.5578113,-0.19214329,0.10299188,-0.45464079999999996
9.49119,-1.3285713,-1.50715,-0.07663741,0.10353293,-0.94970345
10.597417,-1.1500021,-1.9977314,-0.07930776,0.29037043,-1.2802863000000002
12.310938,-0.59717137,-2.627895,-0.09047787,0.6454401999999999,-1.5805178
14.091822,-0.1561211,-3.2226242999999997,-0.011152654,1.0414903,-1.8003595000000001
14.462442999999999,0.288961,-3.030073,0.23209389,1.3571506000000002,-1.9334582999999999
13.646825,0.12685439,-2.2016025000000004,0.57651716,1.6249189,-2.052699
14.431041,-2.4068334,-1.8682721999999998,0.95766217,1.819209,-2.1985387999999997
15.2072315,-2.4732773,-0.35702336,1.2621523000000001,1.8644654999999999,-2.3539953
16.318573,-1.7324827,-0.059155937,1.4463369,1.7729055,-2.4572666
16.487614,-1.1312603,-0.7122463000000001,1.4798646999999998,1.6610996999999998,-2.4743009
15.981172,-1.6395876,-1.6460042000000001,1.3888283000000001,1.5274947,-2.4434261000000004
15.31635,-2.5542203999999997,-1.6100816,1.2216781,1.4002602,-2.3869995999999998
14.708989,-3.4741879,-1.2139752000000001,1.0044893,1.2746313999999999,-2.2507243
13.614552,-4.23632,-0.54175997,0.8394685,1.059572,-1.9398461999999999
12.39643,-4.415789,0.12507309,0.7500378000000001,0.6715154000000001,-1.5587011999999998
11.480474000000001,-4.210797299999999,0.23241952,0.63772583,0.18284069,-1.250476
10.735092999999999,-3.6837282,-0.114078924,0.3337593,-0.034330625,-1.0481924
9.714014,-3.2799509,-1.0140400999999999,-0.09313077,0.08063421400000001,-0.9262985999999999
8.523875,-3.0187437999999998,-1.8557936000000002,-0.59512234,0.4867898,-0.8320857
7.638039599999999,-3.0840957,-2.7544906000000005,-0.8495739,0.7668104,-0.68301713
7.079712,-3.221676,-3.2859461000000003,-0.71701616,0.8173726,-0.37055084
6.548994,-3.2738313999999997,-3.5240351999999997,-0.22994713,0.6177593000000001,0.020699605
5.713456,-3.3739855000000003,-3.4165258,0.43064255,-0.017296214,0.3784223
5.102638,-3.7302716,-3.1993525000000003,0.61643285,-0.5506863000000001,0.59135246
5.2947197,-3.5581381000000003,-3.3069002999999997,0.5067738,-0.7306123000000001,1.0480877
5.9512863,-3.095406,-3.9622986000000004,0.24167573,-0.65608674,1.5537968
7.135152000000001,-2.8257806,-4.6422324,-0.16713274,-0.60765386,1.7981255
8.221363,-2.9022322,-5.00753,-0.5663768,-0.7684161,1.8838384999999997
8.719797999999999,-3.276848,-4.7131680000000005,-0.86554366,-1.0989815,2.0169199
7.999985000000001,-3.664747,-3.5305953000000003,-1.0635687,-1.3326637,2.2772183
6.8600389999999996,-3.8099506,-2.1632667000000003,-1.068892,-1.3614091999999998,2.5444458
6.067405,-3.3323267,-1.237132,-0.87406087,-1.2842307,2.6503873
7.659903999999999,-3.7285190000000004,-2.8782327000000003,-0.7452380999999999,-1.0271088,2.306505
7.7616380000000005,-3.9370828,-4.7455087,-0.9038710999999999,-0.7662693,1.6522857
6.902751400000001,-3.5757592000000002,-5.4066152999999995,-1.2866044,-0.48893654,1.2258843000000001
7.6264515,-3.022019,-5.7575283,-1.7007536,-0.25897196,1.1332598
8.91819,-2.680596,-6.236857,-2.0196252,-0.032201323999999996,1.2024621000000002
9.786012,-2.8800428,-6.097226999999999,-2.1436484,0.062535144,1.2913691
9.896548,-3.2214652999999998,-5.458646,-2.0488944,-0.057752945,1.3318083
10.860435,-3.7990427,-4.824766599999999,-1.7864666,-0.42399284,1.2982806
12.250287,-3.787378,-4.0700563999999995,-1.3611474,-0.8642347,1.2226903
13.681915,-2.9911816000000004,-3.6531687000000006,-0.94006926,-1.1724423000000002,1.1886215
15.217125,-1.6286606000000001,-4.5329804000000005,-0.6297148,-1.2623966999999998,1.2232313999999997
14.278224,-0.5020162,-5.242172,-0.47055823,-1.2038408999999999,1.2562356000000001
11.370455999999999,-0.44557053,-5.2359849999999994,-0.40880847,-1.1080397,1.2572828999999999
8.906995,-0.8442337999999999,-4.2438183,-0.40987313,-1.0255206000000001,1.1939448000000001
7.588211500000001,-1.354285,-3.0917953999999996,-0.37526324,-0.8743401,1.0103011999999998
7.231897,-1.8555542,-1.8219778999999998,-0.2773328,-0.60391885,0.84739226
7.517525,-2.288311,-0.90599465,-0.101124376,-0.2541723,0.75476766
8.28955,-2.3449482999999995,-0.38760212,0.24167573,-0.12322024,0.60784584
8.4837675,-1.8645468999999997,0.13346238,0.53178436,-0.09501573,0.1340762
8.424688,-1.5059719999999999,0.15847701,0.61482716,0.1311964,-0.45092326
8.648047,-1.445188,-0.24120146,0.62760293,0.32922146,-0.9912423
9.462709,-1.2685055,-0.8619892,0.69202304,0.37713075,-1.3447063999999997
10.412134,-0.9185211,-1.2828708,0.8549146000000001,0.5437573,-1.5240913999999999
11.566523,-0.6406501,-1.3311187,0.93476343,0.7881034,-1.7396918999999997
12.395797,0.034189202,-0.6765151999999999,1.0316466,1.0515958,-1.9244
12.958243,0.044254426,-0.014279018999999999,1.2291481000000002,1.3773790000000001,-2.1069963
15.345922,-2.1739352000000003,-0.11435665,1.4106623999999999,1.6925156000000003,-2.4056222000000003
16.324644,-1.2223165,-0.07216124,1.5501317,1.850084,-2.6856253
17.750591,-0.55134636,-0.58114934,1.6539264,1.8266616000000002,-2.9113314
17.75405,-0.74770916,-1.2736675,1.7146289000000001,1.614796,-3.007691
16.431139,-1.5614218,-1.5970858,1.6613963999999999,1.350239,-2.9869215000000002
14.948054,-2.5760367000000004,-1.140751,1.4819938999999998,1.0925936,-2.8772626
14.477067000000002,-3.424532,-0.9469450999999999,1.2419065,0.8887041999999999,-2.6978776
14.477154,-4.0286083,-1.2368350000000001,1.0018364,0.7236833,-2.4295857000000005
13.771208999999999,-4.2408209999999995,-0.9723428,0.77613044,0.64064056,-2.1320069999999998
13.054661999999999,-3.7798027999999997,-0.8706849,0.5429894000000001,0.59698987,-1.8158057
12.197921000000001,-3.053747,-1.4736502,0.2635098,0.55599207,-1.5225030000000002
