accx,accy,accz,gyrx,gyry,gyrz
3.685203,-8.582130000000001,1.5826343999999999,-0.434395,-0.013421582,1.7522408
4.710257,-9.641297,1.2904843000000001,-0.7356912,0.19790289,1.5100414
5.034949,-10.772327,0.71238035,-0.8118225,0.49120545,1.3263804
4.574362000000001,-11.082511,0.3603082,-0.7734949999999999,0.8058185,1.2050101999999998
4.663052599999999,-10.399378,0.8441955,-0.7239800000000001,1.0836748999999999,1.1858464
5.8928294,-9.381373,2.2896037000000002,-0.6835233000000001,1.2497605,1.2571781000000002
7.77223,-8.804533000000001,2.7384686,-0.5946336999999999,1.2694652,1.3407619
9.725861,-8.454969,1.8259043999999998,-0.47858673,1.1975926000000001,1.4147290000000001
10.851413,-7.941184,0.21718283,-0.48391000000000006,1.1177613000000002,1.4695847
10.992144,-7.470781,-1.2320658000000002,-0.67394143,1.0443003,1.4759725000000001
10.499867,-7.220472,-1.2359923000000002,-0.99653065,1.0613172,1.4818194
9.779719,-6.882917999999999,0.20185994,-1.2435296999999998,1.0794337999999999,1.4663906999999998
8.899908,-6.4693627000000005,1.2467375,-1.3164669,1.0948625,1.3993176999999999
7.956305499999999,-6.074128,1.7046716,-1.2318183999999999,0.91652477,1.3178632
7.1107697,-5.971101,1.6196487,-0.8576024,0.43212608,1.2172624
6.6259627000000005,-5.936097599999999,1.4150498,-0.2587276,-0.22848105,1.027231
6.577811,-5.7896585,1.2323244,0.39440949999999997,-0.83906704,0.60985297
6.7181683,-5.6775910000000005,0.80293864,0.84156287,-1.0557147,-0.034749504
7.072394999999999,-5.538698,-0.0053151280000000006,0.93579316,-0.84543747,-0.7044323
7.442375999999999,-5.401290400000001,-0.59376204,0.7164751,-0.44673450000000003,-1.132422
7.7844690000000005,-5.393868,-0.6740826999999999,0.5280319,-0.20879374,-1.2447339
8.425359,-5.1859364999999995,0.22957522,0.5780705,-0.25563836,-1.1760727
9.206395,-5.1010575,1.0452415000000002,0.76171404,-0.42331216,-1.4038905000000002
10.051107,-5.325911,1.8658493000000003,0.96666807,-0.634113,-1.7866412
11.293172,-5.699847,2.9095871,1.1007966,-0.8465196,-2.0416338
12.831149,-5.6564646,3.6185292999999996,1.2099321,-1.1483393999999998,-2.1379759999999997
14.354454999999998,-5.477541,3.8436418,1.2248371999999998,-1.4842454,-2.1065774
15.17922,-5.7060246,3.215748,1.0784563999999999,-1.7275093999999998,-1.9953128
15.004194,-7.0822496,2.1270087,0.83730423,-1.7461494999999998,-1.8878005
14.317470000000002,-9.165989999999999,1.2084013999999998,0.6440614,-1.5896458999999998,-1.8430852
13.124476999999999,-10.328357,1.3547063,0.61318654,-1.3229421000000001,-1.8143395
11.798262,-9.139023,2.0039563,0.673348,-1.036551,-1.7994169999999998
11.509214,-7.428729,2.3579533,0.6941174,-0.792746,-1.796223
10.65596,-7.0947475,2.2380327999999996,0.5934991999999999,-0.6208136,-1.8180745999999999
9.752398,-8.036741000000001,1.8262299,0.43219587,-0.53190655,-1.8622488999999998
9.028219,-9.047727,1.5056847,0.3081728,-0.50529027,-1.8750072
8.464652000000001,-9.828237,1.1174889,0.25919884,-0.56704,-1.870225
7.951958,-9.916659,0.95500875,0.25865778,-0.6602057,-1.8303093000000001
7.5034375,-9.225664,1.3677595,0.23258257,-0.66818184,-1.7270381000000001
7.116381,-8.37146,2.051237,0.16072737,-0.52073646,-1.5641291000000002
6.689217599999999,-7.7125187,2.8233001,0.0015533429999999998,-0.256162,-1.4246774
6.347421,-7.154727,2.9421098,-0.23797564,0.11058406,-1.2569861
6.135381,-6.911504700000001,2.3973142999999997,-0.480175,0.46778315,-0.90617496
5.9956937,-6.7493696,1.6053218,-0.6388254,0.6823016,-0.36641443
5.7939487000000005,-6.780742999999999,1.2524452,-0.6872583000000001,0.70520025,0.21114993
5.455993,-6.8589473,1.3727874,-0.6622477,0.5561491999999999,0.6694734
5.072231299999999,-6.874261,1.5728659999999999,-0.64414865,0.3059562,1.054877
4.6333838,-6.861236,1.7728968,-0.6452133000000001,0.10580186,1.4828666000000001
4.0463924,-6.818849,1.8295436,-0.67128855,0.07972664,2.0354378
3.5797913,-6.711809,1.7880569,-0.6436076000000001,0.23568927,2.5890388
3.6014826,-6.996786,1.4408018999999999,-0.51958454,0.35651842,2.8711712000000005
3.2977540000000003,-7.7578936,1.0478463,-0.35828119999999997,0.44594908,2.7993162
2.4848366000000004,-8.379323,0.8841308000000001,-0.22200587,0.43849653,2.5198367000000004
1.9387096000000001,-8.687925,0.89639866,-0.19432496,0.2931804,2.1860597
2.3028388,-8.824214,1.0335002,-0.21190043,0.06853908,1.8608177
3.3537307000000003,-9.117877,0.77548194,-0.14802137,-0.10924016,1.584532
4.463625,-9.931933,0.36362177,-0.06391396,-0.024068091,1.4131408
5.3197823,-11.017714,0.16267164,-0.14960963,0.31606168,1.281124
5.5292463,-11.127829,0.39577112,-0.45996407,0.81325364,1.1586717
6.308194599999999,-10.1361685,0.8509759,-0.77616537,1.2098448,1.0932044
8.063048,-8.750548,0.8999804,-0.88315403,1.3844476000000001,1.114515
9.707913000000001,-7.847378699999999,0.60902745,-0.8506908999999999,1.3557019,1.1954108
10.656937,-7.363338499999999,0.03552038,-0.7937234000000001,1.1917458,1.3258219
10.960253,-7.345851400000001,-0.5175594,-0.7372969,0.93781775,1.481802
10.820796000000001,-7.388572999999999,-0.46698424,-0.5744053000000001,0.5428323,1.6383056999999999
10.228968,-7.167828,0.26017308,-0.26192155,0.028082347999999997,1.7910918000000002
9.444561,-6.757213,0.45288720000000005,0.08937831,-0.42811182,1.8916925
8.70866,-6.1001387000000005,-0.0058610057,0.32255429999999996,-0.66818184,1.8932983
8.020308,-5.7011113,-0.48504612,0.3363773,-0.5973913000000001,1.739971
7.2749352,-5.6251864000000005,-0.21745098,0.30017918,-0.4717625,1.4871253
6.7421393,-5.772679,0.35574964,0.36034068,-0.4760210999999999,1.1544131000000002
6.317628,-5.8814519999999995,0.5039123999999999,0.45668286,-0.5734279,0.6407278000000001
6.1477733,-5.9786954,0.41267420000000005,0.45402995,-0.55532885,-0.05873033
6.2131453,-6.043443700000001,0.48507482,0.31723103,-0.30780625,-0.86039495
6.5257797,-6.1313972,0.8064916,0.18573794,-0.043772858,-1.4246774
7.060578,-6.0653653,1.2455212,0.19053759,0.12229522,-1.4720455
7.965451700000001,-5.778262000000001,1.2429832,0.2522699,0.15690510000000002,-1.3847617
9.278862,-5.338993,0.78736675,0.38482764,0.08025024,-1.6280257
10.690503,-5.0985002999999995,0.34136528,0.5455899000000001,-0.09007644,-1.9995888
11.947478,-5.238484400000001,0.49740016,0.69677037,-0.3003537,-2.2002842
13.143057,-5.346846,0.87930405,0.7925889,-0.63304836,-2.2513874
14.424175,-5.443590599999999,0.97685343,0.8341103000000001,-1.0935186000000001,-2.1656744
15.293739000000002,-5.94193,0.9740665999999999,0.8490154000000001,-1.5598357,-2.0166233
15.725230999999999,-7.7214537,0.84001046,0.8266578000000001,-1.9122351000000002,-1.8755481999999999
14.944961,-10.369374,0.7971159999999999,0.8101469,-2.077256,-1.7499194
12.764792,-11.217055,1.0818919,0.7867246,-1.9989953999999999,-1.6605061999999997
11.326422,-9.435569000000001,1.2701143999999998,0.72284555,-1.8211987,-1.6019504
11.019093,-7.788079700000001,1.5657888999999998,0.56740654,-1.5348077,-1.5699935
10.308456,-7.743653,1.4423629,0.31401965,-1.184014,-1.5518944
9.291936,-8.638376,1.0339886,0.07714355,-0.8917584999999999,-1.5481768999999999
8.351426,-9.333518,0.5735454000000001,-0.07189011,-0.6862809,-1.5588233
7.450497,-9.694333,0.44693999999999995,-0.15866788,-0.5308419,-1.5588233
6.8243656,-9.404262,0.6932555,-0.23371704,-0.3551745,-1.5215604999999999
6.2673593,-8.705672,0.99663913,-0.35721654,-0.12095132,-1.4214833999999998
6.0962404999999995,-8.026839,1.5803263,-0.4748692,0.11058406,-1.3230118999999998
6.034643,-7.505889,1.7500465,-0.61699134,0.35918877,-1.2389045
5.961189,-7.0554924,1.7081288000000001,-0.78574723,0.5934119000000001,-1.1202047
5.916417,-6.8100576,1.3238595,-0.97152007,0.80314815,-0.8976752
5.8240967,-6.645844500000001,1.064893,-1.1812563,0.99159133,-0.53571135
5.693487999999999,-6.5969257,1.1867675,-1.2856094999999998,1.119332,-0.12740904
5.51468,-6.565533,1.447745,-1.2701633999999997,1.1837521,0.24359560000000002
5.3302974999999995,-6.7133417,1.6989447,-1.1136597,1.1523362,0.6273935
5.034345,-6.8641570000000005,1.7029766,-0.9502271000000001,1.0038261,0.9382889999999999
4.5959764000000005,-6.8860399999999995,1.6050153999999999,-0.727715,0.70200634,1.2353265
4.4202614,-6.794888,1.6329031,-0.34337607,0.24418901,1.6478701
4.206755599999999,-7.162599,1.4940585,0.21820106,-0.277455,2.0002869999999997
4.0654407,-7.939642,1.2931563,0.7388153000000001,-0.62880725,2.148797
3.8864691,-8.917999,1.003544,0.9091594999999999,-0.6761755,2.117381
3.3474581,-9.277809,1.0332992,0.6435378,-0.39563122,2.0173213
3.1597812000000003,-9.185049000000001,1.4375361,0.14634585,0.04618141,1.9198971000000002
3.641782,-9.856363,1.8096238000000002,-0.34285247,0.4927937,1.7809688999999997
4.3463187,-10.581595,1.7581486000000002,-0.6734178000000001,0.87500334,1.6212538
5.238504,-10.118174,1.1903396000000002,-0.88741267,1.2263381000000002,1.4700733
5.2189765,-9.169706,0.95479804,-1.1264355,1.5915133999999997,1.3455267
5.3999496,-8.33253,1.0317574,-1.4218674,1.9556240000000003,1.2379795
6.7108134999999995,-7.7039184999999994,0.9927700999999999,-1.8189821,2.2382975,1.1395254
8.411999,-7.427647,0.11766064,-2.1383773999999995,2.3468918999999997,1.0894694
9.70074,-7.465753,-1.3885891000000001,-2.1442417999999996,2.2015583999999997,1.1490898
10.331364,-7.5786448,-2.590507,-1.8860550999999999,1.8204133999999998,1.2619428999999998
10.389955,-7.3099289999999995,-2.9457684,-1.5549487,1.4222339,1.3737313
10.128900999999999,-6.581421000000001,-2.3430042,-1.2579286,0.9745395,1.4604915
9.501591000000001,-5.900165599999999,-1.5263706,-0.8964709000000001,0.42359140000000006,1.5057479
8.873774000000001,-5.360005,-1.0463715,-0.48125708,-0.14491469,1.4424099
8.420301,-5.0973988,-1.0299186,-0.07827802,-0.5798158,1.2678071000000002
8.194577,-5.055376,-1.3010858,0.23842943,-0.84971356,0.9861983
7.6905779999999995,-5.025975,-1.3112469,0.4428424,-0.9024049999999999,0.5539501
7.180383,-5.3191885999999995,-0.5713523,0.51576227,-0.70917964,0.016824974
6.8590817,-5.6642117999999995,0.6902388,0.50885075,-0.38924333,-0.49684290000000003
6.9903507,-5.745012,1.5317813999999998,0.4556182,-0.07251843,-0.91846204
7.555104300000001,-5.7483059999999995,1.7658194999999999,0.45827109999999993,0.12123057,-1.1058406
8.188562,-5.494098999999999,1.9719124,0.61531585,0.105260804,-1.2617857
8.975958,-5.093827200000001,2.3431478,0.93205816,-0.028326694,-1.5891746
10.119475999999999,-4.685788,2.7983909,1.2817873,-0.20666444,-1.9389212
11.314767999999999,-4.5918584000000005,2.9636388,1.5436914,-0.3423987,-2.158763
12.347635,-4.4558105,3.0364895,1.6352513000000002,-0.52551866,-2.2327472999999998
13.346372,-4.4805665,2.9441786,1.5074933000000001,-0.7943517,-2.1369462
14.087779000000001,-5.111343,2.894561,1.2876515,-1.1323696,-1.9468973000000003
14.620384,-6.505429299999999,2.7492044,1.2211021,-1.3916209,-1.7866586
14.702697,-8.345353,2.5646975,1.2780697,-1.4714696000000003,-1.7462019
13.9541445,-9.19158,2.7615583,1.2812636999999998,-1.4091789,-1.7605833999999998
13.010456,-8.367974,3.2042174,1.1886215,-1.1749731,-1.7382432
12.154672999999999,-7.590787400000001,3.5022477999999997,1.0363765,-0.90668106,-1.7020451
11.185825,-7.966092999999999,3.1059308,0.9006423000000001,-0.70652676,-1.6802111000000002
10.216192,-8.666091,2.4012215,0.79365355,-0.61601394,-1.6642412
9.246177000000001,-9.411569,1.4185741000000003,0.7473325,-0.63837165,-1.6142026000000003
8.234034,-9.794602000000001,0.6614892,0.73614496,-0.7171732,-1.5252956
7.483834,-9.549608000000001,0.80153084,0.7324274000000001,-0.7624122,-1.4129836999999998
7.2939734,-8.950330000000001,1.9331359000000001,0.67441267,-0.7320609,-1.2846845
7.219255400000001,-8.041989,2.3483672,0.54398423,-0.60484385,-1.1356333
6.782199,-7.424419400000001,2.3060472,0.2820801,-0.32164672,-0.95624846
6.2594199999999995,-7.03585,1.9872736,-0.049549895999999996,0.040840704,-0.7055319
5.9829087,-6.7412963,1.7441951,-0.33433527,0.3714235,-0.34459782
5.798881,-6.544828,1.6119107,-0.5169315999999999,0.5412266,0.11264355
5.4603410000000006,-6.538986,1.5484548,-0.6196617,0.6210753999999999,0.525187
5.0261190000000004,-6.599607499999999,1.6881133000000001,-0.6574654999999999,0.64929736,0.8600110000000001
4.599012999999999,-6.640040400000001,1.7715081999999998,-0.68779933,0.6216165,1.1528075
4.245255,-6.59503,1.8018665,-0.79161155,0.5305801,1.3668022
3.9579506,-6.567142,1.6650331999999999,-0.98696625,0.45233697,1.5536572
3.7800996,-6.726978999999999,1.4159309,-1.1365584,0.42624432,1.7734988999999999
3.6388707,-7.137316,1.0134273,-1.0556450000000002,0.36981782,1.9693946
3.3085856,-7.6912484,0.8058116999999999,-0.8208806999999999,0.29689795,2.068407
2.8543289,-8.057992,0.8589150999999999,-0.5387482,0.27506390000000003,2.0582843
2.6237195,-8.079396000000001,0.9809235999999999,-0.41418409999999994,0.30913273,1.9571424
3.3671477,-8.249193,1.0518686000000002,-0.46689302,0.36023596,1.7788221000000002
4.4628496,-8.614395,0.9354625,-0.5659056,0.36184165,1.6292299
5.468874,-9.061757,0.49607858,-0.579205,0.2878397,1.5227648
6.633806,-9.60277,-0.14812447,-0.5100027,0.24898867,1.4397221000000002
7.2615757,-9.859963,-0.48674121,-0.48232174,0.30700340000000004,1.382772
7.2945194,-9.391811,0.06325481,-0.5563236999999999,0.44008476,1.379037
7.6057754,-8.445478999999999,1.0457777,-0.65001297,0.5236685999999999,1.4147115
8.277052000000001,-7.8095794000000005,1.3663708,-0.63936645,0.5055695,1.4855021000000002
9.0121,-7.444961999999999,1.0970423,-0.5605823,0.41453314,1.6090016000000003
9.6868925,-7.3244953,0.18231368,-0.46102872,0.3027448,1.7548587
10.066957,-7.4439850000000005,-0.3353989,-0.39767328,0.23834217,1.8826343
9.764761,-7.3691807,-0.28511113,-0.41950732,0.25483552,1.9736532
9.163634,-7.0436645,0.28543675,-0.43814746,0.24898867,1.9912112000000002
8.468502,-6.4878273,0.6670246,-0.3854385,0.20107938,1.8916751
7.739152000000001,-6.042371299999999,0.6247238,-0.27897343,0.06106907,1.6531933999999997
7.096337299999999,-5.800126000000001,0.3911934,-0.09000663,-0.14172074,1.3508325
6.719107000000001,-5.728137,0.54070646,0.15645131,-0.39245474,0.9952390999999999
6.547548,-5.944822,0.88812435,0.35234708,-0.55641097,0.47249553
6.5340443,-6.136042,0.9064448,0.43964845,-0.52873003,-0.17905332
6.755585000000001,-6.239922,0.94444555,0.42100832,-0.29928905,-0.76993454
7.318021000000001,-6.226629,0.81164396,0.30763173,-0.022479841,-1.1856893999999998
8.050886,-6.0450816,0.6381313,0.2778215,0.12388347,-1.3778502000000001
8.871648,-5.556721700000001,0.84171516,0.34702381,0.1638166,-1.3746562
9.852504,-4.93783,1.0850426000000002,0.49446923,0.08716174,-1.5828042
10.854689,-4.600861,1.39649,0.7090050999999999,-0.06347763,-1.9612788
11.8414345,-4.5811996,1.7160966,0.9107476999999999,-0.22582816,-2.1971252
12.884367999999998,-4.4742265,1.9874938999999998,1.096538,-0.46643925,-2.294532
14.022082999999999,-4.556712,1.9927897,1.226949,-0.83587307,-2.2258532000000004
14.538378,-5.242564700000001,1.9636189,1.2216258,-1.2377875,-2.0528562
14.372679999999999,-6.5281835,1.7838622,1.114637,-1.5044738000000002,-1.9192338
14.143919,-8.526921000000002,1.516066,1.0534108999999998,-1.5731525,-1.9043287
13.547514000000001,-10.063605,1.7412933000000002,1.0177538000000002,-1.491698,-1.952779
12.362432,-9.607903,2.0114837,0.99646086,-1.300602,-1.9586259
11.926198,-8.022491,2.374933,0.9086184000000002,-1.0839367,-1.9431973000000002
11.352902,-7.876856299999999,2.4968555,0.78618354,-0.91039866,-1.9431973000000002
10.458936999999999,-8.930593,2.2403026,0.67013663,-0.8028689,-1.9937593999999996
9.653881,-10.03115,1.8108686999999999,0.55569535,-0.75017744,-2.0272872
8.796086,-10.693645,1.3939042,0.45081854,-0.70598567,-2.0012119999999998
8.0706625,-10.469297000000001,1.0553163,0.35554102,-0.61761963,-1.9192338
7.7762713,-9.571760000000001,1.3617454,0.30389673,-0.47656214,-1.7717884999999998
7.670122,-8.579908999999999,2.0098173999999998,0.14899875,-0.30141836,-1.6099615
7.238983999999999,-7.8951197,2.2980316000000003,-0.18688986,-0.09222319999999999,-1.5295717
6.729143,-7.528509599999999,2.2805824,-0.56377625,0.14943509,-1.3970313
6.302085,-7.2107515,1.9190772,-0.848038,0.39962804,-1.144168
6.152447,-6.904686,1.6281048999999999,-0.9183049999999999,0.53590333,-0.7177840999999999
5.980103,-6.7700458,1.5620155,-0.9124581,0.5470909,-0.18919370000000002
5.53324,-6.880313,1.5415881999999999,-0.97207856,0.469895,0.30211648
5.065422,-7.004103,1.5761701000000001,-1.0689619,0.37781143,0.73331755
4.665102,-7.180047999999999,1.6402676,-1.1493342,0.41133919999999996,1.2299684
4.4440594,-7.320147,1.5539614,-1.2142779,0.6413038000000001,1.8740822
4.232154,-6.8302646,0.70647144,-1.16211,0.9660223,2.4340884999999997
4.0531154,-6.711110000000001,0.12729491,-0.82993895,1.1816229,2.7987401000000003
3.3946044,-7.122511,0.20460847,-0.31517157,1.1560712,2.8626192
2.7817369,-7.790253599999999,0.5931491,0.06593854,0.918113,2.5975037
2.3311287999999997,-8.476958,1.1125376,0.02867576,0.58168334,2.1439798
2.2869507999999996,-8.87974,0.97945833,-0.40194932,0.41240385,1.7963802
2.8907017999999995,-9.401100999999999,0.76190203,-0.9587617,0.48267079999999996,1.604743
3.7626028,-10.331814,0.91488194,-1.2137543,0.64290947,1.5302
4.0182366,-11.031628999999999,1.3987118,-1.2355709,0.8270940999999999,1.5419111
3.9114169999999997,-10.741221000000001,2.097177,-1.1376231,0.9420589,1.6302771999999999
4.742818,-9.782314999999999,3.0849576,-0.9704729,0.9303652,1.774546
6.377751,-9.138447,3.7857883,-0.76127774,0.7962191999999999,1.9368966
8.575197,-8.603850999999999,3.2180752999999997,-0.53183675,0.5034402,2.0694543999999997
10.339915,-7.9757853,1.4669273999999999,-0.31784192,0.14678219,2.1705961
11.021669000000001,-7.656225999999999,-0.71559817,-0.22734658,-0.20453514,2.2009475
10.531931,-7.594101400000001,-1.8794866999999997,-0.20552997,-0.5101074000000001,2.1397037999999995
9.756841,-7.681442,-1.4809861,-0.14856243,-0.7304725999999999,2.0364501
8.890236,-7.428719,0.14765522,-0.07723082,-0.7725350999999999,1.8868580000000001
7.9925447,-7.080746,1.0977223,-0.09161233,-0.6314776,1.6734042000000002
7.395239,-6.8569746,1.5366944,-0.15814428,-0.45207518,1.4061769
7.111947,-6.749225999999999,1.6268218,-0.15121533,-0.330705,1.0974281000000001
7.260828500000001,-6.7027497,1.4449773000000001,-0.047420595,-0.30462977,0.7200006999999999
7.583164699999999,-6.587502499999999,1.1347367,0.08405506,-0.26309094,0.16533504
8.06188,-6.4832206,0.736897,0.16229817,-0.12203342,-0.37763688
8.613802,-6.1504072999999995,0.2915946,0.25492278,0.08874999,-0.87535244
9.119495,-5.7929335,0.328676,0.35552356,0.17818066,-1.2245754
9.6032095,-5.4018745,0.7501896,0.50351006,0.11697197,-1.4119363999999999
10.216136,-5.0043125,1.0689536,0.5152212,0.08342674,-1.4641043
10.820192,-4.6406236,1.0905014,0.33370695,0.046163958,-1.7989457999999998
11.483711999999999,-4.659633599999999,1.2841348999999997,0.2676986,0.053092916,-2.2647218999999996
12.2706375,-4.8628917000000005,1.715455,0.38161623,0.046163958,-2.581464
13.195767000000002,-4.937476,2.1685817000000003,0.60784584,-0.05815437,-2.7017696
13.837921,-5.044995,2.354592,0.80321795,-0.32538173,-2.6267204
13.711363,-5.552708999999999,2.601846,0.90329516,-0.6426476999999999,-2.4355896
13.330014000000002,-6.835609,2.5795128,0.9261764000000001,-0.8843234000000001,-2.256222
13.507253,-8.911764999999999,2.3870957,1.0055015999999999,-1.0174048,-2.1635972999999997
13.563410999999999,-10.278058999999999,2.0322560000000003,1.1737164,-1.0871307,-2.093313
12.708451,-9.409241999999999,1.3912323,1.3775883999999998,-1.0392388000000001,-1.9815247
12.301886999999999,-7.9352946,1.4791092,1.3632243,-0.9396853000000001,-1.8766652
11.4226885,-8.160991000000001,2.2997072,1.187557,-0.78531086,-1.8159802
10.425407,-9.174945,2.888614,0.94694585,-0.6516885,-1.7941460999999999
9.4218445,-10.340739,2.8535054,0.7100523,-0.54737014,-1.758489
8.346522,-11.005512,2.468106,0.52054447,-0.4754975,-1.658953
7.421689999999999,-10.694631,2.2500997000000003,0.39332740000000005,-0.42065924,-1.5167959
6.783932000000001,-9.788903999999999,2.4448152000000003,0.29112092,-0.36742672,-1.3533807
6.373307700000001,-8.848903,2.9083326,0.15856317,-0.29237756,-1.1942241000000002
5.861944,-8.32168,3.2903895,-0.014957472,-0.17154841,-1.0025870000000001
5.519985,-7.942314,2.8899355,-0.21882938,-0.024626596,-0.69544387
5.300753,-7.5053149999999995,1.7944638,-0.38491490000000006,0.091402896,-0.26958355
5.2826624,-7.126763,1.1650856,-0.45039967,0.15262905,0.10461503
5.174032700000001,-6.937841400000001,0.8531306999999999,-0.42750093,0.17659241,0.42350414
4.8169518,-6.993386699999999,0.8217475000000001,-0.4344299,0.15156439,0.6891258000000001
4.2983675,-7.07862,1.0474249,-0.5275781,0.13985324,0.9744521999999999
3.9564087,-7.0621576,1.2559023999999999,-0.75434875,0.25802946,1.3374982
3.6030054,-6.9556727,1.2681416,-1.056186,0.37247070000000004,1.7745286
3.4882655,-7.097429300000001,1.0852246,-1.083867,0.4001691,2.0795598
3.247591,-7.518291499999999,0.8455554,-0.7719242,0.32403782,2.250445
2.7208185,-7.937257300000001,0.7045369,-0.3843913,0.26069984,2.299419
2.3941154,-7.9146175,0.89544106,-0.26089182,0.34533083,2.219029
3.0167036,-7.9744825,1.3156329,-0.43762386,0.4784122,2.0550728
3.7966580000000003,-8.350976,1.3227773999999999,-0.7570191,0.5433559,1.8676943
4.702164,-9.322801,0.8091636,-0.9310808,0.4677657,1.7420653999999998
5.6171513,-10.507462,0.17226759,-0.8347386,0.39856339,1.6632639
5.8269696,-11.049586,-0.30988634,-0.73092645,0.46616,1.5935378999999998
5.694751999999999,-10.172819,0.010266337,-0.802258,0.63863343,1.5158359
6.3099856,-9.002628999999999,1.402801,-0.9289514999999999,0.78716093,1.4780146
7.342136,-8.16033,2.1017930000000002,-0.9353394,0.8425228000000001,1.4971783
8.486067,-7.947255999999999,1.5402951999999999,-0.8640078000000001,0.84304637,1.5387171999999998
9.507069,-7.939833599999999,0.22862710000000003,-0.8182278000000001,0.7781026999999999,1.565857
10.108329,-7.973304700000001,-0.88680273,-0.8262214,0.624793,1.5733095
9.997478,-7.959332000000001,-0.97006345,-0.81716317,0.40760419999999997,1.5733095
9.412727,-7.7135815999999995,-0.052049946,-0.74956656,0.19947368,1.5711803
8.810136,-7.054314,1.0519165000000001,-0.6191380999999999,0.06852163,1.5248767
8.347078,-6.363597,0.99725205,-0.4908564,0.01155408,1.4104354
7.924396000000001,-5.9476949999999995,0.5211315,-0.31199506,-0.111927964,1.2571083
7.567889699999999,-5.9175086,0.54341674,-0.036774087999999996,-0.36796775,1.0596243
7.426258,-5.9708233,0.9798893,0.22404791,-0.6511649,0.70403093
7.5457,-5.970191000000001,0.8988599,0.40929717,-0.77679366,0.19193386
7.713734599999999,-5.8739347,0.5934364000000001,0.5189562,-0.6293483,-0.37126642
7.8895173,-5.796228,0.35566345,0.552484,-0.32911673,-0.8780228000000001
8.138045,-5.679305,0.5393562,0.54183745,-0.05656612,-1.1915712
8.4598255,-5.451319,0.99327767,0.59613466,0.082362086,-1.2575796000000001
9.022214,-5.081099,1.4819342,0.68875927,0.10204939999999998,-1.4438933999999999
9.788789,-4.952531,1.678479,0.7856425,0.021135937,-1.7936225
10.584708000000001,-5.0510087,1.9779650000000002,0.8835904,-0.07093018,-2.091201
11.537055,-4.980782,2.2701437,0.99005544,-0.21306979999999998,-2.225347
12.68087,-4.913093,2.3315694,1.0528699,-0.47497390000000006,-2.1779612999999998
13.777432999999998,-5.381044999999999,2.5725217000000002,1.0337062,-0.7916988,-2.0491387999999997
14.302559,-6.2585487,2.8015032000000004,0.9698271,-1.0605319,-1.9448203999999998
14.294591,-7.985869,2.5622363,0.91500634,-1.1504861000000002,-1.9043462
13.631129000000001,-9.547397,2.2688029999999997,0.90807736,-1.0929948999999999,-1.895829
12.286077,-9.283402,2.260251,0.9591806,-0.9545904000000001,-1.8777473999999998
11.778524,-8.019905,2.1533162999999997,0.9948551,-0.7874401999999999,-1.8686717000000002
11.258513,-7.8074536,2.0883186,0.9474693999999999,-0.6852337,-1.8596483
10.427217500000001,-8.590864999999999,1.9337296000000002,0.8441983000000001,-0.62667793,-1.8676244999999998
9.453008,-9.476365,1.739081,0.7398625,-0.61283743,-1.8639069
8.524335,-10.038438000000001,1.3114097,0.62967986,-0.6261543,-1.8069394
7.860403999999999,-9.9403715,1.1655931000000002,0.53492594,-0.60166734,-1.7052740000000002
7.5653515,-9.3292465,1.4488273,0.40662682,-0.52873003,-1.5583347
7.2941270000000005,-8.581605,2.019557,0.24373522,-0.43717006,-1.4119538999999999
6.7944759999999995,-7.9261007,2.3970077,0.019634955,-0.32485813,-1.2634438000000001
6.3545275000000006,-7.411376,2.6441276,-0.24066345,-0.19284143,-1.0451728999999998
6.040982700000001,-7.0349307,2.2920458,-0.50628513,-0.054436818,-0.7300538000000001
5.776682,-6.8778809999999995,1.7198221999999999,-0.70591587,0.097267196,-0.3244218
5.575004,-6.8019753,1.4271933,-0.76712453,0.19786797,0.025848325
5.2135754,-6.931233,1.2796433,-0.7144331,0.2665467,0.2627244
4.743966599999999,-7.065739,1.3347291000000001,-0.6942047,0.38152897,0.5411219
4.3064795,-7.133992999999999,1.3723181,-0.7000689999999999,0.52578044,0.958465
3.9055464,-7.093914,1.2290012,-0.54887116,0.5454852,1.4732323999999999
3.7876174,-7.169552,1.042263,-0.21350613,0.43634978,1.890052
3.7029011,-7.556847599999999,0.7918487,0.09520771,0.2553591,2.0646372
3.304075,-7.945771700000001,0.64657813,0.17559758,0.0993965,1.9895880000000001
3.0070023999999997,-8.308694000000001,0.75782233,0.008447394,0.039776053,1.7708111
2.973541,-8.387741,1.2762723,-0.33807027,0.0956615,1.6164192
3.9596457000000003,-8.774405,1.8705515,-0.65320694,0.20106193,1.5642513
5.189748000000001,-9.862177,2.0178811999999997,-0.759672,0.29848620000000003,1.5711803
5.662574299999999,-10.853223,1.7149667000000002,-0.80173445,0.46883035,1.5977966000000001
5.139834,-10.831033,1.5774055,-0.9284279000000001,0.70518285,1.5951262
4.9505095,-9.860567,1.8235389,-1.0034945,0.8925614,1.5717039
5.774556,-8.38235,1.600294,-0.8789129000000001,0.9372767,1.5791563999999998
7.0493917,-7.2103205,0.53215444,-0.67875856,1.0549118999999998,1.5983201
8.434888,-6.650747999999999,-0.769439,-0.7655363000000001,1.2114155,1.4647152
9.072042,-6.7667418,-1.7166234,-1.0114707,1.2396375,1.3124702
9.094049,-7.348254700000001,-1.9396961,-1.1200651000000001,1.0740756,1.3129938
8.900703,-7.834718700000001,-1.1290576,-1.0029534,0.72221726,1.3949718
8.554492,-7.729546000000001,-0.16200127,-0.76660097,0.32084388,1.4513983999999998
8.2070265,-7.1033955,0.10040324,-0.5297248999999999,-0.012374383999999999,1.4859908000000002
7.93652,-6.4169683,0.19385374,-0.2875081,-0.26630235,1.4764264
7.784717999999999,-6.02452,0.60641295,-0.0490263,-0.45474553,1.445534
8.052093,-6.1094284000000005,1.116809,0.16123351,-0.6681993,1.4210645
8.642512,-5.759118,0.4845098,0.35339427,-1.0009115,1.3114055
8.846547,-5.2875752,-0.6495565,0.48115236,-1.3559636999999998,1.0707768999999998
8.323701,-5.255339599999999,-0.98695695,0.58761746,-1.5667646000000002,0.6380051
7.740454,-5.5457373,-0.45185292,0.71537554,-1.5907278999999999,0.029024825
7.658754300000001,-5.583948599999999,0.32680854,0.7430565,-1.3266946000000002,-0.5490457
7.807683,-5.2712755,0.7585406,0.598805,-0.7480481,-0.9121091
7.971686,-4.931586299999999,1.0477793,0.34115952,-0.10021680599999999,-1.2644911
8.503630000000001,-4.8737135,1.2801605,0.22244221,0.42198572,-1.6690758
9.284897,-5.2980714,1.1771907,0.3315602,0.6061703,-1.9650488000000002
10.081974,-5.591466400000001,1.0845063999999998,0.5285206,0.45818383,-2.1204877
11.15901,-5.713954,1.1556333,0.7100523,0.033911746,-2.0917423
12.427142,-6.017136,1.2767031999999998,0.79309505,-0.599538,-1.9362857
13.951645999999998,-6.639647999999999,1.8383063999999998,0.8143881,-1.1664558999999999,-1.8239738
15.207816000000001,-7.975430499999999,2.2575407000000003,0.79309505,-1.3266946000000002,-1.8229266
15.301985,-9.209058,2.1868255000000003,0.7201751999999999,-1.1941369,-1.9064755000000002
13.886245,-8.896125999999999,1.9248710999999998,0.5870764,-0.7996924,-1.9847361000000001
12.516877000000001,-7.7788954,1.7912843,0.51309186,-0.3035651,-2.0140226
11.387503,-7.5701404000000005,2.1088798,0.51202726,-0.050701816,-1.9932531999999998
10.176057,-8.178401,1.9917077,0.531732,-0.04166101,-1.9400206999999998
9.242691,-8.980555,1.6169097,0.527997,-0.21039943,-1.8782709999999998
8.197881,-9.6461525,1.0172389000000002,0.49125782,-0.45207518,-1.7845992
7.642397,-9.631528,0.74184823,0.44655994,-0.61496675,-1.6717287
7.693767,-9.147795,1.2034311000000002,0.36297613,-0.6346715,-1.5333241000000002
7.730839,-8.308302000000001,1.7372136000000002,0.2112721,-0.49307296,-1.3746911
7.5506134000000005,-7.623512,2.0759835,-0.025062927999999998,-0.23595107,-1.2011530000000001
6.985831,-7.2685857,2.1515925,-0.30401890000000004,0.045099307000000005,-1.0436021999999998
6.444147,-7.1493926,2.1902733,-0.5882632,0.3160442,-0.8141437
5.869212999999999,-7.104965700000001,1.7763156999999998,-0.7894996999999999,0.44860196,-0.48199013
5.436858,-7.1462326,1.2748358,-0.86081386,0.44060838,-0.09658652
5.0925055,-7.170299000000001,0.97789735,-0.809187,0.3554363,0.2589894
4.710879,-7.2466836,0.9306165999999999,-0.71389204,0.27452284,0.5427276
4.4076104,-7.300438000000001,1.106715,-0.7181506,0.23832470000000003,0.77747434
4.1574354,-7.283602,1.1373415,-0.8049284000000001,0.2314132,1.0654712
3.8764807999999995,-7.209449,1.0488520000000001,-0.88371253,0.26813492,1.4508573
3.5779812000000004,-7.207696400000001,0.8076696,-0.83367395,0.2926219,1.7856987000000002
3.3369138,-7.491888,0.57234824,-0.61116195,0.30007446,1.9523253
3.0014193,-7.919962,0.5345295,-0.26940903,0.28091073,1.9693421999999998
2.723117,-8.239674,0.73723215,-0.028797932000000002,0.30433306,1.8900343999999998
2.884065,-8.405764999999999,1.1242788000000001,-0.10332349,0.38950512,1.7473713
3.4859480000000005,-8.575341,1.5391173,-0.37906805,0.48106509999999997,1.639859
4.442891599999999,-9.097775,1.4921049,-0.60425043,0.4789358,1.6297187
5.4753475,-10.060483,0.9646909,-0.6058387,0.41718605,1.6584816999999998
5.937342,-10.869945,0.71246654,-0.50469685,0.43209115,1.6781689999999998
5.900596,-10.572919,1.0577104,-0.5121494000000001,0.5763600999999999,1.7069145000000001
6.223488,-9.258934,1.7111838,-0.5786988000000001,0.7600036,1.7713172
6.8361545,-7.9008946,2.2287147000000003,-0.579746,0.8627511,1.8027506000000002
7.7870836,-7.349539,2.1177669999999997,-0.5541944000000001,0.8515636000000001,1.7814575000000001
8.720027,-7.3706173999999995,0.8660114999999999,-0.55260617,0.6753726,1.7308605
9.268989999999999,-7.6553354,-0.5454758000000001,-0.5137377000000001,0.34000759999999997,1.6744515
9.327819,-8.093858,-1.1228231000000002,-0.41420153,0.01155408,1.6201543
8.892688,-8.111747,-0.6179626,-0.26888543,-0.24872687,1.5530638
8.434438,-7.5309805999999995,0.4429273,-0.13046336,-0.35093334,1.4695148
8.130842999999999,-6.8366622999999995,0.75991964,-0.009093165,-0.33176965,1.325246
7.780246000000001,-6.3198685999999995,0.4902942,0.16123351,-0.37222636,1.1224386999999998
7.693767,-6.0176153,0.4328142,0.3565882,-0.5010491,0.89032733
7.8708615,-5.654529599999999,0.47472233,0.48169342,-0.7091970999999999,0.56721455
8.132452,-5.423135,0.1345254,0.48486993,-0.87154764,0.12430235
8.324753999999999,-5.335823,-0.1786266,0.40716785,-0.9061575000000001,-0.35369098
8.535521000000001,-5.356987999999999,-0.046715665999999996,0.32251940000000007,-0.81566215,-0.85248864
8.888407,-5.3258730000000005,0.29322267,0.24321163,-0.5968677,-1.2522563
9.269333999999999,-5.1414040000000005,0.720195,0.19263199,-0.21678734,-1.4114303999999998
9.637438000000001,-4.828061,0.9066363000000002,0.19795524,0.12440707,-1.5626107
10.07527,-4.5774455000000005,1.0695187,0.32093114,0.31871456,-1.8394023999999998
10.70755,-4.6143064,1.1605941,0.54237854,0.29635692,-2.097589
11.226488,-4.7182627,0.99427366,0.7654141,0.0993965,-2.2924201
11.989759,-4.891412,0.7450180999999999,0.98101467,-0.25352654,-2.3983617
12.890047000000001,-5.538047,0.61754125,1.070969,-0.6873630000000001,-2.3712218
13.5201435,-6.4807014,0.95368713,0.9485341,-1.0131462,-2.2620864
14.152892000000001,-7.964944,1.3654037,0.6738542,-1.090342,-2.1811728
14.168080999999999,-9.744688,1.7097665000000002,0.40662682,-1.0030407,-2.1311343
13.109212,-10.175521,2.0487087,0.26556929999999995,-0.77679366,-2.0470095
11.924752999999999,-8.905855,2.2207084,0.23575908,-0.53298867,-1.9549258000000003
11.09656,-8.082384,2.4194459999999998,0.29270917,-0.30037117,-1.8404846000000001
10.111508,-8.083945,2.1436822,0.33423054,-0.17633061,-1.7393428
9.423463,-8.580033,1.7183473000000002,0.3289073,-0.19497073,-1.6398066000000002
8.851133,-9.465859,1.2729875,0.3326423,-0.34135148,-1.5248069
8.269525,-10.218606,0.57717496,0.31506684,-0.5228832,-1.3901373
7.738903,-10.195238,0.10730812,0.28471556,-0.59847337,-1.2437565000000002
7.3312087,-9.535454,0.26271096,0.22563617,-0.5856975999999999,-1.0813711000000001
6.6728125,-8.737381,0.96329266,0.123429686,-0.489879,-0.91371477
6.0731797,-8.058786999999999,1.7446548,-0.06925467,-0.30995303,-0.7417649000000001
5.507823,-7.505103999999999,2.1876874,-0.2917667,-0.10554006,-0.5176472
5.1080294,-7.138580999999999,2.2644743999999997,-0.49457395,0.08449139,-0.18067649
4.727447,-6.909838000000001,1.7664707,-0.60955626,0.23247786,0.14880677
4.422991000000001,-6.7670770000000005,1.3779205,-0.6744998999999999,0.43209115,0.425616
4.1373143,-6.741593400000001,1.2333778,-0.73466146,0.64076275,0.66675067
3.8666834999999997,-6.7184367,1.2441229999999999,-0.88264793,0.82761765,0.944101
3.564957,-6.700978,1.3672328,-1.0822786,0.93195343,1.2842481000000001
3.4552066,-6.7447057,1.4000046,-1.2366531,0.91278976,1.7127788000000002
3.482625,-6.873533,1.2463448000000001,-1.2142779,0.77225584,2.154068
3.6045568,-7.457967,0.9065118000000001,-0.9502444999999999,0.5311037,2.4489763
3.5235467000000003,-8.110761,0.7694294,-0.57444024,0.222896,2.574605
3.3508482,-8.407738,0.95492256,-0.25822145,-0.043249257,2.5506592
3.6733949999999997,-8.392089,1.3106913999999998,-0.11716395,-0.22158699999999998,2.3968084
4.128724,-8.461433999999999,1.5113159999999999,-0.13739231,-0.3035651,2.1615205
4.5408144,-9.025478999999999,1.2191178999999999,-0.19966567,-0.28759536,1.9086745999999999
5.1414237,-10.058866,0.47924256,-0.26460937,-0.005986479,1.6451648
5.5952206,-11.000725,0.11427046,-0.42058945,0.49171162,1.364097
5.4031671999999995,-10.769876,0.24460122,-0.5813517,0.9984854,1.120292
5.6543474,-9.751411000000001,0.9874358,-0.6670474000000001,1.2784886,0.96912897
6.7016196,-8.632533,1.6090664,-0.64842474,1.3104281,0.9121614
8.149997,-8.233573,1.4978414,-0.5579294,1.1177263000000002,0.90736175
9.590291,-8.111555000000001,0.7601303,-0.46424013,0.81484187,0.95473
10.744708000000001,-8.120529,0.01937388,-0.39236748,0.53590333,1.0303377
11.361061,-7.9695887999999995,-0.3299593,-0.31785935,0.29955086,1.0984578
11.39754,-7.516893,0.03392105,-0.2789909,0.13505358,1.1229622
10.976055,-6.639102,0.4531745,-0.23108159,0.0014486233,1.113904
10.168586,-5.703678,0.5682494,-0.14058627,-0.11564551,1.0676005
9.183593,-5.166936,0.5365981,0.0068591437,-0.24926792,0.99787456
8.234914,-5.077268599999999,0.47273993,0.17879152,-0.4142888,0.9526007
7.578099000000001,-5.0879755,0.43473914,0.33370695,-0.6479709,0.8275129999999999
7.0992293,-5.19672,0.34844252,0.42472586,-0.9013578000000001,0.5097234
6.812002000000001,-5.334721599999999,0.19387288,0.4651826,-1.0434974,0.016790068000000002
6.892504,-5.381495,0.21956745,0.49553388,-0.9567197000000001,-0.5032657
7.188140400000001,-5.2083178,0.21275835,0.5173505,-0.6916216,-0.98874646
7.470388400000001,-4.882754,0.25048139999999997,0.54344314,-0.29930650000000003,-1.1287568000000001
7.746314999999999,-4.630548999999999,0.49946877,0.5849470999999999,0.026459191,-1.2570559
8.260609,-4.6783085,0.7934193,0.6706602,0.15847589,-1.5482292
8.994949,-5.2475157,0.9533424,0.792554,0.08820894,-1.8367671000000003
9.834059,-5.7186174,1.0212036,0.91711813,-0.112992615,-2.004982
11.109211,-5.966379,1.0146723,1.0555228,-0.47656214,-2.0081758
12.574183999999999,-6.204258,1.228168,1.1103610000000002,-0.9636485999999999,-1.8468723999999999
13.680133999999999,-7.024875,1.6412349,1.0528699,-1.4081316000000001,-1.6775930000000001
14.781112,-8.337375999999999,2.0182450000000003,0.9006248,-1.5678292999999999,-1.5908327
14.503117000000001,-9.849153,2.180955,0.68662995,-1.4331597,-1.5956149
12.725853,-10.008280000000001,2.1624048,0.47211155,-1.1222816999999998,-1.5993325
11.466559,-8.369439,2.0851676,0.32358405,-0.71930254,-1.5759101
10.812128999999999,-7.450315,1.8839398999999997,0.25064674,-0.43664646,-1.5508996000000002
9.853643,-7.732869,1.4972762,0.25118777,-0.3514744,-1.5045959999999998
8.974397,-8.444636000000001,1.2014966,0.22724187,-0.38180822,-1.4827445
7.9547925,-9.184042999999999,0.84664714,0.16069247,-0.44622833,-1.4774386999999998
7.183658599999999,-9.452605,0.44581953,0.07126179,-0.464851,-1.4492167
6.995043300000001,-9.173241,0.43124363,-0.060737457,-0.38819614,-1.3975898000000002
7.055913400000001,-8.464423,0.7700423000000001,-0.15762068,-0.23542747,-1.3273228000000001
6.9131136,-7.7578073000000005,1.0948973,-0.24013986,-0.01982694,-1.2336336
6.4750032,-7.214841000000001,1.5858521,-0.3545811,0.21383774,-1.1154574
6.043367400000001,-6.852942999999999,1.7565203999999999,-0.5073497,0.40653953,-0.9142384
5.6504025,-6.610543700000001,1.8349258000000002,-0.65215975,0.49544662,-0.6321059
5.434886,-6.5691624000000015,1.6012899999999999,-0.73094386,0.5151339,-0.33773866
5.3922977,-6.518051,1.2923901000000002,-0.7548898,0.52204543,-0.024207717000000004
5.267990599999999,-6.531353500000001,1.2064958000000001,-0.7820296999999999,0.52790976,0.309028
4.9646263,-6.5903277000000005,1.2699325000000001,-0.85016733,0.5433559,0.6183178
4.756646599999999,-6.707442299999999,1.4077045,-0.968361,0.60510564,1.0085036
4.5701766,-6.7957788,1.6529186000000002,-1.03224,0.63543946,1.4274524
4.4021325,-7.0727015,1.6188922,-0.87732464,0.5476145,1.7388540000000001
4.2669272000000005,-7.4904804,1.3016603999999998,-0.6100973000000001,0.47095963,1.9326205
3.9203615,-8.085649499999999,0.9632544,-0.33489376,0.33414328,2.016187
3.7654377999999995,-8.512441,0.8875976000000001,-0.17945476,0.2511005,1.9544370999999998
3.8978083,-8.785619,1.0274477,-0.19010127,0.17870426,1.7542828000000001
4.2021303,-9.200773,1.1658708999999998,-0.32796479999999995,0.18882717,1.5733095
4.5437546,-9.643558,1.0036781,-0.52546626,0.31497958,1.4902494
5.0541024000000006,-10.420083,0.7313999,-0.7288146,0.5412266,1.4205235
5.1905813,-10.598680499999999,0.6326246999999999,-0.8736071,0.7930078,1.3454568
5.356423,-9.753662,1.0019543,-0.94013906,0.94738215,1.3071294
5.970105,-8.569633,1.5629828000000001,-0.93800974,0.99103284,1.3236402
6.6299944,-7.814396400000001,1.7976720000000002,-0.84219116,0.8946907,1.3944308
7.6674690000000005,-7.382406,1.3629806999999998,-0.6899460999999999,0.6775019,1.4987665000000001
8.641306,-7.1029353,0.5868667,-0.5350481,0.41292745,1.6036434
9.302729,-7.049823,-0.14385322,-0.43497095,0.1622109,1.6760397
9.162266,-7.2043539999999995,-0.45819274,-0.34925783,-0.028361599999999997,1.7281901000000002
8.770277,-7.0590644000000005,-0.45499408,-0.27314404,-0.17367771,1.748436
8.388383000000001,-6.527675599999999,-0.08667011,-0.16187929,-0.2742785,1.6685870999999999
7.9700484,-6.0422473,0.29904538,-0.041573743999999996,-0.29024825,1.4412755
7.4407,-5.787456,0.5717545,0.062203534000000005,-0.29237756,1.1708541000000001
7.051403,-5.7682447,0.7109055000000001,0.16282177,-0.36637953,0.8354891
6.816924,-5.8257155,0.8064246,0.23361231,-0.48401472,0.44423866
6.849964,-5.9182463,0.7376248000000001,0.26183429999999996,-0.5617342,-0.047088984
7.1984452999999995,-5.949859,0.49684474,0.21498966,-0.57824504,-0.55813885
7.7577024,-5.8774489999999995,0.3331005,0.19102629,-0.56599283,-0.91158545
8.306088,-5.704607,0.3216658,0.24373522,-0.4142888,-1.0308089
8.860653,-5.3165260000000005,0.49407703,0.28206265,-0.18219492,-1.2687845
9.613266000000001,-4.7247944,0.83311516,0.37521088,0.104178704,-1.6126667
10.661658000000001,-4.5041637,0.9774185,0.60517544,0.26546457,-1.9001225
11.418254,-4.604462,0.92934287,0.8090648,0.18828613,-2.090154
12.099491,-4.762498,0.9935745,0.99377304,-0.12735668,-2.2008777000000004
12.839299,-5.0790687000000005,1.1923412,1.024648,-0.59847337,-2.2056598999999997
13.743848000000002,-6.126379,1.3340108,0.9240471,-1.023269,-2.1460395
14.396775,-8.119428,1.4776343,0.8053298000000001,-1.1904193,-2.0970828999999997
14.439009,-10.000896000000001,1.8964854,0.7052701,-1.135581,-2.0613909
13.640935999999998,-9.9662,2.4813794999999996,0.65469044,-0.9641896999999999,-1.9879474999999998
12.691185,-8.463924,2.6212678,0.68662995,-0.7134557,-1.8937171999999998
11.57881,-7.647549000000001,2.9407692,0.7281514,-0.5377883000000001,-1.7649119
10.447913,-7.760728,2.6594314999999997,0.7249574000000001,-0.5101074000000001,-1.6408539
9.751669999999999,-8.289138000000001,1.9637529999999999,0.6860889,-0.5878269,-1.5812508
9.140957,-8.975249,1.3179411,0.6121044,-0.7006799,-1.5567639
8.56789,-9.614539,0.6416173000000001,0.5178741,-0.7597767,-1.5152424999999998
8.065108,-9.681366,0.6648794,0.40982077,-0.72890186,-1.4220941999999999
7.497462,-9.114802000000001,1.2553756999999999,0.26289895,-0.60166734,-1.2948772
6.804158,-8.350133,1.8210106,0.0840376,-0.41482985,-1.1569962999999999
6.069923999999999,-7.700825,2.2773932999999995,-0.13739231,-0.18325958,-0.98078775
5.5741997,-7.322617999999999,2.4072454,-0.38493237,0.04668756,-0.72474796
5.196653400000001,-7.1449585,2.0374944,-0.56059974,0.18350391,-0.35688493
5.119981,-6.9071665,1.4612195,-0.5648584,0.18350391,0.018378316999999998
5.108105999999999,-6.61516,1.1519941,-0.5228134,0.15048228,0.26855382
5.0330143,-6.5383252999999995,1.0401274,-0.55738837,0.1643402,0.5070531
4.791937,-6.700231,1.1232445,-0.6643945,0.25483552,0.7705454
4.4203,-6.832927000000001,1.1791061,-0.8001461999999999,0.4161214,1.088876
4.0610447,-6.8347564,1.1319211999999998,-0.92204,0.5534614000000001,1.4077302
3.8687332000000003,-6.949774000000001,1.0128622,-0.8938355,0.60137063,1.6994619
3.6397612,-7.3268889999999995,0.81749535,-0.66706485,0.5784719,1.8708533
3.4010977999999996,-7.901536,0.6780379,-0.3929085,0.5204572000000001,1.9358145
3.2396996,-8.285384,0.97445923,-0.21191788,0.43847907,1.9123747
3.8326955000000003,-8.397911,1.3841742,-0.14432128,0.31339133,1.8128386000000003
4.825408,-8.626462,1.2273252000000001,-0.14964452,0.24525367,1.6888154999999998
5.3557143,-9.162562,0.7976618000000001,-0.3109304,0.27026424,1.5386997
5.929795700000001,-9.936024,0.47626418,-0.5499531999999999,0.41132173,1.4151827
6.3380265,-10.302192999999999,0.3290878,-0.7692713000000001,0.6801548000000001,1.3161877
6.177184,-9.696267,0.425306,-0.91193455,0.94738215,1.2570908
6.526182,-8.723225999999999,1.2034407,-0.92949253,1.0628879999999998,1.2767781
7.278353999999999,-7.8477809999999995,1.4782375,-0.8938355,1.0458710999999998,1.3321575
8.051059,-7.465925,1.0618093000000002,-0.8107926999999999,0.8888264000000001,1.4024069
8.633415,-7.2544889999999995,0.36571908,-0.6910108,0.6455624,1.4796028
9.075873,-7.152658,-0.23295583,-0.5382421,0.35011303,1.5988263
9.36763,-7.038953299999999,-0.62051004,-0.38013270000000005,0.07436848,1.6824101000000002
9.141608,-6.5877229999999996,-1.0058136999999998,-0.3104068,-0.06349508,1.6999856
8.600739,-6.022461,-0.84596723,-0.27579692,-0.13163273,1.7111557000000002
8.001710000000001,-5.5640388,-0.23104046,-0.14484487,-0.21998130000000002,1.6249365
7.4043655,-5.4069123,0.21011515,0.05581563,-0.36266196,1.4114652
6.99648,-5.487051,0.456354,0.24586453,-0.43292892,1.1240094999999999
6.828685000000001,-5.5052080000000005,0.43126276,0.37095228,-0.45952773,0.75405204
6.761858,-5.601924400000001,0.4732954000000001,0.39011599999999996,-0.38076103,0.25258404
7.0259,-5.868294000000001,0.4363193,0.29590312,-0.2189341,-0.34573227
7.2705107,-6.0114865,0.48903963,0.17240362,-0.0060039326,-0.8929628000000001
7.986759700000001,-5.935887,0.41931093,0.11597713,0.111090206,-1.215552
8.551686,-5.703380999999999,0.30746338,0.22031291,0.13025393,-1.2650496
9.093522,-5.451923000000001,0.49533162,0.33742452,0.104178704,-1.3614091999999998
9.954717,-4.9357805,0.9628426,0.48860493,0.09299114,-1.6866511999999998
11.007764,-4.690002,1.2302365,0.66107833,0.07489208,-1.981036
12.031409,-4.7130529999999995,1.2507693000000002,0.80639446,-0.016632987,-2.1401925
13.02914,-4.7344766,1.2017361,0.91711813,-0.29663616,-2.1769316
13.908397,-4.827783,0.9988322000000001,1.0081545,-0.7347486999999999,-2.0997357000000005
14.467988,-5.7128239999999995,0.9838254000000001,1.0283829,-1.1776434,-1.9645251
14.482535999999998,-7.546524000000001,1.0211174,0.9959023000000001,-1.4134723,-1.839961
14.039589000000001,-9.625132,1.3911844,0.9522516,-1.4544526000000002,-1.7505304
12.92505,-9.936416,1.7728202000000002,0.91605353,-1.3032721999999999,-1.6461946
12.185635000000001,-8.401024000000001,2.0076914,0.82875216,-1.0344392,-1.5540935
11.55777,-7.4388323000000005,2.2062664,0.69512975,-0.7560416999999999,-1.4774736000000002
10.457116000000001,-7.7788954,2.0234165,0.5514193000000001,-0.5968677,-1.4609451999999998
9.562058,-8.505985,1.5041142,0.43217844,-0.56707495,-1.459357
8.663525,-9.1335535,1.141249,0.35978216,-0.62243676,-1.4327408000000001
7.8305050000000005,-9.4668455,0.9739134,0.31771973,-0.64957666,-1.3858787000000001
7.182002000000001,-9.282607,1.0755042,0.2639636,-0.6011263000000001,-1.300183
6.748009700000001,-8.637677,1.3789643,0.18676768,-0.47390926,-1.2064937
6.307132,-7.9597435,1.8405759999999998,0.09520771,-0.31314698,-1.1112162
5.937582,-7.351903999999999,1.9523758000000002,-0.044244096,-0.09969321,-0.96909404
5.745414,-6.9402256,1.7896849,-0.21511184,0.13451253,-0.7135604
5.723636,-6.6157727,1.4057794,-0.37109190000000003,0.31124458,-0.41386992
5.7270455,-6.407602,1.1073183000000002,-0.48926815,0.45019022,-0.1359786
5.550593,-6.424754,1.0784441999999999,-0.5898689,0.5726251,0.15090117
5.3048997,-6.5150633000000004,1.2649525,-0.72082096,0.6732259,0.4878719
5.100636,-6.683443,1.519686,-0.89968234,0.7472278,0.8695579
4.827841,-6.7124224,1.5851339,-1.0636386,0.7866199,1.3119291000000002
4.6246114,-6.711886,1.6406028000000001,-1.0343693,0.68973666,1.7734464
4.51692,-6.966763,1.5146198,-0.7719242,0.5028817,2.1120055
4.311948,-7.6399740000000005,1.2527995,-0.47649235,0.31658527,2.2530804
3.7710017999999996,-7.900396300000001,0.98179513,-0.26888543,0.18828613,2.2237937000000003
3.648093,-7.9010954,0.94495314,-0.15070918,0.10843731,2.0230985
3.9728043,-8.226113,0.9760203000000002,-0.1762608,0.07276278,1.7814226000000002
4.2575035,-8.887354,0.77040625,-0.315189,0.07543313,1.5333765
4.559661,-9.694975,0.44580993,-0.45732862,0.14409438,1.3411808
4.9988345999999995,-10.460180000000001,0.05409938,-0.46317548,0.33361968,1.2315392
5.064819,-10.2494335,0.17955555,-0.5025675000000001,0.6279869,1.1447614
5.235908,-9.251502,0.79706806,-0.64683646,0.9244834000000001,1.0702358
6.3488483,-8.126169,1.3706517,-0.7330732,1.0559764999999999,1.0340377
7.7326107,-7.4199185,1.0623169,-0.7048512,1.0224488,1.0526779
9.027768,-7.0134215,0.49174988,-0.5765695,0.8451757,1.1463671999999998
10.011307,-6.9095320000000005,0.0024420856,-0.42910665,0.5912651999999999,1.2326039
10.451926,-6.984135,-0.4779401,-0.33382913,0.3426605,1.3241638
10.162773,-6.912539,-0.578353,-0.27846727,0.20319124,1.4034716
9.3518095,-6.6883464,0.056646813,-0.2475924,0.16751671,1.4327408000000001
8.668111999999999,-6.1900363,0.84958726,-0.21032962,0.13131857,1.420506
8.130345,-5.621681,0.5955433000000001,-0.16507325,0.044034656,1.3278988999999999
7.5919657,-5.3419237,0.34781045,-0.03572689,-0.14067353,1.2113108999999997
7.1457725000000005,-5.323249,0.46685020000000005,0.11704178,-0.37063813,1.0851411
6.770371400000001,-5.499692,0.6207111999999999,0.22137757,-0.5915619000000001,0.84133595
6.748239,-5.612344,0.7007541,0.26076964,-0.73846626,0.45275587
6.6904435,-5.619134,0.5117558,0.32410765,-0.76188856,-0.016214108
6.8789053,-5.588708400000001,0.35677436,0.43908992,-0.65596455,-0.3883183
7.3255963,-5.358415,0.33220983,0.5663244000000001,-0.46273914,-0.5677207
7.805586,-5.0489783,0.37177163,0.6392443,-0.17208946,-0.7566875
8.401569,-4.8745084,0.34681448,0.6392443,0.15634659,-1.1388797
9.172589,-5.0016694,0.42702022,0.6552140999999999,0.37460002,-1.5945677
9.984347,-5.459929,0.61044484,0.6978001,0.33466688,-1.9113101000000003
10.988792,-5.717689,0.68083435,0.72654563,0.06956882,-2.0140401999999997
12.223214,-5.689351,0.8164802,0.7084465999999999,-0.39886009999999994,-1.9650662
13.459657,-6.1070533,1.0552491000000002,0.62488025,-0.8609186,-1.8628596999999998
14.482152,-7.28907,1.6061933000000002,0.5732359,-1.1616737,-1.7995217000000001
14.677644,-9.1507635,2.1277654,0.5476843000000001,-1.2372638999999999,-1.7691703999999997
14.031851999999999,-9.819445,2.406441,0.55567795,-1.141969,-1.7137911
13.047471,-8.549139,2.3470647000000002,0.5610012,-0.9120218000000001,-1.6488648999999997
12.321222,-7.2735270000000005,2.0486324000000002,0.5088332999999999,-0.6463827,-1.5833976
11.391478,-7.253981,1.6025541,0.39118063,-0.4031187,-1.5556992
10.088552,-8.1914835,1.0843914,0.22348939999999998,-0.19922933,-1.5658221
8.974838,-9.071458,0.6325289000000001,0.09787806,-0.098087505,-1.5668868
7.934815400000001,-9.455813000000001,0.28088775,0.011100293999999998,-0.07679449,-1.5189774999999999
7.2422304,-9.072032,0.5386188000000001,-0.03785619,-0.07360053,-1.4471223
6.851342999999999,-8.319822,1.3785048,-0.10173524,-0.02994985,-1.3694028
6.4309216,-7.715372599999999,1.9204466,-0.17359045,0.045081854000000005,-1.2783664
6.0023117,-7.279896000000001,2.3926982999999997,-0.26940903,0.15475835,-1.1458087
5.666673,-6.9714465,2.2868168,-0.43284166,0.28251645,-0.9158440999999999
5.5399814,-6.640653599999999,1.9530174,-0.5552765000000001,0.36714745,-0.62200046
5.5391197,-6.4326935,1.4790516000000002,-0.6143559000000001,0.38364083,-0.30260518
5.4924803,-6.396991000000001,1.2921124,-0.54408896,0.3884405,-0.050823987
5.195896599999999,-6.628817,1.4056549999999999,-0.52014303,0.4331558,0.19402826
4.8593,-6.9258313,1.5768213,-0.6489658,0.5044874,0.46125559999999993
4.597624,-7.0019,1.7194773,-0.8294154,0.5891184,0.7934266999999999
4.4490875999999995,-7.0941057,1.7442620999999998,-0.9188459999999999,0.5508084,1.2650845
4.316506400000001,-7.390747500000001,1.7363613000000002,-0.70910984,0.3032684,1.6866688000000003
4.128207,-7.901028,1.4743302,-0.33915237,-0.043249257,1.8676769
3.669047,-8.336381,1.2459905,-0.043179445,-0.32859313,1.8681830000000001
3.4472961000000004,-8.361701,1.3227102,0.09414306,-0.48829076,1.8053685000000002
3.6409104,-8.269247,1.5977561000000002,0.06913249,-0.51755995,1.7212787
4.382988500000001,-8.386841,1.7564726000000002,0.0025830872,-0.40151298,1.6275893
4.7455664,-8.868928,1.0846212,-0.10279989,-0.14706144,1.5019605
5.2639685,-9.771044,0.35185188,-0.32051226,0.2553591,1.342804
5.35355,-10.454694,0.13443922,-0.62819636,0.70464176,1.2006643999999997
4.859645400000001,-10.049451,0.5592471999999999,-0.9114109,1.0857868,1.1186688
5.5596523,-8.834336,1.4734969999999998,-0.992848,1.18267,1.1149513
6.8578267,-7.8408957,1.5226356,-0.9497209000000001,1.0958921999999998,1.1756363
8.038819,-7.672478,0.94423485,-0.85763735,0.9122486999999999,1.2778603000000002
8.727258,-7.760478999999999,0.28823316,-0.77140063,0.73604023,1.4178531
9.166403,-7.8393820000000005,-0.10367851,-0.7501076,0.7025125,1.5147363
9.298045,-7.5194883,-0.02528277,-0.8379325999999999,0.88669705,1.6361065000000001
9.089922,-6.7352724,0.0023463177,-0.9396154000000001,1.1230495,1.737772
8.588835000000001,-5.912318,-0.21721154,-0.9316393,1.2082217,1.7947221000000002
7.831491000000001,-5.370185,-0.28139532,-0.82889175,1.0793989,1.705815
7.020575,-5.2437806,0.06947973,-0.5850867,0.76159185,1.533359
6.381831,-5.276064,0.550178,-0.23746950000000003,0.30272737,1.3033944
6.041289,-5.4461580000000005,0.81803167,0.07497934,-0.19071212,0.84611815
5.9453773000000005,-5.587808,0.87704396,0.30174997,-0.51223665,0.28132963
6.1046495,-5.6167110000000005,0.90538174,0.4486718,-0.62030745,-0.3148574
6.6021166,-5.8567919999999996,0.92569417,0.49445176,-0.606467,-0.6997374
7.218049000000001,-5.9964314000000005,0.83550936,0.54396677,-0.49254936,-0.80192643
7.839181,-5.924011699999999,1.1778706,0.59027034,-0.37809068,-0.98293453
8.594714999999999,-5.551501999999999,1.5198009,0.7419918000000001,-0.22319270000000002,-1.3246875
9.8114,-5.5175624,1.8121426,0.96663314,-0.11831587,-1.6366127000000001
11.156463,-5.8030276,2.1857145,1.1518823999999999,-0.22530456,-1.8931935000000002
12.454044,-5.7310677000000005,2.3903133999999997,1.2977395,-0.56494564,-2.0795074000000002
13.61416,-5.475185,2.3838012,1.2774937,-1.0658551,-2.100277
14.528504000000002,-6.104525,2.660159,1.1130139,-1.5204611000000001,-2.0033936999999997
15.074364000000001,-8.041233,2.5899037999999996,0.9410815,-1.7312618000000002,-1.9011697
14.842854,-10.209651,2.4515667000000003,0.79574794,-1.6993223000000002,-1.8570129000000002
13.674885,-10.307086,2.5731158,0.7164401999999999,-1.4677695,-1.8000453999999997
12.781149000000001,-8.609933,2.7407575,0.662143,-1.1286695,-1.7569357
11.777988,-7.355944999999999,3.1241267,0.6078284,-0.8050156999999999,-1.7393602
10.607289999999999,-7.248446,2.708005,0.5141564999999999,-0.58517396,-1.7537417000000002
9.929377,-7.7768745,1.9484875,0.4092797,-0.5031784,-1.7702177
9.171507,-8.625159,1.2129313,0.36404076,-0.5000019,-1.7361662
8.239694,-9.387511,0.53004754,0.34646532,-0.5202303,-1.6520588
7.4862475,-9.525312,0.5632982,0.32623693,-0.53885293,-1.5423824
7.0648007,-8.925564999999999,1.2883677,0.29057986,-0.5228832,-1.4300704
6.6630726,-8.204316,1.9861819,0.19315559,-0.38021997,-1.3039180000000001
6.2807956,-7.659741,2.5472007000000003,-0.028274333,-0.046460666,-1.1436968
5.9949565,-7.182595699999999,2.6344645,-0.28537878,0.2990098,-0.9403485
5.865162000000001,-6.8808875,2.3931002999999995,-0.48713884,0.5529203,-0.65554565
5.7440157,-6.816235000000001,1.8764508000000002,-0.51321405,0.57953656,-0.23766148
5.4468184,-6.9382815,1.8186547999999998,-0.42591270000000003,0.46029568,0.17112954
4.988645,-7.159793,2.0463722,-0.318924,0.35063663,0.45593235
4.5340915,-7.211192,2.1591772999999996,-0.28537878,0.24097762,0.7194421999999999
4.1825557,-7.1217637,2.2616107000000003,-0.34925783,0.24949482,0.99145174
4.0829854,-7.1100225,2.2360408,-0.53876567,0.38683477,1.37792
3.8589072,-7.125135,2.1125958,-0.64523077,0.46403068,1.7835519
3.7653131,-7.5243725999999995,1.7387747,-0.47169268,0.34318408,2.0720723000000003
3.4578402,-7.953088,1.4982818000000002,-0.11025245,0.06424557,2.1726732
2.7604667999999997,-8.175576,1.6348566999999998,0.1340762,-0.20296434,2.0971003
2.5143812000000003,-8.222177,1.8511106,0.11863003,-0.35466835,1.9118511999999999
3.4453425,-8.418022,1.9106017,-0.11397,-0.359468,1.6861452000000001
4.325805,-8.606437,1.5631743999999999,-0.32796479999999995,-0.24129176,1.4614863
5.2729516,-9.320780000000001,0.85504603,-0.35138714,-0.008656833000000001,1.2672136999999999
6.148271599999999,-10.056442,0.27780402,-0.32850587,0.37618828,1.0755591
5.900118,-9.949853,-0.11306378,-0.48288023,0.8504989,0.8604997
5.9387984000000005,-9.052275999999999,0.28920999999999997,-0.70432764,1.1816053,0.7103839
6.921005,-7.9901979999999995,1.0381259,-0.7772475000000001,1.2561308999999998,0.68429124
8.249989,-7.406511,0.90568817,-0.6936810999999999,1.133155,0.77052796
9.480445,-7.248369,0.07555143,-0.56911695,0.89147925,0.9147969000000001
10.243879,-7.2441936,-0.8205024999999999,-0.44668213,0.6008296,1.0803587
10.376766,-7.124368700000001,-0.9871198,-0.36416295,0.3767293,1.180436
10.088505,-6.698765799999999,-0.012363658000000001,-0.29070204,0.24204226,1.2592201
9.5048275,-6.0544286,1.0045879,-0.23481660000000001,0.15367624,1.3422629
9.001211999999999,-5.271869000000001,1.0671436,-0.18849556,0.08979719,1.4024069
8.361528999999999,-4.80365,0.41390958,-0.15283848,-0.042202063,1.4109242
7.464211,-4.944831,0.20666750000000003,-0.06340781,-0.21626374,1.3592973
6.622831,-5.2552443,0.56896764,0.079237945,-0.42121777,1.2384508
6.023984,-5.529476,0.8191139000000001,0.20380209999999999,-0.5574931,1.0249795
5.731776,-5.6272936,0.734589,0.30972612,-0.57292175,0.5586624
5.885627700000001,-5.509345,0.6457641,0.39011599999999996,-0.49787262,-0.05721189
6.236493,-5.5567126,0.65176874,0.4742234,-0.37117916,-0.5852786999999999
6.70365,-5.519975700000001,0.8103894,0.42205550000000003,-0.089029245,-0.784892
7.0930524,-5.4719386,0.77040625,0.25970498,0.25375342,-0.9972985999999999
7.762816,-5.4950953,0.71335715,0.22828907,0.43209115,-1.3470451
8.791834,-5.849944,0.7351923,0.39756855,0.37885863,-1.6286365
10.062312,-6.1416254,0.9370235,0.6216863,0.13983577,-1.7548063999999999
11.237674,-6.266737,1.2837421999999998,0.80800015,-0.3051708,-1.7494831000000002
12.726245,-6.2493453,1.6076107,0.8968898000000001,-0.88221157,-1.6344833
14.391269,-6.3584347,1.8641447,0.8905019000000001,-1.4156016000000002,-1.4918202
15.607169,-7.4789977,2.0281856,0.817041,-1.7168978,-1.3938723
15.232294,-9.272552000000001,1.8452400000000002,0.7361274999999999,-1.7248740000000002,-1.3166938
13.96895,-9.687476,1.2734184,0.64830256,-1.4949093999999998,-1.2528148000000001
12.721667,-8.003414,1.2017072,0.5716477,-1.1680616000000001,-1.2378923000000002
11.56049,-6.969166800000001,1.6669868000000003,0.49551642,-0.8577246,-1.2847543
10.115406,-7.234023,1.8850411,0.36456436,-0.6602231,-1.3619328000000002
8.992019,-7.9223943,1.4421523,0.2192308,-0.5920854999999999,-1.4327408000000001
8.014284,-8.511713,0.89559424,0.11969468,-0.59315014,-1.4683979
7.290851600000001,-8.877775999999999,0.5836201999999999,0.043039817,-0.53832936,-1.4604217
6.901765299999999,-8.724097,0.6505525,-0.06607816,-0.39618975,-1.4114478000000001
6.7366223,-8.178038,1.174423,-0.1762608,-0.19017108,-1.3283875
6.556684,-7.582044000000001,1.7742951,-0.27792624,0.030176742000000003,-1.236845
6.313136,-6.915728,2.1295466,-0.38440877,0.21809635,-1.1506257
6.3076105,-6.3587503,2.2428114,-0.51108474,0.3729943,-1.0212619
6.2904778,-6.010337,1.981039,-0.6037094,0.46616,-0.8455946
6.0748463,-5.903067,1.4625700000000001,-0.7096509,0.5422912,-0.6555281999999999
5.8049626,-6.044986,1.3548308999999998,-0.763407,0.5939181,-0.44528586
5.507095,-6.296578,1.6038853000000002,-0.6809053,0.6535385,-0.13547246
5.200387999999999,-6.567966,1.8211830000000002,-0.61967915,0.6822841,0.1988279
4.888941,-6.7647023,1.9439481,-0.70539224,0.70464176,0.5714557
4.6371665,-6.789094400000001,1.9808571,-0.77831215,0.68387234,1.0494839
4.631449,-6.987391499999999,1.9238465,-0.6255435,0.51194,1.6403651000000001
4.735961,-7.4374537,1.6646596000000002,-0.19648917,0.21649064,2.112529
4.845443,-8.063394,1.4750484,0.22883011,-0.04059636,2.373386
4.736076000000001,-8.30109,1.4350844999999999,0.46198866,-0.17847736,2.3771036
4.5268607,-8.2329035,1.437632,0.38107517,-0.16996016,2.1721494
4.4106654999999995,-8.507595,1.6903831000000002,0.077108644,-0.15079644,1.9176978999999998
4.4695434999999994,-9.203981,1.8461403000000003,-0.27366763,-0.15718435,1.6366302
4.6859025999999995,-9.794630999999999,1.0941502,-0.37802085,-0.07840019,1.367256
4.8794403,-10.291332,0.5173774,-0.35671040000000004,0.15261158,1.1261212999999999
4.333840400000001,-9.866487,0.71905535,-0.30134854,0.5294979999999999,0.9302256
4.233322,-8.824769,1.5622454,-0.35564575,0.87976813,0.8253662
5.325461,-7.884834,2.0604310000000003,-0.45252895,1.0644938,0.8354891
6.89985,-7.537828,1.4866268999999999,-0.46691048,1.0905690000000001,0.87699306
8.88832,-7.4329906,0.36979884,-0.37055084,0.96441656,0.96431184
10.144136,-7.3723407000000005,-0.82482165,-0.3088011,0.79620177,1.0420139000000002
10.479153,-7.192717999999999,-1.354649,-0.32477087,0.6173404,1.1719013
10.261280000000001,-6.782275,-0.7180498000000001,-0.3066718,0.4012163,1.2954183000000001
9.804687,-6.2275480000000005,0.72623795,-0.21191788,0.18882717,1.3832607
9.141196,-5.673875,1.4087962,-0.12781046,0.059463367,1.3960191000000002
8.432733,-5.2556944,1.4476492,-0.08522443,-0.025691247,1.3379868000000001
7.4779160000000005,-5.2149544,0.9679757999999999,0.008970993,-0.18060666,1.2293923999999998
6.760229600000001,-5.216889,0.67282814,0.18783234,-0.44783404,1.0255206000000001
6.498859400000001,-5.2655199999999995,0.8119217,0.28099802,-0.77946407,0.6635393
6.317379,-5.2777305,0.81431586,0.29003882,-0.88379985,0.21319197
6.288983999999999,-5.4878073,0.4797214,0.15482816,-0.61018455,-0.38673005
6.3175035,-5.5836997,0.26889759999999996,0.05688028,-0.21361084,-0.922773
6.649263400000001,-5.467265,0.48915458,0.019093903,0.22980749999999997,-1.0601129999999999
7.2386584,-5.205598,0.7735953000000001,0.08510225,0.46722463,-0.9488656999999999
8.140592999999999,-4.974318,0.76360667,0.23574162,0.40973350000000003,-1.1559316000000002
9.19656,-5.150139,0.69321716,0.42579052,0.18029252,-1.5253653999999999
10.352337,-5.39881,0.9529689,0.61901593,-0.08904669999999999,-1.8037803
11.5892,-5.482626,1.2286277,0.71642274,-0.41003019999999996,-1.9331267
12.844021000000001,-5.956180000000001,1.2344791000000002,0.79096574,-0.87901765,-1.9464436
13.68701,-6.2064986,1.5747527,0.8159763000000001,-1.3378822,-1.8277261999999999
14.577078,-7.271832000000001,1.7946074,0.79787725,-1.6647299999999998,-1.681328
14.716439000000001,-9.543182,1.9827629,0.7787135000000001,-1.7818415,-1.5839212
13.256905999999999,-10.996377,2.01202,0.792554,-1.6918699000000001,-1.5195185
11.929005,-9.6150465,2.0183694,0.8356811,-1.4954505,-1.4731975
11.561456,-7.6840754,1.9449441000000003,0.84365726,-1.2447164,-1.4566867000000001
10.951366,-7.230842999999999,1.9261161,0.73719215,-0.9945235,-1.4508223999999998
9.955311,-8.06755,1.4747899,0.570042,-0.8369552,-1.4535102
9.242844999999999,-8.909312,1.0796317,0.4342903,-0.7901104999999999,-1.4572277
8.345468499999999,-9.461454,0.9243534,0.3187844,-0.76403534,-1.4572277
7.5241046,-9.47423,1.0910090000000001,0.17079791,-0.6735399999999999,-1.4125124
6.9730644,-8.812883,1.4685075,-0.03466224,-0.45954520000000004,-1.3257521
6.5734053,-7.948683,2.0916893,-0.26356217,-0.1656841,-1.2336336
6.196807,-7.230278500000001,2.5187385,-0.45572293,0.13451253,-1.1351621
5.9071945999999995,-6.666185400000001,2.6340144,-0.6138323,0.37405896,-1.0212619
5.717880200000001,-6.3305182,2.2616107000000003,-0.74956656,0.533233,-0.7976678
5.5038290000000005,-6.1812735,1.5692077,-0.86402524,0.6258576,-0.46390852
5.300705000000001,-6.1641307,1.2783409,-0.9300335999999999,0.7083593,-0.15090117
5.102752,-6.269830000000001,1.2628169,-0.89968234,0.77384406,0.091821775
4.896861,-6.356749,1.3438174999999999,-0.8618959,0.8387878000000001,0.3148574
4.5775414,-6.4823010000000005,1.3539881999999999,-0.90607023,0.9622873,0.57838464
4.351088,-6.543564,1.350732,-1.0476862,1.1171852,0.9855874
4.2849984,-6.7054789999999995,1.4136995,-1.1179358,1.1486011999999999,1.5195185
4.345275,-7.078026299999999,1.4551479999999999,-0.91832244,0.91170764,1.7393776
4.268536,-7.6847460000000005,1.3601747,-0.696334,0.54068553,1.4886436
3.8392266999999998,-8.140707,1.2697216999999998,-0.6984808000000001,0.20265017,1.2006469
3.6586564,-8.187375,1.2889999,-0.7730063,0.07063347,1.1479378999999998
4.0043216,-8.239799,1.6900479,-0.77298886,-0.011327186999999999,1.2246101999999999
4.662401,-8.576882000000001,1.8554776000000002,-0.60105646,-0.108210415,1.3369222
5.3931116999999995,-9.547051,1.5491827,-0.29443705,-0.154514,1.4465986000000002
5.957722,-10.371844,0.96788,-0.019757127,-0.052307516,1.4705446000000002
5.389730999999999,-10.124561,0.48448107,0.09946632,0.19148007,1.4093183999999999
5.2784486,-8.958594,0.8440136,0.07285004,0.43261477,1.3172348999999999
7.7327924,-6.84373,0.83362275,0.035063665,0.5651725000000001,1.2421683000000001
9.652827,-5.769672,-0.09277053,0.04038692,0.57475436,1.2395154
9.847007000000001,-6.149574299999999,-0.7283545,0.021746803,0.49968776,1.2294098999999998
9.746967,-6.900367299999999,-0.38626134,-0.120898955,0.34372514,1.2187635
9.741221000000001,-7.288860000000001,0.45777136,-0.30134854,0.07384488,1.2618905
9.509577,-7.041787599999999,1.4877761999999999,-0.3524518,-0.25513223,1.3624913
9.193983,-6.321966000000001,2.076587,-0.2960253,-0.5223595999999999,1.4423226
9.034214,-5.3967605,1.9436129,-0.21191788,-0.57346284,1.4465986000000002
8.693835,-4.658551,1.2383865,-0.13261011,-0.44783404,1.3694028
8.320924,-4.2821445,0.7493850999999999,-0.039985493,-0.33072245,1.2634614
7.8258410000000005,-4.2122725999999995,0.48465347,0.115959674,-0.37543777,1.0723652
7.3848095,-4.2151356,0.35005146,0.23947662,-0.5138424,0.6821794
7.6179476,-4.1992283,-0.21126436,0.29057986,-0.5000019,0.11098549
7.4399147,-4.2386947,-0.818501,0.27035149999999997,-0.24342106,-0.53044045
7.334081599999999,-4.4394727,-0.905602,0.2682222,0.12973033,-0.9839992000000001
7.3681655,-4.555093299999999,-0.2266926,0.28951523,0.38950512,-1.0766238000000001
7.8346133,-4.4398074,0.41529822,0.3336895,0.40919244,-1.0718242
8.714991,-4.312101,0.9232136999999999,0.42898446,0.20797344,-1.2969891000000002
9.862042,-4.589819,1.032648,0.60891044,-0.098087505,-1.6174663999999999
11.00672,-4.979786,1.0922348,0.792554,-0.37170276,-1.7681233
12.322467999999999,-5.0717907,1.003477,0.96289814,-0.6873805000000001,-1.7851401999999998
13.712445,-5.0664086,1.1143763,1.0714926000000002,-1.0615965,-1.6733519000000001
14.467922,-5.3594203,1.3383683000000002,1.0336887,-1.3932440000000001,-1.4881201000000002
14.919870000000001,-6.728022999999999,1.5296745,0.89956015,-1.48161,-1.3885665
14.354494,-8.947199000000001,1.7012718999999998,0.80000657,-1.4001553999999998,-1.3816376
13.055726,-10.012694999999999,1.3805829,0.72228706,-1.18829,-1.4087949
11.892086,-8.745942,1.2675096000000001,0.6552140999999999,-0.93596774,-1.4396697
11.370858,-7.3505917,1.4213802,0.61103976,-0.7342251000000001,-1.5200421999999998
10.601811999999999,-7.398485000000001,1.7029668999999998,0.5104215,-0.5404412,-1.6068025
9.659597999999999,-8.371172999999999,1.6325486999999999,0.39011599999999996,-0.42334706,-1.649947
8.937402,-9.161192,1.4424683,0.29590312,-0.38927823,-1.6291776000000002
8.116449000000001,-9.454205,1.1517068000000001,0.22137757,-0.3536037,-1.5594168
7.4881625,-8.920844,0.92493755,0.11917108,-0.26364943,-1.4375229999999999
7.2780857,-7.826175999999999,1.3117161,-0.019757127,-0.09862856,-1.3012651000000002
7.0927169999999995,-6.797971700000001,1.8486685,-0.18636626,0.10950196,-1.1330328
6.649991,-6.174024,1.9908171000000001,-0.37802085,0.31817353,-0.9584476000000001
6.456932,-5.7979902999999995,1.9778692,-0.5637937,0.47413614,-0.763599
6.375587,-5.6683874,1.7711538,-0.72774994,0.55452603,-0.50436527
6.1251435,-5.8257723,1.3327372,-0.8587020000000001,0.5768837,-0.18603465
5.7291045,-6.1352663,1.2254002,-0.9795311,0.6365041,0.15198328
5.2933693,-6.453494,1.2369213,-1.0753496999999999,0.66257936,0.51874673
4.9315667,-6.688959,1.3229688,-1.133382,0.6652496999999999,0.95951223
4.5280294,-6.71542,1.2827559,-1.1275176000000002,0.59124774,1.470021
4.2842035,-6.7192793,1.2529911,-1.0439513,0.50555205,1.9847709999999998
4.0765405,-6.7637253,1.1291343,-0.75703657,0.33414328,2.3318298
4.008075700000001,-7.009677000000001,0.95752746,-0.3535339,0.033370696,2.5005856
3.9554415,-7.4824839999999995,0.8210004999999999,0.0845612,-0.29717723,2.469187
3.7001812000000007,-7.912377,0.7531966999999999,0.40182716,-0.54258794,2.2924376
3.6962068,-8.266259,0.84368795,0.48647562,-0.69483304,2.0236394
3.9116755,-8.654446,0.92840433,0.33634240000000004,-0.7214493000000001,1.7180672
4.18199,-9.413541,1.0075759,0.14365806,-0.6346715,1.438064
4.682196599999999,-10.357575,1.0694803,0.05103342599999999,-0.33444,1.2288688
5.121810400000001,-10.722269,1.154417,-0.061802108,0.17177531,1.0505311000000002
5.5916195,-9.788224000000001,1.4747516,-0.19648917,0.6657733,0.9179734
6.590308,-8.278977000000001,1.9889878,-0.27527332,0.914378,0.8141961
7.721817999999999,-7.3588085,1.8815648999999997,-0.24013986,0.90905476,0.73541194
9.265062,-6.9869794999999995,1.4409072,-0.13952161,0.7264584,0.70931923
10.573963000000001,-6.889517,0.43421245,-0.027209682000000002,0.52258646,0.7721161999999999
11.401361,-7.081215400000001,-0.5843001,0.0052359877,0.42038000000000003,0.86475825
11.68314,-7.1876235,-0.9848214,-0.08044223,0.39961058,0.92544335
11.359376,-6.997140400000001,-0.35479197,-0.15763813,0.349572,1.0020982
10.673016,-6.4810085,0.45695734,-0.17359045,0.28356364,1.0441607
9.750653999999999,-5.8122888,0.6164399,-0.181043,0.2553591,1.0281734
8.775267,-5.2182293,0.46719494,-0.22043508,0.21861994,0.9802642
8.038973,-4.823914,0.37650259999999997,-0.16828464,-0.0043982295,0.9584301
7.437511,-4.7192397,0.3987112,0.008970993,-0.4834911,0.89189816
6.7173448,-4.7398777,0.36495295,0.19315559,-1.0035818,0.66460395
6.2742543,-4.7515516,0.23393266,0.24212952,-1.3613044,0.22064452
6.1901608,-4.5454493,-0.13479355,0.22137757,-1.4203838,-0.35053194
6.245984,-4.3763323,-0.46903370000000005,0.30600858,-1.1776434,-0.7795861999999999
6.4175525,-4.2736597000000005,-0.26812187,0.453454,-0.7044149000000001,-0.96431184
6.786796000000001,-4.043931,0.015696386,0.44547784,-0.19816469,-1.2261986
7.4744779999999995,-4.145713300000001,0.04123773,0.44921285,0.21861994,-1.5615635
8.255177999999999,-4.7405862999999995,-0.037550658,0.6030462,0.3517013,-1.7968514
9.187175,-5.5869465,0.1856464,0.8495040999999999,0.17018706,-1.9283445
10.847706,-6.322407,0.47691542,1.0699043,-0.2774899,-1.9091808000000001
12.557492,-6.498074,0.7184329,1.1071496,-0.8949874,-1.7148732
14.256207,-6.9169350000000005,0.9098254000000001,1.0262361999999998,-1.4060198,-1.5360118999999999
15.708070999999999,-8.617364,1.6366379,0.8830493,-1.7381909,-1.4242235
15.636407,-10.025346,2.4628482000000003,0.80693555,-1.8308153999999999,-1.3427866000000002
14.05972,-9.592263,2.550246,0.774996,-1.795682,-1.2852953999999999
12.5381565,-7.771991000000001,2.0703142,0.7888189999999999,-1.6530188000000001,-1.2373861000000002
11.277341,-7.217867,1.9834142,0.7627438,-1.4022847,-1.2065113
10.047603,-7.6175265,1.7333541000000001,0.6184923000000001,-1.1286695,-1.2065113
9.032499000000001,-8.242488999999999,1.328849,0.393851,-0.8657007999999999,-1.215552
7.836940299999999,-8.944163,0.45979208,0.15482816,-0.65596455,-1.2182224
6.889525999999999,-9.066373,-0.19167021,-0.046896997999999995,-0.46699774,-1.2187459999999999
6.602365499999999,-8.639199000000001,-0.011042058,-0.1746551,-0.31262338,-1.2213988000000002
6.4363995,-8.002935,0.64810085,-0.31890655,-0.13800319,-1.186248
6.1700397,-7.2989726,1.4328626,-0.4535936,0.04775221,-1.0936408000000002
5.9187827,-6.6502595,1.9552392,-0.6095736999999999,0.26068237,-0.99836326
5.718541,-6.158586,2.181539,-0.79536396,0.4539078,-0.8812690999999999
5.600354,-5.784918,1.8696703999999997,-0.9662316999999999,0.6194696999999999,-0.6305351
5.616653400000001,-5.595364,1.2309836,-1.0609857,0.7120943000000001,-0.36065483
5.517993,-5.576747,0.8861994000000001,-1.035434,0.7520100000000001,-0.11098549
5.3995185,-5.683088,0.8853375,-0.99338907,0.7951371,0.12269664599999999
5.3264856,-5.8280325,1.1145105,-1.1152829,0.914378,0.43038073
5.356777,-6.168507,1.2899671999999998,-1.3149136000000001,1.0996273,0.90306824
5.1860228,-6.556281599999999,1.2160916000000002,-1.3218251,1.1736118,1.50779
5.1059895,-6.8514776,1.2574347,-0.96890205,1.0527826999999998,1.9507022
5.356682,-7.3695059999999994,1.0105255,-0.5323778,0.8238827,2.1524622000000004
5.214658,-8.05103,0.7771483,-0.19435987,0.5034228000000001,2.1764080000000003
4.5887080000000005,-8.158855,0.8627362,0.037716564,0.07382743,2.081113
4.5889664,-8.155025,1.1931934,0.17292722,-0.35892695,1.9166333999999998
5.060643,-8.542253,1.5577729999999999,0.146852,-0.56494564,1.7148907
5.7651033,-9.604033,1.1402721000000002,0.038781215,-0.4201531,1.4806501
5.990876999999999,-10.726167,0.46926352,-0.087371185,0.0041015237,1.2251338999999999
5.301079,-10.868344,0.47560340000000006,-0.31785935,0.55611426,0.9727941999999999
4.7120857,-9.431144,1.4617559,-0.50897294,0.96441656,0.81259036
5.6388144,-7.823657000000001,2.093241,-0.59147465,1.1682885,0.75244635
7.236963,-7.209372,1.5239956000000001,-0.52333695,1.1549891,0.7481703000000001
8.550374,-7.109476600000001,0.4079241,-0.410484,1.0038086,0.7859567
9.652052000000001,-7.202506,-0.54915327,-0.34234634,0.81375974,0.85517645
10.338948,-7.1429860000000005,-1.0096730999999999,-0.364704,0.63224554,0.96110046
10.441047,-6.6077476,-0.99304783,-0.39557886,0.45923102,1.0840763999999998
10.194808,-5.7961516,-0.32703835,-0.37535050000000003,0.34904840000000004,1.1820242
9.672575,-4.9790106,-0.09558610599999999,-0.33808774,0.22287855,1.201188
8.925536,-4.541015,-0.11421300000000001,-0.29656634,0.14250614,1.1841536
7.8575497,-4.5093737,0.0032082302000000004,-0.15603243,-0.01665044,1.184136
7.1138053,-4.634169,0.2891621,0.078173295,-0.30836478,1.137815
6.621854300000001,-4.7573647,0.50927544,0.23574162,-0.6261543,0.88976884
6.312169,-4.924739,0.43393469999999995,0.21603686,-0.71932,0.44420373
6.252793,-5.1799893,0.07714118,0.10159562,-0.4829675,-0.10513864
6.293158999999999,-5.413836,-0.10576625,-6.981316999999999e-05,-0.109275065,-0.6278822
6.707864,-5.5637417000000005,0.0499622,0.021205751000000002,0.16592845,-0.93769556
7.188561999999999,-5.397037999999999,0.33327287,0.17292722,0.32402040000000004,-0.89189816
7.842916499999999,-5.1977353,0.47788265,0.28045696,0.30592132,-1.0223266
8.535847,-5.443294,0.68552697,0.3879867,0.21277308,-1.401866
9.46042,-5.9135537000000005,0.9206280000000001,0.52319735,0.044017203,-1.6584468
10.644745,-5.9461627,1.0042335,0.6962118,-0.23755677,-1.7500067
12.140097,-5.606368,0.73664796,0.8681441999999999,-0.72303754,-1.6770694
13.192117999999999,-5.498016000000001,0.7175135,0.9634391999999999,-1.2713326999999999,-1.5014193999999998
13.720644,-5.805872,1.1575868999999999,0.9655684999999999,-1.6019156,-1.3725793
14.164136,-7.343926400000001,1.3837625,0.9187064,-1.5742346,-1.3486508
13.496842000000001,-9.370312,1.6672455000000002,0.86069167,-1.3251064,-1.3906958
11.932701,-9.106546,1.7669783,0.8085238,-0.9487435,-1.4439284
11.529442,-7.240315,1.5040088,0.74890333,-0.5942148,-1.5189774999999999
10.995706,-6.6990724,1.5976603999999999,0.6759835,-0.37863174,-1.5780743
10.069324,-7.74937,1.4292426999999999,0.60465187,-0.29984757,-1.6398241999999998
9.375886,-8.878226,1.2376586,0.524262,-0.3514744,-1.664311
8.571117,-9.66726,0.9972329,0.4092797,-0.39992476,-1.6536646000000002
8.013355,-9.608573,0.98324114,0.3209137,-0.38395497,-1.6174663999999999
7.877996,-8.826359,1.3959537,0.17451547,-0.29078930000000003,-1.5338826
7.700471,-7.705775999999999,1.8705898999999997,0.002042035,-0.11566297,-1.3859136
7.304269000000001,-6.784621700000001,2.1508455,-0.20607102,0.102573,-1.2070348
6.917069000000001,-6.1456285,2.1444482999999996,-0.5536708,0.469895,-1.0105979999999999
6.6035147,-5.865094999999999,1.7953928,-0.9832661,0.914378,-0.74710566
6.2869150000000005,-5.7543296999999995,1.3333979999999999,-1.3553703000000001,1.2545252,-0.39737657
5.940455,-5.820975,1.0411234,-1.4847167,1.3354386999999999,0.024731316
5.5378942,-5.9928684,0.7979586999999999,-1.3239545,1.0953686000000002,0.43249258
5.1756415,-6.2650127,0.85029596,-0.9800722,0.7413635000000001,0.8147196999999999
4.959426000000001,-6.466700599999999,1.0807427,-0.8049458,0.55611426,1.1585845
4.619726999999999,-6.717096000000001,0.9223231,-0.87893033,0.5433384,1.533359
4.213383,-6.824806,0.8523837,-0.9396154000000001,0.5417502,1.8985168000000001
4.1174808,-6.9585365999999995,0.65807986,-0.72136205,0.37034142,2.1082704
4.091412999999999,-7.511462700000001,0.26361117,-0.30562459999999997,0.0956615,2.139669
3.8111382000000007,-8.127127999999999,-0.01757344,-0.005375614,-0.13428563,2.0481265
3.6032832000000004,-8.652549,0.33902854,0.020682152,-0.30143583,1.8522133
3.42481,-8.561722999999999,1.1657943000000002,-0.09482374,-0.45900413,1.6627053
3.9552212,-8.718955000000001,1.9026338,-0.16454963,-0.5910208,1.5216478
5.0724516,-9.446515,1.9613779999999998,-0.105993845,-0.54311156,1.3800318
5.9938745,-10.198734,1.008342,-0.1129228,-0.23542747,1.2001058
6.194537,-9.923535000000001,0.40384436,-0.19755381,0.22287855,0.9967575000000001
6.3968472,-8.705278999999999,0.79681903,-0.29497808,0.5976355999999999,0.8865748999999999
7.2782106,-7.441437700000001,1.6017496999999998,-0.33382913,0.74988073,0.8642171999999999
8.512393,-7.019685000000001,1.5290713,-0.34234634,0.72965235,0.86847585
9.444272999999999,-6.960719999999999,0.48651135,-0.34927529999999996,0.5928534000000001,0.9174498
10.271278,-7.1582317,-0.43075519999999995,-0.37747982,0.42409757,1.0004925999999998
10.512345,-7.434599400000001,-0.6616233,-0.39664352,0.27239352,1.0707594999999999
10.251061,-7.172866,0.03970544,-0.4211305,0.16060519,1.098964
9.679394,-6.2707205,0.9309518,-0.43870595,0.14037684,1.1048284
8.965203,-5.231254,1.1083333,-0.48288023,0.21277308,1.0649127
8.168385,-4.665418,1.0464673,-0.44135886,0.19306833,1.0074215
7.2808247,-4.64297,0.8015021,-0.22151719,-0.029967302,0.9382017
6.697626,-4.66061,0.60672903,0.07443829,-0.35679767,0.7614871
6.280633,-4.700431,0.38891414,0.2580993,-0.5542991,0.41599923
6.040887000000001,-4.8541099999999995,0.21142717,0.27035149999999997,-0.46539205,-0.030595621
6.1042566,-5.040216,0.1925034,0.18303268,-0.17154841,-0.5022534000000001
6.4325779999999995,-5.0005107,0.28349265,0.1500285,0.0999201,-0.820584
6.914617,-5.001774299999999,0.4957434,0.25597,0.27078784,-0.8445299000000001
7.3693814,-4.7971087,0.7330758,0.30281463,0.46296602,-0.88498664
7.95033,-4.912883,0.9922816999999999,0.3533768,0.6327691,-1.1240094999999999
8.808048,-5.4813237,1.4080396000000002,0.5998522,0.6258576,-1.350239
9.853155000000001,-6.0649915,1.8534473000000002,0.91446525,0.33573154,-1.4849086999999999
11.283451,-6.0108440000000005,2.0147686,1.2093561000000002,-0.18805923,-1.5658221
12.585944999999999,-6.0559897000000005,2.1371124,1.3403256000000001,-0.80075705,-1.5583696000000002
13.526817999999999,-6.643641499999999,2.0216448000000002,1.1715697,-1.1845725,-1.4987665000000001
14.157576,-8.408914999999999,2.0376093,0.80053014,-1.2910374,-1.4833205
14.095469,-10.298525,2.2198367,0.4593183,-1.2181002,-1.4897083
13.0869465,-10.524461,2.33812,0.32410765,-1.1063118,-1.4614863
11.994213,-8.643239999999999,2.0026062,0.35924113,-1.0099697,-1.4125124
11.056633999999999,-7.0292710000000005,2.176291,0.45451865,-0.9269269,-1.359821
9.870125,-6.6484494000000005,2.190618,0.4742234,-0.80714494,-1.3326811
9.124514,-7.004907000000001,1.6609535,0.3874631,-0.70174456,-1.3012476999999998
8.6171055,-7.600517699999999,0.8980363000000001,0.2926917,-0.6548999,-1.2730606000000002
8.137068,-8.172474000000001,0.0035146879999999998,0.24638812,-0.67460465,-1.236845
7.831022,-8.228058,-0.68121743,0.23787092,-0.68577474,-1.1617959
7.581881500000001,-7.732113000000001,-0.48133987,0.19634955,-0.62243676,-1.0494839
7.084223,-7.215061,0.42453986,0.108524576,-0.44251078,-0.91532046
6.5804443,-6.817537299999999,1.5314176000000002,-0.017086774,-0.21306979999999998,-0.8062024999999999
6.073075,-6.4576883,2.1506827,-0.1714786,-0.013456488,-0.69654346
5.769978,-6.1510677000000005,2.2559125,-0.35725144,0.13451253,-0.49104840000000005
5.568616400000001,-5.997801,1.8182620999999999,-0.5531472,0.2340661,-0.20415117
5.369265599999999,-6.0114098,1.4812448,-0.62182593,0.22980749999999997,-0.02316052
5.2050805,-6.083982499999999,1.4743686000000003,-0.58402205,0.12440707,0.09447467
4.9347177,-6.188571,1.7526226999999999,-0.6851639,0.08447394,0.19083429999999998
4.606779,-6.253013,1.9672389,-0.90128803,0.28143433,0.4303633
4.4329505,-6.3419147,1.9435267,-1.0024298,0.53056264,0.80407315
4.478402,-6.4970016,1.8456422,-0.7655363000000001,0.73977524,1.2735842
4.6812005,-6.8643775,1.6374904,-0.2891138,0.75307465,1.5988438
4.9382133,-7.5958442999999995,1.2369978000000001,0.2075371,0.6072175,1.7015738
4.758821,-8.121975,0.8549120000000001,0.47635272,0.43155012,1.6158607
4.820792,-8.258645,0.94955957,0.5072276,0.2872812,1.4689214
5.561846,-8.372782,1.3557024,0.33581880000000003,0.17922786,1.398672
6.5186357,-9.100513000000001,1.2445061000000002,0.10000736,0.10737266,1.4050773
7.3142380000000005,-10.369384,0.70629907,-0.0490263,0.07063347,1.3981483000000001
6.904514,-10.794363,0.9416587,-0.09428269,0.13557717,1.3608856000000003
5.807318,-10.034108999999999,1.9208009999999998,-0.19381881,0.31869712,1.3278815000000002
5.6191535,-8.719711,3.0525978,-0.37376225,0.5694311,1.3273403999999998
6.439962,-7.468673700000001,2.9606027999999998,-0.49298569999999997,0.76691514,1.3465041000000002
7.7174119999999995,-6.9677496,2.062959,-0.45786968,0.7663915,1.3864372
8.677545,-6.809559299999999,0.68093014,-0.2789909,0.6242519,1.4481870000000001
9.012483999999999,-7.0293092999999995,-0.5499576999999999,-0.13899802,0.45551348,1.4854497
8.723676,-7.224589999999999,-1.2231401000000002,-0.07937758,0.31124458,1.4668096000000002
8.066746,-6.738883,-1.0973680000000001,-0.076183625,0.24736552,1.4481870000000001
7.582464999999999,-5.951918599999999,-0.35058773,-0.08309512599999999,0.24364796,1.3821785
7.150571,-5.1922383000000005,0.22041020000000003,-0.07457792,0.4139920999999999,1.2347157
6.728683500000001,-4.7378089999999995,0.19198625,-0.06979571,0.5603729000000001,0.99464566
6.441896400000001,-4.5781255,0.31334352,0.06965609,0.47574183,0.8014028
6.424735,-4.704347599999999,0.6849811,0.31398472,0.16645205,0.6246708000000001
6.5332403,-4.9729967,1.1023575,0.47157052,-0.09649926,0.340409
6.921675,-5.281312000000001,1.260394,0.36349973,-0.17954202,-0.11576769
7.5078526,-5.323316,0.9101030999999999,0.079237945,-0.07307693,-0.6922848
8.0829115,-5.2853246,0.6487520999999999,-0.25291565,0.1648638,-1.0744945
8.530453999999999,-5.09534,0.5709213000000001,-0.47916270000000005,0.32988468,-1.1085633
9.193629,-4.84959,0.75780314,-0.44774675,0.28516933,-1.1277270000000001
10.035881,-4.6477203000000005,0.89279777,-0.21884683,0.04775221,-1.307112
10.724702,-4.8967843,0.7362649,0.11171853,-0.2860071,-1.5418762
11.248036,-5.5220923,0.75946,0.39491564,-0.57346284,-1.6568585999999998
12.134341000000001,-6.16144,0.5835435999999999,0.5285206,-0.8204618,-1.624378
13.112295999999999,-6.380653,0.16853264,0.54716074,-1.1600854,-1.4854497
13.922177,-6.724795299999999,-0.23472753,0.49871036,-1.4198601999999998,-1.3092413
14.511084,-8.276535,-0.25169763,0.37201694,-1.4379419,-1.235763
13.774752,-10.193889,-0.116262436,0.22989477,-1.2441928,-1.2937951
11.963855,-10.193122,0.71398926,0.0819083,-0.91095716,-1.4002602
10.716063499999999,-8.656763,1.7462828000000001,0.017488198,-0.5553638000000001,-1.4710857
9.976600999999999,-7.4711924,2.4633656000000004,0.04251622,-0.29185396,-1.5237771
9.157411,-7.415858,2.657181,0.09946632,-0.1481261,-1.5525053
8.321173,-8.026867999999999,2.2420932999999996,0.097337015,-0.08637635,-1.5988263
7.605345,-8.617173,1.6454103,0.048363075,-0.046984263,-1.6595113999999997
7.169676299999999,-8.863603,1.3896329,0.010035643,-0.009721484,-1.7233904999999998
7.131953200000001,-8.65955,1.5356027,-0.03572689,0.07649778,-1.7393602
7.447586,-7.870248299999999,1.8361900000000002,-0.090024084,0.19519763,-1.6776105
7.445517,-7.04695,2.136375,-0.12941617,0.33520794,-1.5588932
7.0651073,-6.523807,2.4836970000000003,-0.15177383,0.45551348,-1.4087949
6.6666546,-6.3033295,2.678585,-0.23853415,0.5646489,-1.1883947
6.344663,-6.2540474,2.7760863,-0.34074062,0.57475436,-0.84611815
6.1698002999999995,-6.241137999999999,2.4663055,-0.43497095,0.5135282,-0.43090433
6.0633063,-6.201902,2.1131895,-0.5600586999999999,0.46616,-0.009843656999999999
5.877018,-6.22411,1.9371965,-0.6676059,0.46561894,0.34520867
5.66222,-6.288054499999999,2.0874183,-0.7378554,0.51939255,0.63851124
5.2461557,-6.561281,2.057395,-0.819851,0.68387234,1.0255206000000001
4.75114,-6.733079400000001,2.036939,-0.8469908000000002,0.80524254,1.5956498
4.429216,-6.9559603,1.9748142,-0.6910108,0.7136826000000001,2.136475
4.1529346,-7.3222059999999995,1.7959386000000002,-0.30934215,0.39163443,2.4585407000000004
3.7277818,-7.909389,1.2286373,0.12395328,0.014748032,2.4239306000000003
3.1799692999999998,-8.222742,0.8857684000000001,0.43004912,-0.23116885,2.0417384999999997
2.970965,-8.283928999999999,0.7667574,0.4002389,-0.26577875,1.6467531000000002
3.3155384,-8.430635,0.8430463,0.090425506,-0.09276425,1.3912368999999998
4.331608999999999,-9.114514999999999,1.1254472,-0.28113765,0.14463544,1.3065883999999999
5.40515,-10.047957,1.2980596000000002,-0.5919982,0.43474406,1.233651
5.614393700000001,-10.324651,1.3396516,-0.7405257,0.70144784,1.1639426000000002
5.246117,-9.457663,1.6645831000000002,-0.7607541,0.8664687,1.1394382
5.794677,-8.152286,2.2139566000000004,-0.6005154,0.8441110000000001,1.1410438999999999
7.335623700000001,-6.8757353000000005,2.5379593,-0.35140458,0.65779716,1.1218628000000002
9.4774475,-6.1343565,2.0802548,-0.21085322,0.47787115,1.1165395
10.877213000000001,-5.8146825,1.1171153999999999,-0.3024132,0.64076275,1.1383735000000001
11.174994,-6.243675700000001,-0.09663956,-0.090024084,0.17816322,1.0744771
10.597377999999999,-6.838883999999999,-0.74785286,0.14418165,-0.08159414,1.1569962999999999
9.857005000000001,-6.840119400000001,-0.54083097,0.15748106,-0.13641493,1.1569962999999999
9.296963,-6.2550054,0.20426372,-0.021345377000000002,0.048275806,1.0904642
8.632074000000001,-5.632034,0.8847437,-0.19168949999999998,0.18509217,0.98612845
7.89035,-5.2421045,1.4229506,-0.18317229999999998,0.11695451,0.85463536
7.613801,-4.8777647,1.7939273999999998,-0.10545279,-0.111927964,0.6821794
7.533336599999999,-4.638449700000001,1.6043353999999999,-0.07246607,-0.38021997,0.46017352
7.529716499999999,-4.5374235999999994,1.0852916000000001,-0.15390313,-0.5484348000000001,0.1328021
8.107006,-4.497757,0.20424455,-0.32424727,-0.5947558000000001,-0.26748917
7.5538115999999995,-4.5709524,1.554603,-0.4237834,-0.6043377,-0.6747094
7.860777000000001,-4.7755513,1.0076525,-0.35618679999999997,-0.5649281999999999,-0.9062621999999999
8.297564999999999,-4.294901,0.525489,-0.14751522,-0.44038147,-0.8961566999999999
8.711285,-4.0420732,0.124306954,0.048363075,-0.28068385,-1.0074215
9.31152,-4.193310299999999,0.3519572,0.32464868,-0.11831587,-1.2352393
10.023642,-4.589646299999999,0.6775783000000001,0.7877718,-0.09489355,-1.4875616000000003
10.794478,-5.1615252,0.7050541,1.1646582,-0.27056095,-1.6265073
11.679309,-5.4102254,0.7514824999999999,1.3813058999999999,-0.5835683,-1.6749575
12.515353999999999,-5.8509884,0.92376924,1.3227501,-0.97164226,-1.5839212
13.40843,-6.9513063,1.368267,1.040094,-1.297949,-1.4396697
14.29914,-9.030795,2.1070697,0.69514716,-1.3911147,-1.3662088
14.157565,-10.730678,2.9627671,0.4438896,-1.2564276,-1.3960016000000002
12.891416,-10.116709,3.5739112,0.29429743,-0.98654735,-1.4183767
11.5175085,-8.149058,3.7223036,0.20008455,-0.6213721,-1.4348701000000001
10.405046,-6.9089384,4.0876207,0.1537635,-0.31208232,-1.4279411
9.394694,-6.8237524,3.8737128,0.121300384,-0.10554006,-1.441258
8.711983,-7.462037,2.5909857999999995,0.07391469,-0.026755897,-1.4721328000000002
8.100226,-8.096491,1.5438865,0.033999015,-0.01452114,-1.4950141000000001
7.451177,-8.491831,0.37860948,0.005253441,-0.015044739,-1.4923612
7.116276299999999,-8.302775,0.04699339,-0.02295108,0.04988151,-1.468939
7.109112700000001,-7.6017437,0.77569264,-0.021886429,0.15847589,-1.3976073
6.9176720000000005,-6.881664,1.5947969,-0.0016580628,0.32189107,-1.2895365
6.534418,-6.5053525,2.235993,0.0009948377,0.44432592,-1.1154747999999999
6.209678,-6.2232485,2.4538078,-0.052761300000000004,0.5145929,-0.86634654
5.9452243,-6.1234775,2.479464,-0.1767844,0.47467719999999997,-0.48574257
5.881433,-6.049678299999999,2.2363281,-0.33541736,0.3926991,-0.07105235
5.8249393,-6.158385,2.0001066,-0.47436303,0.36608282,0.29356438
5.6479983,-6.408243700000001,2.0353491000000004,-0.61489695,0.3405312,0.6315997
5.4051113,-6.5514746,2.1342487,-0.7282735,0.30485666,0.98986346
5.1253443,-6.699167999999999,2.2342212000000004,-0.88744754,0.28569293,1.3880253999999999
4.7537165,-6.684975,2.374148,-1.0700439,0.28569293,1.8133621
4.4494896,-6.942974,2.2930610000000002,-1.1259294,0.21331415,2.1530032
4.1547160000000005,-7.302133,1.8460444,-0.98220146,0.04988151,2.3031189999999997
3.7837867999999997,-7.796507400000001,1.1212621,-0.6580066,-0.17900097,2.278091
3.2652793,-8.1400175,0.5349125,-0.37002724,-0.34773940000000003,2.1663027
3.4144957000000002,-8.143685000000001,0.35272336,-0.26569146,-0.41641809999999996,1.9379263
3.8454040999999997,-8.326611999999999,0.28893226,-0.39929643,-0.33498105,1.6872096999999997
4.3510017,-8.86299,0.22469103,-0.56538194,-0.17048377,1.487579
4.992561299999999,-9.617154,0.048851293,-0.5733756,0.07543313,1.3683381000000001
5.52259,-10.085794,-0.24295402,-0.5350481,0.42516220000000005,1.2341921
5.6758094,-9.498612,-0.087407514,-0.54782397,0.783967,1.0989989
6.243254,-8.427964,0.5668033,-0.55686474,1.1150733999999998,0.98986346
7.412342999999999,-7.4915724,1.2806681,-0.5126904999999999,1.401988,0.93184876
8.690607,-7.271028,1.5633562,-0.5723109000000001,1.6564397000000002,0.8440063
9.688855,-7.273670699999999,1.1294790000000001,-0.82569784,1.7597108,0.7769333
10.562299000000001,-7.4034843,0.34632605,-1.099313,1.6079893,0.7731983
10.735342,-7.481909299999999,-0.036985625,-1.172233,1.2119566000000002,0.8376184000000001
10.144692,-7.2372502999999995,0.72826827,-1.0583153,0.7089004,0.93289596
9.524403,-6.561051400000001,1.5455914,-0.8618959,0.23993040000000002,1.0132858
8.982221000000001,-5.735903700000001,1.7132428,-0.59466857,-0.217852,1.0361844999999998
8.528463,-5.1258610000000004,1.5006186000000001,-0.28112018,-0.6431887,1.0457664
8.056210499999999,-4.821788300000001,1.2883008,0.048363075,-1.0674434,1.0638653999999999
7.9996405,-4.6151686,0.8736633,0.3140022,-1.4640346000000002,0.96431184
8.1438675,-4.4944334,-0.19763656,0.55035466,-1.7291325000000002,0.61512387
7.6926559999999995,-4.6153793,-1.1212716999999999,0.80000657,-1.6865466,0.07106981
7.219811,-4.840433999999999,-1.0394187,0.9618334999999999,-1.3336061000000001,-0.58739054
7.1042952999999995,-4.9331190000000005,-0.257664,1.0949323,-0.8859290999999999,-1.0105805
7.119886999999999,-4.825983,0.53344727,1.2375956,-0.46804494,-1.091494
7.360657000000001,-4.5982943,1.2170876,1.3861055,-0.2327571,-1.1479378999999998
8.1196,-4.7768440000000005,1.8212022,1.4334912,-0.13161528,-1.423665
9.170645,-5.498409,2.3100886000000003,1.4680837,-0.150779,-1.7595710999999998
10.345777,-5.8975415,2.6560986,1.5010879,-0.27640778,-1.9980529999999999
11.929129,-5.8907995,2.7521157000000005,1.4718187,-0.5228832,-2.073102
13.451103,-5.909608,3.4648980000000003,1.3680065000000001,-0.8476017,-1.9927297
14.512234,-6.6605253,4.1777096,1.2301255,-1.1259992,-1.8495255000000002
15.068377499999999,-8.485606,4.4243894,1.0736219,-1.2920847,-1.7100736
14.277171,-10.513867999999999,4.331293,0.9410815,-1.2707916000000001,-1.5823154
12.666486,-10.675755,4.100626,0.82875216,-1.0940596000000002,-1.4651865
11.3522415,-8.9454565,3.4083855000000005,0.76754344,-0.8657007999999999,-1.3800318
10.658526,-7.6522613,2.6461387000000003,0.7435975,-0.6740636,-1.3459456
9.882977499999999,-7.522122,2.229318,0.6797185,-0.57292175,-1.3321049999999999
9.022655,-8.211422,1.6723403000000001,0.54183745,-0.57824504,-1.3193293
8.1269455,-8.923295,1.1426951,0.42633158,-0.61550784,-1.3060124
7.3057914,-9.349597,0.7617392,0.29431486,-0.58889157,-1.274614
6.690194,-9.124771,0.901551,0.11491248,-0.46539205,-1.2432154
6.177682,-8.376039,1.2718766000000001,-0.07777187,-0.26417303,-1.2000883999999998
5.801888,-7.668292999999999,1.7252425,-0.2369459,-0.038467057,-1.1511319
5.5049686,-6.9879375,1.9693171999999999,-0.38278562,0.18722147,-1.0819121999999999
5.401922,-6.4452386,2.1258404,-0.4998972,0.37353536,-0.9339082000000001
5.375739,-6.0794625,1.9740959999999999,-0.62606704,0.4831944,-0.6714979999999999
5.2423825,-5.9754677,1.4177889,-0.72614425,0.4980995,-0.39999455
5.165289,-6.042285,1.0983161,-0.7516959,0.46935394,-0.06517059
5.092964599999999,-6.2358804,1.224299,-0.70910984,0.43369687,0.3175452
4.9788284,-6.3568068,1.2444198,-0.69153434,0.39749873,0.7439465999999999
4.9046564,-6.3508214999999995,1.3503298000000001,-0.7719242,0.4092099,1.2310157
4.677360500000001,-6.377502,1.4868854999999999,-0.83899724,0.44912559999999996,1.709585
4.668636,-6.6056886,1.5938487,-0.7607541,0.45551348,2.0609198
4.5774550000000005,-7.152839999999999,1.581284,-0.60955626,0.37779397,2.25788
4.1713605000000005,-7.694380000000001,1.5119383,-0.44772932,0.24951227,2.2743735000000003
3.8379245,-8.023947,1.3758136,-0.34074062,0.058398715999999996,2.1780312000000004
3.8223046999999997,-8.360121000000001,1.3941915,-0.30773646,-0.19336502,2.066243
3.9992362999999997,-8.945446,1.5975933999999998,-0.36629224,-0.415336,1.9699006999999997
4.37254,-9.6479435,1.5894722,-0.42165410000000003,-0.5420469,1.8591771000000001
4.9136489999999995,-10.351887,1.0349654000000001,-0.41153118,-0.45313984,1.7202313999999999
5.154160500000001,-10.39707,0.58453,-0.47808059999999997,-0.10341076,1.5307236000000002
5.421689,-9.319985,0.7291972,-0.5749638000000001,0.41613886,1.3279163
6.0270295,-7.986597,1.0823611000000002,-0.69685763,0.8659450999999999,1.1501021
7.169225999999999,-7.302775,0.9806171,-0.7586073,1.0623645,1.0058506999999999
8.454931,-7.2062407,0.55278283,-0.73892003,1.0416125,0.96061176
9.459175,-7.5681577,0.011501745,-0.6457544,0.8169712,0.9914866
10.0752125,-8.015184,-0.40003282,-0.53503066,0.5598666999999999,1.0559068
10.325809,-8.134597,-0.46834415,-0.43814746,0.30061552,1.1128569
10.32283,-7.625705,0.21643583,-0.32902947,0.11749557,1.1437143
10.113434,-6.758439,0.9410936,-0.24544565,0.07436848,1.1389321000000001
9.724979,-5.8871794,1.0929052,-0.1879545,0.081297435,1.1069924999999998
9.267093,-5.270222,1.2240883,-0.09054768,0.038711403,1.0314023
8.645845,-4.955854,0.9454703000000001,0.06382669,-0.08051204,0.93666583
7.966821,-4.987610299999999,0.8851843,0.19743164,-0.3040887,0.73914695
7.288496,-5.1872582000000005,0.81758153,0.2660929,-0.49253193,0.41976914
6.9128838,-5.325107,0.8778676,0.30283207,-0.67725754,0.0040317103000000005
6.819960000000001,-5.3186903,0.8664136999999998,0.37575194,-0.7203672,-0.42181116
6.979261,-5.176896,0.93718636,0.43856633,-0.5665164,-0.73694783
7.343103,-4.9365277,1.1357518,0.42154938,-0.21252874,-0.97914714
7.807462700000001,-4.8040996,1.1813565000000001,0.41036183,0.097267196,-1.3145296999999998
8.41695,-4.872842299999999,1.171071,0.56525975,0.22396065,-1.6445714
9.22643,-5.234472,1.2641194,0.7766017,0.07436848,-1.850049
10.083641,-5.596571,1.2857343,0.9735620999999999,-0.29663616,-1.9357621999999999
11.260313,-5.8411145,1.1365371000000002,1.0518053,-0.8097979000000001,-1.853243
12.604877,-6.328689,1.2500414,0.9916611999999999,-1.2878261,-1.6834398999999998
13.903751999999999,-7.4961305,1.4529261999999998,0.89264864,-1.5028856000000002,-1.5700458000000002
14.741771,-8.866064,1.8950776000000003,0.753703,-1.4267718,-1.5652636
14.281528,-9.286342,2.1572044,0.64139104,-1.1723202,-1.5785631000000002
12.992289,-8.2049675,2.0623271,0.57644737,-0.8337611999999999,-1.5593993999999998
11.781407000000002,-7.188954400000001,2.2101355,0.5673891,-0.5963440999999999,-1.5338477
10.604503999999999,-7.319256299999999,2.2943826,0.5695184,-0.52927107,-1.5280008
9.573426,-8.039825,1.7301650000000002,0.50351006,-0.55960494,-1.5418413
8.748031,-8.794219,1.267184,0.38268090000000005,-0.63200116,-1.5466235000000002
7.9047350000000005,-9.429917999999999,0.6538565,0.26237535,-0.63041294,-1.5295889999999999
7.37326,-9.248550999999999,0.5885235,0.14578736,-0.48774973,-1.4838265
7.252161500000001,-8.423577,1.1601919,0.0073827426000000005,-0.18113028,-1.4209948000000001
6.945091000000001,-7.446542,1.6136632,-0.27792624,0.21703169,-1.3991781
6.5691440000000005,-6.8858967,2.1252657999999998,-0.71389204,0.64610344,-1.383732
6.1448913,-6.6072690000000005,2.202043,-1.056186,0.97825706,-1.2831311
5.8932223,-6.430615400000001,2.0962863,-1.29945,1.2082217,-1.0073866
5.850787,-6.4017506,1.5857277,-1.4421131999999999,1.203963,-0.68160343
5.759233,-6.4762487,1.1137731000000002,-1.4229493999999998,1.0070200999999999,-0.35580283
5.5194297,-6.535404,1.1111202,-1.3223486999999998,0.7493571,-0.0694292
5.2975163,-6.689495,1.3848541,-1.1216533000000002,0.45498988,0.2797588
5.208394,-6.826913,1.580719,-0.9593028,0.22874285,0.7455523000000001
5.1912804,-6.719815299999999,1.3978595,-0.89275336,0.18509217,1.24435
5.1646667,-6.7151995,0.6962338,-0.6835581999999999,0.22129029,1.7324836
4.9606233,-7.218441499999999,0.33327287,-0.28909633,0.19999728,2.053467
4.4345307,-8.028017,0.45102929999999997,0.12397074,0.05787512,2.1679258
3.7973190000000003,-8.381143,0.48859912,0.2613107,-0.05656612,2.0603962
3.5649949999999997,-8.328575,0.8551226999999999,-0.054349552999999995,0.0051661744,1.8293668
3.8992447999999995,-8.648402,1.3431089,-0.5360953,0.15156439,1.5781093000000002
4.451366999999999,-9.32193,1.6402866999999999,-0.8347386,0.23726006,1.3497329
4.984881400000001,-10.21263,1.8368124,-1.0151881999999999,0.36608282,1.1458435
5.156832700000001,-10.759753,1.5300481000000001,-1.0977073999999998,0.5433559,1.0074564000000001
5.003125,-10.022253,1.6242839,-1.0375459,0.7025125,0.97925186
5.3191885999999995,-8.599283,2.3239462000000004,-0.809187,0.7600036,1.0149089
6.2865605,-7.2124369999999995,2.2561138,-0.51694906,0.6668554,1.0840938
7.689361999999999,-6.4819565,1.4085471999999999,-0.32264155,0.48851764,1.1479903
9.143360000000001,-6.3281717,-0.41904277,-0.24118705,0.29635692,1.2177162
10.254672,-6.5447803,-2.1217797000000003,-0.24651030000000002,0.15102334,1.2890478
10.659216,-6.831069500000001,-2.176559,-0.25715682,0.043493606,1.3225756000000002
10.369900999999999,-6.6069145,-1.2230731000000001,-0.3066718,-0.013439035,1.3177934
9.521769,-6.1277870000000005,-0.35958034,-0.38545597,-0.0038571777,1.283201
8.412937,-5.658274700000001,0.43902954,-0.41633084,0.033911746,1.2267569999999999
7.6220274,-5.5859213,1.2167428999999998,-0.3237062,0.011030481000000002,1.2230395
7.234731699999999,-5.5373573,1.6876919,-0.12781046,-0.17367771,1.229951
7.0407534,-5.444060299999999,1.35802,0.06806784,-0.5069134,1.0947403
7.009427499999999,-5.42167,0.73406225,0.19369663,-0.8050156999999999,0.74553484
7.020728599999999,-5.376735,0.21391714,0.24905849,-0.980142,0.21108012
7.1828637,-5.2770790000000005,0.06891470400000001,0.31932545,-0.95939004,-0.2850297
7.45994,-5.014616999999999,0.08468769999999999,0.40608576,-0.68097514,-0.6363645
7.6703806,-4.833950499999999,0.10995132,0.45560074,-0.28120744,-0.9222319999999999
8.013815,-4.7345147,0.31764352,0.54822534,0.091402896,-1.2943187
8.624202,-5.165854,0.7363415,0.6962118,0.18030997,-1.567393
9.351503,-5.831174,1.0734355,0.8883726000000001,0.023265239,-1.7324313000000002
10.429774,-6.1096296,1.0948684,0.9607863000000001,-0.38500217,-1.6754637
11.817597,-5.8620589999999995,1.1314231000000001,0.8399397,-0.8859290999999999,-1.4966024
13.394285,-5.946488400000001,1.3138421999999998,0.6456497,-1.2654684999999999,-1.4140832
14.976095999999998,-7.2099466,1.6316963,0.49340457,-1.4028083999999998,-1.4438933999999999
15.775175,-8.655671,2.2494195,0.3565882,-1.2452401000000002,-1.4774386999999998
14.672185999999998,-8.761935000000001,2.6164315,0.31454325,-0.97907734,-1.5136368
12.834271000000001,-7.274466,2.6444151000000002,0.41140902,-0.7108028000000001,-1.5322768999999998
11.345939999999999,-6.5318418,2.5659330000000002,0.49979250000000003,-0.49253193,-1.5658047
10.275243,-7.030094,2.025399,0.48434633,-0.3466922,-1.6068025
9.237404,-7.844056,1.4601950000000001,0.39118063,-0.26043802,-1.6605585999999999
8.117627,-8.665794,0.43284294,0.35232959999999997,-0.23755677,-1.6845044999999998
7.6987179999999995,-8.907771,-0.1114453,0.35498253,-0.25937337,-1.6610996999999998
7.932842699999999,-8.517583,0.46603617,0.36297613,-0.24288002,-1.6195608
7.791776,-7.8476667,1.348606,0.32623693,-0.154514,-1.557305
7.4116154000000005,-7.3097086,2.109493,0.26342255,0.0009075712300000001,-1.476915
6.9231696,-6.842264699999999,2.7957091,0.17079791,0.1712517,-1.3779025
6.642291,-6.678203999999999,3.0592728,0.023352506000000002,0.31337386,-1.1990412
6.5135217,-6.525875599999999,2.6377685,-0.17306685,0.41240385,-0.9296844999999999
6.320932,-6.4866877,1.9561776999999998,-0.33808774,0.46136034,-0.6289294
6.113229799999999,-6.516634,1.7001323,-0.42645374,0.5135457,-0.27331856
5.726691000000001,-6.666367,1.9077573,-0.49033279999999996,0.54494417,0.086481065
5.334042,-6.740626,1.9646341,-0.6244788,0.5518731,0.45115015
5.051191,-6.729717699999999,2.0455389999999998,-0.74478436,0.5284333000000001,0.80407315
4.839266,-6.7975216,1.8809613999999997,-0.7777885,0.5289744000000001,1.2304571000000002
4.815419,-7.045311999999999,1.7015209,-0.7112391,0.5289744000000001,1.5908501
4.6905956,-7.5756564,1.3654131999999999,-0.56751126,0.45870742,1.7888752
4.374963,-8.143752000000001,0.7867059000000001,-0.42219514,0.32882002,1.8421078000000002
4.0271907,-8.47556,0.48330313,-0.2539803,0.12173671,1.8469074
3.94869,-8.683214,0.6131741999999999,-0.13580407,-0.10021680599999999,1.8202736000000002
4.0319313999999995,-8.800108,0.80087006,-0.11290534599999999,-0.23116885,1.7883341
4.359343,-9.109076,0.5642941999999999,-0.17146115,-0.26949629999999997,1.7548063999999999
4.7924256,-9.58057,0.14359464,-0.25130996,-0.21361084,1.6595113999999997
5.1656337,-9.868008999999999,0.18282124,-0.3061482,-0.037943456,1.5083485
5.171064,-9.001825,0.46897623,-0.3439346,0.22980749999999997,1.3832432
5.7878485,-7.6794114,0.6810163,-0.40835467,0.5007524,1.3113706
6.681585000000001,-6.944420299999999,0.51625687,-0.49832642,0.64022166,1.2544030000000002
7.6749773,-6.911542999999999,0.3104322,-0.5547529,0.5955063,1.2671788999999998
8.442578,-7.195150999999999,-0.026221296,-0.5531472,0.40493384,1.3369222
9.127865,-7.561607400000001,-0.40688979999999997,-0.47703338,0.120148465,1.458816
9.41672,-7.609501,-0.62344056,-0.39770818,-0.094369955,1.5839212
9.284369,-7.033427199999999,-0.5908315,-0.3497989,-0.20029399,1.6792161
9.020317,-6.1078672,-0.14445657,-0.27314404,-0.24022712,1.7020973999999998
8.624939999999999,-5.370903500000001,0.32858983,-0.18584266,-0.31688198,1.6403477
8.087183,-5.0158815,0.5762556,0.036110863,-0.5170363,1.5083135
7.6913443,-4.8955965,0.30110437,0.3485946,-0.83163196,1.2836896
7.226859599999999,-4.9158516,0.07367438,0.6301859999999999,-1.0972711000000002,0.8583529000000001
6.793356,-5.103968599999999,0.08903558,0.79946554,-1.1339928,0.24884905
6.5589542000000005,-5.4696492999999995,0.22586899,0.7808254,-0.87156504,-0.39420006
6.7311735,-5.8478184,0.46653414,0.5790828,-0.38128462,-0.9355663000000001
7.2480245,-5.9623857000000005,0.5421047,0.3533768,0.1004437,-1.1671191
7.879174000000001,-5.74528,0.78955024,0.22722441,0.3767293,-1.3071294
8.733225,-5.3011456,1.0874943000000001,0.2628815,0.47040114,-1.5823504
9.804036,-5.2406487,1.2982989999999999,0.45877725,0.34904840000000004,-1.8639418
10.9572935,-5.2865696,1.7381712,0.7260045999999999,0.08182103,-2.0454562
12.308256,-5.123793,2.0281954,0.9144478000000001,-0.25087363,-2.0795424
13.746576999999998,-5.0331388,2.041555,0.98525584,-0.70547956,-1.9874238999999998
14.756651999999999,-5.3357660000000005,1.9719602999999999,0.90699524,-1.1339928,-1.8128386000000003
15.105134,-6.505783,1.6375285,0.7409097,-1.3613044,-1.6802983
14.603271,-8.510515,1.2419778000000001,0.6392443,-1.3916556999999998,-1.6004493999999998
13.45346,-9.484161,1.2125865,0.6248628,-1.2681562,-1.5248593000000001
12.292186000000001,-8.636183,1.4797508,0.6722484999999999,-1.0429739,-1.4689738
11.320293,-7.692761999999999,2.011005,0.74729764,-0.79119265,-1.4545923
10.302451,-7.868026700000001,2.1798822999999996,0.7291986,-0.6245661,-1.4668446000000002
9.494484,-8.678962,1.8764029999999998,0.62966245,-0.52342427,-1.4859908000000002
8.776099,-9.52084,1.3023117,0.55140185,-0.53620005,-1.4982256
8.032652,-10.093246,0.6622361999999999,0.50083965,-0.58143896,-1.4817321
7.5010433,-9.911124000000001,0.6197727,0.4641005,-0.5894326,-1.4375753
7.153769500000001,-9.181562,1.0538701000000001,0.37892842,-0.57026887,-1.3486681999999999
6.8099527,-8.458619,1.8597871,0.2836509,-0.5351354,-1.2214163999999998
6.454155,-7.691057000000001,2.4746373,0.13034119,-0.42973498,-1.0691886999999998
6.117961,-6.9782839999999995,2.8011394,-0.12463396,-0.22478095,-0.8748812
5.978063,-6.465331,2.5918574,-0.37962657,0.021659536,-0.57199675
5.757691400000001,-6.221946,1.8736256000000002,-0.5504943,0.22820179,-0.17542304
5.473844000000001,-6.1037397,1.4528303,-0.64364254,0.36606535,0.22753857
5.144756299999999,-6.141616,1.3737738000000002,-0.7277674,0.4629486,0.5240351
4.812623,-6.2777023000000005,1.5349705,-0.84753186,0.5396035,0.79977965
4.510350700000001,-6.3976808,1.5705004999999999,-0.95773196,0.64180994,1.1857069
4.204945599999999,-6.624181699999999,1.448626,-0.9619905999999999,0.6902603,1.6797223000000001
3.9914407999999995,-6.779288,1.459898,-0.72987926,0.62158155,2.056085
3.779707,-7.0407248,1.1990737,-0.2795494,0.43526766,2.3174481
3.5674086000000003,-7.5087337,0.96569645,0.13564698,0.18561576,2.2849677
3.2534614,-7.972002000000001,1.0193074,0.3299545,-0.09384635,1.920316
3.1012383,-8.118192,1.3232274,0.20751965,-0.34723327,1.5567464
3.6107051,-8.396503,1.5474780000000001,-0.055431657,-0.45050439999999997,1.314006
4.771989,-9.224859,1.3998418,-0.22312289999999999,-0.31848767,1.1436619
5.55269,-10.308016,1.1168280000000002,-0.34555775,0.084997535,0.9839468000000001
5.6003346,-10.719425,1.0409223,-0.46799257,0.59124774,0.88654
5.433775,-9.754745,1.4987894,-0.5329188,1.0123084,0.8508829
6.091893,-8.379035,2.2107294,-0.44031167,1.1209028,0.87269956
7.2746,-7.4539447,2.1160147,-0.21992894,0.93725926,0.9067684000000001
9.473493,-6.648142999999999,0.9446275,0.004171337,0.5923124,0.96692985
10.866745,-6.155416000000001,-0.55621135,0.13458234,0.16484635,1.0308089
11.143208,-6.5317940000000005,-1.7165852,0.17184512,-0.21574014,1.1207632
10.91122,-6.89306,-1.4780556999999999,0.19367918,-0.50638986,1.2538445
10.566187,-6.6985455,-0.4055203,0.21868975,-0.6299068,1.3762794
9.850733,-6.1464042999999995,0.21664654,0.18781488,-0.5782625,1.4539989
8.838185000000001,-5.5776377,0.50431466,0.11435397,-0.4552866,1.4209948000000001
7.906994999999999,-5.20125,0.6788328,0.115942225,-0.4025951,1.3012128
7.2711524999999995,-4.902741000000001,0.6689590999999999,0.19792034,-0.5101247999999999,1.1569438
6.959417299999999,-4.8067145,0.50298345,0.28789207,-0.7635116999999999,0.9200678
6.648238,-4.757432,0.005161899,0.30492648,-1.0179633,0.51923543
6.5271873,-4.860488,-0.53633946,0.21868975,-1.0802367,-0.021589722000000002
6.414564599999999,-5.06117,-0.7686536999999999,0.15481070000000002,-0.87156504,-0.56243235
6.5810949999999995,-5.2357264,-0.54849243,0.20804325,-0.44678682,-0.8520348
7.095619,-5.1529927,-0.37096718,0.28310984,0.12226032,-1.0053271000000001
7.701189,-4.815889,-0.33633748,0.33206636,0.5667433000000001,-1.2885417
8.561972,-4.559671,-0.22359928,0.51731557,0.6689498,-1.534476
9.494474,-4.6760483,0.04873637,0.80957097,0.47092474,-1.6813977999999998
10.3382015,-4.976195,0.09685983,1.1055438999999998,-0.034766957,-1.717055
11.609819,-5.233283999999999,0.20340179,1.2002978000000002,-0.7187964,-1.6244477
13.072503999999999,-5.6491194,0.42880150000000006,1.116714,-1.3043543,-1.5051894
14.774695000000001,-7.1766863,1.0901471,0.95382243,-1.6892343999999997,-1.4221466999999999
15.59039,-9.602367,2.2552998,0.87025607,-1.8382854,-1.3449681999999998
14.729033,-10.856881,3.209839,0.9096481,-1.781318,-1.2576668
12.890459,-9.4909315,3.288139,0.9873677,-1.5785106000000002,-1.1794063
11.131554,-7.983446000000001,3.0873613,0.9548870999999999,-1.2521864,-1.128303
9.677142,-7.548554400000001,2.9143755000000002,0.80370665,-0.9689894,-1.1165918
8.751314,-8.028046,2.451222,0.5865179,-0.7730935999999999,-1.1219325
7.808890299999999,-8.59032,1.7649959,0.3831696,-0.6980444,-1.1517253
7.058681,-8.993014,0.780845,0.21710149999999998,-0.68685687,-1.1985698999999999
6.6641073,-8.8444395,0.5543056,0.14522885,-0.64959407,-1.2363563999999998
6.374849299999999,-8.260168,1.1224401000000002,0.10423106,-0.52928853,-1.2416971
6.0243955,-7.5165005,2.1415846000000003,0.06644469,-0.3690673,-1.2225333
5.7259345,-6.8406649999999996,2.9116747000000003,-0.006998770400000001,-0.14761995,-1.1948524
5.5944357,-6.332587,2.9072123,-0.14433873,0.102573,-1.1597015
5.7565517,-6.0946126,2.0978763,-0.29551914,0.34316665,-1.0639003999999999
5.9307823,-6.043894,1.45397,-0.4046546,0.5092522,-0.8685282
6.1173673,-6.0492287000000005,1.1104882,-0.45149922,0.6402042,-0.6108826999999999
6.218125,-6.1092653,1.1074332,-0.4956735,0.76850337,-0.34791392
6.147448000000001,-6.212915,1.4949968999999999,-0.5494471,0.8414232,-0.03864159
6.033379,-6.4413695,2.1243465,-0.6953043000000001,0.90849626,0.39093629999999996
5.759204,-6.5450672999999995,2.3949583,-0.76503015,0.8920029,0.9360200999999999
5.5720353,-6.714491000000001,2.491703,-0.58351594,0.772762,1.4002253
5.6216335,-7.015739,2.2138419999999996,-0.23589870000000002,0.57206655,1.7558186999999998
5.708773000000001,-7.716608,1.8737979999999999,0.049410272000000005,0.34796628,1.9149753
5.4432178,-8.273000999999999,1.6978433999999998,0.15426965,0.13662437,1.9219042000000002
4.9616003,-8.478375999999999,1.6497773,0.13723524,-0.094911,1.8872943
4.884296,-8.656158999999999,1.5816766000000002,0.10157816,-0.3983365,1.8990055000000001
5.098835500000001,-9.19338,1.2064669,0.040352013,-0.6746221,1.8489668000000001
5.267378,-9.8016615,0.5846066,0.044610616,-0.8811644000000001,1.7126915
4.8807044,-10.109995,0.019603724,0.109030716,-0.77257,1.5450003
4.283945,-9.107754,0.2675951,0.010541788,-0.31477013,1.3155768
4.517303,-7.605152599999999,1.0011402,-0.21834070000000003,0.22924899999999998,1.1047759
5.0926013,-6.712374700000001,0.9894851999999998,-0.37323865,0.6407453000000001,0.9674360000000001
6.4243803,-6.361681,0.25569117,-0.3279997,0.73282886,0.92324424
7.478461299999999,-6.5685115000000005,-0.7129071,-0.15978489999999998,0.6311634,0.9482723
8.446100999999999,-7.364487599999999,-1.3005111999999999,-0.05703736,0.47305405,0.96637136
9.198609,-7.8639565000000005,-1.4587584999999998,-0.07407177,0.36287140000000007,0.9956405
9.557213,-7.539523,-1.1982788,-0.092170835,0.24308945,1.0478084
9.576883,-6.7719130000000005,-0.08527189,-0.063425265,0.13768902,1.0760303999999998
9.417497000000001,-5.9484806,0.37349546,-0.020839231,0.1094845,1.0903945
9.141233999999999,-5.2374887,0.2608435,-0.07035422,0.19252726,1.0946705
8.639619999999999,-4.988960700000001,0.14505988,-0.13158037,0.30218629999999996,1.1303101999999998
7.764425,-5.068688,0.5674640999999999,-0.09164724,0.1643053,1.1074289
7.3674664000000005,-5.3376813,0.77222586,0.06218608,-0.25354397,0.92059135
6.9606724,-5.3115654,0.6936768,0.28469809999999995,-0.8311258,0.54209924
6.982133999999999,-5.325394,0.19590315,0.47420597,-1.2665680000000001,-0.039723694
6.8808110000000005,-5.3582906999999995,-0.09960837,0.56948346,-1.2638976999999998,-0.6247406
6.945875999999999,-5.2054730000000005,0.043689393,0.5449965,-0.79812163,-0.9308190000000001
7.125853,-5.0857057999999995,0.32587957,0.35655332,-0.12739158,-1.1496135
7.3760566999999995,-5.014234,0.40445727,0.2570172,0.43472659999999996,-1.4210994
7.9623675,-5.424016,0.19257043,0.36027086,0.6295576999999999,-1.6484112000000002
8.765460000000001,-5.9103937,0.24537694,0.5364793000000001,0.46879545,-1.7713696
10.042125,-6.031032,0.46724284,0.693524,-0.028379052999999998,-1.7011026000000002
11.636022,-6.097965,0.7269946,0.7542091,-0.7746993000000001,-1.4828491000000001
13.410411999999999,-6.424955000000001,1.2628743999999998,0.81754714,-1.5093083,-1.2624663999999999
15.183682000000001,-7.551292999999999,1.6007345,0.8958077,-2.050151,-1.1453548999999998
15.725855,-9.206539,1.8354907999999999,0.98949695,-2.3759341,-1.0974456
14.193518,-9.330194,1.7696215,1.0624168,-2.4877224,-1.0575124
12.306216000000001,-7.988426,1.4711316,1.1039382,-2.3908392999999997,-1.0500424
10.809667,-7.126686,1.6817161,1.0091842,-2.0820906000000003,-1.0873401000000003
9.752417,-7.3729534,1.4981381999999999,0.731834,-1.6237496,-1.1725122
8.741469,-8.150534,0.96610826,0.37943459999999996,-1.1595792999999999,-1.2944235
7.6280035999999996,-8.951891999999999,0.28013116,0.07548549,-0.74754196,-1.4024593
6.883636,-9.221249,-0.07667191,-0.10281735,-0.46807986,-1.460474
6.646112400000001,-8.771608,0.47192588,-0.20928243,-0.25354397,-1.4871078000000002
6.644943700000001,-7.893185000000001,1.09687,-0.28009045,-0.08000589,-1.4716616000000002
6.546686,-7.194020299999999,1.6663452,-0.38814378,0.108943455,-1.4360045
6.395698,-6.572562700000001,1.975973,-0.5409299,0.28621656,-1.3832957000000001
6.5320907,-6.1060095,1.972736,-0.71979123,0.46081927,-1.2528846000000002
6.646160000000001,-5.819174299999999,1.465941,-0.86510736,0.58112484,-1.0032152
6.747999999999999,-5.628519,0.8722843000000001,-0.9619905999999999,0.6322281,-0.67797315
6.700882400000001,-5.6539264000000005,0.7948175000000001,-0.9971241,0.7030185999999999,-0.36601300000000003
6.375864,-5.945597599999999,1.0682257,-1.0152405999999998,0.8211949000000001,-0.0072431164
6.069828,-6.249096400000001,1.3385407,-1.0242814,0.9324595999999999,0.40210640000000003
5.6574316,-6.418213,1.5384662,-0.95773196,1.0277371,0.91739744
5.305426000000001,-6.4977293,1.524168,-0.68678707,1.0644763000000002,1.4907031000000002
5.168095,-6.805691,1.3067073999999999,-0.29021335,1.0660646,1.9048523999999998
5.092908,-7.4041834,1.013025,0.0015009831,1.0133729999999999,2.1369462
4.6222935,-8.093867,0.79773843,0.17343336,0.8989144,2.1752563
4.263422,-8.474037,0.89688706,0.21975441,0.6875899000000001,2.1305582999999997
4.203433,-8.794065,1.132352,0.091996305,0.4384616,2.0672202
4.485336,-9.340519,1.3060753,-0.17894861,0.23244295,1.9777896000000001
4.641361,-9.889134,1.3408773999999999,-0.4456349,0.08232718,1.8734539000000001
4.679075,-10.297011,1.3100018999999998,-0.6117379,0.090844385,1.7387668
4.2434544999999995,-9.966296,1.590449,-0.64261276,0.25799456,1.5806575
4.291367,-8.657567,2.0868436999999997,-0.5888392,0.46081927,1.4050075
5.1347966,-7.395153,1.7524311999999997,-0.44404668,0.6306224,1.2442452
6.420464,-7.074693700000001,0.7877498000000001,-0.32587042,0.6833313,1.1250043
7.765631,-7.1749149999999995,-0.23385605,-0.287543,0.6274284000000001,1.0483495
8.662395,-7.4135594,-1.2373713,-0.26624998,0.46027824,0.99989915
9.399435,-7.7885966,-2.0969758,-0.20076522,0.18985692,0.97914714
9.804151,-7.819482000000001,-2.3232186,-0.1060113,-0.022514747,0.9903173000000001
9.753537,-7.270549000000001,-1.7342066000000003,0.021188296000000002,-0.17156586,0.9833883
9.493708999999999,-6.380336799999999,-0.49444094,0.06270968,-0.12365658,0.94240797
9.200228,-5.558072,0.42254788,0.030246556,-0.05073672,0.8678999
8.9238405,-5.0720205,0.969939,0.054192472,-0.06990044,0.82423174
8.660058,-4.914922,1.0783197,0.1446878,-0.24876177,0.73267174
8.379064999999999,-4.894237,0.43235450000000003,0.2160194,-0.4952197,0.48780206
8.08768,-4.9572806,-0.009308656,0.15959291,-0.6751457,0.014032447
7.8264823,-5.037774,-0.16271953,0.12233013,-0.7736346,-0.57150805
7.708908,-5.11571,0.040280048,0.12978268,-0.74595374,-1.1006396
7.568675,-4.984508,0.3001563,0.16704546,-0.43666393,-1.2954706
7.9462023,-4.748056,0.5560486,0.19259708,-0.0017627826,-1.4131233
8.128525999999999,-4.5291879999999995,0.33346440000000005,0.2830924,0.3868173,-1.6414821
8.478155000000001,-4.680042,0.20629399,0.5146627,0.5752605,-1.8427011999999998
8.9698,-5.0263295,0.3313192,0.7510151999999999,0.49914670000000005,-1.9619246
10.06938,-5.2448440000000005,0.47860092,0.9463699000000001,0.19518016,-1.9331965
3.5160193,-8.069399,0.61324126,-0.32489303,0.16742943,1.8375523999999999
4.619459,-9.094002,0.22794716,-0.4776617,0.10515609,1.6890249
5.8373610000000005,-10.637314,-0.67667806,-0.6528055,0.13016665,1.5192218000000002
6.359047400000001,-11.4884815,-2.109033,-0.80185664,0.29412287,1.3419486999999999
5.9117823,-11.119064999999999,-1.9629868000000001,-0.8194146000000001,0.37451276,1.2403008
6.4360356,-10.214191,0.7441466,-0.68207467,0.30637509999999996,1.2434771999999998
7.826405499999999,-9.226267,2.4628963,-0.49949577,0.18233454,1.3052270000000001
9.7975235,-8.495987,2.5057907000000004,-0.37812558,0.029024825,1.3919873
11.071517,-8.170845,1.227938,-0.31264082,-0.12320279,1.4649246999999999
11.396142,-8.271325,-0.23035094,-0.28230700000000003,-0.21422172,1.5298684
10.804486,-8.142853,-0.93296295,-0.27537805,-0.23551473,1.5580903
10.170281,-7.643718700000001,-0.9561101000000001,-0.2700548,-0.18654078,1.5234803999999997
9.590672999999999,-6.8783307,-0.57240576,-0.27485445,-0.09765117,1.4223386
8.823563,-6.2673974,0.13571294,-0.24610887,0.057770398,1.2024968999999999
7.8335505,-6.0070043,0.8693155,-0.17530087,0.19245745,0.8958775
7.043684,-5.9401774000000005,1.3177207,-0.0023038345,0.21853268,0.5690122
6.6418695,-5.926271400000001,1.2488827,0.1754754,0.15413003,0.23685864
6.6218257,-5.9082669999999995,0.84988415,0.31335640000000003,0.08386307,-0.187396
6.9324493,-5.958919,0.6315138000000001,0.39055229999999996,0.078016214,-0.54244834
7.428662299999999,-5.960432,0.56044436,0.39266416,0.1700998,-0.8309687
8.070404,-5.838548,0.630671,0.38627627,0.22759093,-1.0912845
8.706495,-5.472034,0.8143734,0.44057345,0.11580259,-1.1956203
9.411033,-5.024701599999999,1.0555843,0.4475024,0.024766222,-1.1679393999999998
10.242605000000001,-4.554221599999999,1.3629136999999998,0.32452652,0.1248434,-1.3920397
10.873171000000001,-4.468299,1.5667847,0.2249904,0.35960764,-1.7465683999999997
11.293553999999999,-4.6774945,1.7626784,0.3697829,0.5448569000000001,-2.037759
11.63945,-4.8219414,1.605159,0.7807381,0.3888768,-2.2091506
11.938734,-5.300954,1.4608461000000001,1.1704004,-0.12107349,-2.3065922000000003
11.799019,-6.2149262,1.3461254999999999,1.2715421999999998,-0.6970496,-2.3630013
11.684969,-7.4166527,1.1535360000000001,1.1075859,-1.0978819,-2.3252148999999998
12.201609,-9.391447,1.0538988,0.90476125,-1.2400215,-2.1702995
12.436010000000001,-11.283719999999999,0.9218059999999999,0.81958914,-1.1580434,-1.9973023999999997
12.571512,-11.140365,0.7148033,0.8685630999999999,-0.9876993000000001,-1.8934901999999998
12.571034,-9.017033999999999,1.0149117,0.88933253,-0.69066167,-1.8312168999999998
11.453669,-8.152956,1.6575251,0.79138464,-0.36168459999999997,-1.8019477
10.360841,-8.277004,2.6142192000000004,0.6215641,-0.15727162,-1.7652086
9.376585,-9.001355,2.7665577,0.4954117,-0.12904964,-1.7109113999999999
8.769176,-9.990735,1.6357665000000001,0.41343358,-0.22115067,-1.6193514
8.222647,-10.738311,0.56805784,0.34848988,-0.27597147,-1.4814878999999999
7.2520942999999995,-10.907581,0.29476452,0.2856755,-0.2536138,-1.306344
6.243666,-10.438825999999999,1.1531049999999998,0.20476203,-0.19027579,-1.1322823999999998
5.7230706,-9.516828,2.0738766,0.08923868,-0.0779464,-0.95713854
5.542366,-8.516817,2.6271383999999998,-0.042219516,0.010925761,-0.72291535
5.35174,-7.9114766,2.2087564,-0.16146041,0.034348078,-0.40830234
5.1533755999999995,-7.5004306,1.4853245000000002,-0.28708920000000004,0.053511795,-0.06921976
4.873359,-7.363109,0.9010626,-0.39887753,0.1184555,0.24911085
4.527378,-7.363722,0.86715114,-0.48404962,0.21907373,0.5557128
4.0615716,-7.4281354,0.96703726,-0.5085366,0.27337092,0.8256104999999999
3.6277041,-7.4407380000000005,1.2538147,-0.5085366,0.2589894,1.0907086000000001
3.2285333,-7.349471,1.3583742,-0.6469411999999999,0.28827602,1.3813583
3.1524932,-7.2043729999999995,1.3059508,-0.9583603,0.379836,1.6799841
3.0164068,-7.443975,1.0833092,-1.2324991,0.39420006,2.0866807
2.688765,-7.842801,0.8363424999999999,-1.0733426000000001,0.29944614,2.486466
2.2611127,-7.8409534,0.7282012,-0.6911329,0.11473794,2.6716976000000003
