accx,accy,accz,gyrx,gyry,gyrz
6.6146044999999996,-7.1380444,0.82064617,-0.1580221,0.6105685000000001,-0.2830924
5.9857054000000005,-7.368883599999999,0.7785273,-0.27141616,0.5386959,0.13849187
5.2786303,-7.562200999999999,0.58127385,-0.47582912,0.3385415,0.6080029
5.0875635,-7.353206599999999,0.38584954,-0.750509,0.12721705,1.0088527
4.9675856,-7.1925550000000005,-0.17077363,-0.9762149999999999,0.026616272000000003,1.3159957
4.6595383,-7.144221300000001,-0.44680590000000003,-1.1279191000000002,0.048432887,1.519344
4.1300936,-7.284646,-0.15590084,-1.2413131000000002,0.11709414,1.7083282
3.4962337,-7.233755,0.54396266,-1.1667875,0.07876671,1.9425515
3.2959445,-7.224264,0.8109544,-0.7968126,-0.059602994000000006,2.1341887
3.5363029999999998,-7.753144,0.21439599,-0.26448720000000003,-0.21984167,2.1650633999999997
3.7779257000000004,-8.643739,-0.5958689,0.33276448,-0.43436009999999997,1.9739673999999998
3.7140388,-9.248782,-1.4731332000000001,0.5765695,-0.47376963,1.5502189
3.9699120000000003,-9.1577635,-1.9054877000000001,0.33063516,-0.16715018,1.0748434999999998
5.348196499999999,-9.304271,-1.9352428,-0.045169123,0.30874875,0.82945025
6.443793,-9.778034,-1.3639002,-0.24638812,0.75483745,0.71713835
7.4904327,-10.292069,-1.0518303,-0.16973327,1.0060950000000002,0.7091447
7.6342473,-10.342147,-0.4305445,0.028274333,1.0066186,0.7527954000000001
7.456693,-9.804572,0.77117234,0.19861847,0.84372705,0.74694854
8.23274,-9.283613,1.834016,0.30773646,0.5908812,0.697451
9.844938,-9.059342,2.0616183,0.3018896,0.3630285,0.7022331999999999
11.5104885,-8.424382000000001,1.2284075,0.13206907,0.2602984,0.8007046999999999
12.332179,-7.5687036999999995,-0.5900462,-0.17879152,0.23900539,0.9348506999999999
11.307623,-6.6268535,-1.6812083999999998,-0.5285206,0.20333086,1.0003355
9.27031,-5.8030467,-1.2701334999999998,-0.82875216,0.1932254,0.9726545
7.4322057,-5.0510187,0.053074665,-1.0784215,0.28478536,0.9737191999999999
5.943127,-4.301423000000001,0.8443871,-1.1971214,0.40242055,0.9364564000000001
5.1956663,-3.767037,0.8731558,-1.0230595999999998,0.39657372,0.84168506
5.048433,-3.2877370000000004,0.4086232,-0.55513686,0.20760691,0.7352373999999999
4.944256299999999,-3.1833400000000003,-0.31320947,0.0016580628,-0.09049532,0.6058736
4.8415737000000005,-3.3528687999999995,-0.8987736999999999,0.37055084,-0.39763835,0.39828414
4.9382324,-3.7873303999999997,-1.6716604,0.41846013,-0.61856216,0.10707595
5.602614,-4.3732489999999995,-2.2072816000000004,0.23375195,-0.6606071,-0.22827162
6.8822384,-4.848747299999999,-2.2036424,0.067125365,-0.60257494,-0.53115606
8.009189,-5.5769386,-1.8991287000000001,0.12409291,-0.5871462,-0.7856076
8.596889,-6.1143885000000004,-1.2375532,0.32157692,-0.61589175,-1.1257548000000002
9.386832,-6.672573,-0.29939973,0.5563412,-0.5706354,-1.4685723999999998
10.132032,-7.384666,0.87192994,0.83048004,-0.42479570000000005,-1.7203709999999999
11.003866,-8.12978,1.5499486999999998,1.0370222,-0.37156314,-1.8688811
12.126994999999999,-8.827987,0.9441391,1.1717093,-0.40350267,-1.9253076
13.532487,-9.456676,-0.5920478,1.1562631,-0.48387507,-1.9194608
14.600310999999998,-9.744995,-2.027458,1.0242465,-0.578629,-1.8624932
15.065284,-10.216422999999999,-2.5610297,0.8358033000000001,-0.6957406,-1.8188425
14.058933999999999,-9.728321000000001,-1.5348365,0.67345273,-0.83042765,-1.790097
12.200632,-8.041655,0.1561211,0.5361128000000001,-1.0066186,-1.7730626
10.644639999999999,-6.4391956,1.2777662,0.29230773,-0.9225111999999999,-1.6602095000000001
9.13636,-5.55201,1.7792557,0.1288751,-0.8416152,-1.494665
7.924558599999999,-5.483373,1.8541272,-0.06646214,-0.6270619000000001,-1.3322971000000001
7.257563,-5.911035,1.2129697,-0.2580993,-0.30394909999999997,-1.1779226999999999
6.772133999999999,-6.497011,0.33509246,-0.3123965,-0.02766347,-0.98789126
6.5112615,-6.9436919999999995,-0.51089394,-0.2080607,0.109117985,-0.7983834
6.1833324,-7.049592999999999,-1.0616465,0.032532938,0.07344346,-0.59609973
5.9767222,-6.9457417,-0.96229666,0.2832495,-0.030857421,-0.3874282
5.8909907,-6.9984145,-0.8442050999999999,0.43336526,-0.15702727,-0.1409528
5.644809700000001,-7.146309,-0.5511165,0.45891687,-0.2688156,0.15978489999999998
5.1226535,-7.298178,-0.48469177,0.31466540000000004,-0.36091664,0.47652724
4.7864594,-7.166219,0.017353173,0.011763518999999998,-0.33430037,0.75173074
4.6776860000000005,-7.0436363,0.29372066,-0.36562902,-0.15542157,0.95082045
4.5041833,-7.100867299999999,0.70222896,-0.7451858,0.15596262,1.0855075
4.173496,-7.15285,1.3691673,-1.0661693,0.4423537,1.1217057
3.8748812999999993,-7.050033,1.7969824,-1.2535478,0.66805965,1.1653563
3.6501330000000003,-7.002436599999999,2.0067720000000002,-1.1731755,0.7212921999999999,1.296832
3.7501721,-7.2972875,1.4705665,-0.7728666999999999,0.6052453000000001,1.4230018999999998
4.219254,-8.095668,0.45880565,-0.1511106,0.35079372,1.4639822
4.887906,-9.010386,-0.6005807,0.40516073,0.005846853000000001,1.2931143999999999
5.5406713,-9.193888000000001,-1.6090281000000002,0.59945077,-0.18203785,0.95614374
6.475377,-9.066392,-2.161198,0.4046197,0.0037175512,0.66975266
7.6184072,-9.485205,-2.2560849999999997,0.043703045999999995,0.46896997,0.5893802
8.393189999999999,-9.56903,-1.9510446,-0.12927654,0.8932245999999999,0.6772052
8.942133,-9.730648,-1.5771277,-0.02974041,1.0912496999999999,0.8406378000000001
8.419871,-9.635810000000001,-0.69722027,0.20872392,1.005013,0.89599967
7.7569356,-9.203981,0.7741795,0.39557886,0.76813686,0.8156098
8.268299,-9.100035,1.8124297999999999,0.33541736,0.5749115,0.693716
9.428395,-8.990055,1.6709421999999998,0.1155757,0.40722020000000003,0.6330309000000001
10.739287,-8.340259,0.51507896,-0.11650073,0.25815165,0.68943995
10.923258,-7.4789495,-1.0822846000000002,-0.37095228,0.15435691,0.8560665000000001
9.685178,-6.7777267000000005,-1.8344276999999998,-0.5370378,0.11550589,0.9502969000000001
7.704090600000001,-6.2056656,-1.5410327,-0.68289495,0.11016518,0.9875421999999998
6.078313,-5.4399805,-0.35007059999999995,-0.81651735,0.20600120000000002,0.9859539
5.1738696,-4.4734125,0.33482432,-0.8851786,0.3428001,0.9092991
5.216927,-3.4615464,0.40894878,-0.7904247,0.45193556,0.77728236
5.3181257,-2.7283267999999996,-0.39470809999999995,-0.49019316,0.40722020000000003,0.6670998
5.135285400000001,-2.5315716,-1.4594,-0.11704178,0.19481365,0.6117379
4.9302835,-2.7817654999999997,-1.9656109,0.17359045,-0.08089601,0.54785883
4.7978654,-3.4487422,-2.1183705,0.28698447,-0.22249457,0.42168900000000004
5.2829976,-4.2187557,-1.9991008999999997,0.31412435,-0.2517812,0.27422613
6.371162,-4.7662525,-1.5369913999999998,0.33702308,-0.3119427,0.05438446
7.4246106,-5.3218026,-1.2301600000000001,0.39823177,-0.51209706,-0.23570672
8.199441,-5.6341314,-0.8162887,0.5632526,-0.83733916,-0.54925513
9.014227,-6.042103,-0.29904538,0.69687504,-1.0997843999999999,-0.88994336
9.658774000000001,-6.7431445000000005,0.40554905,0.6590712,-1.1721805,-1.2008214
10.10651,-7.6369576,0.80194265,0.5244015999999999,-1.0917907,-1.4078873
10.481652,-8.126007000000001,0.31928116,0.3630983,-0.97415555,-1.5750375
11.268311,-8.356109,-0.40355706,0.23427555,-0.8362745,-1.6884314999999999
11.9563465,-8.524536,-1.1032577,0.16933185,-0.65369564,-1.7400758
12.009497999999999,-8.11779,-1.1408753,0.15709709,-0.42106068,-1.7698686000000001
12.250488,-7.9357157,-1.2063329,0.20552997,-0.21186551,-1.7932909
12.033813,-7.526566000000001,-0.8780208,0.33861133,-0.10166543,-1.8183189999999998
11.533358999999999,-7.063009700000001,-0.3666959,0.49991465,-0.13414600000000002,-1.8177778999999998
11.062102000000001,-6.826511,-0.36411020000000005,0.6287374,-0.28585002,-1.8486527
10.366731,-6.9231887,-0.6397499,0.6612005,-0.4375715,-1.9359541
9.599609,-7.194202400000001,-0.61890113,0.5190784,-0.45300022,-2.0317726
8.949708,-7.454787700000001,-0.37325603,0.28537878,-0.32204816,-2.0328374
8.307659,-7.5865545,0.13649823,0.0037873646000000003,-0.05110324,-1.9167903999999998
7.7090807,-7.460303999999999,0.6385526999999999,-0.22722441,0.2544341,-1.6612741999999998
7.189644,-7.2380643,1.0604303,-0.39704496,0.55201274,-1.2955754
6.8612266,-7.1705380000000005,1.2559791,-0.47050586,0.72075117,-0.9011135
6.6404905,-7.252851,1.3075596999999999,-0.49338713,0.73565626,-0.43160248
6.410523,-7.229723,1.0370724,-0.53332025,0.57595867,0.10602875
6.452000000000001,-7.187403,0.5829880999999999,-0.59878755,0.25816910000000004,0.6793345000000001
6.480424,-7.189922,0.09126697,-0.66798985,-0.10431833,1.1893022
6.157475,-7.386735000000001,-0.35843116,-0.7105759,-0.3215071,1.635391
5.4764013,-7.4805207,-0.4946612,-0.6994058000000001,-0.4333129,1.968103
4.463481400000001,-7.501742999999999,-0.28451738,-0.6791774,-0.42051962,2.1863565
3.2734964,-7.263615,0.112029485,-0.64191467,-0.38540359999999996,2.3444483
2.4854305,-7.325395599999999,0.3105567,-0.3789459,-0.40882593,2.3684118
2.3526,-7.8010178,0.23915203,0.12941617,-0.45087089999999996,2.2321365
2.4455335,-8.532187,-0.19280028,0.65161866,-0.48600438,1.9350988999999998
2.4657693,-8.973717,-0.64627165,0.8432558000000001,-0.37369245,1.4991157
2.776824,-9.167417,-0.8729450999999999,0.6675884,-0.042586032,1.0455744
3.9190110000000002,-9.562097,-0.79906005,0.38386770000000003,0.40189695,0.7544010999999999
5.108393,-10.068978,-0.46230119999999997,0.23959879999999997,0.8240223,0.63036054
6.863008,-10.766533,-0.23151929999999998,0.31998867,1.0689094,0.59098595
8.090036,-11.053464,-0.13292608,0.49830896,1.1535405,0.57499874
8.722824000000001,-10.502175,0.43352288,0.6675884,1.020459,0.55264103
9.809667,-9.941108999999999,1.4261492,0.7256206000000001,0.7319386999999999,0.54147094
10.976668,-9.420446,2.0323038,0.68409926,0.43064255,0.5962917
11.856767,-8.914933999999999,1.3096188,0.52173126,0.18416715,0.7160562
12.211625999999999,-8.138475,-0.34793496,0.15283848,0.13147566,0.8273209999999999
11.311923,-7.224944,-1.2341440000000001,-0.28471556,0.1996133,0.88161814
9.522947,-6.425482,-1.05659,-0.59878755,0.34599406,0.8864178
7.748028999999999,-5.552508400000001,-0.088958964,-0.80800015,0.47694612,0.8156098
6.545355000000001,-4.8248434,0.44890323,-0.91233593,0.54508376,0.65910614
5.743575,-4.284845400000001,0.38703707,-0.8819847,0.55840063,0.4823741
5.2003207,-3.8298989999999997,-0.22155942,-0.7015351,0.43968335,0.37803832
4.7843714,-3.7024703000000003,-1.0488423,-0.4465425,0.22357668,0.33812264
4.5487247,-3.7783663,-1.6241595,-0.23202407,0.0074351025,0.32161182
4.929709,-4.011887000000001,-2.348951,-0.12821189,-0.14107497,0.26837927
5.843614,-4.421324299999999,-2.967498,-0.08030259599999999,-0.27998573,0.17842501
7.0362906,-4.9725943,-2.6798587000000005,-0.08136725,-0.4487416,-0.025970499999999997
7.9668694,-5.46782,-2.0733116000000003,-0.019617502,-0.69415236,-0.30065042
8.693365,-5.724364,-1.3901502000000001,0.123028256,-0.9390046000000001,-0.5913001
9.299204,-6.0444207,-0.9306549000000001,0.28272587,-1.0641098,-0.8436223
9.6897745,-6.830695599999999,-0.38287115,0.35618679999999997,-1.0268469999999998,-1.0890331
9.965242,-7.7009406,-0.11246044,0.3109304,-0.87940156,-1.3440082
10.061394,-8.363617,-0.17853084,0.22310543,-0.74736744,-1.5446862
10.585982000000001,-8.737811,-0.57160133,0.17571975,-0.6861586999999999,-1.6777849999999999
11.061134,-8.861908,-1.0094816999999998,0.16561429,-0.64996064,-1.7299528999999998
11.205678,-8.430569,-1.0676128,0.15655604,-0.5834286999999999,-1.7538988999999998
11.506083,-8.1052065,-1.0095007,0.15283848,-0.46045277,-1.7874439999999998
11.3568,-7.743155000000001,-0.46786532,0.18849556,-0.3188542,-1.8087369999999998
10.849909,-7.502739,0.15136144,0.27047366,-0.23528783,-1.8247068
10.220215,-7.2947683,0.518948,0.35299283,-0.23900539,-1.8012846000000002
9.844748,-7.0323834000000005,0.36473268,0.46371654,-0.32417744,-1.7107892
9.270808,-6.9148474,0.2216935,0.44668213,-0.34599406,-1.6410457999999999
8.572908,-7.1254315,0.12636596,0.33702308,-0.28691468,-1.5516151000000002
7.93335,-7.438028299999999,0.3974758,0.15390313,-0.13521066,-1.3850061000000002
7.249231,-7.5147004,0.6159611,-0.027611108,0.028745572999999996,-1.0821041
6.9174232,-7.409403,0.76196903,-0.13992305,0.14053391,-0.7526034
6.7302637,-7.212782000000001,0.9608985000000001,-0.18463838,0.23581143,-0.43586108
6.2978515999999996,-7.0822883,1.1321892,-0.21179570000000003,0.2517812,-0.13350023
5.838528599999999,-6.965547,1.1663306,-0.28684485,0.23315853,0.23804545
5.270739,-7.032967,1.0629585,-0.41247365,0.1889668,0.6372895000000001
4.88692,-7.008575,0.8902790999999999,-0.5673891,0.13573426,1.0583502
4.760199500000001,-6.952876600000001,0.39766732,-0.6892829,0.15435691,1.3926506
4.380575,-6.9780254,0.14532804,-0.7856425,0.24804619,1.6449728
3.879325,-7.229062,-0.10879253,-0.78138393,0.32365385,1.8717433999999997
3.252523,-7.238332700000001,0.09464759,-0.6115634,0.27307420000000004,2.091079
3.1635543999999998,-7.307639599999999,0.28502494,-0.13992305,0.09101892,2.2379832000000004
3.6618166,-7.7928395,0.29061776,0.5850867,-0.25232226,2.193268
4.3232099999999996,-8.782123,-0.20636104,1.3191547,-0.7266155,1.8786724
4.6043754,-9.564358,-0.6640079000000001,1.6763538,-0.9725497999999999,1.3873273000000002
4.670609,-9.833992,-0.9903088,1.5017511000000001,-0.77133083,0.83692026
5.410857,-10.07075,-0.8790838,0.9965655000000001,-0.21558307,0.36473890000000003
6.520168,-10.405584,-0.7473357,0.49405035,0.46684065,0.1118756
7.655469999999999,-10.949431,-0.50600976,0.19435987,1.0289763,-0.0062831854
7.9394984,-11.024054,-0.02909434,0.1746551,1.2711931,-0.047787115
8.068891,-10.390222999999999,1.0185030000000002,0.26995006,1.1902796,-0.06642723
8.793596,-9.696,2.0248241,0.33648202,0.9443453000000002,-0.047263514000000006
10.186974000000001,-8.857695,2.2436254,0.29230773,0.6691243,0.05279621
11.471377,-7.982852499999999,1.3287245,0.14590952,0.40776128,0.25666812
11.9051485,-7.124598,-0.6124751,-0.14418165,0.24326399,0.516984
11.442971,-6.2159510000000004,-2.0450792,-0.51255083,0.22568853,0.66975266
10.0284195,-5.243436,-2.4563646,-0.7579616,0.24380504,0.7373666999999999
8.028429,-4.600679,-1.8265651000000003,-0.9240471,0.33321825,0.7416253
6.6060333,-4.085332,-0.8800607,-1.0235833,0.41201988,0.6702937
5.446445,-3.7879336,-0.2511805,-1.0097426999999999,0.4684289000000001,0.58351594
4.7033615,-3.6181078,-0.34728375,-0.8159763000000001,0.45619416,0.5207015
4.1267805,-3.6780398,-0.8450287000000001,-0.4657062,0.30181979999999997,0.46214575
3.7125928,-3.9430012999999997,-1.4553394,-0.13459979,0.07930776,0.42062435
3.5227517999999995,-4.321227599999999,-1.9417071,0.0048520155,-0.11709414,0.38974947
4.0575209999999995,-4.725465,-2.3496025,0.014957472,-0.30288443,0.36367425
5.572763,-5.087286,-2.2902262,0.043179445,-0.5136853,0.30351275
6.782994,-5.809741000000001,-1.4017476999999998,0.12355186,-0.75961965,0.1677785
7.777009,-6.287203,-1.1417373,0.27101472,-1.0172652,-0.055780724000000004
8.459423,-6.467036,-0.61283904,0.41100758,-1.2003851,-0.37358773
8.861841,-7.014752400000001,0.009720459,0.41793653,-1.2216781,-0.7238579
9.279867999999999,-7.786452000000001,0.60861564,0.31199506,-1.0885966999999999,-1.0666753999999998
9.778561999999999,-8.433834,0.67454237,0.18743089999999998,-0.93315774,-1.3227152
10.103761,-8.852378999999999,-0.018818427,0.07086037,-0.79688245,-1.5021176
10.540875,-9.222053,-1.0584573999999998,0.016563175,-0.6962642,-1.5915308000000001
10.684968,-9.101644,-1.504593,0.020821778,-0.6393141,-1.603783
11.183191,-8.877930000000001,-1.3251618,0.09161233,-0.5695707,-1.5744964
11.259385,-8.249653,-0.8579478000000001,0.25556856,-0.53178436,-1.5755786
11.242635,-7.310828999999999,-0.29583713,0.37268016,-0.43329543,-1.6091063
11.114459,-6.7582949999999995,-0.1325047,0.4323005999999999,-0.37208673,-1.6357225
10.877241,-6.5999419999999995,-0.41370848,0.46478117,-0.40722020000000003,-1.6453044
10.418417,-6.7446003,-0.47366884,0.45891687,-0.45352380000000003,-1.6186881000000002
9.517766,-7.1380539999999995,-0.23984155,0.34447563,-0.42318997,-1.5659792
8.704839,-7.550249000000001,0.0068282633999999995,0.12674580000000002,-0.3124663,-1.4440853999999999
7.7282534,-7.662603999999999,0.45536759999999993,-0.12075933,-0.1261524,-1.2428663999999998
6.9162836,-7.529553999999999,0.8483040000000001,-0.2836509,0.069202304,-0.94528776
6.4381995000000005,-7.1990194,1.3340108,-0.35178855,0.25497514,-0.65676737
6.2421145,-6.744907,1.6388406999999998,-0.38426915,0.37740999999999997,-0.35866517
5.990149,-6.552575599999999,1.3598683,-0.43270203,0.36623988,-0.06588618
5.673185299999999,-6.5153794000000005,0.9798319,-0.5136155,0.26083946,0.32908183
5.467878,-6.7475404999999995,0.63179153,-0.62114525,0.15011577,0.6926514
5.1580585999999995,-6.949314,0.36144784,-0.7190930999999999,0.12456415,1.0189755999999999
4.7945709999999995,-7.023841,-0.021270089,-0.7728666999999999,0.22410028,1.2510694
4.2408876,-7.159688,-0.24198675,-0.80161226,0.34761724,1.4097024
3.6141336,-7.1887155,-0.12053369,-0.74731505,0.37901568,1.508174
3.1793560000000003,-7.047600999999999,0.47898397,-0.49019316,0.24858725,1.5592772
3.4026203,-7.336485400000001,0.60815597,-0.06380924,0.036180675,1.5571479
3.9090992999999994,-8.168288,0.15813223,0.5036322,-0.25071654,1.498051
4.38589,-9.095371,-0.36037526,0.90607023,-0.47322857,1.3122782
4.424197,-9.433748,-0.6583671999999999,0.9092642,-0.42903683,1.0061997
4.9446487,-9.497108,-0.65918124,0.6079680000000001,-0.09580112,0.7011685999999999
6.02769,-9.670449000000001,-0.3563051,0.25504497,0.40828487,0.4908913
6.9851027000000006,-9.833772,-0.19085619,0.10119419,0.82295763,0.40678388
7.968727,-10.155208,-0.17016071,0.1895602,0.9746790999999999,0.40732494
8.162964,-9.722508,0.31771058,0.35990435,0.9155996999999999,0.4531049
8.177023,-8.904611000000001,1.1665796,0.48872709999999997,0.7016049,0.49623199999999995
8.653976,-8.428864,1.6783642,0.51056117,0.42586035,0.5393416
9.537828999999999,-8.241379,1.275123,0.46265188,0.16769123,0.5920506
10.526404,-7.8293365999999995,-0.025876531,0.37693876,-0.070249505,0.6521946
10.962647,-7.256059,-1.5390791000000001,0.23001695,-0.17510888,0.6607118000000001
10.229667,-6.345401,-1.9326379,0.025080381000000002,-0.15596262,0.6287723000000001
8.717116,-5.600651,-1.5094389,-0.18092082,-0.044174284,0.58725095
7.062646000000001,-5.005165,-0.44018835,-0.2682222,0.05588544,0.5420119999999999
5.796573,-4.453483599999999,0.06409757,-0.21924827,0.09103637,0.43819982
4.9760513,-3.9404345000000003,0.014958972,-0.060074233,0.06227334599999999,0.3567453
4.68144,-3.5951524,-0.56507945,0.10971139,-0.01436406,0.30778882
4.592893,-3.4770224,-1.0761266,0.181043,-0.06227334599999999,0.25029767
4.849618,-3.6262195,-1.4590169,0.08150688,-0.023404865,0.08847074
5.5924144,-4.095263,-1.6782396000000002,-0.036651913,-0.02872812,-0.044069562
6.711110000000001,-4.5710006,-1.8738458999999998,-0.05581563,-0.22355922,-0.121789075
7.620639,-5.0890765,-1.9398012999999998,0.009110618000000001,-0.50727993,-0.24315926
8.180365,-5.5658297999999995,-1.522626,0.1113171,-0.7149043,-0.39488074
8.744774000000001,-5.9785322999999995,-0.9022405000000001,0.20820032,-0.82348126,-0.59662336
9.371594,-6.6115975,-0.43815807,0.2326873,-0.79634136,-0.8782148000000001
9.709982,-7.3485804,-0.29829836,0.22682299,-0.7383265999999999,-1.134272
10.090612,-7.766532000000001,-0.72590286,0.25185102,-0.77611303,-1.2912993000000001
10.532208,-7.708391000000001,-1.2065053,0.26302109999999995,-0.86500263,-1.3881825
11.225166999999999,-8.107169,-1.8247361,0.18797196,-0.8932245999999999,-1.416928
10.989376,-8.589792,-1.8708580000000001,0.10225884,-0.8170933000000001,-1.3977643
10.970539,-8.864455,-1.5386289,0.044244096,-0.66006607,-1.4100165
10.95285,-8.681558,-0.9604963,0.029338984,-0.45937064,-1.4307686000000002
10.460219,-7.785925,-0.30069256,0.09854129,-0.29860840000000005,-1.4190573999999998
10.012361,-6.855538,0.029640216,0.22895229,-0.23260003,-1.3711481
9.849105,-6.5383735,0.024765624,0.3439346,-0.27679175,-1.3232563
9.440749,-6.900079700000001,-0.04390008,0.36203364,-0.31298990000000004,-1.2779999
8.711801,-7.233869599999999,-0.034897886,0.24598670000000003,-0.27892107,-1.2199677
8.148636999999999,-7.5132637,-0.19557755,0.07831292599999999,-0.19214329,-1.0810393999999999
7.5413619999999995,-7.5194407000000005,-0.191268,-0.07178539,-0.0665145,-0.8297819
7.0181046,-7.1293869999999995,0.23812729999999996,-0.13459979,0.03673918,-0.5295504
6.6118179999999995,-6.621691,0.7328555999999999,-0.1553692,0.20601867,-0.2878746
6.1003300000000005,-6.409364,1.1030662,-0.1601514,0.3204599,-0.057910025
5.7474823,-6.4512243,1.3450625,-0.18996164,0.3034255,0.21516418
5.449318,-6.498189,1.26908,-0.22190116,0.18151425,0.50260246
5.186923,-6.447729,0.9313732,-0.30761427,0.06070255,0.82520914
5.059868,-6.541629299999999,0.42967302,-0.45080109999999995,0.11391764,1.0365335999999998
4.8123645999999995,-6.7372646,-0.017764976000000002,-0.6525611,0.31833062,1.2292353999999999
4.250091,-7.0229216,-0.040117245,-0.82396996,0.5168967000000001,1.3766983
3.5165174,-7.039566000000001,0.26898375,-0.87879074,0.5908812,1.5342666
3.2893841,-6.752979799999999,0.8059841,-0.7249574000000001,0.50145054,1.709934
3.6770053,-6.797072,0.8816025,-0.2682222,0.3156777,1.886666
3.9966314,-7.496274499999999,0.48929822,0.43868852,0.004782202,1.9020947
4.507209,-8.469795,-0.15447389,1.1898084,-0.4077438,1.6290205
4.8226976,-8.998261999999999,-0.5068621,1.4495832,-0.55679494,1.1930372999999999
5.422330400000001,-8.953539,-0.62358415,1.1977845,-0.26986279999999996,0.8118923000000001
6.525464,-9.3610325,-0.7862271,0.81025165,0.26031587,0.6026971
7.387185000000001,-9.942326,-0.78245384,0.39557886,0.7255683,0.5510528
8.18249,-10.672977000000001,-0.64255583,0.26834437,0.92732835,0.5643697
8.180173,-10.879004,-0.049856856,0.26302109999999995,0.85652035,0.54733527
7.6890364,-10.2108965,1.1862024,0.27527332,0.67233574,0.47813293
7.9963655,-9.422122,2.3752299999999997,0.20978858,0.52700216,0.40838959999999996
9.442109,-8.767930999999999,2.5868106,0.052761300000000004,0.39337975,0.404131
11.091522,-7.874500299999999,1.2301792,-0.123429686,0.24699899999999997,0.46375144
11.626195,-7.050292,-1.13421,-0.29057986,0.20973621,0.5105960999999999
10.714608,-6.357295,-2.5788236,-0.39491564,0.20867157,0.5372123000000001
9.157793,-5.932899,-2.35871,-0.39065704,0.15863298,0.5409473000000001
7.515255499999999,-5.278774299999999,-2.1787042999999997,-0.30867893,0.10060078,0.5292361999999999
6.3779907,-4.6308264999999995,-1.2972552,-0.17559758,0.08677777,0.44779912
5.976205,-4.0637360000000005,-1.0530082,-0.051557027000000005,0.08784242,0.29820696
5.6989279999999995,-3.6540019999999998,-1.2111596000000002,0.080965824,0.03939208,0.16564920000000002
5.453905000000001,-3.634992,-1.5510501,0.15709709,-0.04469788,0.10231119999999999
5.204487,-3.9446866999999997,-1.8494251,0.13048081,-0.12613495,0.0027750734999999996
5.242325,-4.3126373,-1.7155987000000001,0.0027227136,-0.16393878,-0.11540117
5.8834634,-4.850594999999999,-1.3497648000000002,-0.045710173,-0.23898794,-0.12337732
6.674211,-5.4010415,-0.8620370999999999,0.07298967,-0.5035449000000001,-0.15690510000000002
7.322187,-5.896909,-0.45609543,0.25982717,-0.9219702,-0.2144137
7.918171000000001,-5.9444485,-0.09875604,0.45732862,-1.3393133,-0.2942625
8.566386999999999,-5.977048,0.19441876,0.516408,-1.4883468999999998,-0.46565384
9.301378,-6.3802123,-0.13235147,0.43655920000000004,-1.4122331,-0.77707297
9.651679,-7.033225999999999,-0.49013140000000005,0.3024132,-1.2466712,-1.1411835
9.839029,-7.424678299999999,-1.0174017,0.14910348,-1.1609756000000002,-1.3993527
10.387876,-7.670601,-1.6085778,-0.037716564,-1.1396825000000002,-1.5287164
10.319315,-8.125633,-1.7669017,-0.34168312,-0.97679096,-1.610171
9.854937,-8.415417999999999,-1.1588416000000001,-0.62594485,-0.68668234,-1.7043839
10.245133000000001,-8.912177,-0.6995091,-0.74251544,-0.36301103,-1.8204308
10.597609,-9.367171,-0.7203387,-0.6057165,-0.16817993,-1.9433892
10.578215,-8.49934,-0.50298345,-0.33049554,-0.05799729,-2.1116214
10.399636,-7.074397,-0.47707823,-0.11543608,0.030351276,-2.2372330000000002
10.462661,-6.2665067,-0.49833873,-0.036128316,0.14959218,-2.267584
10.052659,-6.4878273,-0.53511363,-0.077108644,0.2938611,-2.2095518
9.447194,-7.335833999999999,-0.8571338,-0.1968906,0.44024184,-2.0796645000000002
9.024713499999999,-7.923045599999999,-1.0342376,-0.3571118,0.56960565,-1.8864391
8.719932,-8.01641,-0.89259666,-0.5221327,0.6856526,-1.6357051
8.300496,-7.6822175999999995,-0.112153985,-0.6232745,0.75857246,-1.3354735
7.851497,-7.447058999999999,1.0788751,-0.6738542,0.7926413,-1.0027789
7.524420299999999,-7.2230669999999995,2.0565712,-0.7143109000000001,0.7362321999999999,-0.6402566
7.2501983999999995,-7.154640700000001,2.2745013,-0.81278235,0.64093727,-0.22930136
6.583212,-7.3675619999999995,1.7050834,-0.99750805,0.5802522,0.22474605
6.039671,-7.716224700000001,0.9351176999999999,-1.2338605,0.5914397,0.64156556
5.4141517,-8.008422999999999,0.3520051,-1.5266395000000001,0.7000166999999999,1.0466565
4.7592225,-8.110186,-0.063743226,-1.8066427,0.79689986,1.5018034
4.058507,-7.937602,-0.22217235,-1.8130306,0.7458140999999999,2.0069716
3.192036,-7.5604773000000005,-0.080809094,-1.4228273999999999,0.54937726,2.4509485
2.6459088,-7.381429,0.17252617,-0.60252255,0.2571219,2.8480458
2.624543,-7.728598,0.01853112,0.44401175,-0.15699236,3.0875921
2.8040316,-8.156155,-0.24968651,1.1051598999999999,-0.5099328,3.0045495
2.8484104,-8.428289,-0.69691384,1.214819,-0.5860641,2.6223397
3.358768,-9.061,-1.0137528,0.79482293,-0.29593801,2.158693
4.448780999999999,-9.950292999999999,-1.1769223999999998,0.18797196,0.21348867,1.7818066000000004
4.9063516,-10.906317,-1.2086313999999998,-0.23148301,0.7585899,1.5332193
4.702557,-11.376078,-0.407541,-0.27300440000000004,1.1519697,1.3389118999999998
4.7235017,-11.305736999999999,1.223552,-0.20008455,1.2233013000000001,1.2382936000000002
5.4821663,-11.045103,2.954445,-0.16175711,1.2121311000000001,1.124376
6.891298,-10.779031,3.927985,-0.27673942,1.0827673999999998,1.0264456
8.994336,-10.363196,2.931882,-0.44015458,0.8128871,0.99928826
11.273577000000001,-9.309298,0.4805929,-0.6387206999999999,0.5382071999999999,1.0605145
12.511724000000001,-7.720217999999999,-2.1924853,-0.79841834,0.24490460000000003,1.1749556
11.859966,-5.9918633,-3.2666008,-0.85910344,0.06443755,1.2494812
10.445596,-4.820361,-2.7816028999999998,-0.81651735,0.034627332999999996,1.1163999
9.1544895,-4.125985,-1.4575613,-0.66853094,0.19804251,0.7762526
8.104871000000001,-4.0401387,0.10091081,-0.35924113,0.34922293,0.45685738
7.360207000000001,-3.8430864999999996,-0.3356862,-0.023876105,0.29600784,0.25937337
6.9626927,-3.637549,-0.9274946,0.11770499999999999,0.1150172,0.08796459400000001
6.819385499999999,-3.8634657999999997,-1.6553509999999998,0.02242748,-0.020699605,-0.1010022
6.793212,-4.4907374,-2.0569832,-0.11756538,-0.11599458,-0.30489156
7.087747,-5.1707673,-2.1306767000000004,-0.22137757,-0.2645221,-0.6029938
7.982661200000001,-5.6717777,-1.6037799,-0.28419197,-0.5226912,-0.88938487
9.117235,-5.583469999999999,-0.61471605,-0.14631096,-0.7712959,-1.0623818999999999
10.676683,-5.063382,0.33200872,0.19861847,-0.9182176999999999,-1.2529544
11.752934,-5.046412,1.0681492,0.51321405,-0.88840747,-1.5611795
11.860319,-5.6582555999999995,1.4497082000000001,0.7980169,-0.8298517,-1.8800337
11.569702000000001,-6.1498523,0.5086721,0.9316393,-0.83782786,-2.1121275
11.726714,-6.491006400000001,-0.75870335,0.91458744,-0.9432457000000001,-2.2340388
12.043265,-7.028714999999999,-1.6042972,0.74265504,-0.99272585,-2.25692
12.509369,-7.501034,-1.5286594999999998,0.47169268,-0.835175,-2.2867303
13.202786999999999,-8.787936,-1.2527901000000001,0.21191788,-0.47797588,-2.3681848
13.35864,-10.2853565,-0.8240651,0.06340781,-0.018046705,-2.4480162
12.165313000000001,-9.935725999999999,0.85556316,0.08363618,0.22626448,-2.4943372999999998
11.03116,-8.260322,2.1154687,0.13367477,0.39610246,-2.4416285
10.421403999999999,-7.553658500000001,2.3391349999999997,0.21619393,0.3891735,-2.3170642999999997
9.72407,-7.692139,1.8893316000000002,0.22097613,0.28696704,-2.1557784
9.018833,-8.097611,0.7940035,0.14805628,0.22148228,-1.9641411
8.310322,-8.530091,-0.036276944,0.06021386,0.20818287,-1.6601746
7.862903,-8.467161,-0.45877692,-0.025464353999999998,0.19540706,-1.2417668
7.7099614,-8.135660000000001,-0.21995051,-0.05794493,0.19699532,-0.7568271
7.673828,-8.12978,0.23938186,-0.022811454,0.20498893,-0.40388665
7.301616,-8.299767999999998,0.7981215,0.0037873646000000003,0.17198475,-0.071174525
6.5259714,-8.407287,0.9551812,-0.026529005,0.05487315,0.31419417
5.409555,-8.250945,0.83798975,-0.13405874,-0.08510225,0.8103389
4.553082,-7.994335700000001,0.8298399,-0.36349973,-0.20488420000000002,1.3011255
4.050501000000001,-7.917739999999999,0.18276379,-0.7105759,-0.22350687,1.6812233
3.3269827000000003,-7.8093495,0.079707764,-1.1630526,-0.13035864,2.004877
2.4587493,-7.537225,0.1209838,-1.5069348,-0.035604715,2.3498064999999997
1.5066614999999999,-6.9557495,0.31172508,-1.4302799,-0.08032005,2.7501328
1.1088122,-6.3170724,0.7942716,-0.8356636000000001,-0.24000022,3.0274656
1.6244658,-6.225384,0.8453447000000001,0.08257153,-0.46198866,2.9705155
2.1211189999999998,-6.866657000000001,0.24861391,0.8480555000000001,-0.60891044,2.4525542000000002
2.5158462999999998,-7.8615527,-0.48140693,1.1509573,-0.62433916,1.7259387
2.885061,-8.535186,-1.0985171999999999,0.9784839,-0.32836625,1.1440983
4.1498985,-9.154241,-1.765264,0.5888217,0.24972170000000002,0.8768709000000001
5.698698,-10.163961,-2.267759,0.28804913,0.8208982,0.78424627
6.8897943,-11.461944,-2.1863754,0.19383627,1.1658624,0.7475245
7.5018673,-12.3262415,-1.0700263,0.19277161,1.279239,0.69642127
7.8613133,-12.130711,1.1417851,0.20394172,1.155216,0.61179024
9.322821000000001,-11.211931,3.0937588,0.16880825,0.9140638000000001,0.55801666
11.690877,-10.135125,3.3082027000000003,0.029880037999999998,0.6745174,0.57983327
13.845410000000001,-8.845148,1.6193901000000002,-0.19315559,0.5701816,0.70174456
14.009557000000001,-7.838664,-0.41676348,-0.46038294,0.58615136,0.90668106
12.075472999999999,-7.016016499999999,-1.7185675,-0.5844060000000001,0.49192104,1.0445620999999998
9.771925,-6.1897297,-1.8417634999999999,-0.5854706999999999,0.37109190000000003,1.0860835
7.9736686,-5.188082,-0.997185,-0.6179513000000001,0.27527332,1.0977947
6.8144149999999994,-4.4735947,-0.47222278,-0.61741024,0.14325662,0.98281235
6.342231,-4.0632477,-0.4309563,-0.5849470999999999,-0.0073652896,0.803951
6.047562,-3.9910097,-0.8599110999999999,-0.52532667,-0.12128293,0.6958977
5.446828,-3.9558915999999997,-1.2575306,-0.5200034,-0.15695746,0.556952
4.955883,-4.1426105,-1.6243412,-0.61421627,-0.11276572,0.3578623
4.7767487,-4.6332207,-1.8183004,-0.69832367,-0.0132295955,0.14706144
5.1299605,-5.0881095,-1.763138,-0.71589917,0.019216076000000002,-0.120148465
6.2284966,-5.228170400000001,-1.1105361,-0.50083965,-0.19261454,-0.35224235
6.875908,-5.1169357,-0.77088505,0.0479791,-0.5833414000000001,-0.54972637
7.790761,-5.1567755,-0.7373949000000001,0.42964769999999997,-0.8271639000000001,-0.9399296
8.988321000000001,-5.473058999999999,-0.65225714,0.5281366,-0.7829547,-1.3844126
9.824128,-6.219485,-0.6305465,0.47916270000000005,-0.63817966,-1.7841977
10.272131,-6.7984695,-0.54334015,0.39557886,-0.46303585,-2.0870821
10.999796,-7.194298299999999,-0.8184339,0.32318259999999993,-0.23465952,-2.2324157000000002
11.526817,-7.640223,-0.8486679,0.29869565,0.061295964,-2.2510383
11.743359,-8.141713000000001,-0.50911266,0.35246924,0.36098644,-2.178642
12.39166,-9.463198,-0.19175641,0.52707195,0.51536083,-2.0514076
12.670632000000001,-10.701095,0.61854684,0.72136205,0.44935247,-1.9433542000000001
12.3265,-9.756822999999999,1.6703675,0.8704130999999999,0.21991149,-1.8555293000000002
12.237272,-8.59394,1.0592906000000002,0.8906415000000001,-0.037175514,-1.789521
11.707723,-8.168097,0.43141598,0.7501076,-0.20804325,-1.7176483
11.102478999999999,-8.544657,0.032283418,0.47277477,-0.29002136,-1.6191593
10.047641,-8.912435,0.028596345,0.1805194,-0.2889567,-1.4621321000000003
8.615860000000001,-8.913267999999999,0.43515095,-0.10637782,-0.21177825,-1.2273678999999997
7.2981205000000005,-8.660822999999999,0.7752329000000001,-0.3187844,-0.0829555,-0.9899508
6.268307,-8.361347,1.1951376,-0.5311735,0.056496307,-0.77384406
5.5659733000000005,-7.977192999999999,1.1624423000000002,-0.771261,0.13688618,-0.55503213
5.191453,-7.568061999999999,0.6643335,-1.0581757,0.13103932,-0.22659610000000002
4.959292,-7.237882000000001,0.029946674,-1.2599357,0.050649453,0.18912388
4.833472,-6.953614,-0.6374227,-1.2684528999999998,-0.094125606,0.60540235
4.6313057,-6.735244000000001,-1.2973317,-1.1625115,-0.16652186,0.93598515
4.171581,-6.473644,-1.5676275,-1.0794687,-0.15961036,1.2617683000000002
3.4760265,-6.205550700000001,-1.4623496999999999,-1.0310358,-0.20059069,1.655148
2.8742104,-5.834152,-0.9463896999999999,-0.8090474,-0.32728413,2.1145537
2.7654276,-5.8317676,-0.45091435,-0.4827406,-0.32354912,2.403074
3.0356083,-6.3715067,-0.6792829,0.17306685,-0.35548866,2.4557830000000003
3.201584,-7.3127830000000005,-1.1332715,0.8975704999999999,-0.34644786,2.1443639
3.0529330000000003,-8.147592999999999,-1.1105648000000001,1.2031252000000001,-0.18088593,1.54603
3.0355701,-8.536411,-0.23072442,1.038628,0.16563174,0.9689894
3.7207332,-9.108147,0.71428615,0.70593333,0.5792573000000001,0.6618463000000001
4.690193,-9.963202,1.0596546,0.44561747,0.93378603,0.5367411
5.7947917,-11.482744,0.73943484,0.31466540000000004,1.2036663,0.4867025
6.150560400000001,-12.370696,0.6750595,0.31627113,1.3213190000000001,0.5101247999999999
6.674498,-11.836895,1.6227994,0.40357247,1.2420111999999999,0.5729392
8.200332000000001,-11.263809,2.3495452,0.44668213,0.9779778,0.62777746
10.618294,-10.650031,3.0768173,0.39770818,0.5930978,0.7385012
13.006061,-9.885342999999999,1.8258853,0.26197392,0.23537510000000003,0.8950048
13.716496,-8.674355499999999,-0.31007785,0.09960594,-0.068032935,0.99667025
11.884032000000001,-7.208692599999999,-1.6128013,-0.029722957,-0.23357742,1.0211747
9.099231,-6.022873000000001,-1.610838,-0.11489502,-0.18673277,0.95301956
7.254,-5.0255733,-0.9988226,-0.2080607,-0.008412487,0.8002509
6.157235,-4.499289,-0.6269553000000001,-0.23732987,0.059184115,0.6112666999999999
5.4655510000000005,-4.358567,-0.5003211,-0.17292722,-0.087720245,0.4696681
5.146739,-4.1931567,-0.69640625,-0.04462807,-0.4326670999999999,0.408983
4.9407606,-3.9855794999999996,-1.39717,0.028274333,-0.6956533,0.31689942
4.829928400000001,-4.0072904000000005,-2.0105261999999997,-0.0031066859999999996,-0.8031656,0.17797123
5.343130599999999,-4.106104,-2.3924491000000003,-0.08402015,-0.8063596,-0.007801621700000001
6.490259,-4.1614485,-2.2618022,0.010716322,-1.0405828000000001,-0.19092156
7.654128999999999,-4.303731,-1.8109168000000002,0.36950365,-1.5249989,-0.25638887
8.627171,-4.183791,-1.39762,0.5797635,-1.9854691000000002,-0.5092522
9.320128,-4.368556,-1.1918911,0.3450167,-1.9779991000000001,-0.9627934000000001
9.729931,-5.029873,-1.0122972,-0.043039817,-1.5782315,-1.4126171
9.875355,-6.054764,-1.0322361,-0.26768115,-1.1018089,-1.6537519
10.074494,-6.658820599999999,-0.8823015999999999,-0.31771973,-0.6370800999999999,-1.7532879000000001
10.589545,-7.002341,-0.95780516,-0.21019000000000002,-0.29958576,-1.7809688999999997
11.164383,-7.603438400000001,-1.0024523,0.0479791,-0.122853726,-1.799609
12.046397,-9.07366,-0.980598,0.35246924,-0.121789075,-1.8491066000000003
12.384707,-10.666667,-0.42197326,0.5973389,-0.26019368,-1.8970331999999999
12.171748,-10.340395,0.36742377,0.7586248000000001,-0.46247736,-1.9257613
12.719513000000001,-9.305899,-0.42118797,0.7788531999999999,-0.62748075,-1.9619595
12.983736,-8.953346,-1.0935947,0.6095736999999999,-0.6631553000000001,-2.008804
12.416081,-9.270234,-0.5928714,0.29550170000000003,-0.5226214,-2.0295737000000003
10.866219000000001,-9.584909,0.47694412,-0.04675737,-0.28307495,-1.9827290000000002
9.211825,-9.211681,1.4291565,-0.34965926,0.015009831999999999,-1.8528415
7.8725179999999995,-8.423731,2.1811275,-0.58227676,0.28968975,-1.6776978
6.931692999999999,-7.571643400000001,2.6092107,-0.792554,0.51326644,-1.5334463
6.3282676,-6.952896000000001,2.2589867000000003,-0.9927084,0.633572,-1.3205161
5.8979053,-6.621815700000001,1.5797709,-1.1140785,0.66179395,-0.96809924
5.5868405999999995,-6.3819837999999995,0.9753116,-1.1156669,0.64634776,-0.5848424
5.365636,-5.960614,0.21946210000000002,-1.081598,0.6963864000000001,-0.26490608
5.141098,-5.7061872000000005,-0.31160057,-1.0970441,0.8661895000000001,0.012409291000000001
4.82944,-5.8125377,-0.6041624,-1.3110389999999998,1.1616387,0.27324873
4.651656,-6.270912,-0.517454,-1.4882946000000001,1.3543406,0.56070447
4.285928,-6.636296300000001,-0.2106323,-1.420698,1.3442352,0.8875697
4.0691370000000004,-6.7315664,0.08533893,-1.0006845,1.1307638999999998,1.0137222
4.221101999999999,-7.149584299999999,0.10207918,-0.35870007,0.8662069,0.9711361
4.2787642,-8.160722999999999,-0.05303636,0.12515756,0.6612529,0.9322851000000001
3.9740492999999995,-8.709684,0.3903698,0.29391345,0.584598,0.94345516
4.109044,-8.466366,0.9885563,0.19329521,0.6846751999999999,0.9881705
4.8728323,-8.141636,1.1965071000000003,0.06288421,0.85341364,0.9322676
5.813208,-8.056919,0.8642588999999999,0.043179445,0.96361375,0.7826929
7.041816000000001,-8.671032,0.27654943,0.091106184,1.0221870000000002,0.6347239
7.3853273,-8.91413,0.66816425,0.10175269999999999,0.9902474,0.5122715999999999
8.119428,-8.125442,2.0515723,0.037873644,0.8097804,0.48671997
9.689976,-7.744591000000001,3.0226889999999997,-0.14522885,0.59897953,0.5873381999999999
10.975576,-7.7325344,2.898612,-0.39170423,0.30354765,0.77311105
11.329525,-7.481957,1.4459159,-0.53010887,-0.038187806,0.88596404
11.155429,-6.829949000000001,-0.35476324,-0.5189212999999999,-0.32138494,0.95197237
10.583196000000001,-5.519813,-1.217758,-0.46303585,-0.48055896,0.9626189
10.051480999999999,-3.8091557000000003,-1.0569539,-0.41512656,-0.54176766,0.907257
9.118164,-2.5841193,-0.75137717,-0.39383355,-0.5577373999999999,0.86947066
8.104056,-1.8014452,-0.9034568000000001,-0.29534462,-0.6886895000000001,0.9349554
7.036501400000001,-1.292706,-1.4276146,-0.11328932,-0.9708219000000001,1.048332
5.973294,-1.1950705,-1.8965523999999998,0.077265725,-1.2098273000000002,1.0754893
5.297315,-1.3045622,-2.3682293999999997,0.09801769,-1.1555476,0.85775954
5.3318395999999995,-1.589817,-2.2925055,-0.07124434,-0.72382295,0.48993137
6.3106556,-1.8611662,-1.2565346000000002,-0.09892526,-0.28838074,0.25516713
7.1443553,-2.3466241,-0.2450226,0.05969026,-0.18245672,0.20458749
8.111038,-2.738689,0.24062684,0.439247,-0.57531285,0.3451214
8.852924,-3.2534997000000003,0.5054350999999999,1.0860136999999999,-1.4057231000000001,0.47874382
9.298782000000001,-4.234155,0.67642903,1.4006268,-1.9252901000000002,0.29934140000000004
9.653296000000001,-5.2529072999999995,0.8537244,1.304267,-2.022697,-0.039723694
10.430159,-5.8513527000000005,1.1030375,1.0125527,-1.8273423,-0.36550686
11.56906,-5.6063395,1.1064947,0.71818554,-1.4616258999999998,-0.6540272
12.898513000000001,-5.247113,0.6977757,0.4892856,-1.0192548000000001,-0.8717396000000001
12.987548,-5.576038,0.81852967,0.27262044,-0.46457174,-1.0671117
11.716447,-6.4780107000000005,1.5833719,0.17680185,0.045361105,-1.2491671
10.688626,-8.0903425,1.7137407999999998,0.28274333,0.30832985,-1.4807199
9.965568,-9.231467,2.0134373,0.52068406,0.24659757,-1.725066
10.709054,-8.790608,1.6809306,0.6676059,0.18217747,-1.8836988999999997
12.185232000000001,-7.957723,0.11776599,0.7426725000000001,0.11936307,-1.8341839
12.491010000000001,-7.48822,-1.1045411,0.66547656,0.10180505,-1.6643808999999998
12.05448,-7.225356,-1.1254183999999998,0.47703338,0.14332643,-1.4982953
11.431384,-7.052408,-0.7054275999999999,0.23216370000000003,0.20401153,-1.2912121
10.54009,-6.67196,-0.29359615,-0.016947147,0.2311514,-1.0149438
9.488021,-6.0902457000000005,0.14627615,-0.26607543,0.20135863,-0.71151835
8.502939999999999,-5.5350209999999995,0.7820229000000001,-0.51253337,0.1704663,-0.37615335
7.666703,-5.2242823,1.2730927,-0.72706926,0.14013249,0.02094395
6.824892,-5.193071400000001,1.205854,-0.9708743000000001,0.07093018,0.50003684
5.697472,-5.4517026,0.53573614,-1.1827398999999998,-0.08822639,1.0249097
4.3250775,-5.5612135,0.21873426,-1.3892821000000002,-0.21331415,1.4763217
3.6337182999999995,-5.540287999999999,-0.48772764,-1.6011476999999998,-0.28890434,1.8803653999999999
3.2451296000000003,-5.4691133,-0.8797638000000001,-1.660768,-0.32138494,2.252993
2.7627363,-5.430605,-1.0700166000000002,-1.2540715,-0.43528512,2.540449
2.3257947,-5.442423000000001,-1.107644,-0.19048524,-0.67057294,2.6495843
2.2483182,-5.717698,-1.1449839,1.1818322,-0.8968200000000001,2.3807514
2.5469327,-6.493372,-1.0172771,1.9925724999999999,-0.854775,1.6243081
3.026271,-7.770008,-1.1293928999999998,1.7780367,-0.3682121,0.5782974
3.6232123,-8.910836,-1.3208141000000002,1.0013827,0.37809068,-0.15097098
4.570052,-9.774999000000001,-1.0384514,0.15392059,1.2207531,-0.45387286
6.398983,-11.021296000000001,-0.9672096,-0.30333823,1.7871473000000002,-0.45813146
7.9282455,-12.424882,-0.6663351,-0.40819759999999994,1.9005414,-0.35271358
8.933647,-12.96332,0.62602633,-0.26872835,1.6652361,-0.24891886
9.762108999999999,-12.086313,2.9804077,-0.0834791,1.2031951,-0.15629423
11.422238,-10.597043,4.9531245,0.052778757999999995,0.69588023,-0.051417399999999995
14.020598000000001,-9.01258,4.211458,0.103340946,0.25511476,0.15404277
16.162806,-7.366202400000001,0.48855119999999996,0.06768387,0.028344147000000004,0.42127013
15.871652,-5.929930000000001,-3.3176646,-0.054209925,-0.07969173,0.68423885
12.695044000000001,-5.5131474,-4.4895015,-0.20910789,-0.14304718,0.89078116
9.266346,-5.3546324,-3.7313442,-0.4012861,-0.21064378,0.98127645
6.594100500000001,-4.835196,-2.092015,-0.51572734,-0.24312437,0.92537355
4.864597,-4.189853,-0.9264028,-0.56311303,-0.17922786,0.7603526999999999
3.9365847,-3.6479495,-0.3666672,-0.5354321,-0.08768534,0.63952357
3.2939427,-3.2489412,-0.3346232,-0.3869046,-0.10791371,0.59000856
2.8744402,-3.2783900000000004,-0.6048041000000001,-0.28576276,-0.19413297,0.53305846
2.5332567999999998,-3.5546427000000005,-0.83210003,-0.3262195,-0.22874285,0.36910224
2.8111088,-3.9521854,-1.0245748,-0.4949754,-0.07543313,0.15617207
3.9795175000000005,-4.3650703,-1.2542839,-0.5114687,-0.059463367,-0.02427753
5.264792,-4.799771,-1.3490368000000001,-0.22188371,-0.31339133,-0.15681784
6.68124,-4.8715587,-1.2159576,0.13953908,-0.5209808,-0.35058429999999996
8.154191,-5.0543512999999995,-0.6894534999999999,0.40624285,-0.5316273,-0.70830697
9.250629,-5.6978936,-0.30421686,0.5755223,-0.42036256,-1.0096030999999999
9.889356,-6.7363257,-0.010055647,0.72670275,-0.36501816,-1.1299086999999999
10.464653,-7.521614,0.14572069,0.8454026,-0.4752008,-1.0894518999999998
11.47425,-8.131878,-0.32773748,0.85285515,-0.6040409999999999,-1.0883874
12.98367,-9.23138,-0.9221985999999999,0.78525853,-0.61519367,-1.2549964
13.757054,-10.483011,-1.2556535,0.71286225,-0.46933648,-1.4780495
13.591145499999998,-11.17035,-0.30573955,0.6463129,-0.28675759999999995,-1.6803331000000001
12.612969999999999,-10.334274,0.9387569,0.61330867,-0.18722147,-1.8043563000000002
11.739623,-8.585626,1.4903715,0.5371949,-0.095120445,-1.8102206000000003
11.413964,-7.715659599999999,1.375306,0.38121483,-0.05572836,-1.6734042000000002
10.255008,-7.720544,0.8322724,0.15337953,-0.10791371,-1.4290756000000002
8.789525999999999,-7.590941,0.49055275,-0.11541862,-0.22446679999999997,-1.1575897
7.7332425,-6.9673758,0.038154,-0.35496506,-0.33944908,-0.87332785
7.501925,-5.802319000000001,-0.30584490000000003,-0.54127896,-0.36980036,-0.6225938
7.518253,-4.7413335,-0.16544892,-0.7398451,-0.31124458,-0.34367278
7.0016704,-4.3096585,0.084955856,-0.89847803,-0.21383774,-0.061522855999999994
6.223392,-4.4416175,0.1275056,-0.9628806999999999,-0.12386601400000001,0.25253168
5.334875,-4.8448205,0.062210935999999994,-0.9602278000000001,-0.09457939,0.5612804
4.3020835,-5.2632885,-0.34076193,-0.95490456,-0.1068316,0.90994483
3.4521322,-5.577293,-0.85847455,-0.91177744,-0.11482521,1.2602149
3.0550876000000002,-5.78759,-1.1276594,-0.8574803,-0.02963569,1.5423474
3.0256388,-6.020785299999999,-1.1129495,-0.943717,0.158249,1.5966446
3.1572718999999996,-6.3383519999999995,-0.72534734,-1.1566471,0.42017058,1.4401585
3.276628,-6.518989599999999,-0.35210088,-1.346696,0.6059434,1.3837144
3.211697,-6.5484385000000005,0.06330269599999999,-1.1433476999999999,0.5457819,1.5945153
3.4428620000000003,-6.9633055,0.4565647,-0.46355945,0.27481955,1.8425790000000002
3.9611205999999997,-7.8372564,0.74701005,0.49619709999999995,-0.18774506,1.8601545
4.6259136,-8.825275999999999,0.64218235,1.3032024,-0.6077411,1.5173368
5.151154,-9.455019,0.37931818,1.5273201,-0.57634264,0.93284357
5.8192124000000005,-9.377667,0.65866405,1.3181076,-0.1664346,0.44258058
7.0915585000000005,-9.581825,0.44128966,1.0439687,0.33498105,0.21046926
8.813324,-9.907945,-0.26709715,0.9007644,0.7171907,0.07792895
10.056853,-10.827316999999999,-0.73891765,0.93856823,0.88859946,0.016179202
9.148839,-11.62518,-0.20437863,1.0301281999999998,0.8737118,0.016179202
8.22302,-11.57835,1.6894444,0.9358979,0.857201,0.059829887000000005
8.974091,-11.157152,3.2140817999999998,0.6761231,0.8077035,0.18280579
10.972464,-10.645741000000001,3.1719916,0.38920844,0.6724928000000001,0.37550759999999994
12.856499000000001,-9.536776,1.4131154,0.14273302,0.4260174,0.5623451
12.814639,-8.109276,-0.7155599,-0.06857399,0.100234255,0.7385535
10.647053999999999,-6.502336,-1.351613,-0.2628815,-0.13768902,0.8306370999999999
8.044345,-5.070182,-0.99543244,-0.46090654,-0.21008529,0.8577944
6.518243,-3.9861543,-0.4987601,-0.5859943,-0.20795599,0.7992385999999999
5.448676,-3.430824,-0.23909456,-0.54447293,-0.22392574,0.68319166
4.666558,-3.0320264999999997,-0.74196315,-0.31079078,-0.28248155,0.58470273
4.031500299999999,-2.717936,-1.7270143,-0.066985734,-0.3511428,0.4750437
3.514353,-2.8272169999999996,-2.3424294,-0.011082841000000001,-0.34742525,0.26265459999999996
3.5161532999999996,-3.1502333,-2.6118155,-0.17451547,-0.20849703,0.06195919
4.1124529999999995,-3.7509382000000007,-2.6390326,-0.35124752,-0.18188076,-0.10677924
5.186617,-4.4681067,-2.4509156,-0.34538320000000006,-0.342102,-0.28403488
6.502364599999999,-5.06502,-2.206755,-0.18516198,-0.652439,-0.4767367
7.6707925999999995,-5.639973,-1.7243425,0.028291788,-0.9574701999999999,-0.70083696
8.720352,-6.381199,-1.0800436000000002,0.18425441,-1.1485838,-0.85946995
9.604149000000001,-7.185775,-0.36247256,0.22738150000000001,-1.2257621,-1.0010685
10.05831,-7.838099000000001,0.11702858,0.20128882,-1.2092688,-1.20974
10.716667,-7.907166999999999,-0.1453472,0.13369222,-1.08364,-1.4343814
11.604178,-8.430616,-1.2412499,0.14273302,-0.8935911,-1.5546868999999999
11.512012,-8.690693,-1.9457486000000002,0.25132743,-0.66523224,-1.5786504
11.416597,-8.835045,-1.6559256000000002,0.41634828,-0.42195079999999996,-1.590885
11.108655,-9.0048895,-0.66822165,0.53452456,-0.19678587,-1.6478526999999998
11.079925,-9.239828,-0.008389283,0.66867054,-0.12438962,-1.7292897
11.196034,-9.668514,0.12154883,0.8017519000000001,-0.21167353,-1.8160498999999999
10.568888000000001,-9.568321000000001,0.06163633,0.82410955,-0.3564835,-1.8160675
10.078056,-8.848998,0.08870038400000001,0.6883753,-0.41289255,-1.7090613000000001
9.654245,-8.1653,0.27982470000000004,0.41634828,-0.36074209999999995,-1.5461698
8.909724,-7.940073,0.68454057,0.15125023,-0.21593213,-1.3662437
7.691766,-7.684947,1.3559992,-0.068050385,0.07415904,-1.1730009
6.6513032999999995,-7.084184,1.9567237000000002,-0.23253022,0.3855607,-1.0000038
6.163384,-6.4190845,2.1170009999999997,-0.37732273,0.631495,-0.8062374
6.055070400000001,-6.180746599999999,1.6361973,-0.47474700000000003,0.66877526,-0.51399946
5.9741845,-6.2613735,1.25596,-0.5402143,0.5633748000000001,-0.13709562
5.6924157,-6.4620843,0.5516814999999999,-0.60037583,0.40954152,0.3334626
5.0676440000000005,-6.666587400000001,-0.06672161,-0.6887418000000001,0.3797313,0.7199309
4.4449309999999995,-6.717737,-0.6509643,-0.81276494,0.40952405,1.0504962
4.153969,-6.606349499999999,-0.9205322,-0.96820396,0.40845940000000003,1.3400812
4.0916904999999995,-6.4639044000000005,-0.6197535,-1.0911798000000001,0.36109117,1.7457131999999997
3.8638778,-6.218594,-0.24110568,-0.99801415,0.21575761,2.149757
3.8628817000000004,-6.433105,-0.07833828,-0.69300044,0.008150687,2.2535517000000005
3.8119330000000002,-7.211498700000001,-0.37108213,-0.3432539,-0.08232718,1.9756778000000002
3.6319466,-8.041127000000001,-0.64296764,-0.028117253999999998,-0.010978121,1.4838091
3.1964605,-8.267763,-0.69691384,0.020839231,0.21204005,1.0387851000000001
3.3643706,-8.193197,-0.6045071999999999,-0.16386896,0.54049355,0.8402364
4.723463,-8.774892999999999,-0.7718428,-0.22881266,0.7975979999999999,0.82691956
5.681,-9.601889,-1.1089846,-0.14257595,1.0163751,0.8647234
6.4039054,-10.893933,-1.4450444,0.063425265,1.1010236,0.9222145
6.65613,-11.478713,-0.9160311,0.32107076,0.9929527,0.95202476
7.4762397,-10.713565,0.33988085,0.509514,0.7821693000000001,0.93764323
9.6827545,-9.929272000000001,1.0931063,0.46106362,0.61182517,0.8849518
11.793061,-9.491008,1.1607186,0.1645671,0.5229180999999999,0.8764344999999999
12.580027000000001,-9.192911,0.5742349,-0.3091851,0.51014227,0.9600009
11.503679,-8.799408999999999,-0.52457917,-0.76911426,0.45371579999999995,1.1218278
9.150724,-7.9376693,-0.6796850999999999,-1.0869212,0.41060615,1.2448037
7.124511999999999,-6.4724083,0.32833123,-1.2471424,0.36322048,1.2708788999999998
5.7891607,-5.3158555,1.0444179,-1.289205,0.3557679,1.2378746999999999
5.0312905,-4.4183650000000005,1.2044078999999999,-1.1039556000000001,0.28443632,1.1878362
4.772516,-3.739992,0.8460534,-0.59344685,-0.018971728,1.1074636999999998
4.770398999999999,-3.2449095000000003,-0.09019437,-0.022794,-0.45441392,0.93977255
4.862988,-2.9865369999999998,-1.3958962,0.3636568,-0.87547463,0.6560518
4.800863,-3.1845757999999997,-2.4634516,0.35620424,-1.096381,0.3457148
4.9265870000000005,-3.7909980000000005,-3.0088124,0.09962339999999999,-1.0612648999999998,-0.03488913
5.4550160000000005,-4.6195545,-2.6391953999999997,-0.09573131,-0.9707696,-0.4532969
6.7083330000000005,-5.355542,-1.7985818,0.01870993,-1.0213318,-0.9142906999999999
7.781165,-5.7698730000000005,-0.84728885,0.16934929999999998,-1.0703056999999998,-1.4019008
8.678435,-6.304537,-0.001541866,0.29126054,-1.0160084999999999,-1.8676943
9.618561999999999,-7.1330447,1.012642,0.47970375,-0.9398947,-2.1748374
10.793109,-7.776482000000001,1.7580432000000001,0.72137946,-0.90422016,-2.3185651000000003
12.265389,-8.31873,1.0573177,0.8975704999999999,-0.93136007,-2.3164358
13.775701000000002,-9.004975,-0.6977757,0.96251416,-0.910067,-2.288214
14.996657,-9.957982000000001,-2.0551827,0.9348332,-0.82863,-2.331341
16.015524,-10.827767,-2.5883045,0.89969975,-0.7349406999999999,-2.4010844
15.538417,-10.6143675,-1.3488836000000002,0.9028937,-0.69821894,-2.4191835
13.979954000000001,-9.238247,0.27631962,0.91195196,-0.7498458,-2.359022
12.399178,-7.963785000000001,0.89161026,0.85978407,-0.84885836,-2.2168999
10.719062,-7.679075999999999,1.4059614,0.6947631999999999,-0.9340304,-2.0444088
9.19496,-7.926272999999999,1.8573066999999999,0.39931387,-0.98513365,-1.8650240000000002
7.9115343,-8.297892,1.7461008000000002,-0.002565634,-0.9036966000000001,-1.6520938000000003
6.9619365,-8.177472999999999,1.3593031999999998,-0.40926227,-0.67319095,-1.4157413
6.5327997,-7.6149024999999995,0.9418981,-0.6924594000000001,-0.31759757,-1.2017465
6.437769,-7.2086735,0.7824346999999999,-0.82979935,0.109851025,-1.0590832000000001
6.0464892,-7.1317906,0.7864378000000001,-0.86493284,0.5617866,-0.89458597
5.4233265,-7.2927003,0.7177051,-0.8148941999999999,0.8582831,-0.62098813
4.898996400000001,-7.596419,0.32548693,-0.7222696,0.8891754000000001,-0.17968164
4.4650044,-7.6957307,-0.110257775,-0.6216688,0.7273485,0.33613297
4.283504499999999,-7.676317999999999,-0.73355466,-0.5338264,0.48300242,0.7816806
4.1739364000000005,-7.620447,-1.0590703000000001,-0.48219955,0.40795326,1.1106577
4.083952399999999,-7.670055400000001,-1.1522622,-0.49017572,0.515483,1.363521
4.0011706,-7.469727499999999,-0.43262267,-0.5098805000000001,0.58522636,1.7015388999999999
4.0204487,-7.025603,0.56420803,-0.37519342,0.48832566,2.1135588
4.166275,-7.0866838,1.2771055,-0.014817845,0.2812598,2.400491
4.1223273,-8.006354,1.3079332000000001,0.45947537,0.025726152999999998,2.5138675999999998
3.8684459,-9.183477,0.95748913,0.8720189,-0.19994491,2.452659
3.1722887,-9.599686,0.6086060999999999,0.99925333,-0.189822,2.1854315
3.1864717000000002,-9.752502999999999,0.33812833,0.77513564,0.13805555,1.8356848999999997
4.1755934,-9.800042,0.23632686,0.37376225,0.70073223,1.5833627000000001
5.3912153,-10.125347,0.13462117,0.10653489999999999,1.1452153,1.4635983
6.186416,-10.735025,-0.17558117,-0.010018189,1.4055309999999999,1.3901373
5.918696400000001,-11.158368,-0.18597202,0.007522369300000001,1.4385351999999998,1.342228
6.4117484000000005,-10.866802999999999,0.49828124,0.012322023999999999,1.2633915,1.265032
7.7856380000000005,-10.642629,0.8437742,-0.076026544,0.99935806,1.186248
9.506464999999999,-10.512174,0.59423125,-0.26926940000000005,0.7273485,1.1617608999999998
10.862789999999999,-9.846689999999999,-0.20225258,-0.538085,0.5165476,1.2309808
11.59486,-8.567822999999999,-1.5460508999999998,-0.79040724,0.38400733,1.3262582
10.703403,-6.9356003,-2.197791,-0.9506459,0.3163933,1.3699089
8.904457,-5.521719,-1.9181960999999998,-1.0028138,0.27806586,1.3651093
7.358071300000001,-4.452966,-1.2241362,-0.9399994,0.30414107,1.2474741000000003
6.428259400000001,-3.853008,-0.75544727,-0.65626127,0.2753955,0.9967401
5.959417,-3.3977553999999994,-0.6671491,-0.13404128,0.03213151,0.7055668
5.822124,-3.1729013999999998,-1.2068596,0.3098832,-0.30482176,0.4521799
5.8767404999999995,-3.2602708,-1.7602363,0.36791540000000006,-0.47942448,0.19240509
5.916915,-3.8357983,-2.296049,0.12091641,-0.45224970000000003,-0.10674433400000001
6.283132599999999,-4.849925,-2.4306989,-0.102119215,-0.29311058,-0.33777356
7.342969,-5.7962666,-2.0086875,-0.13829988,-0.3085393,-0.60074234
8.505162,-6.4380370000000005,-1.3636032,0.092170835,-0.72855276,-0.8072845999999999
9.413312,-6.549549,-0.57734734,0.47918016,-1.266184,-1.0191501
10.403458,-6.461165,0.17855957,0.6772052,-1.5909026000000002,-1.2730606000000002
11.392406,-6.672726600000001,1.0366031,0.6383367,-1.671816,-1.5264475
12.073450999999999,-7.161574400000001,1.0613591999999998,0.4413763,-1.5749327,-1.7803755
12.202767,-7.3643054999999995,-0.15495273,0.1773429,-1.3279338,-2.052926
12.639719,-7.23274,-1.8478926,0.061837014,-1.1017041,-2.2184706000000003
12.717722,-7.538125,-2.3197134,0.07087782,-0.8701339,-2.3185477000000003
12.307537,-7.6801585999999995,-1.6185378000000001,0.16510814,-0.641234,-2.397873
12.023059,-8.267399000000001,-0.79914623,0.30403635,-0.40062287,-2.4867625
11.380752000000001,-8.753815,0.16383043,0.39985493,-0.20420352,-2.5554414
11.41295,-8.900091,0.5731623,0.510055,-0.14830063,-2.5687406000000004
11.384554,-8.905051,-0.12694058,0.6058736,-0.22867304,-2.5304132000000004
11.046857000000001,-8.633664,-0.47968310000000003,0.63248986,-0.3702716,-2.4447176
10.656199,-8.515467,-0.5793202,0.5728694000000001,-0.46876052,-2.3382525000000003
9.990966,-8.683885,-0.12093591,0.41156608,-0.45120249999999995,-2.1902661
9.054431,-8.870642,0.76490915,0.17575465,-0.2968107,-2.0066051
8.291121,-8.836768,1.4315411,-0.054192472,-0.034382987999999996,-1.7601471000000002
7.853077000000001,-8.613811,1.8162223000000002,-0.26286402,0.25199065,-1.5418937
7.4119600000000005,-8.395086000000001,1.7935827000000002,-0.49815187,0.5075242999999999,-1.2938125
6.758132499999999,-8.284091,1.4598405,-0.70788807,0.65442866,-0.9249198000000001
6.003767,-8.226573,1.1999547,-0.8537453000000002,0.6943618,-0.3569373
5.3705099999999995,-8.122836999999999,0.8178593000000001,-0.95595175,0.68317425,0.2802475
4.8947825,-8.008192999999999,0.359906,-1.0427295,0.6400646,0.8721934000000001
4.552852,-7.9016223,0.02987006,-1.172617,0.6469760999999999,1.3305343
4.1375155,-7.6750064,-0.2100098,-1.3397671,0.6555108000000001,1.7436188000000001
3.6682042999999998,-7.421786,-0.21126436,-1.4004521,0.48727846,2.1998130000000002
3.1934245,-7.147247999999999,0.00089064304,-1.2231791,0.22643901,2.6160915
3.0698933999999998,-7.27347,-0.15657121,-0.8106356,-0.058869954,2.846056
3.1061318,-8.037583999999999,-0.63820803,-0.24157102,-0.32129768,2.8811896
2.524523,-8.6707735,-0.7324341999999999,0.18959512,-0.44638540000000004,2.7651427
1.7046907999999998,-8.838301,-0.5363778,0.29712486,-0.36761869999999996,2.5665765
1.9717783,-9.187769,-0.44375092,0.19278906,-0.15947074,2.386127
2.9106118999999997,-9.420781,-0.5073313,0.11346386,0.09868091,2.2652977
4.1441145,-9.86823,-0.7284694,0.19863592,0.30628783,2.1912959
4.677676,-10.569078999999999,-0.8332492,0.4238183,0.4665265,2.1348693
5.0100684,-10.8517,-0.06228755,0.6798581,0.5341231,2.016693
6.10191,-10.925978,1.0027875,0.7277674,0.5213473,1.7712823
7.9615827,-10.930096,1.6799155,0.5542293,0.44949209999999995,1.571669
9.660269,-10.813115,1.6593446,0.23909265,0.34835026,1.4449755
10.798013000000001,-10.284735000000001,0.4925639,-0.10955431,0.2775597,1.3757732
11.044117,-9.429765,-0.6953719,-0.40074503,0.19238764,1.2639848999999999
10.209996,-8.185889999999999,-0.91698885,-0.57641244,0.17587683,1.141009
9.088944999999999,-6.8680167,-0.19184259,-0.6924594000000001,0.25679028,1.0079451
8.269276,-5.76382,0.5096585,-0.67914253,0.32651618,0.80245
7.900722,-4.903957,0.7704445,-0.46834165,0.21155135,0.51075315
8.197306,-4.125985,-0.0020685901,-0.23785347,0.04173082,0.23766148
8.328135000000001,-3.7112138,-1.3666774,-0.12233013,0.0065973448,0.0050440015999999996
8.048061,-3.7696513999999994,-2.3258042000000003,-0.16172221,0.10348057,-0.25312510000000005
8.100447,-4.276905999999999,-2.9715395,-0.22933626,0.17533578,-0.52087605
8.488384,-4.895204,-2.9882798,-0.20643754,0.124773584,-0.70666635
9.248687,-5.203663,-2.457102,-0.089867,-0.06897541,-0.8743401
9.640502,-5.523289,-1.7845134999999999,0.19757128,-0.3814417,-1.0904642
10.109038,-5.8044167,-1.0562451000000002,0.53932416,-0.7205417,-1.3433275
10.736816000000001,-6.178803,-0.28179756,0.7187266,-0.89514446,-1.6180073999999998
11.226075999999999,-6.605162,0.19925503,0.7320260000000001,-0.8962091,-1.9097218999999996
11.425408000000001,-7.048769,0.013828908999999999,0.70328045,-0.8302008,-2.1631088
11.502338,-7.31986,-0.36424425,0.707539,-0.7689746000000001,-2.34197
12.034426,-7.9439325,-0.8441572,0.7086037,-0.69444907,-2.4186249
12.22333,-8.991530000000001,-0.9227445,0.7000865,-0.5720142,-2.366457
11.892823,-9.788224000000001,-0.55725527,0.70488614,-0.45490262,-2.2147354999999997
11.53467,-9.784183,-0.020685903999999998,0.7362846,-0.41444588,-2.049191
11.014889,-9.217417999999999,0.9180709999999999,0.7527954000000001,-0.48790678,-1.9608251
10.557424000000001,-8.649198,1.0387387,0.7469311,-0.62524676,-1.9208918999999998
10.14792,-8.28685,0.7300208,0.7091447,-0.7327939,-1.8756529999999998
9.679001,-8.117809,0.4880724,0.6452656999999999,-0.7993259,-1.8133621
8.845034,-8.154929,0.6129635,0.5169665,-0.747158,-1.7457656000000004
7.9492955,-8.298878,0.8654369000000001,0.25932103,-0.5358161,-1.6435591
6.990552,-8.518637,0.8017894,-0.014276793000000001,-0.24890140000000002,-1.4838613999999999
6.1183343,-8.569192,0.8034749,-0.20856684,0.06515314400000001,-1.2123754999999998
5.4293885,-8.455784,0.8332396000000001,-0.32035518,0.30524063,-0.9568593000000001
5.263691000000001,-8.129387,0.7104170999999999,-0.43640209999999996,0.45642105,-0.63585836
5.3225690000000005,-7.719624499999999,0.40571186,-0.58119464,0.5123065,-0.2014808
5.2790612999999995,-7.412391,0.22051555,-0.7015001999999999,0.43406337,0.37021923
5.136271499999999,-7.3300114,0.14152604,-0.7765668000000001,0.29513517,0.8333424
4.9985566,-7.306146000000001,0.110324815,-0.8601332,0.2653075,1.211817
4.762134,-7.1903524,-0.07969819,-0.9974731,0.31534609999999996,1.5365355
4.3350854000000005,-7.053539,-0.31573772,-1.0698694,0.35634387,1.8665773
3.6359687000000007,-7.0267906,-0.052614975999999994,-0.9011309000000001,0.28394762,2.217912
3.2595427000000003,-7.2689304,0.34085768,-0.43640209999999996,0.08965756,2.4154136000000004
3.2888095,-7.9301133,0.14963761,0.1725607,-0.12753119999999998,2.358446
3.2963370000000003,-8.697742,-0.37650259999999997,0.65271825,-0.27869418,2.1338220000000003
2.919844,-9.1631365,-0.61101943,0.8177390999999999,-0.19619246,1.7824699000000002
2.971032,-9.49911,-0.6198779999999999,0.63248986,0.16577137,1.4263529
4.241041,-10.07503,-0.4349977,0.31415927,0.6842563,1.1931943999999999
5.388927,-10.651660000000001,-0.5387911,0.11665781,1.1452502,1.1032226
6.1600895,-11.167438,-0.44658566,0.13849187,1.3746911,1.0787531000000001
6.311815,-11.425686,0.2006341,0.28009045,1.3459456,1.0622423
6.8706217,-11.321845,1.4273465,0.35194564,1.1734546000000001,1.0058156999999999
8.431258,-10.843225,2.1638029,0.20875883,0.9765117,0.94567174
10.12688,-10.197452,1.9887675999999999,-0.15906931,0.86259407,0.94726
11.15516,-9.416817,0.8368214,-0.6365565,0.81840235,1.035085
11.31221,-8.215291,-0.48993027,-1.0134429,0.7774220000000001,1.1357032
10.051806,-6.867509,-1.2609398,-1.2572478999999999,0.7502647,1.240039
8.124436,-5.676499,-0.9885084000000001,-1.3653187,0.75984657,1.3326637
6.614825200000001,-4.856935,-0.31937692,-1.2684355,0.6517932,1.4114478000000001
5.620111,-4.277548,0.14917792,-0.9415877,0.3840248,1.4386051000000002
5.2400265,-3.771011,0.060937222,-0.44439572,-0.015201817,1.3800492
5.1296919999999995,-3.3914537000000005,-0.8909590000000001,-0.01160644,-0.40167007,1.2411036
4.9881470000000006,-3.2860897000000007,-1.9640210999999999,0.21354103,-0.7104188,0.9701586999999999
5.0536237,-3.735807,-2.6934004000000002,0.20769417,-0.88076293,0.6353173000000001
5.471565,-4.707077,-2.9118855,0.10281735,-0.9611354,0.24406683
6.323450599999999,-5.776299,-2.2158623,0.037350047000000004,-1.0393785,-0.1328021
7.132566499999999,-6.714720699999999,-1.4545350000000001,0.1773429,-1.1825827,-0.45432666
7.6864886,-7.098272,-0.47471273,0.37165040000000005,-1.2714899,-0.91053826
8.309681,-7.4737306,0.5412140999999999,0.45095816,-1.1825827,-1.4641567
9.321795,-7.978370699999999,1.1813853,0.488762,-1.0867642,-1.8197501
10.665671000000001,-8.381774,1.1671637,0.51270795,-1.0910227,-2.0411975
11.885784,-8.375424,0.44500550000000005,0.41423646,-1.1836474,-2.131693
13.061529,-8.497099,-0.77209175,0.20662953,-1.2640373,-2.1631088
13.783907000000001,-8.767901,-1.4131726999999998,0.012322023999999999,-1.194835,-2.2094123
14.372662,-9.272686,-1.6010792999999999,-0.19792034,-0.9121614,-2.2945843
14.138507999999998,-9.409165,-0.9480943000000002,-0.29906216,-0.5512448,-2.3691098999999998
12.7576,-7.990945,0.47540227,-0.26073474,-0.2526015,-2.4271247000000002
11.778228,-6.4048915,0.9975106,-0.13138838,-0.10728539,-2.4531999
10.983228,-6.203961,0.92577076,-0.014276793000000001,-0.06682865,-2.451088
9.773782,-6.9000699999999995,0.6831901999999999,-0.022794,-0.029024825,-2.4537408
8.78174,-7.7825637,0.25429296,-0.14416419,0.04759513,-2.4303186
8.122176,-8.376489,-0.36464650000000004,-0.33632496,0.19825195,-2.313207
7.847503,-8.479582,-0.43933599999999995,-0.51572734,0.42608723,-2.0752664000000003
7.798729,-8.205006,0.047137044,-0.5716128,0.62624156,-1.776623
7.621462299999999,-8.037699,0.5987133000000001,-0.5481905,0.7662519,-1.4598981000000002
7.260943400000001,-8.002007,1.2008454,-0.5274385,0.8322428,-1.1144101999999998
6.7985177,-7.8967667,1.6561938999999999,-0.54925513,0.8248076999999999,-0.75988144
6.330528,-7.94013,1.6068158000000001,-0.6663667,0.7901978000000001,-0.36650170000000004
6.107838,-8.057916,1.1785219,-0.91655964,0.8311956,0.08330456
5.973351,-8.285374000000001,0.5182297,-1.2215909,0.9270142,0.5112942
5.5686735999999994,-8.437847,0.07736144,-1.367448,0.9935461,1.0281734
4.627043700000001,-8.368616000000001,0.09863153,-1.0666753999999998,0.8748463,1.6148136
3.764614,-8.213673,0.47082454,-0.3389953,0.5261644,2.0880419999999997
3.4495370000000003,-8.362669,0.95810205,0.42914155,0.12959069,2.3430347
3.4650513999999997,-8.747906,0.78385204,1.0322575999999999,-0.21108012,2.4249954
3.3892703,-9.02388,0.4384741,1.201537,-0.35587263,2.2695562999999996
3.4440112000000003,-9.267859,-0.13184391,1.007247,-0.26591837,2.0310745
3.9440449999999996,-10.056308,-0.6610678000000001,0.686246,-0.0018849556,1.9166333999999998
4.15281,-10.567307000000001,-1.0760021,0.37536797,0.37233108,1.9187626
3.9033627999999996,-10.743166,-0.7506684,0.25825638,0.63156486,1.9528313999999998
3.6701674,-10.993245,0.7560602,0.263056,0.70715505,1.896405
4.0022144,-10.902869,2.5546036,0.22792254,0.66245717,1.8208147000000001
5.466805,-10.480139,3.3024662000000005,0.06928957,0.5996253,1.8298556000000001
7.30514,-10.177723,2.4850857000000004,-0.07974409,0.40107667,1.8682004
9.071247,-9.503534,0.570567,-0.10370746,0.03005457,1.8831055
10.074983,-8.423262,-1.3694066999999999,-0.054733526,-0.35906658,1.8990753
9.49889,-7.1730184999999995,-2.2172509999999996,0.08045968,-0.6752679,1.8586186000000002
8.184492,-6.1923347,-2.2115526,0.40252528,-0.98134625,1.7777051
7.087421400000001,-5.373575,-1.6034831,0.45415214,-0.9930574000000001,1.5110013
6.855739,-4.616385,-0.956158,0.4456349,-0.9222669,1.1053693000000002
7.080957000000001,-4.099113,-1.0717978000000001,0.3844262,-0.79290307,0.68802625
7.0592175,-4.1379757,-1.6766403000000003,0.26624998,-0.6960198000000001,0.3728896
6.878589,-4.3855357,-2.2127595,0.07674213,-0.67153287,0.14931291
7.1684410000000005,-4.704999,-2.1819892000000003,-0.17449802,-0.6417227,-0.07424631
7.767690700000001,-5.229425,-1.8325987000000001,-0.3831696,-0.69071406,-0.3084695
8.515084,-5.791478,-1.4967113,-0.555643,-0.73914695,-0.5810201
9.541794,-5.9240885,-1.1092528,-0.5481905,-0.8008967,-0.8471828000000001
10.126325,-5.668579,-0.6273671,-0.4023333,-0.86690503,-1.1825478
11.38441,-5.483105,-0.8966573,-0.27298695,-0.8189958,-1.5706043
12.170425999999999,-5.544933,-1.2292981,-0.18249163,-0.7380823000000001,-1.8575363999999999
12.382897,-6.1576858,-1.4924687,-0.096778505,-0.70881313,-2.023622
12.209892,-6.951009299999999,-2.0420625,-0.12871803,-0.68006754,-2.1050591
12.287272999999999,-7.932583999999999,-2.2763975,-0.19259708,-0.6502399,-2.1902310000000003
12.7781315,-9.16873,-2.455723,-0.19153243,-0.5714557,-2.3509933999999997
13.248909,-9.965874000000001,-1.9945903000000003,-0.12871803,-0.43305108,-2.5612707
12.852688,-9.935880000000001,-1.1141466,-0.009477138000000001,-0.27230626,-2.715645
11.942853,-9.057389,0.25125712,0.12943362,-0.092903875,-2.8055992
11.414567,-8.4446745,1.0995802,0.2162114,0.0108908545,-2.8151813
10.990688,-8.773973,1.0392941999999998,0.26890287,-0.015707963999999998,-2.7619486
10.40655,-9.499886,0.8572008,0.22792254,-0.095033176,-2.6405785
9.55637,-9.655989,0.5725876999999999,0.06874852,-0.12004375,-2.4260426
8.76931,-9.384160000000001,0.36470395,-0.16172221,-0.06096435,-2.111988
8.329946000000001,-8.788598,0.6856515000000001,-0.37358773,0.027384216,-1.7079618000000003
8.019235,-7.957789999999999,1.3860033999999999,-0.5551194,0.18017034,-1.2623966999999998
7.2922115000000005,-7.422006,1.8658301,-0.6637138000000001,0.28770009999999996,-0.79553854
6.5805783,-7.214620599999999,2.1221821,-0.7494095000000001,0.32548645,-0.31592205
5.8262224,-7.320914,1.8093078000000002,-0.83777547,0.31166345,0.1775349
5.2677417,-7.596419,1.1930498,-0.86812675,0.28396508,0.68537337
4.7135606,-7.764856,0.6233448,-0.84735733,0.2797239,1.1586193999999999
4.1159296,-7.863017999999999,0.07939173,-0.8436398,0.28824112,1.5738332
3.4672252999999995,-7.921772,-0.38955575,-0.82979935,0.22753857,2.0300274
2.8365352,-7.952149400000001,-0.39382702,-0.7153406999999999,0.088610366,2.5703464
2.3467295,-7.774939999999999,-0.21753716,-0.41352087,-0.047647487,3.0440986
2.0730627,-7.8090625,0.027581203999999998,0.13582152,-0.25312510000000005,3.2650222999999996
2.090722,-8.029377,0.21872468,0.77089447,-0.5538801999999999,3.101066
2.2426486,-8.363598,0.06714299,1.1722678,-0.7316944000000001,2.5208312999999998
2.5013468,-8.664185,0.09842084,1.0833608000000001,-0.51448816,1.8517071
2.7958624,-8.885534,0.4449576,0.63727206,0.05400048599999999,1.2549615
3.5702336000000003,-9.225214,0.61100984,0.093235485,0.81203187,0.9126675999999999
4.55675,-10.11533,0.38634753,-0.069097586,1.3465041000000002,0.85041165
5.0529532,-11.266979,0.24875756,0.072483525,1.6254426000000002,0.9744348
5.38387,-11.345624,0.83868885,0.3194825,1.567934,1.1133629999999999
6.905759,-10.969064,1.7066636000000002,0.4238183,1.3496805,1.1431732
9.31829,-10.628789999999999,2.0803697,0.33012903,1.1569787,1.1016518
12.059891,-9.919771,1.374061,0.093235485,0.9398074000000001,1.0803587
13.914295999999998,-8.646516,-0.27319756,-0.15161675,0.7375238000000001,1.0862231000000002
13.670078,-7.305111999999999,-1.6748014999999998,-0.23572417,0.57622045,1.1128393
11.627996000000001,-6.169561,-1.9366698,-0.17343336,0.46389106,1.1500847
9.044327000000001,-5.788079,-1.206582,-0.07335619,0.35157913,1.1176215
7.0986834000000005,-5.6241136,0.39663303,0.051714107,0.19081685,0.99253386
5.8372645,-5.572533,0.87509984,0.31681216,-0.24780184,0.89085096
5.760555,-5.148999,0.41227195,0.44031167,-0.63905233,0.76256925
6.2394620000000005,-4.69095,-0.7671979999999999,0.47118655,-0.98879886,0.5810376
6.378421299999999,-4.4674654,-1.6834303,0.22951079999999996,-1.0297792,0.18765779999999999
6.372273000000001,-4.515522,-2.1511998,-0.23411846,-0.66141,-0.2850297
6.841872,-4.8740487,-1.9589549,-0.806377,-0.1998751,-0.7417649000000001
7.360044,-5.407563,-1.208459,-1.2391489,0.070511304,-1.0393436
7.925497,-5.5208855,-0.7811897,-1.3610601,0.022078415,-1.2639848999999999
8.865796000000001,-5.6451735,-0.7959954,-1.3317735000000002,-0.09342747,-1.4891497999999999
9.727919,-5.9958279999999995,-0.9963518,-1.3232563,-0.083845615,-1.6850456000000003
10.335462,-6.621538,-1.4750389,-1.2391489,-0.016772615,-1.7872521000000001
11.348181,-7.110309599999999,-1.9435745,-1.0336713,-0.012514011,-1.8128036
12.367268,-6.874250999999999,-2.6460624,-0.6706253000000001,-0.07532841,-1.7425366999999998
13.441747,-6.3998833,-3.128082,-0.17130406,-0.23235568,-1.6754637
13.777884,-6.7176990000000005,-3.4181538000000002,0.30403635,-0.37343064,-1.6967567
13.399379999999999,-7.892697,-3.3803637,0.72031486,-0.45645595,-1.7436013
12.12555,-8.877441000000001,-2.3354,1.0173524999999999,-0.47722536,-1.7968339
11.348908999999999,-9.383346000000001,-0.8387941999999999,1.1499101999999999,-0.46444955,-1.8719006
11.0859585,-10.110331,-0.11961432,1.1259468000000001,-0.44317399999999996,-1.9714541
10.773496000000002,-10.888829,0.17890432,0.9497558,-0.39844123,-2.0204105
9.94811,-11.172801,0.8470110999999999,0.6420716999999999,-0.2967758,-1.9368442
8.835177999999999,-10.612241000000001,1.5825194,0.30403635,-0.16528268,-1.7090089
7.248598599999999,-9.480464,2.6848004,-0.097843155,0.01303761,-1.3550038
6.2768307,-7.8795094,3.300886,-0.45982444,0.23872614,-0.94191927
5.6901364,-6.531411,3.3692546,-0.6956533,0.43303365,-0.5432163000000001
5.229271400000001,-5.7249765,3.0028365000000004,-0.78667223,0.52087605,-0.19081685
5.183102,-5.471086,2.0831852,-0.8686504,0.48413688,0.1966986
5.377683599999999,-5.518903,1.0604494,-0.9655335999999999,0.3494498,0.5815786000000001
5.4811416,-5.9348335,-0.028931534,-1.0214365,0.29249972,0.9185493
5.2081165,-6.583135,-0.8398572,-1.0932916000000001,0.35479054,1.2028111000000001
4.6638093000000005,-7.197085400000001,-1.4404953999999999,-1.1502593,0.43568653,1.3805903
3.7300991999999997,-7.3844647,-1.5837069,-1.1518475000000001,0.4314454000000001,1.565316
2.7936695,-6.9816356,-1.3758711000000001,-1.004402,0.3122045,1.8479720000000002
2.2604330000000004,-6.7119246,-0.79147524,-0.59131753,0.10937978,2.1104171000000003
2.6524400000000004,-7.151930999999999,-0.24368185,0.10016444,-0.08702212,2.1588675999999998
3.1251707000000004,-7.888712400000001,-0.18939093,0.79377574,-0.18177605,1.9203683
3.3897107,-8.401273,-0.5339357,1.1259468000000001,-0.00026179937,1.4652388
3.8244882000000007,-8.464519000000001,-0.32654038,1.0567445,0.34147367,1.0436370000000001
4.73372,-8.784882000000001,-0.0020494366,0.8810771000000001,0.67950904,0.8472003
5.8452806,-9.450087,0.10320924,0.81454515,0.929702,0.7487288000000001
7.103989,-10.542437,-0.073616914,0.8134805,1.0611776000000002,0.63268185
7.5605535999999995,-11.392636,0.23051374,0.7884525,1.1106926000000001,0.48363075
7.591707,-11.357786,1.0966879999999999,0.710733,1.0319085,0.33457962
8.405659,-10.762148,2.2593987,0.53613025,0.9078679000000001,0.2675066
10.2802515,-10.171439999999999,2.9320063999999997,0.2545388,0.8280190999999999,0.34203216
12.084646000000001,-9.570036,1.9231569,-0.084002696,0.71144855,0.5389925999999999
12.700187,-8.717087,0.003715801,-0.43640209999999996,0.5506863000000001,0.7615046
11.362191000000001,-7.5855393,-1.1971009,-0.8505513000000001,0.46177920000000006,0.9265254999999999
9.101558,-6.211632,-1.1694909,-1.1827223,0.35585517,1.0340552
7.572964999999999,-4.7334805,-0.6751265999999999,-1.3695773,0.27865925,1.1091218
6.5725913,-3.631439,-0.58417565,-1.4036461,0.18284069,1.180977
5.916475,-2.9273236000000002,-0.9518771,-1.1060675,-0.0652055,1.2837245000000002
5.2491335999999995,-2.5318970000000003,-1.4584903,-0.4603655,-0.43729225,1.3295046
4.412456,-2.5748298,-1.9900125,0.12891002,-0.7327416,1.1447788
3.8125459999999998,-3.0124419999999996,-2.4618523,0.44031167,-0.7998145999999999,0.7678925
3.7179942,-3.7745642999999998,-2.7063482000000003,0.372174,-0.78382736,0.34096754
4.4366755,-4.6855583,-2.9211270000000003,-0.025446901,-0.6981316999999999,-0.062517695
5.684936,-5.649195,-2.590057,-0.19207348,-0.86369365,-0.3409326
6.700767,-6.591247,-1.7967238,-0.027576202999999997,-1.1793538000000001,-0.667763
7.6678809999999995,-7.6354156,-1.027103,0.0453262,-1.2698492000000001,-1.0574251000000001
8.529428999999999,-8.63486,-0.0056503164,0.01977458,-1.1277096000000002,-1.4492167
9.31558,-9.324688,1.2711966000000001,0.059166662,-0.9451306999999999,-1.6999506999999998
10.6456175,-9.128066,2.0437672,0.11772246,-0.8338834,-1.8314438000000002
12.616093,-8.765105,1.1534688,0.13955653,-0.7582932,-1.8553897000000001
13.663691,-8.394703,-0.58069927,0.09803514,-0.63905233,-1.8921290000000002
13.928632,-8.509462,-2.1168096000000003,0.043196898,-0.45858526,-2.0076349
13.579145,-9.095993,-2.9178328999999996,0.024033183,-0.23181464,-2.1816964
12.750905,-8.854466,-1.2800936,0.09004153,-0.0013264503,-2.3296827999999996
11.766658,-7.785819500000001,0.21147504,0.18905406,0.16474162,-2.4180488999999996
10.891760000000001,-7.009945,0.45228383,0.23057544,0.23076743,-2.4957685
10.173164,-7.187049000000001,0.6376238000000001,0.15285593,0.25045475,-2.552736
9.589668,-7.9560475,0.8263444,-0.025987952999999998,0.2925172,-2.552195
8.856191,-8.652387,0.6579745,-0.19366173,0.41708133,-2.3791978
8.214046000000002,-8.530205,0.43817723,-0.30970868,0.5693264,-2.034251
7.7810692999999995,-7.8082576,0.5637579,-0.39009854,0.6970845,-1.6296837
7.6846119999999996,-7.143254,0.7961391,-0.42469096,0.78543305,-1.2203168
7.555803999999999,-6.953048700000001,1.0970520000000001,-0.47047096,0.76893973,-0.7667755
7.156096499999999,-7.157533,1.1925232,-0.5471258000000001,0.6470459,-0.24722588
6.6914296,-7.3571424,0.93485916,-0.65891415,0.41601667,0.3478965
6.324571,-7.4086657,0.36021245,-0.7472802,0.19455186,0.8221896999999999
5.8154106,-7.456473399999999,-0.30324003,-0.8031831,0.11365584,1.2358153
5.142745,-7.5529594,-0.5848364,-0.8675857,0.09501573,1.5498873
3.804808,-7.746564,-0.23839545,-1.0443177,0.0039968040000000005,1.8490542
2.5939066000000004,-7.4283075,0.084955856,-1.2189205,-0.21371557,2.2727852000000004
1.9990816999999999,-7.146328,0.18627848,-1.1635586000000002,-0.44952700000000007,2.7476194
1.8433534,-7.2110386,0.065696895,-0.8047713000000001,-0.65341634,2.9445798
1.8124586,-7.803900200000001,-0.38671145,-0.13138838,-0.74656457,2.8434381
1.6499496999999999,-8.151759,-0.8023066,0.55477035,-0.6629982,2.4548403999999997
1.7287955000000002,-7.7875147,-0.8364478999999999,1.0583502,-0.40641737,1.9592543000000002
2.9351093999999995,-7.794783,-0.49993804,1.2845798000000002,-0.1328021,1.6158956
3.8697673999999997,-8.24361,-0.3535757,1.3527174,0.16104153,1.3720906000000002
5.1299605,-9.333105,-0.76211274,1.2648925,0.45753807,1.1357381000000002
5.979863,-10.834088000000001,-1.4418936000000002,1.1158413999999999,0.6342701,0.92439616
6.5114813,-11.897085,-0.8807598,0.9497558,0.6635393,0.7758861
7.996241,-12.423091000000001,0.48973873,0.7645065999999999,0.5773026,0.66675067
10.349311,-12.420697,1.9076330000000001,0.5169665,0.45860273,0.6039536999999999
12.326787,-11.68652,2.8031697,0.17894861,0.34735543,0.6225764
13.385273000000002,-10.844527000000001,2.3963277,-0.26712263,0.3164631,0.693908
12.828382000000001,-9.3441,1.3867406999999998,-0.6967180000000001,0.35107297,0.73223543
10.888859,-7.3183656,0.49850154,-1.0927681,0.49638909999999997,0.67528534
9.276067,-5.37504,-0.26959667,-1.3871353000000002,0.6273586,0.6374814999999999
8.121008,-3.9604788,-0.9267093000000001,-1.3488079,0.47991318,0.6784793
7.23636,-3.3063254,-1.3795868999999998,-0.92242396,0.065222956,0.7471405
6.4489737,-2.8993497,-1.7166426,-0.32674309999999995,-0.4575206,0.7285003999999999
5.868839299999999,-2.6352882,-2.0647306,0.07993608,-0.72792447,0.52197564
5.583719,-2.7784327999999996,-2.5417802000000003,0.17149605,-0.6321059,0.19725712
5.540872,-3.2154322,-2.9087539000000002,0.0453262,-0.37765434,-0.21474531
5.99285,-3.8991298999999997,-3.2231126,-0.10051351,-0.28663543,-0.6565754
7.021782000000001,-4.4792542,-2.6420974999999998,-0.09358455,-0.45219734,-1.0281559999999998
7.967089,-5.41194,-2.2212446,0.04373795,-0.61987114,-1.2831311
8.486419999999999,-6.6751585,-1.3645896,0.19757128,-0.6731037,-1.5093608
8.838884,-7.8770766000000005,0.10663774,0.34876913,-0.6379701999999999,-1.7222909
9.562106,-8.39862,1.2945737,0.47439793,-0.6230651,-1.9219216000000001
10.744632000000001,-8.17165,1.534262,0.513249,-0.6459638000000001,-2.0427682000000003
12.345835000000001,-7.894775,0.5676269,0.52656585,-0.71089005,-2.118341
13.402415,-7.983236,-0.5611721,0.53134805,-0.79712677,-2.143369
13.995919,-8.438221,-1.2760617,0.5015377999999999,-0.79927355,-2.1657267000000004
13.746281,-9.033907000000001,-1.0906068000000002,0.44032910000000003,-0.68533844,-2.207248
12.474519,-9.240221,-0.27581203,0.3593982,-0.48520154,-2.2711272
11.160878,-8.934308999999999,0.59965175,0.3530103,-0.3217689,-2.2929611
10.359261,-8.642168,0.9152554,0.26624998,-0.0034382986,-2.2237415
9.810797,-8.475234,1.0142509,0.20024163,0.22066198,-2.1029122000000005
9.184972,-8.451178,0.7355179000000001,0.08580039,0.34149113,-1.9799363999999997
8.454778999999998,-8.577419,0.44315717,-0.028117253999999998,0.42772785,-1.8415317999999998
7.730523,-8.559338,0.375679,-0.040352013,0.4346568,-1.5924035
7.247459399999999,-8.304021,0.41910022,0.0075398222999999995,0.40591124,-1.2586442
7.063766499999999,-8.056201,0.45824063,0.006475171500000001,0.41495204,-0.90411544
6.9352365,-7.8872279999999995,0.43527547,-0.122853726,0.44476226,-0.50433034
6.902024000000001,-7.9357443,0.53936577,-0.39275143,0.41282272,-0.00075049157
6.2841663,-7.937688400000001,0.49877927,-0.7243989000000001,0.28241172,0.6374814999999999
5.4019322,-7.711828999999999,0.421504,-0.9463699000000001,0.14348352,1.1543782
4.650899400000001,-7.305523399999999,0.3369408,-1.119908,0.17647023,1.5333938999999999
4.0742707000000005,-6.911706,0.07756256,-1.3152801,0.28293532,1.8091384999999998
3.2905047,-6.670878,0.08619126,-1.5952659,0.32340949999999996,2.0609372
2.2936165,-6.312926,0.44166318,-1.8268361000000002,0.23024383,2.4761336
1.8252723000000002,-6.205359,0.49573383,-1.7496576000000001,0.057752945,2.9392567
1.8692874,-6.5684059999999995,-0.115687825,-1.1725994,-0.15407766,3.2804858999999995
1.9845442,-7.324733999999999,-1.0137337,-0.23146556,-0.46975538,3.2394881
1.839647,-7.8630085,-1.8202732,0.83796746,-0.7838099000000001,2.8205569
1.6514533,-7.828809700000001,-1.7043269,1.4187257,-0.84025383,2.1759020000000002
3.1776803,-8.020144,-1.0913538,1.3804158000000002,-0.57622045,1.6425118000000003
4.555505,-8.727516,-0.8770919,1.0296047,-0.18442895,1.3263106000000002
6.0720787000000005,-9.991971000000001,-1.1488912,0.70862114,0.17488199999999998,1.0612125
6.7835774,-11.505605000000001,-1.5969995000000001,0.5691344,0.41175807,0.8328537
6.6645765,-12.194464,-0.7816207,0.49727920000000003,0.55176836,0.6625095
7.332099,-12.209558,1.1125376,0.4238183,0.6135181,0.6348286
9.219075,-11.837106,3.1582107999999995,0.29073694,0.64332837,0.7013606
11.869428,-11.084953,3.981615,0.09697049,0.60233057,0.7945262
13.944903,-9.909132000000001,2.7276087,-0.098907806,0.38620645,0.8482824000000001
13.891981,-8.508332000000001,0.23859656,-0.25221753,0.15624188,0.8317889999999999
11.902084,-6.904227000000001,-1.4965006,-0.46834165,0.093968526,0.7758861
9.985430000000001,-5.539292,-1.9322644,-0.6865951,0.22118558,0.672615
8.617393,-4.635710700000001,-1.2165706,-0.7770904000000001,0.36384878,0.52197564
7.677238000000001,-4.2456665000000005,-0.6662106,-0.6322979000000001,0.33723253,0.34363788
6.8067822,-4.1437406999999995,-0.70915294,-0.33367205,0.14772467,0.18128735
5.91908,-4.235161,-0.96010363,-0.11648327,-0.035901424,0.0040142573
5.555975,-4.3727800000000006,-1.3341162,-0.11487757400000001,-0.05667084,-0.22432716
5.773924,-4.5745053,-1.7506115000000002,-0.28576276,0.084910266,-0.40851176
6.437817,-4.7888055,-1.8872726000000002,-0.40339795,0.18872245,-0.51923543
7.243887400000001,-4.893298000000001,-1.8065113999999998,-0.3224845,0.026895522999999998,-0.6305002
7.938148,-5.0310416,-1.5819545,-0.021729348,-0.39522982,-0.75612897
8.524172,-5.1233716,-1.0457491,0.40198424,-0.9179734,-0.90038043
9.048022999999999,-5.5277233,-0.23565648,0.71340334,-1.229375,-1.0659424
9.555767,-6.2411184,0.5286301999999999,0.7980518,-1.3023124,-1.3054888
9.926264999999999,-6.774814999999999,0.6104544,0.7091447,-1.2240517,-1.5977267
10.368578999999999,-6.8972063,-0.004424485,0.5792573000000001,-1.1133281000000002,-1.822368
10.944681,-7.242862,-0.814833,0.54998815,-1.0659598,-1.9368268
11.0660095,-8.10806,-1.3442581,0.63409555,-1.0515783,-1.910734
10.972013,-8.930985,-0.8030248000000001,0.72670275,-0.9531068000000001,-1.8612366000000002
10.916725999999999,-9.530876,-0.05266286,0.7405432,-0.78169805,-1.9267038
10.873660000000001,-9.765029,0.7227233000000001,0.70010394,-0.59964275,-2.0571322
10.689363499999999,-9.47785,1.1129016,0.68839276,-0.49795988,-2.1705089
10.408294,-8.755825,0.83568174,0.6537829000000001,-0.37765434,-2.2567456000000004
10.201885,-8.060396,0.30777943,0.5574406999999999,-0.22434463,-2.2892262999999997
9.783475,-7.9593419999999995,0.12461341,0.3349287,0.004537856,-2.2386465
9.067838,-8.460984,0.17110881,0.06716027,0.29731685,-2.0943952
8.177722,-8.864397,0.6114504,-0.17076302,0.5965012,-1.8356675
7.3558497,-8.664214,1.0379056999999998,-0.2783102,0.75405204,-1.5556818000000001
7.0924296,-7.948759,1.1575198999999998,-0.32728413,0.7950324000000001,-1.2660966999999999
7.185009,-7.302258,0.98685163,-0.3671998,0.71305424,-0.96319485
7.079434,-7.270434,0.7519709,-0.45343652,0.5102295,-0.59590775
6.781567,-7.426641,0.6378728,-0.6482675999999999,0.36013123,-0.09498082
6.3289,-7.574402,0.37664625,-0.92881185,0.40591124,0.41816345
5.5900297,-7.535788,-0.06984365,-1.1949745,0.573585,0.8237954
4.710458,-7.493094999999999,-0.50828904,-1.3999112,0.7258300999999999,1.1793888000000001
3.8409986000000003,-7.3907,-0.5750776999999999,-1.5888954,0.79822636,1.5594691
2.7373385,-6.9845853,-0.28869283,-1.6793907,0.67631507,1.9847883999999998
2.1601157000000004,-6.6893516,-0.041161112,-1.5116994,0.36864844,2.3473108
2.1244998,-6.917509,-0.15706922,-1.0485764,-0.005550146999999999,2.6118853
2.3410982999999996,-7.6489286,-0.585344,-0.36454692,-0.386189,2.6784172
2.3879672999999997,-8.29996,-1.1616571000000002,0.19811232,-0.5953841999999999,2.5309717999999997
2.2331772,-8.571424,-1.4188709,0.37484437,-0.51553535,2.286102
3.1381567,-8.963288,-1.352609,0.2832844,-0.21849777,2.0774305
4.248348,-9.383366,-1.0407212,0.050649453,0.24832545,1.9390085
5.14717,-10.262736,-0.92094404,-0.11861257,0.70453703,1.8559831000000002
5.4809790000000005,-11.161059,-0.9262879,-0.14042918,0.9568593000000001,1.7612292
5.835033999999999,-11.333863000000001,-0.29972532,-0.13990559,1.0266026,1.6430528999999998
6.751477,-11.217812,0.84748995,-0.21495475,0.94143057,1.5621395
8.339521000000001,-11.246974,1.8210586,-0.37358773,0.72370076,1.5126245
10.103665,-10.809581,1.9949637999999998,-0.5407379,0.40962878,1.5296589
11.306063,-10.102651,0.8724470999999999,-0.6887244,0.13868386,1.5568162
11.204299,-8.999976,-0.46213838,-0.87290895,0.07213446,1.5035836999999999
9.925201,-7.4657817,-0.84589064,-1.0475117,0.17807594,1.4551508
8.339397,-6.0303335,-0.65515894,-1.0602875,0.33882076,1.3869957
7.179627,-4.9795565999999996,0.058399368,-0.76911426,0.31009266,1.2198455
6.65273,-4.343340400000001,0.3585365,-0.30599109999999996,0.029548422999999997,1.0212795000000001
6.3137493,-4.2541423,-0.12701719,0.24335125,-0.43781585,0.79665554
6.2118616,-4.3701267,-0.8606101999999999,0.6378130999999999,-0.8642171999999999,0.5326046999999999
6.193484,-4.7920237,-1.3759956,0.70647436,-1.0116626,0.18446384
6.4393682,-5.3830085,-1.4680957000000001,0.6399424,-0.9227556,-0.12159709
7.247354,-5.790635,-1.3160256000000001,0.46905723,-0.7827626999999999,-0.5224293999999999
8.274035000000001,-6.16257,-1.0425886,0.35513958,-0.806185,-0.93979
8.717336,-6.386101999999999,-0.29723534,0.50633746,-1.0760653,-1.2895191000000001
9.386544,-6.4444346,0.70950735,0.6857224000000001,-1.2890129,-1.6477828
10.19768,-6.6709833,1.5100996000000002,0.6889164000000001,-1.3651267,-2.0321043000000003
11.046023,-7.085792999999999,1.4967591999999998,0.6298195,-1.3385103999999999,-2.3722689999999997
11.759994,-7.1581173,0.8867453000000002,0.5808456,-1.3401161,-2.6187443999999998
12.62588,-7.1563740000000005,-0.33088824,0.46160468,-1.3401161,-2.7007225
13.421807999999999,-7.332396000000001,-1.4885517,0.30616567,-1.2783664,-2.7209508
13.71754,-7.289894,-1.7400483,0.17947221,-1.1362268,-2.7768363999999996
14.246716500000002,-7.8859639999999995,-2.1075772999999995,0.013404128999999999,-0.85568255,-2.8976655
14.229334,-8.892294999999999,-1.6883814,-0.13032374,-0.47881362,-3.0046716
13.138105,-8.774731,-0.41537485,-0.18355627,-0.08702212,-3.0488633999999997
11.885565,-7.944478500000001,0.019565416000000002,-0.16278686,0.17008233,-2.9935014
11.162267,-7.838166,-0.20275058,-0.10051351,0.22490312,-2.8668080000000002
10.595222999999999,-8.375022999999999,-0.14011826,-0.046739917,0.13494886,-2.7310562000000003
9.861478,-9.1646595,-0.30431262,0.006998770400000001,0.009843656999999999,-2.5383544
9.059611,-9.739708,-0.3686113,0.06290167,-0.0667763,-2.262069
8.698489,-9.774645,-0.12334927,0.11878711,-0.011431906,-1.9229863
8.555153,-9.461694,0.3147609,0.111334555,0.13974851,-1.6855692
8.415896,-9.227511,0.4909071,0.037873644,0.36863098,-1.4508223999999998
7.8733325,-9.339437,0.85944176,-0.064315386,0.5501627,-1.1149163
7.0383496,-9.394713000000001,1.0913346000000002,-0.19153243,0.6284233,-0.6246359
6.067185,-9.390385,1.0083516,-0.3437775,0.65235174,-0.11946779
5.322741000000001,-9.158693,0.8559462999999999,-0.56948346,0.6725975000000001,0.45542622
4.7834907,-8.786356,0.6190448000000001,-0.8313876,0.6379876999999999,0.96165895
4.0545516,-8.576346000000001,0.7259219,-1.071475,0.5198114,1.4689738
3.3388388,-8.217274,0.94149584,-1.1688819,0.35159656,1.9858531000000004
2.9040325,-7.500708599999999,1.1007295,-1.0831863000000002,0.23448499,2.4713337
3.0744998,-7.3595943,0.76820356,-0.9005898999999999,0.21532127,2.7108803
2.9435847,-7.8218665,0.15176366,-0.6855304,0.21957988,2.7784944
2.4666407,-8.207735000000001,-0.30234936,-0.45610690000000004,0.11311479,2.8418324
1.9288838,-8.257161,-0.6743796,-0.34058356,-0.028989919,2.9211576
1.9586964,-8.485978999999999,-1.0842956,-0.33632496,-0.030595621,3.0297520000000002
2.4248762000000004,-8.934921000000001,-1.5012124,-0.3389953,0.13653710000000002,3.056892
3.5545660000000003,-9.608075,-1.8084075000000002,-0.2825688,0.32817426,2.938192
4.1296625,-10.379199,-1.6321368,-0.16332792,0.48628363,2.7556130000000003
4.482664,-10.556293499999999,-0.6940695,-0.016406095,0.48254862,2.5953743
5.6823406,-10.41405,0.29661286,0.06874852,0.3095516,2.4415236
7.620437599999999,-10.59033,0.613586,-0.008412487,0.11791444599999999,2.2349987000000002
8.881071,-10.912004,0.36270240000000004,-0.22507766,0.082780965,1.9858531000000004
9.366568,-11.001700999999999,-0.15168704,-0.47739992,0.23821999,1.7457831000000001
9.320101,-10.5355215,-0.75503546,-0.5950350999999999,0.44474480000000005,1.5509343999999998
9.057878,-9.430904,-0.6663159000000001,-0.56309557,0.6145653,1.3790021000000001
9.036177,-8.011574000000001,-0.12452722,-0.42097342,0.5586799,1.2459208000000002
9.035928,-6.622294999999999,0.30661106,-0.19579104,0.29304078,1.1399966000000001
8.750721,-5.59184,0.274998,0.08152433,-0.14718361,0.9691115
8.463254,-4.9006724,-0.059749699999999996,0.32161182,-0.5639857,0.6800501
8.638356,-4.4789577000000005,-0.7002656999999999,0.37323865,-0.7524289000000001,0.23343779
9.268798,-4.3711133,-1.3760914,0.36685076,-0.81578434,-0.22593287
10.01056,-4.5684724,-1.5290713,0.26996753,-0.84772384,-0.7928682
10.460353999999999,-4.889563,-1.1869111,0.08684758,-0.9179908000000001,-1.2842133
10.615803999999999,-5.146346,-0.445695,-0.077091195,-0.88711596,-1.6850456000000003
10.883303999999999,-5.472398,-0.05440584,-0.07974409,-0.6912202,-2.0810956999999997
11.147911,-5.877181,-0.0039456445000000005,0.06609562,-0.33775613,-2.4931157
11.642313,-5.8433175,-0.15246277,0.31255355,-0.05988224599999999,-2.8311509999999998
12.234993,-5.4234222999999995,-0.10784442,0.54625314,-0.0061086523,-3.0669625
13.137970999999999,-4.8021746,-0.25296178,0.62184334,-0.11630874,-3.175033
13.952987,-5.168181,-0.65865445,0.58670986,-0.26110125,-3.1808799999999997
14.867848,-6.2843865999999995,-0.73355466,0.55103534,-0.33508575,-3.148417
15.975914000000001,-8.149317,-1.2561132,0.5654169,-0.30422834,-3.1095482999999997
15.973242,-9.952266,-1.3065636999999999,0.62184334,-0.18870499999999998,-3.117542
14.798627999999999,-10.087146,-0.08533893,0.67879343,-0.16262978,-3.1249945
13.307901999999999,-9.4723425,1.3458191000000002,0.7373493,-0.16262978,-3.075497
12.059068,-9.318328999999999,2.1372657000000004,0.8251917,-0.19722220000000001,-2.9173877
10.967244,-9.499072,2.1632092000000003,0.7485368,-0.032742377,-2.5820227000000004
9.800942,-9.804151,1.3019861000000001,0.46479863,0.17538814,-2.238664
8.881703,-10.057466499999999,0.4053575,0.14275047,0.3446676,-1.8708359
8.142814,-10.118203,0.12646173,-0.13723524,0.42504004,-1.5104429
7.8301215,-10.046856,0.26411873,-0.3224845,0.45167375,-1.1910475
7.573885000000001,-9.873889,0.62607414,-0.46143013,0.4223697,-0.8466418
7.369056,-9.562653,0.6294356,-0.6211278,0.33189179999999996,-0.41598177
6.4870415,-9.346513999999999,0.5677514,-0.8154178000000001,0.21423917,0.14772467
5.5430364999999995,-8.956947999999999,0.64712393,-1.0288891,0.072640605,0.7838448
4.487146,-8.783062,0.58974934,-1.2008214,0.040701076,1.3758081
3.5423748,-8.364804,-0.37254736,-1.3653187,0.035901424,1.9198272
3.0559783,-7.7494179999999995,-0.99145806,-1.5665377,-0.04977679,2.4979327000000002
2.4736125,-7.1560006,-1.194084,-1.6517098000000001,-0.2659009,3.1244883999999997
2.1444867000000003,-6.681058,-0.94600654,-1.4132280000000002,-0.5443158,3.7180226000000003
2.0472627,-6.6875224,-0.76343435,-0.7792197,-0.79822636,4.027836
1.9188473000000001,-7.246444,-0.82890135,0.2587974,-1.1117747,4.04967
1.6783834,-7.8761477,-1.092503,1.095613,-1.389125,3.7520914
1.2074821000000002,-8.127089,-1.043642,1.4900573000000001,-1.494508,3.192085
1.6576398999999997,-8.765365,-1.0284724,1.293097,-1.2208927,2.6767939999999997
2.8122964,-9.764704,-0.83709913,0.7815409999999999,-0.5586799,2.2429576
3.8173056000000005,-11.145057000000001,-0.99546117,0.29180159999999994,0.26106635,1.8767177
4.6708097,-12.474364999999999,-1.0693175,0.04160865,0.95575976,1.5264475
5.2573605,-12.986007,0.008628703,0.042132247000000005,1.2368276000000002,1.3065883999999999
6.7128630000000005,-13.036227,1.6032628,0.04852015,1.2304396999999998,1.1043047
9.180614,-13.073213,2.950279,-0.03450516,1.0686127,0.9706998
11.771974,-12.951309,3.0390275,-0.22933626,0.8567646999999999,0.9169436
13.852514999999999,-11.907964999999999,1.0833283999999999,-0.46621236,0.6491403,0.9440835
14.233175,-9.956633,-1.1110723999999998,-0.60196406,0.5171236,1.0372317
12.966077,-7.5790462,-2.4912148,-0.5828003,0.46015605,1.0782120000000002
11.325877,-5.6897626,-2.3127127,-0.52902675,0.4548327999999999,1.0159388
10.243209,-4.5558496,-1.3809948,-0.41510909999999995,0.40533528,0.88233376
9.18026,-4.1692247,-0.46690765,-0.21495475,0.17163567,0.7455174
8.208214,-3.9425797,-0.32163706,0.050125855999999996,-0.23715533,0.5975309
7.515849,-3.8016667,-0.8598823,0.11665781,-0.52356386,0.28506464
6.977421799999999,-3.8712995,-1.5917706,-0.08719665,-0.5145056,-0.15622441
6.6869187000000005,-4.166725,-2.078646,-0.36613518,-0.25047220000000003,-0.6395759
6.819423700000001,-4.7912574,-2.0804462,-0.45343652,-0.10622074,-1.0835353
7.165261699999999,-5.281121,-1.2424278,-0.17343336,-0.28188813,-1.3395926
7.967223,-5.254497,-0.51719546,0.30190706,-0.58211964,-1.5386822
8.878486,-5.266669,-0.36016455,0.64739496,-0.7471405,-1.8458253
9.8012295,-5.71427,-0.29406542,0.8134805,-0.7668453000000001,-2.188643
10.660758,-6.432914,-0.5014033,0.90024084,-0.7247829000000001,-2.5250726
11.548374,-6.5933056,-0.7202046,0.90610516,-0.7146774,-2.7215095000000002
12.840775,-6.664873599999999,-1.4966538,0.86297804,-0.7093366999999999,-2.7944293
13.714284,-7.175509,-1.8669411,0.7868642,-0.6827379,-2.7954938
14.113398000000002,-8.384265,-1.4758147,0.72830844,-0.6050184000000001,-2.8258452000000003
14.005706,-10.341888,-0.62200403,0.6319488,-0.4442561,-2.9014354
13.287522000000001,-11.409271,0.6216497,0.5020614000000001,-0.20523326,-2.975961
12.066557000000001,-10.370292999999998,1.4304493999999999,0.4094368,-0.042341687,-2.9732903999999998
11.324909,-9.140421,1.2807256,0.3593982,0.013543755,-2.8636315
10.892180999999999,-8.931924,0.85985357,0.29073694,-0.008813913,-2.6821172000000004
10.200486,-9.247622999999999,0.38052484,0.11932816,-0.04872959,-2.4713163
9.356328999999999,-9.756238,-0.08229349999999999,-0.14948745,-0.033841934,-2.192919
8.591019000000001,-9.85938,-0.33177890000000004,-0.44226643,0.0742114,-1.780358
8.007331,-9.489495,-0.26799738,-0.6248453,0.18387043,-1.3795256999999999
7.6498,-8.861678,0.022926876000000002,-0.7052352,0.30524063,-1.0042275
7.321296,-8.429984,-0.029822176000000002,-0.75207984,0.34091517,-0.6518281
6.6967163,-8.258656,-0.0761835,-0.8787733,0.27382470000000003,-0.23609069
5.765171,-8.309441,-0.1610819,-1.0389946,0.15460126,0.28930578
4.789246,-8.198513,-0.103161365,-1.1401364,0.046530478,0.87645197
3.9458550000000003,-7.926541,-0.4719642,-1.1944336000000002,0.04279547,1.4481694999999999
3.2668214,-7.524574,-0.8589341999999999,-1.2833406,0.06782349,1.9379089
2.537509,-7.143915,-0.9974052999999999,-1.3993875,-0.028501227,2.4308596000000002
1.6134238,-6.635683,-0.65119416,-1.3301851999999998,-0.21696188,3.0536630000000002
1.3314538,-6.2542295,-0.030272286000000002,-0.8947430000000001,-0.34683183,3.633374
1.533898,-6.4113846,0.23638432,0.09271189,-0.54752725,3.9634158999999998
1.8321773000000001,-6.9945070000000005,-0.15770128,1.2159185,-0.84138834,3.8143647000000005
1.8538016,-7.8018220000000005,-0.71709216,1.7626080000000002,-0.8727868000000001,3.135641
1.8563299,-8.363827,-0.7295898000000001,1.564583,-0.5549798,2.3563166
2.5049957999999997,-9.217284,-0.25911966,0.96411985,0.010855948,1.8846763
3.8454902,-10.434726,-0.24698584,0.3929434,0.5788559,1.7143322
5.2713714000000005,-11.94473,-0.5876233000000001,0.05810201,1.0323972,1.614796
5.8044734,-13.123051,-0.48972917,-0.01160644,1.2591504,1.5535698999999998
5.9368925,-13.360660999999999,0.9363818000000002,0.03309144,1.2783315,1.5088546
7.419574000000001,-13.313189000000001,2.6513293,0.0038048178,1.1872951,1.4779797
10.070597,-13.219604,3.9964495,-0.13404128,1.0111040999999998,1.4545574
13.232859,-12.128672,2.5601103,-0.2767045,0.70020866,1.4902319
14.956826999999999,-10.124227000000001,-0.48418420000000006,-0.3522947,0.31693435,1.5338652
13.440368,-7.785494,-2.6298293999999998,-0.3741288,0.04759513,1.5045959999999998
10.501045,-6.220404,-2.9774675,-0.45930085,0.00286234,1.4247471999999999
8.444589,-5.2244835,-2.1942284,-0.6072873000000001,0.14713125,1.2480152
7.471949,-4.720504,-1.0815088,-0.6094166,0.24879669,0.9765292
6.9209570000000005,-4.493466400000001,-0.4403799,-0.40978587,0.17533578,0.7093018
6.5861425,-4.402046,-0.5517581,-0.13884094,-0.030124382999999998,0.4106585
6.42371,-4.331704599999999,-1.2059977,-0.053668875,-0.12966052,0.036983527
6.4246774,-4.490497599999999,-1.7058400000000002,-0.17343336,-0.035971235,-0.34362042
6.665649,-4.9697022,-1.8876939999999998,-0.26925194,0.15777776,-0.64278734
7.487990400000001,-5.418318,-1.6285551999999999,-0.27989846,0.045989424,-1.0170033
8.489954,-5.626326000000001,-1.3998226999999999,-0.097843155,-0.40861648,-1.2948947
9.406541,-5.6606874000000005,-1.1980585,0.28061405,-0.9616764000000001,-1.4221117
10.405786,-5.861791,-1.0064745000000002,0.55742323,-1.2667077,-1.5259063999999998
11.291677,-6.31758,-0.3892493,0.59203315,-1.2608608000000001,-1.7707936000000002
11.998302,-6.805988,-0.106283404,0.5041907,-1.0489953,-2.168432
12.369988000000001,-6.8796144,-0.24001393,0.50899035,-0.84297657,-2.5586352000000003
12.968231,-7.0362616,-1.0994844,0.59149206,-0.76473343,-2.8077636000000004
12.832289,-7.479707,-1.3112181,0.6335545,-0.77325064,-2.8540669999999997
12.293842,-7.6164155,-0.82663167,0.6143908,-0.74504614,-2.7779534
12.110954,-8.793376,-0.53553504,0.47918016,-0.57468456,-2.7162034999999998
11.915865,-10.429028,0.026671407999999997,0.38601446,-0.32342696,-2.7369554
11.535714,-11.116173,0.5794255,0.39507273,-0.1892984,-2.8109574
11.0174265,-9.963461,0.64013296,0.41688934,-0.06365216,-2.8450263
10.657866,-8.502701,0.5668033,0.40198424,0.05555383,-2.7870116
10.552539999999999,-8.141263,0.82184327,0.32745868,0.14179055,-2.6187792
10.024648,-9.073584,1.0421864,0.18001325,0.22698008,-2.3936142999999994
9.125433000000001,-9.979836,0.9056403000000001,0.044802602000000004,0.31321678,-2.1327748
7.9674435,-10.309258999999999,0.5425644000000001,-0.03876376,0.37655479999999997,-1.8160325000000002
7.121419,-9.78379,0.41510668,-0.0856084,0.42818162,-1.4971783
6.868955000000001,-9.095811999999999,0.36643735,-0.12606514,0.44734535,-1.1059104
7.022385000000001,-8.788339,0.7741795,-0.2767045,0.40530035,-0.62468827
6.7790479999999995,-8.802455,0.78025115,-0.5923822,0.32545155,-0.018901916
6.0563245000000006,-8.6626625,0.5944133,-0.9069778000000001,0.26263714,0.5362873
5.1028004000000005,-8.422533,0.46299073,-1.1832633999999997,0.29829422,1.0238974
4.107003700000001,-8.163395,0.010065224000000001,-1.4110987,0.29349455,1.5013846000000002
3.3835914,-7.6313457,-0.10948206,-1.58996,0.070999995,2.1125116000000004
2.5973067000000003,-7.01255,0.041946415,-1.508523,-0.19781561,2.75769
2.0218171999999996,-6.605975999999999,0.25359383,-1.0592228000000001,-0.44640285,3.3160906000000003
1.8512733000000001,-6.904533,0.08306922,-0.14948745,-0.7194944999999999,3.5694776
1.8320144,-7.499377000000001,-0.39906555,0.89011794,-0.9531767,3.4284199999999996
1.6051494,-7.7448783,-1.211897,1.4522709999999999,-0.91432565,2.8976830000000002
1.5765818,-8.052313,-1.6812658,1.4001031000000002,-0.5842664000000001,2.2727327
2.5817444,-8.80257,-1.6642766,0.9625315999999999,-0.05248205,1.8213209
3.8635998,-9.951298,-1.4170513999999999,0.47277477,0.5165476,1.5759101
4.4287753,-11.399206,-1.3501094999999999,0.1757372,0.95572484,1.4252708
4.4891853,-12.428369,-0.74255687,0.047996555,1.2069825,1.3055062
5.364955999999999,-12.892154,0.7437444000000001,-0.00842994,1.2687148000000001,1.2309632
7.5127177,-13.078365,2.3662755,-0.12128293,1.1957948,1.2543856000000002
10.351638000000001,-12.901846,3.4252790999999996,-0.36721727,1.0749483,1.3906608999999999
12.810472500000001,-11.632794,2.4129627,-0.63444465,0.8151735,1.5865566999999998
13.659275,-9.533635,0.18174864,-0.8926136999999998,0.50750685,1.7797995
12.359865,-7.193177700000001,-1.6469904999999998,-1.0480528,0.20247565,1.8734887999999998
10.04244,-5.4108480000000005,-2.1742034,-1.0842508999999998,-0.010960667,1.9272624
8.173958,-4.3930635,-1.7151198,-0.9474520000000001,-0.1807812,1.9128808999999998
7.1067279999999995,-3.9405208,-0.9274180000000001,-0.59131753,-0.30747464,1.7074032
6.4617014,-3.8271312999999996,-0.634473,0.0038048178,-0.43523276,1.3060299
5.888194599999999,-3.954886,-0.7862366999999999,0.5281366,-0.5400921,0.8295899
5.2903523,-4.362226000000001,-1.4109031,0.70328045,-0.60664153,0.2924823
5.012855,-5.0189075,-2.0076625,0.45734608,-0.6029065,-0.11154399
5.4394730000000004,-5.8291054,-2.2062953,-0.093060955,-0.3500607,-0.45223227
6.495,-6.672878999999999,-2.0693755,-0.5641776999999999,-0.14671238,-0.8818101
7.789994999999999,-7.0883020000000005,-1.439624,-0.5620484,-0.31864476,-1.2576319
8.710930000000001,-7.009658,-0.49201804,-0.18090338,-0.61728805,-1.5386997
9.877001,-6.5961504,0.6704051999999999,0.1603085,-0.83393574,-1.8458602
11.339417999999998,-6.373173,1.5259969999999998,0.30829495,-0.8765218000000001,-2.154068
12.784807,-6.549626,1.8063198,0.44296455,-0.8504466,-2.4212952000000003
13.738629000000001,-6.6775723,0.59736294,0.53452456,-0.82437134,-2.560241
14.024458,-7.238351299999999,-1.6950468999999997,0.54091245,-0.7812443,-2.5581117
13.679673999999999,-7.7195477,-2.9183214,0.46054003,-0.6891607,-2.4819803
13.805655999999999,-8.364460000000001,-3.4984267,0.38707912,-0.57843703,-2.5032735
14.374327,-9.7247305,-2.407255,0.34182274,-0.43097416,-2.6682942
13.174323999999999,-10.364805,-0.006636726999999999,0.33384657,-0.26436502,-2.8977353999999997
11.696442,-9.703173,1.3006357,0.3450167,-0.105732046,-3.0728617000000003
10.436976,-8.616196,1.5356027,0.32159436,0.09227556,-3.1133182
9.788608,-8.370513,1.3889052,0.26570892,0.20991075,-3.0473275
9.269314999999999,-8.79828,1.221196,0.10920525,0.26103145,-2.9137049999999998
8.610517,-9.48509,0.73682994,-0.12500048,0.3419449,-2.6975808
8.003969999999999,-9.688674,0.23600125,-0.31983158,0.46490335,-2.3084424
7.7445436,-9.408178,0.11611878,-0.44919538,0.5953143,-1.795298
7.9867887,-8.682715,0.38997716,-0.5088157999999999,0.71616095,-1.2736017
8.125911,-8.100839,0.6725121000000001,-0.51307446,0.7406479,-0.7838797
7.864119500000001,-7.9908204,0.8295046999999999,-0.53649676,0.691674,-0.29892254
7.029788000000001,-8.144911,0.70437413,-0.65200263,0.5899911,0.28820622
6.04579,-8.446964,0.5825189000000001,-0.6961944,0.34672709999999995,0.9051800999999999
5.198501599999999,-8.478386,-0.019421763999999998,-0.6621255,0.15135495,1.3698915
4.373785,-8.357871000000001,-0.4868274,-0.69778264,0.043825217,1.7696766
3.4169474,-8.191042999999999,-0.6037889,-0.8713207000000001,0.006562438,2.115688
2.049044,-7.7345934000000005,-0.12949759,-0.97193897,-0.16961110000000001,2.5788112
1.2617731,-7.2691793,0.15987521,-0.742498,-0.42140976,3.0738738
1.3276135,-7.1915975,0.3024547,-0.03876376,-0.77967346,3.3863401
1.6607619999999998,-7.697847,0.059720967,0.8273035,-1.1661242,3.2117374
1.8277432,-8.117369,-0.41780734,1.3298187,-1.3071992000000001,2.5756172999999998
1.7353365,-8.283669,-0.73133284,1.2068603,-1.0900105,1.9841950000000002
2.5573425,-8.556934,-0.39653727,0.7389375,-0.56353194,1.698345
3.7212791,-9.142066999999999,-0.2571181,0.25665066,0.07044149,1.6711876
5.207111,-10.12912,-0.816758,0.01977458,0.5543166,1.648289
6.1875267,-11.371308,-1.3655282,0.10814059999999999,0.73958325,1.5972031
6.404383999999999,-11.888005999999999,-0.6114887,0.27581438,0.70603806,1.5396945
7.198100599999999,-11.827376,1.0705147,0.34449309999999994,0.6048962,1.4566691999999999
9.528865,-11.445874,2.4022843999999997,0.23109904,0.49097857,1.3698915
12.370486,-10.476998,1.6127821000000002,0.0048694685,0.38131952,1.3209175
13.741741000000001,-9.408026,-0.6327588000000001,-0.24158847,0.28495990000000004,1.3400812
12.718391,-8.341389,-2.42049,-0.44865432,0.28708920000000004,1.3432752000000001
10.089224,-7.2312746,-2.6997017999999997,-0.5993111999999999,0.43772858,1.3432752000000001
8.293591000000001,-5.9948606,-1.9053918,-0.5939879,0.5836031999999999,1.249586
7.4803095,-4.9796233,-0.53973925,-0.36028832,0.5165301999999999,1.0132334
6.874567,-4.4195720000000005,0.14446613,-0.010559242,0.17955947,0.70342004
6.586257499999999,-4.079557,0.010304645,0.20289452,-0.24521875,0.45855036
6.626461,-3.9890944999999998,-0.86226696,0.10547025,-0.49382347,0.24933773
6.7671633,-4.143262,-1.7368686999999998,-0.23572417,-0.51883405,-0.03223623
7.067703,-4.6933155,-2.2321619999999998,-0.583865,-0.49434707,-0.41125193
7.582552000000001,-5.4394636,-2.2988071,-0.6924594000000001,-0.6439391999999999,-0.7828151
8.412401,-5.745902500000001,-1.9805698,-0.45078364,-0.86432195,-1.0968871
8.849956500000001,-5.5694875999999995,-1.2205736999999999,-0.17397442,-0.9808925,-1.4886786
9.564453,-5.276849299999999,-0.37939477,-0.03876376,-0.85154617,-1.97203
10.480597999999999,-5.4640949999999995,0.08455363,0.06288421,-0.54546773,-2.3707504
11.325561,-6.108317400000001,-0.48051625,0.17360789999999998,-0.29738665,-2.561323
11.604524000000001,-6.761944000000001,-1.7478630000000002,0.29551914,-0.15152949,-2.5991093999999997
12.055122,-7.0913477,-2.6802322999999997,0.42380086,-0.10681415,-2.5799458
13.032827000000001,-7.877738000000001,-2.8922052000000003,0.5739166,-0.14940019,-2.5943272
14.22241,-9.563322,-2.4122539,0.7219031,-0.20210913,-2.6661825
14.263829999999999,-10.690895,-1.0147489,0.8954412,-0.24469516,-2.7582834
13.277247000000001,-10.019936,0.7833349000000001,1.0072296,-0.22926645,-2.8290915
12.789174000000001,-9.332627,1.2663795,1.0279989,-0.19997983,-2.8567723999999997
12.379661,-9.554502000000001,1.1809256000000001,0.92579246,-0.15580554,-2.8163157
11.587391,-10.305342999999999,1.1317104,0.6761231,-0.08447394,-2.6912105
10.188314,-10.730965,1.02536,0.3450167,0.015044739,-2.4410174
8.755528,-10.300583999999999,0.995873,-0.0052359877,0.14653784,-1.9869526999999998
7.502863400000001,-9.118576,1.1926379999999999,-0.36135298,0.25939083,-1.4056532
6.708888000000001,-7.902178,1.3786962999999999,-0.7068409000000001,0.32754594,-0.86585784
6.2447867,-7.0510583,1.5840901,-0.9879087,0.33763394,-0.42830379999999996
5.879183,-6.8080463,1.4862151000000001,-1.1779401000000003,0.2844014,0.008185594000000001
5.5484667000000005,-6.904964,1.0610241000000002,-1.2897285,0.18912388,0.5117654
5.014483,-7.085075,0.40627688,-1.3514781999999999,0.10341076,1.010022
4.4455540000000004,-7.2375565,-0.37546828,-1.3956699,0.06454228,1.4816624
3.764336,-7.303387599999999,-1.0815088,-1.3828942,0.013456488,1.9543673
2.8890066,-7.506253200000001,-1.4702601,-1.2801466000000001,-0.0956615,2.3951328
1.5943277,-7.4330482,-1.4242436,-0.95490456,-0.25748843,2.8310986000000002
0.860342,-6.93085,-1.3430035,-0.3533768,-0.3469191,3.1824334
1.0233105,-6.637005,-1.1621072000000001,0.5132315,-0.48212975,3.2250195
1.6701281000000003,-6.9482029999999995,-0.99479085,1.2265476,-0.58700657,2.8992362000000003
2.0348415,-7.6991396,-0.6674842,1.3915684,-0.41453314,2.2992969
2.347007,-8.383431,-0.2336741,1.0231993000000001,-0.011030481000000002,1.7611245
3.3795303999999997,-9.226267,-0.056876656,0.5180312,0.44355798,1.4811212999999999
4.505303400000001,-10.382541999999999,0.07439263,0.26996753,0.79862773,1.4225655000000001
5.710104,-11.708039,0.22986251,0.2529331,0.99665284,1.3980786
6.814530400000001,-12.799000000000001,0.7267169,0.3098832,1.0807427,1.3453696000000002
7.675513700000001,-12.930307,1.7830483,0.2795494,1.0275277,1.2618033000000002
9.330299,-12.703634,2.71558,0.13208652,0.8784591,1.2043121
11.724377,-11.921133,2.7657816000000004,-0.10957177,0.7139793000000001,1.1973832
13.653154999999998,-10.728744,0.9975106,-0.36402333,0.54789376,1.2303872999999999
13.736866000000001,-9.065338,-1.520232,-0.54447293,0.32164672,1.2963957
11.540080999999999,-7.2609143,-2.5866957000000004,-0.61048126,0.15343189,1.3272705
8.937545,-5.921799,-2.0339892,-0.675425,0.12681562,1.3176887
7.236973,-4.956304,-0.8676683000000001,-0.6530673,0.17259560000000002,1.2090943
6.5169883,-4.209418299999999,-0.22373337,-0.43748423,0.15343189,0.9461255
6.203893700000001,-3.6545286,-0.46786532,-0.089343406,0.04803146,0.59957296
5.9910207,-3.3394422999999995,-1.1183698,0.10707595,-0.13559464,0.25144958
5.8010263,-3.3575902,-1.8157625,-0.106901415,-0.1728574,-0.09773844
5.811896,-3.754932,-2.1182652,-0.5620484,0.079970986,-0.41608649999999997
6.285153,-4.5250697,-2.1863656000000002,-0.8473748,0.32696998,-0.66093874
7.0938663,-5.4838133000000004,-1.9196806,-0.7574031,0.29236009999999996,-0.81478953
8.191149000000001,-5.943931,-1.4719266000000002,-0.31611404,-0.17872171,-0.83821183
8.940505,-5.8810405999999995,-0.89528775,0.26090926,-0.8984257,-0.864287
9.839221,-5.809769999999999,-0.17049589999999998,0.49939105,-1.3913765,-1.0969219
10.954114,-6.008805000000001,0.45378742,0.37110937,-1.4142578000000001,-1.3636257999999999
11.954863000000001,-6.538546,0.17150144,0.23109904,-1.19761,-1.6138186
12.240615,-6.9298444,-1.1013806000000002,0.26516786,-0.9995674999999999,-1.8065205000000002
12.2199,-7.0773850000000005,-2.439117,0.40622538,-0.84201664,-1.9560952
11.714063000000001,-7.521432400000001,-2.1552603,0.55581754,-0.67539006,-2.116334
11.220885,-8.52627,-0.8659157,0.6894225,-0.51462775,-2.3202057000000003
10.811669,-10.045169999999999,0.37906915,0.78524107,-0.29956833,-2.5570993
10.445921,-11.087213,1.2297481000000001,0.8544434000000001,-0.12177162,-2.756189
10.959621,-10.856719,1.1348133,0.9279043,-0.029688051,-2.9020462000000005
11.515977000000001,-10.243936999999999,0.015524004,0.93909186,-0.026476644,-2.9584727
11.337886,-9.779739,-0.27621427,0.8150513,-0.049375363,-2.903652
10.637975,-9.457450999999999,0.45188162,0.54782397,-0.043528512000000005,-2.719991
9.678657000000001,-9.054861,1.2540541,0.14112732,-0.014782938999999998,-2.365462
8.653439500000001,-8.171496000000001,1.7357580000000001,-0.36562902,0.08208284,-1.8528241
7.927364999999999,-7.029749400000001,1.9403377,-0.8819847,0.21409954,-1.2784537
7.441523599999999,-6.136789,1.9568290000000002,-1.2056385,0.35410985,-0.81798345
6.8796234,-5.8300343,1.7348577,-1.3988638999999998,0.46588072,-0.37669440000000004
6.378431299999999,-5.938396,1.3811096,-1.5122579,0.52497756,0.11622147
5.7503934,-6.476765599999999,0.89641786,-1.4941589,0.46801004,0.6181956000000001
5.1509905,-7.1705190000000005,0.19216819,-1.3988638999999998,0.3477045,1.1201872
4.522379,-7.870105000000001,-0.6827976,-1.30411,0.23378685,1.595545
3.7128992,-8.264679,-1.5350856000000002,-1.1087553999999997,0.102293745,2.102319
2.7282982000000002,-8.362726,-1.9982294999999999,-0.6482851,-0.08611455,2.6021812
1.7663175,-7.963814,-1.9846112,0.20394172,-0.36133552,2.956169
1.7245626,-7.6604977,-1.4266187,1.2387823,-0.6716725,2.9684209999999998
2.2640432999999995,-8.060118,-0.63182986,1.9638096,-0.9335766,2.568636
2.6967711,-8.656898,-0.11597513,2.0229063000000003,-0.81700605,1.9122700000000001
2.9004605,-9.368454,0.24836491,1.3830513,-0.32887238,1.2729559
3.2803150000000003,-10.041348,0.75500673,0.45094073,0.39029053,0.9205565
4.550554,-11.162687,0.76309913,-0.20912535,1.0381218,0.79119265
5.5110980000000005,-12.129515,0.8646995000000001,-0.33634240000000004,1.3628403,0.80609775
5.98016,-12.656124,1.5577251,-0.14631096,1.3846744,0.9360026
6.3947883,-12.128921,2.9322746,0.08843583599999999,1.1323521,1.0323448
8.117933,-11.112142,3.7788737,0.14166838,0.8278620000000001,1.0525732
10.742476,-10.274238,3.0162728,0.0053930674,0.6021386,1.0632023000000002
13.160764000000002,-9.327628,0.42444408,-0.16866861,0.44565237,1.107394
13.6855345,-7.8737054,-2.4089117,-0.32569590000000004,0.32161182,1.1803312
11.905666,-6.3952575,-4.047197,-0.41299725,0.21779963,1.2702855
9.228795,-5.523921499999999,-3.8242392999999995,-0.47635272,0.1645671,1.3320353
7.331322999999999,-5.095608,-1.9130628,-0.48912853,0.13423327,1.3378996
5.98243,-4.9819317000000005,-0.21216458,-0.37946948,0.042132247000000005,1.2255702
5.0697220000000005,-4.7782617,0.45020568,-0.15961036,-0.14257595,1.0456442
5.0518613,-4.2785153,-0.104550004,0.025621433,-0.4236263,0.86517715
5.2280746,-3.9593585,-1.0827538,0.06447246,-0.6951123,0.70973814
5.380978,-3.9399462,-1.7117201000000002,-0.15961036,-0.8100946,0.47446775
5.7453947,-4.278007499999999,-1.8638668,-0.5918585999999999,-0.6546556,0.17210692
6.269332,-4.9631515,-1.697556,-0.97780323,-0.40552726,-0.14568263
7.1064887,-5.5955267,-1.4990576999999998,-1.0304947,-0.33580133,-0.40493384
7.895972,-5.7866225,-1.347993,-0.68289495,-0.4694063,-0.7035597
8.741278999999999,-5.6409307,-0.8512249,-0.25277603,-0.6275156999999999,-1.1507129999999999
9.698901,-5.804282,-0.42453986,0.13421582,-0.6850068,-1.5685972
10.580561999999999,-6.4553519999999995,-0.5791381999999999,0.51056117,-0.72172856,-1.7863096
11.133104,-7.123775,-1.2008261999999998,0.74851936,-0.8117003,-1.7921565
11.698874,-7.5463130000000005,-2.054292,0.87467176,-0.9857794,-1.6920967
12.640149000000001,-8.120049,-2.6750703,0.9087405999999999,-1.1593001,-1.6404523999999998
13.377631,-9.040275999999999,-2.6732795,0.88160074,-1.1917806,-1.7224305
13.838821,-10.272561,-1.7912077000000002,0.82198024,-1.0837272,-1.8784106
13.275791,-10.619644000000001,0.061320294000000004,0.73839647,-0.8899608,-2.0008453999999998
12.226728,-9.514854,1.9842281000000002,0.682511,-0.75581485,-2.0806942
11.661831,-8.79647,2.398454,0.60850906,-0.65200263,-2.1296682000000002
10.547167,-9.02433,2.41574,0.43922955,-0.5524665,-2.1381855
9.069513,-9.286324,1.953841,0.1762608,-0.44546038,-2.1163514
7.705355,-9.1268215,1.1990258,-0.11437143,-0.2825688,-2.0242677
6.772976400000001,-8.386936,0.7122367,-0.40182716,-0.057386424000000005,-1.8858631999999997
6.6352715,-7.3767557,0.5449874,-0.6349857,0.22951079999999996,-1.7527816999999999
6.8080754,-6.4633864999999995,0.6745903,-0.80265945,0.5563585999999999,-1.6260883999999998
6.670437299999999,-6.066523999999999,0.73442614,-0.9597041999999999,0.8507258,-1.3982531
6.244844400000001,-6.1124160000000005,0.7010414,-1.0501995000000002,0.97422534,-1.0703406
5.9362025,-6.325691,0.58767116,-1.0922445,0.9635788000000001,-0.6343748
5.6573167,-6.6199007,0.23181619,-1.0555228,0.9098226999999999,-0.16006415
5.461308,-6.903709399999999,-0.3046382,-0.96768034,0.9146049,0.30997047
5.2874985,-7.254766,-0.64879996,-0.92615896,0.90448195,0.6740636
4.943797,-7.5450873,-0.60224706,-0.9123184999999999,0.7607716,1.0738486999999999
4.633623,-7.570657300000001,-0.22816741,-0.7888189999999999,0.5020614000000001,1.5625235
4.568251999999999,-7.712394000000001,0.141957,-0.47741735,0.27368507,2.0059593000000002
4.6272254,-8.37757,0.30619925,-0.08189085,0.12463396,2.2396414
4.2527633,-9.367994,-0.08676587,0.39079666,-0.12182398,2.2454882
3.5528230000000005,-9.61702,-0.031929072,0.6415132,-0.28150415,2.1044307
3.0113695,-9.510775,0.21603361,0.49033279999999996,-0.17612118,1.9409981
3.1663412999999996,-9.606160000000001,0.53124464,0.18531907,0.09004153,1.8302744999999998
3.7769489999999997,-9.863546000000001,0.5476688,-0.12927654,0.44561747,1.7019928
4.4912157,-10.524318,0.021634007,-0.30546752,0.7964286,1.569976
4.624658999999999,-10.86664,-0.16570748,-0.3320838,1.0365162,1.5268663999999998
4.651378599999999,-10.457691,0.646626,-0.24158847,1.0945308,1.5704996999999998
5.630482,-10.028171,1.2962592,-0.13618805,0.9598438,1.6178854
7.4569325,-10.01984,1.4141208,-0.12021828,0.7171034000000001,1.6205382
9.2137785,-9.863421,0.6812653000000001,-0.2666165,0.46212828,1.6599302
10.152296,-9.512269,-0.8218241,-0.53010887,0.26357964,1.7696068
9.883322999999999,-8.50521,-2.011819,-0.7888189999999999,0.1629614,1.8813776999999998
8.905797999999999,-6.943826700000001,-1.9197761999999998,-0.97354466,0.19010127,1.9553796
7.816331,-5.4887934000000005,-1.1078258,-1.0512642,0.25877997,1.9079939
6.829862599999999,-4.5750036,-0.17608875,-0.8766613999999999,0.1783901,1.6956048
5.814271,-4.3211417,0.29613402,-0.46090654,-0.09786061,1.3660866000000003
5.3078975999999995,-4.390889,0.20218554,-0.014817845,-0.44387212,1.0584025
5.503044,-4.4617767,-0.27976725,0.22949335,-0.71481705,0.7475245
5.8675755999999994,-4.662181400000001,-1.1242212999999999,0.16135569,-0.7659203,0.39512509999999995
6.156345,-5.229826999999999,-1.9879726000000002,-0.061138883,-0.66479594,-0.02539454
6.798537,-5.9943914000000005,-2.3222895,-0.30759683,-0.5056219,-0.49755847
7.920383500000001,-6.6165199999999995,-2.087217,-0.31771973,-0.58014745,-0.92874205
8.905319,-6.8322663,-1.2836848,-0.04410447,-0.8457865999999999,-1.2268443000000002
10.0654545,-6.6870055,-0.4414429,0.3098832,-1.1444124,-1.535593
11.288355000000001,-6.6258383,0.44007343,0.52546626,-1.2918752,-1.8124022000000002
12.2592125,-6.7843537,0.74411786,0.60637975,-1.2971985000000001,-2.037061
12.765165,-6.9831389999999995,0.23263979,0.54730034,-1.2237376,-2.2393272
13.433742,-7.1481094,-0.9834136,0.43125340000000006,-1.0773568,-2.4336347999999997
13.978135,-7.29904,-1.8652651000000002,0.40409607,-0.8990190999999998,-2.5443585
14.254139000000002,-7.4920990000000005,-1.8076701000000002,0.44722316,-0.6488261,-2.6257956
14.240003,-8.276218,-1.4042089,0.48555058,-0.38425168,-2.7290666
13.178567000000001,-8.78968,-0.022811955,0.5196194000000001,-0.13725269,-2.8323379
11.888428,-8.569719000000001,1.3268282,0.5488886,0.053825952,-2.840855
11.10108,-8.463714,1.4499764,0.5313306,0.15390313,-2.7780406
10.48915,-8.600059,1.1565717,0.44296455,0.18903661,-2.716832
9.991750999999999,-8.599034,0.7857579,0.29443705,0.23961625,-2.6896746
9.659005,-8.687649,0.48483542,0.14486232,0.32105333,-2.6822220000000003
9.151136,-8.9040165,0.6915412,0.06075491,0.47010443,-2.6124961
8.421078,-8.861208999999999,1.3664571,0.048502699999999996,0.65003043,-2.4016952999999996
7.873016000000001,-8.622325,1.7004386999999999,-0.012688544,0.8214392,-2.0434490000000003
7.707232,-8.656953999999999,1.6017593,-0.16334537,0.8656309000000001,-1.5116471000000002
7.4079857,-8.99221,1.3002048000000002,-0.3736052,0.7080451999999999,-0.8824385
6.8487864,-9.29568,0.7945494000000001,-0.54288465,0.48980920000000006,-0.23991296
6.3836985,-9.295755,0.37267187,-0.65147907,0.38332665,0.38128462
6.1731615,-9.086704,-0.06571605,-0.75581485,0.39718458,0.98654735
5.8629885,-8.758593,-0.14895765,-0.77445495,0.30082494,1.5422951
5.475941000000001,-8.630014,0.0963331,-0.77071995,0.121963605,2.0006185000000003
4.3807855,-8.426211,0.40899667,-0.79094833,-0.09468411,2.4461837
2.9273043,-8.306405,0.38145378,-0.75049156,-0.2836509,2.8390223999999997
1.4206713,-8.436391,-0.46297157,-0.5679126999999999,-0.36510542,3.0705926
0.47551718,-8.925708,-1.4304013999999998,-0.22987731,-0.43376666,3.014707
0.11132080000000001,-9.108147,-1.8109453999999998,0.06766641,-0.4130147,2.779943
0.32229784,-9.045026,-1.5101858,0.053302355,-0.23148301,2.5169742000000004
