accx,accy,accz,gyrx,gyry,gyrz
14.494976000000001,-11.804727,0.5512026999999999,-1.9372456000000002,-0.056985,1.8858631999999997
12.797467999999999,-10.718055999999999,2.1362696,-1.5545124,-0.043685592999999995,1.8368717
11.828008,-9.559242999999999,3.7419457,-1.1009711000000002,0.026040312000000003,1.7096547
11.192338000000001,-8.775544,4.4800115,-0.6319836999999999,0.1953198,1.4626556999999998
10.3370905,-8.306289999999999,4.1428404,-0.012897983,0.17135642,1.0825753
9.040341999999999,-8.013364,3.1605662999999997,0.91600114,-0.08253662,0.5651550999999999
8.401531,-7.677065400000001,2.1941613999999996,1.7283297999999998,-0.3018547,-0.056059975
8.674116,-7.257467,1.7137504000000001,2.1861296,-0.34657001,-0.7549945
9.245641,-7.046346000000001,1.9852338,2.5081778,-0.36521015,-1.3368349
9.2649765,-6.7740774,3.6481698,2.7844634,-0.367322,-1.7461845
9.342405,-6.057071700000001,4.720839,2.9894,-0.37798595,-2.0341810000000002
10.112045,-5.4465504000000005,5.6454124000000006,3.1922247,-0.5376835999999999,-2.3402772
10.914697,-5.180794000000001,6.1248755,3.3391464,-0.8709018,-2.823611
11.954958,-5.345668,6.5484285,3.382256,-1.3553355,-3.3601952000000006
13.023528,-5.907396,7.436667999999999,3.230011,-1.9052188,-3.7908552
13.608364000000002,-6.6249475,8.015433,2.9212623,-2.4412792000000003,-4.113968
13.784606,-7.099746700000001,6.693498599999999,2.5294707,-2.7015777,-4.288047
13.696145000000001,-8.625677,5.298637,2.1334207000000003,-2.6414337000000003,-4.2715364000000005
12.948552000000001,-9.983821,4.7510443,1.6953256,-2.1383773999999995,-4.087892500000001
12.221614,-10.881608,4.0202956,1.5563798999999998,-1.5991405,-3.8722922999999994
11.495415,-11.001452,3.370289,1.5686321,-1.1141833,-3.6865193999999994
11.674425,-11.082367,2.8911995999999998,1.5771493,-0.6249675,-3.4331150000000004
12.83385,-12.529392999999999,2.3472562000000003,1.5388218999999999,-0.34070572,-3.2223141
13.020980999999999,-14.187043,1.8786056,1.593119,-0.24171065,-3.0961616000000003
12.416971,-15.706498999999999,1.3486538000000001,1.6521984,-0.30398400000000003,-2.9534986
11.640178,-16.562521,1.4096581,1.5888605,-0.34976399999999996,-2.6575255
10.818736,-16.887176999999998,1.8813255000000002,1.3764538999999998,-0.39980257,-2.269469
9.557136,-16.574799,2.1493037,1.0613172,-0.41099012,-1.8590374
8.445988,-15.577585999999998,2.6332482999999995,0.7504392,-0.38276815,-1.5502886999999999
7.681508999999999,-14.400242,3.7063102999999997,0.33416075,-0.3167598,-1.2969018
6.7885675,-13.069047,3.6322434,-0.051225413,-0.34018213,-1.0078578
6.0779104,-12.041714,3.2547447999999997,-0.31738812,-0.4753928,-0.5133188
5.735119,-11.372544,2.5106175,-0.5446823000000001,-0.40406117,0.07967428
5.348033999999999,-10.978593,2.3201156000000003,-0.72408473,-0.01972222,0.6678851
4.2081065,-10.592226,1.5766201000000002,-0.7592182,0.45776495,1.154448
2.6503334,-9.916247,0.7338803,-0.7820995,0.8841488999999999,1.6015840000000001
1.576103,-9.090860000000001,-0.10791146,-0.9806655999999999,1.0417172,2.1738424
0.9864301999999999,-8.289799,-0.46419740000000004,-1.3011255,1.005519,2.784411
1.0410085,-7.9217143,-0.811213,-1.6460723999999998,0.91556484,3.3651866999999998
1.3014976999999999,-8.568646000000001,-1.1040527,-1.9053061000000002,0.7989594,3.7335385999999997
1.2493136,-9.73649,-0.70796543,-2.1331415000000002,0.7558497,3.9214580000000003
0.7443094,-10.6476755,-0.05540183,-2.3146732000000005,0.6648308,4.126936
0.41725188,-10.430521,0.6912539000000001,-2.4669182000000003,0.5397255999999999,4.2610817
0.7001603,-10.095295,1.5410806000000001,-2.6122343999999997,0.5413313,4.1791034
1.2609687,-10.091541000000001,2.0177758000000003,-2.7293458,0.72977453,3.8911241999999997
1.6963206999999998,-10.863681,1.2405604,-2.7527682999999996,1.0001959,3.5972807
1.8197081999999998,-11.678035000000001,-0.017832015,-2.6638787,1.304145,3.306631
2.834955,-12.801385,-0.53254706,-2.6436502999999996,1.5282626,2.9723306000000003
4.161467,-13.3607,-0.31841925,-2.6947533999999997,1.4862002,2.6593232
6.5960350000000005,-13.898226000000001,0.1621545,-2.6707902000000003,1.1417944,2.439464
8.483939,-14.510182999999998,0.27543855,-2.6244864,0.8703084000000001,2.2073702999999996
9.708871,-14.822560000000001,0.4857165,-2.4445605,0.6222448,1.9939165
11.177225,-14.584748999999999,0.8033313,-2.1948912,0.4135732,1.8799988
12.517605,-13.721006,1.3747411,-1.8313216,0.2091428,1.7378592000000002
12.854181,-12.421415,2.056131,-1.3852328999999999,0.06489134,1.5685798
12.167869999999999,-10.979674000000001,2.6762577999999997,-0.9641548000000001,-0.016004669,1.4152701
11.498355,-9.628531,2.9763184,-0.5904623,-0.07030186,1.26676
11.065627000000001,-8.567345,2.3319428,-0.17737779999999997,-0.15386823,1.0107201
10.346561,-7.9909167000000005,1.9956150000000001,0.21226694,-0.22467624,0.59442425
9.930545,-7.5489755,2.242055,0.5279272,-0.25235716,-0.021450097
10.077653999999999,-7.2364364000000005,2.7902122000000005,0.8270940999999999,-0.3407232,-0.61926025
9.875736999999999,-7.1314744999999995,3.6711924,1.2236853,-0.45303512,-1.086642
9.712605,-6.9320564,4.253874,1.6963903000000002,-0.49296823,-1.351199
10.074637,-6.170058999999999,4.9604029999999995,2.1557784,-0.5307546,-1.4858861
10.306731,-5.4518847,5.242018700000001,2.5560869999999998,-0.69471085,-1.6003273
10.504817999999998,-5.15033,5.218603,2.922327,-1.0156943999999999,-1.8537142
11.066201,-5.1428504,5.3669,3.1863604,-1.3233784,-2.357294
12.003809,-5.176235,5.457401,3.2278817,-1.6603667000000002,-2.9732032000000004
13.035815,-5.3837839999999995,5.264725,2.9984581,-1.9376993999999998,-3.5294745
14.049960999999998,-6.053107,5.1531934999999995,2.6998148,-2.0404296000000004,-3.9005141000000005
13.851242000000001,-7.371613000000001,5.3503704,2.4427103999999997,-1.9046953000000002,-4.062341
12.978863,-9.119553,5.6957674,2.160037,-1.5437787,-3.9910095
11.91962,-10.380445,5.7679195,1.9343308999999997,-1.2414178,-3.7674327000000005
11.2449045,-11.093735,5.314975,1.8076375,-1.0146471,-3.577925
11.027482000000001,-11.259557000000001,4.5813913,1.8060492,-0.9246754,-3.4602722999999997
11.9138155,-11.389035,3.9281762000000002,1.7666571,-0.83685046,-3.3266672999999995
13.167697,-11.972197,3.101085,1.761334,-0.83098614,-3.2004973999999997
13.316397,-12.814792,2.1308587,1.7325883000000002,-0.8469559000000001,-3.0801919
12.633053,-13.980595999999998,1.4702218,1.7320473,-0.85707885,-2.9210353
11.423503,-15.107422,2.2210913,1.6937199,-0.7665835,-2.7251396
10.285002,-15.849404000000002,2.3311384,1.4988887,-0.5717524,-2.4893107000000003
8.969437,-15.826746,2.3957148,1.1395779,-0.44931757,-2.1113596
7.7894683,-14.984148999999999,2.5091042999999997,0.7413984,-0.35402259999999997,-1.6493011999999998
7.288496,-13.659436999999999,2.8882022000000003,0.26495844,-0.10808824,-1.2415399999999999
6.662287700000001,-12.585102000000001,2.8995602000000003,-0.29874802,0.15645131,-0.8832937
5.880916,-11.600577000000001,2.7493383999999996,-0.792746,0.21448351,-0.3610737
5.3315425,-10.820738,2.70178,-0.9024049999999999,0.08299041,0.31867966
4.6075454,-10.288134,2.61918,-0.80658644,0.1341111,1.0495712
3.90501,-9.744382,2.4874032,-0.7230201,0.37151077,1.6047778999999998
3.0289812,-9.316232000000001,1.9398012999999998,-0.817774,0.5434606,2.1733015
1.9614162,-9.240833,0.5840799,-1.0195166,0.48010516,2.7072325
0.75040984,-9.060033,-0.31170590000000004,-1.2787678,0.29007372,3.0074642000000003
0.2963064,-9.04358,-0.6696104,-1.640208,0.17722073,3.2294526
0.24510879999999996,-9.153253,-1.2360115,-1.9910192,0.14315191,3.5296667
0.15285541,-10.312488,-1.5180867,-2.253447,0.15325736,3.9337102999999995
-0.345445,-11.493815,-0.57288456,-2.3865283,0.17083283,4.2206426
-0.52326715,-11.7301235,1.1718754999999998,-2.4323082,0.22193606,4.1993317999999995
-0.054022767,-11.551219,1.8413230999999999,-2.5270622000000005,0.40186206,3.9550032999999996
0.9232904000000001,-11.592936,1.4205469,-2.641521,0.69409996,3.7095926
1.7366869999999999,-12.058781,0.062067285,-2.6404562,1.0092541,3.4631347999999997
3.4040186,-12.550922,-0.6791967,-2.439761,1.1013377,3.1416101000000003
5.8343725,-13.083344,-1.2504245,-2.2704812999999997,1.1364712,2.7370427000000004
7.4164515,-14.127926,-1.5363976000000001,-2.2412121,1.0906912,2.4224297999999997
8.555814,-15.384295999999999,-1.2564865,-2.2129903,0.8947954,2.230269
9.899467999999999,-16.00861,-0.62778836,-2.1086544999999997,0.67919487,2.0684419999999997
11.622336,-15.407051999999998,0.10209834,-2.0139005,0.46307075,1.8980979
13.213897,-14.087847,0.7003423000000001,-1.9074354,0.26345745,1.7586286
13.745266,-12.653364999999999,1.0168846,-1.6976991999999997,0.10056587,1.6755859
12.911508999999999,-11.192041,1.2624722,-1.442183,-0.0074874623999999996,1.6218123
12.246762,-9.674002,2.1986911,-1.1520743,-0.13522811,1.5036535
11.818594000000001,-8.263022,2.654873,-0.8491725,-0.31569517,1.302417
11.145602,-7.173143,2.1242507,-0.45631632,-0.5270196,0.95853484
9.907494999999999,-6.816541,1.7695161,-0.05974262,-0.7660425000000001,0.53693306
9.118986999999999,-6.5568757,1.8805113999999998,0.41455059999999994,-1.2068079,0.102031946
8.969522,-6.159591000000001,2.1922174,0.9575225,-1.6859008000000002,-0.48563787
8.895513000000001,-5.8483353,2.1396596000000003,1.4541734,-1.7934306,-1.1808549
8.832507000000001,-5.6667879999999995,2.5850961,1.8081785,-1.4527421999999999,-1.7403376
9.114564,-5.6407967,3.0985758,2.1515197999999995,-0.9145700000000001,-2.1821677999999998
9.594151,-5.1573977,3.4704337,2.5571517999999998,-0.3838328,-2.4988924999999997
10.257114,-4.6369076,3.6094792,2.9212623,-0.13044591,-2.8944016
11.13413,-4.254027400000001,3.8988137000000003,3.1677377,-0.26672122,-3.3309085
12.364998,-4.1162553,4.2949777000000005,3.2970839999999995,-0.6973812,-3.7472044999999996
13.396104999999999,-4.6876940000000005,4.575186,3.2199056,-1.1546399999999999,-4.128349299999999
14.102509,-5.475233,5.0752573,2.8483424,-1.3824753,-4.447203599999999
14.687479000000002,-6.13631,5.7047315,2.2441444,-1.1817799,-4.591996
14.975864999999999,-7.594063,5.975669,1.7480171000000002,-0.6973812,-4.556863
14.756844000000001,-9.044317,6.040676,1.4893068999999999,-0.28588492,-4.492460299999999
14.147989,-10.066594,5.422503,1.4504559,0.033492867,-4.406747
13.283154999999999,-10.026744,4.900298599999999,1.5936427,0.20331341,-4.249178400000001
13.767244,-10.989338,3.3160557999999996,1.8906803,0.22247712,-4.000573999999999
14.589767000000002,-13.384554999999999,2.2600403,2.2084873,0.022305308,-3.6881074999999996
15.042654,-15.995020000000002,1.4764371,2.397454,-0.26830947,-3.3889407999999994
15.041487,-17.686457,0.8436688,2.42887,-0.5094616,-3.0988147
14.323656,-18.54676,0.5843959,2.2201984,-0.54778904,-2.8092296
13.032731,-18.795929,0.7091147,1.7868855,-0.45622906,-2.440878
11.491527,-18.09481,1.7518373999999999,1.1401013999999998,-0.3375292,-1.8058048
10.181716,-16.856711999999998,2.824047,0.58541834,-0.17835520000000002,-1.2436693
8.658544000000001,-15.396095,3.4570072,0.13454743,0.036163222,-0.8194146000000001
7.1816573,-14.120992999999999,3.8788462,-0.20240583,-0.017592918,-0.39620718
5.802903,-13.006969,3.8645098,-0.41692424,-0.15758578,0.13131857
4.821701999999999,-12.296553,3.057003,-0.570234,-0.027174776,0.60189426
3.9254565,-11.594142,1.9813935,-0.66552895,0.31827825,1.0080498
3.019893,-11.175329,0.94167787,-0.7368606,0.66963047,1.4136817
1.8133876,-10.366338,-0.36426342,-0.89601713,0.7548024999999999,2.0317203999999998
0.059998695,-9.742361,-1.6764104,-1.0461329,0.50352746,2.7189436000000002
-1.2343451,-9.162647999999999,-2.2646947,-1.085525,0.09791297,3.3806154999999998
-0.32128270000000003,-8.988963,-1.6928251,-1.1243935,-0.20603612,3.8277687999999994
0.6607135000000001,-9.649744,-1.2838572,-1.3139013000000002,-0.37531559999999997,4.1684747
0.9866601,-10.278126,-0.7868208999999999,-1.7397616000000002,-0.321542,4.3052735
1.0388919,-10.393249,0.2600965,-2.3082852000000003,-0.014398966000000001,4.096602
1.5173108999999998,-10.238822,0.97117436,-2.7852487999999997,0.3789808,3.7048104
2.0963056,-10.490971,1.3154032,-3.0263834,0.7036993,3.4519646
2.2306778,-11.453104,0.88222504,-3.0295775000000003,0.8735023999999999,3.4461002
1.8437748,-12.350384,-0.18796399,-2.9694333,1.0044545,3.6281555
2.6848099999999997,-13.228587,-0.5708352,-2.9758213,1.0800446000000001,3.6734117999999993
5.531448999999999,-14.140471,-0.6866762,-3.220691,1.1966326,3.3124952000000003
8.537933,-14.502628,-1.5125896,-3.3186388,1.3201147,2.583192
10.735897,-14.512348000000001,-2.3840792,-3.1552062000000003,1.2120614,1.8251606
12.981831,-13.901376999999998,-2.9467163,-2.9513342000000002,1.0007368,1.492466
14.722520999999999,-12.886206,-2.4126658,-2.8421988,0.68825316,1.5510217
14.605176,-11.904536,-1.0723341999999998,-2.701665,0.42421973,1.6708037
12.730909,-11.1056,0.28823316,-2.4573364,0.26984537,1.7602343999999996
10.948205,-10.156653,1.099609,-2.1054604,0.20544271,1.8523179
10.21717,-9.022884,1.1237712,-1.640208,0.21074851,1.9273671
10.713756,-7.779058,0.10495222,-1.2798325000000002,0.19266689,1.9247142
11.4672785,-7.11211,-0.018224662,-0.96256655,0.12505284,1.7171073000000001
11.477046000000001,-6.5109644,1.3695121000000001,-0.59632665,0.03296927,1.3290333
10.003339,-6.59864,2.208718,-0.110845864,-0.08625417,0.8126951
7.623244000000001,-7.5212316999999995,1.9823032999999999,0.44968408,-0.124581605,0.31229177
6.187125,-7.9461164,1.9886622,1.0953861,0.055850536,-0.09864601
6.154985,-7.916035000000001,2.7487159,1.6857436999999997,0.37524578,-0.39727184
6.558044000000001,-7.775600999999999,3.7856927000000002,2.1674895,0.6552664,-0.70176196
7.097841000000001,-7.742532300000001,4.6214223,2.59335,0.67441267,-1.0344566
8.15398,-7.779374000000001,4.8337015999999995,2.9345791,0.38802159999999997,-1.5226078
9.482398,-7.6084380000000005,4.5203676,3.0005875,-0.16557938,-2.1113596
11.278777,-7.328508,4.6108685,2.9558720000000003,-0.9704554,-2.7991242
12.304051,-7.1741967,5.1620617,2.968107,-1.5757006000000002,-3.4336559999999996
12.876562,-7.200139999999999,5.846506,3.0804362000000003,-1.8562275000000001,-3.9649167000000003
13.227485999999999,-7.9362330000000005,6.5113378,3.1320632,-1.7588206999999998,-4.236403
12.961883,-8.782975,6.423508999999999,3.19116,-1.515033,-4.3354154000000005
12.7968645,-9.000561,5.425414,2.9952642999999997,-0.9731083,-4.3114696
12.963444,-8.771732,3.8604300000000005,2.5427876,-0.26778588,-4.224150700000001
13.792411999999999,-8.774366,2.4895005,2.123839,0.22725932,-4.0937395
14.742594,-9.649610000000001,0.5702318000000001,1.9758523999999997,0.37791613,-3.915402
15.089265,-10.39525,-1.0610433000000001,1.9439129000000002,0.2517463,-3.6700084000000004
14.954269,-11.232484,-1.059597,1.8347949000000001,-0.01972222,-3.4629252
14.549909,-12.691251,0.32775659999999995,1.6463516,-0.26991516,-3.3420959999999997
13.448201999999998,-14.227994,1.6357089,1.4366155,-0.4509058,-3.0535758
11.803922,-14.906922,2.1892006,1.2146270000000001,-0.5690821,-2.638362
10.599227,-14.761354,2.2363951,0.95645785,-0.83311546,-2.1677861000000003
9.813824,-14.235215,1.1052306,0.72755796,-1.3425596000000002,-1.6684648999999998
9.101403999999999,-13.655185999999999,0.09309614,0.19895008,-1.620416,-1.1031353000000002
8.330347,-13.209653,-0.09838254,-0.54681164,-1.4314492,-0.52928853
7.190697,-12.767895,0.27671224,-1.2159535,-0.87142545,0.05466371
5.942140599999999,-12.007946,0.11106223,-1.502868,-0.19378391,0.6008296
5.2567377,-11.078479,-0.55750424,-1.3442352,0.34651768,1.1645535
4.404469000000001,-10.371165,-1.0890169,-0.94499105,0.5402840999999999,1.8155961999999999
2.9153717,-10.066908999999999,-1.4331882,-0.56597537,0.46841148,2.7450363999999996
1.6432363999999997,-9.516799,-1.7196401000000001,-0.3530452,0.32735395,3.691511
0.6189682,-8.986636,-2.2039776,-0.44886377,0.15114552,4.296756299999999
0.32620520000000003,-9.606916,-2.8403754,-0.8550368,0.13304645,4.461253599999999
0.5881692,-10.745139,-3.6038290999999996,-1.4219546,0.09417797,4.422385
1.0739813999999999,-11.439869,-3.0527412999999997,-1.7237918,-0.13203415,4.476682
1.4101943000000001,-11.697284,-1.0972146999999999,-1.5853872,-0.4147077,4.632121
1.16883,-11.393785000000001,1.034726,-1.4437888,-0.50040334,4.629992
0.6779516999999999,-11.273099,2.1790682999999995,-1.646596,-0.16343263,4.338278
0.10914686,-11.894538,2.097541,-2.0155063,0.4897045,3.7814653
0.3116676,-12.500846000000001,0.9598546,-2.3066795,1.1998266000000002,3.1884546
2.6519136000000003,-13.904411999999999,-0.542392,-2.3338368,1.7252405,2.7242669999999998
6.0963364,-14.557244,-1.8607258000000002,-2.108131,1.8599101000000002,2.3745380000000003
9.198360000000001,-14.886820000000002,-3.0625672,-1.8733666000000002,1.6805252,2.1025110000000002
10.819244,-15.170485500000002,-3.2404754000000002,-1.7392206000000001,1.4516078000000001,1.8533826
11.325292,-15.337821,-1.8862191000000001,-1.643402,1.1945208,1.6388642
12.374163000000001,-14.933413,-0.56537634,-1.5220318000000002,0.8681966,1.5377223
13.709725,-13.679089999999999,-0.4206612,-1.4012027,0.5839348000000001,1.5217526000000001
14.204857,-11.464156,-0.6325481,-1.2904790000000002,0.42582542,1.5270758
13.713842999999999,-9.133813,0.24751258,-1.1291757,0.32574826,1.5121707
12.067724,-7.5590982,1.420978,-0.9678898000000001,0.19853120000000002,1.4605264999999998
10.350546000000001,-6.831222500000001,2.5443563,-0.8449139000000001,0.052132983,1.3322448
9.328481,-6.5050745,2.8913338,-0.6745696999999999,-0.16503833,1.066082
8.440461,-6.1763699999999995,2.330066,-0.2918365,-0.49614474,0.7264584
8.065663,-5.763006,1.6330371000000001,0.27933994,-0.78892374,0.2681175
7.621347,-5.750825,1.4500626,1.0389595999999999,-0.85652035,-0.33231068
7.1276054,-5.773761299999999,1.5097644,1.865146,-0.44662976,-0.9705775999999999
6.915775999999999,-5.794571400000001,1.5855073999999998,2.327187,-0.011187561,-1.3857913999999998
7.300361,-5.7708592,1.7817074000000002,2.746136,0.29007372,-1.6423723000000001
8.055147999999999,-6.007674,2.0389788,2.9718418,0.20170770000000002,-2.0267112000000003
9.14087,-6.428135,1.970495,3.1043822999999997,-0.22998203,-2.5270972
10.409492,-6.630675,2.0513616000000003,3.1326041,-0.83416265,-2.9806383
11.929273,-6.9750179999999995,2.9449544,3.0596669,-1.5964527,-3.4448261
12.739538,-7.0999669999999995,4.4129734,2.7642349999999998,-2.1160023,-3.8749452000000004
13.357270000000002,-7.185822999999999,5.789994,2.3037647999999997,-2.117608,-4.161336
14.232188,-8.229369,6.9078655,1.9503006999999999,-1.7486978,-4.250243
13.84653,-9.0409565,6.440536499999999,1.5915133999999997,-1.129071,-4.3268805
12.933286,-10.368359,4.588908999999999,1.1997218,-0.34070572,-4.4205875
12.160342,-10.498116,3.3911664,0.97508055,0.34224162,-4.433887
12.633014999999999,-11.347932,1.8174290000000002,1.1166791,0.5488013,-4.282182700000001
13.250929999999999,-12.767866,0.6944526,1.3807125,0.25441664,-3.8760097
13.3453665,-14.153820999999999,0.27828285,1.5617032,-0.21240658,-3.3772295
12.854488,-15.0562725,0.18613482,1.6681682,-0.5451187,-3.0461056
12.342685000000001,-15.769504999999999,0.16845602,1.6090889,-0.6153682,-2.825723
11.459885,-16.300634,0.9752446,1.4009409,-0.49614474,-2.5446725
10.13773,-15.376914000000001,1.9279548,1.0975153,-0.30770156,-2.1507343999999997
9.778428,-14.589959,2.0635624,0.75895643,-0.20336576,-1.6801761000000002
9.15692,-14.126192000000001,1.9475011000000002,0.3714235,-0.19484855,-1.1494389999999999
8.174427,-14.042557999999998,2.2857924,-0.04909611,-0.30079004,-0.5521698
6.6973767,-14.048879000000001,2.4051957,-0.37540287,-0.37583920000000004,0.042952552000000005
4.702078299999999,-13.3453,1.8674389,-0.60484385,-0.22252949,0.49436450000000004
3.7390056000000005,-12.272774,1.3659878,-0.81136864,0.008499754,0.8451757
3.6614432,-10.863211,1.1082186,-0.9311505999999999,0.18414968,1.2454843999999998
3.0500119,-10.010847,0.3559412,-1.0094112,0.14849262,1.8438182
1.5672252,-9.416817,-0.5025334,-1.1387575,0.015934857,2.5400825
0.31374577,-9.014294,-1.1400422,-1.40972,-0.029286625,3.1453452
-0.3509325,-9.034692999999999,-1.7991276999999999,-1.7370913000000001,-0.006946410500000001,3.5594943
-0.6694763000000001,-9.42174,-2.4073794,-2.1070662000000002,0.12239994,3.8496029999999997
-0.7375864999999999,-9.593136,-2.4196951,-2.3402247000000003,0.19373155,4.113112999999999
-0.16236518,-9.328174,-1.4759871,-2.307744,0.11868239,4.4788117
0.6827784,-9.146137,-0.72113353,-2.0309348000000003,-0.027698375,4.7976832
1.0314891,-9.142336,-0.37950972,-1.7386970000000002,-0.095294975,4.7955537
1.0081697,-9.961679,-0.25504953,-1.6380788,0.07716101,4.338295
0.83431226,-11.022617,-0.48131114,-1.8707136999999998,0.63290876,3.6909872999999997
2.1632762000000003,-12.379114,-0.81376046,-2.1405939999999997,1.1881155,2.9915118
3.701139,-13.520048000000001,-0.8821962999999999,-2.4280498,1.6283573,2.4102125
6.1225863,-14.801501000000002,-0.6510984000000001,-2.6617317000000003,1.8556689,2.0764356
8.037517999999999,-16.097673,-0.16686629,-2.6830423,1.8189297999999998,1.9422897000000001
9.348659,-16.92963,0.75899065,-2.6777189999999997,1.7012771,1.9284491999999998
10.276479,-17.380938,1.6492698000000001,-2.5307972000000003,1.4526899,1.8965096000000001
12.162286,-16.422174,2.1034212,-2.2018201,1.0587691000000001,1.8448653000000002
13.778276000000002,-14.319298999999999,1.8966675,-1.7945825,0.6078981999999999,1.8033613999999998
15.003753,-11.548404,1.1470141,-1.42089,0.14955726,1.7282948
14.856338000000001,-9.203062,0.5514611999999999,-1.0780724,-0.26244515,1.5696618999999998
13.573572,-7.79939,0.7649283,-0.77997017,-0.5429719,1.2971113
11.808835,-7.3893204,0.71948636,-0.49038514,-0.6590189000000001,0.90531975
9.881129,-7.4001327,1.1439879,-0.19334757,-0.656366,0.46509534
8.495107,-7.10645,1.9040607,0.16968091,-0.547248,-0.012915436
7.8861365,-6.7764240000000004,2.1335976000000003,0.6301336999999999,-0.26192155,-0.5255535
8.049009,-6.3015676,2.934956,1.2077155000000002,0.17137387,-0.9583254000000001
8.253091,-5.986538400000001,3.6177154000000002,1.825754,0.6339734,-1.1478332
8.598182000000001,-5.6945324,3.7276092000000003,2.3580794,0.7244687,-1.2968843
9.331334,-5.178408999999999,3.6713263999999994,2.8483424,0.525379,-1.5359071000000002
10.233125,-4.817766000000001,3.7185018,3.1586795,0.14475761,-1.8962828
11.346198,-4.6927695,4.0357428,3.3391464,-0.41310197,-2.4248908
12.283433,-4.9735613,4.5457273,3.4158013,-1.1626161,-2.9476342
12.940009,-5.6736736,5.129625,3.336476,-1.9472638,-3.405975
13.186314999999999,-6.3219185,5.866723,3.135257,-2.4268804,-3.7695446
13.051349,-7.026695,6.6294007,2.9707773,-2.5631557000000003,-4.168789
12.3840275,-8.56382,7.0013356,2.7913923,-2.25973,-4.450921
11.462288000000001,-10.115607,6.251979,2.502872,-1.5331146999999998,-4.5642977
11.448382,-10.755491000000001,4.993347,2.2510734,-0.85917324,-4.6164656
12.01874,-11.039511,3.6945980000000005,1.9322016,-0.25392795,-4.5627093
13.059557,-11.759160000000001,2.4465392,1.7198125,0.19214329,-4.305064
13.918729999999998,-13.267871,1.4687278,1.6884141,0.35983452,-3.954794
13.973432999999998,-14.698770499999998,1.1995142,1.8784455000000002,0.24111724,-3.6093059000000003
13.423005999999999,-15.82599,1.0538604999999999,2.0770116,-0.08464847,-3.2569065
13.025597,-16.516592000000003,1.928654,2.0998929,-0.37049848,-2.9289942000000004
12.617806,-16.9835,2.7071335,1.956706,-0.57278216,-2.6388854999999998
11.652541000000001,-16.974997000000002,2.9699786,1.7043663,-0.6835233000000001,-2.3375892999999994
10.81299,-16.676582,2.715925,1.3333442,-0.62655574,-1.9686791000000001
10.0575905,-15.973557999999999,2.3058077999999997,0.87873834,-0.48973940000000005,-1.4837393
8.505047,-14.974132,1.5848466,0.41667992,-0.38008034,-0.9125454
6.957961999999999,-13.796913,1.6955162,-0.058136917999999996,-0.32578316,-0.25193828
5.6802917,-12.700503,1.9651224999999999,-0.4813269,-0.3332357,0.5113989000000001
4.739533,-11.661419,2.1409814,-0.7789055,-0.2688156,1.2316439
3.6721114999999998,-10.677019,1.4037110000000002,-1.0173873,0.019146262,1.7336181
2.8558898,-9.700635,0.50911266,-1.1919899999999999,0.33695325,2.1153042
1.936641,-8.673666,-0.27166528,-1.2904615,0.50940925,2.5374296000000003
0.83868885,-7.7466984,-0.8159918,-1.4065083999999999,0.5541246,3.0575202
-0.33618423,-7.181628,-1.4672147,-1.7067400000000001,0.5844759,3.5946279000000003
-1.353605,-7.1060479999999995,-2.019011,-2.097467,0.5477367,4.0391283
-1.7702057,-7.2382946,-2.1977816000000003,-2.4669008,0.3864508,4.382469
-1.7869076000000002,-7.708860400000001,-2.1690032,-2.5787065,0.13943435,4.663537
-1.2279956,-8.171467999999999,-1.5122353000000002,-2.3167849,-0.2486047,4.941952
0.1841237,-8.149824,-0.42061335,-1.9777023999999999,-0.49399799999999994,4.9712385999999995
1.878596,-8.190813,0.23189281,-1.7908473999999999,-0.24593434,4.669925
2.9980192000000003,-8.891289,0.48695192,-1.8004293000000002,0.29009120000000005,4.155698999999999
3.2029247000000005,-9.831445,0.43200976,-1.7935178,0.99489003,3.6233733
3.8677563999999998,-11.241974,-0.22834939,-1.8057525,1.6629671999999998,3.0692312999999998
5.041566400000001,-13.134294,-0.9672288,-1.9111529999999999,2.0313363,2.3745380000000003
7.0155087,-15.035854,-1.2351879,-2.1581519,2.0478473000000004,1.7469348999999998
9.325828,-16.609468,-0.53919333,-2.3146555,1.7710205,1.383348
11.344666499999999,-17.720558,0.93290544,-2.5110924,1.4814353999999998,1.2593249
13.088077,-17.412779,2.3493630000000003,-2.6468267000000005,1.0789975,1.1209203
14.8711815,-16.08148,2.7084357999999997,-2.726152,0.6531371,1.0405304
15.749634,-13.953216000000001,2.5700032999999998,-2.7304106,0.38325685,1.161377
14.736483999999999,-11.478119,2.8464377,-2.4700947,0.103777274,1.2763593
13.300068,-9.569749,3.0082857999999995,-2.0751092,-0.21612412,1.2641245
12.5141,-7.663064,2.8867943,-1.5821758999999997,-0.46153486,1.2146095
11.875939,-6.4047865999999996,1.7113945,-0.78794634,-0.75324917,1.218327
10.502961,-6.1880727,0.7712777,0.31340876,-0.93156946,1.0687524
8.589466999999999,-6.118995,0.7758649999999999,1.1704527,-0.84267986,0.572084
8.026044,-6.132681,0.6038177,1.6112181,-0.4487416,-0.1550376
8.153253,-5.7637343,0.9736355999999999,1.8677990000000002,0.054803338,-0.88325876
7.9451103000000005,-5.8938637,1.4238030000000002,2.2606552000000004,0.2656042,-1.4108020000000001
7.630589,-5.7333565,2.5384952999999997,2.6322183999999997,0.14264576,-1.7046456
8.429917,-4.9969954,3.9312122000000005,2.9526782000000003,-0.15065682,-1.919705
9.759552000000001,-4.779219,4.4966935999999995,3.1815782,-0.50518554,-2.2944622000000003
10.524403999999999,-5.2100797,5.6167207,3.2396104,-0.79210025,-2.7607791
10.939739,-5.527818700000001,7.760757000000001,3.1991537,-1.1232241000000003,-3.2223141
12.465861,-5.493017,8.916447999999999,3.0431736000000003,-1.3760698999999998,-3.6156937999999994
14.186881,-4.971033,7.5279636,2.770623,-1.4505955,-3.9792633
15.119470000000002,-5.1523794999999994,6.223258,2.4474926,-1.1679393999999998,-4.2097864000000005
15.528773000000001,-7.2296467,5.2097826,2.1227741,-0.6041981,-4.344456
14.481252,-9.114486999999999,4.818417,1.8944153000000001,0.068120204,-4.4786019999999995
13.4897375,-10.4632845,3.9724212,1.8880273,0.56744146,-4.6851444
12.959641,-10.811419500000001,3.3177025,1.8640815,0.76705474,-4.690991400000001
13.872157999999999,-11.850417,2.6105034,1.9300898000000002,0.6818827,-4.437081
14.545437,-13.617357,2.0790675,2.1440669999999997,0.3076492,-4.080423000000001
14.672023000000001,-15.470920000000001,1.8733958,2.38309,-0.065484755,-3.7035362999999997
14.438243,-16.945135,1.7984668000000001,2.4586802000000003,-0.34601152,-3.2414603
14.143410999999999,-17.877283,1.9595008999999999,2.304847,-0.5525538000000001,-2.7000942
13.567175,-18.20029,2.2477531,1.9827813000000003,-0.6734004,-2.1140125
12.156080000000001,-16.865503,2.4915307,1.5601148999999999,-0.6702064,-1.5295193
11.910388000000001,-16.212471,2.9070206,1.1465068,-0.5988748,-1.0190104
10.947775,-15.678163,2.8387759999999997,0.7749262,-0.5887694,-0.5777213999999999
8.790254,-15.437026999999999,2.0104493999999997,0.35438909999999996,-0.6595599,-0.049654618
6.756734,-14.621638,1.9662621,-0.10658725,-0.6313554,0.56409043
5.040809599999999,-13.571982,2.0124319,-0.48506190000000005,-0.34922293,1.115597
3.19466,-12.325762,1.5100421,-0.82522655,0.16231562,1.541981
1.1467076999999999,-10.876398,0.35623807,-1.1483393999999998,0.72818625,1.831566
-0.45340434,-9.524355,-0.83231074,-1.5640943,1.1269068000000002,2.166931
-1.2417958,-8.499147,-1.609593,-2.0330641,1.3068327,2.6252543999999998
-1.5213141000000001,-7.431937700000001,-1.981901,-2.5515492,1.3078798999999999,3.1836724
-1.0285394,-7.002839,-1.9158306,-3.0008318,1.0938851,3.7958467000000002
-0.5736220000000001,-7.186589,-2.0979047000000004,-3.2004626,0.7255159000000001,4.5560074
-0.52215624,-7.743375,-2.401825,-3.0657756000000003,0.3268129,5.117078299999999
0.13469778,-8.015193,-1.7641148999999998,-2.6654668,-0.24169320000000002,5.3049808
1.1193084999999998,-8.137949,-0.41559508,-2.1251652,-0.8586671,5.222479
1.7893306,-7.824758999999999,0.46470500000000003,-1.6072038,-1.2025493,4.8258877
2.3285812999999997,-8.485913,0.5962137,-1.219671,-1.0667976000000001,3.8421504
2.2238398,-9.787372,0.17195156,-1.247893,-0.618056,2.8115683
2.2689466,-11.341257,-0.028874072999999997,-1.5204436000000001,0.12878785,2.1259332000000004
2.6491556,-13.232466,-0.11725842,-1.961209,0.9506983,1.4791491
3.4381695,-15.694854999999999,0.5993357,-2.363106,1.5884242,0.9063844000000001
5.3338985,-18.567715,2.449144,-2.6207514,1.9525346999999997,0.5970946
9.274830999999999,-20.731142000000002,3.944543,-2.8134532,2.0462065,0.6423335
13.445692999999999,-21.073303,4.6408343,-2.8022833,1.9253773999999997,0.9143604999999999
15.526982,-19.521593,4.4713726,-2.6606846,1.6352513000000002,1.1688120000000002
17.600409,-16.17333,4.1067457,-2.4259205,1.2386602,1.3758780000000002
18.905756,-11.178144,3.4122448,-2.1762686,0.90277153,1.5467632
16.557438,-8.128046000000001,1.7994245,-1.8952006000000001,0.652055,1.6473639
14.182695,-6.5205507,1.4861958999999998,-1.5374780000000001,0.38056904,1.6990081999999997
12.912447,-5.3799243,1.1437197000000001,-1.0738138000000002,0.042533673,1.6670512
11.2315445,-5.138378599999999,1.2175857,-0.5686456999999999,-0.3082426,1.5467632
9.113816,-5.7399073,1.6243604,-0.093811445,-0.6111445,1.284318
7.0633740000000005,-6.65273,1.6823863999999997,0.31819096,-0.78096503,0.7668977
6.184759,-6.8423605,2.3171275000000002,0.6556853,-0.65479517,0.113725655
6.1956477,-6.50857,2.7097766,1.0687698,-0.33061773,-0.504278
6.4834123,-6.0878515,3.0923700000000003,1.6804203999999998,-0.057526052,-1.0360798
6.818581,-5.5365148,3.4558291,2.2649138,0.041992623,-1.5407243
7.3374143,-5.049199,3.9902723,2.5523696,0.020699605,-2.0687912
8.178593,-4.794542,4.5384297,2.813209,-0.10278243599999999,-2.5627892000000005
9.655047999999999,-4.7681584,5.019406,3.0367856,-0.38226202,-2.9811968999999996
11.100725,-4.8924556,5.2197814000000005,3.0932121,-0.81663954,-3.2755642000000003
12.767072,-4.7999144,5.4583874,3.0016522,-1.2653811000000001,-3.530033
14.487669,-4.8088307,5.6635323,2.9739711,-1.6310973999999998,-3.7690384
15.362079000000001,-5.6053242999999995,5.8159275,3.068725,-1.8243228,-3.8467580999999997
15.703234,-7.162493700000001,6.451971,3.2651446,-1.9371758999999997,-3.8456932999999998
15.132131,-7.937267299999999,6.5693545,3.0996,-1.8850254000000002,-3.7291229
14.498451999999999,-8.362142,5.2617273,2.5491755,-1.4059325,-3.5960414
14.615347,-9.318712,3.7391492999999993,1.9747877,-0.8533613000000001,-3.4778652
14.752372,-10.992594,3.2402647,1.5723497,-0.4445528,-3.3783116
14.642852,-12.983478999999999,2.4691784,1.1236081,0.007906342,-3.2383187
14.182773000000001,-14.449763,1.8051898000000002,0.8004778,0.41833797,-3.277711
13.930959,-15.705925,1.8103325000000001,0.69881237,0.7835131999999999,-3.320297
12.938257,-16.474386,2.6538289,0.5806187,0.8479158000000001,-2.9077535
11.394456,-16.365460000000002,3.3904483,0.30328587,0.6317917,-2.0554917
10.035296,-15.574952,3.5041344,-0.023544492,0.23841198,-1.1814133999999998
8.603057000000002,-14.048179999999999,1.548292,-0.08264134,-0.22417009,-0.67943925
8.085258,-12.694057,0.6923648,0.05256932,-0.7863057,-0.4015479
7.888789,-12.052814,0.9103138000000001,0.012636183999999998,-1.1291233,-0.035325464
7.445948,-11.95243,0.566267,-0.33548720000000004,-0.96675533,0.4166101
6.526632299999999,-11.495567999999999,0.3545142,-0.8007396,-0.45999897,0.8270243
5.578614,-10.987279,0.5438094,-1.0823485000000002,0.09998991,1.1597188999999999
2.4743310000000003,-10.531576,0.33026576,-1.1036415000000002,0.3336895,1.5728209
-1.0828495,-10.507011,-1.1889893,-1.1398396000000002,0.29323277,2.1312215
-3.3959547999999997,-10.223654,-2.280956,-1.3032548000000002,0.17612118,2.6938982000000005
-2.7063386,-9.413848,-1.8533515999999999,-1.6157385,0.0850848,3.1224115
-0.86665314,-8.874769,-0.44015962,-1.9526918000000002,0.06485643,3.4173197999999996
0.264837,-9.260100999999999,0.29150844,-2.1539109,0.06592108,3.7244802000000004
0.5259869,-9.79536,-0.0737893,-2.0538336999999998,-0.038920842000000004,4.240836
0.9619424000000001,-9.747896,-0.21473116,-1.7743715,-0.22577579999999997,4.568731
1.5146965000000001,-9.398448,0.27721024,-1.5939045,-0.21619393,4.411703599999999
2.0851772,-9.784077,1.2186774,-1.5736761000000001,0.031311207,3.8468976
2.3519776,-10.967934,1.4997088,-1.7738304,0.6610609000000001,3.1628682999999995
2.9373982000000005,-12.225559,0.6795415,-2.1054779999999997,1.3355085,2.5911508
4.238685,-13.133660999999998,-0.030425517000000003,-2.528668,1.8545345000000002,2.0529609
6.143684400000001,-14.049586999999999,-0.40979156,-2.8752205,1.8470819,1.7229192
8.004878999999999,-15.177207999999998,-0.18108785,-2.9933967999999997,1.6628973000000002,1.6947147
9.204728,-16.006254000000002,0.6063746999999999,-2.8629682,1.3621421999999999,1.6654456000000002
10.09972,-16.185148,1.6026882,-2.5941527,1.0911798000000001,1.5126594
12.497025,-14.944703,1.8790365000000002,-2.2018201,0.78189003,1.3242162
15.101091,-12.772444,1.2885977,-1.8244101000000001,0.50082225,1.1331027
15.77619,-10.035363,0.8386601,-1.5491891000000002,0.32089624,0.9808575999999999
15.039638,-7.8430979999999995,0.55415237,-1.1605916,0.18090338,0.83128285
13.592792499999998,-6.4783654,-0.23173958,-0.662335,0.055798177000000004,0.6667856
11.778658,-6.1276526,-0.2699989,-0.19975293,0.036110863,0.48153633
9.540023,-6.167071,0.15043248,0.26069984,0.03769911,0.26382396
8.257544000000001,-6.0494775999999995,1.6567971999999997,0.8254884,-0.061295964,-0.017767452
8.708142,-5.5140476,2.788977,1.3509023,-0.20769417,-0.36112607
9.443564,-4.875380000000001,3.6270623,1.7139482,-0.28061405,-0.6932796999999999
9.810576,-4.4970098,4.290735,1.9662703999999998,-0.22418754,-1.0073516
10.073938,-4.2519774,4.348262999999999,2.1605606,-0.07513642,-1.2761848
10.170693,-4.165882,4.769173,2.2670257,0.028658306,-1.4960263999999999
10.403084,-4.052531200000001,5.5878366999999995,2.4293935,-0.11346386,-1.6732996
10.512652000000001,-3.7575464,6.137143599999999,2.6662698,-0.46533969999999997,-1.9655373999999999
10.525802,-3.7291417,6.066323000000001,2.7961571,-0.8113511999999999,-2.371187
10.867827,-4.2403607,6.2328730000000006,2.8036096,-1.1158413999999999,-2.8625145
11.298333999999999,-5.0142913,6.2287836,2.683304,-1.1749208,-3.3149910000000005
11.59623,-6.113728,5.4855089999999995,2.5225418,-0.9721135000000001,-3.6067053999999996
11.556792,-7.026857400000001,4.676661,2.4506867000000003,-0.7139269,-3.66952
11.896023,-8.277713,4.076760299999999,2.4937963,-0.51377255,-3.4246502
11.765863000000001,-8.955569,3.5745049,2.4874084,-0.27316147,-2.986555
11.644822,-9.874731,2.8128900000000003,2.5028546,-0.09484119,-2.6852589
12.299177,-11.3775425,2.6788435,2.5518283999999998,-0.008080875,-2.4664642999999997
13.575344,-12.69353,2.3408015,2.3900015,0.009477138000000001,-2.1300347
14.03324,-13.648722,1.8409305,2.0647418,-0.09484119,-1.6764933999999998
14.053676999999999,-14.485322,1.8182909999999999,1.927402,-0.34557518,-1.331023
13.396037,-15.720319,1.7452198,1.8246718999999998,-0.5792573000000001,-1.0856297
11.97687,-16.467185999999998,2.0530949,1.6085478000000002,-0.70329785,-0.9456194
9.516799,-16.496922,2.570961,1.2902171999999998,-0.74799573,-0.8072148
6.8080754,-15.506469000000001,2.606941,0.93781775,-0.7378903,-0.60386646
5.2693124000000005,-13.579002,2.1825447000000002,0.53164476,-0.6452656999999999,-0.31799898
4.582568599999999,-11.926246,2.0659375,0.08555604,-0.49675559999999996,-0.029478611000000002
3.4355837999999994,-10.520094,1.227938,-0.42120029999999997,-0.36472145,0.26912978
1.6869162,-9.346522,-0.3605093,-0.9476614,-0.18694222,0.6252641999999999
0.9490711,-8.266527,-0.837032,-1.3463819,0.0903906,0.96754074
0.8728684999999999,-7.216938000000001,-0.3487107,-1.6306436000000002,0.48909359999999996,1.2156044
1.0321021000000001,-6.3772817,-0.5116505,-1.8137636000000001,0.8111592,1.4098945
1.2526462999999999,-5.747396,-0.93705225,-2.0277583999999997,0.94904023,1.6808568
1.2281871000000002,-5.5825315,-1.2136976000000002,-2.3450243,0.97563905,2.0300622
1.1306378000000001,-5.894448000000001,-1.4433205,-2.6740015,1.0118546,2.321253
1.3819332,-6.4964075,-1.5417988,-2.9795563,0.94424057,2.6731114
2.1018696,-7.319151400000001,-1.6723307,-3.0636637,0.5955587,3.2230122000000003
2.8053912999999997,-8.401666,-1.7866682,-2.6681369999999998,-0.059707712,3.8170699999999997
3.3920858,-9.13456,-1.2195966999999999,-1.9633383999999998,-0.7501425,4.340878
3.9201415,-9.173566000000001,-0.08508993,-1.272921,-1.1871903999999998,4.676243299999999
4.5133095,-9.195400999999999,0.49628928,-0.72781974,-1.3484763000000002,4.4617248
4.835397,-9.947975,0.63521045,-0.54735273,-0.9870186,3.6110687000000006
4.3891654,-10.575515,0.15600619,-0.8939053,-0.17469001,2.4788213
4.661338300000001,-11.362200999999999,0.0017046717,-1.580605,0.82552326,1.3955303
5.9372373,-12.847909,0.06451894,-1.9697262,1.4302449,0.7727096
6.432368,-14.278761,0.54397225,-1.9931486,1.6841728999999999,0.47408378
6.650106,-15.226434,1.8305011999999998,-1.8898773999999998,1.7368644,0.48471284
8.017597,-15.584519,3.5832962999999998,-1.6545895,1.5926129999999998,0.6864729
10.015243,-15.828555999999999,4.106209,-1.2947376,1.2822585,0.8216834999999999
12.6936655,-14.9948845,4.0121839999999995,-0.8380023999999999,0.90378386,0.789744
15.960065,-11.930729,3.339988,-0.51701885,0.53593826,0.6241821
17.143701999999998,-8.022932,1.9261258,-0.29237756,0.21121974,0.43573890000000004
16.131117,-4.842512,0.8907771000000001,-0.14119713,0.045675267,0.24942501
13.271223,-3.8258288,0.36450285,0.015289084,0.0046774824,0.031712633
10.4595585,-4.227892,2.0626047,0.26495844,-0.052255157,-0.25040239999999997
7.915192599999999,-4.5710864,2.6749747000000004,0.55028486,-0.13370967,-0.5676683000000001
6.010825,-4.678797,3.0204673,0.86222756,-0.17681931,-0.85671234
5.363366,-4.353252400000001,3.4201940000000004,1.165653,-0.15713198,-1.1276747
6.1013836999999995,-4.048605,4.0123854,1.3775184999999999,-0.01605703,-1.3496631000000001
7.425329,-3.6351452000000006,3.8590605000000004,1.5308282,0.1468171,-1.4433348999999998
8.076849000000001,-3.3876805,3.2194734,1.7650515,0.08346164,-1.4140656999999999
8.543306,-3.3570251000000004,3.1134582,2.0210912,-0.25136232,-1.5136193000000002
9.037288,-3.6499029999999997,3.1565251,2.1994290000000003,-0.6575179,-1.8303441999999999
9.633357,-4.3196282,3.6431226999999997,2.2457325,-1.1014773000000002,-2.1476102000000004
10.478387,-5.2453129999999994,4.1417294,2.1605606,-1.4964627000000001,-2.4265487
11.0282955,-6.408502599999999,4.193588,2.0674124,-1.6769123,-2.6868472000000003
11.069533999999999,-7.3467326,4.3051577000000005,1.994475,-1.5991928999999998,-2.8524091
11.2315445,-8.287003,4.0745,1.7852799,-1.3080195,-2.9200232
11.445816,-9.803930000000001,3.4919624,1.3461026000000003,-0.5191133,-2.7635195
11.12756,-10.713028,3.0104787,0.90055496,0.25539404,-2.1263172999999997
10.479622,-10.521875,2.7074685,0.51834536,0.52103317,-1.2490449
11.40071,-10.662041,2.0587838,0.42624432,0.31768483,-0.56501544
12.344982,-11.330406,1.3923048999999998,0.50982815,-0.058119465,-0.2669132
12.178728999999999,-12.501496000000001,0.67190874,0.5928709,-0.47811549999999997,-0.13274974
12.035499,-13.595158999999999,0.5200589,0.6860191,-0.81988585,-0.15990707
11.141628,-14.069622,0.8370415999999999,0.72860515,-0.9779778,-0.32440436
9.388259,-13.803951999999999,1.1519845,0.61416394,-1.0141759,-0.45268604
6.8285313,-12.997834,0.29383558,0.38365826,-0.98808324,-0.47397906
3.3833997000000005,-11.748261,-0.42687657,0.17978637,-0.85500187,-0.4202229
-0.01733402,-10.491641,-1.4665443,-0.078906335,-0.66336477,-0.33450979999999997
-1.0796317,-8.9329,-1.6620262,-0.4818854,-0.3956138,-0.23603833
0.26920405,-7.5082835999999995,-0.7809311999999999,-0.97268945,-0.036826447000000005,-0.22539182
1.7080331000000002,-6.5472220000000005,-0.4432242,-1.3831036,0.37037632,-0.21580996
2.8398395,-6.0733523,0.028663384,-1.4879805,0.8212646999999998,-0.18493510000000002
3.8549328000000003,-5.810287000000001,0.45673707,-1.5225729,1.1603647,0.01574287
4.305234400000001,-5.754655400000001,0.36118928,-1.6657771000000001,1.2774763,0.45170867
3.9397832999999998,-5.844447,-0.08132624,-1.8685843999999998,1.1268194999999999,1.1256326
3.4982352,-6.232768,-0.10595779,-1.827604,0.7403512,1.8735586
3.7993681000000006,-7.077030000000001,0.0995126,-1.4123902,0.20270254,2.6145556
4.4490495,-8.325023,-0.15843870000000002,-0.63997734,-0.41371286,3.0750083999999998
5.166055,-9.188025999999999,-0.42418549999999994,0.014765485,-0.67348766,3.0968423
5.534676,-9.291188,-0.014039598,0.18137461,-0.44352308,2.7832939999999997
5.179606400000001,-9.578311,1.0052966,-0.21252874,0.25113544,2.2850375
4.939104,-10.648672,1.9899743000000003,-0.74644244,1.0485764,1.9070863999999998
4.4052453,-12.840716,1.439758,-1.1249346000000002,1.6256171,1.7207898999999998
3.8671434000000002,-14.326157,0.68403304,-1.1771023999999999,1.7091835,1.4641916000000001
2.5687678,-14.310143,0.48304456,-1.1536801,1.5324514,1.2001756000000001
3.006169,-14.441776,1.8415625,-1.1414278999999998,1.3525254999999998,1.0708118999999998
4.81224,-14.223521,3.3436272000000002,-1.1664558999999999,1.1209726,1.0963633999999998
7.75639,-12.815146,3.9400036,-1.2037187,0.89950776,1.1538546
10.593261,-11.123232000000002,2.7390146,-1.2633391999999999,0.74993306,1.1016867000000001
12.139636999999999,-9.251875,0.59766936,-1.4054613,0.62697464,0.9962863000000001
12.069908,-7.370367999999999,-0.935903,-1.4895687,0.4619363,0.9712583
10.413897,-5.844993,-1.1148074,-1.3799096000000002,0.22985986,1.0516481000000002
9.176333,-4.7609468,-0.5557612,-1.1307813999999998,-0.063442715,1.1213739999999999
8.181169,-3.7055442000000003,0.13140337,-0.753895,-0.40838959999999996,1.1618308000000002
7.4495296,-3.4199349999999997,0.08327033,-0.32590532,-0.74694854,1.1687597
6.3236995,-3.6152252999999996,0.14510778,0.08981464,-1.0466391,1.0670768
5.5087514,-3.8053825,0.09707051,0.38739327,-1.2255003,0.7530223
5.796869999999999,-4.0191464,0.24156536,0.5215393,-1.1728089,0.18448131
6.566557400000001,-4.17408,0.18865351,0.51621604,-0.85393727,-0.40744709999999995
6.8521285,-4.608666,0.06636727,0.6029763000000001,-0.39454913,-0.83967793
6.827123599999999,-5.2769737,0.7992037,0.9101368000000001,-0.16458455,-1.1180927999999999
6.8517646999999995,-5.778109,1.8041459,1.440333,-0.3279997,-1.267144
7.3636546,-5.840023,2.5710182,1.9023914000000002,-0.72565556,-1.483268
8.211499,-6.103758999999999,3.063314,2.1264917999999997,-1.1813261999999998,-1.8085102
9.221594,-6.462917299999999,3.2992961000000003,2.245209,-1.6849060000000002,-2.2301118
10.679978,-6.9108825,3.2609124,2.2494676,-2.1102252,-2.6346967
12.398719,-6.9477243,3.2586331000000004,2.156302,-2.2422419,-2.9290637999999998
13.557224,-7.162877000000001,3.0518315,2.068477,-2.2278778999999997,-3.1228304000000002
13.639844,-8.307659,3.2248747000000004,1.8629993000000002,-1.8685494999999999,-3.0381818
12.959124000000001,-9.495998,3.9109093999999995,1.6000305000000001,-1.3085432,-2.958333
11.965185,-10.38393,4.2877279999999995,1.3599431999999998,-0.56328756,-2.919482
11.054421000000001,-10.270742,4.188838,1.1917282,0.05152212,-2.7672369999999997
11.498585,-10.719761,2.8233957000000003,1.1981162,0.30438542,-2.5958283
12.058263,-11.41677,1.8049119999999998,1.2774413999999998,0.45024258,-2.486169
12.260458,-12.220006,1.4942978999999998,1.3391911,0.5370204000000001,-2.3669283
11.488854,-12.804257000000002,1.4192445,1.1097502000000001,0.35442399999999996,-2.0070763
10.438930000000001,-13.120378500000001,1.9227738,0.5758365,0.037140608,-1.5162722
8.6698265,-12.928842999999999,2.2423806,-0.10925761,-0.26199138,-1.1452327
6.9686594,-12.003934,2.186251,-0.48933795,-0.34929276,-1.1266100000000001
6.4058785,-10.886167,2.2744055,-0.6394536999999999,-0.3929434,-1.0329207
5.508225,-10.013941,2.2086509999999997,-0.60644954,-0.54625314,-0.68690926
4.4682603,-9.557730000000001,1.9487365,-0.44088763,-0.68678707,-0.20675170000000004
3.7521834000000003,-9.000312,1.6747058999999997,-0.38871974,-0.49195597,0.18343410000000002
3.357274,-8.704216,1.1323617,-0.49412015,0.0025481808,0.41924554
2.305827,-8.639113,0.07450755,-0.56918675,0.48485246,0.6087534000000001
0.83918685,-8.5539465,-1.8902893,-0.6208136,0.6983062,0.9664761000000001
0.25445575,-8.193638,-3.1085548,-0.72781974,0.63549185,1.4657973
1.6646884999999998,-7.846095599999999,-2.547622,-0.92956233,0.40765655,1.891134
2.8537257,-8.190956,-0.46427402,-1.1898781999999999,0.09197885,2.0864887
2.3708534,-9.172301,0.5995464,-1.4294246000000002,-0.15604989,2.1807191
1.8352131,-10.091234,1.498617,-1.452847,-0.33916983,2.4069486
2.122115,-9.995198,1.9744119999999998,-1.1904018,-0.3929434,2.7066567000000004
2.7932959,-9.659934,1.7511,-0.9301033999999999,-0.24656266,2.857837
3.3284001000000005,-9.237817,1.5196573,-0.9508554,0.25221753,2.7332728
3.5608866000000003,-9.727383,1.284039,-1.1643265,0.96925116,2.2807963
3.1177294,-10.552521,0.3496588,-1.3836447,1.6341343000000002,1.7623113000000001
3.4113927000000004,-11.069677,-0.56331736,-1.5364133,2.0163439999999997,1.3289984
5.008536,-11.750388000000001,-1.206582,-1.6199971000000002,2.0812876,1.0127971
7.405611,-11.872645,-1.2505969,-1.6902641,1.7533752,0.8046491
8.67403,-12.2167015,-0.7238438,-1.809505,1.3477433,0.7860265000000001
8.979645,-12.174688,0.59403974,-1.872843,0.96392787,0.9457241
9.794085,-11.643262,1.7215556,-1.7450849,0.65039694,1.1096803
10.964228,-10.388441,1.4868758999999998,-1.5449306,0.46195376,1.2129514
12.118568,-8.520274,0.7867634,-1.3431879,0.32089624,1.3199401000000002
12.45004,-6.5371184,0.49485275,-1.1552683000000001,0.15905185,1.4216229999999999
11.274085000000001,-4.973504,0.50187254,-0.9806655999999999,-8.726646e-05,1.3646555
9.531499,-4.1009417,0.19354728,-0.7943517,-0.13582152,1.111286
8.0079155,-3.9141845999999996,0.22019953,-0.5585403,-0.2705086,0.792938
6.449539,-4.035638,-0.33646193,-0.2657613,-0.40837213,0.57150805
5.1073494,-4.2212167,-0.19181386,0.15262905,-0.52228975,0.36336009999999996
4.387241,-4.369264599999999,0.7942908000000001,0.59180623,-0.48663270000000003,0.088139124
4.784582,-4.328219,2.0668569,0.964434,-0.27370253,-0.22324507
5.6303964,-4.5899625,2.530087,1.1922693000000002,-0.11294025,-0.46013859999999995
6.345525299999999,-5.0990652999999995,2.7215178,1.4419212,-0.21034709,-0.6847625
7.437061,-5.30127,2.8828392000000003,1.7480171000000002,-0.48502700000000004,-0.8923694
9.244827,-5.476564,3.0112736,2.0178974,-0.87362456,-1.1654611000000001
10.719157000000001,-5.6899447,3.4141510000000004,2.1249034,-1.2734097,-1.4630396
11.4141655,-6.4525557000000004,3.7300226999999997,2.1962349999999997,-1.7471793000000002,-1.7483661
11.686242,-7.233535000000001,4.390918,2.2728898999999996,-2.1411002,-2.0587032
12.057592,-7.6075087,4.9623756,2.2824717,-2.2315955,-2.3818333
12.466646,-7.6721425000000005,5.049448,2.1925,-2.0543221999999997,-2.6373496
12.770997,-8.574853,4.453761,2.0067272000000003,-1.7003346999999998,-2.711334
12.578992,-9.204758,3.4815237999999997,1.7192714,-1.1333993999999998,-2.6336145
11.957189999999999,-9.179321,2.9467452,1.5989659,-0.58297485,-2.6495843
11.284572,-8.769214,2.6484947,1.5286989,-0.10868165,-2.7757542
11.503441,-9.270369,1.9356354,1.3099045,0.471012,-2.8172755
11.559464,-10.125089,1.3241564,1.1294549999999999,0.86173886,-2.4606001
11.294895,-10.624605,1.4060093,1.0283129999999998,0.50933945,-1.665847
11.108941999999999,-11.04065,1.8618366000000002,0.67004937,-0.1730843,-0.9434726000000001
10.692782000000001,-11.43557,2.0021462,0.28305749999999996,-0.55689967,-0.71884876
9.721817999999999,-11.616044,2.1484034,-0.035255652,-0.66975266,-0.70979047
7.968056699999999,-11.223721000000001,1.8606011999999998,-0.15769049999999998,-0.6186494,-0.64432317
7.135985400000001,-10.479909,2.1944293999999998,-0.13161528,-0.52441907,-0.43669882
6.7514,-9.871744,2.3750098,-0.053895768,-0.5153783,-0.040648717
5.8768744,-9.484487,1.8168351999999999,-0.079970986,-0.46266934,0.41285762
3.4662485,-9.37803,-0.29251397,-0.37487927,-0.19491836,0.7157595
0.12575305,-9.558735,-1.1604216,-0.7310137,0.16758652,0.8509701999999999
-1.9168458,-9.234503,-2.9241726000000003,-0.980142,0.50455725,0.91432565
-1.0750349,-8.258434,-3.6300695,-1.0551912,0.6812718000000001,1.0527302
1.1304558999999998,-7.183486500000001,-2.3858888,-1.2010484,0.6147399,1.3465738
2.0531332,-7.142651,-0.7167474,-1.4405948,0.39170423,1.5669566000000001
1.7395791,-7.4764314,0.6208739999999999,-1.5742171999999999,0.10742501,1.771352
1.4041226999999998,-8.416289,1.1734365,-1.4661463,-0.21567033,2.1423917
1.530776,-9.596936999999999,1.0151702,-1.0514736,-0.5505118,2.5629287
2.632348,-9.988503,0.3232747,-0.5723807,-0.61384976,2.7614775000000003
3.7979317000000004,-9.614989,-0.33737177,-0.38180822,-0.27422613,2.6092498
4.532674,-9.085929,-0.09735782,-0.43291146,0.40554470000000004,2.102476
5.1266274,-9.618867999999999,0.4319523,-0.65062386,1.1539941999999999,1.5994197
5.304239,-10.896663,0.4133733,-0.82522655,1.6905782,1.2550139999999999
5.820448000000001,-12.016498,-0.6489053000000001,-0.9583079,1.8896680000000001,1.0101441999999998
6.904935000000001,-12.280187,-0.79173374,-1.0940596000000002,1.8550581000000002,0.79560834
7.716512,-12.57269,-0.060056157,-1.0967126,1.5031997,0.6098355
8.09425,-13.001157000000001,1.1834921999999999,-1.2670567,1.1795284,0.5432861
9.267571,-12.205017999999999,2.3966055,-1.4352715,0.95277524,0.6055769
10.829089,-10.729663,2.425451,-1.407067,0.7760258000000001,0.61728805
12.417805,-8.739315,1.68796,-1.3304121000000002,0.672231,0.6119648
12.872876,-6.766311,1.1538903,-1.2319232,0.5471433000000001,0.6673266
11.197125999999999,-5.358779,0.47930959999999995,-1.0056937,0.38583994,0.76899207
9.351244,-4.31168,0.42490378,-0.5904798000000001,0.14735815,0.93561864
7.9225574000000005,-3.612247,-0.028376078,-0.06293657400000001,-0.10281735,1.0830641
7.037746,-3.3007421000000003,-0.16609056,0.25431192,-0.283808,1.1134153999999998
6.0494010000000005,-3.1330621,-0.20343053,0.5220629,-0.43231806,1.0953163000000001
5.0969777,-3.3288214,-0.5469889,0.8371995000000001,-0.4695983,1.0974456
4.793575,-3.5643342000000002,0.18691054,1.1395603,-0.48555058,0.91059065
5.249957599999999,-3.7914865,1.3744823999999998,1.2774413999999998,-0.23216370000000003,0.53263956
5.4179153,-4.330469,1.698734,1.3429087,0.31398472,0.14138912
5.5509567,-4.9892959999999995,2.1390757999999996,1.3812361000000002,0.43109632,-0.24293238
5.939545,-5.6182528,2.830253,1.5893841,-0.2385516,-0.5240002
6.320434,-5.964512,3.5971922999999997,1.7618575,-1.1003952,-0.80454445
7.420321,-6.48572,3.5194955,1.7490816999999999,-1.8254224,-1.2005945
8.801449,-7.2680683,2.7980652000000004,1.6458106,-2.3465602000000003,-1.6477479
9.844555,-8.214046000000002,2.8057938,1.5052767,-2.6260397,-2.1151297000000002
10.358016000000001,-8.171075,3.0851493,1.1704351999999998,-2.4748595,-2.5122445
11.204922,-7.6576247,2.8373015,0.7025299,-1.9446633000000002,-2.756573
12.561255000000001,-8.495901,2.6505728,0.43317327,-1.2574223999999998,-2.8784842
12.516102,-8.559797999999999,2.054091,0.39697513,-0.4828977,-2.8965833
12.316626,-9.626022,1.2554524,0.63226295,0.035046212,-2.85665
11.37084,-9.648527,1.3008368000000001,1.0810046,-0.019233529,-2.7837302999999998
11.556438,-10.157372,0.9071343000000001,1.5728732,-0.5435828,-2.653302
11.909018,-10.726358,0.7467802,1.7453467,-0.9098226999999999,-2.4792402
11.834741000000001,-11.163052,1.2158235000000002,1.6585863999999997,-1.1238,-2.2402173999999997
11.593759,-11.5667715,1.7070371,1.284894,-1.2483816,-1.7850703999999997
10.852064,-11.789346,1.7312664,0.7802494000000001,-1.1850261999999998,-1.2138938999999997
9.674814999999999,-11.620047,2.2315874,0.34267795,-0.9060877,-0.75183547
8.386151,-10.930919,3.420663,0.076515235,-0.57817525,-0.4420221
7.150235,-10.174782,4.20282,-0.19175932,-0.29550170000000003,-0.28497735
6.090868,-9.540875,4.580883999999999,-0.46165705,-0.09908234,-0.21205749999999998
5.1801424,-9.157113,4.0407519999999995,-0.7725350999999999,0.097337015,-0.13966125
3.9639837999999994,-8.937823,2.691935,-1.0509325,0.31504938,-0.022008602000000002
2.611806,-8.551016,0.8506311,-1.2526926,0.60995764,0.15788248
1.0398879,-8.207142,-0.43370485,-1.3192246,0.9373465,0.35273105
-0.15313315,-8.1488285,-1.5620155,-1.3990733999999998,1.1896514,0.7280116999999999
-0.46809515,-7.8062663,-1.7025743999999998,-1.5295018,1.2902695,1.1229972
0.3351691,-7.145361,-0.7026599,-1.8153518,1.3073039,1.4056708
1.3370178999999998,-6.981118700000001,-0.11080366,-2.1363528,1.1539941999999999,1.7511412
2.6236525,-7.3257685,-0.14385322,-2.147523,0.6722484999999999,2.3830202000000003
3.7500477,-8.158128,-0.16264291,-1.6993049,0.011082841000000001,3.1735146
4.483956299999999,-9.036254,-0.032580293999999996,-0.82789695,-0.7240324,3.78623
4.225029,-9.204479,0.37374450000000004,-0.12362167,-1.1424402,3.898542
3.7282699999999998,-8.861678,1.1610059,-0.015027285,-0.9646435,3.5078150999999997
3.7584176,-9.471002,1.4019487,-0.49305552,-0.4184776,2.9084167
2.8538022,-9.752848,1.011464,-1.1430336,0.5093569,2.1599672
3.5742846,-10.588051,0.4387614,-1.586993,1.3807648000000001,1.5302348
5.224694,-12.516580000000001,-0.27178976,-1.7323091,1.8215303,1.1251265
5.2583947,-13.467910999999999,0.080627136,-1.7296561999999998,1.8572047999999999,0.9052848
4.843317,-13.942088,1.3985106,-1.7205979999999998,1.7459401,0.84831727
5.7673736,-14.015436,2.9130827999999998,-1.7546668,1.642669,0.92764246
8.721789,-13.125703,3.5247724000000002,-1.6950463,1.4744542,1.0958573999999999
11.971851,-11.735026,1.9742396,-1.4938273000000002,1.1934037,1.3167636
13.301620000000002,-9.299367,-0.46828672,-1.2313996999999999,0.83992225,1.4860431
13.109088,-6.809464,-1.8993871999999998,-1.0589261,0.2921681,1.4929721000000002
11.923871,-4.9512186,-1.3377937,-1.0408271999999998,-0.39877284,1.2427791000000001
9.864111,-4.1746739999999996,-0.11182838,-0.81670934,-0.88105965,0.95478237
7.799705499999999,-3.9432309,0.39325240000000006,-0.36210346,-1.0625738999999998,0.65242153
6.2273283,-3.9593105000000004,0.5472666,0.16753416,-0.9997594999999999,0.37189475
4.9643006,-4.1967,0.5300858,0.84145814,-0.8581784,0.06260496
4.3915405,-4.5659246,0.8646133,1.3881651000000002,-0.80388117,-0.30414107
4.283246,-4.968839599999999,1.486713,1.6841381000000002,-0.6931575,-0.6810275
4.776375,-5.358874299999999,2.2064292,1.8715166,-0.62182593,-0.9956405
6.042524299999999,-5.886968,2.2911265,1.9934102999999999,-0.81293947,-1.3645333
7.7919965,-5.8011989999999996,1.493005,2.0434663,-0.9390744000000001,-1.7871997
9.759714,-5.921598,0.9970414000000001,2.0205677,-1.0221171,-2.255646
10.662884,-6.133916,2.4580214,1.9577533,-1.1142181999999998,-2.6240153
11.378232,-6.8139076,3.7546542,1.7921914,-1.1610628,-2.9897316000000003
11.9043255,-7.468961200000001,4.5240355,1.5627678999999999,-1.1190004,-3.3048682
12.227408,-8.144289,4.793996,1.3051223,-0.9912423,-3.4209150999999998
13.200153,-9.485301,3.6127352999999998,1.119873,-0.7080451999999999,-3.26867
13.516407999999998,-10.993886999999999,2.21207,1.1007093000000001,-0.42167154,-3.0195417
12.603557,-10.636652999999999,1.626113,1.2284674999999998,-0.27153832,-2.8646264
12.197453,-10.40205,1.1049719,1.352508,-0.17359045,-2.7853012
12.088775,-11.004297,0.9774089,1.479184,-0.28804913,-2.7139869
11.890831,-12.278913000000001,0.8181658,1.638358,-0.6122266,-2.5824938
11.206282,-13.040231,0.80512214,1.7533404,-0.9598438,-2.360523
11.105907,-13.249397,0.6739582,1.7229891,-1.1802266000000001,-2.1044657000000004
10.417985,-13.148697,0.7467132,1.5781965,-1.2015196000000001,-1.8574667
8.8993435,-13.291909,1.1312124,1.3402557,-1.0647031999999998,-1.5987566
7.2091517000000005,-12.459781,1.7121511999999999,1.0272484,-0.8331504000000001,-1.3272705
6.144718599999999,-11.018346000000001,2.5954677999999998,0.67804295,-0.59412754,-1.051526
5.76699,-9.888598,2.766433,0.30380946,-0.40941933,-0.7544884
5.5155416,-8.951891999999999,2.3116305,-0.062412973,-0.32798228,-0.36323792
4.787599,-8.479429,1.9174776999999998,-0.44460517,-0.31412435,0.069533914
4.0062466,-8.274773,1.5492208,-0.8342674000000001,-0.184778,0.38840556
3.1663508,-8.014389,1.1294695,-1.0913893,0.13514084,0.53478634
2.6652157,-7.566884,0.61098117,-1.3021902,0.67491883,0.65456825
2.3718397999999996,-7.165941,0.28934404,-1.378845,0.9740856999999999,0.9638405999999999
2.1051545,-6.7663875,-0.030406363,-1.4209075,1.0289065,1.495625
1.9638773999999997,-6.5422134000000005,-0.34895012,-1.4959566999999998,1.0422233,2.046067
2.0537176,-6.7134657,-0.6252601,-1.3825625,1.0337062,2.5310066000000004
2.2143683,-7.4357104000000005,-0.9305304,-0.9875771000000001,0.83248717,2.9829597000000003
2.3406866,-8.237366999999999,-1.0364978,-0.46376890000000004,0.34487706,3.3678222
3.0517355999999998,-8.879491,-0.9394464,-0.0996583,-0.18210766,3.3816626000000003
4.2044096,-8.756506,-0.054616526,-0.18483037,-0.29070204,2.939309
4.9108815,-8.527485,1.0640215,-0.62987185,0.06859144,2.4149597000000003
4.970333999999999,-9.322274,1.5386481,-1.2159535,0.77606064,2.128045
4.003833,-10.505834,1.4982052,-1.6466134999999997,1.7533927,2.0838532
3.6255972,-11.260141,1.1429247999999999,-2.0101828999999998,2.4438274,1.9491663000000001
4.5397224000000005,-11.957017,1.2616485,-2.2587702000000003,2.6759388,1.7075080000000002
5.571805,-12.498901,2.444499,-2.5733832999999997,2.658887,1.4381511999999999
6.8115807,-13.083336,2.7667778,-2.8129296000000004,2.3778365000000004,1.319434
8.980584,-12.845696,1.8681668999999999,-2.9758213,2.0573592,1.3040053
11.679586,-11.468197,0.45864284,-2.9662395,1.833259,1.1150209999999998
13.106253,-9.752578999999999,-1.0540329,-2.6053227999999997,1.6096822,0.84512335
12.398153,-8.094432000000001,-1.7736150000000002,-1.7775655,1.195533,0.53956854
10.277273,-6.882496400000001,-1.2388365,-0.76612973,0.67172486,0.25371853
9.274496000000001,-5.542778,-0.48718172,0.026476644,0.22670081,0.020036379
9.393957,-4.3063264000000006,-0.63945293,0.43371433,-0.09800023599999999,-0.08854055400000001
8.942677999999999,-3.3679235,-0.17750612,0.75363314,-0.39823177,-0.2083225
8.3663845,-2.968657,-0.17071615,1.0666405,-0.7064569,-0.32276374
7.547270299999999,-2.867794,0.7016352,1.2769177999999999,-0.9279043,-0.40954152
7.766253999999999,-2.919068,1.9922823,1.3391911,-1.0093588,-0.42444659999999995
8.757798,-2.9935567,3.8155242999999994,1.4264925,-0.9896366,-0.44361034
9.26671,-3.3654144,6.20896,1.482919,-0.8368679,-0.3797313
9.491775,-3.7968589999999995,7.9172993,1.3514433000000001,-0.6851639,-0.2711369
9.619988000000001,-4.247093700000001,7.895109700000001,1.30034,-0.79056436,-0.19607028
9.276555,-4.947560299999999,6.293341000000001,1.7309827000000002,-1.2323945,-0.3855956
9.19068,-5.963621,4.556233,2.2755604,-1.7450151000000003,-0.8731882
9.519086999999999,-6.8798437,3.9301875,2.5518283999999998,-2.1000674,-1.3895438999999998
9.828341499999999,-7.7661679999999995,3.3784196000000004,2.432064,-2.4253270000000002,-1.8324386000000001
9.5960655,-8.290287,2.5980822999999997,1.7458878,-2.2576357999999996,-2.0826316000000005
9.118768,-8.388258,2.2043605,0.89416707,-1.3835574,-2.247129
9.499033,-9.097689,2.20618,0.65462065,-0.6356489000000001,-2.3802102
9.498486999999999,-9.728877,1.759882,0.7350105,0.00418879,-2.441419
9.781798,-10.000839,1.1690313,0.95165825,0.35126495,-2.3945742
10.343784,-9.305305,2.5492692000000003,1.1890754,0.45186573,-2.2886502999999996
11.882777,-9.457403,3.8085525000000002,1.4472618999999998,0.3352952,-2.0948663
13.143026999999998,-10.344330000000001,3.2678266,1.6351639999999998,0.068608895,-1.8340443
12.620058,-11.277503999999999,1.8781172,1.6868082999999998,-0.44720572,-1.4821686
11.595407000000002,-12.15767,0.21391714,1.5271107,-0.9268221999999999,-1.1659671999999999
10.63988,-12.574021,-0.63065183,1.2774413999999998,-1.0476688,-1.0041403
9.627659,-12.164757,0.9368799000000001,0.89577276,-0.8587020000000001,-0.88596404
8.1940975,-11.160072999999999,3.0082762,0.43264967,-0.5632526,-0.64908797
6.3542404,-10.152871000000001,3.4451702000000006,0.037664205,-0.37639770000000006,-0.32222268
4.819978,-9.179006,3.1199226,-0.21624629,-0.34978142,0.015236723999999998
3.5249832000000003,-8.529085,2.2538345,-0.394043,-0.34765214,0.36552429999999997
2.3990092,-7.9711213,1.4306408000000002,-0.63624233,-0.26089182,0.6790553
1.4176834999999999,-7.7032194,0.3426869,-0.99770004,0.011117746999999999,0.89943796
0.7627543000000001,-7.434887,-0.82051206,-1.3618106,0.43591344,1.0559417
0.9399923000000001,-6.983762,-1.3779683999999999,-1.5992278,0.85751516,1.1592128000000002
1.4012209,-6.415982,-1.3066596000000001,-1.7898003,0.99857265,1.3348801000000001
1.2459713,-6.44024,-1.5048324,-2.0021894000000002,0.9176591999999999,1.566974
0.8528051,-6.7774777,-1.5591807,-2.1379411,0.6967529,1.9289553
1.0575668,-7.369783999999999,-1.2321328,-2.0112476000000004,0.31613147,2.3841023
1.8730797,-8.141962,-0.7697742,-1.5459952,-0.16133824,2.7849345000000003
2.7325215,-8.935056,-0.48577395,-0.8651421999999999,-0.7144156,3.0138345
3.8594913,-9.412075999999999,-0.5300092,-0.48347366,-1.0535157,2.8104862999999995
4.7793627,-9.527295,-0.3492853,-0.45579273,-0.8570962999999999,2.25048
5.4547099999999995,-9.744143,0.23757185,-0.6751108,-0.1288751,1.615948
5.979825,-10.476108,0.57692605,-1.0418743000000001,0.90755373,1.0852108
5.8828406,-11.187185000000001,0.059519857,-1.4161078,1.7576686999999998,0.7679449
5.9195776,-11.485599,-0.15127523,-1.6604363999999998,2.1702297,0.49221775
6.143981500000001,-12.047862,0.17453729999999998,-1.7738304,2.0637646000000003,0.32506758
7.305035,-12.523869,1.2729683,-1.7594490000000003,1.717212,0.23083724
9.092488000000001,-12.175778999999999,2.2860412999999995,-1.6034863000000001,1.3525778,0.23190189999999997
10.962466000000001,-10.905263,2.2019759999999997,-1.3618106,0.95492196,0.24893631
13.410537,-9.272849,1.2657281999999999,-1.2021129,0.72069883,0.40809290000000004
14.254464000000002,-7.637178,0.6831423000000001,-0.9476614,0.7031408,0.59760076
13.325428,-6.1563067,0.5556846,-0.8417199000000001,0.9288468000000001,0.7024776
11.343297,-4.9575872,0.37767097,-1.0983008,1.4430732,0.6167819
9.572535499999999,-4.1945744000000005,0.25062504,-1.2170181,1.8689334,0.5039289
7.8200088,-3.5715456,0.36051890000000003,-0.76612973,1.9093901999999998,0.31442106
6.457555,-3.2285714,0.60704505,-0.006510078000000001,1.5016288999999998,0.046652652
5.585701,-3.1542265,1.0787507,0.6221575,0.6802595,-0.18488273
5.1672425,-3.1370459,1.8822352999999998,0.7951545999999999,-0.12407546,-0.24504423
5.115288700000001,-3.6012146,2.2776327000000003,0.7584328,-0.51639056,-0.29454178
5.3731537000000005,-4.130573,2.5460130000000003,0.84679884,-0.48445103,-0.3371278
6.3941655,-4.258337,3.4474205999999996,1.0011733,-0.28164378,-0.27698374
7.7851300000000005,-4.2926215999999995,2.5220618,1.3226978,-0.2800381,-0.21788691
8.743260000000001,-4.567571599999999,1.7045758000000002,1.7394998,-0.71069807,-0.24130923
8.984195,-4.996622599999999,2.9008436,2.0913756,-1.2675104,-0.50481904
9.419527,-5.457218599999999,4.310798,2.2441444,-1.8940488000000002,-0.92268574
9.828533,-6.3470383,4.3209596,2.2931182,-2.3891112999999997,-1.3293823999999999
9.40046,-7.523741,2.737789,2.2920537,-2.6733732000000003,-1.6322843
8.878974000000001,-8.524977,1.3066596000000001,1.9923631000000002,-2.3704886000000003,-1.8569256
9.396992,-9.539916999999999,1.9013121,1.370607,-1.6555668999999997,-1.9442270000000001
9.447587,-10.333345,2.8052957000000003,0.76588535,-0.7181506,-1.8579903000000002
9.201347,-10.666552000000001,3.0126529,0.48162362,0.010594148000000001,-1.6099266
9.560928,-11.122724,2.9086583,0.5343150999999999,0.26398104,-1.3203416000000001
10.255103,-10.888945,2.0577207,0.8153829,0.056374136,-1.0653489999999999
11.583235,-11.268713,1.1596938,1.0288541,-0.15706217,-0.97324795
11.52404,-11.323252,0.08033983,1.1507479,-0.31730086,-1.0243686
10.584114,-11.234648,0.18431522,1.0953861,-0.37798595,-1.0616313999999998
9.352901,-10.716705000000001,-0.022419303999999998,0.837217,-0.3162362,-1.1068704
8.071342,-10.146445,-0.89570916,0.5401794,-0.17357299,-1.0914416
6.4474893,-9.2969055,-1.3964325,0.11006046,-0.21776474,-0.7640528
4.836278,-8.29068,-0.6283343000000001,-0.3785968,-0.5105437,-0.18968238
3.5692663000000002,-7.301683000000001,0.3554815,-0.70757395,-0.7330557,0.36819467
3.1668682,-6.567525,1.1908089,-0.8614246999999999,-0.77935934,0.7147298000000001
3.4337928,-5.956008,1.4075128000000001,-0.9870535,-0.60423297,0.94682366
3.999217,-5.520857,1.0799573999999998,-1.2116948,-0.1176701,0.9729163000000001
4.232087,-5.467849299999999,0.59056336,-1.5470598999999998,0.57218874,0.8307767
3.6093645,-5.692473000000001,-0.5579448,-1.7509317,1.2551535,0.72377056
3.1366245999999998,-5.6707339999999995,-1.3587861,-1.7770244,1.6171521999999998,0.92978925
1.9754463,-6.150924,-1.9367272,-1.7472142,1.5740427,1.337027
0.44580036,-6.963832400000001,-2.9457874,-1.6407491,1.2833755,1.753829
0.34886393,-7.951900500000001,-2.7754543,-1.4091789,0.91980594,1.8810634999999998
2.79524,-9.657798,-1.3833122,-1.1701734,0.48862237,1.7256243999999998
5.169934,-10.814829,0.06331227,-1.0307041,0.019652408,1.7389238999999999
6.908919,-11.541594,0.86714154,-0.9375385,-0.4338714,1.8304839
7.8725179999999995,-11.141676,1.1453478000000001,-0.9897064,-0.46209338,1.6148833
7.780417999999999,-10.669636,1.2833112,-1.1728263,0.07393215,1.1086506
7.144518,-11.25632,1.9841993999999998,-1.314966,0.85646796,0.769027
5.098692,-11.328491,1.6431692999999998,-1.0865896000000002,1.3738708,0.6678851
4.276753,-10.968997,1.3155756,-0.637848,1.3701533000000001,0.6753376999999999
5.024826,-10.193342999999999,1.3387993999999999,-0.21731095,1.0416998,0.7519925999999999
7.4449043,-9.124025,1.345005,0.039252456,0.6626841,0.89730865
9.110426,-8.678695,0.788583,0.051504667999999997,0.46945867,1.0021855
9.231783,-8.661849,0.21358193,-0.014486233000000001,0.31986648,0.9798278
10.128891000000001,-8.052064999999999,0.1259829,-0.09007644,0.13196434,0.8430289000000001
11.830689,-7.038742,0.5987803,-0.19601792,-0.02932153,0.6923720999999999
11.937403999999999,-6.2163916,1.015467,-0.30567697,-0.18050195,0.54545027
10.090717,-5.388419,1.9518107,-0.42437682,-0.28588492,0.3298672
8.000647,-4.3459262999999995,2.7294378,-0.45418704,-0.31943017,0.17442821
6.728588,-3.3401794000000002,2.1971013999999998,-0.42970005,-0.2928139,0.022165682000000003
5.832648799999999,-2.9400606,1.0872836000000001,-0.36636207,-0.26619762,-0.12100368
5.5370035,-3.0640516,-0.042204987,-0.22635175,-0.32901199999999997,-0.18755308
5.911332,-3.0483549,-0.7664318,0.04244641,-0.44772932,-0.17423622
6.3432174,-2.9528742,-0.7974607,0.42572072,-0.5557826,-0.16517796
6.7681975,-3.166935,-0.710781,0.8419992000000001,-0.51321405,-0.23492132
6.8221436,-3.5464926,-0.57159173,1.2156917,-0.2768441,-0.2854835
6.9703255,-4.0053077,-0.05744169,1.5574446000000002,-0.116605446,-0.34829790000000005
7.179827700000001,-4.468509,0.5370099,1.8629993000000002,-0.33859387,-0.45797440000000006
7.260206,-5.0836086,1.3085366000000003,2.0115268,-0.8464323,-0.73902476
7.761647,-6.1316752,1.8520012,1.9423244999999998,-1.4442424999999999,-1.1734023
8.239875,-7.586880000000001,2.2957522999999997,1.8848334999999998,-1.9499342,-1.5848986
8.42895,-8.921581,2.8641644,1.8646051,-2.25603,-1.9000352999999999
8.222647,-9.479248,3.7110796,1.7922088,-2.1548882000000003,-2.104972
8.647139,-9.913144,4.3842044,1.6575217,-1.6417264999999999,-2.1715212000000004
9.398678,-10.701172,4.478776,1.593119,-0.90392345,-2.1640687
9.384160000000001,-10.635073,4.188464,1.6559335,-0.16879079,-2.2359414
9.47397,-10.781961,3.1960007999999998,1.7245947,0.84634507,-2.3040613999999997
10.134876,-10.950341,2.0966504,1.8991974999999999,1.5585965,-1.9628496
11.220685000000001,-11.557425,0.7367725,1.4328803999999997,1.2738111,-1.1239048
11.751402,-12.110054,0.22633825,0.73926914,0.66216046,-0.38503709999999997
11.210677,-12.67318,1.0251014,0.22291344,-0.15653858,0.02963569
10.166614,-12.814113,1.7962738,0.034470253,-0.9454449,0.07646287
8.934213,-12.174496000000001,2.3935313,-0.009162978,-1.2446117,0.008342674
7.3115473,-10.8832655,2.7295432,-0.015550883500000001,-1.2547172,-0.044872414000000006
6.2421627,-9.588144999999999,3.1778145,-0.058136917999999996,-1.0588214,-0.060318578
5.1975245,-8.479669,2.5512040000000002,-0.29290116,-0.7628484999999999,-0.017732546000000002
2.9659752999999998,-7.8456173,1.3157766000000002,-0.66818184,-0.48019242,0.12917182
-0.71716875,-7.955463000000001,-2.2671556,-1.0408096,-0.22413518,0.30218629999999996
-2.8942356,-7.39001,-6.1390395,-1.3452998,0.094701566,0.41449824
-2.2250466,-6.323786,-6.3919535000000005,-1.4166313,0.40505599999999997,0.44910812
0.2779764,-5.416709,-4.216122,-1.3021902,0.69251174,0.5278923000000001
2.4575427000000003,-5.3662486,-2.1098470000000002,-1.2308586000000001,0.9597391,0.7674386999999999
3.5561843,-5.8068776,-0.42532513,-1.3069723999999998,0.9783618000000001,1.1373962
4.056093700000001,-6.3708363,0.48733497,-1.3953383999999998,0.71432835,1.5025713
4.49702,-7.465811,0.5206144,-1.2670567,0.22725932,1.7703398000000001
5.013803,-9.083055499999999,-0.0507475,-0.863554,-0.35189328,2.0359613999999997
5.435125,-10.587178999999999,-0.38895243,-0.3051359,-0.8847598,2.2488916000000003
6.122117,-11.275838,0.22049639999999998,0.04405211,-1.0380695,2.2063055
6.125201000000001,-11.046952000000001,0.93007076,-0.0049043754,-0.6563834,1.8203784
5.943194,-10.928181,2.0555372,-0.31578243,0.17402677,1.2646306999999999
5.540154,-11.502011999999999,2.310127,-0.6234665,1.0491698,0.83238244
4.6374445,-11.911642,1.5122066,-0.7102443,1.6389863000000002,0.55876714
4.3080883000000005,-12.087567,0.6217550000000001,-0.6559471,1.6932836,0.42408009999999996
5.0021677,-12.038055,0.55734146,-0.6080378000000001,1.4617132,0.3298672
6.3241115,-12.096925,1.4237263999999998,-0.6208136,1.1540291,0.27022934
7.3544225999999995,-11.965233999999999,2.2294424,-0.6745696999999999,0.87456703,0.28035223
8.734163,-11.05764,2.4436946,-0.7192851,0.6610958,0.37458256
10.484219,-9.640454,1.5144858,-0.77838194,0.51736796,0.48263590000000006
11.590206,-7.7575009999999995,0.6129826999999999,-0.8284205,0.38269836,0.56887263
11.0571995,-5.971464599999999,0.25979003,-0.8294851999999999,0.20809561,0.6902428
9.387004,-4.8226595,0.43558192,-0.7490953,-0.026651177999999998,0.8733628000000001
7.494062,-4.1544476,0.72336495,-0.6277251,-0.21083577,1.0485065
6.059734,-3.6234998999999997,0.29008147,-0.43395865,-0.42163664,1.1368725
5.3975267,-3.468145,-0.2603072,-0.22954570000000005,-0.6553188,1.0825753
4.7812495,-3.5240447999999995,-0.6447298,-0.018221237,-0.89167124,0.9377829
4.253807,-3.6667678,-0.54791784,0.19310322,-1.0779851999999999,0.7296349
3.9462477999999996,-4.027497299999999,-0.34709218,0.38367572,-1.1248298,0.40439278
4.2398915,-4.400351000000001,-0.18006313,0.49066442,-0.8320508,-0.07681194
4.7292666,-4.8959126,0.05658935,0.5907416,-0.18793705,-0.43188173
4.9557385,-5.498868,0.45862368,0.8819323,0.38056904,-0.6671696
5.231647,-6.0070714999999995,0.9069715,1.3200275,0.28848547,-0.8375136999999999
5.9601927,-6.3689694,1.2645503,1.684679,-0.2640683,-1.1159111000000002
7.422714699999999,-6.8461240000000005,1.5872312,1.8209543000000001,-0.89062405,-1.5433772
9.041147,-7.543593400000001,1.6458988,1.6511338,-1.2376828000000002,-2.0267286
10.313464,-8.335758,1.859203,1.313116,-1.288786,-2.4185202
11.0210085,-8.495336,2.230649,1.0352421,-1.0961016000000001,-2.6697778999999997
11.814945,-8.22437,2.6287568,0.8643569,-0.71813315,-2.7309866
12.539421,-8.790513,2.9901185000000003,0.8734151,-0.35774013,-2.6740188999999996
11.597849,-9.000599000000001,3.3380535000000005,1.0506707,-0.15599753,-2.568095
10.930067,-9.151109,3.4824047,1.2912818000000001,-0.07189011,-2.4105265
10.386525,-9.150946000000001,2.5429583,1.549992,-0.14906856,-2.1108186
11.308677000000001,-10.034127999999999,1.3300843,1.7682455000000001,-0.4104491,-1.7216973999999998
12.259452,-11.274239,0.32813972,1.8262776,-0.7085513000000001,-1.3192595
12.219268,-12.081381,-0.13673764,1.7027781000000002,-0.89221233,-1.0264804
11.254874000000001,-12.602341000000001,0.3206219,1.4440680000000001,-0.9273458000000001,-0.8465545
9.960626,-12.857812,1.3344706,1.1150908000000002,-0.8559966999999998,-0.71027917
8.178469,-12.316397,2.2016888,0.6972067,-0.71972144,-0.5878444
6.5243435,-11.153657,2.7936695,0.24685937,-0.60847414,-0.49150217
5.1968255,-9.996961,3.085877,-0.1662077,-0.4503822,-0.44146359999999996
3.8304162000000006,-9.217609,2.5580034,-0.4595103,-0.3146305,-0.38449603
2.3944986,-8.4751005,2.0063313999999997,-0.7959399,-0.19805996,-0.30358258
1.2888561,-7.7697783,1.05659,-1.1680441000000001,-0.034627332999999996,-0.23705062
1.0635618999999998,-7.030324,-0.010639832,-1.5018034,0.2512227,-0.18221237
1.2918346,-6.256145,-0.66054106,-1.6561778999999999,0.5780705,-0.0922581
1.6360347,-5.9288096,-1.1026831,-1.6242383,0.877761,0.19730946
1.8717486,-5.878072,-1.4259195,-1.4789222,1.0172303,0.79086107
2.2864816,-6.093291000000001,-1.5646778000000001,-1.2239296,0.8569916,1.6963378
2.7205122000000004,-6.306624,-1.3561716000000001,-0.7725175999999999,0.6179861999999999,2.4266883999999997
3.5289097000000003,-7.189433599999999,-0.8527379999999999,-0.20347048,0.26878070000000004,2.870124
4.151623000000001,-8.429285,-0.5158164000000001,0.27295205,-0.25768042,3.1213818
4.818666,-9.661925,-0.3579236,0.3586477,-0.7058984,3.0830542999999997
5.228735400000001,-10.323577,0.25345975,-0.12414527,-0.6979048000000001,2.495367
5.282643,-10.785917,1.1957122,-1.0179284,-0.07082546,1.4919423
5.0310893,-11.911221000000001,2.0250158,-1.6950463,0.89160144,0.6428746
4.218775,-12.877730999999999,2.7603134999999996,-1.8637848000000001,1.6262106,0.2766347
2.4895197999999996,-13.093631,2.7061949,-1.6545895,1.9647695,0.29686305
1.370307,-11.870261,2.8548462000000003,-1.3266771000000002,1.9509290000000001,0.37564722
3.7410648,-11.8112,3.3118513,-1.1318461000000002,1.7390634999999999,0.34318408
6.629736,-11.842172,2.281789,-1.1637856000000002,1.4904763,0.22924899999999998
9.150103,-11.487926,0.5418748999999999,-1.4176959999999998,1.2860459,0.23776620000000004
11.996875,-10.458572,-1.4872111000000001,-1.5875165,0.93951076,0.5193751
14.330426999999998,-8.216641000000001,-2.7419066,-1.4932863,0.54613096,1.0192374
14.293632500000001,-5.969894,-2.5261318999999998,-1.107359,0.094719015,1.4552032
11.762367999999999,-5.1509237,-0.52405244,-0.637848,-0.26778588,1.6777151999999997
8.335969,-5.105692400000001,1.1803128,-0.24551547,-0.63667864,1.7336006000000002
6.1005025,-4.5456123,1.9008907,-0.015550883500000001,-0.8570614,1.4844898000000002
5.319246,-3.8315269999999995,1.5017008,0.01956514,-0.80595815,1.0069852
5.404527,-3.5895884,0.5802683000000001,-0.07145378,-0.5493946999999999,0.59229493
5.201403,-3.8681297,-0.62112296,-0.055484015,-0.2454282,0.23937191
4.103326999999999,-4.2441244000000005,-1.0643280000000002,-0.009704031,0.04733333,-0.13271484
2.9118376,-4.869576,-0.10127473599999999,0.13561209,0.33213615,-0.3818257
2.985225,-5.292373,1.2649812,0.50291663,0.37472218,-0.49415508
4.5333157,-5.337576,2.40352,0.95539325,-0.022916173999999997,-0.69697976
6.560649000000001,-5.350437599999999,2.3867220000000002,1.3147042,-0.5387308000000001,-1.0270040999999999
8.889039,-5.0534606,1.8523459999999998,1.5137938,-1.0050478,-1.3405524
11.16285,-4.9109674000000005,1.2987396,1.5782139,-1.3420186,-1.5960687
12.577671,-5.4328556,1.0584096,1.5665028,-1.4889404,-1.7903588
12.845754,-6.253913400000001,1.3564302,1.4813308,-1.4623241000000002,-1.9351686999999997
12.855246000000001,-6.928781,2.0952523000000003,1.321092,-1.2589757,-2.001177
13.145739,-8.174216,2.2928598,1.2098448,-0.93371624,-2.0192587
12.467824,-9.162179,2.8754267999999996,1.2657303,-0.65584236,-2.0256467000000002
11.761018,-8.984817,3.1112268,1.4041348999999999,-0.4988151,-2.0485453999999996
11.960244,-9.062014999999999,2.5852877999999997,1.5766083,-0.4237485,-2.0799437
12.384936999999999,-9.98837,2.027343,1.7166185,-0.41151372,-2.0959136000000003
12.030691000000001,-10.859419,1.4615548,1.8017906000000004,-0.5131792000000001,-2.0661032
11.535445,-11.534286999999999,1.4179612,1.8321245,-0.69310516,-1.9617676
10.94085,-11.99134,1.5310823999999998,1.8156312,-0.8607964,-1.7775828999999999
10.015702000000001,-11.879033,1.6182313,1.7741097,-0.8996474,-1.5779697
8.774548,-11.246868,1.8879907999999999,1.6468753,-0.8554731,-1.3836621
7.6276589999999995,-10.006183,2.5217552000000003,1.3466437,-0.76017815,-1.2346110000000001
6.564671499999999,-8.789660000000001,3.0389507,0.8191179,-0.6020688,-1.0722605
5.880868,-8.00511,3.0570507,0.2867925,-0.46101126,-0.9114982
5.309918,-7.586573599999999,2.7893982000000004,-0.18963002,-0.36147514,-0.64959407
4.667831400000001,-7.3850107000000005,2.1480107000000004,-0.49144979999999994,-0.31728340000000005,-0.29558897
3.9036214,-7.2868867,1.5693321000000002,-0.7267376,-0.14480996,0.07595673
3.1940756,-7.3278756,1.0541767,-0.9779952,0.12507029,0.3623478
2.7987452,-7.3362455,0.8732994000000001,-1.152598,0.4380602,0.57793087
2.6922224,-7.227328999999999,0.83820045,-1.1824082,0.61692154,0.9010611
3.020611,-7.195504700000001,0.394507,-1.1520743,0.676542,1.3822833
3.3847406,-7.301692999999999,-0.39935285,-1.1259816999999999,0.6371498999999999,1.7926973999999998
3.6241605000000003,-7.531766,-1.1971678999999997,-1.1616563,0.6041456999999999,2.096664
3.7898487999999997,-8.254796,-1.3073874,-1.2058306,0.3683343,2.4128654
3.6337182999999995,-8.98429,-0.78428304,-0.9854478000000001,0.036163222,2.781217
3.8282425000000004,-9.333135,0.14609419,-0.54735273,-0.28801423,2.9648779999999997
3.7073638,-8.839564999999999,0.5468261,-0.35358626,-0.37690386,2.7860167000000002
3.9302642,-8.528012,0.68465555,-0.570234,-0.09850638,2.2132347
4.1421413000000005,-9.027144999999999,0.98255163,-1.0211049,0.4391423,1.6138536
3.5601108,-9.449589,1.1969379999999998,-1.2026366000000002,1.0262885,1.2023573
3.2185159,-9.8972,1.0832326,-1.0940421999999999,1.4532135,0.94364715
4.230497,-10.584449000000001,0.78075874,-0.94286174,1.6687965,0.7738265999999999
5.588708400000001,-11.282522,0.1676037,-0.93434453,1.7092532999999999,0.67162013
6.3810363,-11.446889,0.33424973,-1.0078055000000001,1.6512386000000003,0.6269048
7.8374386,-11.517422,1.2924858,-1.0477386,1.4622716999999998,0.6902603
10.151999,-10.852619,1.607898,-1.0232516999999999,1.1242363000000002,0.8755094999999999
12.104481,-9.582927,0.56592226,-1.1163999,0.7564082,1.0682113000000002
12.778236999999999,-8.095074,-0.24561636,-1.1786907,0.38910370000000005,1.218327
11.27169,-6.7230240000000006,0.08339483,-1.0589087,-0.021851522999999998,1.4275223
9.257449000000001,-5.7119045,1.6607428,-0.8699418999999999,-0.37423348,1.6005367
7.758669,-4.947914599999999,2.3017185000000002,-0.7884874,-0.6430666,1.6218297
6.570187599999999,-4.4259405,1.6631178,-0.64210665,-0.69736373,1.4781018
5.714519,-4.364591000000001,0.8152736,-0.4030838,-0.6941698000000001,1.1682885
5.037659,-4.425308,0.25805664,-0.2226342,-0.5216964,0.6955835
4.3564124,-4.587013,0.20497240000000003,-0.13798574,-0.20814797,0.21755528
4.0801983,-4.6689425,-0.0066846116,0.08716174,0.14849262,-0.19072957
4.4238715,-4.836698999999999,-0.42176260000000004,0.5391148,0.46204102,-0.40896556
4.9991699999999994,-5.131483,0.06275681400000001,0.92132443,0.42847833,-0.48083820000000005
5.75274,-5.486130999999999,0.85606116,1.2912818000000001,-0.20284216,-0.7129321
6.904227000000001,-5.555879,0.99146765,1.4839836000000002,-0.9023003,-1.0834305
8.839383,-5.8939786,1.1079311,1.3631545,-1.4058802,-1.5928748
10.869254,-6.508963,1.7841686999999997,1.1906811000000002,-1.5421555,-2.1342409
12.348459,-6.941174,2.288225,1.1220024,-1.3941865,-2.5292265
13.057134,-6.737073,2.2535567000000003,1.0368303,-1.0998018,-2.759732
12.570296,-6.4277225,2.671527,0.8569043,-0.6984284000000001,-2.7964537
12.354847,-7.419363000000001,3.3698485000000002,0.7802494000000001,-0.3343178,-2.7607967999999996
11.10855,-8.184617,3.3538074,0.91600114,-0.07506661,-2.8001888
11.131113000000001,-9.156107,1.7421935000000002,1.1060326,0.10323623,-2.8534213999999998
12.647236,-10.495414,1.0387197,1.3061869,0.26293385,-2.8299816000000004
13.370228,-11.163789,0.18317558,1.4605788,0.21823597,-2.7240574
12.882423,-10.676722999999999,-0.068598665,1.6191943000000002,-0.080389865,-2.4860992000000004
12.549342,-11.722319,1.1943907,1.6490046000000003,-0.5216964,-2.176827
11.8249235,-13.037951,1.9601425,1.5595739,-0.8506735000000001,-1.9399509999999998
10.644554,-13.697535,2.0773914,1.3264153,-1.0103711,-1.7323439999999999
8.982758,-13.298651000000001,2.061743,1.0001086,-0.99494237,-1.4565995
7.974607000000001,-12.212746000000001,2.7945217999999996,0.71052355,-0.7931823,-1.1174993999999998
7.0827384,-10.906201,3.2867699,0.49652870000000005,-0.49188614,-0.7384837
6.0453405,-10.026658,3.186673,0.3671649,-0.18259634,-0.30410618
4.5026603,-9.389705000000001,2.2574353,0.25485298,0.11121238,0.29208085
2.9599035,-8.655336,1.2836657,0.04670501,0.27570966,0.7834259
1.4846445,-8.075604,0.3019567,-0.30459487,0.49715704,1.0421360999999998
1.0647207,-7.461012400000001,-0.44767740000000006,-0.7528303000000001,0.7292509,1.0186963
1.4964813999999997,-6.734228599999999,-0.70909554,-1.1180055,0.8900132,0.8941495999999999
1.7559363000000001,-6.29019,-0.9007370000000001,-1.3809569,0.87938416,0.9899681999999999
1.7621707999999998,-6.2130203,-0.79117835,-1.561965,0.744156,1.2566545
1.8250330000000001,-6.342499299999999,-0.13446794,-1.753061,0.61055106,1.6425991999999998
1.9764518,-6.801850999999999,0.40598,-1.8456857,0.433278,1.941225
2.0774488,-7.624230000000001,0.59873235,-1.8281276000000002,0.27305678,2.1451144
1.8634549999999999,-8.318442999999998,0.4295964,-1.7014343,-0.048991393,2.4586452999999997
2.7817175,-8.69346,-0.08489839,-1.4613466999999998,-0.37742746,2.6763752
4.347477400000001,-8.662853,-0.42203072,-1.2367053999999997,-0.42001350000000004,2.5943970000000003
5.486878400000001,-8.404261,-0.5134126,-1.0897835,0.018064158,2.2877777000000004
5.986998000000001,-9.151214,-0.19222566,-0.9966354,0.79473567,1.9550655
4.7744594000000005,-10.0748205,-0.33060095,-0.9412735000000001,1.503252,1.7165837
5.1275373,-10.943091,-0.2825158,-1.0264281,1.9344531000000003,1.5095178
5.1922474,-10.964141999999999,-0.14133452,-1.2276472,1.9882092,1.2555898
7.022183999999999,-11.79401,0.38538027,-1.3591403,1.6390038,0.97825706
8.588979,-12.875538,0.7164026,-1.5044563999999998,1.2349775,0.8153655
9.529200999999999,-13.323626500000001,1.021989,-1.6396843999999997,0.9640151,0.7371049
10.876667,-12.128442,1.9000384999999997,-1.7642486000000002,0.8490329,0.642351
12.029235,-10.654753,2.051266,-1.8078994,0.77131337,0.5236510999999999
12.116058,-8.859121,2.197973,-1.9324459999999999,0.7920828000000001,0.37353536
11.1507845,-7.0890107,2.0662055,-2.1390057000000002,0.94431037,0.21809635
9.453046,-5.395439,1.2747879999999998,-2.2465355,1.1237128,0.1627345
8.40813,-4.0673656000000005,0.31849584,-2.0048597,1.0678098999999999,0.32295573
7.4900970000000004,-3.2350166000000002,-0.5177317,-1.2201946000000001,0.63238513,0.6780255000000001
6.563139,-2.8288355,-0.5866369,-0.12892747,0.06279694,1.0070026
5.8331084,-2.986173,-0.7620744,0.49972266,-0.36145768,1.1038858999999999
5.749829,-3.2773077000000006,-0.30367097,0.73181653,-0.6340083000000001,0.9904917999999999
6.222042,-4.0512958,0.32003772,0.76801467,-0.68404686,0.6934541999999999
6.6835,-4.858027,0.9764895,0.724364,-0.44130649999999993,0.2558827
6.887898,-5.387988,1.2721256,0.64770913,-0.11074114,-0.14227924
6.827621499999999,-6.2130585,1.8576898999999998,0.8627686,-0.11178834,-0.5463055
6.1858606,-7.318184,3.0200077999999997,1.2753296,-0.3683692,-1.0227455
5.094995,-7.696094,4.6202825999999995,1.6719032999999999,-0.8000938,-1.4831983
5.225125,-7.8412880000000005,6.2258629999999995,2.0253673,-1.2727988000000001,-1.8409209
6.9157667,-7.851861500000001,5.7642994000000005,2.2840773999999997,-1.7401805000000001,-2.182674
8.918047,-7.934958999999999,3.4651282,2.365532,-1.9653455000000002,-2.52975
10.549791,-7.6341033,2.2056441,2.3224049,-1.9685394,-2.8858845
12.256043,-7.854447,1.8903276999999998,2.136632,-1.8104474999999998,-3.045041
13.974419000000001,-9.074187,1.6913886000000002,1.8316008999999998,-1.4575069999999999,-2.9172827999999997
14.351362,-9.454844999999999,1.7265164000000002,1.7437758,-0.99066633,-2.7607791
13.784118,-8.631864,2.7952976,1.7911441000000003,-0.47909287,-2.7421564999999997
13.517776999999999,-8.895359,2.6219957000000003,1.6708386000000002,0.12826425,-2.8470159
12.976745,-9.624441000000001,2.168802,1.6809615000000002,0.8059232,-2.8667207
12.262278,-10.283201,1.9754558,1.4973005,0.8932245999999999,-2.374852
11.933150999999999,-10.960091,1.457159,1.0187486,0.34545302,-1.5252433
11.773975,-11.483013,1.3471886,0.5045223,-0.36304593,-0.6804515
10.98204,-11.694296000000001,0.9800042,0.14732324,-1.0183473,-0.124180175
8.669634,-11.270647,0.81473726,0.008395034000000001,-1.397363,0.14728834
6.690836,-10.146033000000001,1.1122695,-0.054942965999999996,-1.5511962,0.30859166
6.143186599999999,-9.026313,2.056236,-0.008621926,-1.5788772,0.42303290000000005
5.676173,-8.320349,1.8408442999999999,0.040858157,-1.3824579,0.47361255
4.4303555,-8.0330925,0.39067626,-0.16619025,-0.8352273000000001,0.33894295
2.1137354,-8.367361,-0.4058172,-0.6319836999999999,0.02766347,0.13718288
-1.1109,-8.661992,-3.0868154,-0.91305155,0.71223396,0.10789625
-2.6289291,-8.40495,-4.418480000000001,-0.9795834999999999,1.0263059,0.3559599
-1.6942521000000001,-8.058911,-3.8198819999999998,-0.9481850000000001,1.0481225,0.7472278
0.63583297,-7.769664,-2.203422,-0.9407325000000001,0.8479681999999998,1.160836
2.7298400000000003,-8.107657000000001,-0.45638272,-0.83372635,0.51953214,1.3790893999999998
4.740318299999999,-9.347930999999999,0.6723589,-0.59897953,0.10964158,1.5127118
5.976818,-10.098436,1.6611833999999999,-0.27639034,-0.15650368,1.6532456999999998
6.9184194,-10.059966000000001,1.8765465000000001,0.0020071286999999998,-0.09475392,1.7070018
7.4339770000000005,-9.510066,1.1408372,-0.013421582,0.33267722,1.6154418
7.2335825,-9.525532,0.72916853,-0.25722662,0.9384635,1.3971883999999999
6.3624279999999995,-10.563955,1.1735419,-0.5345594,1.4377848,1.2870058000000002
5.309401,-10.893714,1.2553279,-0.6538003000000001,1.6469975,1.3008462
4.758571599999999,-10.582936,0.7976618000000001,-0.8938878,1.8796324,1.2918053999999999
5.6591554,-10.448019,0.40584590000000004,-1.2681038,2.0877628,1.1081444
7.284981,-10.156058999999999,0.62268394,-1.5986867,2.0398536,0.87018627
8.029022,-9.363474,0.95661765,-1.7621019,1.8013718,0.66631436
8.727995,-8.6643,1.3519386999999998,-1.7690308000000001,1.394134,0.48691195
9.636911,-8.003376,1.0461895,-1.7647722,0.7984707,0.43847907
10.242299000000001,-7.12886,-0.1054981,-1.7759422999999999,0.28902653,0.6066939
10.033908,-6.109294,-0.9645471999999999,-1.5443895,-0.14798647,0.8095011999999999
8.528836,-5.007453400000001,-1.407149,-1.075402,-0.50145054,0.918113
7.368490700000001,-3.7056687000000004,-1.4580784,-0.5595875,-0.6393316,0.960158
7.3294845,-2.6053414,-2.275995,-0.21889919,-0.5376486999999999,0.9431236
7.524171400000001,-2.0154867,-2.5015384999999997,-0.1795071,-0.39285615,0.89999646
7.167119500000001,-1.9042426,-2.113812,-0.24551547,-0.317807,0.75839794
6.917519,-2.0619058999999997,-1.2794614,-0.24178046,-0.22251202,0.49968776
6.680991000000001,-2.5938687000000002,-0.7224264,-0.10337585,-0.07400196,0.22287855
5.988224,-3.6069512,-0.58903104,0.12018337,0.10325368,0.006230825600000001
5.736296,-4.775780999999999,0.45026314,0.392734,0.2980848,-0.04272566
6.2829885,-5.136951,2.1444004,0.73075193,0.2656042,-0.05656612
7.0213795,-5.0761957,3.3493445,1.2700063,-0.2512576,-0.10128146
7.891260000000001,-5.1350739999999995,3.6329233999999997,1.8875037000000001,-1.1109544,-0.33656928
8.813986,-5.7405105,2.7559655,2.1520607000000003,-1.6762841,-0.66074675
9.705912,-6.590902000000001,1.8404706999999998,2.2750366,-2.0569055,-1.0003878000000002
10.927731,-7.2320886,1.7844176999999999,2.3144287999999995,-2.3374496,-1.3288239
11.619549000000001,-7.3654646999999995,2.6203866000000002,2.0817938000000002,-2.2565188,-1.6056331
11.135431,-7.0981570000000005,3.2664572999999995,1.6511513,-1.7987188000000003,-1.8057874
11.056682,-8.205026,3.688986,1.2636184,-1.1146895,-2.0314933999999996
10.576645,-8.880611,3.7496644999999997,1.10605,-0.45832345,-2.2263246
10.846586,-9.548986,3.3730376000000004,1.1624765,0.10644763,-2.3636644
10.792765,-8.998722,3.6055623999999997,1.2923639999999998,0.54881877,-2.4280672
11.649917,-9.395452,2.7501523,1.5004945,0.772378,-2.3865632999999997
12.073241000000001,-10.163435,1.8874258000000002,1.8012669999999997,0.6190857,-2.2561347
12.017399000000001,-10.902092999999999,1.9006993000000003,1.8576936000000002,0.17139134,-1.9750668999999998
11.912121,-11.639325,1.6482834,1.556921,-0.28904396,-1.6822879000000002
11.326816,-11.542619,1.2438357,1.0160784,-0.46259952,-1.5444243999999998
10.401418,-10.4693365,1.3546393,0.32459635,-0.38753292,-1.4304893
9.29296,-9.090775,2.2822871,-0.43448228,-0.27680922,-1.2383286
7.9852276,-7.8621373,3.0457692,-1.036551,-0.26244515,-0.95939004
6.7769127000000005,-7.183208500000001,3.1836467,-1.2729036,-0.3337593,-0.5808979000000001
5.407563,-6.7758009999999995,2.5488,-1.1355636,-0.5041034000000001,-0.13267992
4.147648,-6.901258,1.6066049999999998,-0.85023713,-0.5717175,0.32243213
2.6138074000000002,-6.9276323,0.34403720000000004,-0.6271840999999999,-0.3891386,0.68600166
1.2460575,-6.898279,-1.8065592000000001,-0.50794315,-0.0628144,0.9228951999999999
0.97443056,-6.4768615,-3.1560175,-0.45844564,0.24965189999999998,1.0293603
1.7292936,-6.29065,-3.527253,-0.6000441999999999,0.31777209999999995,1.189058
2.2404556,-6.8599815,-3.5694003,-0.8662069,0.16020377,1.4621321000000003
2.3143887999999997,-7.351281,-3.1477720000000002,-1.0259045,-0.15330972,1.792715
2.8510537,-8.481307000000001,-1.6113743999999999,-0.9247627,-0.45300022,2.0216148
3.5604940000000003,-9.696909,0.3491991,-0.6947981,-0.6201504,2.1754656000000003
4.177633,-10.120588,2.1197880000000002,-0.55532885,-0.5349958,2.1536317000000005
4.774564700000001,-10.056241,2.77872,-0.66657615,-0.07984881,1.9082383
5.410369,-9.659675,2.7250707000000003,-0.9188984,0.6398377,1.5616857
6.367245,-9.682573,2.1327932,-0.9593550999999999,1.1178659,1.2705125
7.6613784,-10.190297,0.91667277,-0.89814645,1.3137617,1.1177263000000002
7.352689,-10.161567,-0.65515894,-0.7757116,1.3180203000000001,1.0325543
7.0478497,-10.157103999999999,-1.346049,-0.6239901,1.2264603,0.960699
8.17459,-10.423683,-0.45896846,-0.5287126,1.1018961999999999,0.9223716000000001
9.516703,-10.177886,0.6079836,-0.42437682,0.9533860999999999,0.8169712
10.4795265,-9.531058,1.2382333,-0.2864958,0.6440963000000001,0.7110297
11.535532,-8.435883500000001,1.1531241,-0.31417670000000003,0.4551295,0.6870838
12.140097,-7.357305,0.6829508000000001,-0.45312238,0.33108896,0.7174176
11.538309,-6.377234,0.85127276,-0.6351777,0.3545113,0.74668676
9.863536,-5.362101999999999,1.3841742,-0.6655115,0.33588862,0.7850315999999999
8.27438,-4.4157314,1.3297396000000001,-0.5526585,0.2688156,0.88191485
7.0021973,-3.6126108,1.304792,-0.45151670000000005,0.17938495,1.0133905
6.2300096,-3.1367586,1.3582306,-0.46961573,-0.0058643064,1.1054741000000001
5.701265,-2.9341326000000003,0.9411128000000001,-0.3706032,-0.37049848,1.0969744
5.623779,-2.888815,1.0146914,-0.17044885,-0.5983338,0.8563458
5.352698,-3.1296048,0.7148703000000001,-0.017680185,-0.7037342,0.515675
5.1439900000000005,-3.5335257000000007,0.19640115,0.07599164,-0.59939843,0.1669931
5.1889725,-3.7780502,0.009911995,0.10101966,-0.33269465,-0.09063495
5.584734,-4.179893,0.3159772,0.33896038,-0.14479251,-0.25778514
5.6348970000000005,-4.2409453,1.1174601,0.7823962,-0.09155997,-0.514366
6.014541,-4.6870327000000005,1.470557,1.1598061000000002,-0.21772982,-0.81779146
6.840722599999999,-5.2949877,0.89987504,1.33495,-0.5009095,-1.181902
8.0820875,-6.342087,0.8725236999999999,1.3088573000000001,-0.73993236,-1.544948
9.970692,-7.422063400000001,1.6112977,1.148095,-0.8229751000000001,-1.8292098
11.918422,-8.098607000000001,2.1081042,1.0352421,-0.7250272,-2.0102005000000003
12.7850275,-8.884901,2.4333134,0.92238903,-0.47961646,-2.06928
13.356216,-9.8266945,2.520223,0.9154776,-0.24113469,-1.9921012999999999
12.748797999999999,-9.749189,2.7808080000000004,1.0379124,-0.09101892,-1.8457031000000004
12.236803,-9.218308,3.464525,1.2774588,-0.12934636,-1.7514901999999999
12.083267,-8.679163,3.3975446000000002,1.5462744,-0.26136306,-1.6567363999999998
12.16875,-8.719405,2.3432338,1.7075778000000001,-0.40563196,-1.5572002
12.206722000000001,-9.398841000000001,1.3134591999999998,1.7512285,-0.561071,-1.4480648
11.744661,-9.986809,0.8730026,1.6841555000000001,-0.63612014,-1.2936903999999998
10.584431,-10.217897,1.1521376,1.5303046999999999,-0.7543138,-1.1148291000000001
9.675064,-10.444724,1.7518661,1.1874871,-0.88311917,-0.8875174000000001
8.174552,-10.142356,2.0778317,0.6828426,-1.0305821,-0.6197664
6.7258105,-9.332894999999999,2.560043,0.18086848,-1.1019136,-0.40683624
5.6872153,-8.276947,2.9182541,-0.16831955,-1.1844153,-0.20188223
5.170575599999999,-7.472542999999999,3.156027,-0.45471063,-1.1051075000000001,-0.01982694
4.488257,-6.8452910000000005,2.6990792999999997,-0.7448366999999999,-0.8495914000000001,0.072239175
3.9418712,-6.5970693,2.0628154,-1.1052123,-0.3337593,0.053075462999999996
3.3523326,-6.32641,1.1132942,-1.4858336,0.3385415,-0.037926003
2.6377206,-6.359632,0.2704969,-1.6801237,0.9336813,-0.13906783
2.0534685,-6.1025715,-0.76031226,-1.7253802,1.3345311000000002,-0.12896238
1.6386396,-6.330815,-1.9953372,-1.8504679,1.4878408,0.09087929
1.9965823,-6.534332,-2.7685017999999997,-1.9042414,1.2568116000000003,0.6295926
2.7870998,-6.715917999999999,-1.942866,-1.5603592,0.648896,1.2130213
3.7643266000000004,-7.194700699999999,-1.3889147,-0.78316414,-0.16608553,1.7464113
4.906246,-7.917491,-0.65985155,0.057892572,-0.79475313,2.1339443
6.2777886,-8.7039385,-0.23275472,0.57585394,-1.167922,2.323452
7.228248,-9.269055,0.084821776,0.55721384,-0.98373735,2.1690776
7.165041,-9.362621,0.70849216,0.0035953782000000003,-0.25071654,1.6404699
6.8344784,-9.6365185,1.5734407,-0.70544463,0.7101221,1.1326314
6.34201,-11.176803999999999,1.3789835,-1.1983780000000002,1.5990881000000001,0.8100421999999999
5.5986876,-12.437284,0.77677476,-1.4272778999999998,2.0451767,0.69825387
3.9895252999999995,-11.976755,1.0968316999999999,-1.5188378999999999,2.1441894,0.5028817
4.541743299999999,-11.776829,2.4880257,-1.4943509,1.6890422999999999,0.12227777
6.404116,-11.723600999999999,3.2597535,-1.4363188,0.9304874,-0.17048377
8.194462,-11.078142999999999,2.8562827,-1.3479527,0.07557276,-0.13854423
9.88406,-9.667987,0.8558026,-1.2521341000000001,-0.52700216,0.26228809999999997
11.267478,-7.940494500000001,-0.88862234,-1.0317514,-0.7862359,0.66579074
11.82114,-6.4042788,-1.9090311999999998,-0.6798930000000001,-0.8533089,0.9905093
10.43486,-5.080189,-1.9225727,-0.25987953,-0.7415206,1.1432779
8.234214999999999,-3.951496,-1.0327054,0.096761055,-0.5882109000000001,1.2002455
7.123028,-3.2469107999999998,-0.90039223,0.16222836,-0.33430037,1.2598658999999999
7.145763400000001,-2.4429286,-0.99416834,-0.044296455,0.32417744,1.2705125
6.864052,-2.1041298,-1.3170408000000002,-0.36102134,1.2104906000000002,1.1289139
5.747961,-2.5800972,-0.9146234000000001,-0.5228483,1.6469975,0.93673563
4.0382620000000005,-3.382557,-0.31370747,-0.3301465,1.496358,0.7408399
3.2187933999999996,-4.2270392999999995,0.8759043,0.03021165,1.2355186000000002,0.5518731
3.8359516000000005,-4.448264,2.1327548,0.37357026,1.0502694,0.25270623
4.99622,-4.347593,2.8724577,0.6269571999999999,0.7026521,-0.18697712
6.7202470000000005,-4.4595356,3.1134677,0.93835884,0.27626815,-0.48933795
7.7950610000000005,-4.606118700000001,2.4136903,1.3546373,-0.25232226,-0.7262314999999999
8.873859,-5.1085080000000005,1.3083546,1.7011898999999997,-0.77986544,-0.93329734
10.466119,-5.805508000000001,0.9559472999999999,1.8124372,-1.2983329,-1.1254754999999999
11.613209,-6.35764,0.96607953,1.6224056,-1.7194111,-1.3043368999999998
11.827625,-6.733740299999999,1.656347,1.3881825,-2.0670109,-1.4581701999999999
12.40864,-8.096721,2.8856737999999997,1.3695423999999998,-2.255995,-1.5252433
13.048036,-9.2645645,3.4184699999999997,1.5723671000000001,-2.254913,-1.541213
13.566054000000001,-8.705241000000001,3.2463555,1.8954799,-2.079263,-1.5715643
12.789816,-8.264324,2.8411607999999995,2.2233925,-1.8189471999999998,-1.654066
11.544381,-7.908689999999999,3.007577,2.3511505,-1.3744643,-1.7695893
11.277225999999999,-8.842371,2.9353678,2.24575,-0.93315774,-1.8435738000000002
11.298899,-9.791260000000001,2.3129044,2.0615653999999997,-0.61960936,-1.8286686999999997
10.860367,-10.298449,1.2786665000000002,1.8603464,-0.36995745,-1.6908052
10.073402,-10.450317,0.5966063,1.6314465,-0.22835888,-1.4278364
9.151463,-10.424307,1.5742833999999999,1.2896936,-0.18044959,-1.0355039000000001
7.939757000000001,-9.76026,2.937877,0.88406163,-0.33536503,-0.6176371
6.90641,-8.766072,3.9873800000000004,0.3453483,-0.6611482,-0.21359339999999996
6.196232299999999,-7.846967,4.5663366,-0.25455627,-0.8868541999999999,0.055204764
5.7892566,-7.383957400000001,4.2577524,-0.7261966,-0.8889834000000001,0.2920983
5.378995400000001,-7.047687,3.21118,-1.1158588,-0.57117647,0.49171162
4.7480946,-7.187939599999999,1.9384032,-1.5678118,0.03139847,0.5268451
3.9229187999999993,-7.077490299999999,1.0622402,-1.9675794999999998,0.8171108,0.45498988
2.6744093999999996,-6.941787,0.32226914,-2.1624105,1.697036,0.41879174
1.2305048,-6.6556606,-0.6911581,-2.3226492000000003,2.3326325,0.5460088000000001
0.21624429999999997,-6.5722179999999994,-1.8910459,-2.5078986,2.4848776000000004,0.7733205
-0.06753564599999999,-6.654521000000001,-2.6546237,-2.4525366,2.3278502999999997,0.9431236
0.44763909999999996,-6.8423505,-3.058401,-2.0799088,2.1223726000000003,1.1294374
2.1084106,-7.730886999999999,-2.3600125,-1.5976219999999999,1.5538492,1.3077753
3.389682,-8.5028925,-0.81203663,-1.0615616,0.4843987,1.2987169
4.513693,-8.798575999999999,0.31344888,-0.6202726,-0.15330972,0.9670869000000001
5.650258999999999,-9.042938000000001,0.9548651,-0.4398055,0.14583970000000002,0.35065409999999997
6.1419606,-9.371393,1.8406334999999998,-0.48506190000000005,0.7612079,-0.047507863
6.3676379999999995,-10.596919,2.5258255000000003,-0.49623199999999995,1.1077603999999999,-0.10234611
6.4911785,-12.109681,1.8342458,-0.33175218,0.88577205,-0.053895768
6.603074,-12.5729685,1.5012985,-0.14063863,0.31778955,0.08714429
8.084271000000001,-12.639842999999999,2.9269307,-0.057595864000000004,-0.14371040000000002,0.26228809999999997
9.494829,-12.470295,3.8694608,-0.25562093,-0.5882109000000001,0.5263215
10.5273905,-11.348583,3.6628220000000002,-0.6436949000000001,-0.9448689,0.81803584
11.562308,-9.345172999999999,3.5521238,-0.6740286999999999,-1.3212317,1.0054144
12.568046,-6.948529,3.4652812000000006,-0.6112143,-1.1413057,1.020843
12.129495,-5.4937260000000006,2.826221,-0.7171558000000001,-0.41840777,0.91066045
9.52403,-4.9217319999999996,1.714507,-0.87365943,0.38006290000000004,0.74616313
6.906592,-4.1619177,0.9506609,-0.73951346,0.6265383000000001,0.6562089
5.455504400000001,-3.2220304,0.5330068,-0.3573038,0.53497833,0.6689847
4.540182,-2.7028717999999996,-0.09012733,0.19045033,0.42264894,0.7094414000000001
3.9741545,-2.5234215,-0.92409486,0.53007394,0.26562166,0.71157074
3.4397879000000002,-2.5271375,-1.7363517,0.58915335,0.07291985,0.6317219000000001
4.190878,-2.9466493,-1.3038151000000002,0.34801865,0.01436406,0.44753733
5.3475456,-2.7767663,1.0283478000000001,-0.055466562999999997,0.17938495,0.2314132
6.605459,-2.8697476,1.7916291000000002,-0.42277109999999996,0.25497514,0.1600816
7.2936387,-2.8411417,1.6771575,-0.39721948,-0.028204521,0.25164157
7.5874553,-2.8672674,1.9761646000000002,0.20748474,-0.5025152,0.31019735
7.360360000000001,-3.048556,2.6144972,0.9575225,-0.99064887,0.07649778
7.480827000000001,-3.34062,3.1871614,1.4989063,-1.3526301,-0.42971750000000003
8.096528999999999,-3.8747761,2.8958251,1.7821033,-1.7103529,-0.9998292999999999
9.003616000000001,-4.6590014,1.198365,1.6969311999999999,-1.8514278000000002,-1.456041
10.087059,-5.4987535,-0.048429914000000004,1.2886289,-1.5362911,-1.7312618000000002
11.452866,-6.8483167,-1.0161854,0.7973013000000001,-0.90228283,-1.8632786
12.723276,-9.1186905,-1.0692027,0.502393,-0.21505947,-1.9809138
12.6234865,-10.892736,-0.42597637,0.50132835,0.24539329,-2.017112
11.975893,-11.098533,1.7585028000000003,0.6690022,0.45193556,-1.9793255
12.0519705,-10.057783,3.7342458,0.9793565999999999,0.35664058,-1.8819013
13.205363,-9.70279,3.6965517999999995,1.1827048999999998,0.09208357,-1.6982577
14.164672,-9.857858,2.793727,1.3642192,-0.3188542,-1.5034267
13.325179,-9.99312,1.4736791,1.4371564,-0.7521671,-1.2952787000000001
12.128097,-10.093475,0.6076196999999999,1.2923639999999998,-0.981067,-1.0733076000000001
10.819473,-10.23299,0.13339534,0.9814859,-0.99757785,-0.80075705
9.496371,-9.516923,0.8081676,0.6807133000000001,-0.9251640999999999,-0.6107081999999999
8.204096,-8.4957285,1.8298308999999997,0.32937855,-0.7452380999999999,-0.4249353
6.697789,-7.574611999999999,2.505896,-0.06026622,-0.48972192,-0.3083473
5.507459,-6.9631143,2.3509336,-0.47600365,-0.21184807,-0.14864969
4.4744377,-6.541226999999999,2.1107473,-0.7533539,-0.07450811,0.04935791
3.709653,-6.5130143,1.294267,-0.9998119000000001,0.13521066,0.22448425
2.993394,-6.3182983,0.8315829,-1.2138066,0.41786674,0.35650095
2.5519700000000003,-6.3067293,0.096218176,-1.3059077,0.73246235,0.44434336
2.2340967999999997,-6.1383023,-0.57409126,-1.3964031000000001,0.99862504,0.60723495
2.0435470000000002,-6.1130767,-0.7357191,-1.6114625,1.115213,0.868598
2.2760717999999995,-6.1380725,-0.56613296,-1.8547263999999999,1.079556,1.1890754
2.7597005,-6.297402,-0.50009125,-1.9478921999999999,0.871408,1.5201818
3.2992193999999997,-6.863371400000001,-0.4482233,-1.7833949,0.5216789000000001,1.9167554
3.7546446,-7.778981,-0.25543258,-1.2606514,-0.0031764992,2.4261997
4.035638,-8.407996,0.31347764,-0.48825586,-0.50357985,2.8217087000000003
4.4529953,-8.520274,0.78288484,0.072797686,-0.69893456,2.8435254
4.764586,-8.543699,1.3383683000000002,0.12070697,-0.34173545,2.321864
5.1305633,-9.127118,1.7848773,-0.25881487,0.5014331,1.5931016000000002
5.000635,-10.156825999999999,1.1555375,-0.6825459,1.4133153,1.0905864
4.976291000000001,-10.956049,0.477988,-0.8763124,1.983427,0.84358746
5.1964426,-11.703538,0.44435424,-0.91305155,2.1537712000000004,0.667379
5.8708982,-12.269279,1.1313176999999999,-0.86088365,1.9514875,0.5039638
6.524908,-12.816381,2.0948976999999998,-0.8662069,1.6379566,0.4118628
7.500574,-12.884713,3.1511526,-0.8848296,1.2376479,0.41188025
9.560326,-11.803806,3.6074010999999997,-0.9082519,0.9645736999999999,0.47628290000000006
11.838944,-9.714607,2.1565437000000003,-0.9055989999999999,0.8426624,0.5390973000000001
13.416205999999999,-7.3149567,0.48526640000000004,-0.92422163,0.8378802,0.5721015
12.47405,-5.500687999999999,-0.48810109999999995,-0.8954761,0.8325395000000001,0.6194696999999999
10.087797,-4.467236,-0.29132646,-0.8433082000000001,0.695217,0.6301336999999999
8.10421,-3.7701206,-0.023281218,-0.8513018,0.44607124,0.6168168
7.150359599999999,-3.3675787000000006,0.038728606,-0.77997017,0.12349949999999998,0.67804295
6.126245,-3.151507,-0.24103865,-0.4722861,-0.34866443,0.7951545999999999
5.3892426,-3.2657964,-0.5609615,-0.10018189999999999,-0.7319386999999999,0.8153829
4.802922,-3.3370671,-0.5154046,0.17074557,-0.90121824,0.70040065
4.708399,-3.4161906,-0.09627564,0.297439,-0.84372705,0.43156755
5.213269,-3.7377799,0.40030092,0.32192597,-0.6084392,0.13985324
5.842225599999999,-4.237086,0.75021833,0.46513024,-0.50675637,-0.10128146
6.403465,-4.8869677000000005,1.0436708000000001,0.7988896,-0.6478313,-0.39084902
7.261153999999999,-5.594962000000001,0.99858326,1.0879510000000001,-0.8144579000000001,-0.82630867
7.659951700000001,-6.5190187,0.83427393,1.3509197,-1.0507928999999998,-1.3069898000000002
7.8695207,-7.316891,1.6905457999999998,1.5366926,-1.2993976,-1.6918523
8.305763,-7.7170195999999995,2.6003137,1.6005716,-1.4165093,-2.0080535
9.496303999999999,-7.9723854,3.0639555,1.5047531,-1.3009859,-2.257182
10.677219000000001,-8.118125,2.988481,1.4488676999999999,-1.0987022,-2.3519533
12.107966000000001,-8.937852000000001,2.7045286,1.4478030000000002,-0.8362745,-2.289139
12.5795765,-9.875996,2.6342921,1.5255225000000001,-0.6291912,-2.1608397999999998
12.468561,-9.806306,3.18108,1.6431577000000002,-0.48493972,-2.0410752
12.604983,-9.367755,3.4409084,1.7815623,-0.5386959,-1.9452566999999998
13.041303,-9.564739999999999,3.1344314,1.8390534,-0.68029445,-1.8355801999999999
12.703700999999999,-10.215734,2.8444936000000003,1.8305362,-0.8644790000000001,-1.7056928
11.601861,-10.502692,2.5992314999999997,1.754946,-1.0348232,-1.5539888000000002
10.675123,-10.694133,2.153575,1.5909898,-1.1471525,-1.3634163000000001
9.600174,-10.743155999999999,2.0133417000000002,1.3573077,-1.1583226999999998,-1.1712381
8.053051,-10.368712,2.3959734,1.0160784,-1.0385581,-0.9753598
6.596657799999999,-9.563628999999999,2.6018364,0.57053065,-0.82669264,-0.78585196
5.5469823,-8.662423,2.666384,0.04724606,-0.6036395999999999,-0.6532941999999999
4.968495,-7.8877835,2.4267914,-0.37753215,-0.41839033,-0.52820647
4.50402,-7.421154,1.9398109000000001,-0.75974184,-0.27466246,-0.38659042
3.9356751000000005,-7.149344999999999,1.2083632,-1.1547273,-0.030857421,-0.25670302
3.3754604,-6.874672400000001,0.80704707,-1.4086378000000002,0.2517812,-0.12150982
2.8708777000000003,-6.658629400000001,0.38312015,-1.3245303999999998,0.5094267,0.019547688
2.5182787999999996,-6.558552000000001,0.00032561144,-1.1009537,0.7819773,0.3458719
2.4119667999999996,-6.538498000000001,-0.33261209999999997,-0.9513790000000001,0.94380426,0.84784603
2.6461964,-6.753467999999999,-0.7327885000000001,-0.98703605,0.9443453000000002,1.2870232
2.82013,-6.9256687,-0.9581404,-1.1621798,0.7974235,1.616524
3.4031565,-7.677601299999999,-0.91040957,-1.3655281000000001,0.48335147,1.9971453000000001
3.7415339999999997,-8.510085,-0.36661932,-1.3165542,0.094212875,2.4501455
3.9948212999999995,-8.914723,0.13920847,-0.89121747,-0.22197098,2.756765
4.1220493,-9.135805,0.79137945,-0.45205772,-0.39709732,2.7636939999999997
3.937466,-8.964369999999999,2.0720856,-0.27052602,-0.15224507,2.4043655
3.8471854,-9.204068,3.0300154999999998,-0.39721948,0.38753292,1.8656522
3.1408,-9.396687,2.6882193,-0.75441855,1.0779502,1.3636781
2.994811,-9.757339,1.7662889,-1.1041477,1.6283747,1.0283129999999998
4.5771203,-11.223241999999999,0.3553953,-1.2026366000000002,1.8444988999999998,0.83294094
6.209812,-12.318703999999999,-0.3972172,-1.0993655,1.4633539,0.8851088
6.6074314,-12.642553,-0.35855564,-1.0684905,0.9677676,1.0416125
7.711934599999999,-12.46612,1.115449,-1.057303,0.49878019999999995,1.1044268999999998
9.691499,-11.784749,2.4709790000000003,-0.96734875,0.25445154,1.0485414
11.8769455,-10.590406,2.1260128,-0.8709891,0.30129617,1.0203195
13.128460999999998,-8.883772,1.2552511999999998,-0.63783056,0.46525243,1.0256428
12.573216,-6.920306,0.32100500000000004,-0.34611624,0.55574775,0.87500334
10.641796000000001,-5.433756,-0.22584984,-0.21996385,0.5871462,0.6040409999999999
8.775056,-4.529092299999999,0.020628443,-0.046949357000000004,0.45354125,0.46724209999999994
7.0084796,-4.012615,0.5464526,0.34376004,0.06174975,0.3442662
5.3580894,-3.5738822999999997,0.47599605,0.7195818,-0.45619416,0.13665928
5.128016000000001,-3.2353134,0.15313315,0.92238903,-0.8112465,-0.11458086
5.875294,-2.8278587,0.57201314,0.9697747,-0.8543735999999998,-0.42971750000000003
6.6846204,-2.612371,1.5397973,0.95699894,-0.67657685,-0.7938281
7.0453887,-2.8360946,2.132343,0.90748394,-0.42371359999999997,-0.9806655999999999
7.8789343999999994,-3.056438,3.062318,0.8143357,-0.26614526,-1.0738313
9.085766,-3.2853712999999996,2.9784539,0.90483105,-0.35079372,-1.1930722
9.56157,-4.165145,2.2263203,1.2167736999999998,-0.6483549,-1.4847865
9.638127,-4.957692,2.6912742,1.6623213,-0.8618261,-1.8009878000000001
10.455182,-5.450812,2.7941675,2.2718427000000005,-1.5937649,-2.0192413
11.250536,-5.793748,2.4669664,2.1967762000000004,-2.2847232999999996,-1.6609775000000002
11.735859,-6.417648000000001,1.8979602999999998,1.2636184,-2.1383424,-1.1520743
12.362929,-7.1861005,1.9439578000000002,0.24740042,-1.4825176000000002,-0.99770004
12.681483,-8.718428,1.8977974999999998,-0.3051359,-0.58075833,-1.135581
12.069219,-9.764063,1.6567779999999999,-0.2881015,0.06867871,-1.3421233
11.496228,-10.065109,1.4376223,0.038728856,0.48973940000000005,-1.467211
10.883303999999999,-9.280338,2.0838556,0.52208036,0.54349554,-1.4959566999999998
10.963529,-9.456714,2.2648667999999996,0.9644514999999999,0.34653512,-1.4682757
10.469682,-11.007178999999999,2.2797970000000003,1.3200448999999999,-0.043109633,-1.4475236999999999
8.645558,-12.790285,0.8288534,1.5654382,-0.42051962,-1.4113256
6.570867,-13.182829000000002,-1.7185101999999999,1.6500866,-0.73565626,-1.2899553999999998
7.060539200000001,-12.009910000000001,-2.8828007999999996,1.5430803999999998,-0.9491275,-1.0951242
8.809772,-10.270282,-0.40493613,1.3045987,-0.96190333,-0.85983646
8.966841,-8.845224,1.9771892,0.93038267,-0.8069879,-0.58622116
7.740023,-7.6194224,4.1948620000000005,0.5503023,-0.53497833,-0.37648496
6.1718206,-6.789697,4.738163500000001,0.0983493,-0.20013689999999998,-0.22956316
5.0283313,-6.4183664,4.623941,-0.38072613,0.08888962,-0.07038913
4.390333999999999,-6.39927,3.6681947999999998,-0.90292865,0.27893853,0.19308577
4.0938935,-6.4366389999999996,2.9241247,-1.2723625,0.40989056,0.46883035
3.5080227999999996,-6.5266128,2.215393,-1.4820986999999999,0.62334436,0.7679971999999999
2.7852514,-6.639868300000001,1.3218865,-1.4895512,0.88259554,0.99211496
2.33314,-6.7459407,0.49372268,-1.4528295,1.0721034,1.1512716
2.094802,-6.734899,-0.0073262574,-1.6066629,1.0566572,1.3290681999999998
2.0351481,-6.401644999999999,-0.33236307,-1.7977763,0.83733916,1.5015416000000001
2.3301327,-6.314132,-0.3908678,-1.8877307,0.42905429999999994,1.7799566000000002
3.1724417000000003,-7.137757000000001,-0.6252889,-1.6817293999999998,-0.10060078,2.2920537
3.5720437000000005,-8.362583,-0.769506,-1.2484165,-0.4513945,2.7365367000000003
3.754089,-9.377265,-0.46421656,-0.7703883,-0.5461484000000001,2.7439892
3.6851647000000005,-9.324237,0.6240918000000001,-0.56011105,-0.27520353,2.3655145
3.9637062999999997,-9.469939,1.6614227,-0.6117554000000001,0.33056536,1.8534175
4.8108606,-9.834461,2.3064972999999998,-0.7703883,0.97042054,1.390818
5.305695,-10.251483,1.7386693,-0.8433082000000001,1.4032098,0.9990264999999999
5.826242,-11.177503,0.5270404000000001,-0.80871576,1.4633713,0.66313785
6.395085,-11.781378,0.2422166,-0.81349796,1.4420608,0.48212975
6.9294705,-12.646134,0.56964767,-0.7804938,1.4159856000000002,0.46085417
7.351377,-13.1122,1.7980167,-0.7618710999999999,1.4010805,0.56199604
9.717653,-12.321597,2.8448,-0.7080975,1.2967447,0.6785666
12.001463000000001,-10.271824,2.5537033,-0.66018826,1.0886142,0.7147647
13.111788,-8.159842,1.8088959999999998,-0.6942571,0.8485267,0.61575216
12.702945,-6.3094683,0.9446179,-0.89441144,0.6324026,0.46617743
11.147834,-4.753659,0.5458014,-1.0152581,0.40137336,0.4001691
9.591833,-3.6046047,0.7069024,-0.87365943,0.11658800000000001,0.5124985
8.067694,-3.0091572,0.5492585999999999,-0.6106906999999999,-0.16980308,0.68336624
6.4709907,-3.1244812,0.4573021,-0.2401922,-0.44767696,0.8159065
5.319083,-3.3862057,0.7174273,0.13402383,-0.72075117,0.8595572
4.529245400000001,-3.7047496,0.8143734,0.37569958,-0.9363517,0.720629
4.6269574,-4.0047045,0.91926813,0.46832418,-0.97200876,0.42624432
5.2389345,-4.2293954000000005,0.77698547,0.48694685,-0.73565626,0.07225663
6.105272,-4.2451973,0.27158865,0.5290093000000001,-0.34599406,-0.25670302
6.4528813,-4.7241144,-0.12689269,0.7653618000000001,-0.130411,-0.5430941
6.348063,-5.5481124,0.89709777,1.1608708,-0.3071256,-0.7980866999999999
6.2246275,-6.4316974,2.0488427,1.370607,-0.53976053,-1.1616563
6.847339999999999,-7.1036057,2.7254155,1.4579084,-0.80805254,-1.5119264
8.000138,-7.651514,3.0137637,1.5068823,-1.0523987,-1.8499618000000002
9.637916,-8.213232000000001,2.8171612999999995,1.4611024,-1.1029608,-2.1187772999999996
11.091925,-8.192278,2.3405237000000003,1.2774588,-0.8916189,-2.3636470000000003
12.203936,-8.4097395,2.3462315,1.063464,-0.48174578,-2.5100453
12.66457,-8.777498,2.522799,1.0262011999999998,-0.19587829999999998,-2.532944
12.683810000000001,-9.190431,2.7884982000000003,1.144901,-0.081437066,-2.5100453
12.018510000000001,-8.975594000000001,3.2546873,1.3945705,-0.12507029,-2.470112
11.742898,-8.654571,2.8539555,1.6985195,-0.18203785,-2.412621
11.849584,-9.195832000000001,1.8091834,1.9056028000000003,-0.09686577,-2.2774103
11.608144,-10.017081,1.6482546000000002,1.9875808999999998,-0.06492624400000001,-1.9681380000000002
11.48577,-11.025193,1.7613566999999999,1.7118363,-0.29489082,-1.3618106
10.9685755,-11.416319999999999,1.9613779999999998,1.1949396,-0.65154886,-0.5872858
10.243046000000001,-11.527602,1.9520788,0.71745247,-1.0683508999999998,0.08077384
8.942458,-11.048656,2.4112103,0.41296235,-1.386158,0.32084388
7.5414095,-10.456485,2.85521,0.19523253,-1.4681361000000002,0.26974064
6.368835,-9.679049000000001,3.0517453999999997,-0.021938787999999997,-1.3025742,0.090355694
5.0830145,-8.747581,3.0187150000000003,-0.3471809,-0.9996896999999999,0.039252456
3.5334778,-7.9793286,2.5455728,-0.6591236,-0.6914819999999999,0.23727751
1.4016615,-7.564471000000001,0.9939959,-0.8108451,-0.33908257,0.44062582
-0.8117493,-7.4647570000000005,-0.6970574,-0.8965407,0.12508775,0.49864057
-2.5642092,-7.3617296,-2.8038208,-0.9183747999999999,0.62707937,0.3671649
-2.4761598,-7.1965394,-3.3066894999999996,-0.91996306,0.93423986,0.38578758
-0.42978793,-6.854216,-2.4774717999999996,-1.0216459,1.0651919,0.72221726
2.3955328,-6.4589243,-0.9198427,-1.0040705,0.98586667,1.1188083999999998
4.574266000000001,-6.759013,0.28279352,-0.785817,0.7702661999999999,1.3743246
6.305312000000001,-8.310197,0.8688654,-0.57236326,0.44928265,1.5750026000000001
6.595364599999999,-10.319555000000001,0.93015695,-0.49090877,0.0069289569999999995,1.7996438999999997
6.4272339999999994,-10.997889500000001,1.7447122,-0.5920506,-0.2544341,1.9785053
6.569957700000001,-10.29273,2.8045106,-0.91518086,-0.19854866,1.885357
7.3086267000000005,-9.948808999999999,3.1752860000000003,-1.2425523,0.15704472,1.5281753999999999
7.6535444,-10.424623,3.0338845,-1.5001978,0.7186393,1.1582005
6.332836,-10.627182000000001,2.2818084,-1.5326784,1.3169731000000002,0.9575051
4.421908999999999,-10.112686,1.5728852,-1.2766211,1.6981181,0.9069429
3.9275537000000003,-8.678942999999999,1.8605534,-0.9716073000000001,1.8679211,0.83880526
4.9831285,-8.66859,1.8731658,-0.7490953,1.7561502,0.6578146
5.966322,-9.380377000000001,0.7465791,-0.6857399000000001,1.4372786,0.47308895
7.172875,-9.589898,-0.21977814,-0.76293576,1.0657153999999998,0.48853509999999994
8.577228,-9.436132,-0.85908747,-0.66818184,0.6595599,0.5806187
10.488576,-8.645405,-0.6911773,-0.5297772,0.3768864,0.6578146
11.091225999999999,-7.334895599999999,0.24960989,-0.42970005,0.28106782,0.71157074
9.812205,-6.095436599999999,1.2027799,-0.43715262,0.20867157,0.75895643
8.199518,-5.1091690000000005,2.2960107000000005,-0.570234,0.14905111,0.766409
7.151221799999999,-4.2267623,2.623049,-0.740037,0.042586032,0.70359457
6.8545419999999995,-3.49179,1.9982103,-0.8007221,-0.12826425,0.63812727
6.853211,-3.0878499,0.9168165,-0.78794634,-0.33695325,0.6210753999999999
6.125737,-3.1612560000000003,-0.46216709999999994,-0.75281286,-0.5040859999999999,0.56306064
5.289117299999999,-3.4411192,-0.7623713000000001,-0.6735051,-0.5434781,0.39645153
5.3356794999999995,-3.5945584999999998,-0.06454767,-0.54307663,-0.42051962,0.21704915
5.97814,-4.061562,0.07359777,-0.22102849,-0.17085028,0.12175417
6.6229744,-4.381561799999999,0.014777013,0.26497588,-0.052674035999999994,0.03338815
7.064628599999999,-4.719076599999999,-0.5626278,0.7605621,-0.12986995,-0.27321383
7.554013,-5.082105,-0.8653124,1.0081022,-0.24378759,-0.78211695
8.129933,-5.562841400000001,-0.49792692,1.127343,-0.48385763,-1.2819618
8.671472999999999,-6.6888633,0.19382499,1.1699291,-0.7542964,-1.5965748
9.207735000000001,-7.63395,0.90059334,1.1901574,-0.9081296999999998,-1.8616728999999999
9.990898,-8.174341,1.7245052,1.1502243,-0.7819773,-2.0580924
10.869427,-8.82657,2.7396178,1.1459656999999999,-0.48387507,-2.1118658
11.5140505,-9.976744,3.4836497000000004,1.2694652,-0.22675318,-2.0522454
11.568696000000001,-10.171516,4.338926,1.4989063,-0.07930776,-1.9372631
11.6679125,-9.356137,4.685041,1.7773037,-0.08674286,-1.7898003
12.75758,-9.077069999999999,3.6652641000000004,2.026432,-0.26401594,-1.6215853999999998
13.240807,-9.601859,2.5648317000000005,2.1515372000000004,-0.43168974,-1.4411358
12.549103,-10.385309,1.8642404,2.069559,-0.5557303000000001,-1.314966
11.429813000000001,-10.806096,1.9362484,1.8443767,-0.5945813,-1.265992
10.590627,-10.989567999999998,2.313632,1.5276518,-0.6137625,-1.1286521
9.37013,-10.829798,2.6596708,1.1395779,-0.66006607,-0.89177597
7.684765299999999,-10.147986,3.101899,0.80101883,-0.7095636,-0.67830473
6.258338,-9.209919000000001,3.3980330000000003,0.49652870000000005,-0.687747,-0.58939767
5.106918299999999,-8.37781,3.3423536,0.096761055,-0.58499944,-0.52073646
4.243828,-7.680216000000001,2.7420027,-0.35198054,-0.46736425,-0.3690324
3.5726757000000005,-7.124962299999999,1.9527971999999998,-0.7432310000000001,-0.3300243,-0.17418386
3.2568135,-6.6844196,0.7401052,-0.965743,-0.09951867,-0.052813664
3.1308784,-6.0896235,-0.29382600000000003,-1.0445271999999999,0.26989773,-0.029408797999999996
3.0164452,-5.8553934000000005,-0.7804426999999999,-1.0317514,0.7122514,-0.017697638
2.4344912,-6.0489597,-1.4450635,-1.1201173999999998,0.97522014,0.24260077
2.3065738999999996,-6.340334400000001,-1.6409571,-1.2372290000000001,0.99918354,0.64610344
2.7966957000000003,-6.537300599999999,-1.4414052,-1.1722853000000002,0.6994756,1.1220024
3.7570580000000002,-7.131378999999999,-1.3474184,-0.8901528000000001,0.21240658,1.4451326
4.4759407,-8.50838,-1.7150433,-0.570234,-0.3821922,1.7405645
5.117501,-9.837469,-1.3776811000000002,-0.38976693,-0.7910181,1.9263548
5.884938,-10.431316,-0.33835816,-0.45045203,-0.64142597,1.7730276999999999
6.17095,-9.980345,0.8176678000000001,-0.8071100999999999,-0.016475908,1.3966823
