accx,accy,accz,gyrx,gyry,gyrz
5.272185299999999,-10.037939,-2.7747072999999998,0.018221237,0.87460196,2.1721146
5.5614047,-9.996041,-2.5085487,-0.15371114,1.2424475,2.029975
5.5176773,-9.629814,-1.1925709999999998,-0.27454029999999996,1.3361193,1.9623784
6.455103,-9.535885,0.33182678,-0.3501305,1.182286,1.921398
8.380616,-9.279025,0.43609905,-0.44169047,0.92996377,1.8516546000000003
10.445107,-8.899008,-0.7869166,-0.49120545,0.66645396,1.7409310000000002
11.444025,-8.826406500000001,-2.6110685,-0.49120545,0.35718164,1.5785631000000002
11.076526,-8.316298,-3.7746887000000005,-0.43849653,0.04363323,1.472098
10.914686,-7.3205304,-4.0886264,-0.36184165,-0.19854866,1.3917255
10.795752,-6.039728,-3.3199341,-0.31127948,-0.3236364,1.2863251
10.075126,-5.1005306,-2.546693,-0.17500417,-0.46204102,1.1425972
8.903289,-4.7677846,-2.2171936000000003,0.056007615999999996,-0.63666123,0.9674535
8.1353445,-4.6044426,-2.3377562000000003,0.2817136,-0.7692015,0.6730862
8.102514,-4.448637000000001,-2.6068257999999997,0.38924333,-0.6398377,0.21155135
8.344272,-4.214762,-2.596828,0.31100023,-0.16500343,-0.3431143
8.853241,-4.0314527,-2.3006077,0.23434536,0.18470820000000002,-0.810496
9.280002,-4.135332,-2.0066953,0.3652974,-0.01701696,-1.1431906
9.713535,-4.519956,-1.6720722,0.65222955,-0.65102524,-1.3593148000000002
10.566244000000001,-4.792885299999999,-1.6179249,0.7895694999999999,-1.129577,-1.6685870999999999
11.662722,-4.9762716,-1.3712168,0.7709294,-1.1876093,-2.0518615000000002
12.6252,-5.0984050000000005,-0.9680810999999999,0.7054621,-1.1040254999999999,-2.4191658
13.777175,-5.1206994,-0.75103235,0.6697875,-1.0662391000000002,-2.681611
15.262959,-4.894543,-1.0030077,0.6580764,-1.07528,-2.8200157000000003
16.650589,-4.6171417,-1.4300375,0.6069732,-1.1519347,-2.879095
16.821861,-4.856351,-1.9941689999999999,0.44568726,-1.1987793,-2.9152932000000003
15.634539000000002,-5.9778814,-2.0369198,0.14439109,-1.068892,-2.9392567
14.523620000000001,-7.4828567999999995,-1.5770128,-0.18085101,-0.7058460999999999,-2.9179635
14.002153,-8.297211,-1.5686427,-0.37994072,-0.19216076,-2.8306622999999997
14.247329,-8.433825,-1.8070285,-0.37355283,0.22622958,-2.7327144
14.140778,-8.458255,-1.7439653000000002,-0.16753416,0.44183009999999995,-2.5943098
13.027598,-8.651753999999999,-1.4709879,-0.01956514,0.56639427,-2.4846506
11.767712,-9.170214,-1.264943,0.08848819,0.52061427,-2.4457996
10.901634,-10.013797,-1.3083162,0.21144664,0.32417744,-2.3606277
10.414518,-10.530149,-1.5940595,0.30194196,0.15330972,-2.1748374
10.022703,-10.54143,-2.0046842000000002,0.24286257,0.122958444,-1.9699006999999997
9.259183,-10.112611,-1.8546636000000003,0.08422959,0.21664771,-1.7569706000000003
8.193609,-9.519748,-1.1323903999999998,-0.09993755,0.31407198,-1.4476808
7.235785000000001,-9.153531,-0.24640165,-0.31499702,0.30449015,-0.9898809000000001
6.3069115,-8.717959,0.6064034,-0.5891359,0.19163716,-0.37823029999999996
5.5246205,-8.395239,0.8439274,-0.7882256,0.08836602,0.23551473
5.2950068,-8.084951,0.18625931,-0.81698865,0.006387905,0.8758935
5.030448000000001,-7.982709,-0.24598029999999999,-0.63065726,-0.12508775,1.4587985
4.282135500000001,-8.000579,-0.37254736,-0.32086134,-0.29063222,1.9538612000000002
3.6402016,-7.9669550000000005,-0.74994063,-0.10951941,-0.43277183,2.2029896
3.4124556000000004,-8.1033,-1.5112393,-0.07384488,-0.5669004,2.3174481
2.8884606,-8.344213499999999,-1.8621333999999998,0.009180431999999999,-0.75961965,2.446271
2.003602,-8.6556425,-2.2099822000000002,0.22795746,-0.9709440999999999,2.5468717
1.2128739,-9.127999,-2.6735474999999997,0.58407444,-1.1194716999999998,2.6171386
0.59437495,-9.519652,-2.9269689999999997,0.8614246999999999,-1.0939026,2.5495419999999998
0.7104363,-9.953559,-2.3795874,0.98598886,-0.90654147,2.3983617
1.5159415,-10.1459,-1.605839,0.9396853000000001,-0.5477541,2.3004138
2.4606453999999998,-9.968958,-0.901733,0.75975925,-0.02979277,2.2056598999999997
3.977861,-9.50656,-0.9358072000000001,0.45153412,0.648896,2.065126
6.0187935999999995,-9.26942,-2.024125,0.15184364,1.2147666000000001,1.9112751000000001
6.9993143,-9.313339,-2.6793225,-0.015289084,1.4197031,1.7648944
7.257084,-9.025298,-2.1310694,-0.11856022,1.3387897,1.6509768
7.835466,-9.113576,-1.4759582,-0.29742154,1.1881503,1.557811
8.82948,-9.001222,-1.0619242,-0.48692942,1.0364288000000001,1.5242833
10.289330999999999,-8.88471,-1.7027657999999999,-0.5172806999999999,0.84159774,1.5173543999999999
11.149396000000001,-8.752061999999999,-2.465386,-0.40762165,0.532849,1.4742447
11.165379,-8.108424000000001,-2.9941983,-0.28890434,0.12721705,1.3975898000000002
10.989328,-6.9046383,-3.2006740000000002,-0.37301177,-0.15755087,1.335299
10.522881,-5.6548553,-3.3573892,-0.51940995,-0.40454987,1.2932540000000001
9.5437765,-4.7189426,-3.121905,-0.59180623,-0.59779274,1.2634438000000001
8.622247999999999,-4.1092830000000005,-2.8670566,-0.5843537,-0.7649429,1.1537848
7.955147,-3.7075744,-3.1664467,-0.47521824,-0.74736744,0.87749916
7.328411999999999,-3.3904004,-3.2830157,-0.33574899999999996,-0.525379,0.40959388
6.9443727,-3.2667349999999997,-2.8854917999999996,-0.09780825,-0.17671458,-0.14187782
7.0070429999999995,-3.1837137,-2.1097322,0.15184364,0.30607840000000003,-0.6790029000000001
7.393294999999999,-3.1849682,-1.7525651000000002,0.22476350000000003,0.6883055,-1.0447017
7.935668,-3.3718307000000003,-2.2421126,0.13107422,0.7910356,-1.3374807
8.761121000000001,-3.9986043,-3.0193279,0.043772858,0.68350583,-1.6041845
9.831809,-4.497201400000001,-2.7937174,0.12042772,0.4423537,-1.8218968
11.056280000000001,-4.956591,-2.3659307999999997,0.32590532,0.18205529999999998,-1.989047
12.68223,-5.193732,-1.6642192999999998,0.51221925,-0.02979277,-2.1716433
14.651288000000001,-5.2870393,-1.1311837,0.6426476999999999,-0.17139134,-2.3717978
16.433504,-5.847540400000001,-0.9635703999999999,0.76454145,-0.25389305,-2.5543766
17.2976,-6.261489,-0.6722918000000001,0.8869763,-0.34812337,-2.6289022
16.748781,-6.6369185,-1.2376777,0.9135926,-0.43329543,-2.5586352000000003
15.142060999999998,-7.0237064,-2.7592695,0.7097207,-0.44127159999999993,-2.3691272999999997
14.454514000000001,-7.847724,-3.9578067999999997,0.28225464,-0.33695325,-2.1322513
13.525113000000001,-8.372878,-3.7954035000000004,-0.09780825,-0.20172516,-1.9645599999999999
12.870625,-8.98611,-2.9365075000000003,-0.17179276,-0.06386159,-1.8751293000000002
12.16718,-9.160541,-2.2755067,0.011309733999999998,0.019163715,-1.8160498999999999
11.42198,-8.824137,-2.108516,0.29981264,0.05003859,-1.7484534
10.547272999999999,-8.5284815,-1.7478822,0.46910959999999996,0.023422317999999998,-1.6648695
9.673312,-8.844411000000001,-1.4583178999999997,0.5468291000000001,-0.07930776,-1.5637277
8.772642,-9.497558999999999,-1.5529749,0.57663935,-0.22621213,-1.4721677
7.7690410000000005,-9.74892,-2.1831672,0.5276654000000001,-0.3337593,-1.33961
6.6878004,-9.267888000000001,-2.9948688,0.29344222,-0.3236364,-1.1623544
5.9959050000000005,-8.348198,-3.0801307999999996,-0.05841617,-0.29382620000000004,-0.9185493
5.7049136,-7.437578,-1.6423265999999999,-0.41027454,-0.22355922,-0.63268185
5.5053325,-6.925037,-0.053429004,-0.78929025,-0.06970845,-0.26270697
5.1121473,-6.686449499999999,0.96585923,-1.0613172,0.11657054,0.17111208
4.6211348,-6.4330573,0.8218719999999999,-1.1539419,0.3247185,0.6150715
4.344145,-6.1996894000000005,0.03308787,-1.0107377,0.40936697,1.045714
4.128418,-6.085083999999999,-0.56966674,-0.66153216,0.2555162,1.4774386999999998
3.930858,-6.0768285,-1.0032759,-0.27080529999999997,-0.017558011999999998,1.8170623
3.6693919000000004,-6.221783,-1.7251468999999997,0.026738444,-0.36993998,2.062473
3.573164,-6.758878999999999,-2.6344168,0.24605651,-0.72394514,2.2636745
3.6650437999999994,-7.5492916,-3.097082,0.43504077,-0.91610587,2.3648164
3.4834006,-8.314210000000001,-3.1791072,0.6474299,-0.9336813,2.2817736
3.5117671,-9.225375999999999,-2.9856749,0.84918994,-0.82773983,2.0188048
3.9133129999999996,-10.171363000000001,-2.2414994,0.9636312,-0.63077945,1.6727933999999998
4.225833000000001,-10.630054,-1.2547628,0.87261224,-0.2693392,1.4944731000000002
4.3410807,-10.764225999999999,-0.45493662,0.5633225000000001,0.31833062,1.4875616000000003
4.587348,-10.53147,-0.07156747599999999,0.08370599,0.99492496,1.4880852
5.8770857,-10.729002000000001,-0.81644195,-0.36768850000000003,1.4585716999999998,1.4321823
6.9777575,-10.720536,-1.8287200000000001,-0.6791076,1.5602546,1.3283875
7.4641633,-9.679642999999999,-2.0311067,-0.8419992000000001,1.3526477,1.2038233999999999
8.325435,-8.344731,-1.7817074000000002,-1.0027615,1.1354587999999999,1.1351447000000001
9.687667999999999,-7.450698399999999,-1.6375766,-1.1555301000000002,0.95179784,1.1702781999999998
10.822242,-6.8843255,-1.9432776999999999,-1.228991,0.7516435,1.1985002
10.906057,-6.730321400000001,-2.5560498,-1.2678596000000002,0.55415946,1.1601727
9.905847,-6.9005775,-3.6847913,-1.3461026000000003,0.34442326,1.1133281000000002
9.020269,-6.477886,-4.458406,-1.355161,0.10007718,1.1122633999999998
8.481048,-5.578997599999999,-4.765553,-1.3184216999999998,-0.13199925,1.1511145
7.7542353,-4.637281400000001,-4.707853,-1.2061098,-0.34386477,1.1793364
6.9905424,-3.9349854,-4.114703700000001,-1.0458710999999998,-0.48546332,1.1575024
6.3146496,-3.5269177000000003,-3.7319953000000003,-0.8403934999999999,-0.5493424,1.0643542
5.5870996,-3.4902864,-3.6359019999999997,-0.66313785,-0.47055823,0.8487710999999999
5.382319,-3.6997885999999998,-3.2796635999999997,-0.61735785,-0.14636332,0.53256977
6.006583,-3.6812959000000003,-2.7166912999999995,-0.5944590999999999,0.26083946,0.17908823
6.6726213,-3.7976252999999995,-2.70608,-0.37939966,0.45247662,-0.13177235
7.006545,-4.127345,-2.5689402,-0.04244641,0.35718164,-0.33138567
7.3010225,-4.5518947,-2.1433754,0.30195943,0.0026703537,-0.42346925
7.930161,-5.042763,-1.6987531000000002,0.5489584,-0.17350318,-0.66088635
8.995763,-5.431706,-1.2353793,0.75495964,-0.023404865,-1.0697298000000002
10.3061,-5.723435,-0.8904036,1.1206758999999997,0.045238934,-1.5254003
11.861421,-5.801505000000001,-0.7365809,1.619456,-0.20493656,-1.8857758999999998
13.399581,-5.875572,-1.0133985,2.0234997,-0.5748939999999999,-2.141292
14.431866000000001,-5.9516215,-1.2570038000000001,2.1171892000000003,-0.82986915,-2.295143
14.355184,-6.32776,-0.8716905999999999,1.8776426,-0.88577205,-2.42236
13.993554000000001,-7.3369546,-0.3583737,1.4911745,-0.8511622,-2.42236
13.574041000000001,-8.612105999999999,-0.5958785,1.0567969,-0.72713906,-2.2615976000000004
13.223118,-8.593595,-0.5834861,0.7203672,-0.4822519,-2.0614433
13.664753,-7.228315400000001,-0.24111527,0.5180835,-0.14104006,-1.9076098999999997
13.355766000000001,-6.2664304,0.36243427,0.46591565,0.13521066,-1.8841877
12.215447,-6.3776364,1.0887681,0.4754975,0.3162013,-1.918239
10.898464,-6.8648562,0.7595557,0.42652357,0.43545964,-1.9219741000000001
10.131141,-7.7085056,-0.4741956,0.27693140000000005,0.5956809000000001,-1.8889699
9.850722,-8.240929,-1.9823607,0.07784168400000001,0.68724084,-1.8650064
9.298362,-8.628617,-3.1844892999999996,-0.03551745,0.61165065,-1.8346726999999998
8.151117,-8.679843,-3.359285,-0.101525806,0.49240974,-1.7617528000000002
6.881883599999999,-8.328394,-2.8316128,-0.20266764,0.41310197,-1.6350418
6.355619,-7.674834,-1.8933539000000001,-0.34320155,0.37316886,-1.3773963
6.446301999999999,-7.025852,-0.99521214,-0.5321858,0.41575488,-1.0260617
6.8189545,-6.520752,-0.56459105,-0.63704515,0.36252233,-0.55974454
6.8665032,-6.38592,-0.81085867,-0.59606487,0.115523346,-0.02422517
6.746428999999999,-6.463913400000001,-1.5939253999999998,-0.4528606,-0.26666886,0.51340604
6.789688000000001,-6.5209627,-2.3293955000000004,-0.31232667,-0.5759411999999999,1.0143155000000001
6.562392,-6.7853875,-2.5773964,-0.24047147,-0.7825009,1.4050424
6.3265247,-7.164936,-2.5339272,-0.18669787,-0.9464396999999999,1.6754637
5.979011,-7.8122324999999995,-2.677225,-0.097267196,-1.0066012,1.8085451000000001
5.410790400000001,-8.568963,-2.8955476000000004,0.047507863,-0.96188587,1.7963103
4.6738167,-9.352355000000001,-3.0976949,0.31419417,-0.9081123,1.6909098999999999
3.9128629999999998,-9.789354,-3.2027330000000003,0.6681993,-0.93101096,1.5711278999999998
3.0191746,-10.085142999999999,-2.9185033,0.85131925,-0.8080351,1.5493113
2.5940312999999997,-10.101194,-2.5799822999999997,0.6208136,-0.42530182,1.663229
2.764259,-10.122886,-2.4734595,0.15662585,0.053249995999999994,1.7797995
3.9384427000000004,-10.454434,-2.6388697999999997,-0.33255503,0.500927,1.8074805
5.6543765,-10.723802000000001,-3.08626,-0.63226295,0.72982687,1.7159204
6.6296786999999995,-10.154318,-2.8456619,-0.7855727,0.7069456000000001,1.5844448
7.421028999999999,-9.076936,-2.136959,-0.88723814,0.5216964,1.5178953000000002
8.076926,-8.297892,-1.6229719,-1.0272484,0.2981197,1.4811736
8.482761,-7.851564,-1.2227187,-1.2013102,0.14587462,1.4657274
8.376163,-7.8170686,-1.3229401,-1.3109691,-0.016458455,1.5003374
7.900952,-7.7440743,-3.1731217000000003,-1.3120338,-0.17617354,1.5205657
7.4240556,-7.001699400000001,-4.697778,-1.2252735000000001,-0.29541442,1.4699861
7.1993933000000006,-5.7302823,-5.239308,-1.0937803999999998,-0.3683343,1.3566095
7.1490192,-4.6006694,-4.7679763,-0.92556554,-0.387498,1.2064937
6.993616,-3.8397824999999997,-3.9292777,-0.763215,-0.30393162,1.0585073
6.4715276,-3.5238339999999995,-3.5985042999999997,-0.57316613,-0.17882644,0.91158545
6.1129620000000005,-3.6014826,-3.626143,-0.43050292,0.089448124,0.6246708000000001
6.2171864999999995,-3.698601,-3.6203298999999998,-0.3671649,0.5488536999999999,0.19507545
6.4449806,-3.937734,-3.35782,-0.3373547,0.9720437,-0.17486453
6.855327000000001,-4.4217075999999995,-2.6211432999999995,-0.2202431,1.0934138,-0.33882076
7.8442664,-4.7214904,-1.9694415,-0.024347342999999997,0.9193522,-0.3957883
8.983495,-4.729305,-1.525863,0.24233897,0.48975685,-0.35798448
9.951614,-4.7757144,-1.0785017,0.55428165,0.042603485,-0.46232027
10.821456,-4.894754,-0.8590204,0.8939053,-0.19905479999999998,-0.7279594
11.461675999999999,-4.941891,-0.75900984,1.2138242,-0.25441664,-0.979217
12.55074,-4.9780145,-0.7995293000000001,1.5097971000000001,-0.33691835,-1.1884122
13.916872,-4.591092,-1.0860865,1.7030398999999998,-0.48596948,-1.3928251
14.494926999999999,-4.716932,-1.4112383,1.696652,-0.6142685999999999,-1.607361
13.572365,-5.770189,-1.777666,1.425166,-0.70954615,-1.7675822
12.307730000000001,-6.721894,-1.9242678,0.9535256999999999,-0.7292509,-1.7798343999999997
11.483989999999999,-7.660344,-2.1402533,0.52073646,-0.70689327,-1.6568585999999998
10.935124,-7.846747,-1.8701396000000001,0.27747244,-0.6126629,-1.4737386000000001
11.551238,-7.0862145000000005,-1.3398623,0.20401153,-0.43434262,-1.3640795000000001
11.532161,-6.290248,-0.6730484,0.25937337,-0.28529152,-1.3342693
10.882863,-6.0547447,-0.6424505,0.37700856,-0.24589944,-1.3385278999999999
10.022061,-5.90888,-1.1922262,0.5808979000000001,-0.2964616,-1.3496981000000001
9.7789545,-5.8945723,-2.103105,0.79063416,-0.39973277,-1.3475861999999998
9.457633,-6.151575599999999,-3.5166705,0.9258448,-0.5434606,-1.350239
8.684660000000001,-6.4406323,-4.5537715,0.9513964,-0.6419321,-1.3385278999999999
7.4603705,-6.773167999999999,-4.708351,0.83587307,-0.56953585,-1.3284049999999998
6.369889,-6.931999,-3.7205703000000003,0.592068,-0.34969416,-1.2842307
6.031482,-6.8071465,-2.0215009999999998,0.26895523,-0.040404372,-1.1543434
6.2518353,-6.5264406,-0.88770294,-0.15262905,0.30984829999999997,-0.92916095
6.226562,-6.375989,-0.31559408,-0.5603903,0.5270371,-0.5980545
6.120833999999999,-6.2962812999999995,-0.058973975,-0.80951864,0.4966858,-0.22703242
5.796918,-6.3377967,0.23692062,-0.78929025,0.3188891,0.15622441
5.5212975,-6.476746599999999,-0.18915151,-0.6093643,0.21774727,0.49265410000000004
5.5776567,-6.698526400000001,-0.9387186,-0.39536944,0.2731091,0.7204894000000001
5.643373,-6.878848,-1.7288914,-0.23354250000000001,0.39289108,0.93554884
5.8622312999999995,-7.224378999999999,-2.5841768,-0.19947368,0.43758896,1.0925761
5.8519745,-7.7387586,-3.2460202999999996,-0.16114625,0.37212166,1.1538023000000002
5.571106400000001,-8.434936,-3.9321122,-0.09407324,0.22732913,1.2001233
5.275911,-9.405286,-4.675885,-0.053092916,0.0042935097999999994,1.2490972
4.8514857000000005,-10.230825999999999,-4.754032,-0.16275196,-0.18519689,1.3326637
4.507429599999999,-10.710988,-4.0742993,-0.48692942,-0.18572049,1.4545748
4.616519,-10.849708,-2.7736347,-0.8739213,0.023998277000000002,1.5413526000000002
5.257447,-10.638185499999999,-2.1655843,-1.2018511,0.49616220000000005,1.5227125
6.261248999999999,-10.676789,-2.2074637000000004,-1.2667948999999998,0.9896366,1.4375403999999998
6.176054,-10.159412,-2.8164527,-1.0405478000000001,1.137082,1.3529094
5.7181582,-8.695061,-3.1424279999999998,-0.8031307,1.027423,1.300724
5.3373175,-7.6417556,-3.1253622,-0.7711912,0.8272686,1.2735842
5.1468344,-7.096767999999999,-3.2453501,-0.8765915999999999,0.60582125,1.2693256000000002
5.259228,-6.93312,-3.7823309999999997,-0.9793390999999999,0.47380453,1.2592027
5.9168577,-7.3496633000000005,-4.781843,-1.0171255,0.38437387,1.265067
6.754924000000001,-7.496417999999999,-5.2175403,-0.98998564,0.25448647,1.2938125
7.5887194000000004,-6.874069,-4.4121879999999996,-0.960699,0.15388568,1.3151056
7.783712400000001,-6.0582404,-2.7839584,-0.91278976,0.050614547,1.3417219
7.2751174,-5.368806,-1.1668763999999998,-0.7797084,-0.15645131,1.3592973
6.6090407,-4.8846793,-0.49036124,-0.57475436,-0.42259657,1.3411982
6.038033,-4.502468599999999,-1.4686223999999999,-0.4198564,-0.54396677,1.2203517
5.8099136,-4.044112999999999,-2.570463,-0.3437426,-0.29644418,1.0106155
5.7752934,-3.7862098,-2.787722,-0.2681524,0.16346754,0.72848296
6.069713,-3.7693260000000004,-2.4969895,0.09222319999999999,0.40140828,0.5107706
6.3698697,-3.9565716,-2.0832908,0.61709607,0.39610246,0.38194785
6.679794,-4.101823,-1.7330381000000001,1.2122358999999998,0.044767695999999996,0.25206044
7.291216,-4.347946599999999,-1.6347227,1.5534477,-0.31241393,-0.06518805
8.13025,-4.9203625,-1.5155872,1.5124674,-0.464659,-0.44155085
9.315914999999999,-5.4792547,-1.3193201,1.3756685,-0.5040511,-0.7891505999999999
10.9446335,-5.9545712,-1.3279296,1.453388,-0.59774035,-0.9951693000000001
12.738082,-6.2782383,-1.4078385,1.6588657,-0.8245110000000001,-1.145285
13.987089000000001,-6.7725167,-1.186394,1.8584789000000002,-1.2849636999999998,-1.2544030000000002
14.142779,-7.383967,-0.39828983,1.8712548,-1.6852725,-1.468939
13.194829,-7.7937107,0.8186446,1.6253203999999999,-1.7677916,-1.7138087
12.281279,-8.052438,0.90087104,1.185096,-1.5340921,-1.9459025
12.204663,-7.6445136,0.2664938,0.6527706,-0.95172805,-2.077378
12.595616999999999,-6.870842,-1.5717455,0.17952457,-0.14791666,-2.0805721
11.984282499999999,-6.1343184,-2.5754523,-0.040840704,0.4408178,-2.0417037000000002
10.496792999999998,-5.8987,-2.048795,-0.030194197000000002,0.7591484000000001,-2.0225573
9.1171875,-5.9380703,-0.9415725,0.011309733999999998,0.8767835999999999,-2.0470443
8.365925,-6.207303,-0.84388906,0.011309733999999998,0.8262214,-2.0848308
8.515907,-6.3363027999999995,-1.4045535,0.0033335788,0.66332984,-2.0954770000000003
9.591038000000001,-6.5619993,-2.4714386000000004,-0.04988151,0.51480234,-2.0619495
10.390471,-6.7174214999999995,-3.22883,-0.11110766,0.4131369000000001,-1.8804177
10.301043,-6.788577,-3.1980789,-0.21490239,0.34128168,-1.6051966999999998
9.423798,-6.8823433000000005,-2.6486764,-0.28729865,0.2672797,-1.2751549999999998
8.339675,-7.10193,-1.7467903999999999,-0.30487412,0.090024084,-0.9211673
7.5464087,-7.286734,-0.9411799000000001,-0.21224949,-0.46837655,-0.44846234
7.1260924,-7.2979383,-0.583036,-0.021135937,-1.5314216999999999,0.15837118
7.012875599999999,-7.2862167,-1.1804466999999998,0.34615114,-2.5332582,0.7210479000000001
6.6124597000000005,-7.4331727,-1.5919335,0.8433431,-2.7451236,1.1655309
6.2343574,-7.795272,-1.8458529,1.0642493999999998,-2.0366073,1.4663035
5.45787,-8.335279,-1.8018571,0.9114806999999999,-1.2445071,1.748436
4.466028700000001,-9.231869,-1.6083863999999999,0.715585,-0.8122588000000001,1.9347497999999999
3.9714348,-9.989787,-1.6011559,0.6282835999999999,-0.5801649,1.9272971999999997
3.6816502,-10.276421000000001,-1.3578188,0.5808979000000001,-0.3832045,1.7718581999999998
3.30962,-10.626951,-1.3358784,0.37170276,-0.12182398,1.6206778
2.1231685000000002,-11.321183,-1.4670041,-0.033911746,0.27846727,1.4663035
1.0579498,-12.412835000000001,-1.8024987000000001,-0.5374916000000001,0.81398666,1.3699438999999998
1.3272688,-12.922493,-0.9970222,-0.9079901,1.3021203000000001,1.4652388
2.5045072999999998,-12.53603,-0.4254209,-0.95909333,1.5555072,1.6430354999999999
3.7293712999999995,-12.100861,-2.0091662,-0.77225584,1.4687469,1.7148907
3.9629593,-11.248563,-3.738814,-0.5981767,1.2877563,1.7095673999999998
4.113296,-9.711437,-3.9567056000000003,-0.536968,1.0593973,1.6632639
4.862336599999999,-8.568302000000001,-3.4574665999999996,-0.54281485,0.76023054,1.6520938000000003
5.454413,-8.090908,-3.6506882000000007,-0.5289744000000001,0.41154864,1.6829686000000001
5.684553,-8.238850999999999,-4.419773,-0.49225265,0.104929194,1.639318
6.3816776,-8.433097,-4.891478500000001,-0.54016197,-0.005253441,1.5440228999999999
6.048443,-8.955167,-4.425519,-0.6625968000000001,0.014433873,1.4838613999999999
5.384205000000001,-9.208578,-3.1496777999999996,-0.76906186,0.07244862,1.406142
4.9806767,-8.725199,-1.6714113999999998,-0.89202034,0.1783901,1.3028883
5.0826697,-7.720132400000001,-0.96606034,-0.8616865,0.23535764,1.2225158
5.209630000000001,-6.9481173,-1.4368083,-0.70518285,0.14325662,1.0915464
5.2976885000000005,-6.2794065,-2.0774105,-0.39482838,-0.04782202,0.9307841
5.405628,-6.109858999999999,-2.4054832000000004,-0.055745817999999996,-0.1473756,0.7902501999999999
5.967672299999999,-6.0311375,-2.4511933,0.17739527,-0.06485643,0.5762554
6.9275649999999995,-5.603341599999999,-2.3363674,0.36318555,0.10173524,0.3170216
7.6366130000000005,-5.4192085,-2.4823180000000002,0.6032556,0.11770499999999999,0.04660029
7.8926773,-5.4837565,-2.4993072,0.84866637,0.036808994,-0.2536138
8.633673,-5.320165,-2.3340497000000004,1.0589261,-0.014817845,-0.5916491999999999
9.050504,-5.478565000000001,-2.0774488,1.227682,-0.09360201,-0.9775764000000001
9.529527,-5.746027,-1.5129151,1.3868387,-0.3342131,-1.3858787000000001
10.39368,-6.2126946,-1.1377246,1.5034267,-0.7286575,-1.8644305
11.252853,-6.790837,-0.78004044,1.5699586,-1.1545353,-2.2115066000000003
12.123489999999999,-7.073257400000001,-0.7981119000000001,1.6599302,-1.6948368999999999,-2.3728101
13.181345,-7.2242928,-1.1425992,1.6631242,-2.2410028,-2.4494648
13.647726,-7.221084599999999,-1.333417,1.4102609,-2.678033,-2.5330312000000004
13.448910999999999,-6.6707344,-1.2289723999999997,0.9088103999999999,-2.7770457000000004,-2.516538
13.437408999999999,-6.2232485,-1.3947088,0.23755677,-2.3517265,-2.439883
13.301533,-6.0933676,-1.7833834,-0.29955086,-1.5942186,-2.4430593999999997
13.147098000000002,-6.0827089999999995,-2.196383,-0.73977524,-0.49549899,-2.46437
12.677681,-5.920248,-2.146986,-0.96282834,0.55794686,-2.4616997000000005
11.914916999999999,-6.583987700000001,-2.5123412999999997,-0.90373147,1.1525631,-2.4547706000000002
10.69759,-7.853901,-2.5893770000000003,-0.78716093,1.3798573,-2.453706
9.917828,-9.186197,-2.6948464,-0.7089004,1.4070146000000001,-2.4223075
9.859160000000001,-9.90643,-3.4102912000000005,-0.4975759,1.1472398000000001,-2.3184953
9.849296,-10.057189,-4.0963544999999995,-0.13452998,0.62023765,-2.1023712000000003
9.275138,-9.884586,-4.0451093,0.12203342,0.09749409,-1.8356848999999997
9.182444,-9.2986965,-3.2277,0.17100736,-0.24158847,-1.5248069
9.356281,-8.781071,-2.0075476,0.010245083,-0.34857717,-1.1612200000000001
8.768343,-8.724021,-0.99515474,-0.24471262,-0.33738959999999996,-0.7752927
7.887525,-8.82745,-0.20317195,-0.46031314,-0.14044665,-0.35634387
6.931961,-8.839201,-0.027897237000000002,-0.6402391,0.21193533,0.08173377
6.011687,-8.767126,-0.6943089,-0.6684435999999999,0.48130944,0.5805314
4.985685299999999,-8.874568,-1.0414681000000001,-0.5327094,0.4935442,1.1022103
3.6586849999999997,-9.2718525,-0.6858526,-0.38259363,0.33971090000000004,1.5397818
2.4234588,-9.363138000000001,-0.51480126,-0.32510248,0.09642944,1.9411378000000001
1.9878098999999998,-9.600615,-1.1599620000000002,-0.29848620000000003,-0.10316641,2.2983544
1.7098621999999999,-9.642388,-1.7576505,-0.19680333,-0.21390755,2.5070083
1.7777139,-10.016813,-2.3297594,0.017174039,-0.27085763,2.5687582000000004
2.1060262,-10.42603,-2.3391066,0.33602825,-0.37465240000000005,2.5512002000000003
2.1501846000000002,-10.513188000000001,-1.864269,0.6634171,-0.53063244,2.4873211
2.0510647,-10.755347,-1.3285329,0.86676544,-0.54925513,2.4213127999999995
1.5078874,-11.059105,-0.7858536,0.88325876,-0.35974726,2.4106662
1.5510787,-11.191888,-0.7560602,0.7725350999999999,-0.020664698000000002,2.4042783
2.241892,-11.355928,-1.3965954,0.553217,0.40837213,2.2930136
3.2755647,-11.555959,-2.0796418,0.29824185,0.8848120999999999,2.0726483
4.1251426,-10.941568,-1.7467426,0.07785914,1.215395,1.8245846000000001
5.378229599999999,-10.318147999999999,-1.0759159,-0.12281882,1.3340948000000001,1.5951437
6.546101599999999,-10.063146000000001,-0.5797033,-0.29635692,1.2696921,1.421082
7.418740299999999,-9.951556,-0.52375555,-0.39802232,1.1807851,1.3076879
8.042947,-9.768725,-1.0095582,-0.4198564,1.1664035,1.2299684
8.571711,-9.632649,-1.8170555,-0.43634978,1.1158238999999999,1.1969643
8.749179,-9.061594,-2.4259775,-0.45073128,0.88694143,1.1990936
8.995494,-8.05735,-2.802691,-0.4528606,0.4738569,1.1618308000000002
9.38302,-6.684132000000001,-3.0653919999999997,-0.46509534,0.09536479,1.1000809999999999
9.400162,-5.433947,-2.848286,-0.32403782,-0.153205,1.0431309000000002
9.081361,-4.791075,-2.9572317999999997,-0.09831439999999998,-0.27403414,0.9526356
8.287778,-4.5219955,-3.008324,0.10554006,-0.23624776,0.7338411
7.52353,-4.32751,-2.8091934,0.13747959,0.019792033,0.33194417
7.123267,-4.3071589999999995,-2.1125095000000003,0.021956242999999997,0.40200168,-0.14234905
7.165855400000001,-4.7132635,-1.6920206999999998,0.052307516,0.60854393,-0.54637533
7.3123803,-5.5505447,-1.7327508999999999,0.25459117,0.40039600000000003,-0.87535244
7.6951656,-5.999247,-1.9033234,0.514366,-0.03769911,-1.1165045
8.339924,-6.137957599999999,-1.9680912,0.6692814,-0.38475785,-1.3571156
9.212705999999999,-6.394769,-1.5113733,0.61709607,-0.39435714,-1.6871574
10.283747,-6.821492699999999,-0.79487497,0.49733156,-0.27563986,-2.048074
11.703605,-7.0309467,-0.55623055,0.6069906,-0.39488074,-2.2444935
13.327717000000002,-6.8173075,-0.9801,0.8641125,-0.778155,-2.3387237
14.760876000000001,-6.5723133,-1.6399611,0.99825853,-1.1640823,-2.3988678
15.058226999999999,-6.734276299999999,-2.0066762,0.74858916,-1.3003576000000001,-2.4489064
13.996042999999998,-7.3977002999999995,-1.5148784,0.31794664,-1.2252909,-2.4159021000000003
13.322037,-8.313578,-1.4049559,-0.096202545,-0.9069778000000001,-2.3003962000000002
12.67816,-8.872489999999999,-1.446299,-0.3442662,-0.44066072,-2.1524097999999996
12.343882,-8.518512,-1.8429893,-0.38631117,0.036285397000000004,-2.051268
12.051357000000001,-8.089423,-2.0659566000000003,-0.4139920999999999,0.59842104,-2.01507
10.851662,-7.9778824,-1.695114,-0.77916735,1.2074013000000001,-2.150804
9.273624,-8.470436,-0.76389396,-1.1816053,1.5874816,-2.2530105
8.733502,-9.20312,-0.8653603000000001,-1.1358253999999999,1.4400363,-2.1758322999999997
8.497271000000001,-9.339427,-1.936392,-0.7477514000000001,0.923157,-2.008141
8.225031,-9.499886,-2.9156685,-0.33733723,0.46588072,-1.8436611
7.632839,-9.401014,-2.8417354,-0.10789625,0.25347418,-1.6397717
6.979385400000001,-9.148465,-1.9733202,-0.13025393,0.28330183,-1.3448633999999997
6.578749,-8.675237,-0.7898566999999999,-0.18668042,0.26146778,-0.9365610999999999
6.8476276,-8.242278,-0.091075435,-0.18455112,-0.0014835298000000002,-0.3904127
7.3935056,-7.497385,-0.9559664000000001,-0.22181389,-0.35227725,0.24837779999999998
7.3640857,-7.068161999999999,-2.550907,-0.26600564,-0.5721364000000001,0.8387180000000001
5.8493414,-7.805729400000001,-2.2087755000000002,-0.26494098,-0.60566413,1.3204812
4.1643596,-8.744381,-0.27658775,-0.13983577,-0.62643355,1.7474062
3.1813097000000004,-9.009649000000001,0.6880457,0.05391322,-0.69563586,1.9640539000000001
2.7636461,-8.932642,0.82449603,0.23490386,-0.82871723,2.0369911
2.2823446,-8.931521,0.1275056,0.34775686,-0.9447641999999999,2.1647494
1.653541,-9.490175,-0.7111641,0.50584877,-0.978833,2.4197245
0.88700384,-10.117484,-0.89876413,0.7390073,-0.9229301,2.5948682
0.23829968,-10.749888,-1.2308111000000002,0.9066985000000001,-0.7233168000000001,2.518737
0.42928037,-11.176401,-1.5932263,0.8252440000000001,-0.51677454,2.2744082999999997
1.5623316,-11.053713,-1.3322871,0.62882465,-0.26975808,2.0998056
2.5484552000000003,-10.848855,-1.0395049,0.52394783,0.024050636,2.1322687
3.8984115,-10.646094999999999,-0.56472516,0.4792325,0.5798158,2.2057297
5.509307,-10.618027,-0.6607326,0.44516367,1.2052895000000001,2.195624
6.344893,-11.209814999999999,-1.0483921999999999,0.36637953,1.7594314999999998,2.0838358
5.810852,-11.346198,-0.9317946,0.20774654,1.9313813000000002,1.8325783
5.427387,-10.980595,-0.3634973,0.06455973,1.6322143999999998,1.5685448999999998
6.682753599999999,-10.645138000000001,-0.34238997,-0.12547173,1.240423,1.4785731000000002
8.392213,-10.07911,-1.1477708,-0.34798375,1.0008765,1.5302174
9.169524000000001,-9.706821000000001,-2.291203,-0.55398494,0.8757712999999999,1.5685448999999998
8.724902,-9.91526,-2.347371,-0.76213294,0.6857399000000001,1.5339525
8.093828,-9.508256,-1.7609737,-0.85102254,0.3381401,1.4327931
8.149096499999999,-8.467898,-1.3307452,-0.8856324000000001,0.031520646,1.2491496000000002
8.221258,-7.162733599999999,-1.2905513000000002,-0.8542165,-0.14892894,1.0426073
8.350574,-6.0774894,-1.8518671999999998,-0.7887491999999999,-0.1388235,0.84458226
8.21441,-5.1451297,-2.8207622000000003,-0.7541393,0.025132742000000003,0.5911954
7.229493,-4.7510247,-3.2359742999999996,-0.65406215,0.18535396,0.31703904
6.063057,-4.9681125,-3.3007133,-0.51726323,0.27213174,-0.031084314
5.854206,-5.0979257,-2.9250536,-0.34904840000000004,0.32749358,-0.42605233
6.4783173,-5.2879486,-2.6273682000000003,-0.18242182,0.26200882,-0.70446724
7.3960724,-5.5359305999999995,-2.4220033,-0.00143117,0.050684362999999996,-0.9157917
8.613619,-5.7548375,-1.9155817,0.21839304,-0.34641296,-1.0366383
9.817269999999999,-5.8729195999999995,-1.5328255,0.45261624,-0.67858404,-1.1835601
10.713975999999999,-6.1983967,-0.89369804,0.6320186,-0.78133154,-1.5364832
11.664867,-6.5606775,-0.59035265,0.7879813,-0.8744798,-1.9985416
12.585983,-6.815085400000001,-0.58059394,0.94609064,-1.0618583000000001,-2.4116435000000003
13.257021,-7.073391,-0.35185188,1.1164348,-1.3264153,-2.6692717
13.685468,-7.3481402000000005,-0.30607474,1.103118,-1.3083338,-2.7150517000000005
13.565719,-7.8687067,-0.41172609999999993,0.81246823,-1.0677052,-2.7549848999999997
12.833362,-8.58329,-0.5239184,0.44570473,-0.80793035,-2.7464676
12.292761,-9.496792999999998,-0.6705871999999999,0.09649926,-0.5508259,-2.6192331
11.955915,-10.079455000000001,-0.5044582999999999,-0.17816322,-0.24474752,-2.3764927000000005
12.504446000000002,-9.706324,-0.17834888,-0.44806093,0.20877628,-2.2338294999999997
12.978872,-8.960223,-0.18305108,-0.7387106,0.7033153,-2.2492757
12.225896,-8.728091000000001,-0.16686629,-0.9149016,1.0557147,-2.2753508
10.875537,-8.932077,-0.22313960000000002,-0.8840266999999999,1.2851382,-2.252993
9.693653,-9.968536,-0.41719443,-0.56304324,1.2393756999999999,-2.1215174
9.011469,-10.464816,-1.2906088,-0.030717794,0.8518428,-1.9352037
8.367773,-10.426557,-2.1274302000000005,0.46752134,0.2231578,-1.7244028000000002
7.5047690000000005,-10.356972,-2.1975803,0.72890186,-0.44010222,-1.478992
6.165577,-10.078689,-1.7707803,0.7283608,-0.9202598,-1.1888834
5.637243700000001,-9.774482,-1.2380418,0.48881435,-1.0975153,-0.8359429
6.1915684,-9.44481,-1.0549811000000002,0.11459832,-0.91174257,-0.42659336
5.98356,-8.95079,-0.7602165,-0.3117856,-0.49331729999999996,-0.00019198621
5.0604515,-8.712135,0.017056294,-0.5960474,-0.12920672,0.46558404
3.8445134,-8.693951,1.0419854,-0.621058,-0.022759092999999998,0.9111316999999999
2.7153409,-8.919541,2.0116658,-0.4539078,-0.12548918,1.333257
1.7382096000000002,-8.722862,2.1355991000000003,-0.19999728,-0.20001473,1.6665101999999998
1.3558173,-8.719069500000002,1.1086782,0.111927964,-0.25111797,2.0806419999999997
1.0342185,-8.876101,-0.38375223,0.47977355,-0.24792401,2.5310066000000004
1.0910856000000002,-9.100093,-1.5136813999999998,0.73794264,-0.22183135,2.6560943
1.2621944999999999,-9.724089,-2.2847388,0.71399677,-0.12655382,2.4862914000000003
1.7897806,-10.597924,-2.5446343,0.6314776,-0.07812094,2.2493978
2.1131034,-11.332791,-2.3944794999999996,0.51223665,-0.046163958,2.00294
2.5532053,-11.875796000000001,-1.6371744,0.3946015,0.024068091,1.9624656000000003
2.9559963,-11.870644,-0.80136806,0.28920105,0.22848105,2.0646722
3.584886,-11.757264,-0.30153534,0.16196655,0.49572587,2.1003466
4.449681299999999,-11.962428,-0.14903428,0.017715093,0.8316145,2.0396616
4.7560434,-12.423455,-0.039820362000000005,-0.19360937,1.1893371000000001,1.877311
5.3218603,-11.713066,0.017017987,-0.32988468,1.2798325000000002,1.6957793
7.059505000000001,-10.161997999999999,-1.0120770000000001,-0.38631117,1.0977772,1.5296938
8.305475999999999,-8.996386,-2.0219321,-0.4161214,0.88484704,1.4966897
8.689314999999999,-8.365167999999999,-2.364753,-0.42196825,0.7166321999999999,1.4887135
8.621329,-8.42261,-2.6598911,-0.49010590000000004,0.6751283,1.4461274
7.418117999999999,-8.969206,-2.382968,-0.6631204,0.6995978,1.3487031
7.071629,-8.831569,-2.196048,-0.8451757,0.5516113,1.2241389999999999
7.590117,-8.019426,-1.9680817,-0.8456993,0.26202628,1.1698419
8.031321,-6.8934050000000004,-1.9920715,-0.76159185,-0.04829326,1.1400491000000001
8.08407,-5.8941126,-2.1095598,-0.6136054,-0.25963518,1.0905341
7.559011999999999,-5.3673595999999995,-1.8721794999999999,-0.43741440000000004,-0.34320155,0.9638405999999999
6.8575873,-5.0098195,-1.868502,-0.32562608,-0.28996900000000003,0.6651973000000001
6.132853,-4.8724302999999995,-1.6154636,-0.3447898,-0.019547688,0.22338470000000002
6.349269400000001,-4.7371774,-1.5347503,-0.4459316,0.4818854,-0.23546237
7.0553966,-4.67239,-1.8763933000000002,-0.34637803,0.8454724,-0.47394416
7.751238000000001,-4.8574905,-2.3385507999999997,0.05178392,0.64531803,-0.6709046
7.839105,-5.437644000000001,-1.8676113999999997,0.37063813,0.11616912,-0.8535009
7.8734474,-6.2693224,-0.8124100999999999,0.60166734,-0.42785,-1.0866593999999998
8.645367,-6.729622,-0.33250675,0.8087506999999999,-0.6737669,-1.4305416000000002
10.0222435,-7.0732764999999995,0.010936713,0.9641896999999999,-0.6642024999999999,-1.835109
11.815864999999999,-7.210665,-0.05545929,1.1520919,-0.81325364,-2.1358817
13.655894,-6.9660735,-0.4511825,1.3357528,-1.2018337,-2.4030914
14.678448999999999,-6.7814994,-0.8569709999999999,1.2532337,-1.4988887,-2.5952697
13.945448999999998,-7.411931,-0.70243007,0.9130865,-1.5441277,-2.713446
12.351342,-8.201797500000001,0.12831964,0.48774973,-1.4270161,-2.725157
11.906691,-8.854208,0.051810525,0.05656612,-1.0613172,-2.5883408
12.201532,-9.607367,-0.8776951999999999,-0.328279,-0.46457174,-2.4366367
12.776944,-9.356952,-0.8901929,-0.5268451,0.07093018,-2.3610466
12.873163,-8.679211,-0.6232873000000001,-0.51406926,0.40735984,-2.3067493
12.087453,-8.288707,-0.525738,-0.3623478,0.42439425,-2.349859
10.810864,-8.491178999999999,-0.644816,-0.15474088,0.046443213,-2.5148973
10.202172000000001,-9.109095,-1.4122246999999999,-0.11854276,-0.159558,-2.5228734
9.889069000000001,-9.898999,-2.6214976,-0.20744984,-0.054681167,-2.3525292999999996
9.575254,-10.619021,-3.3132112,-0.10737266,-0.10311405,-2.0911489
8.67946,-10.783072,-3.0085634999999997,-0.00036651915,-0.18989182,-1.7691006999999999
7.538738,-10.352337,-2.2617161,-0.019530235,-0.33361968,-1.3874146
7.0160933000000005,-9.57335,-1.3305056999999998,-0.27452284,-0.37992328,-1.051526
6.6963525,-8.99811,-0.47751874,-0.5875302,-0.39697513,-0.6474996999999999
6.3324914,-8.493105,-0.08651688,-0.69771284,-0.36980036,-0.22268656
6.5353084,-7.920717999999999,-0.36463693,-0.67057294,-0.33094934,0.19676842
5.9753623,-7.645835400000001,-0.6810834,-0.5742133,-0.28729865,0.55342644
4.3846644999999995,-7.870383,-1.2155266000000002,-0.49064696,-0.18350391,0.8978323
3.0992843999999997,-8.271268,-0.8441093000000001,-0.40919244,-0.052010812000000003,1.185288
1.9374168,-8.57718,-0.26081476,-0.44326127,0.1614255,1.4732847
1.1752561000000001,-8.51291,-0.5670044,-0.5294979999999999,0.284925,1.8278134999999998
1.1390175,-8.397931,-1.4902563999999998,-0.43954372,0.2700199,2.2281222
1.4019392,-8.935381,-2.4481287,-0.14090043,0.099152155,2.5134487
1.5021892,-9.548957000000001,-2.023742,0.30462977,-0.14943509,2.5171661
1.7315154,-9.926839,-0.9142403,0.80714494,-0.42357394,2.325529
2.2837908,-10.180213,-0.19121052,1.1579561,-0.58485985,2.1397562000000003
2.8002392999999994,-10.441898,-0.041007884,1.2138416,-0.45392522,2.1275039000000002
3.5706646,-10.682621000000001,-0.24139298,1.0626612,-0.06372197,2.2345102000000003
4.265480999999999,-10.929933,-0.4193205,0.81142104,0.41589449999999994,2.3021243
4.67331,-11.9259205,-1.3388183999999999,0.46699774,0.90189886,2.2360982999999997
4.410541,-12.408525,-1.2775557,0.21626374,1.1409042999999999,2.064166
4.259802,-11.48965,-0.13674723,0.091176,1.1707319,1.8858283
5.3647547,-10.537025,0.6777889,0.043807764000000006,1.1137643999999998,1.8299428
7.193397999999999,-9.730946000000001,0.9889394,0.06349508,1.0653139999999999,1.8262078000000002
8.387885,-9.32352,0.48751694,0.08531169599999999,1.0317863,1.7740398999999998
8.421202000000001,-9.48554,-0.76058996,0.027820547999999997,1.0003704,1.6239241000000002
7.903355599999999,-9.367572000000001,-2.106208,-0.06743952,0.8795412,1.4285694
7.7856380000000005,-8.618053,-2.7639240000000003,-0.16166985,0.6655464,1.2039281000000002
8.194653500000001,-7.503275,-3.0322373,-0.17976889999999998,0.39725438,1.012291
8.679192,-6.3333626,-3.185294,-0.07702138,0.13800319,0.86749846
8.775219,-5.534829,-2.734485,0.058695424,-0.031241393,0.69448394
8.206711,-5.214849,-2.4401991,0.107145764,-0.06904522,0.39159954
7.565533599999999,-5.220940000000001,-2.013313,-0.02698279,0.109275065,-0.004974188300000001
7.687436999999999,-5.1607975999999995,-1.7450474999999999,-0.2585531,0.4850968,-0.47874382
8.372725,-4.9145107,-1.7431607,-0.45284313,0.8582482,-0.82262605
9.352097,-4.6488309999999995,-2.2021005000000002,-0.36554176,0.81087995,-1.0355388
9.979348,-4.6144886,-2.4219169999999997,-0.18722147,0.42599997,-1.2208054
10.412975999999999,-4.695920500000001,-2.4309576,-0.01792453,-0.081279986,-1.4358475
10.497089,-5.012367,-1.8772168999999999,0.11459832,-0.44113198,-1.7046806
10.9206915,-5.2302485,-1.2177006000000001,0.19818214,-0.66896725,-2.0150175
12.193228999999999,-5.222395400000001,-1.2025405,0.3046472,-0.9425825000000001,-2.2226245
13.734569,-5.175612999999999,-1.8839878,0.4095066,-1.3961238,-2.4179966
14.59423,-5.2668989999999996,-2.2803142000000003,0.472321,-1.8512707,-2.6799006000000003
15.067170999999998,-5.8953385,-2.6735284,0.24661502,-1.6537693,-2.8411865
13.839893,-7.0661225000000005,-2.068035,-0.071174525,-1.0533062,-2.8337514
12.6867695,-8.107054,-1.2984234,-0.31550318,-0.43528512,-2.7927537
12.655415,-9.306186,-1.4742058999999998,-0.4879766,0.14493214,-2.6729891
13.171691000000001,-10.097441,-1.5539901000000003,-0.5140518,0.61711353,-2.4733584
13.468275,-10.364747999999999,-1.4027245000000002,-0.3937463,0.8225911,-2.3094022
12.645379,-10.447357,-1.2688311,-0.20210913,0.64479446,-2.2008077999999998
11.403295,-10.352327,-1.0579593999999999,-0.102573,0.29824185,-2.1140301
11.24431,-10.536958,-1.0974734,-0.07382743,0.012391837,-2.0240756999999996
11.566082000000002,-10.893216,-1.1505671999999998,-0.10735519999999998,-0.15261158,-1.9287808000000002
10.927894,-11.400853,-1.6153487,-0.17603391,-0.15208799,-1.7126567
9.583569,-11.263264,-1.1530188,-0.25747097,-0.15154694,-1.4411707
8.049526,-10.459951,-0.75934505,-0.41132173,-0.36980036,-1.1015471000000001
6.107101,-9.535349,-0.55649865,-0.5332155,-0.46403068,-0.84922487
4.564833,-8.652415,-0.17940232,-0.7440164,0.19551179,-0.79812163
3.7413422999999995,-7.811667,-0.48284346,-0.8989318000000001,0.938097,-0.6203249
3.1541405,-7.195716,-1.0321977,-0.89147925,1.5412304,-0.22055726
2.74772,-6.9183617,-1.7916291000000002,-0.769568,1.6743118000000001,0.29045770000000004
2.500121,-6.8739924,-1.9639157999999999,-0.7621155,1.2633566,0.9308539
1.9890741000000003,-7.0955997,-1.9877331999999999,-0.9345889000000001,0.6714107,1.5584569
1.2362986999999999,-7.5386133,-1.8318324000000001,-1.1480601000000001,0.11353367,2.2185403999999997
0.84934783,-8.188955,-1.9804741000000001,-1.0123084,-0.3815115,2.7710939999999997
1.2287905000000001,-9.222053,-2.3458102000000003,-0.48265335,-0.794596,3.1394634
3.4234786,-9.325061999999999,-1.3273933,0.24448572,-1.1235732,3.2970316
4.762,-9.470199000000001,-0.5614499,0.7831991,-1.3503438,3.2592453999999997
4.217903,-10.253169,0.26211718,0.88540554,-1.3716367,3.1762025
3.2338674,-10.92774,0.5209590999999999,0.68631583,-1.0128495000000002,3.1064591
2.5744278,-11.162372,-0.041984722,0.37969637,-0.12119567,2.8520076000000003
2.4139395,-11.484316,-1.5076001,0.05126032,1.1771198999999999,2.3281994
3.0256388,-12.182473,-2.4234014,-0.2287254,2.296068,1.8347423999999999
3.5820992,-11.870461,-1.4808233999999998,-0.44591418,2.8033826,1.5536747
4.4249730000000005,-10.932039999999999,0.94606405,-0.6657733,2.68573,1.4189876000000001
6.03787,-10.364450999999999,2.5996912,-0.79192567,2.1810856,1.4014295
7.9456086,-10.124658,2.44923,-0.77169734,1.4805454,1.4269812
9.62857,-9.953136,0.41186014,-0.62796944,0.77733475,1.4136643
10.557233,-9.981207000000001,-1.789139,-0.5060757,0.18008307,1.366296
11.812695,-9.32439,-2.3050034,-0.4507138,-0.30272737,1.3439385
13.391556,-7.378795599999999,-1.245751,-0.39694023,-0.55611426,1.323169
14.148026999999999,-5.212378500000001,-0.2268554,-0.24363051,-0.67587876,1.1618831
12.694546,-4.1905136,0.014834473999999999,-0.02857104,-0.72272336,0.8329059999999999
10.565794,-4.006457,-0.83011764,0.19498818,-0.6444803000000001,0.33677873
8.772202499999999,-3.979824,-1.6228474,0.2817485,-0.3085742,-0.28228956
7.6471667000000005,-3.9072603999999997,-1.5576676,0.16624261,0.39779544,-0.98550016
7.5181192999999995,-3.8336532,-0.9548843000000001,0.0076096356,1.0451206,-1.5428362
8.263798,-3.5894735,-0.43400174,0.049131017,1.2138591,-1.9202636000000002
8.932364,-3.4506385,-0.44968852,0.17901842,0.91895074,-2.1592689999999997
9.654628,-3.5769756,-0.4487213,0.25673792,0.46593308,-2.312055
11.271892,-3.6807307999999996,0.20405303,0.24928537,0.25300294,-2.5303085
13.2817955,-3.770408,0.6792159000000001,0.24874432,0.27216664,-2.741633
15.72347,-3.8363826000000003,0.9929425,0.26684338,0.3530801,-2.7538853
17.87785,-3.8997523999999997,0.7985812,0.4004658,0.05126032,-2.5782177
19.322348,-4.48071,0.031546,0.48563787,-0.5529203,-2.3615701000000002
19.611912,-5.176924700000001,-0.8350305,0.25406757,-1.0155023,-2.1156182
17.76879,-6.3156266,-1.0325426,-0.102031946,-1.157642,-1.9245221999999997
16.01043,-8.157208,-1.2187923,-0.32135,-1.1177088,-1.7972877
14.741081,-9.640147,-1.6314473999999999,-0.32347932,-0.9127723,-1.7371436000000002
13.701948999999999,-9.8806505,-1.7879131999999998,-0.083932884,-0.7136826000000001,-1.7153096
13.161721,-9.549082,-1.2470056,0.3695909,-0.63329273,-1.7312793999999998
11.609178,-9.782850999999999,-0.78277946,0.8933991,-0.6913249,-1.7557663000000001
9.167724,-10.303007000000001,-0.57379436,1.2378049999999998,-0.80098397,-1.7195681
7.593996000000001,-10.900522,-0.5691208999999999,1.4624462999999999,-1.0384011,-1.6823055
7.170471000000001,-11.169487,-1.4131726999999998,1.5566766,-1.2177861,-1.6322668
7.078964699999999,-10.764082,-2.1500793,1.4746985000000001,-1.2593074,-1.5183492
7.210961999999999,-9.799525,-1.0541095,1.2777381,-1.0474417999999999,-1.3655806000000001
6.873178500000001,-8.749266,0.70527434,0.8699768,-0.6375513,-1.1659671999999999
6.4076786,-7.7309155,2.5135384,0.24928537,-0.14620623,-0.81515604
5.8493414,-7.022614999999999,3.7170940000000003,-0.44059092,0.19924679999999997,-0.34670967
5.409402,-6.640787599999999,4.266936299999999,-1.0548944,0.50638986,0.024836035
4.8239617,-6.663542,3.810803,-1.4482917,0.8226085999999999,0.40332812
4.301279,-6.542874299999999,2.416008,-1.4818194,0.98176515,0.8110894000000001
4.0738683,-6.422302200000001,1.5569398,-1.2534604999999999,0.8886168999999999,1.3104106000000002
3.7983913,-6.3698597,0.62239665,-1.0330778,0.6096784000000001,1.7341417000000001
3.5263336000000005,-6.5287485,-0.27351362,-0.92661273,0.33606315,2.14775
3.4605502999999995,-6.7027016,-1.0249194,-0.7828849,-0.010471975,2.5235715
3.1420832,-7.366786,-2.28562,-0.20690878,-0.6976954000000001,2.9254860000000003
2.5758162000000002,-8.000254,-3.3169748999999995,0.89179343,-1.5483513999999998,3.2507281000000003
2.4110281000000002,-8.392213,-3.716711,1.911729,-1.9683648,3.232629
2.9225733,-8.982671,-3.1450424,2.2210188,-1.8480593,2.890876
2.9223626,-9.678896,-1.4345003,1.9314337,-1.4993775,2.687528
2.7513973999999997,-10.318253,-0.046552856,1.3064836000000002,-1.0123084,2.6981742000000004
2.8322833,-10.723917,0.4026377,0.7273136,-0.2899341,2.7519479
3.6875687000000004,-11.185941,-0.19070296,0.28441885,0.6048788,2.6630409
4.7568383,-11.864428,-0.7290057,0.03741986,1.4108194,2.370262
4.855795400000001,-12.020597,0.09032845,-0.081279986,1.9319747999999999,1.9625006
4.363835,-11.970999,2.1580665,-0.15793484,2.0410926,1.6383231000000003
5.713867700000001,-11.7416725,3.370739,-0.14941764,1.8143221,1.5366403
8.712548,-11.0050535,1.2013625,-0.06583382,1.3102187,1.4679790000000001
10.690207000000001,-10.281698,-2.5483212,0.01452114,0.8699943000000001,1.324251
10.625353,-10.32962,-4.818781400000001,0.003874631,0.5298295999999999,1.1672063999999998
10.625391,-9.979836,-5.5214987,-0.098837994,0.3291342,1.0144377
11.025865,-8.761274,-4.2311864,-0.23671901,0.19127063,0.7929903
11.787172,-7.1629057000000005,-2.9751692000000003,-0.3288026,0.14496705,0.6008296
12.146321,-5.6062627,-2.0062451,-0.40812778,0.12152728,0.39214057
11.625257000000001,-4.63505,-1.9230898999999997,-0.40119883,-0.02963569,0.10681415
9.993848,-4.386072,-2.188894,-0.3937463,-0.13981833,-0.27590165
8.603247999999999,-4.3010683,-2.2794046000000003,-0.46827182,0.057124626,-0.652247
8.426144,-3.9004513999999997,-2.208287,-0.5023407,0.38503709999999997,-1.0264804
8.939116499999999,-3.4085292999999997,-2.4175307999999998,-0.31337386,0.5356939000000001,-1.2218351
9.296704,-3.3014317,-2.6871467,-0.049340457000000004,0.39940116,-1.323518
10.17892,-3.4714199999999997,-2.8920615,0.08052949,0.07255334,-1.4054962
11.00014,-3.7476152999999996,-2.748601,0.15559610000000001,-0.40439278,-1.5077027
11.583464,-4.274962,-2.3780456,0.28707176,-0.7977725,-1.6466483
12.352012,-4.9211574,-2.1084585,0.48190287,-1.0138966999999999,-1.9026881000000002
13.42199,-5.4637117,-1.7234327,0.82684976,-1.2593074,-2.1906673999999997
14.140223,-5.9468236,-1.5782003,1.1515683,-1.5600625,-2.4078562000000003
14.420459,-6.5529304,-1.283723,1.1664733999999999,-1.6643983,-2.4823992
13.703051,-7.6373024,-0.6116419,0.89233446,-1.5323817,-2.500481
12.357959,-8.477389,0.062661044,0.37065557,-1.1352669,-2.5585132
11.816133,-9.239914,-0.5373545999999999,-0.2846283,-0.45123739999999996,-2.5787413
11.645358,-9.742659,-1.1159374,-0.7897964,0.38397244,-2.5345497000000003
11.390194000000001,-9.745685,-0.9020203000000001,-0.9564229999999999,1.0206336,-2.4935694
11.610086,-9.303533,0.04862145,-0.8653866,1.400714,-2.494634
11.82116,-9.206405,0.9278871999999999,-0.6812020000000001,1.4975972,-2.5052805
11.369489999999999,-9.524441,1.4706719,-0.47572440000000005,1.3208652,-2.494093
10.634201,-10.171594,0.71679527,-0.19359192,0.9045867,-2.4190438
10.236658,-10.707867,-0.70210445,0.07840019,0.5245238,-2.2694516
10.396925999999999,-10.589314,-1.9142792000000002,0.37597883,0.15400785,-1.9740198
10.1909485,-10.031714,-2.6861314999999997,0.47019170000000005,-0.13395402,-1.6131031999999998
9.154288000000001,-9.38368,-2.2985868,0.2817485,-0.45389032,-1.1760552
7.8518514999999995,-8.76092,-1.0530944,-0.11854276,-0.6646911999999999,-0.7714879
6.9282928,-8.193878,0.29867187,-0.5955063,-0.769027,-0.35840335
6.1554637,-7.783406299999999,0.8190085,-0.9995325999999999,-0.7051479,0.031241393
5.316468700000001,-7.5169505999999995,0.5944899,-1.2656953000000002,-0.58271307,0.5215044
4.243176999999999,-7.4660210000000005,0.35241690000000003,-1.2875292999999999,-0.5087111,1.0075261999999998
3.2210727,-7.4243526,0.3871903,-1.1704178,-0.500735,1.4749079
2.0095205000000003,-7.442021400000001,0.36344940000000003,-0.97239274,-0.5853834,1.8427361
1.0449733,-7.397786,-0.22209573,-0.8212123,-0.7253763000000001,2.0136213
0.7167281999999999,-7.318461999999999,-1.706606,-0.7205941,-0.9116902,2.145638
0.7680504,-7.400860300000001,-3.203394,-0.54386204,-1.1166267,2.3351457000000004
1.1644248,-7.578108,-4.130351999999999,-0.25427702,-1.2348205,2.4671626
1.9655247,-7.9624543,-3.824632,0.14014994,-1.2470552,2.469292
2.6986675,-8.819952,-3.0777080000000003,0.631495,-1.1959518999999998,2.330346
2.855325,-9.531069,-2.1237814,1.177661,-1.1544131000000002,2.1530905
3.2743964,-9.649074,-1.1856086000000001,1.4826746000000002,-1.0234785,2.0838883000000004
4.084162999999999,-9.450058,-0.749749,1.3948497,-0.65350366,2.054078
5.6269965,-9.244636,-0.9776483,1.0408446,-0.11852531,2.0306556000000002
7.327760700000001,-9.585934,-1.6072754999999999,0.6197838999999999,0.43029347,1.9768994999999998
7.873054499999999,-9.98815,-1.8107634999999997,0.36266196,0.74595374,1.8736110000000001
7.9716190000000005,-9.649696,-1.0385664000000001,0.2604555,0.7699170999999999,1.7405294999999998
8.561444999999999,-9.110914,-0.20719421,0.19338249,0.6235189,1.5936078000000002
9.591086,-8.556819,0.28950685,0.10768682,0.34618604,1.4536149999999999
10.453085,-8.418463000000001,0.47474146,-0.044017203,0.15667820000000002,1.2843354
10.802083,-8.588174,-0.173752,-0.3330612,0.23333307,1.0575649
10.575754,-8.354596,-1.9468595000000002,-0.63383377,0.40633009999999997,0.84089965
10.326738,-7.3110304,-3.5459757000000005,-0.87922704,0.5921204000000001,0.65193284
9.878256,-6.003413,-4.16027,-0.9995325999999999,0.6341654,0.50394636
9.375924000000001,-4.7572790000000005,-4.089804,-0.9532290000000001,0.47075020000000006,0.38097048
9.051213,-4.110011,-3.604174,-0.7674386999999999,0.2083225,0.27452284
8.76183,-3.6116629000000002,-3.5211620000000003,-0.5215044,-0.07168067,0.08234464
8.478242,-3.0672982,-3.8120095999999997,-0.29153979999999996,-0.1643053,-0.1492082
8.63353,-2.6762387999999997,-4.170996,-0.015271631,-0.1669582,-0.36639696
9.285729,-2.382288,-4.457457499999999,0.31901127,-0.31335640000000003,-0.5415233
10.035076,-2.3370664,-4.554174,0.5926266,-0.59014815,-0.75392985
10.1420965,-2.6109343,-4.246356,0.73741907,-1.0165495999999998,-0.9971939000000001
10.18028,-3.0991025000000003,-3.7270730000000003,0.69856805,-1.432287,-1.3554401000000003
10.342386,-3.7961793,-3.1984525,0.46060985,-1.5813382,-1.8143046999999999
10.649869,-4.5160294,-2.514017,0.13536774,-1.3119988,-2.2300596
11.329344,-4.8641366999999995,-1.9551338,-0.061575215,-1.0069677,-2.4222202
12.051032000000001,-4.868571,-1.5955918,-0.034958944,-0.8227831,-2.331725
12.558498,-5.107579,-1.444623,0.11140437,-0.63114595,-2.1006958
12.489497,-5.3424025,-1.2863759,0.2902657,-0.4198215,-1.9628322
12.526261,-5.506262,-1.3477248,0.44251078,-0.27075294,-2.0448103
13.12282,-6.418845,-2.5908039,0.51118946,-0.15631169,-2.1220062
14.676946,-8.048291,-3.891593,0.5665513000000001,-0.031206487,-2.1187947
16.278742,-9.436105,-5.042821,0.740613,-0.009389871999999999,-2.0586507
16.12828,-9.456339999999999,-4.766635400000001,0.88753486,-0.056758105999999996,-1.9921012999999999
13.850543,-9.331171000000001,-3.618089,0.90243995,-0.15577063,-1.8962828
10.878677,-9.680332,-2.0507584,0.7784169,-0.23987806,-1.7871648
8.349079,-10.070481,-0.80313975,0.5367411,-0.24467771,-1.6445016
7.5190287,-10.048015,-0.15588169,0.21947515,-0.18292795,-1.5236549
7.97387,-9.204452,0.010783484,-0.18613936,-0.020559978,-1.4198601999999998
7.881175999999999,-8.40836,-0.3470539,-0.57101935,0.25675538,-1.2441928
6.7714057,-7.7819886,-0.6912539000000001,-0.9324595999999999,0.59957296,-0.9397027
5.411949,-7.200686,-0.5158451000000001,-1.1246378000000001,0.82581997,-0.53246504
4.256699,-6.652011999999999,-0.24437138,-1.0820518,0.88809335,-0.008133234
3.4742932,-6.260435,-0.8311232,-0.8632573,0.8151735,0.52204543
3.0052307000000003,-6.2354400000000005,-1.8537824,-0.6498035,0.6996676,1.002203
2.9099991000000003,-6.3923364000000005,-2.7352220000000003,-0.5577025,0.54955184,1.3860183000000001
2.8885758,-6.694437,-3.333878,-0.5555732,0.37706092,1.7416116999999998
3.1715607999999995,-7.108356,-3.7582169000000003,-0.5092696,0.2711369,2.0232031000000004
3.4427087,-8.174657,-3.9843922,-0.39268163,0.23228587,2.1892886000000003
3.0906557999999995,-9.388738,-3.7854052000000005,-0.11428416,0.076846845,2.3404691000000004
2.3458292000000003,-10.458246,-3.2614104999999998,0.23277456,-0.26490608,2.4708973999999997
1.6355749,-11.159777,-2.3793576,0.53993505,-0.6332753000000001,2.6465650000000003
0.96011317,-11.405719,-1.3661889999999999,0.73263687,-0.79775506,2.8344846
1.2070703999999999,-11.385539999999999,-1.0899172,0.75019485,-0.6396457,2.89037
2.1532588,-11.026448,-1.7797251,0.5761331999999999,-0.14405948,2.7210906
3.3931584000000004,-11.051232,-2.7401732999999995,0.3211406,0.4846081,2.4315054
4.083616999999999,-10.790189,-2.946908,0.08319984400000001,0.95890135,2.1781185
5.132162999999999,-10.018748,-2.3985207,-0.048799407,1.0776012,1.9582595
5.8014956,-9.779251,-1.8805688999999999,-0.081279986,0.94027865,1.8012321
6.2390594,-9.788081,-1.3974093,-0.12332497,0.7975979999999999,1.7240362
6.9025507,-10.355688,-1.7237868000000003,-0.17655751,0.57988566,1.6638921000000002
7.580196000000001,-10.621952,-2.2830532000000003,-0.21594960000000002,0.3339513,1.5797848
8.636346000000001,-10.0651,-2.6101297999999997,-0.28621656,0.099728115,1.4610674
10.093005999999999,-8.507183,-2.9771802000000003,-0.39215803,-0.061557762,1.3258568000000002
11.110398,-6.5910172000000005,-3.0587267999999996,-0.5145929,-0.24040166,1.1597713
10.933572,-5.1425247,-2.9122686,-0.571543,-0.4208687,0.9580287000000001
10.016057,-4.379176599999999,-2.8079102000000002,-0.6205169,-0.38999382,0.63170445
9.055742,-3.8315269999999995,-2.5959947,-0.6439391999999999,-0.088697635,0.18509217
8.2255,-3.5463586000000005,-2.667955,-0.50714034,0.39995965,-0.41641809999999996
7.753699,-3.367818,-2.9367182,-0.09032079,0.8039859,-0.91041607
7.9684973,-3.288934,-3.1651156000000005,0.38236672,0.9258972,-1.188831
8.614932000000001,-3.242956,-3.3450157999999997,0.5740039000000001,0.7262664000000001,-1.3485286
9.685427,-3.5188062000000007,-3.6988406000000005,0.6384065,0.09759881,-1.3804681
11.01759,-4.1343455,-3.9814043,0.48244390000000004,-0.44535565,-1.5028856000000002
12.375983,-4.9174795,-4.015775,0.19764109,-0.39158207,-1.8425092
13.960524,-5.4249644,-3.4617476000000003,0.056042522000000004,0.00019198621,-2.1251826
15.454965,-5.5128984,-2.9109375,0.2104169,0.22055726,-2.3003266
16.296354,-5.374379,-1.786448,0.51597166,0.124756135,-2.3540826
16.233444,-5.7524239999999995,-0.46924440000000006,0.69483304,-0.15257668,-2.2939386
14.324174,-6.629803,0.23116496,0.6298893,-0.42458624,-2.1363528
12.8634615,-7.511061,-0.93437076,0.4350582,-0.56353194,-1.9452566999999998
12.026898,-8.9075985,-2.911512,0.34988615,-0.5672495,-1.7967466
11.7147045,-9.990534,-4.1776614,0.41589449999999994,-0.49220031,-1.7131628
12.681119,-9.915567,-4.473116,0.54206437,-0.48368308,-1.6711179
12.845658,-9.493986,-3.2794626000000004,0.5915619000000001,-0.472513,-1.6130856000000002
11.098514,-9.453353,-1.6455731,0.54206437,-0.4379031,-1.5359071000000002
9.194491000000001,-9.8096,-0.52705956,0.37543777,-0.37135372,-1.5199373999999999
7.784019,-10.588433,-0.82525265,0.16889551,-0.27607617,-1.5055558999999998
6.647117999999999,-10.7232275,-1.8420508999999998,-0.05518731,-0.14458308,-1.4305067
5.7810296999999995,-10.157707,-2.7075452999999996,-0.25108308,0.054471727000000005,-1.2303524
5.094162,-9.261097999999999,-2.2607682000000002,-0.31922072,0.1582839,-0.8944463
4.923887000000001,-8.258741,-1.0155054000000001,-0.23617795,0.099728115,-0.50426054
4.8016385999999995,-7.4158482999999995,-0.19549136,-0.19839157,0.054471727000000005,-0.008656833000000001
4.5800314,-6.934757,-0.2787138,-0.26227063,0.043825217,0.47041859999999996
4.2170033,-6.681891,-0.81202704,-0.3367962,0.07897615,0.8148244
4.113181,-6.3869925,-1.3162555,-0.39800490000000005,0.13060299,1.0251017
4.2534529999999995,-6.357908,-1.9529023999999997,-0.48530626,0.21736329999999998,1.2784886
3.9375424,-6.8407035,-2.052166,-0.63383377,0.33662164,1.5504981000000002
3.067001,-7.398954400000001,-1.7736246999999998,-0.6817430999999999,0.40795326,1.9060916
1.7475661,-8.018929,-1.0388441,-0.44006732,0.34353316,2.2414565
0.88392967,-9.005091,-0.3305435,0.20615830000000002,0.081088,2.4016952999999996
0.41060558,-9.646927999999999,-0.023434447,1.1952188999999998,-0.42352159999999994,2.2968185
0.4290026,-10.025689999999999,-0.48586014,1.8547789000000001,-0.5326569999999999,2.0759119999999998
1.6569121,-10.290327,-0.9377226000000001,1.9575088999999999,-0.23401375,2.0333259999999997
3.253634,-10.375426,-0.93773216,1.5822281999999999,0.16626006,2.0961404
4.202637999999999,-10.933419,-1.174174,0.83323765,0.6666634,2.1435087000000004
4.8589363,-11.831168,-1.4590743999999998,0.15505505,1.0802715,2.1046576
5.256805,-12.907515,-1.9394470000000001,-0.22446679999999997,1.267109,1.9832875
4.992993,-12.574491499999999,-0.34710178,-0.27344072,1.3139536,1.7937796000000001
5.10439,-11.819772,1.1325723,-0.18401006,1.2809495000000002,1.6245002
6.174828,-11.308236,2.6806726000000003,-0.17336355,1.3176887,1.4749079
7.827976700000001,-10.661992999999999,2.887369,-0.11747811,1.1739608,1.2891351
8.207084,-10.415889,-0.16799633,-0.18348646,1.0674957,1.0857868
7.845683999999999,-10.151711,-2.7393305,-0.19997983,0.76139987,0.91757196
7.937296000000001,-9.1931505,-5.5966096,-0.25907668,0.48832566,0.75361574
8.15807,-7.8018603,-6.5265846,-0.32667327,0.39196604,0.5641079000000001
8.375674,-6.4824543,-4.9692807,-0.4384616,0.38292524,0.39854592
8.362784,-5.6423,-3.4072267999999997,-0.5449267,0.39941859999999996,0.23778366
8.413742,-5.3223486,-1.6745908,-0.5113989000000001,0.24984388,0.059463367
8.254316000000001,-4.910019,-1.3383588,-0.42036256,0.08428195,-0.23755677
8.351607000000001,-4.478603400000001,-1.6966462,-0.36925929999999996,0.099728115,-0.6548999
8.707203999999999,-3.9611492,-1.52752,-0.43155012,0.38983673,-0.93437946
8.619269000000001,-3.9776502000000002,-2.5548238999999997,-0.36925929999999996,0.48404962,-1.0131636999999998
8.646419999999999,-4.100722,-2.4255657000000004,-0.12545426,0.13325588,-1.0615965
9.285806,-4.103154,-2.2943826,0.06510078,-0.40383428,-1.1669969999999998
9.892822,-4.3476787,-2.2995255,0.13430308,-0.8126601999999999,-1.3639573999999999
10.331833,-4.7511015,-2.2591398,0.11301007,-0.8259771,-1.6838936999999998
11.013386,-5.459421,-2.0764433999999996,0.11779227,-0.63114595,-1.9979657
11.99498,-5.8474544999999996,-1.4589882,0.27642524,-0.490071,-2.215678
13.250001000000001,-6.07816,-1.241997,0.43240532,-0.46027824,-2.3397186000000003
13.789682,-6.738241,-1.3930423,0.609661,-0.5438446,-2.3301368
12.397033,-7.5842466,-1.4700494,0.65969956,-0.7147298000000001,-2.2699926
10.918268,-8.421748,-0.7404116999999999,0.37969637,-0.58749527,-2.2140899
11.181898,-9.715383000000001,-0.9576424000000001,-0.050405107000000005,-0.29365164,-2.1331762999999997
12.362001,-10.803903,-1.7823203,-0.44858453,0.17317156,-2.0048945
13.570115,-10.992393,-1.7972792000000002,-0.5486616999999999,0.6426826,-1.8750072
13.617176,-10.448936999999999,-1.2506831,-0.31389746,0.72785467,-1.8010051999999999
12.102841999999999,-9.870001,-0.35623807,-0.13131857,0.71242595,-1.7919644000000001
10.296111,-9.612853,0.5497758,-0.011013027,0.51546556,-1.8222983
8.965653,-9.907024,-0.21682848,-0.010471975,0.31318188,-1.8116517
8.063796,-10.278193,-0.47348690000000004,-0.02857104,0.12260938,-1.6705941999999998
7.754311599999999,-10.246953,-1.5617762,-0.13877113,0.07309439,-1.4395651000000003
7.180393,-9.523292,-2.6587994,-0.31922072,0.18381807,-1.174467
6.29948,-8.397681,-2.0320356,-0.45762533,0.20191714,-0.90031064
5.245016000000001,-7.666023,-1.3705943,-0.7434928000000001,0.2721841,-0.50640726
4.644444999999999,-7.015528,0.4080773,-0.9649402,0.2716605,-0.06562438
4.384636,-6.639236500000001,1.0589075000000001,-1.0692760000000001,0.30944687,0.30112165
4.2590933,-6.5573735,-0.113916114,-1.044789,0.28815386,0.6258402
4.120268,-6.758515400000001,-0.42098686,-0.87496847,0.06138323,1.0096380999999999
3.405225,-7.103539,-1.1291151000000001,-0.7051654,-0.1728225,1.3609729
2.4928522,-7.4178880000000005,-1.0785973999999998,-0.66045004,-0.27769932,1.6037133
2.0218267,-7.604539999999999,-0.8052946,-0.6226461999999999,-0.40917498,1.8033439999999998
1.8445599999999998,-8.004994,-1.358269,-0.5108579000000001,-0.5539675000000001,2.0641835
1.7710963,-8.693508999999999,-1.2839049999999999,-0.3729943,-0.49488809999999994,2.2861545
1.3803530000000002,-9.088649,-1.8504497,-0.14035937,-0.39800490000000005,2.375585
1.6506393,-9.130614,-1.267184,0.26471409999999995,-0.51883405,2.2755080000000003
2.3172327999999998,-9.193313999999999,-0.52645624,0.6400121999999999,-0.7525335999999999,2.0907998
2.5551397999999996,-9.661074000000001,-0.08348103,0.85400707,-0.8637984000000001,1.9672828000000002
3.1363659999999998,-10.128910000000001,-0.022112846000000002,0.83962554,-0.6125233,1.8853221000000002
4.2147144999999995,-10.069581,-0.4710927,0.5723982,0.015062191499999999,1.817708
5.781193,-10.449264,-1.1590331,0.24980898,0.70921457,1.7059197
6.686661,-11.059441,-1.440687,-0.02591814,1.2106651000000002,1.524929
6.7743363,-10.413514,-0.7945972,-0.18029252,1.3448111,1.3194515
7.5470023,-9.837985,-0.3272395,-0.20371483,1.1425275,1.2215036
8.712997999999999,-9.196119,0.20809443,-0.19891517,0.79119265,1.2342794
10.020232,-9.001883,0.15012603,-0.22979005,0.49042007,1.2470552
10.705653,-9.265541,-0.6677907,-0.2766347,0.2184105,1.1805233
10.88135,-9.120165,-1.5539998,-0.27291712,-0.027506389,1.0596766000000002
10.819752000000001,-8.144825,-2.2765987,-0.22713715,-0.3080506,0.9021083000000001
10.351896,-6.6900606,-2.5460324,-0.15474088,-0.5529203,0.78873175
9.913671,-5.3062787,-2.4082222,-0.1052259,-0.65884435,0.66627944
9.328232,-4.2998905,-2.3374496,-0.14196508,-0.62851053,0.47359508
8.339943,-3.9228709000000004,-2.1590621,-0.15419984,-0.5151339,0.14514159
7.032967,-3.8982870000000003,-2.0534973,-0.21223204,-0.12866567,-0.33660419999999996
6.412132,-3.801389,-2.1394587000000005,-0.26492350000000003,0.47338566,-0.80717987
6.9455314,-3.4700794000000004,-2.1998882,-0.022183135,0.67621034,-1.0185044
7.7470045,-3.3081739999999997,-2.0540811999999997,0.27110198,0.46219808,-1.1947128
8.664386,-3.226436,-1.7583305,0.33232814,-0.035499997,-1.3203416000000001
9.326708,-3.6526227,-1.5667752000000001,0.16517796,-0.5438795,-1.4603343999999998
10.216365,-4.282987,-1.3441334999999999,-0.094055794,-0.5193751,-1.6753938999999998
11.779119,-5.04692,-1.5880548,-0.2516241,-0.111090206,-1.9069642
13.560835,-5.4760279999999995,-1.769995,-0.023265239,0.09969321,-2.0464333999999997
15.076691,-5.5873775000000006,-1.3350452,0.46380379999999993,-0.13505358,-2.109248
15.815531,-5.811101,-1.296853,0.94609064,-0.6971892,-2.1470516
14.476367999999999,-6.291789499999999,-0.5427464,1.188831,-1.3583374,-2.1401227
12.516245,-6.810852499999999,0.003265691,1.1169584,-1.8949214,-2.0592093
12.416532,-8.109103,-1.4517385,0.6320186,-1.9178201000000001,-1.8995116
13.008780499999999,-9.567900999999999,-3.3122056000000004,0.14706144,-1.5558214,-1.7877233000000001
13.553126,-10.054133,-3.8807232000000003,-0.12173671,-0.94951147,-1.7680360000000002
13.314587,-9.34863,-2.6141331,-0.21809635,-0.26228809999999997,-1.7691006999999999
11.6959915,-8.824549000000001,-0.77215874,-0.11269591,0.25672048,-1.7845293000000002
9.638232,-8.705145,0.8754158999999999,0.038467057,0.39032543,-1.8116866000000003
8.389138,-9.115138,1.0614741,0.13535029,0.37170276,-1.8004991000000001
8.048157000000002,-9.851938,-0.04850653,0.11246902,0.3094294,-1.7014866000000002
7.8426100000000005,-10.239991,-1.6099187,0.025167647999999997,0.2258456,-1.5013322
7.198100599999999,-9.650547999999999,-2.7244291,-0.09246755,0.15610225,-1.2538096
6.589571,-8.393267,-3.0720098,-0.307527,0.17259560000000002,-0.96050704
6.515437,-7.021733800000001,-1.6061166999999998,-0.59711206,0.20933479,-0.60596085
6.4024496,-6.2707973,-0.038278493999999996,-0.95429367,0.30941197,-0.16626006
6.0193294999999996,-6.085716000000001,0.8215368000000001,-1.1640298,0.40097195,0.21912609
5.4950665999999995,-6.1697144999999995,0.8061851999999999,-1.2172624,0.5191482,0.6178291
4.911293,-6.375596,0.14303918,-1.1624416000000002,0.66765827,1.054877
3.9858190000000002,-6.571356,-0.63935715,-0.9537701,0.6101671,1.4636855
2.9697294,-6.7006619999999995,-1.2730927,-0.7408399,0.42599997,1.7612641
2.0793643,-6.848834,-1.454899,-0.6588618,0.24073327,1.9443841
1.6392046000000002,-7.1809389999999995,-1.7011186999999999,-0.64076275,0.11564551,2.1887126
1.7335744999999998,-7.7514386,-2.2971888,-0.533233,0.078906335,2.444229
1.6938593000000002,-8.406472,-2.563376,-0.21329668,-0.03338815,2.5288772999999996
1.9612630000000002,-9.062082,-2.3992487999999996,0.25513223,-0.37833503,2.3409752999999998
2.4724345000000003,-9.518532,-1.5491538,0.60166734,-0.81644756,2.0774653
2.7633493,-9.818430000000001,-0.66643083,0.7991688,-1.1677823,1.9390608
2.920543,-10.091101,-0.07151002,0.84814274,-1.0410714,1.9124444999999999
3.7388427,-10.276651,0.015600618,0.5308768,-0.29742154,1.8592118999999998
5.187316,-10.399771000000001,-0.6125996,0.002268928,0.6852337,1.7575291000000002
6.586947,-10.818373,-1.57006,-0.36128315,1.3368,1.6537343
6.621509599999999,-10.48305,-1.331473,-0.46348962,1.4842454,1.5190473
7.205781,-9.954439,-0.5739380999999999,-0.39535198,1.2782267,1.3843777
8.35516,-9.097056,0.17065870000000002,-0.3203028,1.0424154,1.3050525
9.962954,-8.358388,-0.26297912,-0.31497958,0.8214915999999999,1.2459731
10.445136,-8.607634,-1.5477748,-0.28516933,0.49624947,1.1959345
10.751709,-8.821168,-2.230649,-0.23832470000000003,0.050160762000000005,1.1107625
11.05085,-8.163807,-2.7078135,-0.21916099,-0.27293459999999997,1.02292
11.219947,-6.709731,-3.1824017,-0.286234,-0.4273264,0.9212546
10.522822999999999,-5.2682400000000005,-3.0811653,-0.34372514,-0.49546406,0.7913671999999999
9.636814999999999,-4.3703566,-2.2613618,-0.3362726,-0.6162932,0.67638487
8.823303999999998,-3.9027402,-1.6080033,-0.25481808,-0.76588535,0.5054997
8.023937,-3.5159809999999996,-1.3446125,-0.094055794,-0.7983485,0.16001178
7.4135118,-3.152206,-1.3911748,0.16463691,-0.5779658000000001,-0.30202922
7.217809700000001,-2.9118185000000003,-1.6907086,0.49042007,-0.1505172,-0.8274256999999999
7.411749400000001,-2.7230406000000005,-1.7984476999999999,0.669805,0.2327571,-1.2325166
8.188621000000001,-2.9169996,-1.8072393,0.6368008000000001,0.30087729999999996,-1.522119
9.118863000000001,-3.2020726,-2.0664835,0.51490706,0.029932396,-1.7483487000000002
10.179657,-3.6463692,-2.0212042,0.30197686,-0.25750586,-1.9751193999999999
11.293115,-4.338609,-1.9121244,0.14440854,-0.22769566,-2.2285060000000003
12.372966,-5.2654046999999995,-1.5532815,0.08478809,-0.01956514,-2.47657
13.801079000000001,-5.830513,-1.1361157,0.114057265,0.0038397241999999997,-2.696429
15.451027999999999,-6.1419125,-0.4449863,0.16196655,-0.16009904,-2.7736075000000002
16.36233,-6.4205976,0.32402167,0.082117744,-0.35014796,-2.6527784
15.99818,-6.6470127,0.32758427,-0.06798057,-0.46830675,-2.3844862
15.174805,-7.7877636,-1.6177046,-0.20532054,-0.32457888,-2.1417458
14.817696,-9.213184,-3.313623,-0.18987437,-0.07333873,-2.0075998
14.486529,-10.014294999999999,-4.2277484,0.056042522000000004,0.0017104226999999999,-1.9224278000000001
13.590838,-9.88044,-3.7477782,0.45261624,-0.11379547,-1.817551
12.627394,-9.331602,-2.443168,0.8140739,-0.3501305,-1.6631767
11.461186999999999,-9.388182,-1.8152167000000001,0.98920023,-0.68336624,-1.4784684
10.2890625,-9.806123,-1.9282708,0.81833255,-0.9016371,-1.3432578000000002
8.875823,-10.404684,-2.2894602,0.39353684,-0.9761451999999999,-1.2170879
7.233716499999999,-10.484296,-2.652172,-0.007819075,-0.90428996,-1.0840065
5.819930599999999,-9.653843,-2.0651330000000003,-0.33733723,-0.7371398,-0.85297734
5.324589700000001,-8.169323,-1.0236553,-0.62692225,-0.53007394,-0.57510346
4.845366,-7.0800279999999995,0.2652105,-0.9713280999999999,-0.25965264,-0.29457667
4.042916,-6.3599477,1.1950705,-1.2880704,0.10869910599999999,-0.0726057
3.2515461,-6.1066985,1.0005177,-1.3508848,0.41957715,0.1829105
2.5902963,-6.0134300000000005,0.31870654,-1.0980215,0.5622578,0.43949136
2.7216423,-5.8736854,-1.3581348999999998,-0.69293064,0.69053954,0.6987251
3.3112192000000005,-5.6791806,-2.94844,-0.42196825,0.7842288000000001,0.973405
3.4714775,-5.842724,-3.435919,-0.3926991,0.8496961,1.2321151000000001
3.7189615,-6.790961299999999,-3.002913,-0.5609139,0.8832413,1.5813206
3.5683373999999994,-7.8466705999999995,-2.2337136,-0.6993185000000001,0.8470431999999999,1.9422373
3.7778587,-8.591975,-1.9256563000000002,-0.5736897,0.73951346,2.2030768
4.2209395999999995,-9.058251,-1.8208574,-0.08660324,0.362086,2.3217765999999997
4.3634996,-9.197173,-0.9480847,0.54949945,-0.26443484,2.4032311
4.1333212999999995,-9.274343,0.72660196,0.941832,-0.69403017,2.5368536
4.125363,-9.318586999999999,1.8361611,1.099924,-0.69881237,2.6268077
4.321658599999999,-9.3486395,1.6784886000000003,1.1137643999999998,-0.20057324,2.509155
5.0271344000000004,-9.7652025,0.048439487999999996,0.86783004,0.56011105,2.1072580000000003
5.7448387,-10.693625,-1.7640765999999999,0.52448887,1.0221695,1.738889
5.4084635,-10.51633,-2.5263807999999996,0.2817485,1.0722082,1.5962257
5.5542417,-9.876791,-1.740939,0.023038346,1.0759257,1.5578983
6.248378,-9.134167,-0.36444540000000003,-0.07436848,1.0349454,1.5914261
7.1100125,-8.712913,0.7626394000000001,-0.012077678,0.8795063,1.5366053999999998
7.962913499999999,-8.977644,0.3349105,0.013456488,0.7299141,1.3188756000000001
9.513073,-9.2085495,-0.89181143,-0.089273594,0.63409555,1.0702883
11.276824000000001,-8.615143,-1.5530708,-0.24204226,0.4898441,0.91697854
12.935135,-6.7819304,-2.0200261999999998,-0.35650095,0.29660127,0.8035845
13.085576,-4.705842,-3.0992558,-0.3841819,0.09431759,0.70830697
10.709446,-3.7930667000000002,-3.6562620000000003,-0.3192382,-0.13189453,0.5752255999999999
8.433758000000001,-3.4944906000000002,-3.7190665999999997,-0.1648638,-0.35227725,0.39423496
7.318624499999999,-3.407428,-3.5264292,0.037943456,-0.44224897,0.12168436
7.05735,-3.3109703,-2.5555133999999997,0.09063495,-0.29586822,-0.20994565
7.981282000000001,-2.9498862999999997,-2.2059026000000004,-0.02432989,-0.08398525,-0.5293409
9.056097,-2.5214105,-2.6624767999999994,-0.15261158,-0.088784896,-0.8109498
9.173221,-2.687415,-3.1720490000000003,-0.21329668,-0.39327505,-1.0244036
9.041407000000001,-3.2867122,-3.227815,-0.1707281,-0.60994023,-1.1819719
9.653546,-4.0582485,-2.8295631,-0.1627345,-0.37943459999999996,-1.5258541
10.387312,-4.7059755,-2.2442482000000004,0.12044517,-0.10847221,-1.8947468999999997
11.394101,-5.3208356,-1.6589615000000002,0.49893728,0.11189306,-2.0954422999999998
12.636538999999999,-5.837743799999999,-1.2227092,0.87901765,0.11667526,-2.1539981
14.021834,-6.2405057,-1.0455287,1.0557497,-0.0930435,-2.1215174
14.892701,-6.854973299999999,-1.7187303,1.0072993000000001,-0.4970872,-2.0597851
14.948926,-8.150571000000001,-2.597096,0.68790406,-0.8143357,-1.9612962999999999
15.791167999999999,-10.46066,-3.133512,0.21467550000000002,-0.89313734,-1.7680709
15.424147,-11.962906,-3.0237043,-0.15208799,-0.7834783000000001,-1.5641816000000002
14.508795000000001,-10.527698,-1.512944,-0.2947512,-0.6072699,-1.4491992
13.337810500000002,-8.289827,0.032427065,-0.28782225,-0.42521456,-1.4002253
11.153264,-7.497107499999999,1.6020561000000002,-0.31817353,-0.21708405,-1.383732
9.019418,-7.766646400000001,1.4416924999999998,-0.4012163,-0.069097586,-1.4060895
7.770908400000001,-8.283219,0.41453207,-0.44966662,0.05651376,-1.4178008
6.800615299999999,-8.670860000000001,-1.4412616000000003,-0.52578044,0.27904323,-1.348581
6.2006664,-8.526738,-2.8868134,-0.572084,0.46640435,-1.1952888000000002
5.554567,-8.070558,-3.7280593,-0.5774246999999999,0.5776690999999999,-1.0313325
4.8271227,-7.48053,-3.2778633000000004,-0.58327156,0.59203315,-0.82531387
4.754597,-6.8921695000000005,-1.8607736000000001,-0.5619786,0.4823741,-0.53839916
5.1001096,-6.463751,-0.5578776999999999,-0.55771995,0.3434459,-0.20409879999999997
5.3100615,-6.24155,0.053227894000000005,-0.6306398,0.22685789999999997,0.22441444
5.37029,-6.2053494,-0.25689784,-0.7195469,0.22366394,0.61833525
5.4309974,-6.348159,-0.3763685,-0.6742905,0.22314034,0.94253016
4.987438,-6.6394663000000005,-0.20842004,-0.5284508000000001,0.13103932,1.1927056
4.243876,-6.8983083,-0.12632766,-0.38311723,0.0016929694,1.4035065
3.4931405,-6.967308999999999,0.09124782,-0.34372514,-0.09995501,1.6239066999999998
3.125372,-7.2416368,0.015093047,-0.38205257,-0.21282545,1.9187975
2.8771315,-7.8480300000000005,-0.31175378,-0.42144465,-0.23998277,2.2360634999999998
2.7529874,-8.411089,-0.53564996,-0.39802232,-0.23198916,2.4905150000000003
2.5567775,-8.820038,-0.8129656,-0.15954055,-0.23998277,2.4463407999999998
2.7393115000000003,-9.116316000000001,-0.99568146,0.29237756,-0.3549476,2.1988008
3.5485803999999996,-9.251578,-0.77241737,0.69588023,-0.5194449000000001,2.0231333
4.5329037,-9.428797,-0.30736762,0.76188856,-0.44279003,1.9400905
5.470157,-9.520332000000002,-0.25151566,0.47071528,-0.010541788,1.8831403999999998
6.3243504,-9.795810000000001,-0.7014531999999999,0.11086331,0.5318891,1.7766753
7.0546784,-10.702972,-1.5456775,-0.17496926,0.97851884,1.5802559999999999
7.026512599999999,-10.644669,-1.7648331000000002,-0.28516933,1.2063366000000002,1.3545326000000002
7.035381,-9.68445,-1.3109117000000001,-0.23300146,1.2116599,1.2294448999999998
7.3968476999999995,-8.72495,-0.9443689000000001,-0.19467403,1.1243584999999998,1.1841885
8.890025,-7.909398599999999,-0.039571367,-0.19095647,0.9199456,1.1501197
9.547377000000001,-7.999295699999999,0.14403518,-0.22874285,0.67879343,1.1085982
9.542627,-8.228315,-1.0297079,-0.29103366,0.44669956,1.0692061000000002
9.548403,-8.010634,-2.5650904,-0.28677505,0.14435618,1.0287495
9.531404,-7.0797024,-3.3599940000000004,-0.21383774,-0.10210176,0.9531591999999999
9.377571000000001,-5.823407,-2.9330215,-0.16432275,-0.20270254,0.8711810999999999
9.221881,-4.908151599999999,-2.3279781,-0.08555604,-0.30970868,0.75513417
8.495078,-4.592203,-1.4333128000000002,0.05921902,-0.5231799,0.62311745
7.550508,-4.6542224999999995,-1.2336076,0.17793632,-0.67008424,0.40540507
7.044440299999999,-4.563061,-1.544509,0.19230038,-0.56787777,-0.00075049157
6.929816000000001,-4.360665,-1.7940615000000002,0.14332643,-0.21495475,-0.49314278
7.050742,-4.2789555,-1.9498857,0.11086331,0.1619142,-0.8386306999999998
7.317972999999999,-4.409315,-1.9234825,0.19655898,0.23165755,-1.0739186
7.970556299999999,-4.585758,-1.4344428999999999,0.34773940000000003,-0.08028515,-1.2549092
8.777307,-4.773071,-1.0267678,0.43504077,-0.6072699,-1.359245
9.620467999999999,-5.142180000000001,-0.9576424000000001,0.44462264,-0.9000663000000001,-1.5322594999999999
10.578655,-5.594742,-0.844253,0.4254589,-0.7882779000000001,-1.867607
11.647886,-6.048548,-0.8266700000000001,0.37009707,-0.47952920000000004,-2.1673150000000003
13.429613,-6.229004,-0.96999645,0.44249332,-0.35390040000000006,-2.3344650000000002
15.038403,-6.240803,-1.1830516000000002,0.6048613,-0.45396015,-2.3658636000000004
15.108888,-6.5413804,-1.046563,0.641583,-0.675425,-2.323295
13.712292000000001,-7.133839599999999,-0.8070662,0.39512509999999995,-0.6903301,-2.288144
12.80127,-8.306147,-0.9593375,-0.039776053,-0.4880464,-2.2466402000000003
12.718095,-9.862014,-1.5974496999999999,-0.34585443,-0.17716837,-2.1737029999999997
12.434363000000001,-10.365859,-1.9054685000000002,-0.40653953,0.13688618,-2.1013067000000003
12.538329,-9.336994,-1.2476377,-0.25909412,0.3136182,-2.0438153999999997
12.149539,-8.266603,-0.6032048000000001,-0.043493606,0.36793286,-2.008141
10.739824,-8.238036,-0.29907408,0.07838274,0.50738466,-1.9836714
9.312314,-8.926608,-0.13111606,0.17100736,0.5909685,-1.9277685000000002
8.458466,-9.891501,-0.66159457,0.29717723,0.50633746,-1.8351438999999998
8.271048,-10.316271,-1.7942721999999998,0.38021997,0.38282052,-1.6850281000000003
8.159756,-10.040467999999999,-2.81832,0.25778514,0.4323355,-1.4348352
7.6010065,-9.406119,-2.5005903,-0.027523842000000003,0.6111969,-1.1196985000000002
6.680637,-8.761878,-1.0425408,-0.37939966,0.75386006,-0.70980793
5.949408999999999,-8.143763,0.22377166,-0.738187,0.7884699000000001,-0.27914795
5.3657699999999995,-7.6981344,0.85985357,-1.073552,0.77089447,0.14615387
4.9480968,-7.1774816999999995,0.7777324999999999,-1.2949993999999998,0.6170437,0.54539794
4.545191,-7.123918499999999,0.23995647,-1.3104281,0.39507273,0.9648704
3.859482,-7.2278842999999995,0.033020827999999995,-1.2055687,0.21992894,1.4269288999999998
3.183206,-7.278938,-0.2588228,-1.1001683,0.111334555,1.8224379000000002
2.4615076,-7.167627,-0.7312946,-1.0400068,0.010192723,2.0305858
1.8050078,-7.0768867,-1.4927177,-1.0400068,-0.07813839,2.1855013
1.3332542,-7.4415045,-2.1019175,-0.9835803,-0.22347195,2.4213127999999995
1.0173345999999999,-8.034336999999999,-2.2698948,-0.7701265,-0.39861575,2.6235964
1.0986799999999999,-8.524612,-2.2372189,-0.42144465,-0.5151863,2.660859
1.3560758,-8.966553999999999,-1.9729371,0.019303342,-0.73663366,2.5176722999999996
1.8204074000000001,-9.392808,-1.1063702,0.38287288,-1.0421884,2.3654099
2.1412877999999997,-9.772863000000001,-0.06857951,0.5404412,-1.1704701000000002,2.338811
2.8863347000000004,-10.174821000000001,0.39076245,0.5186246,-0.8894198,2.3568926
4.1644936,-10.390031,0.33164479999999996,0.28120744,-0.019600047,2.2680029999999998
6.0697894,-10.913528,-0.1278408,-0.062133722,1.0077705,1.9954523999999998
6.7142990000000005,-11.170569,-0.31182083,-0.23300146,1.5699062,1.6292125
6.8465834,-10.852121,0.27127263,-0.22767820000000003,1.5661886999999999,1.4077652
7.59028,-10.273434,1.0508822,-0.22874285,1.4075556999999999,1.325246
8.909016000000001,-9.64665,1.3859267,-0.27186993,1.1775737,1.3369571000000002
9.96889,-9.586153,1.1721723,-0.31710887,0.8709716999999999,1.3768902
10.417957000000001,-9.915854,0.25041434,-0.35171875,0.60374427,1.3529269
10.595999,-9.938217,-0.5319055,-0.4006927,0.40624285,1.2778777
11.098916000000001,-8.945705,-0.8228776,-0.4571192,0.283808,1.1921645
11.457510000000001,-7.298992,-0.92386496,-0.45924848,0.074612826,1.1330853
11.315697,-5.700076999999999,-0.6993845999999999,-0.43422046,-0.2719223,1.0457839
10.249893,-4.879594,-0.51419795,-0.36981782,-0.79040724,0.9169610999999999
8.609856,-4.6633396,-0.60239077,-0.26548204,-1.2652415000000001,0.67209136
7.4533124000000015,-4.434368,-1.0780036,-0.23778366,-1.3339028,0.23506095
6.699388000000001,-4.153059,-1.300856,-0.2505769,-0.7664439000000001,-0.34835026
6.792695,-3.8383844,-1.3425438,-0.07703883,-0.011065387,-0.8492772
7.675121300000001,-3.7212214,-1.285284,0.35945055,0.21141173,-1.1692135000000001
8.219361,-3.6906235,-1.1002028,0.68577474,-0.1579872,-1.4390938
8.592723,-4.016733,-0.8848011999999998,0.6570292,-0.6743429,-1.6264724
9.243649000000001,-4.5601400000000005,-0.60433483,0.46432740000000006,-0.7919955,-1.9011523000000001
10.408113,-5.248473000000001,-0.6235555,0.54363513,-0.6322979000000001,-2.2876205
12.098887,-6.0355906,-0.44286984,0.7895694999999999,-0.45663050000000005,-2.6517310000000003
14.107729,-6.3705974,-0.009672575,1.0477561,-0.378911,-2.8545384
15.795832,-6.4748507,0.4534235,1.2819791999999999,-0.55457836,-2.9029887000000003
16.232592,-6.6935754,1.3461254999999999,1.3080544,-0.9495638000000001,-2.8556204
14.863798000000001,-7.6216539999999995,2.6764398,0.9647133,-1.2412782,-2.7273214
14.175915,-9.454386999999999,1.9980859,0.40257764,-1.2907757,-2.6011515
14.346410999999998,-11.164776,-0.12945928,-0.10311405,-1.0650697,-2.5362077000000003
14.000945999999999,-11.392541,-1.4397962,-0.2835811,-0.64187974,-2.4765873
13.866116,-10.449867,-0.4414333,-0.24471262,-0.03822271,-2.3775747000000003
12.874628,-9.408494000000001,0.98965764,-0.055204764,0.3359759,-2.316366
11.027932,-9.354175,1.6510415,0.24340361,0.4051782,-2.3099782
9.401425999999999,-10.202525999999999,1.0699878999999999,0.47071528,0.29979520000000004,-2.3541524
8.438335,-11.2711735,0.15652333,0.47975612,0.32745868,-2.3200836
7.886337299999999,-11.665575,-1.5939925,0.45048693,0.41636574,-2.1667737999999996
7.362946000000001,-11.042767,-2.9565422999999997,0.464851,0.55637604,-1.8697363
7.067300299999999,-9.8503685,-2.7513688,0.42865285,0.7336316999999999,-1.4662336
6.8774977,-8.737055,-0.9055636999999999,0.1699427,0.943909,-1.0212096
6.373059,-8.292624,0.8318319,-0.25322983,1.0178934000000002,-0.5602158
5.7622404000000005,-8.050493,1.7438025000000001,-0.6226636999999999,0.85500187,-0.14606660000000002
5.324197,-7.836404300000001,2.0855987000000002,-0.8132362,0.5675462,0.27551767
5.1890683,-7.871532000000001,1.5583571000000003,-0.84836966,0.3785619,0.78175044
4.8381934,-8.000732000000001,0.82649755,-0.82601196,0.31363568,1.305035
4.002607299999999,-8.317581,0.0863828,-0.8286823,0.23005185,1.7277014
2.9178138,-8.531403,0.10443508,-0.93247706,0.07300712,1.9773532999999999
1.8507754,-8.845148,0.15411955,-1.1262435,-0.04195771400000001,2.0864887
1.1803796999999998,-9.232492,-0.46037626,-1.3833654,0.016598081,2.1312041
0.94600654,-9.422802,-1.7336223000000002,-1.3391737,0.05066691,2.1961477000000005
0.80039126,-9.224725,-2.3025036,-0.81803584,-0.20643754,2.2440395
0.97251517,-9.112475,-2.0632272,-0.02167699,-0.7456745,2.409078
1.0270838,-9.13659,-1.321178,0.69588023,-1.2950518,2.7657185
1.4285818000000001,-9.306913,-0.5166016999999999,1.0908657,-1.5090291999999998,3.072879
2.5952189999999997,-9.527189,-0.4534235,1.0594671999999998,-1.2210497999999999,3.1229177000000004
4.899274,-10.526567,-1.0581318000000002,0.73794264,-0.63016856,2.8200157000000003
6.878761999999999,-10.644516000000001,-1.8709154,0.45155159999999994,-0.1452114,2.412272
7.827373,-9.551093,-1.9714336,0.27960175,0.2401573,2.1232104
7.913622,-8.978074000000001,-1.1633712999999999,0.12789772,0.45736352,2.0609372
7.9021587,-9.014035,0.6885437,0.059760075,0.42275366,2.045491
8.089423,-10.105628999999999,2.1234748,0.046984263,0.12730432,1.9842648999999997
7.860222,-11.331125,2.1792214,-0.018465584,-0.24848253,1.8746232
7.737897,-11.2733,1.0412191,-0.13931218,-0.43853143,1.7426065
8.791461,-9.479229,-0.45857581,-0.31072098,-0.50560445,1.5291353
10.291763000000001,-7.077739200000001,-1.648111,-0.44008476,-0.5822593,1.2714899
11.269344,-5.128935299999999,-2.0805423,-0.48851764,-0.7068234,0.9914866
10.891501,-4.181712999999999,-1.5861491,-0.41292745,-0.8069006,0.7476816
9.50365,-4.290946,-1.2406561000000003,-0.35065409999999997,-0.58119464,0.3106337
8.45903,-4.4868684000000005,-1.3959919,-0.39589304,0.33332297,-0.38083085
8.476977,-4.2036432999999995,-1.4555022,-0.25961772,1.3058902000000001,-1.0946705
8.868497,-3.7423862999999997,-1.6654162000000001,0.20242329,1.4666525,-1.6057028999999998
9.715929,-3.541254,-2.0269407999999998,0.66287607,0.8997171999999999,-1.941609
10.877135,-3.5631564,-2.184872,0.76827645,0.10868165,-2.0810783
12.234419,-3.7762496,-2.1759846,0.43238786,-0.44011968,-2.1130178
13.551076,-4.4345975,-1.8895422,-0.0365821,-0.5364793000000001,-2.2189417000000002
14.942749,-5.7035728,-1.6643723999999998,-0.2511005,-0.44865432,-2.4595528
16.19663,-6.2216873,-0.9870145,-0.14304718,-0.41243875,-2.6953819
17.487335,-6.090629,-0.49244899999999997,0.13428563,-0.5098630000000001,-2.7943943
17.82101,-6.1802197,-0.14101848,0.47551495,-0.7978424,-2.6666362
16.457178,-6.942476299999999,0.9058606,0.64051837,-1.1316191,-2.3983442999999998
14.839291000000001,-8.923372,0.30406362,0.53246504,-1.3360319999999999,-2.1178
14.092185,-11.066517999999999,-1.3567653999999998,0.33922220000000003,-1.3711655,-1.8990228999999998
13.224565,-12.350624,-3.427568,0.25617942,-1.2599183,-1.7941460999999999
12.261157,-12.140642,-4.1789446,0.31367058,-1.0911624,-1.7302669999999998
11.592591,-10.870586,-3.0998878,0.3908665,-0.92507684,-1.6413773999999997
10.615986,-9.92004,-1.1034492,0.43345252,-0.8489456,-1.5242659
9.384217,-10.090784,0.39873993,0.43929937,-0.88940233,-1.4284472
7.860796499999999,-11.052764999999999,0.67260784,0.29824185,-0.9197536000000001,-1.3464691999999998
6.5183480000000005,-11.399819,0.2731114,0.12257447,-0.89153165,-1.2905662
5.261373000000001,-10.702359,-0.5543439,-0.05042256,-0.7334397,-1.2948248
4.469524400000001,-9.311826,-0.8594993000000001,-0.2947512,-0.38636354,-1.2378746999999999
4.380824,-7.965863000000001,-0.30271327,-0.70464176,0.064507365,-0.94774866
4.3716207,-6.9388947,0.65168256,-1.238573,0.55742323,-0.4404513
4.116609599999999,-6.4406419999999995,1.1304558999999998,-1.7352238000000002,1.0264107,-0.016179202
3.7265177000000005,-6.322579,0.9727929,-1.9257963,1.4048853000000001,0.27869418
3.5652442000000004,-6.2271175,0.4918648,-1.8401006000000002,1.4996566999999998,0.5874604
3.5893393,-6.2321644,-0.058859054,-1.5212290000000002,1.3234483,1.0063918
3.7305398000000003,-6.364372299999999,-0.6320501000000001,-1.2092863,1.1451105,1.4609976999999998
4.053307,-6.590289,-0.6985706,-1.0176492,1.0312103000000001,1.9289203999999998
4.247812000000001,-7.086539999999999,-0.6790914,-0.79567814,0.92952746,2.2557682999999997
3.6622282999999998,-8.0669565,-1.3196553,-0.36927676,0.59203315,2.4851918
2.4127134999999997,-8.884289,-2.0162914,0.26256734,-0.027576202999999997,2.603368
1.4571302,-9.181389999999999,-2.1329367,0.77946407,-0.75153875,2.6012387
1.9102378,-9.215387,-1.2389132,1.1446393,-1.3104805,2.6188142000000005
2.2017176,-9.616273,0.06880936,1.3048605,-1.2497953000000002,2.7082447999999997
2.093126,-10.428549,1.0863835,1.3213713,-0.6482675999999999,2.7300615
2.2752673999999997,-11.151435000000001,1.5124267,1.1403806,0.2225993,2.5405536
3.0189543,-11.902352,0.87604797,0.81937975,1.0455744,2.2461865000000003
3.6915047,-11.158694,0.6996336,0.57770395,1.3740104,1.9789416000000002
4.9182076,-10.44549,0.73377496,0.47657959999999994,1.3026963,1.8187203
5.873225700000001,-10.071477999999999,1.2073863999999999,0.35412732,1.1499101999999999,1.8144616999999998
7.2196198,-10.243132000000001,0.8912751,0.27907816,0.87735957,1.8320372
8.781452999999999,-10.861429,-0.41431183,0.27907816,0.46588072,1.7788046999999998
9.682535000000001,-11.245689,-1.180399,0.25991443,-0.023317598,1.5733271
10.188448,-10.588051,-1.1870931,0.1529083,-0.37732273,1.3247223999999997
10.987432499999999,-8.810728999999998,-1.2761478000000002,-0.033911746,-0.4715356,1.1112686
11.413350999999999,-6.9075975000000005,-1.7950191000000002,-0.11482521,-0.51890385,0.9004677
10.98431,-5.518318700000001,-2.3506367000000004,-0.06265732,-0.6647609999999999,0.62685245
10.010425999999999,-4.9157367,-2.291251,0.011850785,-0.7153406999999999,0.24836035
8.739315,-4.902626000000001,-2.464802,-0.096185096,-0.37995818,-0.26317820000000003
7.785829,-4.7142215,-2.8014936,-0.240454,0.17842501,-0.82053167
7.985103,-4.4138546,-2.6586747,-0.14837044,0.39933133,-1.2373338
8.796211,-4.054676000000001,-2.5834394,0.03260275,0.20450023,-1.5673754
10.037911,-3.6293705000000003,-2.9238567000000004,0.11725122,-0.3112969,-1.7760470000000002
11.019332,-3.6697937999999994,-3.1098475,-0.027000242999999997,-0.88142616,-1.8873118000000002
12.01103,-4.2548794999999995,-2.8621627999999997,-0.40599850000000004,-0.95221674,-2.0858605
13.355785999999998,-5.017289,-2.2668111,-0.75948,-0.6014229999999999,-2.4015381000000002
14.935910999999999,-5.590921,-1.9025476000000003,-0.83133525,-0.22134265,-2.6783473
16.150183,-5.5477386,-1.7643639,-0.6939953000000001,-0.01425934,-2.7565904
16.969393,-5.592922,-2.0104783,-0.46296602,-0.04194026,-2.6000867000000003
16.348135,-5.9395833,-1.4637191,-0.24844761,-0.30384436,-2.297726
14.573142,-6.9188979999999995,-0.8986301,-0.15741125,-0.55403733,-1.9352211
13.891992000000002,-8.631825,-1.6723787,-0.09831439999999998,-0.61526346,-1.7345256999999998
13.692986,-10.807043,-2.881307,0.06668903,-0.5598841999999999,-1.6924633000000002
13.364882999999999,-11.3643465,-3.6420405,0.32433453,-0.51358056,-1.6584119
13.346209,-10.764044,-3.1853898,0.60644954,-0.54445547,-1.5540761
12.13074,-10.100083999999999,-1.5764381,0.80714494,-0.6445326,-1.4326885
10.269094,-10.331728,0.044369347,0.8646360999999999,-0.7020238,-1.3150532
8.114907,-11.371232000000001,0.67302924,0.75391245,-0.6498559,-1.2043295
6.461807,-12.158877,0.7200801,0.58143896,-0.558837,-1.1031877
5.3143139999999995,-11.902783,0.5012787999999999,0.42387065,-0.4113741,-1.044632
4.6967344,-10.649734500000001,0.49685429999999997,0.17100736,-0.18566813,-0.97010636
4.8591565999999995,-8.870968,1.386147,-0.18083356,0.05864306,-0.7986976
4.779028,-7.5397625,2.157645,-0.5827479999999999,0.30511847,-0.47823766
4.0010176,-6.818504300000001,2.3874788,-0.88723814,0.49675559999999996,-0.063023835
3.2454362,-6.554740400000001,1.9790854,-0.9745395,0.6537829000000001,0.3516315
2.968178,-6.421182,1.2110542,-0.9170309000000001,0.7953989,0.7327939
3.062414,-6.45901,0.22647232,-0.8036543,0.9029111999999999,1.0431309000000002
3.0869305000000002,-6.449587,-0.42965388,-0.7701265,0.91249305,1.1533135
3.0710042,-6.5242569999999995,-0.5952464,-0.9537701,0.96626663,1.2518023999999999
3.030207,-6.7756677,-0.73662883,-1.1619006,0.98703605,1.5562927
2.8403182,-7.635559599999999,-1.2330521,-1.18267,0.9657256,2.0082283
2.2415185,-8.664022000000001,-1.630978,-0.8552811,0.76398295,2.335076
1.4314548,-9.2794,-1.56644,-0.19041543,0.22207569,2.381938
1.2252184,-9.541201,-0.81309,0.63573617,-0.5204920999999999,2.3707504
1.5629348,-9.642408,0.30440837,1.4241188999999999,-1.1119143999999999,2.4202654
2.4313693,-9.733924,0.71376896,1.706775,-1.0480353,2.406425
3.5948172,-9.558496,0.57255894,1.5140731,-0.45076618,2.2520506
5.727361,-10.1583,-0.543886,0.9923941999999999,0.32428217,1.9629892
6.006965599999999,-11.028182000000001,-1.7414752,0.54098225,0.79964006,1.6915033
5.231848,-11.264114999999999,-1.2474749,0.37543777,0.8661895000000001,1.5541633
5.099726,-11.064669,0.03481169,0.27481955,0.7836703,1.488155
6.5112133000000005,-10.249454,1.4755178999999998,0.23170991,0.6271666,1.4120237
8.321814999999999,-9.90035,1.9629773000000001,0.17261307,0.44193482,1.2677723
9.315024000000001,-10.457883,1.4701931000000001,0.065083325,0.26572640000000003,1.1011631000000002
10.091531,-10.112542999999999,0.23396139,-0.02698279,0.055466562999999997,0.96382314
10.879157000000001,-8.724337,-1.6031575,-0.14463544,-0.05312782,0.8791747
11.407892,-6.6978083,-3.3240235,-0.2255489,-0.12871803,0.7828151
10.979158,-5.146739,-3.995798,-0.23565435,-0.23144811,0.58320177
9.736203,-4.394471,-3.3802872,-0.15847589,-0.37997562,0.2994636
8.494896,-4.1447845,-2.714546,-0.11163126,-0.35123006,-0.11360348
7.973075,-3.9207256,-2.5484647999999996,-0.2665467,0.07993608,-0.61557764
8.083505,-3.521842,-2.3624258,-0.49010590000000004,0.6468714,-0.9642594999999999
8.575408,-3.2239554,-2.6478338,-0.349572,0.7347138000000001,-1.1393858000000001
8.832708,-3.1978204,-2.7960637000000004,-0.08395033,0.27052602,-1.3331523
9.053732,-3.397334,-2.689445,-0.0136833815,-0.37091738,-1.553535
9.540971,-3.8679,-2.4474007999999996,-0.3682121,-0.4832293,-1.8388615000000001
10.800674,-4.437854,-2.136308,-0.87976813,0.044820055,-2.124188
12.412921,-5.11187,-1.9523853,-1.023496,0.50260246,-2.2402349
14.047595999999999,-5.7302919999999995,-1.7334211,-0.69612455,0.53295374,-2.2860148
15.299973499999998,-5.8500404,-1.8147857,-0.19626227,0.14542083,-2.2716507999999997
15.416169,-6.1589403,-2.1506157000000004,0.25300294,-0.45448375,-2.1678386
13.673201,-6.935006,-1.7152444,0.37969637,-0.9005898999999999,-1.9980354
13.168914000000001,-8.480559,-1.052242,0.26949629999999997,-1.0927506999999999,-1.7962754
14.15205,-10.719425,-2.1990936000000003,0.18538888,-1.0549468000000002,-1.6365777
14.600609,-11.731904,-3.5132709,0.20242329,-0.8558571,-1.5098844
14.460605,-11.269794000000001,-3.9668474000000002,0.32433453,-0.7062824000000001,-1.416195
12.519597000000001,-10.621636,-2.6626203,0.46965066,-0.70256484,-1.3368871999999998
10.164938000000001,-10.531949000000001,-0.35213920000000004,0.5303357,-0.7233168000000001,-1.3065361
8.629938000000001,-10.775314999999999,1.058965,0.48933795,-0.710541,-1.3065361
7.4360743000000005,-11.0111065,1.0453085,0.39618975,-0.7110645999999999,-1.2836372999999999
6.385058,-10.755730999999999,0.0641646,0.25672048,-0.6860539999999999,-1.2085881
5.525933,-9.713946,-0.89121765,0.10766936,-0.551908,-1.1202221
4.7630153,-8.3633,-0.72207206,-0.22022565,-0.23251276,-0.9685007
4.342852,-7.094853,0.26828468,-0.8036543,0.23059290000000002,-0.7108726
4.156746,-6.203050599999999,0.9718544,-1.4110288999999998,0.7107504,-0.30044097
4.007137,-5.7789707,1.2316636,-1.7607754,1.2686275,0.13233086
3.8570971,-5.458598,0.7446063,-1.6968963,1.8477974999999998,0.47141343
3.9267589999999997,-5.204151599999999,0.094609275,-1.4041173,2.0601866,0.7141538000000001
3.8639061000000003,-5.1396136,-0.45687115,-1.2412258,1.7503906000000002,0.95424134
3.5720148000000003,-5.5089717,-0.83501136,-1.295523,1.1307638999999998,1.4216229999999999
3.4702134,-6.0634785,-1.0845158000000001,-1.2795531999999998,0.5276305,2.1493032000000003
3.385066,-6.8046947,-1.4151934,-0.8387878000000001,0.0070162233999999995,2.690687
3.3117172999999993,-7.889824000000001,-2.323362,0.035814155,-0.57320106,2.8067338
2.8361425,-8.994067,-3.0707362000000002,0.9386380999999999,-1.0474943,2.6257432
2.2693777,-9.968402000000001,-2.4260926,1.2085184,-1.0757163,2.2067943
2.397927,-10.540789,-0.20455101,0.74539524,-0.5045398,1.7963626
2.709355,-10.663239,1.9458921999999998,-0.10843731,0.66922903,1.5291528
3.1787433999999997,-11.10471,1.4466534,-0.7573333000000001,1.6465786,1.4083061000000001
3.5439932,-12.512960000000001,-0.62819064,-1.1230495,2.109178,1.3763666
2.7266223,-12.745016,-1.9030935000000002,-1.1427368999999998,1.9148705000000001,1.3582675
2.3882833,-11.9889555,-0.27973852,-0.94577646,1.3788276000000002,1.3210046999999998
5.2352095,-10.474891,1.5261791,-0.77065015,0.88215923,1.308229
8.717499,-9.422716000000001,2.248548,-0.7221998000000001,0.4738569,1.3252633999999999
12.017283,-8.697244,0.22063048,-0.6700319,0.030979594,1.3311278
14.140414000000002,-7.8036423,-3.483171,-0.55398494,-0.45928338,1.3673258
14.209395,-6.7547326000000005,-5.8917956,-0.47041859999999996,-0.75632095,1.4365281
12.445539,-5.7558427000000005,-5.7657647,-0.42676792,-0.9011135,1.5190298999999998
10.078411000000001,-5.1905527000000005,-4.5605709999999995,-0.39428732,-0.9729687,1.5573573
7.871302,-4.7432394,-3.0301976,-0.2633353,-0.9900030999999999,1.5296763
6.679066000000001,-4.200397,-1.8337383000000003,0.08105309,-0.95221674,1.4327931
6.0133057,-3.929699,-1.2103169,0.32433453,-0.6274982,1.0564476999999999
5.80275,-3.8048940000000004,-1.3739175,0.18113028,0.11028735,0.4607669
5.8806959999999995,-3.7849166,-1.6912831999999998,-0.1776396,1.0136523000000002,-0.18811159
6.2332277000000005,-3.9724786,-1.4312825,-0.24897122,1.4671936,-0.68104494
6.545604,-4.3928145999999995,-1.2197978,0.123115525,1.1446043,-0.95572484
7.3270135,-4.8080454,-1.1061691,0.5319415,0.35676274,-1.0222743
8.264171000000001,-5.256652,-1.0314125,0.6501177,-0.42095596,-1.052608
9.610393,-5.532895,-0.8314775,0.53832936,-0.7504566999999999,-1.4034193000000001
11.127436,-6.1997085,0.07211336,0.41535345,-0.5476494000000001,-1.7606008999999998
12.996205999999999,-6.867116,1.0805703000000002,0.47338566,-0.25699973,-1.9788543
15.515604000000002,-6.777199700000001,0.34201652,0.63627726,-0.23516566,-2.14494
16.563576,-6.346875700000001,-0.90008575,0.76881754,-0.45022514,-2.1710324
15.821010000000001,-6.528567,-1.1982213,0.82311475,-0.76801467,-2.0177228
13.982445000000002,-7.748671000000001,-0.36462736,0.7666881999999999,-1.0288715,-1.7675298
12.33441,-9.668649,0.09787496,0.72942543,-1.1182848,-1.5950563999999998
11.329143,-11.035881,-1.0849181,0.76403534,-1.0272659,-1.5418239
11.85308,-10.743252,-2.0002598999999996,0.88699377,-0.93837625,-1.5146666000000002
12.978671,-9.738779,-1.7021049,1.0035818,-0.89099056,-1.4790094999999999
11.7656145,-9.568944,-0.6304603,1.0685254,-0.91760683,-1.3736091000000001
10.255218,-9.645387,0.3211103,1.1893546999999998,-1.1118968999999999,-1.122875
8.805222500000001,-9.881618,-0.054712295999999994,1.4145370000000002,-1.5164816,-0.69807935
7.0226630000000005,-10.0749445,-0.40936059999999996,1.7003869999999999,-1.7991377,-0.39413026
5.3581275999999995,-9.7704115,-0.707228,1.7105099,-1.631464,-0.21739821
4.558608,-8.810385,-0.56281936,1.3000783,-1.144901,-0.10932742
4.705430000000001,-7.5398583,0.33120429999999995,0.50371945,-0.51358056,-0.016702801
4.7740383,-6.660994500000001,0.9922913000000001,-0.37618828,0.084753186,0.12807226
4.5181937,-6.12861,1.2496104,-1.0474594000000002,0.48665014,0.20153317
4.1364527,-5.9240403,0.7926723000000001,-1.3519495000000001,0.7618710999999999,0.19568631
3.4663253,-6.07249,0.18232325,-1.3540788000000001,0.9236806000000001,0.22867304
2.05615,-6.708611,0.08241799999999999,-1.2721007,1.0722082,0.3787888
1.5604545,-7.200408,0.096476756,-1.1469954,1.2095481000000001,0.58480746
2.173447,-7.4249077,0.07146213,-1.0964333,1.121723,0.8962091
2.9437667999999997,-7.943233500000001,-1.396107,-0.9968796999999998,0.7751705,1.5504458
3.3169269999999997,-8.508007000000001,-3.3580308,-0.68547803,0.17310175,2.257374
3.3537017999999996,-9.131247,-4.7233577,-0.32562608,-0.42573816,2.6268077
2.9069342999999996,-9.332981,-4.3216777,0.028885199,-0.9463524,2.54003
3.0175178,-9.357891,-2.7746402999999997,0.15079644,-1.2013276000000002,2.2227639999999997
2.9388921000000003,-9.610863,-0.67475307,0.025167647999999997,-1.0922096000000001,1.8613238
2.4919617,-9.992297,0.33536062,-0.108960904,-0.6051231,1.5999433
1.9627569999999999,-10.19929,0.5672534,-0.06904522,0.13159783,1.3715844
2.2932909,-10.482533,0.57256854,0.13002703,1.0253634,1.0511246
1.7647372,-11.548241,-0.37978742,0.41482985,1.548107,0.7397229000000001
0.57227165,-11.698846000000001,-0.16411774,0.6022084,1.5858934,0.54061574
1.8609076,-11.390539,0.17200904,0.5164953,1.4900749,0.4474675
5.0935874000000005,-10.575533,-0.075379044,0.32646385,1.3623343,0.41020474
8.506426,-10.161548,-0.9217868,0.15718435,1.1866668,0.47088984
10.535531,-10.263349,-2.1415653,0.06934193,0.9268745999999999,0.6396283
11.032691999999999,-9.908375,-2.3765707000000003,0.031555552,0.68148124,0.7615395
10.511312,-8.902992,-0.9669989,-0.09192649,0.49890235,0.83287114
10.104182000000002,-7.1119857,0.65097386,-0.30539772,0.34026940000000006,0.9265604
9.236687,-5.656703500000001,1.4074554,-0.45764279999999996,0.14809118,1.1048806999999998
7.764597,-4.9605083,0.7538479,-0.39056978,-0.15105824,1.3385803
6.2080503,-4.647308,-1.0472909,-0.1004437,-0.45183083,1.4083061000000001
5.3419237,-4.415741400000001,-2.4506187,0.42599997,-0.6967005000000001,1.1985698999999999
4.6260095,-4.479178,-2.878434,1.0035818,-0.795172,0.78335613
3.957558,-4.8583426,-2.887005,1.3006194,-0.78824306,0.26647687
3.7763169999999997,-5.090513,-2.6037517000000006,1.1526328000000001,-0.91121894,-0.19982274
4.4194474,-5.271869000000001,-2.5818017,0.67460465,-1.0331302,-0.46385616
5.088129,-5.890905,-3.1156416,0.17367771,-1.0043845999999998,-0.8875871999999999
5.724316,-7.158461999999999,-3.3545735,0.003874631,-1.0379124,-1.5077375
6.4891872,-8.737686,-2.8794873,0.07466519,-1.1081793,-1.9740721
7.9960012,-9.784968,-1.8977496999999999,0.18538888,-1.2119915,-2.1609097000000004
10.806555,-10.480464999999999,-0.80813885,0.1438675,-1.3839238999999999,-2.1758146000000003
13.328397,-10.603525999999999,0.025273193,-0.06265732,-1.5334986000000002,-2.0768023
14.780288,-10.627517,-0.33060095,-0.31443852,-1.5281928999999999,-1.8894236
15.390551,-11.609656,-2.5156548,-0.47148323,-1.3109866000000001,-1.6993922
15.214615,-13.215648999999999,-5.005730000000001,-0.43580872,-0.9777509,-1.5774808999999999
14.063455,-12.460776,-5.5285087,-0.30485666,-0.70787066,-1.5306363
13.383798,-9.728292999999999,-3.6887467000000003,-0.09724975,-0.5944765999999999,-1.4656926000000001
12.030087,-8.264439999999999,-1.2991322,0.019303342,-0.5987352,-1.4246948
9.779481,-8.8076935,-0.28968886,-0.05572836,-0.5987352,-1.3576393
7.760546000000001,-9.871199,-0.54036176,-0.19360937,-0.58650047,-1.3113183000000002
6.378182,-10.48172,-1.4157393999999999,-0.36288884,-0.60779345,-1.2767258
5.190572,-10.209058,-1.6771957999999998,-0.57314867,-0.5055695,-1.2383809
4.385258,-9.261576,-0.8823112,-0.8451757,-0.230366,-1.143627
4.077076399999999,-8.136599,0.4096862,-1.0756639,0.11030481,-1.0105456
4.0749598,-7.1643133,1.4795687,-1.3114928,0.570234,-0.80932665
3.7947233,-6.7136190000000004,1.7844943,-1.4344511999999998,1.0211223,-0.5085715000000001
3.4743218000000002,-6.539647,1.5721382,-1.3492792,1.3633988000000001,-0.18650588
3.2800848,-6.478470300000001,0.5181148,-1.0075261999999998,1.4709285,0.16107644
3.0688397999999997,-6.549396,-0.31923327,-0.50181705,1.2840736000000001,0.5539326
3.0975704,-6.7489004,-0.61381584,-0.07808603,0.9481850000000001,0.8658753
3.070535,-7.218901,-0.7276170999999999,-0.033370696,0.6026971,0.9547648999999999
3.1315966,-7.742905599999999,-0.7026312,-0.2883633,0.2838429,0.93614227
2.7767568,-8.449827,-0.6044018,-0.6418274,-0.008395034000000001,0.8185071
2.7155993,-9.432532,-0.40579805,-0.94738215,-0.36557665,0.6774321
2.1406941,-10.228125,0.013857639,-1.0309485,-0.66847855,0.58854246
1.6804998,-10.731377,0.90402186,-0.6913249,-0.9708394,0.5810899
1.2788389,-10.889835,1.9111953999999998,-0.02539454,-1.264683,0.6529451000000001
1.0007093,-11.031639,2.4596019,0.72303754,-1.2455193000000002,0.8355415
0.9189328999999999,-10.767338,2.3180087000000005,1.0637258,-0.5039813,1.0479306000000002
1.9908648999999998,-10.330789,0.7820611999999999,0.9572607,0.50316095,1.1746241000000002
4.059780600000001,-10.413763000000001,-1.8160595000000002,0.6527706,1.3314593000000001,1.2129514
5.020679,-10.317774,-3.2332737000000003,0.49733156,1.5390662,1.2512789
6.245754,-9.866238000000001,-3.764997,0.44783404,1.3543406,1.2773715
6.966102,-9.169323,-3.5386684,0.38980183,1.1664385,1.3263456
7.1291475,-9.183812,-2.2259278,0.21999875,1.0253634,1.3140934
7.4386220000000005,-9.630255,-0.47954902,0.053372167000000005,0.74750704,1.2544729
7.5561194,-9.708527,0.33273658,-0.055204764,0.34772193,1.2140161
7.566625599999999,-8.62265,0.01247858,-0.13185963,0.11508701,1.1671715
7.6332130000000005,-6.981741400000001,-1.5688628999999998,-0.1691224,0.0006283185,1.0910403
7.7046466,-5.256633,-3.220211,-0.13770647,-0.1436057,0.99682736
7.078189,-4.283093,-3.9993799,-0.06637487,-0.2867925,0.8994205
6.2710557,-3.9948788,-4.0521383,0.064018674,-0.45980698,0.7019191
5.874729599999999,-3.9770752999999996,-3.9452422,0.20455259,-0.46458918,0.34686673
6.031032,-3.8606597999999996,-4.233255000000001,0.31049407,-0.31660274,-0.11517428
6.741172,-3.5774162000000005,-4.470415,0.36637953,-0.22078414,-0.52719414
7.065835000000001,-3.6677062999999994,-4.366047,0.37117916,-0.40603340000000004,-0.8487186999999999
7.5215573000000004,-3.8485834999999997,-4.1949863,0.24022712,-0.81540036,-1.094653
8.559422999999999,-4.3560967,-3.7355676,-0.3367962,-0.9058957000000001,-1.4624986999999998
9.758124,-5.134452,-3.3800957,-1.0644938,-0.40603340000000004,-1.8383203999999997
10.967637,-5.908487999999999,-3.168927,-1.3040402,0.06611307,-2.0693495
12.017811,-6.235028,-3.0747104,-0.9314124,0.17418386,-2.2040193
13.342647,-5.803583000000001,-2.703159,-0.31017992,-0.086638145,-2.2577927000000004
14.657907000000002,-5.578968499999999,-2.5414546000000002,0.17954202,-0.615246,-2.2125362999999996
14.944530499999999,-5.52463,-2.6483512000000005,0.30836478,-1.0943215,-2.0975542000000003
14.723420999999998,-6.505812000000001,-3.5943,0.1566433,-1.2928876,-1.9250807
15.183767999999999,-8.9465,-4.805354599999999,-0.0009075712300000001,-1.1752348999999997,-1.7680533999999999
15.846551000000002,-10.432926,-6.454375,0.028885199,-0.9505935999999999,-1.6509418000000002
15.884944,-10.133764999999999,-7.120671700000001,0.21306979999999998,-0.76427966,-1.5370243000000001
14.062095000000001,-9.670928,-5.035121,0.43771112,-0.68710124,-1.4071368
11.606276,-9.757914,-1.7250031000000003,0.54311156,-0.7163704000000001,-1.3294172
9.674278999999999,-10.111423,0.5340315,0.50638986,-0.7142411,-1.2916135
8.287653,-10.631912,0.56447613,0.34615114,-0.5934119000000001,-1.2490274
7.145207400000001,-10.628244,-0.71469796,0.16090190000000001,-0.42252675,-1.1761075
5.972307700000001,-9.650317999999999,-1.8977879,-0.10950196,-0.20268509,-1.1042348999999998
5.1016035,-8.256528999999999,-1.7753293999999997,-0.550791,0.049619712,-1.0196038
4.642749299999999,-7.0286293,-0.58903104,-1.0006148000000001,0.29503044,-0.8620181
4.191337600000001,-6.190103,0.565271,-1.4594791999999999,0.61601394,-0.58522636
3.6740174,-5.80976,0.97508174,-1.7197776000000002,0.9455146999999999,-0.17053612
3.5191987,-5.70092,0.43953714,-1.5872374,1.1435572,0.30695105
3.7571343999999995,-5.5464077000000005,-0.62339264,-1.179476,1.1361046000000001,0.6784967
4.014693299999999,-5.6878858,-1.4785727,-0.8323999,1.0823311000000002,0.9435948000000001
4.0010653,-6.254392,-1.9930197,-0.80524254,1.0562558000000002,1.2438438
3.6986873,-6.6384416,-2.0436618,-0.7999193,0.98012453,1.671816
3.5538383000000002,-7.2634815999999995,-2.4917222999999997,-0.5481381,0.75654787,2.1743486
3.4331417,-8.431718,-2.9478369,0.13376203,0.29981264,2.5357887999999997
2.9120388,-9.277378,-2.8725631000000003,1.0717193999999999,-0.37941712,2.6044502
2.0061016,-10.064084,-2.2314342999999996,1.9665498,-1.0283306,2.5725105
1.1762808999999999,-10.576376,-0.5789276,2.4706707000000003,-1.2609481000000002,2.5272717
1.122622,-10.662778,1.2281393,2.3987979999999998,-0.7962191999999999,2.3383048
1.9289892,-10.665382000000001,1.7285177999999999,1.837727,0.10604621,2.0231507
3.222452,-11.27735,0.5347114000000001,1.1978718000000002,0.8742004999999999,1.7335657
3.3965870000000002,-11.822443,-1.0990151000000001,0.8518603000000001,1.0903246000000002,1.6068723
3.0477326000000002,-11.728437,-0.53931785,0.6527706,1.0147344,1.5855793
3.4320019999999998,-11.462059,0.6045168000000001,0.48935542,0.86781263,1.5733445
5.0996404,-10.84966,1.7813914,0.3259228,0.7528303000000001,1.4961486000000002
7.500066800000001,-10.709628,1.3167056000000001,0.2151991,0.51221925,1.3950068000000002
9.108194000000001,-11.168501,-0.49394298,0.14280283,0.1555612,1.2566022
10.697533,-10.333834,-2.9657264,-0.009948377,-0.101543255,1.107551
11.790236,-8.467765,-5.1816845,-0.22341959,-0.21333160000000004,0.90102625
11.39889,-6.227778400000001,-6.2639785,-0.42038000000000003,-0.13932963,0.6886197
9.581643,-5.0449657,-6.011984,-0.51565754,-0.115383714,0.50708795
7.973563,-4.604778,-5.284673000000001,-0.4118628,-0.26389378,0.33196163
7.084433,-4.321275,-5.0254197,-0.28356364,-0.37409386,0.031189033999999997
7.245774000000001,-3.839744,-4.807633999999999,-0.31710887,-0.19256218,-0.38505453
7.7554607,-3.6654364999999998,-4.8406353,-0.33040828,0.06452482,-0.7757814000000001
8.200111999999999,-3.4843678,-4.852280599999999,-0.31443852,0.11988667,-1.1202047
8.803221,-3.4076004,-4.83124,-0.3447898,-0.17287487,-1.3991432
9.707262,-3.609872,-4.9836555,-0.4794594,-0.57157785,-1.5939743999999998
10.865241000000001,-4.0181217,-4.9349957,-0.8499578999999999,-0.42839107,-1.8239387999999999
11.702848,-4.741170400000001,-4.5220532,-1.1379546999999999,-0.007853981999999999,-2.0342162
12.150536,-5.612813500000001,-3.7853765,-1.0943040000000002,0.32429963,-2.198155
12.975213,-6.184357,-3.0848522000000003,-0.7935314,0.36157987,-2.2508638
14.225610000000001,-6.167952,-3.0404925,-0.41292745,0.027803095,-2.1672976000000004
14.755225,-6.329197,-3.2632394000000002,-0.1776396,-0.37887606,-1.9533026000000002
14.272717000000002,-6.85595,-3.019079,-0.20638518,-0.44008476,-1.8031694999999999
13.939072,-8.392731,-3.7413232000000005,-0.23513076,-0.29902726,-1.7621891
13.863788000000001,-10.460277,-4.677944,-0.08660324,-0.20055579,-1.7158855
13.534451500000001,-11.105410000000001,-4.953345,0.23223351,-0.22078414,-1.6115323000000001
12.951846000000002,-10.846385,-4.41215,0.58676225,-0.33574899999999996,-1.4230891
11.532544,-10.511216000000001,-2.4083946,0.73741907,-0.4001691,-1.2452923999999999
9.802953,-10.644851,-0.7981024,0.7363544,-0.48321185,-1.1233986999999999
8.016946,-11.053369,-0.14121002,0.62189573,-0.62748075,-1.0738836999999999
6.567621000000001,-11.310103,-0.28537926,0.43664646,-0.7371398,-1.0392913000000001
5.7275815,-10.929655,-1.0194798,0.20668189,-0.64290947,-1.0014874
5.702433,-9.594304,-1.0971574,-0.10843731,-0.35119516,-0.88226396
5.2097545,-8.317035,-0.11302547,-0.5231100999999999,0.07145378,-0.6262066999999999
4.109483999999999,-7.443428999999999,0.8603803,-0.9665459000000001,0.50316095,-0.23815018
2.8950016,-6.827602400000001,1.2755063,-1.2689066999999998,0.77679366,0.13925982
2.1695870999999998,-6.449539,0.7401531,-1.3663136,0.9040107,0.48846530000000005
2.0577877,-6.10939,-0.5026674,-1.2007691,0.87739444,0.7940201
2.425853,-5.763533,-1.4870865,-0.8978671999999999,0.7395309,1.0548594999999998
2.700631,-5.746295,-2.0962577000000002,-0.6327691,0.553217,1.2619428999999998
2.8689047999999997,-5.9862227,-2.4398065,-0.5486616999999999,0.34241614,1.5009482
2.7738454,-6.2989435,-2.50128,-0.40706313,0.08210029,1.8932633
2.4285443,-7.108797,-2.6757312,-0.04668756,-0.12868312,2.2861369
2.0764718,-8.317007,-2.954713,0.65064126,-0.32883748,2.4351707
1.7701578000000002,-9.077625,-2.7560613,1.5337778,-0.5673193,2.1599672
1.8907299,-9.5593,-1.9541283,2.0836613,-0.6354569,1.7117491000000002
2.394709,-9.844363000000001,-0.81852967,2.057045,-0.29263934,1.4668794
3.0278224999999996,-10.105475,0.1415931,1.5470773000000002,0.39671335,1.450386
3.7685502,-10.413849,0.15492399,0.7299665,1.1190702,1.5004246
4.9567733,-11.206042,-0.71814555,0.047525316,1.5305665000000002,1.4519743
5.303089599999999,-12.338835000000001,-1.6757974999999998,-0.25055948,1.4805278999999998,1.2603371
5.2952657,-12.415037,-0.9905386999999999,-0.36608282,1.2894143,1.1219325
6.484762,-11.809984,0.21730733,-0.49968776,1.113747,1.1150209999999998
8.872854,-10.35973,1.3185921999999999,-0.533233,0.7938281,1.1410962
11.304941,-9.25268,0.60716957,-0.51033425,0.37168533,1.0585946000000002
11.907542999999999,-8.700108,-2.2636700000000003,-0.5422738,0.13428563,0.92657787
10.913642999999999,-8.187854,-5.0195203,-0.6088232,0.013962634,0.7833736
9.580992,-7.1649647,-6.9147897,-0.68760735,-0.015830137,0.58854246
8.549483,-5.405207,-7.576509,-0.8068482,0.06613053,0.38573520000000006
8.037431,-3.7878952000000004,-6.197659,-0.8254709000000001,0.08529424,0.25743607
7.546475999999999,-2.9920146,-4.671279,-0.70303607,-0.027541295,0.13554227
6.599416000000001,-2.958831,-4.271294,-0.505011,-0.1643402,0.01150172
5.9568505,-3.1058927000000005,-3.9418616,-0.2910162,-0.18456857,-0.19767599
6.5437074,-3.23313,-3.5383716,-0.09246755,-0.029129544,-0.45799184
7.635904300000001,-3.0153916,-3.5097177000000004,0.084247045,0.09009389599999999,-0.7033851
8.591459,-3.0804949,-3.4791102,0.1523847,-0.096202545,-0.9227032
9.421174,-3.3790996,-3.3786400000000003,0.059236474000000004,-0.44008476,-1.0834655
10.330731,-3.9267108,-3.2668881,-0.24736552,-0.44647267,-1.3810441
10.845725,-4.9379454,-3.1787433999999997,-0.50235814,-0.08820894,-1.7201267
11.181774,-6.0007405,-2.6343784,-0.40386918,0.18695967,-1.9389212
11.533406,-6.659778,-2.0646544,-0.04775221,0.2226342,-2.0251580000000002
11.995659,-6.6680527000000005,-1.4826142,0.33337533,-0.019024088999999998,-2.0166407
12.6538925,-6.5777244999999995,-1.2817216,0.49200833,-0.43317327,-1.8824947
12.756096000000001,-6.5089917,-1.2495052,0.30995303,-0.7094414000000001,-1.718521
12.917292999999999,-7.4693154999999996,-2.2084882,0.033684853,-0.7344695,-1.6360192
13.336603,-9.440653,-3.6836805,-0.033911746,-0.5694486,-1.5891746
13.733208,-10.439706,-4.772745,0.083182395,-0.27612853,-1.5061319
14.039666,-9.70641,-4.3322124,0.37489673,-0.08929104,-1.3826323999999999
12.397502000000001,-9.056278,-2.5494034,0.7283608,-0.12068952,-1.3011953
10.247164,-9.056135000000001,-0.6938300999999999,0.8774119,-0.19627973,-1.2676501
8.565936,-9.536116,-0.22177011,0.81939715,-0.22769566,-1.2245405
7.318873399999999,-10.228192,-0.9844957000000001,0.62030745,-0.20957914,-1.1510621
6.382731,-10.37128,-2.455771,0.31581733,-0.05042256,-1.0302329
5.9138317,-9.448889999999999,-3.1310797000000004,0.002268928,0.23860396,-0.82423174
5.7146816,-8.2200985,-2.011072,-0.3511777,0.5313829000000001,-0.5112244
4.9888463,-7.214486,-0.18884505,-0.7781026999999999,0.7746644,-0.14870206
3.9904256,-6.3338413000000005,0.90429956,-1.2481374,0.97534233,0.21219712
3.3619475,-6.024625299999999,1.2012476,-1.5047182,1.0690316,0.5102994000000001
3.1705357999999997,-5.644761,0.52774906,-1.4759725000000001,1.008364,0.8398174999999999
3.0053551,-5.425586,-0.9179274,-1.2864646999999998,0.8651597,1.1411138
2.768942,-5.4345026,-1.9406058999999998,-1.1395429,0.7118325,1.365214
2.5291867000000003,-5.6810480000000005,-2.5625139999999997,-1.1118620000000001,0.48720866,1.7777574
2.3131914,-6.167751,-3.0036697,-0.9346064000000001,0.24233897,2.2941306
1.8860946,-6.8453293,-3.1450807999999997,-0.38205257,-0.03286455,2.5171661
1.6899904,-7.7749880000000005,-3.5252415999999998,0.58198005,-0.45498988,2.3212705000000002
1.9445418,-8.631748,-3.8739812000000007,1.5422951,-1.0591705,1.8352661
2.4437710999999998,-9.163932,-3.5228572,1.8803130000000001,-1.4733196000000002,1.4493214
2.819929,-9.903673,-2.2480022999999996,1.5162023999999998,-1.235379,1.2693955
3.3150501000000006,-10.836502000000001,-0.8452777,0.68471014,-0.2511005,1.142702
4.3101187,-11.45342,-0.61291564,-0.15847589,0.99771744,1.051142
5.538708,-12.96417,-1.3428790000000002,-0.5656960999999999,1.8137636000000001,0.97661644
5.171284,-13.097069,-1.5448539,-0.47839475,1.9101232,0.8408822
5.775447,-11.817665,-0.058083333,-0.29421017,1.654607,0.74612826
8.117963,-9.849392,1.6678393,-0.29155725,1.3804507,0.7801971
10.462346,-8.379908,2.3889248,-0.37725290000000006,0.98120666,0.8632398000000001
11.859707,-8.039136,0.14635277,-0.44964918,0.5505641,0.8605695
11.645147999999999,-8.329972999999999,-3.4763330000000003,-0.49703485,0.23808037,0.804143
11.317889,-7.584697,-5.7965345,-0.5465324,0.10819296,0.8036194000000001
10.719567999999999,-6.1322303,-6.027096299999999,-0.52258646,0.013980086999999999,0.80946624
9.379458,-4.9546470000000005,-4.5146120000000005,-0.46029568,-0.07597418,0.78445566
7.9558363,-4.1987879999999995,-2.3195505,-0.35224235,-0.25696483,0.7679449
6.8357334000000005,-3.7558036,-1.3034321000000002,-0.15528195,-0.52790976,0.73761106
5.7192115999999995,-3.6824449999999995,-1.8373486,0.06775368,-0.6993185000000001,0.6034649999999999
4.8962092,-3.7925305000000002,-2.7984482999999996,0.16783085,-0.60349995,0.31281537
5.003191999999999,-3.6648622000000004,-3.152857,0.1412146,-0.24631831,-0.037454765
5.8646736,-3.6141910000000004,-2.8708873,0.1390853,0.07572984,-0.286042
6.441226,-3.8615792,-2.5083287,0.26204374,0.09807005,-0.48780206
6.800538499999999,-4.2412133,-1.9800240000000002,0.44144613,-0.21916099,-0.69060934
7.519996000000001,-4.6607447,-1.4471226000000001,0.57346284,-0.692407,-0.9328086999999999
8.280766999999999,-5.2921247000000005,-1.3491518,0.54737014,-0.9787981,-1.2580681999999999
9.080873,-6.0147233,-1.2063807,0.46858599999999995,-0.95644045,-1.5577587
10.368981,-6.540806,-1.0078919,0.4121595,-0.81803584,-1.7376846999999997
12.028891,-6.608121000000001,-1.0652092,0.39566615,-0.77438515,-1.8532081000000002
13.61459,-6.651925,-1.3646184,0.33178708,-0.83507025,-1.8894061999999998
13.994271,-6.944516,-1.6706644,0.07892379,-0.7781026999999999,-1.8010401999999999
13.223567999999998,-7.319228,-1.4475056,-0.18880972,-0.6029763000000001,-1.7094802
13.077666,-8.299700999999999,-1.6740162,-0.30059806,-0.31339133,-1.7057452000000002
13.527307,-9.681261,-2.1707077,-0.23671901,-0.044034656,-1.7323613999999998
13.662187,-9.792199,-2.6965032000000004,-0.02804744,0.1523847,-1.6823229
13.138995999999999,-9.182607,-2.5796182,0.2780135,0.11138691,-1.5833104
11.699688,-8.635857000000001,-1.9091556,0.60379666,-0.12918927,-1.4795156
10.246062,-8.732075,-1.5479568000000001,0.7736172,-0.33840188,-1.3868735
9.37261,-9.270799,-1.6704824,0.7480656,-0.45870742,-1.2884021
8.507518,-9.714378,-2.0845644,0.6266954,-0.5183279000000001,-1.1760901000000001
7.5597687,-9.573857,-2.456537,0.5335297,-0.54920274,-1.0312976
7.0229025,-8.642274,-1.4428416000000002,0.40044835,-0.6061703,-0.89182836
6.512707700000001,-7.6224966,-0.0112240175,0.10234611,-0.6562089,-0.6778335
5.5357485,-7.0220885,1.0857226,-0.39002872,-0.6562089,-0.3462035
4.2400928,-6.644072500000001,1.4872302,-1.0123259,-0.30061552,0.054105207
3.3108745,-6.280144,1.3417872,-1.3737661,0.15557864,0.43418556
2.7544334,-6.0070524,0.88861275,-1.2891351,0.41055379999999997,0.7514515
2.5924702,-5.872575,-0.17677827,-0.9191601999999999,0.5383119000000001,0.9521295
2.7690474999999997,-6.1666403,-1.320134,-0.5923124,0.65064126,1.0032326999999999
2.7060703999999998,-6.369553,-1.7162212,-0.46509534,0.8050156999999999,1.0250667
2.6476613999999996,-6.751103,-1.8001428,-0.48425904,0.95087284,1.1123681
2.6638463,-7.5626993,-2.6344933999999998,-0.45284313,0.9918531999999999,1.2773889999999999
2.6975088,-8.781108999999999,-3.5716891000000004,-0.2952748,0.8114036,1.4046061
2.6834595,-9.785246,-4.023350700000001,-0.039235003,0.31047663,1.4471921
3.3071778,-10.391649000000001,-3.2983,0.11459832,-0.22076669999999998,1.5142651000000003
4.0746536,-10.9623785,-1.1416224,0.18006562,-0.49064696,1.6228595
4.668904,-10.933237,1.0143083000000002,0.28333676,-0.44966662,1.6452171999999998
5.6354623,-10.417497000000001,1.7363613000000002,0.37224382,0.005986479,1.5600451000000002
7.101642599999999,-10.357067,0.6488286999999999,0.35679767,0.68790406,1.3764014999999998
7.329896499999999,-9.773457,-0.49794608,0.2561969,1.2313996999999999,1.1570835
6.591361999999999,-8.919876,-0.8309603999999999,0.19870573,1.3224360000000002,1.0325193000000001
5.9822,-8.375885,-0.74721116,0.1518611,1.0876892,1.009097
6.1130004,-7.938492999999999,-0.6030036999999999,0.040072758,0.7879813,1.005903
6.656034,-7.938148,-1.041631,-0.058398715999999996,0.5063724000000001,0.98300433
7.218269,-8.353972,-1.7079947,-0.12334242,0.14226179,0.96331704
8.073229,-8.234022999999999,-1.3702782,-0.20690878,-0.08873254,0.95638806
9.076276,-7.492453,-0.7194385,-0.33307862,-0.20851448,0.9382889999999999
9.544580999999999,-6.2688727,-0.39509115,-0.47680649999999997,-0.24844761,0.87866855
