accx,accy,accz,gyrx,gyry,gyrz
10.444198,-3.890568,-1.6085397,0.14440854,0.19385372,-0.020647245
10.442866,-3.7840260999999997,-1.6486759999999998,0.15557864,0.23696335,-0.15374605
10.507022000000001,-3.7435832,-1.8993107,0.091176,0.21514674,-0.30065042
10.994012,-4.461087,-2.4323652,-0.008360127,0.23218115,-0.358159
11.314001,-5.275633,-2.4761982000000002,-0.12175417,0.2162114,-0.38849282
11.8268,-6.2553114999999995,-2.3296924,-0.09086184,0.24176301,-0.29160962
11.223453,-6.091261,-1.5206342,0.051242866,0.20502383,-0.32780772
11.026199,-5.1067843,-0.8186542,0.25406757,0.11878711,-0.49815187
10.541814,-4.311191,-0.34282094,0.5537581,-0.06112143,-0.7089526999999999
10.226574000000001,-4.4329220000000005,-0.24188142,0.8694358,-0.3741288,-0.8617214
9.959755,-4.9416614,-0.6574765,1.0445620999999998,-0.60835195,-0.9596693000000001
10.076458,-5.3812940000000005,-1.4103955,0.9556725,-0.64187974,-1.0123782
10.192250999999999,-5.680761,-2.0085917,0.77733475,-0.60035837,-1.053376
10.179494,-5.6529110000000005,-1.8515797999999999,0.6368008000000001,-0.45130724,-1.1055264
9.789766,-5.360828,-1.2846808,0.6059260000000001,-0.27085763,-1.1651643999999999
9.21263,-5.0877457,-0.599058,0.7448716,-0.19898498,-1.2242438
8.673293,-4.8873987,-0.17367539,0.90722215,-0.24211207,-1.2758881000000002
8.045782,-4.6618075,-0.5632695,0.93437946,-0.32515484,-1.3094158
7.614701299999999,-4.468509,-1.1947545,0.82684976,-0.38210493,-1.3216506000000001
7.3668914,-4.453426,-1.5653386,0.6399948000000001,-0.336866,-1.2833231999999999
7.166085000000001,-4.6565404,-1.7254532999999999,0.40631264,-0.18568558,-1.1891103
6.975708,-4.830704,-1.6278465,0.17741272,-0.041416664,-1.074128
6.8177958,-4.948796,-1.4670902,0.036337756,0.022444934,-0.9586220999999999
6.758525,-5.1423144,-1.1298525,-0.007836528,0.049584802000000004,-0.8287346999999999
6.7287025,-5.2266474,-0.9578722,-0.06585127,0.06661922,-0.7004355
6.9047529999999995,-5.345619999999999,-1.2104318,-0.17870426,0.07620107400000001,-0.5705481
7.1037116,-5.6118174000000005,-1.4717062,-0.29846877,0.09430013599999999,-0.4113741
7.2551875,-5.946383,-1.477845,-0.3639535,0.06874852,-0.24424137
7.278430499999999,-6.201432700000001,-1.3205171999999998,-0.35330700000000004,0.05864306,-0.0041538836
6.911936,-6.295553,-1.0305507,-0.31869712,0.111334555,0.287543
6.752673,-6.030295,-1.1766448,-0.38098790000000005,0.088453285,0.49888492
7.537799400000001,-6.206824299999999,-2.1120882,-0.5571789,0.025115287000000003,0.7496015
7.8523397,-6.8211193,-2.4361482000000003,-0.6647086,-0.021188296000000002,1.0860311000000002
8.13974,-7.191492,-1.9955671000000001,-0.5268451,-0.044610616,1.431519
8.2696295,-6.9714746,-0.78874576,-0.12707742,-0.11168362,1.6572076
8.732802000000001,-6.071198000000001,-0.26754725,0.30302405,-0.24689427,1.7583494
8.957993,-5.2222133,-0.70637566,0.79384553,-0.34697145,1.7514379
9.583176,-3.7359028,-1.4061626,1.0988767,-0.55723125,1.4256722
10.439007,-2.3607306,-3.416095,0.7768111,-0.6482675999999999,0.97104883
10.292511,-1.7812860000000001,-5.200819,-0.10737266,-0.30864403,0.6452656999999999
10.202689,-1.9446664,-5.856093,-1.2108746000000001,0.32854077,0.38070866
9.705749,-3.3794732000000005,-4.2237263,-1.7048724999999998,0.90237015,0.42223006
9.094308999999999,-5.2022075999999995,-1.7688936999999998,-1.5371988,1.226024,0.66442937
8.5813265,-5.8066,0.14567281,-1.09111,1.0636735000000002,0.8172155
8.502711,-5.0632,0.12444103,-0.6998420999999999,0.5467768,0.8560665000000001
8.765191,-4.15371,-0.46078804,-0.35650095,0.05757841,0.83477354
9.229322,-3.459832,-0.6477082,-0.052010812000000003,-0.269793,0.7597244000000001
9.578702999999999,-2.9680536,-0.8490222,0.107145764,-0.37678167,0.6905220999999999
9.7716465,-2.5973544,-1.414073,0.06827728,-0.26712263,0.6032206999999999
9.996682,-2.1145303,-1.9564267,-0.07276278,-0.117006876,0.45256388
10.260676,-1.5687001,-2.1868255000000003,-0.19785053,-0.04939282,0.18161896
10.651966,-1.3650014,-2.2514117000000002,-0.28195795,-0.029164452,-0.10421361
10.70439,-1.5204138999999999,-2.0892188999999997,-0.3362726,0.015515977,-0.35814157
10.495089,-2.0089173,-1.6922792000000002,-0.34211943,0.121457465,-0.5311385999999999
10.126103,-2.655524,-1.3187838,-0.2931455,0.22738150000000001,-0.6360154
9.942314999999999,-3.0768557,-1.0554311,-0.24790657,0.27370253,-0.7707025
10.018308,-3.2166197,-1.3042941000000001,-0.24897122,0.24921556,-0.9181478999999999
9.8207855,-3.2788208,-1.3642066000000002,-0.24736552,0.29606020000000005,-1.0581408
9.6443615,-3.304324,-1.2549831,-0.3602185,0.5361477,-1.1608882999999999
9.530427,-3.7432480000000004,-1.466209,-0.5358859,0.7213969,-1.2130562
9.564894,-4.9857044,-1.440706,-0.5656960999999999,0.7799526999999999,-1.1076558
9.242758,-6.2533484,-1.0652187,-0.462425,0.73521996,-0.83458155
8.829538000000001,-6.983149000000001,-0.61561626,-0.25642377,0.66388834,-0.5024105
8.355754,-6.8862314,-0.11187626,0.10128146,0.5217662000000001,-0.19579104
7.786595299999999,-5.928685,0.6354594,0.68312186,0.21142918,-0.034487706
7.584371000000001,-4.6917542999999995,0.70865494,1.2399341999999998,-0.24370033,-0.005742133000000001
7.7448690000000004,-3.9099324,-0.2380028,1.5119438,-0.6062227,-0.06536258
8.23819,-3.7068276,-1.7634444,1.4512588,-0.9532814000000001,-0.16331045
8.992009,-4.0169725,-2.8982673,1.1696672,-1.0160958,-0.25699973
9.736366,-4.6159153,-3.1468332,0.75019485,-0.7589913,-0.29585075
9.856239,-5.1528487,-2.771097,0.33871606,-0.333131,-0.23144811
9.677909,-5.4034834,-2.1194527,0.1412146,-0.020647245,-0.21600194
9.517047999999999,-5.3063745,-1.0923306000000002,0.22052234,0.09377654,-0.24263567
9.00601,-5.041969,-0.4190236,0.37969637,0.1060113,-0.29054496
8.303177999999999,-4.536821,-0.5637386999999999,0.44835764,0.07780678,-0.31981415
7.654530499999999,-4.1715517,-0.94508713,0.44303438,0.050125855999999996,-0.31981415
7.062905000000001,-3.9459987,-1.2527325,0.38395497,0.018727383,-0.29160962
6.5846004,-3.8451644999999997,-1.7352598999999997,0.20774654,-0.002024582,-0.19950859
6.2211894999999995,-4.041154,-2.2199612,-0.06798057,-0.018535396000000003,-0.022776546
6.0326796,-4.4347606,-2.2765505,-0.24469516,-0.045675267,0.19919443
6.0082684,-4.7191343,-1.770809,-0.32669073,-0.07974409,0.44778168
6.30083,-4.930389,-1.3202394,-0.36980036,-0.11274827,0.65112996
6.9074154000000005,-5.105893599999999,-1.1346408000000001,-0.39428732,-0.18568558,0.8283855999999999
7.5897820000000005,-5.3920580000000005,-1.0631597,-0.4150393,-0.23357742,0.97000164
8.237069,-5.658877400000001,-1.0006614,-0.4118628,-0.20165534,1.1153177
8.837793,-5.8703527,-0.8401445,-0.34370768,-0.12445943,1.2574573999999998
9.291992,-5.918476,-0.7512813,-0.2766347,-0.18353882,1.3309183
10.29386,-6.2624655,-1.3210821000000001,-0.23617795,-0.32513738,1.3655107
10.954622,-6.6145954,-1.2916622,-0.038152896,-0.3528183,1.434713
11.314528,-6.4542794,-0.71077144,0.34828046,-0.33793065,1.4336483
11.743655,-5.8438253,-0.46780786,0.7368779999999999,-0.31024972,1.3042846000000001
12.351065,-4.836124400000001,-1.4954566999999999,0.90617496,-0.24422392,0.98543036
12.728534,-3.4400462999999997,-2.8626127,0.81300926,-0.09836676,0.55850536
12.0244,-1.6999598999999999,-3.7670752999999997,0.3530801,0.08899434,-0.018517943000000002
11.753692,-0.95878196,-4.667429,-0.303792,0.29977775,-0.6173928000000001
11.165780999999999,-1.4059231,-4.437078,-0.7929903,0.42223006,-1.1401188
10.577699,-2.702958,-3.2641492000000003,-1.1390018,0.58990383,-1.4275746
9.782622,-4.427214,-2.3940102999999997,-1.2486609,0.8353146,-1.4776132
8.753967999999999,-5.712086,-1.0166259,-1.0682113000000002,1.0445098,-1.3221742
7.700193400000001,-6.2113447,0.011271901,-0.73977524,1.0945483,-1.1050029
6.896086,-5.8921209999999995,0.16917428,-0.45710173,0.9433679,-0.9314648000000001
6.453571,-5.2016425,-0.32572636,-0.23246041,0.6585825,-0.8148768
6.273766,-4.556271,-0.8561187,-0.089273594,0.3519631,-0.7169289000000001
6.143435500000001,-4.184958999999999,-1.2195393,-0.040282197,0.1619142,-0.62004566
6.127883,-3.9457307,-1.3906768999999999,-0.08073893,0.15287338,-0.49494046
5.952971499999999,-3.7951257000000007,-1.5188911,-0.18455112,0.2625324,-0.28626890000000005
5.692961,-3.7839398,-1.4669656999999998,-0.22607249,0.32108822,-0.06801548
5.827697799999999,-3.7162895,-1.280352,-0.15472344,0.25188592,0.048014008
6.133025,-3.538994,-1.1657655,-0.04082325,0.11719886,0.12519246
6.4523735,-3.4712286,-1.3141965,0.02677335,0.040544,0.21994638
6.657145,-3.6745248,-1.5441068,0.036878806,0.038955748,0.36740926
7.032459700000001,-4.01386,-1.8933921999999999,0.0033510323,0.020315632,0.5143310999999999
7.448284599999999,-4.3502645,-2.1889133,-0.043476153,-0.032358404,0.6942571
7.927106,-4.5880756,-2.2455027000000003,-0.09032079,-0.13297664,0.79751074
9.306903,-5.152744,-2.5617766,-0.22020820000000002,-0.30916762,0.88270026
10.679969,-6.402468700000001,-2.8643942000000004,-0.26492350000000003,-0.41617376,1.0312103000000001
11.774080999999999,-7.258242599999999,-2.5602252,-0.2761111,-0.4049862,1.1829143999999998
12.765663,-7.414335,-2.2274504,-0.2803697,-0.2772281,1.2489401000000002
12.956328,-6.693220599999999,-1.5841858,-0.07967428,-0.13988814,1.1685503000000002
12.279095,-4.948825,-0.23223756,0.3333928,-0.043545965,0.8406378000000001
11.865194,-3.4202225,0.1490247,0.67355746,-0.16811012,0.44778168
11.025596,-3.1469004000000003,-0.65897053,0.8779703999999999,-0.4523719,0.20451768
10.452164999999999,-3.3175112999999996,-1.6766115000000001,0.85187775,-0.7552563,-0.013735741000000001
10.167629,-3.3590362000000002,-2.5163157000000003,0.5324825,-0.9106953999999999,-0.20216149
10.035277,-3.6552467000000006,-2.9566572,0.12685053,-0.8042303000000001,-0.30223867
9.895484,-4.115096,-2.1324196,-0.14568263,-0.5902354999999999,-0.36931166
9.534171,-4.319733599999999,-1.0144233,-0.18933332,-0.40765655,-0.44491932
9.289378,-4.432030999999999,0.27868509999999996,0.023579397999999998,-0.29958576,-0.53059757
8.952715,-4.503991,1.0686280000000001,0.33658674,-0.29799749999999997,-0.6072699
8.543191,-4.3101277,1.0570784,0.5409997,-0.34323645,-0.68231905
8.31851,-4.107837,0.28898972,0.49893728,-0.30384436,-0.7754847
8.336084,-4.0265303,-0.571946,0.31209978,-0.17130406,-0.86065674
8.3619795,-4.154208000000001,-0.8514069,0.09969321,-0.021188296000000002,-0.9388999
8.245486999999999,-4.317243599999999,-0.8044996,-0.06476917,0.111352004,-1.0038434999999999
7.996318,-4.5473647,-0.41703162,-0.10255554,0.22207569,-1.0411063
7.7543693,-4.7436604,-0.017630901,-0.09457939,0.29499555,-1.0464296
7.529764,-4.966302400000001,-0.008197746,-0.11906636,0.35463345,-1.0245955
7.3180118,-5.282049,-0.4363289000000001,-0.17655751,0.38550833,-0.92238903
7.181800999999999,-5.798785,-0.7130506999999999,-0.22818434,0.39187878,-0.7280989999999999
7.1515474,-6.16076,-0.96909624,-0.29153979999999996,0.3998724,-0.530615
7.150877,-6.211421,-1.1716648,-0.35381314,0.39402553,-0.33950144
7.026197,-5.953048,-1.1394101,-0.36925929999999996,0.3567453,-0.17341591
7.14651,-5.8023763,-1.1388068999999998,-0.41770965,0.26731459999999996,-0.008395034000000001
7.803747,-6.293992,-1.6759316999999998,-0.5619611,0.17203711,0.18216002
8.3149185,-6.9515553,-1.9271407999999999,-0.7008893,0.09431759,0.404131
9.310073,-7.8392773,-1.7837281000000003,-0.7397578,0.1049641,0.70383894
9.161067999999998,-7.904907000000001,-0.55670935,-0.4325973,0.25188592,1.0248225
8.720775,-6.682264999999999,0.8534371,0.09171705,0.3232175,1.1643091
8.432158,-4.908161,1.2107573999999999,0.60913736,0.21675244,1.0918955
9.014725,-3.6852797999999996,-0.07732314,0.9370497999999999,-0.032882,0.84065527
9.522497,-2.9725547000000003,-1.6561842,1.0110518,-0.37357026,0.55745816
9.811314999999999,-2.6870892000000004,-3.035254,0.71986103,-0.50345767,0.23273966
10.13027,-2.6708374,-4.1433480000000005,0.066706486,-0.28468066,-0.050981067000000005
10.089999,-3.221657,-4.3817625,-0.55237925,0.18533652,-0.19364429
9.486871,-4.1959724000000005,-3.2867026,-0.71101224,0.49834386,-0.12124802
8.2604265,-4.955212599999999,-1.6604842,-0.5731312,0.62611943,0.06558947
7.353628,-4.9641665999999995,-1.0928286,-0.38735837,0.49090877,0.25562093
6.7346406000000005,-4.51647,-1.3406954,-0.25001842,0.16725489999999998,0.3988252
6.600258999999999,-4.058008999999999,-1.5900277,-0.17336355,-0.11061897,0.51379
6.7269406,-3.9470330000000002,-1.5634615,-0.15845844,-0.22666591,0.6388951999999999
6.937745,-4.0436726,-1.4241765,-0.15365879,-0.2160194,0.7953989
7.045752499999999,-4.1113043,-1.1744421999999999,-0.105749495,-0.21334904,0.9354091999999998
7.2979484,-3.9321410000000006,-1.075619,-0.018989183,-0.28841567,1.0189755999999999
7.720217999999999,-3.6427300000000002,-1.1926188,0.047001716,-0.378911,1.0194992
8.310475,-3.2602515,-1.5086343999999998,0.03530801,-0.41456807,0.9476614
8.958692,-3.0597706000000002,-1.7984381,-0.019512782,-0.39913934,0.8140215999999999
9.614759,-2.9683886000000004,-1.8620569,-0.10787880400000001,-0.33632496,0.6250548
10.053167,-3.0401093999999995,-1.7986966,-0.179734,-0.2628466,0.43661156
10.356263,-3.2365966,-1.5149264,-0.21701424,-0.17767452,0.25136232
10.497665,-3.3722043,-1.2255726999999998,-0.25586528,-0.044069562,0.04855506
10.615611999999999,-3.5187294000000002,-0.9468493,-0.27876398,0.12679817,-0.17074557
10.915778,-4.0121074,-0.9602568000000001,-0.36606535,0.20184733,-0.33150783
11.186496,-5.2645526,-1.1802073999999998,-0.40758675,0.27904323,-0.34269540000000004
11.186745,-6.209544,-1.0687524,-0.41875684,0.3311937,-0.27296948
11.0803175,-6.695174000000001,-0.6880744000000001,-0.32239723,0.4249004,-0.21067870000000002
10.546113,-6.0685544,-0.061885327000000004,-0.16962855,0.45204028,-0.2234545
9.735111,-5.146691000000001,0.5539321,0.12259193,0.43287656,-0.25698227
9.259891,-4.6779923,0.9187796999999999,0.52876496,0.14755014,-0.33044317
9.309383,-4.8684173,0.52258724,0.91151565,-0.27668706,-0.40231586
9.309633,-4.9384336,-0.32489315,0.98923516,-0.50345767,-0.44755477
9.743625,-5.206278,-1.2053657,0.91790354,-0.5460437,-0.48321185
10.248581,-5.426228500000001,-1.3203543,0.8971341,-0.44596654,-0.5545609
10.332857,-5.186473400000001,-0.97935295,0.910451,-0.33152529999999997,-0.6407976
9.658085,-4.8061495,-0.64041066,1.0323448,-0.33417818,-0.73768085
9.076754,-4.4498534,-0.32291076,1.175008,-0.38208747,-0.8478635
8.589658,-4.204879,-0.56578815,1.1872426999999999,-0.37357026,-0.92664766
8.151778,-4.0523396,-1.1357901000000001,1.047791,-0.29958576,-0.94633496
7.6094723,-3.9732065000000003,-1.7077648999999997,0.84231335,-0.27775168,-0.94315845
7.301348,-3.8920046999999998,-1.8622484000000001,0.6485469,-0.29372147,-0.95645785
7.296262700000001,-3.9991019999999997,-1.7120266,0.48298496,-0.29319787,-0.95912826
7.3774643,-4.2597830000000005,-1.4061337999999999,0.3286106,-0.212808,-0.96017545
7.821675,-4.7400025999999995,-1.2459329,0.20404644,-0.077597335,-0.91174257
7.7193179999999995,-5.078657,-0.85984397,0.13112658,0.08155923,-0.85531604
7.9348345,-5.3161907,-0.8957761999999999,0.06085963,0.10444049999999999,-0.81540036
8.240314999999999,-5.6754837,-1.4201925,-0.04612905,0.03843215,-0.76269144
8.563189,-5.9313188,-1.8637903000000002,-0.24680701,0.063442715,-0.7429866999999999
8.802655999999999,-5.9327745,-2.0581899,-0.497541,0.22155209,-0.70520025
8.951135,-6.163518,-2.1567925999999997,-0.87123346,0.34505159999999996,-0.64770913
9.282932,-7.510352,-2.5517786,-1.1427194,0.49197340000000006,-0.40496874
8.731069999999999,-8.096136999999999,-1.5206628,-1.2433201999999999,0.67774624,-0.027017696
8.144097,-8.547616,-1.0565995000000001,-1.0596766000000002,0.7544010999999999,0.46111599999999997
7.424323599999999,-7.531162700000001,0.109884284,-0.50284684,0.60802037,0.7586771999999999
7.271277,-5.197075,0.66473573,0.07737044,0.24390976,0.74324846
7.712902000000001,-3.6103699999999996,-0.37116832,0.33126348,-0.0036128315,0.6032206999999999
8.309948,-3.0695486,-1.9595966,0.27324873,-0.17873918,0.45631632
8.412324,-2.9337397000000003,-3.1272583,-0.017907077,-0.15105824,0.33494613
8.589888,-3.1619072,-3.7437940000000003,-0.5481031999999999,0.11721631,0.26361454
8.473875,-3.7759626,-3.7125449999999995,-0.87601566,0.3493102,0.32375857
7.7518697,-4.431667299999999,-2.5197825000000003,-0.89250904,0.45896924,0.49251446
7.221439,-4.4789863,-1.4730948,-0.79351395,0.4754626,0.63837165
6.9139276,-4.103873,-1.192935,-0.6838549,0.29660127,0.75176567
6.681067999999999,-3.633565,-1.3698378,-0.6002711,0.073565625,0.7884874
6.8714832999999995,-3.2236679,-1.5124748,-0.6550919,-0.020106193,0.8066039
6.9344415999999995,-3.2419791,-1.7831727,-0.8025547,-0.0009424778,0.8986875
6.929365600000001,-3.652163,-1.5895583999999998,-0.8643045,-0.00572468,1.0269692
7.190707000000001,-4.054801,-1.0477314,-0.8371472,-0.041922808,1.1552683000000001
7.5303005999999995,-4.2968163,-0.6417514,-0.72696453,-0.035011306,1.2601277
7.979108,-4.306393,-0.41765413,-0.56885517,-0.06375687599999999,1.3389118999999998
8.49842,-4.219752,-0.38642415,-0.41449824,-0.12231267,1.3405001
9.293956,-3.907864,-0.78127587,-0.33730233,-0.17502162,1.2627981000000001
10.092202,-3.7665582000000004,-1.2258313,-0.27874655,-0.22026055,1.1382165000000002
10.889433,-3.8062155,-1.3818469999999998,-0.2340312,-0.22717206,0.9769306000000001
11.540942,-3.8901756,-1.3937798000000001,-0.19463912,-0.17022195,0.7884874
12.065244,-3.9342191,-1.4516907,-0.26810002,-0.09995501,0.5851390999999999
12.861968,-4.666443,-1.8920323000000001,-0.33997267,-0.03981096,0.4680275
13.402118,-5.4287279999999996,-1.8233473999999998,-0.32185617,-0.013177236,0.3418751
13.947968,-5.7767873,-1.4274805,-0.21060888,0.033108898,0.18483037
13.777663,-5.383573,-0.9307315999999999,-0.029618237000000002,0.116692714,-0.025411992999999997
12.893658,-4.29697,-0.3470156,0.2716605,0.14383258,-0.30860913
11.667079,-3.1542169999999996,0.100537315,0.60330796,-0.061086524,-0.6317394000000001
10.908135000000001,-2.9278312,-0.5178084,0.8061151999999999,-0.3666413,-0.8984257
10.369000000000002,-3.189182,-1.2867111,0.8247553,-0.55881953,-1.0906038
10.002831,-3.5604652999999997,-1.8708962,0.64482933,-0.6407976,-1.2502841
10.018576,-4.201824,-2.050854,0.3967657,-0.5896769000000001,-1.362596
10.115502000000001,-4.906198000000001,-1.49425,0.20991075,-0.40496874,-1.3966823
9.600079,-5.3292055,-0.70069665,0.16467181,-0.23834217,-1.3871004999999998
9.041837,-5.379187,0.30392954,0.30094713,-0.0893085,-1.394012
8.588816,-5.2315507000000006,1.0176219000000002,0.5431639,-0.010524335,-1.4057231000000001
8.085401,-4.9801407,0.8893981,0.7044498,-0.033946656,-1.4020056
7.704789999999999,-4.703735,0.0023463177,0.6735749,-0.058957222999999996,-1.4121284
7.6350994000000005,-4.546924,-0.77157456,0.5309116999999999,-0.019041541999999998,-1.4179753000000002
7.4504589999999995,-4.5318312999999995,-1.0921869,0.36430258,0.0352382,-1.3796479
7.150628,-4.724171599999999,-0.8806544,0.30892327,0.08421214,-1.3051223
6.9184384,-4.866349,-0.36487633,0.3254341,0.13425073,-1.2178209
6.803833,-5.0751615,-0.24589409,0.31637582,0.18802431,-1.0916685
6.7693753,-5.2750297,-0.57660043,0.24771458,0.24125686,-0.9410117
6.9365196,-5.521182,-1.0787411,0.14657275,0.231675,-0.79089594
7.1204133,-5.759942,-1.4022553,0.07204719,0.15128514,-0.6056467
7.0181135999999995,-6.0514980000000005,-1.6016923,0.029984757,0.059725165,-0.36025342
7.03224,-6.2862735,-1.6074479,0.027331855,-0.012112585,-0.097267196
7.120001299999999,-6.2712283,-1.5545455,0.029461157999999998,-0.06747443,0.14597934
7.341877,-6.1339736,-1.8780118000000001,-0.16376424,-0.18458602,0.351998
8.078294999999999,-6.7287602,-2.9116845000000002,-0.41289255,-0.24581218,0.63838905
8.5601425,-7.234195,-2.6371078,-0.5422389,-0.17128661,0.95511395
8.896258999999999,-7.40585,-1.8857593999999998,-0.4815538,-0.023300145,1.2505633
8.980545,-6.788864,-1.0094625,-0.22656119,0.06026622,1.4347478999999999
8.776530000000001,-5.461519200000001,-0.75925887,0.059812434000000005,0.008621926,1.4735989999999999
8.88947,-4.2016800000000005,-1.1628063,0.29242992,-0.16170475,1.3272182
9.386497,-3.5022287000000003,-1.7789015,0.45052183,-0.37144098,1.1148117
9.62674,-3.1419108,-2.4175596,0.44734535,-0.49333477,0.8821940999999999
9.909036,-3.0579991,-3.0456927000000005,0.1455081,-0.33150783,0.6612703000000001
10.043255,-3.1995343999999997,-3.846965,-0.40276963,0.032044247000000005,0.51860714
9.610565,-3.6407763999999996,-4.0424657,-0.78072065,0.31419417,0.51595426
8.761265,-4.0799303,-2.8241810000000003,-0.77698565,0.35997415,0.5505641
8.095064,-4.048135299999999,-1.7030723,-0.6934019,0.28119,0.5878269
7.613954,-3.7594137,-1.5254893999999999,-0.63858104,0.15449655,0.6240076
7.3288044999999995,-3.517293,-1.4280072,-0.59864795,0.03577925,0.6575528
7.2228565,-3.430824,-1.2504916000000001,-0.60664153,0.0070336769999999995,0.7187614999999999
7.1269350000000005,-3.4932745,-1.2315104,-0.59227747,-0.014241886,0.79063416
7.2989726,-3.5167375,-0.9418981,-0.50443506,-0.066409774,0.8390844999999999
7.493918400000001,-3.4744272000000005,-0.67980003,-0.3644422,-0.10314896,0.87952375
7.8096559999999995,-3.4278936,-0.6598228,-0.27553514,-0.09354965,0.90189886
8.162609,-3.2828336000000005,-0.9985928,-0.22921409,-0.11590732,0.8790002
8.697465,-3.1253812,-1.3212641,-0.18184586,-0.13934709,0.7980866999999999
9.276947,-3.0455202999999997,-1.4096485,-0.14458308,-0.12177162,0.67245793
9.814541,-3.1372278,-1.4046973,-0.13233086,-0.05363397,0.5484348000000001
10.359346,-3.4042099,-1.4725586000000002,-0.08974483,0.027262043,0.42387065
10.663506,-3.4595351,-1.3369989,-0.0013788101,0.06932448,0.26204374
10.894767,-3.4128006,-1.3012487,0.03213151,0.075694926,0.060283672
11.478598,-3.8507574,-1.791811,-0.025342181000000002,0.07517133,-0.101525806
11.966431,-4.759567700000001,-1.8901457,-0.116361104,0.10871656,-0.19415042
12.49622,-5.6910844,-2.1170106,-0.19142771,0.15821409,-0.23621286
12.394581,-6.144048000000001,-1.3975817,-0.07377507,0.25457373,-0.27239352
11.859917999999999,-5.69639,-0.41043320000000005,0.19076449,0.26522022,-0.3682121
10.878132,-4.8581324,0.28461313,0.5474225,0.12946853,-0.5364444
10.524815,-4.379694000000001,0.24255179,0.8929103999999999,-0.18032742,-0.7301934
10.350785,-4.4819074,-0.25119963,1.0914591999999999,-0.43851396,-0.90214324
10.400163000000001,-4.618176,-1.1159757,1.0174745,-0.4800179,-1.0708817
10.646699,-4.9809165,-1.7667102,0.84819514,-0.38259363,-1.1933165000000001
10.54122,-5.331169,-1.6455252,0.73853606,-0.25218263,-1.2577366
9.94562,-5.460504,-1.024728,0.78857464,-0.17713347,-1.3003227
9.219142,-5.274417,-0.33195126,0.9258972,-0.13400638,-1.3397148
8.566817,-5.0199323,-0.058083333,1.0291858,-0.091420345,-1.3498201
7.958873,-4.739954,-0.39926666,1.0355736,-0.07012733,-1.3530141000000002
7.5427504,-4.4717080000000005,-1.0686376,0.92697924,-0.076515235,-1.3471673000000002
7.194739,-4.419226999999999,-1.4941063,0.76249945,-0.09407324,-1.2997816
6.9090724,-4.5367440000000006,-1.6741120999999999,0.59426713,-0.08822639,-1.2172798999999999
6.7496758,-4.692654,-1.4365593,0.49525464,-0.07119198,-1.1235906
6.720792299999999,-4.832667400000001,-1.0025766999999999,0.45481536,-0.044034656,-1.0117848
6.8081326,-5.0434813,-0.8495106,0.40903535,0.028344147000000004,-0.8989318000000001
6.972805999999999,-5.088856,-1.1197872,0.2620961,0.111910515,-0.8079129
7.174081299999999,-5.165864,-1.6992991000000002,0.07154105,0.13906783,-0.68760735
7.2535214,-5.515379,-1.9631207999999998,-0.07375761,0.111910515,-0.5348212
7.476689299999999,-5.973744,-1.9604776999999998,-0.15681784,0.08316494,-0.35437164
7.617420699999999,-6.3397794,-1.8707334,-0.19781561,0.08688249,-0.14250614
7.5735016,-6.1032033,-1.7532356,-0.25956535,0.13479178,0.0054628807
7.801353,-5.758496,-1.9476161,-0.5150816,0.12362167,0.12683308
8.479851,-6.5270150000000005,-3.1113513,-0.8355415,0.10924016,0.35093334
8.5656395,-7.1887913,-3.0973022,-1.0622946000000002,0.13746212,0.64852947
8.673465,-7.6331940000000005,-2.2468147000000003,-0.997892,0.19708258,0.9971764000000001
8.212246,-7.174703999999999,-0.80154043,-0.63697535,0.22530456,1.2670741
7.9335130000000005,-5.8527603,-0.04021301,-0.28670523,0.15927875,1.3836447
8.008222,-4.7383169999999994,-0.6382175,-0.02745403,-0.05681047,1.3596988
8.540242,-4.149937,-1.512561,0.21046926,-0.34533083,1.3064662
8.810164,-3.8850135999999997,-2.1452812999999997,0.31321678,-0.6280044,1.1968071000000002
9.649629,-3.6422608,-2.8078334,0.19395845,-0.66474354,0.9881356
10.177484,-3.4977753,-3.2813206,-0.17013470000000003,-0.35067156,0.8252440000000001
9.851958,-3.5593832,-3.3085186,-0.59969515,0.09807005,0.76349425
8.997994,-3.7232422999999994,-2.7993581,-0.75035197,0.27960175,0.7512595000000001
8.227502000000001,-3.6790357000000005,-1.7699471999999998,-0.7705803000000001,0.26096162,0.71506137
7.778014,-3.5010698,-1.6281338,-0.8328537,0.20614083,0.7214493000000001
7.2648983,-3.4678288,-1.3625785,-0.9010087999999999,0.20933479,0.76242965
7.113719500000001,-3.5270996,-0.9689334000000001,-0.94253016,0.20720549,0.8225911
7.209382000000001,-3.8318144999999997,-0.58516204,-0.8456469000000001,0.17633061,0.90083426
7.328163000000001,-4.0673466000000005,-0.12320562,-0.6598566,0.06986553,0.990806
7.483566000000001,-4.1908684,0.18623058,-0.40221113,-0.015289084,1.0600083
7.985975,-3.9279466,0.19971472,-0.22282618,-0.0062482785,1.0701138000000001
8.415332000000001,-3.3836582,-0.4032602,-0.13339551,0.012374383999999999,1.0339155999999998
8.812558000000001,-2.9640408,-0.82712007,-0.012548917,0.015568336499999998,0.9349030999999999
9.504167,-2.7271395,-1.0901756999999999,0.056635935,-0.018483037,0.7219729
10.37308,-2.8379717,-1.5998535,0.08911651400000001,-0.0339292,0.5048016
10.823486,-3.1327937,-1.9066752,0.0816465,-0.003577925,0.3259228
11.268464,-3.2898726000000003,-2.0221524,0.033213615,0.10180505,0.10449286599999999
11.645453999999999,-3.4585296999999997,-2.1182939999999997,-0.10677924,0.23595107,-0.10737266
12.150669,-4.3246655,-2.3691487,-0.20579177,0.3456101,-0.25429448
12.584977,-5.2042766,-2.1392672000000004,-0.23666665,0.3349636,-0.37992328
12.899451,-5.989412000000001,-1.9217395,-0.19512782,0.29131290000000004,-0.44591418
12.506544,-6.1695223,-1.3866833,-0.03705334,0.23380429999999996,-0.515675
11.964314,-5.8382797,-0.57878387,0.31002283,0.20294689,-0.6263812
10.932031,-4.842541000000001,0.44749546,0.69170886,0.13906783,-0.79885465
10.321356,-4.162626,0.29314604,0.97862357,-0.04457571,-0.99794436
9.869455,-4.1456366000000004,-0.68170583,1.066466,-0.21917845,-1.1432605
9.575600999999999,-4.3443556,-1.6221195,0.94616044,-0.34904840000000004,-1.2316265
9.484803,-4.7967734,-2.3482903999999998,0.7529176,-0.44594908,-1.2768829
9.503247,-5.306758,-2.2516507999999997,0.6331356,-0.49544662,-1.2763593
9.158636,-5.7151510000000005,-1.3466426999999999,0.59534925,-0.44912559999999996,-1.1885169
8.447519,-5.7597309999999995,-0.5572744000000001,0.6485818,-0.37568212,-1.0905690000000001
8.065548,-5.553973,0.1830415,0.81679666,-0.31285027,-1.0320132
7.8578660000000005,-5.251538,0.5207485,0.94242543,-0.28625146,-0.99633867
7.625503999999999,-4.8680825,0.0012832921000000001,0.90942127,-0.27452284,-0.9974033000000001
7.6366224,-4.553925,-0.76789707,0.7529176,-0.23460716,-1.0171081
7.6269307,-4.4778757,-1.1459607,0.56075686,-0.15156439,-1.0197783999999999
7.5346484,-4.516451,-1.0927233,0.4031885,-0.028588492000000004,-1.0155023
7.4430559999999995,-4.5661354,-0.80473906,0.28766516,0.08796459400000001,-1.0064616
7.286791,-4.6428456,-0.56482095,0.21633355,0.19388862,-0.9782396000000001
7.156384,-4.7673345000000005,-0.41831490000000005,0.17428859,0.27747244,-0.92713636
7.1201550000000005,-4.966465,-0.5325184000000001,0.10293952,0.34081045,-0.84836966
7.1160274,-5.3236704,-0.9567421,0.0018151425,0.36690313,-0.71952945
7.1752887,-5.712507700000001,-1.3193104,-0.083339475,0.33922220000000003,-0.55024993
7.150637599999999,-6.123688,-1.4654046,-0.11527899999999999,0.30302405,-0.328279
7.0138617,-6.4363804,-1.5137771,-0.09346238,0.26895523,-0.06850417
6.806140400000001,-6.259133,-1.6647555,-0.14454816,0.19655898,0.26047292
6.6073455999999995,-6.0988555,-2.4152515,-0.38091812,0.050178215,0.5846504
7.404107000000001,-6.485174,-3.3334660000000005,-0.61618847,-0.07703883,0.9301383
7.788137400000001,-6.956621000000001,-2.9971957000000002,-0.6492101,-0.14357078,1.3059427
8.428566,-7.1140065,-1.9262215,-0.46289623,-0.17498670000000002,1.6029801000000001
8.843596,-6.5216236,-1.1843063,-0.23825489,-0.19521508,1.7898351000000003
9.0763035,-5.7434983,-1.5414348999999998,-0.099309236,-0.23247786,1.8851126
9.220033,-4.926003,-1.6732596000000002,0.04811873,-0.339484,1.8622313999999998
9.736032000000002,-4.3369527,-1.8860276000000002,0.091245815,-0.56145495,1.6881523
10.323252,-3.7648342000000006,-2.3602042,0.07262315,-0.68547803,1.4193367000000001
10.835458000000001,-3.3983392999999995,-2.204734,-0.08705702400000001,-0.530039,1.1036764
11.279419,-3.3711220999999996,-2.1628165,-0.47991318,-0.080232784,0.77789325
11.284457000000002,-3.6236434,-2.2428977000000003,-0.80890775,0.40364229999999995,0.48883182
10.795810000000001,-3.9674506000000003,-1.5867045,-0.8498880999999999,0.66713464,0.25406757
9.673197,-4.02269,-0.9641354,-0.87064004,0.73420763,0.1497318
8.483614,-3.8621057999999997,-1.2756306,-0.8967326999999999,0.67086965,0.0970403
7.7773824000000005,-3.7361230000000005,-1.1191263999999999,-0.8520174,0.55801666,0.058171824000000004
7.362046,-3.7463699999999998,-0.7827603,-0.8025024000000001,0.49200833,0.059777527999999996
7.077700599999999,-3.8488421,-0.66933256,-0.79665554,0.48455575,0.09862856
6.9081339999999996,-4.0019083,-0.60226625,-0.7524638000000001,0.46539205,0.17582446
6.7035832,-4.12294,-0.40666953,-0.6332229,0.42599997,0.33072245
6.3887453,-4.133972,-0.28258282,-0.44957936,0.30037117,0.51118946
6.308482,-4.0421305,-0.31734666,-0.26433012,0.16303120000000001,0.65439373
6.799044599999999,-3.7784622000000003,-0.6035974000000001,-0.15786503,0.07625344,0.7161435
7.531345,-3.5067203,-1.2079418,-0.14828317,-0.013159783000000001,0.7805460999999999
8.013029,-3.5984468,-1.7490792000000002,-0.15999433,-0.12601277,0.8156796
9.00287,-3.8124212999999996,-1.8319665,-0.10143854,-0.22129029,0.76937604
10.004555,-3.9960565999999997,-1.5764861000000001,0.013002703000000001,-0.25696483,0.6794043000000001
10.639459,-3.9460275,-1.2578943999999999,0.11253883,-0.22769566,0.5303532
11.182042,-3.8474822,-1.2101924,0.068364546,-0.17870426,0.30092967
12.302233,-4.512687000000001,-1.6697642,0.021519909,-0.08182103,0.13430308
12.860808,-5.2478123,-1.5358995,-0.05565855,-0.004642576,-0.020053834
13.4393635,-5.791459,-1.5672252,-0.058852499999999995,0.111927964,-0.1728225
13.212067000000001,-5.608025,-0.8647282,0.008744099,0.19442968,-0.39959314
12.672759,-5.0759373,-0.30911058,0.2600017,0.20401153,-0.6657733
11.829664,-4.542222,0.5516049,0.64646995,0.059760075,-0.945759
10.975088000000001,-4.5408144,0.42864830000000004,0.91795594,-0.13718288,-1.1405901000000003
10.245967,-4.776155,-0.31660923,0.96532416,-0.28516933,-1.2752771
9.805050999999999,-5.1392492999999995,-1.0206386,0.8934690000000001,-0.34958944,-1.3311626
9.506905999999999,-5.4988779999999995,-1.2877071000000002,0.7779456,-0.3969577,-1.3434148000000001
9.238841,-5.966016000000001,-1.1609676000000002,0.72738343,-0.4139920999999999,-1.2789947
8.722134,-6.1770406,-0.45328942,0.82159626,-0.39324012,-1.1587067
8.199624,-5.906706,0.29430485,0.97705275,-0.38577009999999995,-1.0894868
7.850960700000001,-5.476746,0.6608763000000001,1.1590906,-0.36182420000000004,-1.0527651000000002
7.685817999999999,-5.068965400000001,0.32580298,1.1984826000000002,-0.33787829999999996,-1.0405129000000002
7.543373,-4.728098,-0.46418783,1.1138517,-0.2883633,-1.0517005
7.542942,-4.511289,-0.9400881,0.94511324,-0.23513076,-1.0703231000000002
7.4259515,-4.4330845000000005,-1.4253353000000002,0.69490284,-0.19202112,-1.0676702
7.220950599999999,-4.4698405,-1.5487995,0.4590914000000001,-0.11321951,-1.0405129000000002
7.114016,-4.562199,-1.2954738000000001,0.2770361,0.023561945,-1.0069852
7.102906699999999,-4.6383443,-1.054167,0.109362334,0.18699458,-0.95853484
7.046289,-4.746821,-0.9963231,-0.023177972,0.29078930000000003,-0.90797263
7.072941,-4.9358287,-1.0127378,-0.129102,0.31262338,-0.8419643
7.18001,-5.3349614,-1.1955781,-0.23556710000000003,0.32007593,-0.70940655
7.097247,-5.8414116,-1.3653461999999998,-0.33831462,0.31155872,-0.51296973
6.998041000000001,-6.2418656,-1.3966624,-0.3968704,0.28972465,-0.25480062
6.697339,-6.4509273,-1.3203927,-0.41709880000000005,0.28387779999999996,0.07574729
6.275049,-6.174742,-1.2577124,-0.39526471,0.24926792,0.36267942
6.348685700000001,-5.7215004,-1.2666476,-0.38035959999999996,0.11512191599999999,0.6054198000000001
6.9403977,-6.0348916,-2.1298627999999997,-0.59222513,-0.080215335,0.8987398000000001
7.5572214,-6.7819020000000005,-2.8353764999999997,-0.8429591000000001,-0.24630086,1.199495
8.67131,-7.636794999999999,-2.7244770000000003,-0.9254608,-0.30220374,1.5407243
8.761055,-7.8178344,-1.1991694,-0.6875201,-0.19626227,1.8840655
8.363894,-6.4958715,0.30725268,-0.3085044,-0.12440707,2.0192761000000004
8.724730000000001,-5.226609,0.42541134,0.027384216,-0.12812462,1.989466
9.376163499999999,-4.573959400000001,-0.48568773,0.21263346,-0.22713715,1.8468026999999998
10.151808,-4.142505,-1.5815903999999998,0.24190263,-0.42038000000000003,1.605127
10.978468,-3.8228695,-2.4047264999999998,0.08913396,-0.5145929,1.2612448
11.488434,-3.6279912000000003,-2.5269554,-0.22811453,-0.3447898,0.839643
11.691433,-3.5981405,-2.2691,-0.64278734,0.16250761,0.4105887
11.182733,-3.8203607,-1.8490803,-0.9174846999999999,0.61711353,0.21682225
9.621329,-4.2963567000000005,-1.2986053999999998,-0.9872105999999999,0.8374961999999999,0.17530087
8.33774,-4.2835813,-1.0643663,-1.0090446,0.76722926,0.18966493
7.4700723,-4.071953,-0.9829921999999999,-0.9605943000000001,0.556952,0.22001621
6.984049300000001,-3.9287221,-0.56812495,-0.8605345999999999,0.39618975,0.26206118
6.724776299999999,-3.9676422999999996,-0.12101252400000001,-0.7253239,0.29504790000000003,0.36639696
6.502144,-4.115882,0.13259089,-0.54218656,0.17315412,0.53037065
6.5158873,-4.2182193,0.21469286,-0.31435126,0.027820547999999997,0.66291094
7.018325,-4.0817404,0.030435093,-0.18926351,-0.016877335,0.74063045
7.399605800000001,-3.7619708,-0.5443456999999999,-0.15145968,0.0028099802,0.8055741999999999
7.8433470000000005,-3.4419427000000002,-0.97069556,-0.13920747,0.002268928,0.79812163
8.572008,-3.3474673999999998,-1.3024553,-0.12377875,-0.05253441,0.7464773
9.37213,-3.5704730000000002,-1.4723861,-0.060423300000000006,-0.14302973,0.6575877
10.236391000000001,-3.8069148,-1.3938851,0.0667763,-0.20903808,0.526112
10.948569,-3.8240669,-1.1623656999999998,0.23020893,-0.22074924,0.324352
11.426347,-3.5625913000000002,-1.0917655000000002,0.25254914,-0.23033111,0.028920105
12.334974,-3.9498292999999998,-1.8058792000000001,0.1248085,-0.16379915,-0.20847958
12.769839,-4.868858,-1.9972813000000003,-0.03754203,-0.036041047,-0.39266416
13.430992999999999,-5.6837873,-2.2132096000000003,-0.23237313,0.039531708,-0.5497089
13.303257,-6.2721953,-1.6691129,-0.13390166,0.17048377,-0.6508507
12.35023,-5.8145489999999995,-0.21849485,0.20251055,0.18380062,-0.8174773
11.228739,-4.877036599999999,0.75880873,0.62304765,0.06934193,-1.0506358
10.516761,-4.494846,0.63341,0.9020036,-0.21596704,-1.2571607
10.195095,-4.8271127,-0.44434470000000004,0.9871757,-0.48851764,-1.4056882
10.096396,-5.3456106,-1.1303601,0.8822988000000002,-0.55771995,-1.5015068
9.852456,-5.702787,-1.4499094,0.67682123,-0.4922352,-1.5105475
9.474355000000001,-6.019904,-1.1404444999999999,0.53735197,-0.38789943,-1.4690261999999998
9.0322695,-6.1322017,-0.40578845,0.53735197,-0.24417156,-1.3833305
8.4844,-5.990111,0.33778355,0.67203903,-0.10629055,-1.3008113000000001
8.039864,-5.6684737,0.87384534,0.88177526,-0.033370696,-1.2518373999999999
7.6761550000000005,-5.2656160000000005,0.73968387,1.0537076,-0.096185096,-1.2246976
7.340766,-4.9437394,0.12798445,1.1128045,-0.16858135,-1.2246976
7.3220625,-4.7132735,-0.61331785,1.0153801,-0.12971286,-1.2294798
7.255982400000001,-4.5822916,-1.3081152,0.7534761,-0.041364305,-1.2060574
7.0511536999999995,-4.5440702,-1.7609928,0.46177920000000006,0.05338962,-1.1379198
6.871866000000001,-4.571134,-1.7588955000000002,0.21795672,0.1566433,-1.0649998999999999
6.8945536999999995,-4.6265745,-1.3933201000000002,0.096603975,0.23757422,-1.0133556000000001
7.003921000000001,-4.7786446,-1.1342578,-0.0008028514599999999,0.30730012,-0.9425650999999999
7.0688133,-5.121437,-1.2257354,-0.14027211,0.34402186,-0.83023566
7.2618339999999995,-5.557938,-1.6733077,-0.25846579999999997,0.29611257,-0.69556606
7.556551,-5.971982,-1.7624484,-0.32072172,0.17263052,-0.55023247
7.5747275,-6.3349905,-1.902902,-0.34842008,0.09063495,-0.29365164
7.047256,-6.3941374,-1.7753963,-0.37929496,0.14388494,0.06991789
6.484685400000001,-6.103088400000001,-1.7181653000000001,-0.39526471,0.17954202,0.4121944
6.461433,-5.589618,-2.0054312,-0.47350782,0.028361599999999997,0.6363121
7.354097400000001,-5.842742400000001,-2.929727,-0.68270296,-0.20584413,0.9019338
7.861716,-6.5410449999999996,-3.5622849999999997,-0.9824109000000001,-0.42887977,1.2601975
8.582935,-7.563819400000001,-3.4536263999999997,-1.0425724,-0.48530626,1.7062862
8.51586,-7.4714413,-1.4093708,-0.7024078,-0.40067524,2.0459099999999997
8.326037,-5.8652196,0.22975717,-0.25366616,-0.36182420000000004,2.095931
8.878351,-4.402525,0.07470867,-0.060423300000000006,-0.40812778,1.9559381
9.544686,-3.8489953999999997,-1.5148114,-0.04818854,-0.51885146,1.7893115000000002
10.099863000000001,-3.6962645,-2.4012119999999997,-0.11098549,-0.71420616,1.5870453000000002
10.899871000000001,-3.7194786,-2.7520297,-0.19511035,-0.76852083,1.2990485
11.655846,-3.7042900000000003,-2.162242,-0.38088320000000003,-0.501276,0.9690068000000001
11.845102,-3.6535040000000003,-1.9589933000000002,-0.6928259,0.059760075,0.6607816999999999
11.300919,-3.7136845999999997,-1.6350291000000001,-0.83390087,0.5351354,0.47342056
9.83157,-3.8650458,-0.85424155,-0.74605846,0.63414794,0.40048325
8.670534,-3.7190475,-0.7613849,-0.66142744,0.47764426,0.3259577
8.0504265,-3.5106752,-0.9373587,-0.57890826,0.27855456,0.29295352
7.4927883,-3.452142,-0.9049125,-0.55548596,0.19498818,0.3233048
7.1596494,-3.5554376000000003,-0.8953452,-0.5496390999999999,0.17954202,0.42709953
6.952072,-3.837436,-0.6393476,-0.43252748,0.16570155,0.57615066
7.102792,-3.9701898,-0.34492785,-0.21905628,0.031555552,0.6879390000000001
7.3925667,-3.6724467000000005,-0.38029498,-0.03965388,-0.09670869,0.75129443
7.546782,-3.3141496,-0.79223174,0.08489282,-0.15048228,0.79333943
8.073172,-2.926854,-1.133913,0.18071139,-0.18401006,0.762482
8.725639,-2.8428942999999998,-1.443196,0.2610838,-0.22553144,0.68741536
9.510477,-2.9012554,-1.6917908,0.33082715,-0.26227063,0.5601809
10.3044615,-2.933376,-1.8935262,0.36808994,-0.27557003,0.37440804
10.919638,-2.9307327,-2.0342095000000002,0.3260275,-0.2308547,0.12315043
11.688081,-3.070401,-2.2649627,0.09180432,-0.113743104,-0.22657864
12.630516,-3.9688586999999997,-2.568308,-0.12643164,0.06935938400000001,-0.42938590000000004
12.812648,-5.1066117,-2.2066686,-0.28293532,0.2125462,-0.5715255
12.97551,-6.146184,-1.5933892,-0.18976966,0.33978070000000005,-0.65083325
12.251791,-6.2428718,-0.333541,0.11311479,0.46221554,-0.74026394
11.251206,-5.471881,0.6457066,0.50862384,0.50267226,-0.89889693
10.445702,-4.7185692999999995,0.44647074,0.7864977,0.25886723,-1.0798875
9.884462,-4.74887,-0.5940015000000001,1.0537076,-0.124930665,-1.1895466000000001
9.366203,-4.9946303,-0.97589576,1.1979766,-0.44645519999999994,-1.2422556
9.172235,-5.298914,-1.7051888,1.0579836,-0.5736723000000001,-1.2081867
9.321900999999999,-5.731336,-2.4150312,0.7721161999999999,-0.50021136,-1.1517601999999998
9.782401,-5.929853400000001,-2.2107866,0.58847266,-0.32667327,-1.187941
9.934567,-5.738201999999999,-1.3133728999999998,0.5677207,-0.18348646,-1.2406498
9.444253999999999,-5.4879317,-0.5678663,0.6874852,-0.11854276,-1.3119813999999999
8.964972999999999,-5.154294999999999,-0.09657252,0.83973026,-0.08073893,-1.3918302
8.374974,-4.885282,-0.25933993,0.8849691999999999,-0.05199336,-1.4365456
7.824462,-4.6849165,-0.75595486,0.82109016,-0.00143117,-1.4589033000000002
7.3944535,-4.5404983,-1.1799008999999998,0.70506066,0.054995324000000005,-1.4551682
7.115653999999999,-4.5634346,-1.516018,0.53417546,0.09916960400000001,-1.417923
6.8930216,-4.7390256,-1.8230313999999999,0.33934435,0.14814354,-1.3236926000000002
6.677199000000001,-5.100118599999999,-1.8982381000000002,0.18496999,0.18167132,-1.1623893
6.4997597,-5.4566349999999995,-1.6865043999999998,0.08489282,0.18805923,-0.99630374
6.5920515,-5.6885753,-1.6831238000000002,-0.05084144,0.19018853,-0.81320125
6.7418227,-5.9555864000000005,-1.9436129,-0.23928463,0.19818214,-0.60611796
6.917471400000001,-6.188753,-2.1577884999999997,-0.45221480000000003,0.20244074,-0.3729594
6.9998702999999995,-6.3929496,-2.182286,-0.58316684,0.20083503,-0.103602745
6.7743649999999995,-6.5413227,-1.859519,-0.594878,0.17847736,0.24078563
6.687292599999999,-6.228333999999999,-1.5718222,-0.60391885,0.032620203,0.46012115
7.475464,-6.2596498,-2.105844,-0.74232346,-0.048275806,0.7268074999999999
7.852943400000001,-6.6385274,-2.3159304,-0.90360934,0.0054803337,0.9865823
8.264028,-7.0068417,-2.1910298,-0.96535903,0.057648227,1.3315291
8.146224,-7.131292299999999,-1.3837241000000002,-0.71996576,0.056583576,1.6738056000000001
8.087632000000001,-6.16461,-0.53621495,-0.24937265,-0.091909036,1.8505552
8.286754,-4.5075254000000005,-0.6250878000000001,0.13653710000000002,-0.30483920000000003,1.7792236000000001
9.27484,-3.2406287,-1.5331796,0.16847663,-0.42036256,1.5795928
10.169955999999999,-2.6513965,-3.1625872000000004,-0.20947441,-0.36980036,1.3091714
10.820145,-2.390505,-4.1352553,-0.7146425000000001,-0.18933332,1.0078753
11.086428,-2.8262308,-3.3389251000000004,-1.0164623,0.029443703999999998,0.8114559
10.554312,-3.8037832000000003,-2.049791,-1.1240094999999999,0.33126348,0.7848222
9.973851,-4.3818874,-0.8753776,-1.0585247,0.610202,0.83966047
9.382138000000001,-4.1795483,-0.22625206,-0.9009389000000001,0.60222584,0.8338136
8.963699,-3.3393464,-0.24100992,-0.70771354,0.3765199,0.7172255999999999
8.839402,-2.5592770000000002,-0.32733527,-0.58156115,0.17317156,0.5298470000000001
8.706093,-2.1817498,-0.45813528,-0.57677895,0.13589133,0.40208894
8.310398,-2.5367718,-0.45393106,-0.6246708000000001,0.23279202,0.40954152
8.024589,-3.0929735000000003,-0.2686007,-0.59381336,0.2833542,0.46064475
8.061239,-3.4557235,0.06480625,-0.44263294,0.20882864,0.49151963
8.228525999999999,-3.4691982000000006,0.16674179,-0.26855382,0.10609856,0.5074894
8.399157,-3.2099729999999997,-0.10229945,-0.17912313,0.11992157,0.49206066
8.740292,-2.8236547,-0.47016376,-0.111509085,0.15666075,0.43244022
9.07028,-2.6307007999999996,-0.7377779999999999,0.0055850535,0.17528342,0.37069046
9.20989,-2.5747342,-0.7650815,0.1264142,0.10768682,0.26474899999999996
9.811428999999999,-2.8690007,-1.3229688,0.23980823,-0.018989183,0.16414821
10.171861999999999,-3.2945172999999994,-1.5425841,0.31805134,-0.08658578,0.08801696
10.560202,-3.5543742,-1.8504019,0.2626895,-0.007278023000000001,0.00019198621
11.103302000000001,-3.8473767999999997,-2.2948517999999996,0.04921828599999999,0.16411331,-0.06527531
11.589459,-4.638929,-2.7176201,-0.1301492,0.3413864,-0.040788345
12.079686,-5.2957730000000005,-2.6613467,-0.18338175,0.25780258,-0.07112217
12.84993,-6.047715,-2.161064,0.017296214,0.065641835,-0.10999065
12.9076395,-6.0120606,-0.99667746,0.3755425,-0.09245009,-0.23827235
12.339897,-5.124444,-0.11697111,0.80992,-0.14727089,-0.46717227
11.242108,-4.1635165,0.33441252,1.1069577,-0.2356369,-0.6614798000000001
10.209882,-3.9126617999999995,-0.5876903,1.2176988000000002,-0.38629369999999996,-0.81264275
9.706324,-3.906887,-1.6315336,1.1160159,-0.5129872,-0.9201725000000001
9.325042,-4.147868,-2.5504377000000003,0.813114,-0.61093503,-0.95052373
9.291953999999999,-4.5852504000000005,-2.8558326000000003,0.5506863000000001,-0.631687,-0.976599
9.461932000000001,-4.8656497000000005,-2.2139375,0.37555996,-0.57046086,-1.0058856
9.151271000000001,-4.9964786,-1.181414,0.28452358,-0.4368559,-0.99204516
8.744802,-4.9767985,-0.29302156,0.34999087,-0.27131143,-1.0213318
8.526451,-4.9172782999999995,0.48221135,0.46711993,-0.17975146,-1.0383487
8.062828999999999,-4.8187137,0.5562784000000001,0.54696876,-0.15365879,-1.0452777
7.8024062999999995,-4.6461879999999995,0.13408487,0.51235884,-0.13184217,-1.064965
7.645002000000001,-4.527799,-0.3279003,0.41174063,-0.06529277,-1.0713704
7.546485400000001,-4.486485,-0.4326514,0.32018065,0.034766957,-1.0644414
7.395938,-4.562448000000001,-0.31157184,0.26535985,0.14229669,-1.0500599
7.262073,-4.565943700000001,-0.1147493,0.25949556,0.19711748,-1.0404955
7.165644599999999,-4.538487,-0.20243454,0.23607324,0.17849483,-1.0500773
7.2952666,-4.680626,-0.6854408000000001,0.14718361,0.16039576,-1.0266376
7.424525,-5.0920362,-1.3515363999999999,-0.022078415,0.19552924,-0.8909033000000002
7.360274,-5.7197285,-1.8307981,-0.206263,0.23598596,-0.6268699000000001
7.231935000000001,-6.119982,-1.9820255,-0.33030355,0.22214551,-0.35698965
7.3174467000000005,-6.2957067,-1.764316,-0.34892622,0.16198401,-0.07698647
7.178592,-6.258357,-1.4841082,-0.30208158,0.11461577,0.23389158
6.991797,-5.9544277,-1.456977,-0.27333602,0.047001716,0.49045497
7.5909796,-5.707652599999999,-1.9837015,-0.36222562,-0.06689847,0.70127326
8.066123,-5.916628,-2.5909286,-0.4702964,-0.19252726,0.92591465
8.718562,-6.469736,-2.61217,-0.51553535,-0.34156093,1.1835601
9.171076,-7.1911283,-1.9770552,-0.29143506,-0.3330612,1.5519118
8.97139,-6.374629,-0.6792063,0.07745771,-0.24469516,1.7004393
9.250055,-4.53684,-1.0188669,0.20202187,-0.28408724,1.5764163
10.098696,-3.4872699000000003,-2.140464,0.23980823,-0.39268163,1.3389992
10.386449,-2.9438052000000003,-3.1311273999999996,0.09341002,-0.5342802,1.0994351999999998
10.791654,-2.7392254,-3.7951832000000003,-0.16048302,-0.45975462,0.8503244000000001
11.197528,-3.0250547,-3.3328822,-0.4346219,-0.124913216,0.58787924
11.135336,-3.3241767999999996,-2.8570773999999997,-0.7369826999999999,0.23970352,0.38613665
10.038189,-3.7297160000000003,-2.2998222999999998,-0.851965,0.43081707,0.34088024
8.800203999999999,-3.8760784,-1.6998929,-0.8972214,0.5239653000000001,0.36430258
7.792255,-3.6790357000000005,-1.5528121000000001,-0.9280963,0.48244390000000004,0.39997712
7.187086999999999,-3.3938288999999995,-1.3511916000000002,-0.9233140999999999,0.32806954,0.40847686
6.8324003,-3.2197607,-1.0838264,-0.91212654,0.19872318,0.45533895
6.4858446,-3.369025,-0.7359872,-0.89507467,0.16945402,0.59800214
6.292632,-3.6304333,-0.41104612,-0.8258898000000001,0.14549065,0.7427946999999999
6.5483139999999995,-3.7616358,-0.027906815,-0.66245717,0.07415904,0.8503244000000001
7.021217,-3.6771394999999996,-0.027332207,-0.48839548,-0.044540804,0.9365610999999999
7.409738000000001,-3.4676948,-0.24032038,-0.35477307,-0.08019788,0.9770179
8.059496000000001,-3.070219,-0.4225,-0.24298474,-0.08339183,0.92697924
8.728148,-2.8673341,-0.5111525,-0.101386175,-0.084997535,0.85617125
9.293716,-2.8750436,-0.6245706,0.041783184,-0.08019788,0.74173003
10.061115,-2.8457003,-0.9773706,0.10459758,-0.09136798,0.5250648
10.95623,-2.7755883,-1.4775288999999998,0.08756317,-0.051452305,0.24666739
11.538712,-2.8350701000000003,-1.7020093,-0.011955505,0.12686798,-0.020542525
11.987385,-3.2570527,-1.7311898000000001,-0.22488567,0.39248964,-0.27127653
12.60395,-4.4025826,-2.1573287999999997,-0.41174063,0.62299526,-0.38039452
12.452655,-5.497633,-1.8759146,-0.3798011,0.67621034,-0.39264673
12.127972999999999,-6.139145,-1.3311473999999999,-0.18655825,0.6181956000000001,-0.34686673
11.455211,-5.9745483,-0.7068258000000001,0.044977135999999994,0.5409997,-0.34580207
11.012112,-5.3646975,-0.5704329,0.32339206,0.37280232,-0.3952996
10.248381,-4.562017,-0.15192647,0.72050685,0.081088,-0.4937710999999999
9.793645,-4.108862,-0.10305601,1.0601305,-0.23509584,-0.61994094
9.644208,-4.0124617,-0.7078601,1.1373090000000001,-0.39906952,-0.7173651999999999
9.616503,-4.1454263,-1.7715944,0.9903871,-0.46134287,-0.8094488000000001
10.142949,-4.5656085,-2.2658532000000005,0.8253662,-0.48848274,-0.9159139000000001
10.661122,-5.084173000000001,-2.1955307,0.63959336,-0.41823325,-0.9936334000000001
10.475427999999999,-5.453522,-1.6117383,0.5719793000000001,-0.31813863,-1.0298315
9.875478999999999,-5.3098410000000005,-0.6299623000000001,0.63959336,-0.24202481,-1.1048806999999998
9.373941,-5.001506299999999,0.10935756,0.78757983,-0.18027505,-1.1762297
8.748777,-4.872928,0.32126355,0.8844631,-0.11533136,-1.1932466999999998
8.177443499999999,-4.695115599999999,-0.24580789999999997,0.80834925,-0.061034165,-1.2113458000000001
7.9227962,-4.516670700000001,-0.949981,0.63372904,-0.009930924,-1.2102985000000002
7.609338,-4.549146,-1.1489103999999999,0.49532443,0.04276056599999999,-1.1709065
7.245295,-4.5857005,-0.9161748,0.42879248,0.0853466,-1.1096803
6.971858,-4.5997977,-0.54964167,0.40376446,0.12473868,-1.0362195
6.7885385,-4.5781730000000005,-0.5009053,0.35587263,0.14655529,-0.9478534
6.7121825,-4.6559563,-0.7181935,0.27228883,0.15933111,-0.84990555
6.7135525,-4.798545400000001,-1.0309145,0.13069025,0.18329448,-0.71150094
6.806763,-5.121255000000001,-1.4037683,-0.0045029493,0.17371263,-0.52785736
7.0287440000000005,-5.537942,-1.5630401000000003,-0.116291285,0.13910274,-0.32983232
7.301883999999999,-5.864424700000001,-1.6554563999999998,-0.22914428,0.0853466,-0.10306169
7.350237400000001,-5.9770956,-1.8089055,-0.3324154,0.052342422,0.13967870000000002
7.4574213,-5.7452703000000005,-1.707334,-0.41226423,0.07257079,0.33077478
7.6856556,-5.4410152,-1.7900393,-0.5666386,0.027855453999999998,0.49953067
8.117722500000001,-5.9219527,-2.3704226000000004,-0.7359180999999999,-0.08285078,0.7358832
8.666876,-6.475817,-2.238454,-0.813114,-0.15152949,0.93389076
9.398372,-7.048261599999999,-1.805027,-0.77956873,-0.123848565,1.2240169
9.075471,-7.0163035,-0.8845714,-0.51553535,-0.054105207,1.4875267
8.801563999999999,-5.796697,-0.057058617,-0.12959069,-0.11691961,1.5982504
8.464355,-4.434406299999999,-0.2268554,0.19085175,-0.28674015,1.5822806
8.888695,-3.523786,-1.0464575999999999,0.3872711,-0.43366197,1.4619751
9.4788265,-2.9693272,-2.0820456000000003,0.3659781,-0.63807493,1.2618207000000001
9.909381,-2.6340337000000003,-2.979517,0.08758062,-0.6402042,1.0270565
10.346792,-2.6833637,-3.3912047999999997,-0.38510690000000003,-0.32984978,0.7917685999999999
10.618053999999999,-3.0607377999999996,-3.0367097999999997,-0.82587236,0.0922581,0.56660366
10.445642999999999,-3.6612515,-1.9950691000000003,-0.8791049000000001,0.3557679,0.38507199999999997
9.769386,-4.0229099999999995,-0.6218699000000001,-0.74975854,0.5000194,0.3163933
8.683262,-4.0245957,-0.39106890000000005,-0.6608515,0.49843112,0.34409165
7.787878500000001,-3.7646713,-0.48217306,-0.5549274000000001,0.3765199,0.33450979999999997
7.596993400000001,-3.4243789,-0.32179987,-0.44099236,0.24237387,0.25944320000000004
7.6246222999999995,-3.3109127999999997,-0.43795693,-0.4308869000000001,0.18809414,0.25094345
7.4486103,-3.628288,-0.6569115,-0.4308869000000001,0.19874065,0.31162855
7.4972897,-3.9521663,-0.4388763,-0.32922146,0.20884609,0.40210640000000003
7.503802,-4.1177206,-0.10967359,-0.11575024,0.0901288,0.49898964
7.559424000000001,-3.9256672999999993,-0.07197928,0.04925319,0.025202554,0.5554336
7.7822666,-3.4902575,-0.5258337,0.10567968,0.028379052999999998,0.5602158
8.2642,-3.1053371,-1.207894,0.11630874,0.015603243000000001,0.5165476
8.784815,-3.0340857999999997,-1.5802690000000001,0.13761921,-0.048258353,0.45533895
9.304232,-3.2446125,-1.80496,0.14507176,-0.12917182,0.37336084
9.929511,-3.4749827000000004,-1.9253978999999999,0.14400712,-0.18186331,0.24933773
10.56746,-3.7603428,-1.7927208,0.10674433400000001,-0.14034192,0.10400417
11.341774000000001,-4.2980614,-1.840327,-0.039095376,0.0044331364,-0.002443461
11.827767999999999,-5.1827855000000005,-1.8304342,-0.12000884,0.17210692,-0.02851868
11.978076,-5.5765839999999995,-1.4529451999999998,-0.111491635,0.15720181,-0.109432146
12.054959,-5.7732725,-1.0470226999999999,0.0029496064,0.09759881,-0.19299851
11.803069,-5.568454,-0.53244174,0.16584119,0.07311184,-0.29148743
11.430284,-5.1640058,-0.045125917,0.42935100000000004,0.09759881,-0.42189842
10.767491,-4.3973727,0.47381252,0.7109424,0.004974188300000001,-0.6422812
10.579537,-4.040962,-0.023645137000000004,0.8152782,-0.1669582,-0.8722457
10.368436,-4.3268013,-0.8960444,0.80569637,-0.30908036,-1.0170382
10.038993,-4.845184,-1.1225549,0.8040906,-0.41928044,-1.1000809999999999
9.719674000000001,-5.434675,-0.7363224,0.8498706,-0.5092522,-1.1150036
9.314392999999999,-5.9433184,-0.39308006,0.89245665,-0.5289395,-1.0425898999999998
8.877145,-6.109275,-0.090443365,0.9749758,-0.44270277,-0.9308015
8.363502,-5.870046599999999,0.3237248,1.0851585,-0.3074921,-0.83924156
8.102495,-5.332155,0.26449224,1.1346735000000001,-0.2425484,-0.8264658000000001
7.847025,-4.7334614,-0.28260198,1.1197683999999999,-0.2302962,-0.83072436
7.5970225000000005,-4.3368955,-0.82072276,1.0510896,-0.23668409999999998,-0.86266387
7.435432400000001,-4.0811753,-1.2104223,0.89619166,-0.21060888,-0.8637285
7.0960307,-3.9650182999999997,-1.7208371999999998,0.63057,-0.15418239,-0.8302008
6.824729400000001,-3.8821885999999997,-1.9903381000000002,0.36280158,-0.1020145,-0.7945262
6.7891994,-3.9448974000000003,-1.768616,0.18128735,-0.045046947999999996,-0.747158
6.8114944,-4.2149158,-1.3888285,0.065764,0.013491395,-0.6816732
6.8885584,-4.547604,-1.206601,-0.03429572,0.05660103,-0.59491295
7.268921000000001,-4.957329,-1.2108245,-0.12372639,0.05021312,-0.5198638
7.8027797,-5.4692473,-1.4762456,-0.21422172,0.024661502000000002,-0.40273473
7.9918933,-5.9341245,-1.6321368,-0.29619983,0.027331855,-0.24516639999999998
7.886931,-6.0948519999999995,-1.6844549,-0.37658969999999997,0.0225322,-0.07004006
7.6847935,-5.8040237,-1.6741502000000001,-0.4569621,-0.029618237000000002,0.052377332
7.971484700000001,-5.732897,-1.8601990000000002,-0.66137505,-0.15524703,0.18812904
8.349491,-6.762231,-2.1401002,-0.78965676,-0.10840239999999998,0.42181116
8.731147,-7.304632700000001,-1.5893285,-0.957889,-0.00033161257000000006,0.68690926
9.004286,-8.035267,-1.5883614,-0.9898286000000001,0.15241960000000002,1.0707246000000001
8.232386,-7.4119600000000005,-0.45903549999999993,-0.7268598000000001,0.23865633,1.3214412
8.098933,-5.9931564,0.30531818,-0.39521235,0.1625425,1.4460051999999999
8.1050625,-4.908133,-0.25280854,-0.10829768,-0.07061602,1.4220419
8.857934,-4.219503,-1.0410466999999999,0.22279128,-0.41928044,1.2612971000000002
9.716552,-3.8736556,-1.1954056999999998,0.49588296,-0.6609562,1.0739186
10.364135000000001,-3.7268717000000002,-1.8794292000000001,0.46980770000000005,-0.6258227,0.7779456
10.904057,-3.578939,-2.3953029999999997,0.21162117,-0.26490608,0.45535640000000005
10.692735,-3.7456617,-2.7116822999999997,-0.16046557,0.23068017,0.30789354
9.261721000000001,-4.0941615,-2.8510633,-0.34569737,0.4553215,0.31428143
7.8216367,-4.081913,-2.2966428,-0.43460444,0.46064475,0.32121038
7.053845,-3.7685117999999993,-2.269684,-0.5788559,0.38505453,0.3425034
6.497537599999999,-3.6847339,-2.1910105,-0.6997025,0.3344749,0.41488220000000003
6.311269,-3.8121724,-1.7703397,-0.77157515,0.32276374,0.50858897
6.301462,-3.9613025,-1.3792995000000001,-0.83330745,0.3387335,0.64434063
6.293273999999999,-4.1691194,-0.96730536,-0.7822041999999999,0.34192744,0.81201446
6.3731155,-4.2262545,-0.39571366,-0.59217274,0.22214551,0.9520073
6.6880875,-4.077498,-0.15742356,-0.38243654,0.07150614,1.0361322
7.195543300000001,-3.7547786,-0.5254601999999999,-0.2812947,-0.009389871999999999,1.0568841999999998
7.828982000000001,-3.4327106,-1.0289991,-0.26745427,0.0065798913,1.0515609
8.485978999999999,-3.3669467000000006,-1.3307548,-0.262131,-0.026424285,0.9754296
9.315265,-3.4835730000000003,-1.4720126,-0.21689206,-0.105732046,0.8684409
9.9544115,-3.8675551,-1.3591883,-0.12479104,-0.13447762,0.77740455
10.513534,-4.064166999999999,-1.0758777,0.027436575,-0.12117821,0.657099
10.960847,-4.0349483,-0.9249184000000001,0.1200612,-0.14086552,0.45375070000000006
11.862782000000001,-4.3907169999999995,-1.5032713,0.14083062,-0.13927728,0.28661796
12.155496000000001,-4.792234,-1.4018146999999999,0.1195376,-0.10786135,0.12904964
12.993582,-5.342613,-2.0562937,-0.019914206,-0.14193018,-0.018936822
13.206732999999998,-5.8333287,-1.5945288,0.11580259,-0.06527531,-0.14135422
12.980250999999999,-5.2788699999999995,-0.39804083,0.3611959,0.022008602000000002,-0.41231660000000003
12.479345,-4.2790227,0.18541655,0.6353522,0.005497787,-0.81156063
12.253514,-3.9456347999999997,0.23478499,0.92867225,-0.16802284,-1.1703478999999999
11.635916,-4.445506,-0.384844,1.0425898999999998,-0.36124825,-1.4216056000000001
11.345566999999999,-5.123218,-1.3148764,0.9968099,-0.47835985,-1.6116545
11.137203999999999,-5.757174,-1.631543,0.91322607,-0.48794168,-1.7016088
10.776867,-6.298225,-1.3757466,0.8567995999999999,-0.42619196,-1.7085203000000002
10.144692,-6.403206,-0.871748,0.895127,-0.30588642,-1.6717985
9.474967,-6.034978,-0.25758737,0.9952042,-0.19570377,-1.6813804
8.962617,-5.5412264,-0.07384676,1.0532363999999999,-0.16215853,-1.7207724999999998
8.511253,-5.2467976,-0.48234546,1.0345963,-0.13234831,-1.7505827
8.0447,-5.0885305,-0.9762214,0.94462454,-0.081786126,-1.7505827
7.676433,-4.997647,-1.2390568000000002,0.77801543,-0.043458696,-1.7106669999999997
7.2052255,-4.954551,-1.558338,0.5890486,-0.048781954,-1.611637
6.7237990000000005,-4.9472537,-1.5593626,0.4250924,-0.041329395,-1.4982604
6.5455174000000005,-4.93308,-1.2435197,0.33779103,0.0012391837,-1.3960538999999998
6.485499400000001,-4.951726,-0.9390634,0.22493804,0.07045894,-1.2757484
6.4167285000000005,-5.0500803,-1.1679202,0.06682865,0.12367403,-1.1453375
6.5034657,-5.2103386,-1.448741,-0.08911651400000001,0.14283775,-0.9909456
6.5550175,-5.662009200000001,-1.5534059999999998,-0.23071507,0.12154472599999999,-0.782274
6.6562543000000005,-6.1999483,-1.655284,-0.3382448,0.075764745,-0.517176
6.7101619999999995,-6.641793300000001,-1.5058858,-0.39095375,0.04543092,-0.22813198
6.6938434,-6.829872,-1.2619548999999999,-0.37976620000000005,-0.028012535,0.09072221
6.961639999999999,-6.882363000000001,-1.2622901000000002,-0.44738024,-0.16961110000000001,0.35047957
7.802042500000001,-7.474382,-1.8180802,-0.5682094,-0.16376424,0.6943618
8.029491,-7.6010922999999995,-1.6394345000000001,-0.6406056,-0.066881016,1.021227
8.159047,-7.7738867,-1.1606036,-0.50007176,0.04330162,1.4092835
8.07072,-7.312275,-0.4092361,-0.21209241,0.031049407999999997,1.6882220000000001
8.35336,-6.536295,-0.69413656,0.12592551,-0.14566518,1.8750596000000002
8.402528,-5.390909,-1.0238373,0.44158575,-0.36498326,1.8292794999999997
9.210657000000001,-4.326811,-1.5296745,0.6002187,-0.58536595,1.6578883000000002
9.631557,-3.9324284,-2.3828244,0.63057,-0.6391220999999999,1.4699687
10.011574000000001,-3.4919239999999996,-2.9349177,0.32234487,-0.46080184,1.1979416999999999
10.320646,-3.0794032000000002,-4.4681168,-0.48996627,-0.014172073,1.0542138
9.55638,-3.327586,-5.227078400000001,-1.3321049999999999,0.54740506,1.0302678
8.954687,-3.8859522000000006,-3.7825034,-1.4933908999999999,0.6778335,1.0153627
8.362726,-4.122278700000001,-1.587394,-1.4151479,0.5942497,0.97809994
8.005148,-4.0415177,-0.8588002,-1.3118768,0.48884928,0.93284357
7.8456364,-3.7714326000000002,-0.6389166999999999,-1.2868487,0.41434115,0.8748288000000001
7.7420154000000005,-3.6188742999999994,-0.5797128,-1.3065535,0.4324228,0.8375661
7.633960000000001,-3.6629178999999996,-0.37742198,-1.2703553,0.45638615,0.83808964
7.534542999999999,-3.8734542999999997,-0.11448115,-1.1532438,0.41060615,0.8636587
7.583634,-3.9470427000000003,0.11475887,-0.96480054,0.29988247,0.88121676
7.677544,-3.9758496,0.2260701,-0.73590064,0.22483331,0.93338466
7.7445245,-3.8967165999999995,0.13682383,-0.5804616,0.23546237,1.0052398
7.8927059999999996,-3.7280687999999995,-0.21275835,-0.5027421,0.27858946,1.048908
8.372561,-3.5733075,-0.73872614,-0.47506118,0.21204005,1.0393261
8.98225,-3.618127,-1.1946013,-0.43673372,0.08801696,0.99886936
9.943685,-3.8858370000000004,-1.3189945,-0.33770376,-0.008848819,0.91954416
10.88654,-4.050501000000001,-1.0646824,-0.17694148,-0.03546509,0.77635735
11.778706,-3.9964397000000003,-0.8090965,-0.030560715,-0.057281705999999995,0.56075686
12.797937,-4.26912,-0.9486402,0.12058479999999999,-0.058887407,0.3382448
13.583082000000001,-4.599865,-0.9777249,0.25740117,-0.049846604,0.045989424
14.501881,-4.918648,-1.2377161,0.30691615,-0.016301375,-0.24038419
14.628084,-5.070143700000001,-1.3543425,0.3431143,0.13857915,-0.53527504
13.982368,-4.79663,-1.2072905,0.46235517,0.25890213,-0.8179486
12.515105,-4.2362237,-0.51953214,0.75939274,0.11250392,-1.1075336
11.373914,-4.09985,-0.5481669,0.9824284,-0.20635028,-1.3337806
10.639823,-4.469314,-1.0703804,1.1410613,-0.5544911,-1.4924136000000001
10.267389999999999,-4.944888,-1.2890574,1.1416024,-0.7940201,-1.6089841
10.045152,-5.386284,-1.6149178,1.0079799999999999,-0.8690867,-1.6345358
9.761992999999999,-5.885714,-1.4068809,0.873834,-0.81637776,-1.5876911
9.417669,-6.0156617,-0.6797713000000001,0.8445648000000001,-0.65989155,-1.5413700000000001
9.205581,-5.8277936,0.20089267,0.9451655999999999,-0.46664867,-1.5626805000000001
8.934873,-5.4767269999999995,0.7149278,1.0505661,-0.30002209999999996,-1.6047255
8.367725,-5.168525700000001,0.3150578,1.0447191999999998,-0.24520129999999998,-1.6302771999999999
7.9071193,-4.949868,-0.36487633,0.96858793,-0.27181756,-1.6462468999999997
7.608515,-4.8582279999999995,-0.73824733,0.849347,-0.25691247,-1.6558287
7.4758663,-4.867498,-1.0445136000000002,0.58320177,-0.11903145,-1.6020552
7.2163444000000005,-5.030371,-1.4538263,0.25474826,0.022008602000000002,-1.5078423
7.1007137,-5.234922,-1.5534251000000001,0.006143559,0.1540253,-1.4189352
7.215166,-5.39496,-1.0596736999999998,-0.11147418,0.2668783,-1.3390864
7.212466,-5.552221,-0.63347703,-0.14182545,0.3339513,-1.2470028
7.2147164,-5.7692986,-0.3545238,-0.10882128,0.36110863,-1.1272209
7.2317146999999995,-6.1089683,-0.5669278,-0.13543755,0.3509857,-0.95370024
7.126015700000001,-6.376869999999999,-1.1893341999999998,-0.22380356,0.34779176,-0.7386408
7.219859,-6.5504594,-1.6159042,-0.30736995,0.35737363,-0.49162436
6.835636999999999,-6.347546,-1.8077372,-0.3590142,0.3376863,-0.22280873
6.301654,-5.655411,-1.6703004000000001,-0.41011748,0.23439772,-0.030647982
6.823417699999999,-5.6377797,-2.2241082000000003,-0.68746775,0.08215265,0.17694148
7.421757,-6.781001600000001,-3.0706306,-0.9711709999999999,0.008709193,0.55384535
7.8324585,-7.874308999999999,-2.7693825,-1.0728539,0.031066861,1.0904293
7.348188,-8.340527999999999,-1.4118607,-0.78113955,0.14922565,1.6445714
7.141626,-6.814118400000001,0.16675135,-0.35421458,0.16680111,1.8984994
7.500306,-5.1271443,-0.38589743,-0.100304075,-0.055152405,1.9336328999999999
8.288382,-4.336225,-1.6495475,0.12751375,-0.40809290000000004,1.895829
8.825593,-4.1642345999999995,-2.2031443,0.35695472,-0.8307593000000001,1.8676244999999998
9.649992999999998,-4.285947,-2.4619002,0.64334583,-1.1639950000000001,1.7095151000000002
10.957409,-4.0407705,-2.38745,0.6555806,-1.0894694,1.4146068
11.454982000000001,-3.651378,-3.4622457000000004,0.11260864,-0.53956854,1.1920948
10.891597,-3.2416245999999997,-4.0596757000000006,-0.590026,0.13114405,0.9749059999999999
10.213175999999999,-3.126377,-3.7376552000000003,-0.92964965,0.3898542,0.7923271
9.263415,-3.3110468,-2.1560745,-0.9844879000000001,0.35950290000000007,0.6347588000000001
8.548391,-3.5401239999999996,-1.5891274,-1.0031279,0.27965412,0.6033429
7.6668277,-3.8376756000000003,-1.0043005999999999,-1.0153627,0.30466467,0.66615725
7.3173985,-4.0690417000000005,-0.4691582,-0.9812939,0.37175512,0.7412239
7.1865505999999995,-4.2187653,0.027035326000000002,-0.8476715,0.35417965,0.85194755
7.1240716,-4.213,0.21350533,-0.6283534000000001,0.21844539999999998,0.93818426
7.263117299999999,-3.9854839999999996,0.24476403,-0.36486107,0.0172264,0.99726367
7.480262,-3.6742567999999998,0.034773383,-0.16205382,-0.08923868,1.0270739
7.832018,-3.2745017999999995,-0.49448884,-0.15406021,-0.08443903,1.0260091999999998
8.438421,-3.1057775000000003,-1.3119746,-0.20303415,-0.07485717,0.98342323
9.272273,-3.164244,-1.5143229999999999,-0.19451694,-0.092415184,0.8663116
10.209364,-3.3428133,-1.4032321,-0.10775663,-0.08656833,0.727907
10.864466,-3.4686046000000004,-1.0831847,0.01574287,-0.023753932000000002,0.5463928000000001
11.445155,-3.3651269999999998,-1.0605452,0.08600982,0.04597197,0.31375784
12.070971499999999,-3.4791486000000003,-1.4887912,0.06365216,0.028396507999999997,0.050265484000000006
12.796874,-4.1523023,-1.8481609,0.061522855999999994,0.01881465,-0.18606955
13.481808,-4.85546,-1.735624,-0.023649212000000003,0.15241960000000002,-0.3963468
13.327247,-5.045062000000001,-1.6318879,-0.1412844,0.41805872,-0.57733744
12.786559,-4.8444376,-1.1508832,-0.08752826,0.54208183,-0.7998495
12.19252,-4.8262032999999995,-0.36719394,0.24410175,0.5016425,-1.0026567
11.259279,-4.635519,0.413584,0.6172531,0.37547270000000005,-1.1974878
10.652157,-4.469342,-0.11852256,0.7716274999999999,0.14657275,-1.3901896
10.404933,-4.847282,-1.0566091999999998,0.84402376,-0.03387684,-1.5057129999999999
10.059994999999999,-5.338993,-1.2753146,0.8615992,-0.12702507,-1.5466933
9.492128999999998,-5.7655725,-1.315882,0.84562945,-0.18825121,-1.4535451000000001
8.883072,-6.215242400000001,-1.2971306,0.84721774,-0.26810002,-1.2938473999999998
8.470072,-6.450085,-0.8995685999999999,0.9095084999999999,-0.35166640000000005,-1.1218976999999999
8.144471000000001,-6.433114499999999,-0.4144842000000001,1.0899581,-0.44696137,-0.9393188
7.735187,-6.072433,0.10829453,1.3151405,-0.47942448,-0.7838797
7.638327,-5.2653666,-0.07540777,1.3609204,-0.44587925,-0.7694982
7.742905599999999,-4.3603773,-0.9822164000000001,1.2352916999999999,-0.36763614,-0.84189445
7.741632000000001,-3.7366402,-1.5977848999999997,0.99735093,-0.27553514,-0.9158963999999999
7.476804700000001,-3.5284595000000003,-2.0888357,0.6614449,-0.21432643,-0.96539396
7.237097299999999,-3.6123905,-2.2716665000000003,0.42348668,-0.21219712,-1.0058506999999999
7.24112,-3.9136195,-1.7018561,0.316498,-0.18877481,-1.0037214
7.1621585,-4.428498,-1.142331,0.22972023,-0.12330751,-0.94144803
7.2064323,-4.8431253,-1.0469556999999998,0.13763666,-0.013107423,-0.8584053
7.3553705,-5.081291,-0.9776386999999999,0.035430185,0.061924282000000004,-0.7844033
7.575168,-5.415895,-1.3570527000000001,-0.1332908,0.08375835400000001,-0.6704857
7.73308,-6.020814,-1.8587146,-0.31536356,0.12740904,-0.5091998
8.0413475,-6.190084,-2.04483,-0.48357838,0.15721926,-0.34896109999999997
7.8569083,-6.0928698,-1.9472425,-0.611319,0.12795009,-0.23877849
8.215368,-6.305561,-2.085254,-0.8546004999999999,0.114633225,-0.048205994
8.079253,-7.259392299999999,-1.9189622,-0.9978046999999999,0.23335052,0.26797786
7.9132867,-7.6312690000000005,-1.1138879,-0.9626713,0.3717377,0.70076716
7.4145270000000005,-7.920058,-0.37298790000000004,-0.67467445,0.44999823,1.0973408000000002
7.4098630000000005,-7.0780168,0.15780662,-0.33238049999999997,0.43615779999999993,1.4039603
7.197057000000001,-5.74211,-0.40041587,-0.039077923,0.30787608,1.5402356000000001
7.7513337,-4.4616523,-1.2226517,0.16851154,0.010297443,1.4582574
8.675314,-3.8373593999999995,-2.2169635,0.24729571,-0.31333897,1.2783315
9.185192,-3.5506873,-2.9577967999999997,0.083339475,-0.4208687,1.1005348
9.385501,-3.5766404,-3.4052540000000002,-0.28023008,-0.2302962,0.9403136000000001
9.505622,-3.9266248,-3.4208260000000004,-0.7060729,0.09759881,0.8562062
9.203503,-4.62328,-2.9371586,-0.8780228000000001,0.31850514,0.9073094
8.654148,-5.020334200000001,-2.0783012,-0.837025,0.3270398,1.0132334
8.104478,-4.8537073,-1.5464053,-0.7763399000000001,0.22376867,1.0728539
7.929356599999999,-4.298521,-1.5280465,-0.7779456,0.12421508,1.0606191
7.937602,-3.8140974,-1.4545063,-0.82957244,0.13060299,1.0292207
7.879385000000001,-3.6109923999999998,-1.2566878000000001,-0.89772755,0.22057470000000004,1.0292032
7.7594357,-3.664766,-1.1214153999999998,-0.9413608,0.31532863,1.0574251000000001
7.7284064,-3.7230410000000003,-0.895125,-0.89558077,0.34566244,1.0835004
7.8159385,-3.7074692000000002,-0.50141287,-0.7257776999999999,0.26155505,1.0946878999999998
7.988503,-3.5858532999999997,-0.3718387,-0.48569024,0.09014626,1.0760478999999998
8.219285000000001,-3.396405,-0.48139733,-0.29778808,-0.026406832,1.0547723
8.570419000000001,-3.2542374,-0.9301091,-0.24562019,-0.0503702,1.0079101000000001
9.055541,-3.1787624,-1.4888487,-0.24136159,-0.09934414,0.9355139000000001
9.675208,-3.3063447,-1.7436205000000002,-0.24188519,-0.15789993,0.8327839
10.404721,-3.5605992999999994,-1.7999609,-0.22752112,-0.14405948,0.7178015999999999
11.073432,-3.748994,-1.4625891000000002,-0.15351915,-0.063669614,0.5543864000000001
11.690341,-3.6751952000000006,-1.1735802,-0.12583824,-0.041311942000000004,0.32281609999999994
12.765452,-4.1914234,-1.4992586,-0.1391551,-0.029600783999999998,0.12053244
13.378502,-4.9744425,-1.6463009999999998,-0.11840314,-0.004066617,-0.07108726
14.162,-5.424112,-1.6127151000000002,-0.039077923,-0.02427753,-0.30264008
14.334756,-5.57714,-1.1689258999999999,0.14189526,-0.044505894000000004,-0.5709320999999999
13.863434,-5.2200303,-0.3915573,0.5395511,-0.07485717,-0.9052498999999999
12.839424000000001,-4.586084,0.4865784000000001,0.9797754999999999,-0.22336724,-1.2257098
11.558344,-4.463865,0.08612422,1.1943114,-0.44854963,-1.4407693000000001
10.761132,-4.677599400000001,-1.0241437,1.1996346000000002,-0.60185933,-1.6292125
10.78606,-5.0660734000000005,-1.7627549,1.0202322,-0.6540272,-1.7921041000000002
10.737065,-5.5817842,-2.0491207,0.8163603,-0.6284755999999999,-1.8932284
10.520716,-6.1159787,-1.5868098999999998,0.6694385,-0.5182755,-1.9187801
9.890658,-6.24924,-0.8203014000000001,0.63324034,-0.355925,-1.897487
9.14971,-6.086463,-0.0744884,0.67902035,-0.19622737,-1.8841877
8.654492999999999,-5.8118196,0.34985036,0.7790800999999999,-0.07698647,-1.8767351000000003
8.199585,-5.6283946,0.3787244,0.8663989,-0.06740461,-1.8554419999999998
7.7346125,-5.490709,-0.04177403,0.88023937,-0.14245377,-1.8298904999999999
7.3656273,-5.3368673,-0.45872903,0.80039054,-0.15948819,-1.7729229
6.991797,-5.2918944,-0.72014713,0.66411525,-0.087632984,-1.6744515
6.7163386,-5.206843,-0.67363256,0.5485919,0.027331855,-1.5679864
6.5315447,-5.179223,-0.49247772,0.47832492,0.14018485,-1.4391636
6.3318973,-5.165988400000001,-0.42230844,0.41657520000000003,0.2077989,-1.3145993999999999
6.190457299999999,-5.1131150000000005,-0.5996613000000001,0.34630823,0.24877924,-1.1778005
6.0846148,-5.226992,-0.789828,0.23558454,0.29295352,-0.98084015
5.918266,-5.5255203,-1.2341152,0.07375761,0.31745794,-0.7465995
5.9464593,-5.806399,-1.5299811,-0.08005825400000001,0.27433085,-0.46926668
5.9153733,-5.9867587,-1.6699843,-0.17694148,0.19821705,-0.15465362
5.8251405,-5.9252853,-1.5008197,-0.21739821,0.1412495,0.16418312
5.955615,-5.7432875999999995,-1.4285818000000001,-0.31908109999999995,0.11889183,0.41224676
6.690903,-6.1016900000000005,-2.0410953000000003,-0.5602158,0.10026917,0.70715505
7.267599000000001,-7.020450599999999,-2.4326048,-0.7917860999999999,0.048624873,1.1356683
7.6722,-8.051892,-2.4308520000000002,-0.88601637,0.0028448866,1.6807696
7.9536915,-8.308541,-1.2755733,-0.69012064,0.012426743999999998,2.0459447
8.626903,-7.5109935,-0.23421039,-0.35688493,-0.07485717,2.2748445999999998
8.781414999999999,-6.555372,-0.056608505999999996,0.050335295,-0.12276646,2.4303012
9.135584,-5.3557809999999995,-0.5416834,0.33672637,-0.22816689999999998,2.3919737000000003
9.930728,-4.4872127,-1.6336883,0.49057713,-0.43896776,2.1880843999999997
10.455133,-3.71107,-2.4561062000000002,0.45704937,-0.6582684,1.9182041
10.764101,-3.2970742999999993,-3.1203341,0.24357815,-0.71684164,1.5812334
11.506217999999999,-3.2068512000000005,-3.3004646,-0.0742114,-0.48952994,1.1851833
11.871955999999999,-3.5917432000000002,-2.9296408,-0.46706757,-0.028536132999999998,0.88069314
11.397453,-4.1539589999999995,-2.4510688999999997,-0.6437996,0.36962584,0.7353770000000001
10.365342,-4.583833,-1.4821928999999998,-0.6331531,0.5474225,0.6773448000000001
9.347624,-4.463529,-1.3098006000000002,-0.699144,0.5756445,0.6608515
8.455401,-4.1690235,-1.6273485,-0.76569337,0.51228905,0.6629808
7.997304,-4.0034785,-1.3883306,-0.7678227,0.41699407,0.68214446
7.7324285999999995,-4.075257,-1.0061394000000001,-0.68477994,0.3296927,0.76944584
7.4991856,-4.238704,-0.6675992,-0.54159313,0.23122121,0.8769756
7.577016,-4.1530013,-0.50300264,-0.34995598,0.06513569,0.96001834
7.819511,-4.0214734,-0.45246583,-0.14287265,-0.053564154,1.0073866
8.298944,-3.7074883,-0.72096115,-0.046530478,-0.07218682,1.0148392
8.764683999999999,-3.2940864999999997,-1.161092,-0.0065973448,-0.064734265,0.9456368
9.308551,-2.9991016,-1.444058,0.040770892,-0.12541936,0.8040383000000001
9.883734,-2.9120578999999998,-1.559717,0.10889109,-0.26649433,0.5581039000000001
10.651679,-2.8754362999999996,-1.6772723000000003,0.17863445,-0.37667695,0.2616074
11.104279,-3.0078259,-1.5337353,0.22547908,-0.3378085,-0.0008028514599999999
11.32444,-3.0669246,-1.3721169,0.20364502,-0.15577063,-0.2589894
11.479077,-3.1464024,-1.5422871999999999,0.008290314,0.05235988,-0.5480508000000001
11.937366,-4.0309258,-1.987082,-0.15191346,0.16894788,-0.73914695
11.71163,-5.0109873,-1.6932561000000002,-0.18174113,0.17105971,-0.8599935
11.623944999999999,-5.732131,-1.1463151000000003,-0.097092666,0.17373008,-0.91642004
11.127637,-6.004514,-0.44129926,0.035971235,0.20938715,-0.9435599
10.671541,-5.869701999999999,-0.008073248,0.23719025,0.24825563,-0.9978570999999999
10.207353999999999,-5.318058000000001,0.51647717,0.5182581,0.15030776,-1.1442553
10.185949,-5.236972,0.36656186,0.71947706,-0.08709193,-1.2943711000000002
10.132521,-5.6164618,-0.002777274,0.87437505,-0.31014502,-1.4189352
10.068777,-5.987496,-0.22326410000000002,0.93401295,-0.43575636,-1.4955901000000003
9.959516,-6.4740458,-0.35332670000000005,0.9206960999999999,-0.45013785,-1.4929197
9.878812,-6.8678539999999995,-0.3879277,0.8903448,-0.40702823,-1.4561979999999999
9.686997,-7.038253999999999,-0.2283015,0.9190904000000001,-0.31173325,-1.3949718
9.265292,-6.745089,0.22525607,1.0356783999999999,-0.16055284,-1.3614441000000002
8.885285000000001,-6.147266,0.6990303000000001,1.177818,0.0017976891000000001,-1.3976423
8.622296,-5.596092,0.44530237,1.24435,0.10239847,-1.4466162
8.306778,-5.195265,-0.24734019,1.2017639,0.14337879999999997,-1.5323118
8.135143,-5.0444875,-0.9291993000000001,1.0958398999999999,0.17585938,-1.5802209999999999
7.634199000000001,-5.0827847,-1.3798838,0.90526736,0.24825563,-1.5578635
7.2646690000000005,-5.1793094,-1.6144006000000002,0.68966687,0.36590827,-1.4444693000000002
6.669997,-5.3294835,-1.6905265999999999,0.52571064,0.44999823,-1.2294273
6.1691585,-5.245121,-1.6832291000000001,0.41018727,0.4074122,-1.0297966
6.032469,-5.0732946,-1.7624293999999998,0.316498,0.286042,-0.8552113000000001
6.04761,-5.067433,-1.9550955,0.17756979,0.18863519,-0.6518456
6.1062484,-5.320405,-2.2397277,0.017348573,0.10824532,-0.40058798
6.187709,-5.5755787,-2.3634698,-0.11465068,0.008709193,-0.12377875
6.1933017,-5.8580084,-2.3020343999999997,-0.21313961,-0.090826936,0.18921115
6.130066,-6.0067267,-2.2560849999999997,-0.31747538,-0.15149458,0.5464102
6.0286669999999996,-5.8393144999999995,-2.3705373,-0.45108035,-0.17917550000000002,0.8839045
6.308779,-5.514057,-2.498206,-0.6453878000000001,-0.2648886,1.1287568000000001
7.222837400000001,-5.7073555,-3.276896,-1.0408969000000001,-0.5017647,1.3464866000000002
8.064447,-6.701122,-3.83984,-1.3714796999999999,-0.69978976,1.5828391000000002
9.234119999999999,-7.916083,-2.8995028,-1.4795331,-0.78709114,1.9560080000000002
9.443383,-8.708908000000001,-1.2048197,-1.1628082,-0.6273935,2.3286182999999996
9.540204,-7.419775,0.9983341999999998,-0.61557764,-0.33993778,2.397297
10.264364,-5.648937,1.0634757,-0.35739106,-0.21485002,2.1689208
10.808011,-4.5439267,-0.61972475,-0.40210640000000003,-0.23349014,1.8708183999999997
10.989166,-3.9608809999999997,-1.8810573,-0.47930232,-0.37932986,1.5487703000000002
11.329382,-3.8250341,-1.9497803,-0.44149849999999996,-0.46982518,1.1953062
11.704697,-3.8753983999999995,-1.2323722,-0.43511057,-0.33993778,0.84025383
11.678197,-3.8269589999999996,-0.98233134,-0.57831484,0.020420352,0.48570767
10.810099000000001,-3.8905108,-1.0203992,-0.7358657,0.35100317,0.31271064
9.375991,-4.2270017,-0.8133581999999999,-0.75822335,0.5176122999999999,0.2802475
8.315207000000001,-4.297956,-0.72250307,-0.76515234,0.5000543,0.31271064
7.46152,-4.1852846,-0.7093349,-0.73055995,0.39252454,0.37871900000000003
7.0123487,-4.0591297,-0.43901998,-0.6634869000000001,0.29403559999999995,0.44312164
6.8726807,-4.0395449999999995,-0.17427874,-0.61023694,0.2637018,0.53576374
6.6665015,-4.1366825,-0.07467994,-0.51921797,0.24240878,0.71354294
6.4841112999999995,-4.278467,0.19258958,-0.24879669,0.13220869,0.8940100000000001
6.784008999999999,-4.1165423,0.51310617,0.046094145999999996,-0.047158795999999996,0.98078775
7.391101400000001,-3.7611760000000003,0.02864423,0.20633282,-0.13713051,1.0132510000000001
8.060329,-3.3859663,-0.73920494,0.26860616,-0.1749169,0.9759880999999999
8.8768,-3.0225074,-1.1004517,0.37559485,-0.22923154,0.7992561
9.910473,-2.6876732999999997,-1.1610729,0.47301912,-0.25050712,0.48891908
10.769809,-2.5701945,-1.3837528000000001,0.46450192,-0.17704620000000001,0.15301302
11.299617,-2.8101416,-1.7027849999999998,0.39423496,0.02841396,-0.13496631
11.542954,-3.178906,-1.7980072,0.31651545,0.22963297,-0.40058798
11.536000999999999,-3.7239508999999997,-1.8596147,0.25211279999999997,0.20408134,-0.6300115
11.747292999999999,-4.867268599999999,-2.0704577,0.24198989999999998,0.17852972,-0.7519226999999999
11.618907,-5.563129,-1.7698991999999998,0.22921409,0.25570820000000005,-0.7918384
11.559742,-5.990829,-1.6673220000000002,0.19940387,0.31799898,-0.83655375
11.368378,-6.100119599999999,-1.2478292,0.26541220000000004,0.29829422,-0.90416783
11.136505,-6.025861,-0.7838138000000001,0.436821,0.21312216,-0.9914691999999999
10.597225,-5.648554,-0.27201962,0.6683913,0.0842994,-1.1314621
10.332550999999999,-5.251097,-0.20480002,0.8153130999999999,-0.078574724,-1.3092587
10.296408999999999,-5.531688,-0.5338687,0.89196795,-0.18769270000000002,-1.4258467
10.101127,-6.00099,-0.61383504,0.90685564,-0.21432643,-1.498243
9.785216,-6.320894,-0.7233170999999999,0.8855626,-0.23349014,-1.5035663000000001
9.294664,-6.5985923,-0.72443753,0.86002845,-0.28244662,-1.4274348999999997
8.793406,-6.8253713000000005,-0.5887054,0.8829097,-0.3005457,-1.2895714
8.317611,-6.7154869999999995,-0.30339324,0.96434677,-0.30002209999999996,-1.1453025
7.831587,-6.275825,0.20933941,1.0745468,-0.26434755,-1.0377728000000002
7.491687,-5.8100095000000005,0.36727053,1.2092339,-0.22176154,-0.94514817
7.235881,-5.261823000000001,-0.010390836,1.1996346000000002,-0.1919513,-0.90470886
7.0574555,-4.7491389999999996,-0.8454309000000001,1.0575124,-0.14510667,-0.88233376
6.9229875,-4.465665,-1.3096092,0.8594874,-0.1142318,-0.8461530999999999
6.7633324,-4.346788,-1.7355376,0.6215466,-0.10197959,-0.8035496
6.810689999999999,-4.338791400000001,-1.7166234,0.44959682,-0.051958452999999995,-0.76735145
6.997839999999999,-4.5896273,-1.282459,0.3378085,0.025220007000000003,-0.7146600000000001
7.1581649999999994,-4.9816346,-1.1097125,0.26700047,0.09335766,-0.61138886
7.063910000000001,-5.3380737,-1.00454,0.23879595,0.11730358,-0.48628363
7.008269,-5.464947,-1.1793741000000002,0.18397516,0.06726499,-0.3159395
6.77153,-5.653783,-1.6914938999999998,0.08709193,-0.03651229,-0.097686075
6.7090320000000006,-5.758237,-2.0896113,-0.035325464,-0.14297737,0.12267919999999999
6.868925999999999,-5.809569000000001,-2.18966,-0.16043067,-0.24198989999999998,0.37074283
6.811772,-5.673961,-2.2650776,-0.30628783,-0.37135372,0.5458691999999999
7.725102400000001,-5.9384437000000005,-2.5138257,-0.5905496,-0.46397832,0.7071725
8.695559,-6.94194,-2.871998,-0.90833914,-0.41339868,0.97066486
9.043014999999999,-7.8059497,-2.3887238999999996,-1.0345091,-0.26701793,1.3390341000000001
9.0259495,-8.058011,-1.1532198999999999,-0.84287184,-0.10997319,1.6286191
9.320177000000001,-6.909014699999999,-0.05320874,-0.49418998,0.0076619955,1.7063560000000002
9.356110000000001,-5.0585847,-0.039178713999999996,-0.27167794,-0.010960667,1.5280183999999999
9.865998,-3.7322254,-1.1822186000000001,-0.29351202,-0.11903145,1.1766835
10.363321000000001,-3.234327,-2.2257265999999998,-0.42924628,-0.18715166,0.8349306000000001
10.260438,-3.2833793,-2.475863,-0.64217645,-0.09293878,0.5778087
10.059085000000001,-3.6280296,-2.363939,-0.87481135,0.15404277,0.44207445
9.398602,-4.3372593,-1.7644308999999998,-0.93389076,0.3419449,0.4543092000000001
8.551667,-4.8838553,-0.82934195,-0.7566351,0.39997712,0.55491
7.9749227,-4.8363357,-0.29144138,-0.55328685,0.3249105,0.63051766
7.7880697,-4.205425,-0.7206643,-0.47554985,0.205146,0.61348325
7.8998027,-3.483171,-1.3567846000000001,-0.5782974,0.14604916,0.50328314
8.1726265,-3.215777,-1.7923951,-0.7768635,0.24399702,0.40481165
7.8676343,-3.4136623999999998,-1.3299408000000001,-0.8721409999999999,0.39039525,0.37552503
7.5495787,-3.880503,-0.50736964,-0.8423308,0.5240002,0.42875758
7.294223,-4.4103208,-0.1387009,-0.7023205,0.5559571999999999,0.5533392
7.177308999999999,-4.698276,0.07956411,-0.41807616,0.44362777,0.6693687
7.35946,-4.6618557,0.11109096,-0.13060299,0.27754226,0.7657283
7.5903279999999995,-4.619861,-0.5349316999999999,0.13500121,0.09283406,0.8897514000000001
7.552403999999999,-4.417771299999999,-0.77609485,0.4150044,-0.063669614,0.99462825
8.059946,-4.083559999999999,-1.4843955,0.56937873,-0.20952678,1.031891
8.382311,-3.8199966,-2.3558562000000003,0.64763933,-0.35164893,1.0627658000000002
8.843156,-3.6124384,-2.9897642,0.64922756,-0.4719545,1.0702184
9.390816000000001,-3.3512216,-3.6367160000000003,0.44959682,-0.5454154,0.9839817
10.4136095,-3.3004646,-4.4285455,0.030124382999999998,-0.5235988,0.8013854
11.725776,-3.9228132000000007,-4.7627854,-0.3339513,-0.35164893,0.62573546
12.840189,-4.538631,-3.745738,-0.5948081999999999,-0.281382,0.382454
13.850285000000001,-5.423202,-2.9054787,-0.5633748000000001,-0.2984164,0.12322024
14.3401375,-5.867068,-1.2669636,-0.22429226,-0.27286479999999996,-0.23874359
14.454045,-5.539761,0.27329335,0.30373964,-0.15468854,-0.7465995
13.788178,-4.7408257,1.0523666,0.7668802,-0.08388052,-1.2645434
12.239705,-4.31597,0.3150578,0.91378456,-0.14084807,-1.5929794
10.781751,-4.5739017,-1.0613879,0.89196795,-0.19566886,-1.8139032
9.854114,-4.7731285,-1.7126682,0.6689323,-0.23240805,-1.9198272
8.917836,-5.1169357,-2.3394797,0.3122743,-0.22760838,-1.8607478
8.064668,-5.5399814,-2.2371037,0.064734265,-0.18343410000000002,-1.7340368999999998
7.7999453999999995,-5.530126999999999,-1.0254749,0.0045727626,-0.16374679,-1.7180846999999997
8.257400500000001,-5.844619799999999,-0.21452048,0.07538077,-0.1919513,-1.6510116999999997
8.010864999999999,-6.322541,0.55828,0.30906290000000003,-0.1749169,-1.5110013
7.9381957,-6.24495,0.8109257,0.45971972,-0.06791076,-1.4497926
8.160694,-5.7704379999999995,0.33796552,0.47514844,0.029478611000000002,-1.4439458
7.9675875,-5.1637949999999995,-0.2451471,0.40488148,0.08751081,-1.5110013
8.268261,-4.931021,-0.8969446,0.27927014,0.08644616,-1.6212014
8.476374,-5.277912000000001,-1.3532507,0.1115789,0.14978416,-1.6345183
8.344425,-5.678376,-1.3418733999999999,0.017889624,0.28393015,-1.6398416
8.233047000000001,-5.7858663,-1.0288173,-0.098663464,0.47397906,-1.5860678999999998
7.6449447,-6.0589010000000005,-1.1211376,-0.13062043,0.57457983,-1.4407518
6.9754105,-6.302965599999999,-1.1087356000000002,-0.08908161,0.5522222,-1.2602848
6.4643736,-6.596591,-1.4145421999999999,-0.10506882,0.43989277,-0.9776287
5.8521376,-6.8441606,-2.0111293999999997,-0.16467181,0.28180087,-0.53791046
5.0154309999999995,-6.906477000000001,-2.3405907000000004,-0.24186772,0.1375494,-0.011972958
4.493820700000001,-6.5511394,-2.4182682,-0.28869492,0.022026055,0.453262
5.046172599999999,-5.709730599999999,-2.2554624,-0.30733502,-0.19460422,0.7343298
5.989967299999999,-5.4922223,-2.6223786000000002,-0.52932346,-0.48312458,1.0042101
6.7660522,-6.3615949999999994,-3.2154224,-0.71137875,-0.58639574,1.3502216
7.825792999999999,-7.386475999999999,-2.4824135,-0.759288,-0.55925584,1.776623
8.092153,-7.963239,-1.3438845,-0.46225044,-0.38091812,2.2205825
8.265234,-6.7273335,0.13612473,-0.09548696,-0.22017328,2.3600342
8.829930000000001,-5.0638514,-0.56039643,-0.015097098,-0.24890140000000002,2.2823322
9.4482765,-4.275115,-2.0364506,-0.05607743,-0.27125907,2.1620266
9.868354,-3.9116561,-2.6611552000000005,-0.19661134,-0.30161035,2.0209517
10.501333,-3.9163299,-3.0539286,-0.2945592,-0.33194417,1.7909869999999999
11.292578,-3.9742792000000002,-2.4888779999999997,-0.35897929999999995,-0.23453735,1.532818
11.34865,-4.093884,-1.9769976999999999,-0.40849432,-0.025324726000000002,1.3528919
10.702656,-3.987313,-1.5557523000000002,-0.41753513,0.13967870000000002,1.2102288
10.045831,-3.5610684999999997,-1.3576656999999999,-0.4052829,0.15564846,1.035626
9.532141000000001,-3.0171633,-1.4639202,-0.43669882,0.09868091,0.8503768
9.156357,-2.7111652000000004,-1.4988278,-0.48567277,0.10400417,0.68587947
8.948894000000001,-2.6838522,-1.1615708999999999,-0.55806905,0.23869123,0.5730265
8.795712,-2.9038122000000004,-1.0446285,-0.5570044,0.36964327,0.5080828
8.585799,-3.0535266,-0.5494597,-0.46012115,0.39837140000000004,0.46176177
8.408168,-3.1164174,-0.46436977,-0.3190462,0.3425034,0.40376446
8.399885000000001,-2.9740582000000004,-0.6491734,-0.18278833,0.27860692,0.332939
8.475272,-2.8488700000000002,-0.8045091999999999,-0.09334021,0.2892534,0.28665286
8.618426,-2.845595,-1.1168664,-0.04277802,0.30948177,0.23979078
8.971515,-3.000586,-1.4479654,0.014695672,0.28180087,0.15568337
9.656303,-3.2123866000000003,-1.7029477,0.07325147,0.24401449,0.045500733
10.206883,-3.4624657999999995,-1.8211256000000002,0.13074261,0.25785494,-0.09129817
10.700741,-3.5407467000000006,-1.8357205,0.16854644,0.30150563,-0.255778
11.004747,-3.6678786,-1.8592794999999998,0.12967797,0.32651618,-0.43251005
11.459301,-4.5414176,-2.354755,0.054628804,0.31267574,-0.51874673
11.842238,-5.5019903,-2.324176,0.034924038,0.29031807,-0.52726394
12.157076,-6.340114,-2.2504060000000004,0.04930555,0.2802126,-0.5086413
12.187511,-6.4529004,-1.6111062,0.17706366,0.27541295,-0.55813885
11.923928,-5.868571299999999,-1.0473005,0.44961426,0.20833996,-0.7013431
11.260831,-4.961303,-0.31414798,0.7455871999999999,0.026825711000000002,-0.9185319
10.7857065,-4.686851,-0.5523710000000001,0.9947155000000001,-0.27925268,-1.0968521999999998
10.421117,-4.910421400000001,-0.78045225,1.2172276000000002,-0.5837428000000001,-1.2778428
10.485195,-5.279434999999999,-1.0895053,1.1778355,-0.6651799,-1.4109242
10.392588,-5.7850523,-1.7062805,0.9707521000000001,-0.5688377,-1.4402108
9.865528,-6.01659,-1.6731734,0.82063633,-0.45437902,-1.4135944999999999
9.287539500000001,-5.96772,-1.1537467,0.7695331,-0.35910149999999996,-1.3678145
8.695674,-5.7919183,-0.5134701,0.7711214,-0.26008895,-1.3209699
8.120146,-5.459498,-0.23393266,0.7732681,-0.1796991,-1.2703903
7.6824474,-5.128466,-0.31862995,0.7631452,-0.1818284,-1.2490972
7.4254823000000005,-4.728625,-0.6159898,0.73228776,-0.24144885,-1.2485561
7.2319070000000005,-4.577254,-0.9681386000000001,0.6077062,-0.2467721,-1.2075758
7.0096383,-4.555984,-1.2466321000000002,0.4336445,-0.20046851,-1.1436968
6.9483466,-4.604701,-1.2048389,0.30003956,-0.10197959,-1.063848
6.8575106,-4.6511005999999995,-0.89628375,0.21378538,-0.002443461,-0.97282904
6.8353405,-4.6844187,-0.7577074,0.13130112,0.07527605,-0.9009389000000001
6.9572725,-4.7643847,-0.8771110000000001,0.021083577000000003,0.1444609,-0.82590723
7.090409299999999,-4.9779,-1.1783687,-0.13699089,0.21472786,-0.7274183000000001
7.2973256,-5.324101000000001,-1.4620816,-0.28923595,0.27860692,-0.6033951999999999
7.3374047000000004,-5.633298,-1.5249532,-0.3967657,0.28553587,-0.40908772
6.9250083,-5.8734269999999995,-1.3937798000000001,-0.42444659999999995,0.27808330000000003,-0.13227850000000002
6.5115870000000005,-5.887486,-1.1310495,-0.4052829,0.28234190000000003,0.15303047
6.218518,-5.580635,-1.1637543,-0.42444659999999995,0.21313961,0.40322343
6.677409,-5.612775,-1.8573066999999999,-0.62727135,0.061418135,0.65235174
7.3199553,-6.525253,-2.5695817,-0.8380721999999999,-0.034906585,1.0968347
7.630474,-7.391073,-2.3364822999999997,-0.87479395,-0.074298665,1.5604988000000002
8.033811,-7.6854067,-1.1885775,-0.5548751000000001,-0.06578146,1.9512258000000002
8.421911,-6.4663075999999995,0.0182917,-0.14231415,-0.16851154,2.1135938
8.966687,-5.2759395,-0.4672907,0.1626996,-0.3425907,2.1045352999999998
9.809533,-4.6846004,-1.2329851,0.31388003,-0.37613592,2.0523674
10.498383,-4.399719,-1.8991287000000001,0.39796996,-0.43947390000000003,1.8953228
11.500164999999999,-3.9850147000000002,-2.4047937000000004,0.37615335,-0.5496565,1.5248418
12.255612,-3.3939245000000002,-2.755621,0.088697635,-0.39315286,0.9925164000000001
12.481347,-3.1915092,-3.0534402999999997,-0.381337,0.09176941,0.5384340999999999
11.868019,-3.353539,-2.9465727999999998,-0.7752578,0.5293409,0.29462904
10.028238,-3.9094536,-2.2221925,-0.92376786,0.7199134,0.22170918
8.815499,-4.086663,-1.7353365,-0.998817,0.6906268,0.18496999
7.906094599999999,-4.096211,-1.379836,-1.0329033,0.60918975,0.19720475
7.282653999999999,-4.073983,-1.0379822,-1.0302329,0.5644744,0.2605602
6.9295279999999995,-4.201441,-0.57860196,-0.97541213,0.56180406,0.40002945
6.588354600000001,-4.3674264,-0.26831338,-0.85830057,0.5064422000000001,0.5820848000000001
6.3877497000000005,-4.359486599999999,-0.09610326,-0.6293831999999999,0.33238049999999997,0.77904516
6.438803,-4.2069,-0.0504985,-0.33128095,0.0768643,0.929702
6.7940454,-3.826576,-0.16202042,-0.15135495,-0.051417399999999995,1.0212619
7.3789487000000005,-3.4328637000000004,-0.79271066,-0.12262683,-0.062063905999999995,1.056919
8.009333,-3.1569943,-1.3088046,-0.118350774,-0.09878564,1.017527
8.840139,-3.1273255,-1.4241190000000001,-0.075782195,-0.19247492,0.9041329
9.648411999999999,-3.257589,-1.5111531,-0.009232792,-0.28722882,0.76839864
10.280185000000001,-3.5137496,-1.3127886999999998,0.10040879,-0.29202849999999997,0.63690555
10.700846,-3.5465693,-1.0946768999999998,0.16322319,-0.20470966,0.45486772
11.046032,-3.3246365,-1.0596929,0.10147344,-0.09346238,0.18764035
11.842191,-3.6923952000000004,-1.5557905,-0.0044331364,-0.0034906585,-0.046565384
12.083258,-4.456001799999999,-1.413757,-0.03265511,0.042271875,-0.1870993
12.232273,-5.1482997,-1.2725661,-0.052883476,0.0028797933,-0.32923892
12.469233000000001,-5.7115026,-0.90755564,0.040264744,-0.006684611,-0.44368014
12.218109,-5.70408,-0.091228664,0.28672270000000005,-0.008813913,-0.60178953
11.656545,-5.1728163,0.48729667,0.5747194999999999,-0.13018411,-0.84346527
11.348995,-4.936135299999999,0.3399958,0.74504614,-0.3010693,-1.0601305
11.144616000000001,-5.154429400000001,-0.18063773,0.81159556,-0.42298055,-1.2570734
11.243122999999999,-5.5380087,-0.5596686,0.7386756999999999,-0.41711622,-1.459357
11.252471,-5.81656,-0.8116918000000001,0.6098355,-0.34313172,-1.6323715
10.795695,-6.055769000000001,-0.62532717,0.5475621,-0.21696188,-1.7116793000000001
10.164938000000001,-6.1642364999999995,-0.11744996,0.60133576,-0.03436553,-1.7617179
9.483327000000001,-5.996383,0.45838428,0.73706996,0.11732103,-1.780358
8.788405000000001,-5.795596,0.55654657,0.90582585,0.2062281,-1.7281901000000002
7.997246700000001,-5.687742,0.25392902,1.0165321,0.17640042,-1.6808218999999998
7.626806299999999,-5.338312999999999,-0.35723403,1.0500773,0.09176941,-1.6706990000000002
7.3886785999999995,-5.1334558,-0.928299,0.913802,0.054506633,-1.6100138000000002
7.0247693,-5.088885299999999,-1.6291010000000001,0.64709824,0.04118977,-1.4950316000000001
6.7471957,-5.0945644,-1.9104101999999998,0.42299798,0.04918338,-1.3651441
6.591945599999999,-5.1762834,-1.5817341999999999,0.29417524,0.10454522,-1.2139636999999999
6.484398400000001,-5.1824603,-1.1615708999999999,0.21752039,0.17533578,-1.0398846
6.356845,-5.1304965,-1.0564749,0.12224286,0.1982345,-0.88498664
6.3428817,-5.09195,-1.2963931999999998,0.013107423,0.18812904,-0.7157071999999999
6.40425,-5.2640834000000005,-1.5373455,-0.10611602,0.15138985,-0.50597095
6.5285954,-5.6541853,-1.7441375,-0.19500564,0.0731293,-0.25843089999999996
6.6468496,-6.009331700000001,-1.8981901,-0.29401818,-0.03010693,0.012496557
6.729325299999999,-6.085801999999999,-1.7942147000000002,-0.33341023,-0.085486226,0.27281243
6.805442,-5.768867,-1.5766968000000001,-0.3717377,-0.14083062,0.48628363
7.222703,-5.8446484000000005,-1.9178130000000002,-0.5697627,-0.21003293,0.7502996
7.4139524,-6.670869000000001,-2.61217,-0.7608763000000001,-0.26539478,1.0931171
7.9850936,-7.221525,-2.2319419999999996,-0.8550890999999999,-0.25316,1.4572277
8.439982,-7.665669,-1.7265066999999998,-0.74597114,-0.24251350000000002,1.7989807
8.688117,-7.124033,-0.72155493,-0.50216615,-0.27710593,2.0012643
8.731357000000001,-6.227941,-0.32088049999999996,-0.17158332,-0.34524357,2.1311517
8.843539,-5.2499194000000005,-0.16659813,0.1712168,-0.411793,2.112529
9.455296,-4.438697,-0.8628799000000001,0.29417524,-0.49590039999999996,1.9496375
10.006719,-3.9044258999999997,-1.7382766,0.24307199999999998,-0.5837428000000001,1.6648346
10.538097,-3.5336309999999997,-2.2793567,0.051434852,-0.5299691999999999,1.3257521
11.078958,-3.5414076,-2.4180672000000003,-0.20512855,-0.316498,0.9989043
11.237741,-3.7529589999999997,-2.2534132000000002,-0.5314353,0.10773917,0.7024078
10.889347,-3.9197872000000005,-2.060019,-0.82208496,0.5527632,0.50223595
9.730017,-4.0801125,-1.5873556999999998,-0.84018403,0.64112926,0.41067597
8.706774000000001,-4.1121273,-0.93403554,-0.7592706,0.5309465999999999,0.34307936
8.02772,-3.9752845999999997,-0.82891095,-0.70230305,0.39625955,0.3143338
7.4673905,-3.833337,-0.70668215,-0.68900365,0.36592573,0.32178634
7.1858993,-3.8889115,-0.60648006,-0.7119023,0.42074654,0.40802306
6.923352,-4.1447080000000005,-0.45588472,-0.6485469,0.46439719999999995,0.54323375
6.8271622999999995,-4.3379107,-0.14702313,-0.47926742,0.40957642,0.69919634
6.968889,-4.3492975,0.0057269307,-0.23066272,0.28927088,0.81526077
7.336255599999999,-4.121388,-0.03344221,-0.014014994,0.23549728,0.883922
7.744907400000001,-3.68844,-0.5204133,0.12011356,0.21633355,0.8945685
8.273777,-3.3379862,-0.96867484,0.26010639999999996,0.15406021,0.81791365
9.009955999999999,-3.2209578,-1.3518428999999998,0.3729594,0.02310816,0.68589693
9.534792999999999,-3.3280551,-1.8932388999999998,0.377218,-0.10889109,0.55813885
10.02933,-3.537979,-2.3836767999999995,0.29417524,-0.18767525,0.4053527
10.549091,-3.6593745,-2.5679345000000002,0.14034192,-0.1237962,0.21478021
11.004402,-3.7410648,-2.490755,-0.13006194,0.08059931,0.007173303000000001
11.549236,-4.3075137,-2.5436192,-0.3605501,0.1929287,-0.14451326
11.815806,-5.386618599999999,-1.9365356,-0.36960837,0.19716984,-0.20252799999999999
12.090699,-6.122941,-1.3516322,-0.26101398,0.08485791,-0.29888764
12.552723,-6.7201889999999995,-0.8967434999999999,-0.02094395,0.02576106,-0.3776718
12.437725,-6.5918600000000005,-0.23130861,0.31655037,-0.0019024089,-0.5187293
11.841319,-5.7102575,0.29645962,0.6556329000000001,-0.05300565,-0.7508232
11.075922,-4.7685794999999995,-0.09970413,0.82704175,-0.23877849,-1.035085
10.57698,-4.49135,-0.886343,0.83023566,-0.4352153,-1.2698492000000001
10.191321,-5.02451,-1.4084226999999998,0.75729835,-0.521452,-1.4061245
10.099499,-5.693038,-1.5372499,0.6859841999999999,-0.521452,-1.4396523
9.683885,-6.198665,-1.3492572,0.62262875,-0.51665235,-1.3795083000000001
9.137383999999999,-6.318557,-1.0789803999999998,0.57897806,-0.51026446,-1.3177584
8.759578999999999,-5.985734,-0.63231826,0.5954889,-0.47300169999999997,-1.2985947
8.393229,-5.4538765,-0.22403024,0.6087883000000001,-0.43627995,-1.3252110000000001
8.111498,-5.2046212999999995,-0.10609186400000001,0.62475806,-0.3771831,-1.3129587999999999
7.6915164,-5.0927157,-0.14818193,0.6343399000000001,-0.3425907,-1.28636
7.486841,-4.9736476,-0.32134017,0.5981418000000001,-0.3031986,-1.2533383
7.2856994,-4.956055,-0.48066953,0.5140344,-0.25209534,-1.211817
7.094432,-4.914463,-0.66456336,0.40598103,-0.20416862,-1.1521965
6.8930983999999995,-4.923417,-0.6913976,0.29525736,-0.14030702,-1.0851235000000001
6.779469000000001,-4.9060736,-0.79057497,0.16589354,-0.049270645,-0.98771673
6.751734700000001,-4.9747580000000005,-0.8477964,0.066881016,0.03960152,-0.8727344000000001
6.781451700000001,-5.064723000000001,-0.8666723,-0.03211406,0.09283406,-0.7811745
6.912539,-5.1669936,-0.99547076,-0.13910274,0.12318534,-0.6747094
7.002657000000001,-5.4330087,-1.2018318000000001,-0.27698374,0.15512486,-0.5213997
7.037344500000001,-5.814204,-1.3826994,-0.37917277,0.18015288,-0.32922146
7.0094852,-6.151853599999999,-1.3542945,-0.44252822,0.21155135,-0.07902851
6.813304400000001,-6.2026105000000005,-1.3123194999999999,-0.4696681,0.23445007,0.18233454
6.770169999999999,-6.03199,-1.4141114,-0.5905321,0.14980161,0.41760492
7.173086,-6.5438704,-2.1670973,-0.75607663,0.043860123,0.72635365
7.3741699999999994,-6.9649053,-1.9090311999999998,-0.7475594,-0.051399945999999995,1.0446843000000001
7.672765299999999,-7.1731143,-1.1929828000000002,-0.6336418,-0.07588691,1.3912368999999998
7.8617539999999995,-7.2481966,-0.80376226,-0.53037065,-0.00082030473,1.7308605
8.171764,-6.768025,-0.9918603000000001,-0.41165337,0.04759513,1.9650836
8.434457,-5.8820844,-1.0336822,-0.17851228,-0.0040317103000000005,2.0747252
8.918861,-5.054399500000001,-1.2134676000000002,0.020577433,-0.17489944,2.0481265
9.760011,-4.494884,-1.6339371999999999,0.19997983,-0.35482544,1.9006634999999998
10.708374000000001,-3.9461614999999997,-1.8097483,0.33944908,-0.4378682,1.5589281000000001
11.852495,-3.4078012,-2.01587,0.3064449,-0.33937928,1.0638653999999999
12.338873,-3.1423132000000003,-2.4097927,0.054646257000000004,0.020437805,0.6241472
11.793109,-3.2352657000000002,-2.656405,-0.26047292,0.4404513,0.34894368
10.489007,-3.3603196000000004,-2.7046242,-0.41858232,0.6134658000000001,0.17859954
9.296828999999999,-3.2781792000000003,-2.3774326,-0.5122541,0.6124010999999999,0.02528982
8.435002,-3.1132188,-2.3143215,-0.684204,0.60227823,-0.060405847
7.602472,-3.086011,-2.3370952999999997,-0.86200064,0.6315474,-0.07476991
7.0354,-3.2395557999999998,-1.8423764999999999,-0.9477138,0.6416703,-0.04230678
6.6723433000000005,-3.537117,-1.1558152,-0.9216211,0.5868495,0.04925319
6.3055997,-3.9301586000000004,-0.6231340999999999,-0.8007920000000001,0.51284754,0.23609069
6.123018,-4.127671,-0.24699542,-0.6064845,0.41277036,0.41654027
6.448217400000001,-3.9788473,-0.107892305,-0.40100685,0.2770361,0.53951615
6.7791440000000005,-3.7686267,-0.31251034,-0.26366690000000004,0.16203637,0.6268175
7.453102,-3.6198797,-0.77948505,-0.16945402,0.08698721,0.6518281
8.308675,-3.5566633000000003,-1.0779079,-0.09705776,0.06782349,0.5959426999999999
9.127156,-3.5252225,-1.2387695,-0.045413468,0.0726057,0.50757664
9.604503,-3.5339181000000006,-1.4593139,-0.004415683,0.07527605,0.40537018
9.892994999999999,-3.6064627000000002,-1.5950651000000002,0.022706734,0.06569419,0.2967758
10.093523,-3.5594117999999995,-1.7689128,-0.006021386,0.019373154,0.13601351
10.589181,-3.8232239999999997,-1.9133502,-0.12739158,-0.02851868,-0.022078415
11.497637,-4.985762,-2.0827544,-0.25673792,0.06995279,-0.06997025
11.948167999999999,-5.9686010000000005,-1.7474319999999999,-0.33766884,0.16737707,-0.047088984
12.042278999999999,-6.5120945,-1.4134314,-0.28230700000000003,0.16203637,-0.05773549
12.123097,-6.4266024,-0.6899801999999999,-0.048066366,0.044401175999999994,-0.1375843
11.743771,-6.001967,0.11946109,0.37990582,-0.073216565,-0.25788984
11.069008,-5.1507225,0.80412614,0.8020136999999999,-0.28988174,-0.44368014
10.547924,-4.7759730000000005,0.36354518,1.0980041,-0.5629734000000001,-0.6145479
10.326967999999999,-4.846659,-0.47607264,1.1752,-0.7561988000000001,-0.76892227
10.441305,-5.080831,-1.4762839,1.054877,-0.856276,-0.90148
10.536585,-5.4745817,-2.0264811999999996,0.8659101999999999,-0.8488234,-0.9413957000000001
10.262238499999999,-5.6834517,-1.8594137,0.7557275999999999,-0.77855647,-0.9499129000000001
9.724558,-5.4473834000000005,-1.0158885,0.765292,-0.6912550999999999,-0.99782217
9.071803,-4.8549337,-0.24217829,0.85419905,-0.59491295,-1.0696948999999998
8.464336,-4.3944902,0.18117402,0.98248076,-0.5012061999999999,-1.1239921
7.9563823000000005,-4.2275089999999995,0.06972873,1.0000561,-0.37238345,-1.1351621
7.6068,-4.074873999999999,-0.78776896,0.86058694,-0.32607988,-1.1612374
7.458330999999999,-3.9722679,-1.4511161,0.6641501,-0.35376078,-1.1814831000000001
7.307008000000001,-4.0376678,-1.7267845000000002,0.44165558,-0.36173695,-1.2027588
7.55656,-4.2334657,-1.532289,0.24521875,-0.23930210000000002,-1.2384332
7.887247599999999,-4.545133,-1.1022522,0.057316612,-0.026371923999999998,-1.2618556
8.044164,-4.8541675,-1.078425,-0.1513375,0.19238764,-1.2597263
7.9628467999999994,-5.1655955,-0.9253302,-0.26099652,0.34730306,-1.2363038999999998
7.911572500000001,-5.609634,-0.81652814,-0.32274628,0.3856305,-1.1452676000000002
7.883589,-6.2047462,-1.2343354,-0.40685370000000004,0.35156167,-1.0079451
7.8345366,-6.704310400000001,-1.7403069,-0.508013,0.3063053,-0.7721161999999999
7.3958235,-6.720256,-1.7372901,-0.51014227,0.26265459999999996,-0.53736943
6.993511,-6.031827,-1.2815299999999998,-0.47020915,0.15086626,-0.38512436
7.038272999999999,-5.8559303,-1.6007825,-0.61233133,0.10402162400000001,-0.22436208
7.249499,-6.6450114000000005,-2.5506964,-0.9423731,0.11840314,0.125367
7.282577000000001,-7.46017,-2.7403266,-1.2527275,0.19612265,0.5405808000000001
7.164304,-8.067511999999999,-2.2846238999999997,-1.2894667,0.33292156,1.0925936
6.599597500000001,-7.3026979999999995,-0.5480136,-0.9615541999999999,0.37018433,1.4130535
6.911198,-6.0187645,0.40484995,-0.5122715999999999,0.22752112,1.5775508
7.5471463000000005,-5.366354,-0.026939558,-0.08267625,0.0076794485,1.6696517
8.322178,-4.856906400000001,-0.95062256,0.25214770000000003,-0.31489229999999996,1.6185485000000002
9.531422000000001,-4.5801940000000005,-2.0022135,0.4890238,-0.60608304,1.4444693000000002
10.394197,-4.303319,-2.5954776,0.48741809999999997,-0.66889745,1.2283453000000002
10.555575,-3.9954534,-3.350647,0.12332497,-0.3361853,1.0617361
9.993513,-3.5547,-3.733049,-0.34510395,0.14608406,0.9201376
9.2199745,-3.2630672,-3.321792,-0.5910383000000001,0.40905282,0.8126078
8.296206,-3.2008467,-2.6774454,-0.76403534,0.42395790000000005,0.75085807
7.4381046,-3.133378,-2.71129,-1.0163751,0.35688493,0.7348883
6.8721440000000005,-3.164177,-2.433735,-1.2128118,0.36911967,0.7849095
6.6808567,-3.5433707,-1.5428236000000002,-1.2841433999999998,0.42235222,0.90202105
6.579946499999999,-3.9989774,-0.78864044,-1.2292877,0.37817794,1.0622598
6.786786,-4.3277497,-0.21904072,-1.01264,0.20729275,1.1756538
7.323288400000001,-4.4761996,0.13544478,-0.7044323,-0.00029670597999999996,1.2613493999999998
7.8133526,-4.3518925,0.24108653,-0.39568359999999997,-0.17170548,1.3076705
8.434772500000001,-4.0323910000000005,0.07085879,-0.19713494,-0.20151572,1.3065883999999999
9.227473,-3.8533239999999997,-0.40724415,-0.053930674000000005,-0.18926351,1.2464443
10.138305,-3.7757998,-0.8022108,0.11958996,-0.22813198,1.0958048999999999
11.055743,-3.6973562000000006,-0.9894181999999999,0.26864108,-0.24569000000000002,0.8967153
11.626924,-3.4351047999999995,-1.3289447,0.35753068,-0.23664919,0.62521183
12.22216,-3.234921,-1.8051898000000002,0.250542,-0.19086921,0.26961845
13.19931,-3.7431812000000004,-2.38315,0.029094638,0.020437805,-0.04921828599999999
13.628754,-4.4347796,-2.4362726,-0.25302038,0.23764403,-0.27225390000000005
13.833582,-5.447374,-2.3078284,-0.29719466,0.41331142,-0.45005059999999997
13.168034,-5.7283382000000005,-0.92146116,0.0014137167000000002,0.42661083,-0.62200046
12.032099,-5.2990580000000005,0.37168545,0.5156400999999999,0.32601005,-0.8450360999999998
11.092576,-4.674104,0.49219040000000003,0.8568694,0.019390607,-1.0467961
10.420763,-4.7930193,-0.33975637,1.1592301999999999,-0.39793506,-1.2022351
10.140833,-5.099659,-0.77636296,1.2619603000000001,-0.6640978,-1.342228
10.290546,-5.532722,-1.4927943000000001,1.1390018,-0.6790029000000001,-1.4141006
10.269363,-5.9405410000000005,-1.7434385,0.96172875,-0.55391514,-1.4305940000000001
10.120281,-6.0707765,-1.3630574,0.87549204,-0.40751693,-1.4657274
9.724041,-5.869807,-0.62381405,0.9340653,-0.32182127,-1.5280183999999999
9.140038,-5.532674299999999,-0.062028978,1.0463773,-0.28349382,-1.5876386999999998
8.54232,-5.3181443,-0.039351102,1.1161032,-0.26965338,-1.6211665000000002
8.190746,-5.1811004,-0.42845675,1.0804461,-0.25101325,-1.6573646
8.055646000000001,-5.0284075999999995,-1.0339791999999999,0.928201,-0.19725712,-1.6898452000000002
7.9059987000000005,-4.9425419999999995,-1.4596586,0.7184648,-0.12751375,-1.7111381999999997
7.7457023000000005,-5.046182,-1.6248393,0.4959353,-0.012548917,-1.6808043999999998
7.577619599999999,-5.2719746,-1.5418468,0.32719687,0.10456268,-1.6254426000000002
7.502911,-5.4451327,-1.2887222,0.22020820000000002,0.20357521,-1.5556992
7.2592,-5.507746,-1.0965731,0.13397147,0.2818183,-1.4737211000000001
7.051622999999999,-5.491255000000001,-1.1361636,0.022183135,0.3403741,-1.3720382
6.9682856,-5.6556120000000005,-1.5489049,-0.1385617,0.34356806,-1.2639848999999999
7.071906599999999,-5.984546,-1.7744673,-0.26206118,0.27490679999999995,-1.0760653
6.639303,-6.3770804000000005,-2.0081990000000003,-0.40472440000000004,0.17002997,-0.7407003000000001
6.0184484000000005,-6.445488,-1.9602861,-0.5303532,0.12904964,-0.34890878
5.719298,-6.131713400000001,-1.6739491999999998,-0.70017374,0.10082767,-0.06518805
6.415254,-6.621786999999999,-1.9861436000000001,-0.9402438,0.09285152,0.30422834
6.332673000000001,-7.321182,-1.705543,-0.9993232,0.121056035,0.79929096
6.05395,-7.7174697,-0.6458503000000001,-0.7730935999999999,0.13756685,1.3896486000000001
5.909828,-7.524746,0.27970982,-0.4696681,0.10349803,1.8479720000000002
6.5957384,-6.659022,-0.14414051,-0.19179423,-0.03330088,2.1279752
7.8878317,-5.780857599999999,-1.2878507,-0.019844393999999998,-0.3255388,2.150874
9.225166,-5.1566220000000005,-2.423679,-0.0070685832999999995,-0.67209136,2.122652
10.272657,-5.0170975,-3.1817505,0.008342674,-0.8786162000000001,1.9666893
11.68493,-4.515675,-2.859893,-0.03635521,-0.7370350999999999,1.6733692999999998
12.539152,-4.086261,-2.7414374,-0.3089058,-0.20523326,1.272537
12.60641,-3.75158,-2.7668545,-0.65174085,0.39999455,0.9536654
11.414347,-3.5474026,-2.8212217999999996,-0.7943866,0.60068995,0.7678925
9.744113,-3.4858233999999997,-2.2821338,-0.8103564,0.5107182,0.62255895
8.726588000000001,-3.3415873,-2.1473114,-0.8992459999999999,0.36487854,0.4948183
7.9793286,-3.2874496,-1.8946468,-1.0344741,0.34517378,0.47085494
7.256107000000001,-3.5250504,-1.4104339,-1.1414628,0.43301618,0.54698616
6.664835000000001,-3.9570024,-0.65866405,-1.1696672,0.5155179,0.7295651
6.1729035,-4.320825,-0.29397926,-1.0307391,0.45057420000000004,0.9499478000000001
6.156948000000001,-4.4862356,0.3776422,-0.7384837,0.24190263,1.1368028000000001
6.278679400000001,-4.2831407,0.5421813,-0.4137652,-0.07586946,1.3023472
6.558637599999999,-3.8942455999999996,0.25754908,-0.1476025,-0.29838148,1.4045537000000001
7.321756,-3.4694760000000002,-0.24651659,-0.07414158400000001,-0.32712707,1.4423575000000002
8.375684,-3.2691673999999997,-0.93324065,-0.093305305,-0.33032100000000003,1.3806078000000002
9.636011,-3.2133825000000003,-1.2952343000000002,-0.08319984400000001,-0.34683183,1.2161104999999999
10.973258999999999,-3.3530029999999997,-1.3085078,-0.06562438,-0.30211648,0.98188734
12.038229,-3.3617464999999997,-1.1277361000000001,-0.024102997,-0.15093607,0.6917787
12.414415,-3.0591865,-0.79686695,-0.004415683,0.04335398,0.35960764
12.966747,-3.1545522,-0.8635790000000001,-0.0028099802,0.19399334,-0.013543755
13.74199,-4.2550135000000004,-1.1977712,0.07328638,0.31216958,-0.21956243
13.653022,-5.1532893,-1.1649035,0.15315264,0.27810076,-0.38723620000000003
13.784348000000001,-5.8326297,-1.3382343,0.28195795,0.24989624,-0.5309640999999999
13.430273999999999,-5.597174,-1.0792965,0.43739697,0.19825195,-0.75827575
12.694948,-4.738154,-0.83782697,0.6189286999999999,0.043877575999999995,-1.0403907
11.928746,-4.240275,-0.72304887,0.8265355999999999,-0.22333233,-1.3464866000000002
11.530963999999999,-4.384511,-0.7139318,0.9675931000000001,-0.46820202,-1.6184962
11.239082000000002,-5.0042934,-0.8496447,1.0171081,-0.5789257,-1.8074805
10.839184,-5.645097,-0.76319486,0.9963561,-0.6060656,-1.8724241000000001
10.228125,-6.2334765999999995,-0.6598228,0.96122265,-0.5565680000000001,-1.8798767
9.714761,-6.4415135,-0.30391994,0.9697224,-0.47724283,-1.8505901000000002
9.09562,-6.3427,0.034265816,0.9889034999999999,-0.36173695,-1.7978811000000001
8.490883,-5.9611125,0.022543802999999998,1.0011383,-0.25579545,-1.7212261999999998
7.872231,-5.679382,-0.047146622,1.0085908000000001,-0.17062339,-1.6099789
7.4625639999999995,-5.3531379999999995,-0.1920054,0.98464495,-0.16423549,-1.5477056999999999
7.3179064,-5.017988,-0.6312265,0.89202034,-0.20682152,-1.5099018
7.195917,-4.904771,-0.9770833000000001,0.73551667,-0.23556710000000003,-1.4550809999999998
7.1199155,-4.9373226,-1.2020998999999999,0.5374916000000001,-0.19352211,-1.366715
7.052992999999999,-5.0883970000000005,-1.0271126,0.40280452,-0.077998765,-1.2671614
7.1078386,-5.112866,-0.7077164,0.26865852,0.0689056,-1.1937004
7.221361999999999,-4.9580660000000005,-0.715512,0.13611823,0.21050416,-1.1473969
7.3091817,-4.887638,-0.7843022,0.008360127,0.3100403,-1.1165221
7.470589,-5.0692143,-1.0544543,-0.10128146,0.34730306,-1.0371968
7.4458046,-5.530692,-1.2692813,-0.18273596,0.3590142,-0.8822988000000002
7.303426299999999,-5.9899955,-1.4172908000000002,-0.2556733,0.34091517,-0.667763
7.06573,-6.2601767,-1.531657,-0.31740558,0.3249454,-0.39201840000000004
6.550804,-6.124186,-1.5229613000000002,-0.3035651,0.3324154,-0.11040953
6.0715613,-5.624257,-1.265326,-0.3429572,0.31058133,0.17596409
5.9974656,-5.4476322999999995,-1.9708206999999998,-0.514366,0.21795672,0.46287876
6.3881135,-5.878895,-2.7956328,-0.75497705,0.059864793,0.83550656
6.9384155,-6.688383999999999,-3.3126462,-1.0514736,-0.16636479,1.2949121000000001
7.422111500000001,-7.758448599999999,-3.3703656000000004,-1.1095058,-0.2717652,1.8655650000000001
7.511645,-7.7171917,-1.813378,-0.8284379999999999,-0.25631905,2.2781084
8.008403999999999,-6.368232,-0.54193234,-0.5404412,-0.31168088,2.434612
8.868697000000001,-5.3603206,-1.1511608,-0.38287288,-0.44530329999999996,2.4308946
9.73446,-4.8220468,-1.9985455,-0.26682594,-0.6465223000000001,2.3361406000000002
10.6174135,-4.690653,-2.2939038,-0.09115855,-0.8732929,2.179096
11.539908,-4.5601497,-2.1578557000000003,0.010489428,-0.93291336,1.8921813000000003
12.339477,-4.2672620000000006,-2.1152102999999998,-0.10180505,-0.6789854000000001,1.5232709999999998
12.364243,-3.8965727999999995,-2.2520723,-0.46965066,-0.16104153,1.1591604
11.687545,-3.6115193,-2.4300764,-0.86357147,0.28609437,0.92708397
10.236409,-3.6921462999999997,-2.3051949,-1.0429564,0.39416516,0.8131663
9.002409,-3.6870322,-1.5935998,-1.0748959999999999,0.32122785,0.7215889
8.311060000000001,-3.6706847999999996,-1.0084952,-1.0679669,0.27864182,0.7019016
7.655842999999999,-3.8594341,-0.39291725,-1.0174048,0.2892883,0.7641924
7.3462057000000005,-4.175123999999999,0.08350976,-0.8385434000000002,0.29728192,0.8908859
7.0677604999999994,-4.268028299999999,0.2886258,-0.6144257,0.16207127,1.0346137
7.055137599999999,-4.100741,0.25753948,-0.28598964,-0.11632619,1.1336262
7.4029675,-3.5741696000000003,-0.10471281,-0.07784168400000001,-0.30264008,1.1889881000000002
7.865230599999999,-3.1326308,-0.73524016,0.00837758,-0.31913346,1.1847295
8.766235,-2.6681557000000002,-1.101802,0.060528017999999996,-0.30209905,1.0873051999999999
9.533911999999999,-2.3411748,-1.2250652,0.11962487,-0.30796334,0.8967326999999999
10.4766245,-2.1651244,-1.3753444,0.14943509,-0.31113985,0.5677555999999999
11.508018,-2.1320748,-1.3695025,0.15104079,-0.1988279,0.15360643
12.231699,-2.2668016,-1.3009422,0.06586873,0.061994094000000007,-0.22432716
12.4967375,-2.5910625,-1.3741282,-0.10978121,0.336674,-0.5878966999999999
12.7862625,-3.8061678,-1.6515874,-0.18750072,0.44685665,-0.81786126
12.710289999999999,-5.129539,-1.3261197,-0.14863224,0.4426155,-0.9722357
12.698528999999999,-6.224387999999999,-0.96549535,-0.008639379,0.44313909999999995,-1.0531491000000002
12.36789,-6.6343616999999995,-0.28410557,0.22291344,0.453262,-1.1436445
11.811957000000001,-6.540078,0.2603072,0.57157785,0.46923175,-1.2293576000000002
10.696019,-5.9653835,0.8177731,0.91439545,0.35744342,-1.2969542
9.933993,-5.8514285,0.35392046,1.2343316999999998,0.09021607,-1.3358052
9.572842,-5.9282637000000005,-0.1392372,1.4472618999999998,-0.1775349,-1.3592275
9.730811,-6.170030000000001,-0.88829666,1.4839836000000002,-0.34149113,-1.3672211
10.153848,-6.523338,-1.5179813,1.4839836000000002,-0.40430552,-1.3608332
10.383941,-6.6720752999999995,-1.4977646999999998,1.5153996,-0.40854666,-1.3842381000000001
10.220866000000001,-6.4245625,-1.2417383999999998,1.5558563,-0.4000469,-1.443876
9.585042999999999,-5.853411,-1.0378098,1.5579857,-0.39472365,-1.5274423000000001
8.957484,-5.3664403,-1.1492456,1.4818543,-0.33403856,-1.6030326000000001
8.571548,-5.206469,-1.2752572,1.3540963,-0.20095721,-1.6142201
8.097123,-5.169158,-1.5818204,1.1816229,-0.10407399,-1.598774
7.8304186,-5.141845,-1.8210682,1.0384359,-0.082780965,-1.5641816000000002
7.512938,-5.008066,-1.8836238,0.83828163,-0.057752945,-1.5295717
7.1368375,-4.832859,-2.0204093000000003,0.6269397,-0.028483772999999997,-1.4726216
6.851678999999999,-4.8333281999999995,-2.0170193,0.43264967,-0.014625859,-1.3954256999999999
6.726663,-4.985829,-1.9340456999999998,0.25752333,0.0034557518,-1.2932192
6.5136747,-5.1791849999999995,-1.8182909999999999,0.08131489,0.035377822999999996,-1.1292628999999998
6.1693788,-5.3507824,-1.8148144,-0.09594075,0.061470497,-0.92485
5.976205,-5.672016999999999,-1.9720081999999999,-0.31258845,0.058800142,-0.6512346999999999
5.907348000000001,-6.126044,-2.1715120999999997,-0.51487213,-0.008779005999999999,-0.30628783
5.9335309999999994,-6.5998470000000005,-2.074777,-0.634113,-0.09608038,0.09613273
6.0254874,-6.4583497,-1.6959471999999998,-0.6985331,-0.13069025,0.38837066
6.3771095,-5.915287,-1.6114509,-0.923157,-0.11524409,0.6029065
7.25921,-6.3363886,-2.591714,-1.3170778,-0.08862782,0.90048516
7.552117,-7.0147047,-2.552104,-1.5747233999999999,-0.082763515,1.2310504999999998
8.126735,-7.5756183,-1.822677,-1.5896284999999999,-0.07585201,1.5493811000000002
8.14246,-7.617555,-0.50870085,-1.286744,0.0050440015999999996,1.8836814999999998
8.200083,-6.799379300000001,0.6255474,-0.81564474,0.06892305,2.067325
8.720583,-5.489847,0.48999733,-0.4600339,-0.046565384,2.0604136000000004
9.385625,-4.533603,-0.9101606,-0.25136232,-0.22490312,1.9198796999999999
10.293746,-3.8349937999999995,-1.715752,-0.08794714,-0.4298397,1.7101433999999998
10.79376,-3.4952184999999996,-2.3265892999999997,-0.041626103,-0.53949875,1.4413278
11.54551,-3.3076472000000003,-2.5110674,-0.18908897,-0.36330774,1.0639003999999999
12.14343,-3.3727214,-2.8164337,-0.5547878,0.09341002,0.76740384
11.457711,-3.5936775,-3.0269508,-0.9050579,0.47296676,0.64922756
10.052535,-3.8095772000000006,-2.6375866,-0.9460556999999998,0.47136107,0.5757667
9.084242999999999,-3.7764797,-1.7182898999999998,-0.9050579,0.3840597,0.5337042
8.31512,-3.6134633999999997,-1.4336193000000002,-0.8763124,0.3127281,0.54969144
7.5850034,-3.4498627,-1.150682,-0.8582133,0.28824112,0.58641315
7.285709,-3.4213336,-0.9600462,-0.8784417,0.27227136,0.6710441999999999
7.022136,-3.628154,-1.0227647,-0.8496961,0.17858209,0.8067959
7.148933,-3.7754836000000003,-0.72596985,-0.7166147,0.048171088,0.90846133
7.5862289999999994,-3.6988502,-0.41276997,-0.53030086,-0.072658055,0.96755815
7.965279,-3.3718402000000003,-0.23251529,-0.33546972,-0.098733276,0.96382314
8.519997,-2.8745742,-0.27755502,-0.27052602,-0.018884463,0.8892976
8.980296000000001,-2.511939,-0.84810287,-0.26522022,0.051888637,0.77218604
9.532916,-2.4331315,-1.0951556999999998,-0.25242698,0.045500733,0.5991890000000001
10.237827000000001,-2.6367437999999996,-1.2201235000000001,-0.2609442,0.071593404,0.40222856
10.947467999999999,-3.0307912999999997,-1.1826974,-0.30832985,0.24619615,0.19514526
11.572039,-3.4659038,-1.0027875,-0.40734240000000005,0.48307222,-0.014573500000000001
12.279601,-4.252868,-0.94553727,-0.42650609999999994,0.771069,-0.19769344
12.472795,-4.898728,-0.6664116999999999,-0.35889205,0.87166977,-0.35526177
12.36903,-5.7142315,-0.6836978,-0.1651256,0.72794193,-0.38826594
11.903684,-6.4483705,-0.4118027,0.19844393,0.5490805999999999,-0.35524429999999996
11.475226,-6.3870115,0.32114866,0.7238404,0.3169867,-0.35845572
10.802811,-5.521450499999999,0.22708523,1.1172202,0.015166911000000002,-0.44362777
10.5004425,-4.7666163,-0.72786605,1.2982107,-0.23926719,-0.6176895
10.799717,-4.3734307,-1.6036458999999998,1.285976,-0.45380306,-0.83967793
11.209767,-4.458463,-2.4320972000000003,1.1773816000000001,-0.6544810000000001,-1.1127521
11.681453999999999,-4.8204474,-2.56691,0.99904394,-0.60657173,-1.3469753
11.584182,-5.284932,-2.228791,0.7765319,-0.28719392,-1.4848563999999997
10.894997,-5.4023247,-1.7724370999999999,0.66687286,-0.02687807,-1.5769398000000001
9.977615,-5.2664394,-1.0570784,0.724364,0.031660274,-1.6770171000000003
8.943933,-5.166055,-0.5876616,0.83828163,-0.020490166,-1.6961808
7.7919965,-5.0662456,-0.71919906,0.8601156999999999,-0.07531096,-1.6386896
7.0832844,-4.936489599999999,-1.249735,0.7408748000000001,-0.08756317,-1.5418065
6.748392599999999,-4.7815175000000005,-1.8145461999999999,0.55667275,-0.07852236,-1.436947
6.3644967,-4.6747074,-1.9216055,0.34215435,-0.11896164,-1.2964131
5.906936,-4.6802044,-1.9429903999999998,0.16435766,-0.18125243,-1.1132932
5.6399254999999995,-4.852769,-1.5345109,0.09941395,-0.20893337,-0.9163328000000002
5.6151404000000005,-5.0090723,-1.0477123,0.03926991,-0.20254546,-0.71137875
5.599176,-5.1144074999999996,-1.0730811000000002,-0.08901179,-0.17645279,-0.47183230000000004
5.575789,-5.413309,-1.3526665,-0.23486896,-0.19615756,-0.17320648
5.688977700000001,-5.811465,-1.4049846000000001,-0.32908183,-0.27865925,0.12116075
6.050215000000001,-6.066505,-1.333896,-0.38817868,-0.35053194,0.40859902
6.4115667,-6.1393843,-1.0666648,-0.44088763,-0.34733796,0.67263246
6.775083,-6.0036335,-0.8234234,-0.48932052,-0.29942867,0.8637459999999999
7.550267999999999,-5.993539,-0.9530549999999999,-0.6612703000000001,-0.28612927,1.0159911
8.495672,-6.8975034,-1.6106178,-0.9684134,-0.18603465,1.2401088
9.384916,-7.8853029999999995,-1.8583889,-1.1904018,-0.0646819,1.5137066000000001
