accx,accy,accz,gyrx,gyry,gyrz
8.5319195,-2.8698242,-3.9304172999999993,-0.18126989999999998,-0.42896703,-0.86369365
8.765823,-2.53341,-3.2064779,-0.39048252,-0.5104041,-1.1234859
9.105762,-2.5602732000000006,-2.4408597999999997,-0.5773199999999999,-0.5354321,-1.204382
9.101635,-2.5589897999999995,-1.9681392,-0.5895548,-0.49124038,-1.3326811
9.027280000000001,-2.4224533999999998,-1.9819393,-0.30796334,-0.38051668,-1.6552702000000001
9.570572,-2.4764569,-2.2978970000000003,0.09658652,-0.47952920000000004,-2.1231756
10.150391,-2.1547625,-2.172087,0.38617155,-0.67916,-2.5905747000000003
10.847553,-1.8972805,-1.9468020000000001,0.4713436,-1.0022726999999998,-2.9222047000000004
11.300048,-2.0009205000000003,-1.7362654999999998,0.44420373,-1.2955754,-3.1840912999999995
11.827528,-2.5694093999999996,-2.0984123,0.491572,-1.3605365,-3.3762696000000005
12.407202999999999,-3.7473567,-2.3318856,0.64807564,-1.0688221000000002,-3.3416772000000003
12.714265,-4.4428339999999995,-2.0705535,0.74124134,-0.63390356,-3.061674
12.874483999999999,-4.999467,-1.4962708,0.60177207,-0.31983158,-2.652307
13.485159,-5.374590400000001,-0.29510929999999996,0.25576055,-0.22881266,-2.2663797999999997
14.053006,-5.566346599999999,0.6385430999999999,-0.07374016,-0.18568558,-2.0342860000000003
14.100478,-6.0520916,0.6457641,-0.15837118,-0.14203489,-1.8942756999999997
13.584346,-6.7160325,0.06533298,0.011938052,-0.16545722,-1.7393776
12.916738,-7.338075,-0.33809,0.24031438,-0.32569590000000004,-1.5567813
12.832558,-8.118499,-0.07915231,0.31696925,-0.5338264,-1.4018834
12.579241,-8.56064,0.61142164,0.16791813,-0.6110223000000001,-1.2975476000000001
11.145344,-8.048578,1.2154691,-0.1871342,-0.7409097,-1.1234859
9.197785000000001,-7.1655107000000005,1.0279648000000001,-0.64332837,-0.7829547,-0.8706050999999999
7.570906,-6.443745,0.39723635,-1.050025,-0.5945115,-0.5586799
6.845578,-6.183026,0.03385401,-1.2842481000000001,-0.21816616,-0.16954128
6.8559017,-6.049554,0.21220288,-1.3305517,0.13262758,0.21584487
6.789343400000001,-5.925994,0.7829614,-1.3241638,0.29338986,0.5453456
6.361882,-5.663963,1.0148925,-1.2475264,0.3098832,0.8157669
5.8828697,-5.396052,0.5277395,-1.0090272,0.35088098,1.1053518999999998
5.4142766,-5.055778500000001,0.024554934,-0.71518356,0.32374109999999995,1.4029305
5.2436657,-4.5719389999999995,-0.58178145,-0.6087359,0.50045574,1.5690161
5.176839,-4.494778,-0.8642015,-0.7162656999999999,0.72031486,1.7286962
5.505199,-5.094718,-0.8450190999999999,-0.91800827,1.0870783000000002,2.0374625
5.7330885,-5.7143273,-0.047998954,-0.99679244,1.3362067,2.4510705
6.045187,-5.8433943,0.7063566,-0.85358816,1.4437538,2.7837827
6.5169597,-6.1605872999999995,0.9024321,-0.6332055,1.1355287,2.913129
7.160866,-6.995235000000001,0.7526125,-0.28667033,0.5568821999999999,2.8971592999999998
7.557815,-7.697991,0.6944526,0.2919587,0.11878711,2.7262917
8.039365,-7.94128,0.63059443,1.0473198000000001,-0.17451547,2.4627817000000003
9.501486,-8.472151,-0.35624766,1.5296239999999999,-0.15374605,2.2227118
10.732047999999999,-8.948473,-0.59804285,1.5689986,0.037873644,2.0448976
10.678341,-9.41947,-0.3233992,1.1197158999999999,0.3705683,1.9874238999999998
9.937019,-9.399128,0.1524915,0.32976252,0.76237726,2.0491736
9.476327000000001,-8.916561999999999,0.16743132,-0.48788935,0.99499476,2.1960955
9.332101,-8.307976,-0.3553283,-0.9914691999999999,1.1339229,2.2530456
9.486833,-7.810106299999999,-1.0870633,-1.1367853,1.1264703999999999,2.1561623
10.062466,-7.567688499999999,-1.3280253,-1.021803,0.8954412,1.9602666000000002
11.072378,-7.1756234,-1.0677948,-0.79609704,0.62023765,1.7015563999999999
11.516579,-6.323987000000001,-0.8843894,-0.6044599,0.33171728,1.5301476
11.381575999999999,-5.3307858,-1.4404858,-0.40751693,0.14273302,1.4194239
11.026707,-4.4907947,-2.2784085,-0.041259582999999996,0.12517501,1.2746488999999999
10.167438,-3.7990617999999996,-2.8701499,0.49528953,0.21832323,1.0052748
9.267888000000001,-3.455082,-3.260376,1.0723478000000002,0.27635545,0.49850094
8.982902000000001,-3.3298748,-3.1124240000000003,1.4790443000000002,0.25452137,-0.13920747
9.186906,-3.1887798,-2.3531459999999997,1.607326,0.15231489,-0.84346527
9.465016,-3.0151331000000003,-1.7038288000000001,1.5051196000000002,0.18798941,-1.4992902
9.435856,-2.712793,-1.2238584,1.2182049,0.17627825,-1.9251505000000002
9.278221,-2.5408418,-1.0570017,0.8828398999999999,0.036808994,-2.1567209
9.264144,-2.563759,-0.89901316,0.66032785,-0.20271999,-2.475575
10.012705,-2.4384177000000005,-0.43363783,0.54215163,-0.50028116,-2.9035647
10.947535499999999,-2.005527,0.35288617,0.4995656,-0.8537627,-3.2245654999999998
12.020261999999999,-1.4875653999999998,0.72998255,0.46549675,-1.286011,-3.4055562000000004
12.809697,-1.1099614,0.6365512,0.5086064,-1.9029672999999998,-3.5205386
13.688398000000001,-1.7002183999999998,-0.34879687,0.69012064,-2.200546,-3.5205386
14.889693,-2.8149588,-0.8424334000000001,0.86046475,-2.0855637,-3.3336835
15.473601,-3.947981,-1.1503373,0.9174323,-1.7033541,-2.9642498
15.223234,-4.8681207,-1.1019361,0.87645197,-1.3307263,-2.5277429
15.056119,-5.5927978,-0.5676555999999999,0.8200255,-1.1742226,-2.2099533
15.085731,-6.22524,0.69317883,0.8008443000000001,-1.1348305,-2.0289626
14.342579999999998,-7.127892500000001,2.0224588,0.8317191999999999,-1.197645,-1.9496548999999999
12.683599000000001,-8.249767,2.8164337,0.91636765,-1.2306491000000002,-1.9443142
12.079322,-9.432781,2.6614904,1.0478607,-1.1513239,-1.9682776000000002
12.542734,-10.150659,3.3370574,1.1495262,-0.95968676,-1.9118511999999999
12.145727,-10.19408,3.9943137,1.1085459,-0.78189003,-1.7005092000000002
11.067323,-9.403869,4.2198668,0.87645197,-0.6046344,-1.3571681
9.747217,-8.319659,4.559767,0.5581214,-0.6131515999999999,-1.00051
8.677641,-7.44885,4.459258,0.18177605,-0.5742831,-0.70132565
7.896336,-6.957770299999999,4.0552797,-0.13816026,-0.45078364,-0.47722536
7.526422,-6.680952499999999,3.4933699999999996,-0.43305108,-0.22294836,-0.23874359
7.096097500000001,-6.338055000000001,3.0384336,-0.71518356,0.01870993,0.10725048
7.055444199999999,-6.2675985999999995,2.6314863999999996,-0.9105556999999999,0.38653806,0.6480931
6.6714716,-6.149182,2.4333997000000003,-0.8354891,0.7171209,1.2916658
5.613043,-6.0010095,1.8353758999999998,-0.5368458,0.84274966,1.8474311
4.457218,-5.748746400000001,0.9450776,-0.18020524,0.94760907,2.2690153
3.5794082,-5.440076400000001,0.2667428,0.0710349,1.1350051,2.6363373
3.465578,-5.410551,-0.13973518,-0.008255407,1.3165193000000002,2.9514565
4.0300446,-5.566193599999999,-0.044934377000000005,-0.43411574,1.3234308000000001,3.1803565
5.1134496,-5.9888945,0.47740382,-0.8855277,1.2765862,3.1798327
5.9185433,-6.648994999999999,0.6446244999999999,-1.1000636000000001,1.1871555,3.0057537999999995
6.184031500000001,-7.374428699999999,0.44326252,-1.152755,1.0194818,2.8151813
6.0128365,-7.553237400000001,0.7262763000000001,-1.1085808000000001,0.80868083,2.6368607999999996
6.191903599999999,-7.420425999999999,0.8677735999999999,-0.8791398000000001,0.6803816999999999,2.4755576
7.246549000000001,-7.516318300000001,0.6626576,-0.51396453,0.78684676,2.2956316
8.3855,-7.7746625,0.5901995,-0.31648055,0.83636177,2.0896304
9.154939,-7.894899400000001,0.45951435,-0.4623377,0.8251917,1.7281901000000002
9.647589,-7.9359649999999995,-0.6344634,-0.8413533999999999,0.7559719,1.2852780000000001
10.176899,-7.7793074,-1.5840613000000001,-1.2879658,0.7384139000000001,0.95897114
11.226296000000001,-7.4546056,-1.5098219,-1.6350418,0.8273209999999999,0.8152433000000001
11.681511,-6.8894014000000015,-0.90000916,-1.8005863000000002,0.9332450000000001,0.8567646999999999
11.644286,-6.730561,-0.54284215,-1.7505653,1.024805,0.9914343000000001
11.686932,-6.804235,-0.05161899,-1.4950316000000001,1.0599383999999998,1.0329732
11.695015,-6.4354705999999995,0.36230016,-1.1053868999999998,1.0423629,0.9312902
11.606717,-5.481448,-0.003620033,-0.66460395,0.91940457,0.75084066
11.284025,-4.1781692999999995,-0.90348554,-0.22703242,0.69956285,0.58634335
11.5055275,-2.8704658,-1.5567386,0.27652997,0.45469317,0.3446676
11.524557000000001,-1.9577388,-1.7105039,0.85995865,0.03202679,-0.021554817
10.990832000000001,-1.682032,-1.7828087,1.3619328000000002,-0.46249480000000004,-0.56665605
10.388316,-1.829103,-1.4766765,1.392284,-0.8606742000000001,-1.1399618
9.629527000000001,-2.2080286,-0.732846,0.93020815,-1.0315593,-1.6605935
9.272436,-2.2785234,0.23721750000000003,0.20572196,-0.9804386999999999,-1.8335905
9.514874,-1.8443686000000001,1.0927424,-0.36170202,-0.6557202,-1.7814226000000002
9.782076,-1.4947193,1.6221865,-0.27920032,-0.23092452,-1.7489421000000003
9.962264,-1.5344535,1.8164808999999997,0.34252086,0.0032637657,-1.8112328999999998
10.272083,-1.579225,1.5227698,1.0915115,-0.076026544,-2.0230985
11.216978,-1.363632,0.9057744000000001,1.6164018,-0.5950350999999999,-2.260498
12.418169,-0.6535116999999999,0.3431849,1.7574593,-1.2226555000000001,-2.4670577000000002
13.72073,-0.5468165,0.07616434,1.8277261999999999,-1.6149706,-2.6315377
14.868203,-1.9186653999999999,-0.17434576,1.8697886000000001,-1.5995419,-2.5740464
15.227304,-3.5954205999999997,-0.49931556,1.7542653000000001,-1.2466015,-2.2615627999999997
15.239525,-5.407544000000001,-0.14773183,1.4274175,-0.88142616,-1.8974696
15.395320000000002,-6.4063478,1.2915378,0.98293453,-0.63070965,-1.5759450000000002
14.994023,-6.433717700000001,3.3004549,0.64863414,-0.5758714,-1.4029305
14.116663,-6.622333,3.904646,0.52246433,-0.6040934,-1.3528919
12.787863,-6.8393625999999985,3.2388186,0.54429835,-0.714276,-1.3816376
11.385857000000001,-7.327799000000001,2.0820267,0.61563,-0.77176714,-1.398672
11.121116,-7.862185,1.3964421999999999,0.60178953,-0.73982763,-1.2996594
10.722605,-7.669853999999999,1.5888018999999998,0.46232027,-0.6232571,-1.1000286
9.577669,-7.043138000000001,1.7500657,0.17699383,-0.5859943,-0.84025383
8.136168,-6.283975,1.4331403999999999,-0.22490312,-0.6141988,-0.59486055
6.9481363,-5.759462999999999,1.0066565,-0.6044424,-0.5599016,-0.4101349
6.3480053,-5.434867,0.6540384,-0.8796634,-0.52689743,-0.16207127
6.0540743,-5.2507524000000005,0.8450190999999999,-1.0436196,-0.29534462,0.17167059
5.939133,-4.996565,1.1231488,-1.0899233,-0.017470745,0.63533473
6.0280347,-4.9311843,1.3117638999999999,-0.9387428,0.39133772,1.1165569
5.864185,-5.0264444,1.2879559999999999,-0.6262765,0.6564358,1.4641567
5.43615,-5.0567265,1.1139071000000003,-0.46125559999999993,0.73043776,1.564775
5.049812,-5.1221266,0.89058554,-0.6028366999999999,0.66975266,1.5940616
5.0321903,-5.4792457,0.18425776,-0.8216312,0.46533969999999997,1.7915455000000002
5.291052,-5.97316,-0.044101197,-0.7902326999999999,0.52228975,2.1290397999999997
5.821377,-6.3138255999999995,0.18123148,-0.4511327,0.68092275,2.475575
6.230335,-6.7484210000000004,0.5918753999999999,0.0109083075,0.74160784,2.6885052000000003
6.752501,-7.4460053,1.1686865,0.5166175000000001,0.55850536,2.6879816
7.081158,-8.127271,1.5929295,0.8828573000000001,0.37006217,2.4239479999999998
7.570044500000001,-8.258502,1.9290179,1.1080397,0.36845645,2.0891241999999997
8.609147,-7.909695,1.3973613999999999,1.1841709999999999,0.5606346999999999,1.8181792
9.324899,-7.5708009999999994,0.57428277,0.8727344000000001,0.8560665000000001,1.7148907
9.428616,-7.646084299999999,-0.4743201,0.040194932,1.0759257,1.8389311999999998
9.686691,-7.689802,-0.9432867,-0.91532046,1.1371343,1.9847883999999998
10.295143,-7.546725299999999,-0.35814384,-1.6297011000000001,1.0056412000000001,2.0007582
10.553459,-7.205925,0.446691,-1.6738755,0.6835931,1.8224205000000002
10.787631,-6.771003200000001,0.7386208000000001,-1.0308263,0.3801676,1.4817321
11.224860000000001,-6.323469599999999,0.47886908,-0.15142477,0.15552629999999998,1.2352742
11.727078,-5.894017,-0.11020989,0.640658,-0.042481314000000006,1.1453025
11.737622,-5.096633,-0.99500155,1.0840938,-0.27616346,1.0702534
11.129772,-3.749339,-2.4592857000000006,1.2182224,-0.49762827,0.8440063
9.888484,-2.5357661,-3.962739,1.1857592,-0.6035523,0.41442844
8.494571,-1.9857605,-4.482319,1.0127621999999998,-0.6205866999999999,-0.17324138
7.9222410000000005,-1.9584665,-3.8355591,0.67472684,-0.6072699,-0.6475346
8.382273,-2.511939,-2.0423593999999996,0.06148795,-0.6775368,-0.95575976
9.395039,-3.0172112,-0.0033710361,-0.59749603,-0.65092057,-1.073936
9.938763,-2.920275,1.4198861,-1.0930997,-0.6493323000000001,-1.0409318
9.414833999999999,-2.582702,1.6766403000000003,-1.1111988000000002,-0.6743429,-1.0302854
8.892247,-2.342889,0.87002414,-0.7055668,-0.87290895,-1.2565149
9.419278,-1.9768157,-0.21611979999999997,-0.08381071,-1.4169456,-1.7467953
10.550357,-1.7417051,-1.2563525,0.6342701,-2.119615,-2.4728873
12.095018,-1.1940362,-1.8747845,1.3044765,-2.5806088,-3.1686277
12.949405,-1.0743931999999998,-2.499719,1.6457058,-2.5965786,-3.4049802000000002
13.248133,-1.7158476999999999,-3.0425706000000003,1.4732323999999999,-2.213828,-3.057363
13.692027,-3.162051,-3.2672906000000004,0.86903435,-1.5659966,-2.4281544999999998
14.106329999999998,-4.921406299999999,-2.7862953999999998,0.12325515,-0.81222385,-1.9144691000000003
14.757360999999998,-6.526057700000001,-1.5236125,-0.47188467,-0.16331045,-1.6988860000000001
14.976564000000002,-7.0926595,0.17767850000000002,-0.7028965,0.26359707,-1.6962156000000004
14.594613,-7.0071387000000005,1.6778853,-0.56555647,0.42542399999999997,-1.7286962
13.859153,-7.155071700000001,2.4390786,-0.26001915,0.4302062,-1.7169851000000003
13.920520999999999,-8.060607000000001,2.4715154,-0.081140354,0.25666812,-1.6211491000000002
13.238307999999998,-8.478663000000001,1.9464668,-0.1929287,0.12465142,-1.4981906
11.690121000000001,-8.199603999999999,1.0978085,-0.57035613,0.16032594,-1.3219821000000003
9.689822,-7.0379952999999995,0.16554467,-1.162302,0.19013616,-1.0366558000000001
8.333546,-5.642683,-0.009940726,-1.8825296000000002,0.06290167,-0.72418946
7.766436,-4.987859200000001,0.3182277,-2.4377362999999996,0.028309241000000002,-0.5804616
7.405132000000001,-4.913697,0.89537394,-2.6810176,0.06396632,-0.4638736
6.9423037,-4.935848,1.4631062,-2.503221,0.14755014,-0.24774949
6.1916547,-4.748554,1.6930166000000002,-1.8968936,0.2832844,0.027436575
5.841172,-4.652039,1.2697313000000001,-1.2085881,0.5377534,0.19086921
5.632235,-4.990551,0.22290018,-0.7178015999999999,0.85500187,0.3665366
5.4908524000000005,-5.311182,-0.72999215,-0.5676858,1.0732553,0.6662271
5.527992,-5.302314,-1.3365775,-0.47397906,1.2521341000000001,1.1847295
5.468031400000001,-5.3307953,-1.7302034,-0.346762,1.0226932,1.7287661
6.0519195,-5.943903,-1.529215,-0.15406021,0.25507987,2.1035232999999995
7.059888000000001,-6.611138,-0.36602554,0.22919664,-0.93359405,2.00664
7.960184599999999,-7.499109,0.40938935,0.7844033,-1.7725389,1.2762719999999999
8.635541,-7.9895570000000005,1.0857992,1.1091393,-1.9950335,0.7673864
9.274466499999999,-8.126188,1.0439103,0.96699965,-1.6357225,0.9904219999999999
9.913729,-8.095725,0.59317786,0.5097409,-0.7627089,1.8464011999999999
9.855414999999999,-8.3434105,-0.6626001,0.06684611,0.26466173,2.7353847
9.160302,-8.216641000000001,-1.9701598000000002,-0.06995279,0.76771796,3.042004
7.985841000000001,-7.690376799999999,-2.722619,0.09985029,0.7075564999999999,2.9270394
6.9730360000000005,-7.3188834,-3.1856961,0.5608441,0.3706032,2.4969202999999998
6.5896955,-6.686306,-3.149218,1.24435,-0.0030717794,2.0194159
8.278699000000001,-5.8151617,-3.3200489999999996,1.6893740000000002,-0.29745647,1.7394125
11.160438000000001,-4.7872157,-3.6935349000000004,1.6382707,-0.5071926999999999,1.5887733
11.50367,-4.601866200000001,-3.7088002999999996,1.1900527,-0.51729816,1.5802386
10.03251,-4.5455837,-3.8877047999999994,0.77857393,-0.36240017,1.6393354
8.9282465,-4.6584463,-3.341616,0.76525706,-0.25113544,1.5797324
9.113385000000001,-4.284338,-2.5037222000000003,1.0463248,-0.1409528,1.3199401000000002
9.55297,-3.4764287000000005,-1.4946713,1.2885417,-0.10314896,0.864287
9.794172,-2.991124,-0.8409201999999999,1.283201,-0.18725638,0.24305455
10.2124,-2.4374312999999996,-0.7174176999999999,0.96914643,-0.18353882,-0.40423572
9.687878999999999,-1.6665463,-0.7902685,0.36655405,-0.08824385,-0.8460658000000001
8.75934,-1.4018912000000001,-1.6970963,-0.37336084,0.040561453,-0.991923
8.324937,-1.4211311000000002,-2.9805512000000003,-0.9988345,-0.11592477,-0.87907
8.273624,-1.5046408000000002,-3.2579243,-1.2777903999999998,-0.5503023,-0.74173003
9.348218,-1.3747411,-3.0896885,-1.1164871,-0.7717497,-0.96956533
10.894288000000001,-0.5376419,-2.6987634,-0.4686558,-0.8228529,-1.6195433000000001
12.228845,0.06941269,-2.6273396,0.29202849999999997,-0.82552326,-2.4398482000000006
13.071077,0.38543776,-2.905019,0.73014104,-0.95061105,-2.9806907000000002
13.632872,0.22674048,-3.5174364999999996,0.7322529000000001,-1.1145673,-3.1238775000000003
13.902401000000001,-0.26067110000000004,-4.2207284000000005,0.45811403,-1.2396724,-3.0110245
13.660798000000002,-1.1720191,-4.4275303,0.14777702,-1.1332073,-2.8768785
13.165725,-2.4662669999999998,-4.3815517,-0.001256637,-0.7717497,-2.8268400000000002
12.517337,-3.7340638999999998,-3.8330402,0.023736477000000002,-0.3922104,-2.7954414
12.814975,-5.295131,-3.0529517999999998,0.17278759,-0.06908013,-2.683653
14.986907999999998,-6.4683,-1.3321242,0.38571775,0.09911725,-2.4781756
16.96697,-7.0829587,0.42347682,0.58320177,0.16990781,-2.2876031
16.771507,-7.419535000000001,0.9482954,0.76368624,0.18163641,-2.1752737
14.494401000000002,-7.4537435,0.34775302,0.8909033000000002,0.15873769,-2.0751965
12.542246,-7.5311437,-0.49725652,0.91751957,-0.052045718,-1.8686543000000002
11.43442,-7.6106977,-0.82820225,0.8882504000000001,-0.19310322,-1.5412654
11.265858999999999,-7.369822500000001,-0.39628828,0.84140575,-0.19577359,-1.1947303
11.000706,-7.0162176999999994,0.5455524,0.7258824,-0.10793116,-0.914186
10.111336,-6.745318400000001,1.1712626,0.4426853,-0.14306463,-0.6586698000000001
8.683961,-6.3796854000000005,1.3790027,0.059952057999999996,-0.25752333,-0.48300242
7.541841000000001,-6.089499,1.1876198,-0.26900759999999996,-0.34482470000000004,-0.28284806
6.6495504,-6.016494799999999,0.60044664,-0.42284092,-0.22397809999999999,0.08498008
6.0509043,-5.9185915,0.4381964,-0.5223945,0.022462387,0.62262875
5.077996700000001,-5.388141,0.47643656,-0.59744364,0.4424759,1.1102214
4.4066339999999995,-5.0659394,0.5459738000000001,-0.6054373000000001,0.88270026,1.5536572
4.052809,-4.805297,0.48246995,-0.6448468,1.0839193,1.8229964
4.519371499999999,-4.7290845,0.42751822,-0.8322079,1.134499,1.9443841
5.017318,-4.8009014,-0.020618865,-1.0536553,1.1265053,2.0396616
5.056506,-5.04714,-0.49965072,-1.2799023,1.0951068000000002,2.0886354
5.3195043,-5.4488389999999995,-0.97447836,-1.4784509,1.0695552,2.1142046000000003
5.8656793,-5.7042623,-0.7784506999999999,-1.6211141000000002,1.0589087,2.2094822
6.3764486,-5.9723554000000005,-0.8144883,-1.7531308999999997,0.95509654,2.3420224
7.189328,-6.382281,-0.9093178,-1.7568659,0.8241445,2.3968606
8.186446,-6.380835,-1.0592523,-1.4103132,0.8092394,2.4532871
8.987517,-6.1044097,-1.1498488000000002,-0.7353246999999999,0.8390496,2.5400647999999997
9.760873,-6.0288010000000005,-1.7717092,-0.09759881,0.92848027,2.567746
10.161978999999999,-6.138331,-2.2147226000000004,0.20156808,0.8747241,2.5320888
10.362689,-5.9523779999999995,-2.2983859,0.1754754,0.7538775,2.4516988
10.7424,-5.8622510000000005,-2.3865592,-0.061924282000000004,0.61282,2.3824966
10.813719,-5.848125,-1.9210116999999998,-0.34086279999999997,0.47441540000000004,2.3111650000000004
10.511082,-5.8742410000000005,-1.3729694,-0.48300242,0.39615482,2.1498616000000004
10.598068,-6.1700206,-0.9515610999999999,-0.46277404,0.3514395,1.9624831999999999
11.178164500000001,-6.6447144,0.050278235,-0.30145326,0.25137976,1.7208248
11.439983999999999,-6.8075004,1.2270284,-0.10503391,0.110845864,1.4285868
11.081543,-6.112378,1.5785546,0.12171926,0.08634144,1.3013523999999999
10.866064999999999,-5.3090944,0.81444997,0.35753068,0.12414527,1.1954108
10.253036,-4.428967,-0.30979055,0.58058375,0.043231804000000006,0.9574701999999999
9.857024000000001,-3.6021913999999997,-1.1609676000000002,0.81480694,-0.048851766,0.54864424
9.716398,-2.9788468,-1.5543923000000002,1.0713878000000001,-0.060021874,0.06848672
10.144559,-2.636332,-1.4525526000000002,1.1853055000000001,0.024609142999999997,-0.39887753
10.440069,-2.3528203999999997,-0.70915294,1.0170906,0.15608479,-0.86573565
10.647447,-2.3077326,-0.17432661,0.59388316,0.15554374,-1.1739434
10.705635000000001,-1.9897348999999998,0.285408,-0.028902652,-0.09993755,-1.3464167999999999
10.899201,-1.9010535,0.22629994,-0.46329764,-0.31927308,-1.4869508
10.566282000000001,-1.6511182,0.42430039999999997,-0.33606315,-0.23195426,-1.7999581000000002
10.6465645,-1.3680661,0.6653678000000001,0.25960028,-0.14145893,-2.1140301
11.156329,-1.2498403999999999,0.5399883000000001,0.9218130999999999,-0.025411992999999997,-2.4195848
11.903855,-1.2855618,0.62602633,1.2188332,-0.20109683,-2.6697778999999997
12.072906,-1.3541604999999999,0.50538725,1.2481198,-0.53485614,-2.9114535
12.113607,-1.4660176,-0.11781388,1.2672836,-0.8377406,-3.0418819999999998
12.144703,-2.011723,-0.73703104,1.2656778,-1.0251192,-3.1062846
12.070281,-3.1784463,-1.4180187,1.0266725,-1.1470303999999998,-3.0679572
12.523514,-5.013535,-1.1607665,0.47572440000000005,-1.0320481,-2.9401991
14.238672,-6.899371,0.44306140000000005,-0.07841764400000001,-0.61789894,-2.7272689999999997
15.843658,-7.654952000000001,2.8273704,-0.567616,-0.062674776,-2.3658113
15.759171499999999,-7.7675657000000005,4.1371516999999995,-0.8012981,0.33175218,-1.9969183999999998
14.579003,-7.7353973,3.9365080000000003,-0.7235786,0.48453832,-1.7690656999999999
13.091724000000001,-7.9679704,2.7052565,-0.41643557,0.37913787,-1.6317431999999998
11.760577,-7.984835,1.9205041,-0.01558579,0.054419365,-1.5321896000000002
10.5917,-7.902129700000001,1.5922687,0.33944908,-0.31340876,-1.4331771
9.669433999999999,-7.504817,1.1538999,0.54920274,-0.5151514,-1.2969018
9.247814,-7.3232408,0.26016355,0.53429765,-0.48747045,-1.0099697
8.4174185,-6.846066499999999,0.29862398,0.21010274,-0.28305749999999996,-0.61018455
7.338189999999999,-6.256432,0.52507716,-0.43134066,-0.057892572,-0.17901842
6.140073999999999,-5.655047,0.8693728999999999,-1.2532511,0.06558947,0.18613936
5.540269,-5.3247523,1.4613729,-1.8606256999999997,0.21411699,0.5108579000000001
5.1667156,-5.1597824,1.9135896000000001,-1.9452741000000002,0.2231578,0.9627934000000001
4.615829,-5.2014413,2.131845,-1.549224,0.17791887,1.4328455
4.3569393,-5.1324883,2.0708218,-0.96258396,0.18270107,1.8017558
4.177221299999999,-5.186358,1.7677923,-0.60700804,0.034191,2.0939937
4.085101600000001,-5.495976000000001,1.3053476000000002,-0.58676225,-0.15371114,2.364415
4.1941624,-5.53458,0.4693593,-0.606467,-0.30647979999999997,2.6715755
4.4897313,-5.3310733,-0.5930054,-0.43825218,-0.20533799,2.8946111
5.158097,-5.259161,-1.3593701999999999,-0.1481261,0.00012217305000000001,3.0255632
6.1503406,-6.0931573,-1.367951,0.14889404,0.09861110000000001,3.0255806
6.727161,-6.892140400000001,-0.24274331,0.3969577,0.13852678,2.85576
7.309785400000001,-7.558925599999999,0.9159736999999999,0.59498274,0.22369885,2.523589
8.226353,-7.863248,1.8829917,0.6519503000000001,0.31951743,2.2723315
9.102076,-7.779795599999999,1.9363058000000002,0.5646489,0.57770395,2.0684595
9.660384,-8.099508,0.99107504,0.27506390000000003,0.9311681,1.8837339
10.045055,-8.339282,0.2266926,-0.28811896,1.1329106000000002,1.7272302
10.799267,-8.492194999999999,0.21370643,-0.9311855,1.2186063999999999,1.6101186
11.812627,-8.052686999999999,0.47100649999999994,-1.5731525,1.1834903,1.4802312
12.342225,-7.371517,0.87313664,-1.9005238999999998,1.1409042999999999,1.2454843999999998
12.585649,-6.654837,1.0617231000000003,-1.7621368000000002,1.0999063999999998,0.9819745999999999
12.898617999999999,-6.0508275000000005,0.86326295,-1.4422004,1.0264456,0.78768456
12.961337,-5.440383,0.49589664,-1.2000011,0.9306270000000001,0.642351
12.333299,-4.8201413,0.0042329486,-1.0174222,0.8939053,0.42196825
11.865386,-4.0034595,-0.60217047,-0.7831816,0.7310137,0.11163126
10.928008,-3.0549822,-1.0802829,-0.53459436,0.64584166,-0.23862141
9.850857000000001,-2.2881577,-1.5377861000000002,-0.2844014,0.5116956,-0.49361402
8.970854,-1.9280026999999997,-1.6087312,0.018483037,0.2657613,-0.5968677
8.9268,-2.0655735,-1.3129035,0.37460002,0.037384953,-0.7475245
9.6229,-2.1823818999999998,-0.019766528000000002,0.46244243,-0.47202429999999995,-0.9253212
9.828092999999999,-1.9814413,0.7611646,0.27239352,-1.1523362,-1.1574149999999999
9.736883,-1.9248807000000001,0.91211426,0.10843731,-1.6883966000000001,-1.4454118999999999
9.94583,-1.8264790000000002,0.78384244,0.2793225,-1.7980556,-1.7908823
10.601181,-1.3532027,0.81275487,0.83507025,-1.3556845,-2.2556112
11.460411,-1.1364223,0.81776357,1.3359796999999998,-0.6854955,-2.5441314999999998
11.407921,-1.0613017,0.8283459000000001,1.3918651000000002,-0.28038713,-2.5632954
10.422554,-1.3625593,0.8574881,1.1432954,-0.11697197,-2.5553017000000002
9.961602000000001,-1.7811903000000002,0.98253244,0.90055496,-0.21917845,-2.6127927000000004
10.332417,-2.054206,0.8527859,0.73021084,-0.3314904,-2.7458742000000003
11.276383000000001,-3.0031142,0.45029187,0.5257979,-0.31445596,-2.8470159
12.742392,-4.36598,0.49822378,0.31873202,-0.065327674,-2.8539274
14.671544,-5.834928,1.4933688999999999,0.107390106,0.2311514,-2.6575081000000003
16.629723000000002,-6.710976,3.3735356,-0.09435249999999999,0.44088763,-2.3402421
17.628795999999998,-6.965796000000001,5.029250599999999,-0.28277823,0.62348396,-2.077256
15.936160999999998,-6.679085300000001,4.372731,-0.4126831,0.6697875,-1.8393152
13.711306,-6.609318300000001,2.850613,-0.41587704,0.6037792,-1.5987041000000002
12.4346695,-6.6839886,1.6955736000000001,-0.27108455,0.38339648,-1.3639573999999999
12.011747999999999,-6.854072599999999,1.064826,-0.0320617,0.09061749,-1.1526154
11.728236,-7.022567,0.71097255,0.23462461,-0.24260077,-0.9678898000000001
11.354817,-7.029223,0.6078878000000001,0.48692942,-0.48586476,-0.75017744
9.914102,-6.6349554,0.86833864,0.6839073,-0.7397927,-0.44781658
7.9396996,-6.022921,0.85885763,0.75949746,-1.0203195,-0.1614255
6.4371656999999995,-5.5698996,0.72968566,0.6578146,-1.2912818000000001,0.05148721
6.0371995,-5.424054,0.62670624,0.31606168,-1.1076208,0.22341959
5.6088486,-5.4217944000000005,0.7369064999999999,-0.17259560000000002,-0.85104,0.741922
5.230708,-5.414095,1.0338738,-0.43928190000000006,-0.5167396,1.4163696000000001
5.0295377,-5.425893,1.4658835,-0.36636207,-0.29529226,1.8954625
5.069751,-5.5160017,1.7464264999999999,-0.40362483,-0.30806807,1.9747877
4.934756299999999,-5.697424400000001,1.8704748,-0.7485717,-0.3458719,1.9391131000000001
4.5538,-5.6389484,1.8655331999999998,-1.1121587,-0.32723179999999996,2.1573665
4.1819425,-5.628931,1.4500913999999998,-1.1605916,-0.3719471,2.638065
4.524112000000001,-5.781892,0.6258826,-0.81670934,-0.31339133,2.8611007
5.1623874,-6.0987883,-0.20813273,-0.23912756,-0.20851448,2.7008796000000004
5.5879135,-6.4602075,-0.52306604,0.27508134,-0.36075956,2.4474926
5.8436623,-7.0237064,-0.5604634000000001,0.5423087,-0.48799405,2.1648366
6.940599000000001,-6.7946773,-0.18965909,0.59554124,-0.40441024,1.9689233
8.838646,-6.4379797,-0.43432733,0.5763775,-0.066392325,1.8715166
10.408438,-6.672486999999999,-0.9367840000000001,0.5662545999999999,0.37222636,1.9109086
11.066402,-7.2911296000000005,-1.0569633,0.4709771,0.8582482,1.9220787
11.038447999999999,-7.755633400000001,-0.8111268,0.24048892,1.0333745,1.8534175
11.678533999999999,-7.7046466,-0.16521907,-0.06398377,0.93916166,1.7166185
12.860971000000001,-6.7741446,0.64779437,-0.2902308,0.7224965,1.5441277
13.455326999999999,-5.4199457,0.6792925,-0.386573,0.51755995,1.3620899
12.939233999999999,-4.11003,-0.1420432,-0.3573038,0.43132323,1.1981336
12.665576,-3.3841273999999997,-0.9057744000000001,-0.20027652,0.4818854,1.1954633
12.719973,-3.0757543999999997,-1.2076639999999998,0.024888393999999998,0.55428165,1.2332671
12.866977,-3.1225945999999998,-1.2986437,0.12815952,0.3866079,1.1326488000000001
12.371146000000001,-3.1055669999999997,-1.3596959,0.040317107000000005,0.08105309,0.89043206
11.717310000000001,-2.5859294,-1.6850870999999998,-0.14489724,-0.20479694,0.61470497
10.54394,-2.0981443,-2.0548763,-0.30300662,-0.37939966,0.41400954
9.565305,-1.7182324,-2.1345074,-0.32004103,-0.38046432,0.20266764
8.8429365,-1.4301620000000002,-1.9408069,-0.14383258,-0.090338245,-0.19282398
8.663053999999999,-1.2292885,-1.5455146999999998,0.0914378,0.19497073,-0.7086385999999999
8.673235,-1.3023499,-0.8864771,0.23249531,0.27640778,-1.2846146999999999
8.287317999999999,-1.326359,-0.46749184,0.25591764,0.19816469,-1.7450849
8.204766000000001,-1.0157353,-0.59452814,0.15531684,0.027820547999999997,-1.9787669999999997
8.270789,-0.86656696,-1.0427898000000002,-0.09060004,-0.1648638,-2.1256888
8.635579,-0.894876,-1.4593713,-0.39402553,-0.27878144,-2.2374772999999997
9.200792999999999,-1.0475781,-1.3749518,-0.57075757,-0.34585443,-2.3269078999999997
10.375828,-1.6374904,-0.80501676,-0.4595103,-0.37035885,-2.4717178
11.824904,-1.910707,0.2869786,-0.013945181000000001,-0.32190853,-2.6526911
13.266013000000001,-1.9964386000000003,1.3447465,0.5982116,-0.26494098,-2.857104
13.985222,-2.2440662000000002,1.4022839,1.1209551000000002,-0.2314132,-2.9843385
14.440953,-2.9021842,0.44852975,1.4925183000000002,-0.15634659,-2.909272
14.421953,-3.7380477999999995,-0.6390699000000001,1.6921316000000002,0.0017278759,-2.6228807
14.650264000000002,-4.869318,-1.4162661,1.6229293,0.103934355,-2.2582467
15.203486999999999,-5.965067400000001,-1.6005908000000002,1.3429261000000001,0.07147123,-1.9180819
14.951972,-6.7800536,-1.0079876,1.0863453,0.037402406,-1.7003696
14.229832,-7.029194400000001,0.04893748,0.9490052999999999,-0.02167699,-1.5459952
13.955122,-7.246204400000001,1.4032896000000001,0.9165421999999999,-0.09833185,-1.4161078
13.885517000000002,-7.596964999999999,2.2892878,0.92186546,-0.12175417,-1.289938
13.091007000000001,-7.815910000000001,2.4420762000000003,0.921848,-0.13772394,-1.1568741000000002
11.979236,-7.9194636,2.064616,0.85905105,-0.19360937,-0.9748013000000001
10.753719,-7.9365587,1.7300502,0.75630355,-0.30113912,-0.75016
9.278029,-7.483623,1.2357143999999998,0.61257565,-0.40388665,-0.45792204
7.913564699999999,-6.727237,0.5062396,0.41030946,-0.47680649999999997,-0.21411699
6.825907000000001,-5.7986994,0.23309948,0.06321582,-0.5523967,-0.025132742000000003
6.3011365,-5.196011,0.4386848,-0.37646753,-0.55293775,0.08981464
6.122558000000001,-4.871568,0.7534744000000001,-0.85023713,-0.46722463,0.22130775
6.022164,-4.9125667,0.8205790999999999,-1.2287118000000001,-0.37992328,0.57053065
5.8709370000000005,-5.021646499999999,0.8482848,-1.3932091,-0.13027138,1.144901
5.4576592,-5.12407,0.67670673,-1.3245303999999998,-0.04935791,1.7128835999999998
5.041221599999999,-5.0858974,0.29087633,-1.2681038,-0.057334065,2.0376022000000003
4.5881620000000005,-4.9466124,0.045125917,-1.3809569,-0.15102334,2.2239335
4.3529267,-4.9807057,-0.07821378,-1.4980685,-0.02539454,2.4687857999999996
4.820007,-5.070814,-0.34261984,-1.375651,0.14119713,2.7285604
5.4800787,-5.417513400000001,-0.53994995,-0.9103812,0.21146409,2.8355665
6.4608583,-5.957281,-0.5104917,-0.28862509999999997,0.0315381,2.7376187
7.4049883,-6.7117133,-0.7326256999999999,0.25165904,-0.39376372,2.4490982999999997
7.915806,-7.5952215,-0.94962656,0.6594203000000001,-0.62053436,1.9896928
8.014868,-7.271717,-0.5989814,0.9192126,-0.533233,1.6921316000000002
8.931119,-6.7689639999999995,-0.8369363000000001,1.0549468000000002,-0.086079635,1.7544224
10.242175,-6.6993979999999995,-1.3368552,0.9761627,0.34667474,2.0354729
10.927347,-7.29926,-1.2750656999999999,0.7046766999999999,0.6112491999999999,2.2052934
10.952161,-7.490777499999999,-0.46182236,0.2676288,0.6293483,2.0759293999999997
11.164660000000001,-7.074311,0.5213805,-0.26679102,0.47443286,1.7879502
11.627891,-6.300054599999999,1.0224007,-0.74907786,0.31101766,1.4845247
11.719052,-5.5378175,0.9091359,-1.0232341,0.21146409,1.2545601
12.126277,-5.0082107,0.38357982,-1.0583676000000002,0.20933479,1.1395779
12.721121,-4.686544400000001,-0.058523864,-0.88215923,0.26363197,1.1582005
12.246246000000001,-4.419926,-0.46268427,-0.5675636,0.2780135,1.2513661
10.7956085,-3.6556778,-1.1092431999999999,-0.13318607,0.284925,1.2843528999999998
9.758372999999999,-2.8204463,-1.9460453999999998,0.38049924,0.09382889999999999,1.1007268
9.810912,-2.0127575,-2.7574883,0.9479581,-0.22767820000000003,0.61948717
9.9497175,-1.240206,-3.1155459999999997,1.6357051,-0.47680649999999997,-0.12681562
9.842467,-1.0387292,-3.1203246,2.212746,-0.57156044,-0.93382096
9.714157,-1.0967551000000002,-2.5509357,2.2111576,-0.60988784,-1.5475835
9.5578165,-1.3709773,-1.7183089,1.4589729999999999,-0.68282515,-1.7647722
9.36652,-1.6949512,-0.94832414,0.17980382,-0.7062475,-1.731768
8.762894000000001,-1.9006035,-0.14876612,-1.0812489,-0.7216762,-1.6247793
8.292375,-1.8635892,0.49958372,-1.6945052,-0.64076275,-1.6130681999999998
8.600719,-1.563816,1.1043495,-1.4128964,-0.42517966,-1.8361038
10.319028,-1.198183,1.4459063,-0.54042375,-0.21703169,-2.2731516
12.361091,-0.8684919,1.3570718000000002,0.42999676,-0.08075638,-2.7288222
13.846186,-0.46187025,0.68401384,1.1135026000000001,-0.14411184,-2.9571812
14.00539,-0.13118310000000002,-0.4995933,1.4589729999999999,-0.2378011,-2.8943667
13.221951,-0.83019423,-2.6518464,1.599507,-0.21703169,-2.7000767999999997
12.659025,-2.0345254,-4.062453,1.5531859,-0.09087929,-2.4717178
12.8890705,-3.4422873999999997,-4.362235500000001,1.3764538999999998,0.012915436,-2.2135312999999996
14.189542999999999,-5.4346657,-3.0067725,1.1677823,0.017174039,-1.9846313000000002
15.662857999999998,-7.238725,-0.07460333,0.94315845,-0.07490953,-1.8206751
16.2625,-8.391715,2.8892362,0.7249051,-0.1776396,-1.7157983
15.716976,-9.077798,4.3698583,0.54072046,-0.31658527,-1.5486481
13.857657999999999,-9.477821,4.608282599999999,0.44596654,-0.37034142,-1.3516877
11.649208999999999,-9.376766,3.6165182999999996,0.43264967,-0.38098790000000005,-1.1403632
10.263225,-8.886586999999999,2.3974577999999998,0.4576777,-0.37140608,-0.93169165
9.439131,-8.315072,1.0257047,0.37889352,-0.32456142,-0.7315373000000001
8.571645,-7.654665,0.1887014,0.1521229,-0.33840188,-0.42278856
7.4859789999999995,-6.740692999999999,-0.1301488,-0.14383258,-0.3841819,-0.041102502
6.532062000000001,-5.892618700000001,-0.1825914,-0.43237042,-0.47256535,0.2787989
6.1227875,-5.3478327000000005,-0.21034499,-0.6841516,-0.48160616,0.50504595
5.70589,-5.044745400000001,-0.11665508,-0.7709294,-0.32936108,0.76586795
5.434713400000001,-5.0081050000000005,-0.071596205,-0.74216634,-0.21012019,1.0841985
5.555429,-5.201748,0.06352296,-0.6692465,-0.06958628,1.3966823
5.714576200000001,-5.4822809999999995,0.09676405,-0.549482,0.12203342,1.6788148
5.7104487,-5.578863,-0.13127887,-0.56011105,0.25405014,1.8922860000000001
5.3150319999999995,-5.76497,-0.50849974,-0.81190974,0.25565583,2.0466428
4.7950497,-5.750269,-0.82900673,-1.1169235,0.06827728,2.2350862
4.7355876,-5.8032002,-0.9604579,-1.1909253999999998,-0.017418386,2.3931953999999998
5.8065615,-6.1610665000000004,-0.9117311,-0.86461866,0.049637165,2.525212
7.0375934,-6.9377837,-0.7233170999999999,-0.28916615,0.17952457,2.5321412
7.690511,-7.285642,-0.06433699,0.27295205,0.1481261,2.2744782000000003
8.396705,-7.7195864,0.06522763,0.5934119000000001,0.25617942,1.7639868000000003
9.24906,-8.075202,0.090596594,0.547632,0.5771629,1.4270161
9.713296000000001,-7.8463635,-0.005477933000000001,0.09993755,1.0296395,1.4046584
10.054747,-7.7036505,-0.6448351,-0.5638635000000001,1.2856967,1.7394998
9.931963,-7.633146000000001,-0.96298623,-1.1669796000000001,1.3772568,2.0620716
9.555862,-7.6251783,-0.5344720000000001,-1.4544351999999998,1.2484341,2.0769942
10.277723,-7.655239599999999,0.42054632,-1.4549763,0.77040577,1.7272476000000003
11.284677,-7.1622449999999995,1.4011443000000001,-1.1691087,0.19549432,1.2721181000000001
12.07462,-5.935800599999999,1.709958,-0.6490180999999999,-0.24525367,0.8893674000000001
12.9522,-4.7972426,0.9978075000000001,-0.10925761,-0.39058724,0.6546031999999999
13.378559,-4.0433087,-0.31611124,0.25644124,-0.32616714,0.50131094
12.102815,-3.3130962999999998,-2.211869,0.24527112,-0.13346533,0.36236525
9.779319000000001,-2.7274554,-3.844274,-0.041643556,0.05708972,0.19308577
7.928580999999999,-2.2655277000000003,-4.2231226,-0.28386036,0.21092305,0.04775221
7.955108,-2.1583633,-3.442278,-0.30993557,0.29450685,-0.08370599
8.786681,-1.9538313999999999,-2.2577515,-0.1033933,0.11725122,-0.12842132
9.563581,-1.6421830000000002,-1.2993811000000002,0.49066442,-0.023282692,-0.4738918
9.769521000000001,-1.6549392,-0.5331600000000001,1.2827647,-0.08662069,-1.1691087
10.141646000000001,-1.6086258999999998,0.12086888400000001,1.8587407,-0.12761848,-1.8983946
10.266183999999999,-1.3019094,0.17648139999999998,1.6218647,-0.43423793,-2.2055552000000005
10.234082,-1.0137337,-0.70559996,0.73129296,-1.0251017,-2.0682151
10.1996155,-0.53926045,-1.4881592,-0.08210029,-1.6229118,-1.8558086
9.915241,-0.16757497,-1.7513202,-0.1731192,-1.8975917000000002,-1.9266165000000002
10.012694999999999,-0.24472572,-1.3006643999999998,0.5614724,-1.973723,-2.2071433
9.692839999999999,-0.8778101,-0.1635527,1.4669492,-2.1403322,-2.5116334
9.88769,-2.607343,1.2886454999999999,1.8725811999999997,-2.36445,-2.7400097999999997
12.701796,-4.0522823,2.0704768,1.5776729999999999,-2.2728898999999996,-2.9811444
15.042979,-4.628796599999999,1.1966698999999998,0.70891786,-1.8145490000000002,-2.946552
14.716238,-5.1083074,-1.0583616000000002,-0.43877578,-0.918113,-2.4264789
13.171883,-5.621059,-3.9156306000000005,-1.265992,0.005986479,-1.6684301
11.985987,-6.293638,-4.52236,-1.3208302,0.52234215,-1.0610553999999999
12.288499,-7.6242204,-2.3410602000000003,-0.76347685,0.7916988,-0.84918994
13.210332999999999,-8.410533000000001,0.89981765,-0.11243411,0.76188856,-0.7922224
13.198198999999999,-8.072549,2.4623888,0.25537658,0.50743705,-0.76134753
12.326011,-7.000903999999999,1.0611964,0.272411,0.18378317,-0.71185
11.106567,-5.935906,-2.1194623,0.08768534,-0.0073129297,-0.5654691999999999
10.722384,-5.3004656,-4.474715,-0.13161528,0.07251843,-0.21945770000000003
9.163672,-5.1544194,-3.9304461,-0.38765508,0.18537141,0.22661355
7.656244999999999,-5.4467034000000005,-2.6983612,-0.5851390999999999,0.32325244,0.5603903
6.7031517,-5.7839217000000005,-0.90001875,-0.64051837,0.4387583,0.8494343000000001
6.551934200000001,-5.918457,0.78289443,-0.55267596,0.48720866,1.254019
6.759817999999999,-5.368949400000001,1.2268943,-0.5276654000000001,0.57663935,1.6457931000000001
6.277118,-5.0289725999999995,1.0140498,-0.6575528,0.6490355999999999,1.9646648000000002
5.6918406,-4.930178,0.29212135,-0.88804096,0.74485415,2.1025283
4.9993324,-4.879134,-0.23005405,-1.1866843,0.89496994,2.1147804
4.546636599999999,-5.033761,-0.24452461,-1.4826398,0.9482025,2.207405
4.11299,-4.925849400000001,-0.21146546,-1.8084228999999998,0.6878866,2.6353948
4.26278,-5.400332499999999,-0.03625779,-1.6583245999999998,0.60857886,3.1650498
5.035006500000001,-6.052494,0.26393679999999997,-0.5148896,0.6559471,3.4892447
5.571977599999999,-6.493602,0.7617105,0.8691390999999999,0.39245474,3.5195787000000003
5.927086,-6.6298223,0.7508504,1.8294541000000002,-0.096202545,3.1607912000000002
6.9711018,-6.8991985,0.22091779,2.0072508,-0.38739327,2.573645
8.633463,-7.364727,-0.5845683,1.5356104,-0.2920983,2.073259
10.359874000000001,-8.048827000000001,-0.9193543,0.738187,-0.03499385,1.9763758999999999
10.7793,-8.519155,-0.61471605,-0.2705435,0.44088763,2.0647418
9.8628845,-9.370561,0.21244231,-1.1856022,0.8939053,2.0913581999999997
8.616713,-11.417736999999999,1.723126,-1.778089,1.3032548000000002,2.0248263
8.935381,-13.017619,3.6821002999999997,-1.809505,1.5603768,1.8635229
9.619491,-11.814811,4.4061546,-1.3517052,1.5076678,1.6473988000000002
10.478377,-9.667039,2.39266,-0.6330658,1.220212,1.3003227
11.696776,-7.840158,-0.39141366,0.07065093,0.8720711999999999,0.7946135
12.492609,-6.5406523000000005,-2.693228,0.56838393,0.49199086,0.286234
12.070186,-5.2105684000000005,-4.3503413,0.6705904,0.20134118,-0.062412973
11.259203,-4.368450599999999,-5.34224,0.4150742,0.08955284,-0.19123572
11.088275999999999,-3.7696898,-5.899284400000001,0.091420345,0.09061749,-0.112992615
11.521730999999999,-3.4456584,-5.275087,-0.11351621,0.11616912,0.031782445
11.744843,-3.269723,-3.9968803,-0.08264134,-0.03499385,0.040840704
11.351006,-2.9708595,-2.4607794,0.29263934,-0.4001691,-0.23914501
10.574767,-2.5245326,-1.6503710999999999,0.7382045,-1.009673,-0.91465724
10.262257,-1.8468106,-1.5936860000000002,0.9841213,-1.504212,-1.8898948
9.921457,-1.2673947,-1.8933156000000002,1.0352245999999998,-1.5968367,-2.728316
9.305736,-0.76252455,-2.722648,1.0751578000000002,-1.299258,-2.9965906
8.576097500000001,-0.69432807,-3.7753785000000004,1.1629827,-0.73872805,-2.6926415
7.782065400000001,-0.6494512,-3.9662633,1.2380493000000001,-0.32936108,-2.2348418
7.3049965,-0.7818505,-3.5614133000000003,1.2497605,-0.2665467,-2.0511808
7.862319,-1.4108934,-2.9153621,1.2274028000000001,-0.45179594,-2.1619043
9.182702,-2.2551465,-2.0897071,1.0820693000000001,-0.9154601000000001,-2.2556112
11.129581,-3.2173762000000004,-1.090511,0.86542153,-1.3147042,-2.1784152999999997
13.840449,-5.1351510000000005,-0.9161078000000001,0.79407245,-1.4509795,-2.0245645
15.654201,-7.331600999999999,-0.35541445,0.8659450999999999,-1.3035166,-1.9149054
15.693129999999998,-8.956421,0.20139067,0.9383414000000001,-0.92930055,-1.8654080000000002
14.075242999999999,-9.738186,0.8513780999999999,0.8798030000000001,-0.67165506,-1.7812830000000002
12.238958,-9.641200999999999,1.3060753,0.67483157,-0.48108256,-1.6530188000000001
11.174746,-9.106385000000001,1.490515,0.43369687,-0.3437426,-1.5050323
10.984052,-8.913173,1.8863341,0.20053834,-0.34533083,-1.3346882
10.491219500000001,-8.76229,1.9893805,-0.0054454273,-0.46244243,-1.1643265
9.609454,-8.596391,1.2798061,-0.23436281,-0.69134235,-1.0424328
8.84578,-7.9086037,0.9859226999999999,-0.4605924,-0.87339765,-0.9785538
8.540941,-6.9838960000000005,1.7659153000000003,-0.66448176,-0.7962191999999999,-0.8428194999999999
8.537206,-6.4058876,2.2811763,-0.86835366,-0.7227583000000001,-0.5154306
7.8879943,-5.7640405,2.4432447,-1.1052471000000001,-0.68336624,-0.07572984
6.8719625,-5.406529,1.6338894,-1.3272182,-0.85158104,0.30380946
6.0158629999999995,-5.31847,0.9078620999999999,-1.5390837,-1.0783516000000002,0.33094934
5.339836,-5.2682776,0.38549522,-1.8153518,-0.8776563000000001,0.036041047
4.6677837,-5.1872582000000005,0.2921405,-2.2130077,-0.19149752,-0.12681562
4.2157583,-5.3595448,0.40756974,-2.6266157999999997,0.74698347,0.24525367
4.4859295,-5.8744326,0.7690751,-3.008843,1.604551,1.2375083
5.328286,-6.7970524,0.9524517,-3.0652517999999995,2.0479867,2.119039
5.526105,-7.59232,1.1706785,-2.6085167,1.9521682,2.5507464
5.3457446,-8.189779,1.3628658,-1.6620595,1.3112483999999998,2.3905077
5.711397,-8.672019,1.249055,-0.531924,0.5127603000000001,1.8342363000000002
7.058623299999999,-9.1848955,0.47476062,0.43476152,-0.08609709,1.2630424
9.386823,-9.463427000000001,-0.73614997,0.9708045,-0.36983526,1.0692760000000001
11.074974000000001,-9.581796,-1.7251372,1.0059379000000002,-0.29902726,1.3290508
10.770153,-9.685303,-2.0389692999999998,0.6567324999999999,-0.06426302,1.8874688000000002
8.933389,-9.631175,-2.5662777,0.17872171,0.14704399,2.3250403
6.510591000000001,-9.2172165,-1.9623834,-0.10766936,0.27160814,2.4134064
5.9862127,-8.40611,-0.99945474,-0.14919074,0.29077184,2.21964
7.065529,-7.4942535999999995,-0.27186638,-0.08957029999999999,0.23221606,1.8959861
8.730972999999999,-6.2618623,0.08051222,0.015812684,0.25192082,1.5707265
10.275233,-5.5876265,-0.32369608,0.017400933,0.32271138,1.3343741000000002
10.302318,-5.177068,-1.1203523000000002,-0.30941197,0.45952773,1.2401612
9.136159,-4.8678235999999995,-2.1025112,-0.9082868000000001,0.6708522,1.2374908000000002
7.8447742,-4.465081,-2.8429232000000004,-1.5183142,0.7810523,1.2571956
7.182088,-3.96815,-3.2204599999999997,-1.7935352,0.7730587,1.2444197
7.9709587,-3.4034343000000002,-3.1618211,-1.6162796,0.4909262,1.1592476
9.281353,-2.4601857999999996,-2.936661,-1.2228823999999998,-0.12814207,0.9271538
10.028047,-1.6025254,-2.5604262,-0.89177597,-0.93142986,0.508746
10.448373,-1.4291851999999998,-2.4437523,-0.43717006,-1.4935656000000002,-0.11138691
10.376824000000001,-0.94985646,-2.7474708999999997,0.3447898,-1.4115874,-0.83269656
9.709178,-0.42494208,-3.5433517,1.295523,-0.8526457000000001,-1.5055558999999998
9.124187,-0.34416172,-4.124204,1.9114323,-0.38845792,-1.9404571
8.911382000000001,-0.7030430000000001,-4.066694999999999,2.1749245999999998,-0.07384488,-2.3434362
9.007791000000001,-1.3999951000000002,-3.3746370000000003,2.1238213,0.14172074,-2.8459513
9.642705,-2.027592,-2.267855,1.8879925,0.15929620000000003,-3.3143976000000004
10.717203,-2.6585502999999995,-1.4310526000000001,1.4743843,-0.07065093,-3.3931818
12.352424000000001,-3.709624,-1.0524528,0.87552696,-0.12016592,-3.0732455
15.208314000000001,-5.3949313,-0.61512786,0.30646235,0.0336674,-2.5989522999999997
17.622608,-6.300476000000001,1.0254654,-0.06455973,0.2748021,-2.223148
18.602259,-6.1791186,2.8522124,-0.05815437,0.45207518,-2.1416936
17.368660000000002,-5.665581700000001,3.327088,0.18350391,0.39990729999999997,-2.2151544
15.149061999999999,-5.4936776,2.0196815,0.5284508000000001,0.18963002,-2.3216195
13.771533999999999,-5.709606,0.38521746,0.82442373,-0.08768534,-2.4009272999999998
13.357385999999998,-5.8467364,-1.1371597,0.91066045,-0.37833503,-2.324796
12.784922,-5.804867,-2.0878685000000003,0.8217534,-0.6471680999999999,-2.0794026999999997
10.893253999999999,-5.725063,-2.6998742,0.5704958000000001,-0.83986986,-1.7946172999999999
9.128728,-5.490393,-2.2776139,0.17071065,-1.0139315,-1.4597759
8.241617999999999,-5.243005,-1.2162256999999999,-0.23062779999999997,-1.0261837,-1.1771023999999999
8.100485,-5.173592,-0.17842549,-0.6330658,-0.83880526,-0.93755597
8.401742,-5.0013819999999996,0.7359680000000001,-1.0589261,-0.45766023,-0.6862984000000001
8.1155205,-5.126282700000001,1.1077302,-1.6450251,0.16194909999999998,-0.24980898
7.727133,-5.222281,0.96182746,-2.3583238,0.9934414,0.42996186
7.358071300000001,-5.4361596,0.53193414,-2.8438220000000003,1.3884268999999998,1.3567316999999999
6.578251,-5.740213400000001,-0.10241438,-2.6649432,1.3485112,2.2989652
6.1070724,-5.996565299999999,-0.8620179,-1.749902,0.75869465,2.9744772999999998
6.010624,-6.4352694,-1.6215545,-0.54789376,0.018762288999999998,3.0660374
6.1511254,-6.9995637,-2.1758027,0.48638836,-0.5763600999999999,2.6657286
6.624803999999999,-7.64415,-2.1338274,1.2577366,-0.872333,2.188765
7.305609,-8.321566,-1.6787855999999999,1.6841205000000001,-1.0634465,2.005104
7.6149216,-9.235517999999999,-1.3964038,1.84223,-0.8393288000000001,2.075371
7.623703,-10.867837,-1.9978656000000004,1.8315834,-0.32670817,2.2372153
6.0198279999999995,-11.936034,-2.0806665,1.6404699,0.23382176,2.316523
4.8140597000000005,-12.605635000000001,-1.9424733,1.179476,0.49731413,2.3676264
5.213767,-12.019572,-1.4263217,0.5039638,0.63519514,2.3404691000000004
6.8070507,-10.559703,-0.39557,-0.15770794,0.5904798000000001,2.1653428
9.318864999999999,-9.247652,0.1873415,-0.5372647,0.46378633,1.8587233
11.256742,-7.9384445999999995,0.3165805,-0.5942148,0.46005133,1.6016013999999998
11.812953,-6.735627,-0.14792335,-0.61974895,0.4132067,1.5691382999999999
11.653153999999999,-5.953633,-1.3218292,-0.79702204,0.31473523,1.6920967
11.197921000000001,-5.015823999999999,-1.9596348999999997,-0.938097,0.14864969,1.8054907
11.229352,-4.031089,-2.6089902,-0.7177143,0.041643556,1.7405294999999998
10.576328,-2.5873277000000003,-3.157569,-0.16622515,-0.028605945,1.4488328000000001
9.499033,-1.8151496999999999,-3.6694303,0.5971295,0.008115780999999999,0.86966264
9.077519,-1.561077,-3.7516086000000004,1.140084,-0.16701056,0.15315264
9.261117,-1.5493836,-3.5170155,1.0644938,-0.77599084,-0.514366
10.355862,-1.6870023999999997,-2.6351254,0.7472278,-1.2375083,-0.8422784
10.232895,-1.5813894,-2.0630643,0.6514091999999999,-1.5558388,-1.0663961000000002
9.450594,-1.5301056,-2.18627,1.0022204,-1.6692328,-1.463511
9.059813,-1.5478323,-2.2685251,1.5036709,-1.588843,-2.176286
9.832823,-1.4565845,-1.5402666,1.6000131000000002,-1.5361515,-2.8842787999999997
10.858825,-0.96661586,-0.24487895,1.189058,-1.5233756999999999,-3.3841410000000005
12.064651,-0.35636255,0.83530825,0.5161986,-1.3902943,-3.5779076
12.838906,0.23338678,1.0022415999999998,-0.19123572,-1.07994,-3.6210172
13.281479999999998,0.18573259,-0.53864753,-0.6964038,-0.7105060999999999,-3.6252758999999997
13.415794,-0.8940524,-1.8466095,-1.032851,-0.21279055,-3.6034591000000002
13.857207999999998,-1.9812785,-1.6425755000000002,-1.0834131,0.40097195,-3.514011
15.893823000000001,-3.0254187999999997,-0.24589409,-0.8731533000000001,0.75656533,-3.3495312000000004
17.581764,-3.6603034,0.7897227,-0.56918675,0.7948927,-3.2409368
18.283007,-3.9117617999999994,0.6617286,-0.21626374,0.6059085,-3.231896
17.570194,-4.4484553,-0.24092372,0.06372197,0.39297834,-3.2329607000000005
16.285408,-5.070182,-1.2840774,0.20690878,0.33122858,-3.0897563
15.385179,-5.71269,-1.6707026999999999,0.19734438,0.3376165,-2.6899712000000005
15.036918,-6.3451324,-1.663386,0.042952552000000005,0.22369885,-2.025123
14.266024,-6.7425795,-1.3716669,-0.34082788,-0.12920672,-1.2282231000000001
13.326625,-7.1798754,-0.69987303,-0.97110116,-0.6104289,-0.46432740000000006
11.70214,-7.178793400000001,0.21480776,-1.5875341,-1.0086083000000001,0.11428416
10.0562315,-6.950875,0.6358520999999999,-1.8654080000000002,-1.2274028000000001,0.52578044
8.925536,-6.846919000000001,0.7108481,-1.6200145000000001,-0.93516487,0.9010611
8.446216999999999,-6.920037700000001,0.52066225,-1.0195515,-0.21385519,1.2779475
7.743375,-7.3073335,0.013436261000000001,-0.58995616,0.37807322,1.7506526000000002
6.4593935,-7.791307000000001,-0.69819707,-0.7480656,0.5973913000000001,2.4522574
4.834324400000001,-7.9268856,-1.7271675,-1.1425098999999999,0.47495645,3.193778
2.9822848,-7.6083136,-2.6059449,-1.2463222,-0.030194197000000002,3.7538017999999997
2.1342585,-7.4891205,-3.3870676,-0.8864702,-0.60032344,3.956068
2.5564709999999997,-7.751697,-3.455647,-0.20455259,-1.0325716999999999,3.783612
4.332049400000001,-8.4335375,-2.5508687,0.54494417,-1.3626133999999999,3.3790447999999995
6.5233474000000005,-9.369622,-1.0283384,1.1374136000000001,-1.546798,2.9840417
8.091493,-9.961699000000001,0.6193320999999999,1.4844898000000002,-1.3056633,2.742366
8.928064,-9.880239,0.7840053000000001,1.5569035,-0.7126354,2.6694462000000003
8.481736999999999,-9.502759,-0.78846806,1.2816825,-0.065327674,2.7503595
7.370837,-9.549887,-2.1092918,0.79407245,0.3647738,2.858954
7.403542,-9.277014999999999,-2.4064026000000003,0.33840188,0.66552895,2.7381248
8.639142,-8.861803,-1.825981,-0.042202063,0.74111915,2.4245765
10.808728,-8.233630999999999,-1.0609666000000002,-0.40257764,0.65435886,2.1121101
12.7771845,-7.315253299999999,-0.5799523,-0.8135329000000001,0.54257053,1.9151498
14.00516,-6.3904404999999995,-0.86326295,-1.1254754999999999,0.44195226,1.9215376
14.386901000000002,-5.772717500000001,-1.2579998,-1.2777207,0.38020253,2.024809
14.08869,-5.0583158,-1.53091,-1.2292703,0.41055379999999997,2.0679185
13.037175,-4.16005,-2.0898604,-0.9519375,0.40842449999999997,1.9635826
11.680219000000001,-3.4141793,-2.7369938,-0.45900413,0.18804178,1.7016785
11.120578,-2.8000380000000002,-3.196853,0.34159583,0.012897983,1.1107973
11.711486,-1.9285104,-3.6017222,1.2763593,-0.20481439,0.2803697
11.411349000000001,-1.1533061000000002,-3.5831910000000002,2.0567484,-0.35171875,-0.715585
10.541536,-1.3832452,-3.315615,2.3095942000000003,-0.37994072,-1.544948
9.551515,-1.8443302,-2.9985845,1.9641237,-0.33416075,-2.124659
8.857484,-2.0776308,-2.4259965,1.0596940000000001,-0.32511994,-2.2598697999999997
8.988934500000001,-1.9697002000000001,-1.6618153999999998,-0.12363912,-0.6625968000000001,-2.0176529999999997
9.491209,-1.5859001,-0.6886777,-1.0786308999999998,-0.7786611999999999,-1.9324983
9.973172,-0.9605633,0.47284526,-1.3485112,-0.67643726,-2.2114192999999998
10.741595,-0.3318076,1.397055,-0.9471553,-0.44329616,-2.8954663
12.213177,0.32865685,1.9219979999999999,-0.16409585,-0.45659557,-3.8344883999999997
13.434076000000001,0.66727364,1.5174929,0.5540024,-0.783967,-4.563233
14.402951999999999,0.6506195,-0.13372095,1.0352245999999998,-1.0953861,-5.0024104000000005
14.630889999999999,0.03578853,-2.0993414,1.4445741,-0.87713265,-5.2068233
14.154798000000001,-0.7300015999999999,-3.8595202000000004,1.7708808,-0.24846508,-5.094511499999999
13.2319,-1.8183866000000002,-5.119119,1.7538639,0.4259825,-4.7149544
13.277476,-3.5463392999999996,-5.4359107,1.3487555,0.8470605999999999,-4.2331915
17.219952,-5.54726,-4.9279566,0.86592764,0.98759454,-3.7780619
20.674324,-6.8884916,-2.7464747000000003,0.6061703,0.9721484,-3.3979814
22.59069,-7.773532400000001,-1.3273358,0.6482153,0.77359974,-3.0519700000000003
22.594973,-8.751133,-0.76398975,0.85688686,0.50211376,-2.7000942
20.407286,-10.169888499999999,-0.5768398,0.99794436,-0.005183628,-2.3498240000000004
18.300417000000003,-11.117179,-0.23058078,0.9197011999999999,-0.59180623,-1.9846488000000002
16.229212,-10.761008,0.37238455,0.621058,-1.0597290000000001,-1.6642063999999999
13.700301999999999,-9.598211000000001,-0.014633361000000001,0.22235495,-1.3924236,-1.3809917999999999
11.056078999999999,-8.504904,-1.0012839,-0.25884977,-1.3998761999999998,-1.1600854
8.706265,-7.855356,-1.8204647,-0.71825534,-1.0405653,-0.9439613000000001
6.7204666,-7.197516,-1.6607523000000002,-0.91521573,-0.49439943,-0.48722609999999994
5.4013862999999995,-6.6528925999999995,-1.0893138999999998,-1.1776434,0.27534315,0.33147293
4.368355,-6.2374315000000005,-0.49365568,-1.5641117,0.97056013,1.3370444
3.3924019999999997,-5.837198,-0.34810737,-1.6902814999999998,1.3761921,2.2744607999999995
2.7843513,-5.6340737,-0.5175211,-1.5332369,1.2691860000000001,2.868536
2.8747659,-5.519554,-0.6872891,-1.3389293,0.7656061,3.1506684
3.7072012,-5.364429,-0.7449031999999999,-1.0898185,0.25670302,3.2044243999999997
4.6790648,-5.1483669999999995,-0.060525417000000005,-0.71877897,0.0022514747,3.2486162
5.753419999999999,-5.642664,0.4069664,-0.6144432,0.03312635,3.35934
6.826108500000001,-6.2898836,0.46395797,-1.0030407,0.18111281,3.5249019
6.4387074,-6.086597,0.47838065,-1.7051691999999998,0.4089481,3.7740302000000003
5.4793987,-6.4810085,0.22026655,-2.2987208,0.61709607,4.142399299999999
4.527397000000001,-6.9254679999999995,0.47870627,-2.4227613999999997,0.71291465,4.392592400000001
4.6400394,-6.930007499999999,1.1560355,-1.9521856,0.68308693,4.412803
5.9716654,-7.435241,1.127985,-0.9971939000000001,0.55267596,4.07585
7.9008270000000005,-8.331046,0.8142872,-0.10554006,0.1795071,3.41629
9.735149,-8.619816,0.7666425,0.14091788,-0.19362682,2.8291437999999998
11.125204,-8.096673,0.3356958,-0.31475267,-0.4001691,2.5246537
12.01465,-7.6537647,-0.8282405,-0.99984676,-0.20374973,2.407542
12.398814,-7.3321369999999995,-2.0105646,-1.3346882,0.26309094,2.318635
12.771044999999999,-7.3814197,-2.0907414,-1.3251064,0.6303955,2.1600194
13.156531,-7.6733875,-1.3781503000000002,-1.3117895,0.7224965,1.9588004
13.867264000000002,-7.764137700000001,0.13080004,-1.3266946000000002,0.4760210999999999,1.7873917000000001
15.057528,-6.6911526,1.2740216999999998,-1.0355212999999999,-0.0099832835,1.6926203000000002
16.079727,-4.3557234000000005,0.74271965,-0.16622515,-0.48692942,1.4333866000000002
16.006378,-1.9953851999999999,-0.7039623,1.207157,-0.75736815,0.8488931999999999
14.443060999999998,-1.2213589,-2.174079,2.527324,-0.7009241999999999,-0.07360053
13.42065,-1.2996014,-2.7257411,3.0809424,-0.6625968000000001,-0.9189333000000001
13.875309,-1.499182,-2.4799716,2.6071727000000005,-0.7227583000000001,-1.2974253999999998
13.771965,-0.88134396,-1.3854287,1.3327683000000001,-0.8462578000000002,-1.2862552
12.860215,-0.27566838,-0.68919486,-0.045396015,-0.6972067,-1.3565222
11.62451,-0.28215188,-0.44005427,-0.8705004000000001,-0.24366541,-1.6987988
10.5154295,-0.67514575,0.36169684,-0.987612,0.09913469999999999,-2.1363702
10.321806,-1.1717701,1.9433352,-0.64531803,0.005986479,-2.5696830000000004
12.078441999999999,-1.1226698999999998,3.3699633999999996,-0.21626374,-0.68336624,-2.9769034
14.20863,-0.6897694999999999,4.1562767,0.01155408,-1.7432173,-3.4123455999999996
15.480649,-0.18505265,2.4792628,0.0365821,-2.3719025,-3.7998784
14.6467495,-0.34541625,-0.72057813,0.4571192,-1.7277886999999998,-3.6833080000000002
13.26879,-1.299726,-3.4693515,1.1246552,-0.6082996,-2.9822266
13.349666000000001,-2.6148607999999998,-4.730090000000001,1.4557443,0.14226179,-1.9697436999999998
14.715923000000002,-3.7231753,-3.1689173999999998,1.2348378999999998,0.32058206,-1.439024
15.54785,-4.846008,-0.5189288,0.82227695,0.15981979999999998,-1.4475411
14.777339000000001,-5.659012000000001,1.8177737,0.61679935,-0.075450584,-1.8313390999999999
13.024839,-6.207034999999999,2.5597367,0.7743677,-0.26708773,-2.2481587000000003
11.616589999999999,-6.949036,1.6952096999999997,1.0362718,-0.32510248,-2.4147851
11.595158,-8.03337,-0.22245008,1.0522416,-0.39645153,-2.3269427000000005
12.913395,-9.69915,-1.5614121,0.73178166,-0.33203143,-2.070903
11.682086,-9.4331455,-0.14498328,0.28197540000000004,-0.25909412,-1.6572773
8.784794999999999,-7.8238970000000005,0.45398852,-0.1550376,-0.37781143,-1.2590979
6.782667999999999,-6.4368495999999995,0.06592674,-0.5707925,-0.43530256,-0.8731533000000001
6.754167599999999,-5.4412065,-0.18912278,-0.9210626000000001,-0.37994072,-0.5356765
7.9526186,-5.1998425,0.0053055509999999995,-1.2761323,-0.27773425,-0.1470789
9.033208,-5.4292164000000005,0.08437166,-1.5380191,-0.08822639,0.22341959
8.760987,-5.3795605,0.24321258,-1.6673828000000002,0.2290221,0.6199933000000001
7.662393600000001,-5.2179036,-0.10870634,-1.6748353999999999,0.56758106,1.0985626
6.663552,-5.6167684,-1.1928391,-1.686023,0.49305552,1.6729330000000002
5.597586,-5.7526827,-1.6990404,-1.6945226999999998,0.37222636,2.0524898
5.2154045,-5.7694707,-1.9367464,-1.3980261999999999,0.39884263,2.3580446
5.757920700000001,-6.1742153,-2.5291772,-0.76242965,0.39669588,2.4927142000000004
6.0537295,-6.278966400000001,-2.3392787,-0.10554006,0.24179791,2.5108132000000003
6.980400599999999,-6.662402,-2.300052,0.18828613,-0.08981464,2.48952
7.3600826,-7.079396000000001,-2.1136682,0.19306833,-0.4411494000000001,2.4272468
7.8428493,-7.590625,-1.5155393,0.22661355,-0.59180623,2.3873136
8.166066,-8.002514,-1.1542733,0.45284313,-0.2867925,2.2914950000000003
7.5817857,-8.087928999999999,-0.78825736,0.7094414000000001,0.15929620000000003,2.2244222000000002
7.7526546000000005,-8.786749,-1.1690505,0.70305353,0.44781658,2.1184979999999998
8.571385000000001,-9.040792999999999,-1.0126995,0.41825070000000003,0.48614399999999997,2.0029746999999998
9.414212,-8.434332000000001,-0.49800354,-0.020909045,0.330705,1.8475357
10.145966,-6.4815062999999995,-0.9891884,-0.34934509999999996,0.19655898,1.6777326000000001
9.639793,-5.189001599999999,-1.5204043,-0.40683624,0.07358308,1.581373
9.625591,-5.053748000000001,-2.4506759999999996,-0.27269024,-0.015289084,1.5462395
10.281526,-4.987285,-2.769603,-0.13747959,-0.13240068,1.4940716
11.044865,-4.4156933,-2.4988856,-0.08798204,-0.26230553,1.362055
11.741319,-3.5093919999999996,-2.272739,-0.1566433,-0.3373547,1.1853228999999998
11.238124000000001,-2.5417707000000003,-2.4169083,-0.17100736,-0.38259363,0.94897044
10.29681,-1.813694,-2.9880211,-0.004939282,-0.46245990000000003,0.6854606
9.46157,-1.441319,-3.4538946000000004,0.27825785,-0.46085417,0.3815115
9.045264999999999,-1.4234487,-3.1784081000000004,0.4752008,-0.39856339,-0.020367993
8.821839,-1.5921441,-2.3258807999999997,0.38205257,-0.36342990000000003,-0.44729298
8.577208,-1.7417912,-1.6160957,0.07278023,-0.293704,-0.7949102
8.808010000000001,-1.7485238,-1.5233729999999999,-0.22903955,-0.406557,-0.8087506999999999
9.220732,-1.4671285,-1.7582155,-0.39673078,-0.78450805,-0.6016848000000001
9.395278,-0.9609655,-2.1707172000000003,-0.30143583,-0.812189,-0.543129
9.450546000000001,-0.94212794,-2.5096787999999997,0.059986967999999995,-0.31499702,-0.92108005
10.04697,-0.840834,-1.7712400000000001,0.51726323,0.00012217305000000001,-1.3937676
10.4998,-0.6474209,-1.215517,0.98090994,-0.002513274,-1.9064057
11.425695,-0.5597739,-1.0479133,1.2588012,-0.31180307,-2.3189492
12.722567999999999,-0.9099594999999999,-1.7000077,1.3136219999999998,-0.67430794,-2.6266332
13.8203,-2.122259,-2.5793405,1.1922518,-0.88245595,-2.8044474
13.782596,-3.3092272000000005,-2.911857,1.0426772,-0.87074476,-2.8480806
13.781791,-4.6512923,-3.1815972,0.93673563,-0.7009241999999999,-2.7815487
13.948026,-5.5884686,-3.0496862,0.8286823,-0.49598765,-2.5984287
15.220649,-6.37551,-2.461632,0.6993185000000001,-0.38632864,-2.386022
15.589806,-6.5456133,-0.59045804,0.58168334,-0.30593875,-2.2098312
14.616238000000001,-6.657642999999999,0.43459549999999997,0.5204572000000001,-0.22769566,-2.109754
13.368763000000001,-6.9562473,0.009730035,0.4938409000000001,-0.102607906,-2.0634503
12.322745,-7.3009458,-0.87087655,0.4619014,-0.052028265,-1.9835842000000001
11.595071,-7.390967999999999,-1.5238041000000002,0.3469191,-0.106325455,-1.7482963
10.790801,-7.2267345999999995,-1.5939637,0.13718288,-0.0365821,-1.4320950000000001
9.468838,-6.6942070000000005,-0.9225146999999999,-0.12789772,0.011309733999999998,-1.0711783000000001
8.443324,-6.12183,-0.42204988,-0.45101053,-0.052028265,-0.7214493000000001
7.475397,-5.6989374,-0.27404029999999996,-0.81245077,-0.24099506,-0.42812926
6.918036,-5.5284224,-0.47121720000000006,-1.114288,-0.45446628,-0.15931365
6.681421799999999,-5.3040185,-0.54490113,-1.2904965,-0.31393236,0.08660324
6.5545964,-5.257303,-0.53552544,-1.2473868000000001,0.17844246,0.5161811
6.4419154999999995,-5.364726,-0.65446943,-1.2809145,0.83054984,1.2268443000000002
5.919941400000001,-5.40039,-0.80820584,-1.6295965000000001,1.3240242,2.0285263
5.555276,-5.759741,-1.2518611000000002,-2.082073,1.5752819,2.6966035
5.5991855,-6.2988477,-1.6437343,-2.1267883999999997,1.4390066000000001,3.1251168
5.346329,-6.414497,-1.7208182,-1.6327903999999998,1.0605145,3.1975130000000003
5.382098,-6.5995116,-1.7875876,-0.803951,0.415336,2.8861112999999996
6.1093035,-6.9042645,-1.7972027,0.0397586,-0.17659241,2.2089933999999998
7.410284,-7.759301,-1.799166,0.5231100999999999,-0.43584362,1.4301926
8.696085,-8.753211,-1.7291881999999998,0.5066167,-0.26867598,0.9739984
8.423874,-8.551658,-1.2318072,0.07169812,0.24925047,1.1746763999999998
7.7133136,-8.451503,-1.5401133,-0.69483304,0.92849773,1.7357473
7.1816955,-8.715527,-2.2770007000000003,-1.5172671,1.3953558000000001,2.2478445
7.037737,-8.344205,-1.9631975,-2.0096767,1.5380191,2.4916494
7.731853999999999,-7.580808599999999,-0.95456827,-2.0309699,1.3378646,2.430441
8.999708,-6.6034765,0.10119812,-1.639702,0.82681483,2.0631187
10.569251,-5.616787400000001,0.5921818,-1.047215,0.28811896,1.6724093999999998
11.681148,-4.6505456,0.5770313,-0.43399358,-0.21172589,1.3189278999999998
11.936158,-4.2866073,-0.31700188,-0.038467057,-0.55454344,1.0836575000000002
10.744391,-3.9140027,-1.0945236999999999,0.13611823,-0.5598666999999999,0.98303926
8.728666,-3.6784230000000004,-1.9782331000000002,0.17392206,-0.31180307,0.93673563
7.852014,-3.6126012999999997,-2.808753,0.22607249,-0.101543255,0.81215405
7.6936425999999996,-3.346864,-2.5803556,0.37994072,0.027803095,0.5422912
8.051317,-2.8612723,-1.6191219,0.5891359,0.18430677,0.09299114
8.914983,-2.3533757,-0.7497395,0.6801548000000001,0.10925761,-0.26364943
9.570112,-1.7632912,-0.12945928,0.6588618,-0.07916813,-0.5021312
9.694582,-1.2844701,0.41737640000000004,0.5736897,-0.47682396,-0.5793096999999999
10.004928999999999,-1.0861056999999998,0.3935014,0.53056264,-0.96178114,-0.69696236
10.283211,-1.0802254999999998,0.036478058,0.663644,-1.2731827,-0.9977349
10.646172,-0.99176455,-0.29182446,1.002744,-1.4174342,-1.566241
11.316989,-0.8874731,-0.46417826,1.4765136,-1.6266469,-2.2311242
12.343824,-0.78377545,-0.5597548000000001,1.9540008000000002,-1.8496825000000001,-2.8225290000000003
13.457588000000001,-0.7973840999999999,-0.7615284999999999,2.2366743,-2.0312142,-3.1243662999999997
14.136009,-0.8989461,-1.099676,2.3181287999999998,-2.111063,-3.2798052
13.815454,-1.4382353,-1.6430066000000003,2.1978232999999996,-1.8401006000000002,-3.4283154000000002
13.106693,-2.1649806000000003,-1.7432374,1.8619173,-1.3354561000000003,-3.5012527
13.067313,-2.9719226,-1.6792835,1.3743072,-0.7504392,-3.4091516000000004
14.628812,-4.037965,-1.3988075,0.86114544,-0.28996900000000003,-3.2154026
16.459764,-4.848249,-0.40021476,0.48851764,-0.04244641,-3.0743277
17.208315,-5.341416000000001,0.8429218,0.303792,0.04483751,-3.014707
16.834963000000002,-5.999314,1.7452101999999998,0.25216517,0.13800319,-2.9263413
15.919699,-6.986577499999999,1.9613874,0.21809635,0.18750072,-2.716064
14.534001000000002,-7.7813473,1.523555,0.13718288,0.19868828,-2.4185027999999997
13.652591000000001,-8.048445,0.99977076,0.053616515999999996,0.14226179,-2.0804675
12.894749000000001,-7.4052277,0.7274351,0.006230825600000001,-0.06426302,-1.6854818999999999
11.817644999999999,-6.6906734,0.28849173,-0.011309733999999998,-0.39058724,-1.2665505
10.201464,-5.923178,-0.098171845,-0.024085544,-0.58168334,-0.8843409
9.0587015,-5.593717,-0.551873,-0.060824725999999996,-0.58009505,-0.451028
8.408849,-5.534619,-0.6840809,-0.25726154,-0.56145495,0.090338245
7.927652,-5.572045,-0.57748145,-0.712391,-0.5273861,0.6652496999999999
6.9405035999999996,-5.596158999999999,-0.22116677,-1.23407,-0.2851868,1.1560538
5.928484,-5.79484,-0.20313366,-1.6354433000000002,0.12096877,1.6899674
5.06977,-5.9403973,-0.33402944,-2.0586333,0.7033328000000001,2.3112
4.3860817,-6.07861,-0.29835585,-2.5143212999999998,1.4091963,2.9622252000000002
4.046593700000001,-6.4343114,-0.4634121,-2.9582632,1.7078221000000002,3.5749404
4.253759,-6.7512755,-0.6924893,-3.1195667,1.2404403999999998,3.8128812000000005
4.530385,-6.8389606,-0.70167345,-2.8097706000000002,0.45366344,3.6074035
4.522092,-6.7771807,-0.70977545,-2.0086122,-0.29850367,3.1330929
4.647567,-6.981942,-1.3823450000000002,-1.1760378,-0.812189,2.7269373
5.432118,-7.2880936,-1.9443216,-0.56121063,-0.96391046,2.446393
6.605057,-7.575972599999999,-1.8724095,-0.10979866,-0.6013881,2.2702022
7.3050065,-7.547338000000001,-1.7134345000000002,0.26759390000000005,0.0070336769999999995,2.075371
8.329428,-8.430223,-1.9324368000000003,0.41610396,0.49038514,1.8613761999999998
8.612959,-9.121065,-1.6852115,0.18826866,0.6894749,1.6729330000000002
9.127903,-8.931263000000001,-1.9462177999999999,-0.21148154,0.6208136,1.5803083
10.674836,-7.814157000000001,-2.0826871,-0.67460465,0.44779912,1.5728558000000001
12.276508,-5.9857726,-1.2508268,-1.0557497,0.17205456,1.5547568
12.983995,-4.2477064,-0.15706922,-1.1691263,-0.19256218,1.4429683999999998
13.637047,-3.9619153,-0.1198729,-0.9397027,-0.36236525,1.2417493999999998
14.100354000000001,-3.9544072,-0.051628567,-0.4249353,-0.18617427,0.89840823
13.972264000000001,-3.3316657999999997,0.02207454,0.26865852,0.13852678,0.526304
13.354176500000001,-2.0542824,-0.42425254,0.7796909000000001,0.27160814,0.20423843
11.922818,-1.0168270000000001,-1.3303525,0.91010195,0.20612338,-0.033684853
10.639507,-0.61442876,-2.3724717999999996,0.7695854999999999,0.15236725,-0.31262338
9.550835000000001,-0.37367743,-2.4960032,0.51248103,0.24872687,-0.5377883000000001
8.956669999999999,-0.5745414000000001,-2.1191463,0.19680333,0.32803464,-0.70547956
9.154815,-0.9760203000000002,-1.2778141,-0.10182251,0.37753215,-0.7629706999999999
9.8882065,-1.2455786,-0.41721359999999996,-0.2599319,0.26680848,-0.7097555999999999
11.152804,-1.4954664,0.28100264,-0.21521655,-0.14199999,-0.6000966
12.268435499999999,-1.084401,1.3647428,0.03176499,-0.7855727,-0.6953741
11.699439,0.04948336,1.4770979,0.40332812,-1.2886289,-1.1270813
10.854066,0.64372426,0.16758455,0.7711737,-1.5936427,-1.6285318000000002
10.643386,0.90014327,-1.1128919,1.1688120000000002,-1.5063413,-2.0538685
11.116106,0.8059841,-1.9399451,1.5393106,-1.3828418,-2.3610115
11.303180000000001,0.3268277,-2.0737329,1.7022196,-1.1933340000000001,-2.579806
11.682603,-0.9131485,-1.9726785,1.6500343000000002,-0.8505164000000001,-2.7309866
11.686884,-2.4019206000000004,-1.6927485,1.4312747,-0.45073128,-2.8065592999999995
11.754697,-3.741649,-1.524302,1.0714053,-0.087702796,-2.8390397999999997
12.607224,-4.7211266,-1.2709476,0.7136826000000001,0.19069467,-2.8124235
14.634778,-5.5675917,-1.0031992,0.4858473,0.4738918,-2.688924
16.395119,-6.059284,-0.29619145,0.42676792,0.63838905,-2.5036747000000004
16.714218,-6.539168,0.45380658,0.47413614,0.6713758000000001,-2.3040613999999997
16.16791,-6.3645926,0.759163,0.5060757,0.6255958,-2.1518164
15.007307,-6.2520940000000005,0.32907826,0.44380233,0.5074196,-1.9612439
14.036639000000001,-6.234999,-0.41102698,0.23191935,0.3136531,-1.6099092
12.866479,-5.7926564,-0.85377234,-0.11672762,0.058677968,-1.0930125
11.376662,-5.230698599999999,-1.3151158,-0.47073275,-0.19416788,-0.57559216
9.904525999999999,-4.757499,-1.5077055,-0.75447094,-0.30115655,-0.12259193
8.495672,-4.5944443,-1.50873,-1.0493617,-0.43210859999999995,0.21755528
7.149431,-4.4770327000000005,-1.1487763,-1.4432826,-0.5385736999999999,0.49755847
6.1944513,-4.48003,-0.77146924,-1.8175161,-0.30009192,0.7184648
5.415665,-4.6056395,-0.7022577,-2.1470168,0.29874802,1.0878986000000002
4.9515824,-4.796362,-1.0228126,-2.409462,0.94020885,1.7288183999999998
4.3047843,-4.979547,-1.4351803,-2.4461837,1.1754966999999998,2.446393
3.8115212999999994,-5.4028993,-2.0823712,-2.024041,0.9742777,2.8222148
3.9957117999999996,-5.840559,-2.507342,-1.2436519,0.5686456999999999,2.8802470000000002
4.480164,-6.2657695,-2.5208454,-0.5117130999999999,0.25883234,2.78017
5.4166419999999995,-6.4993095,-2.11748,-0.15240215,0.10817551,2.647612
6.5727925,-7.0138617,-1.9657353,-0.1481261,0.14756759,2.5336945
7.8569655,-7.9738216,-1.809825,-0.31635840000000004,0.48027970000000003,2.3686736
8.912186,-8.668963,-1.4163523,-0.56813955,0.90134037,2.2079112999999997
8.830841,-9.007139,-0.8909686,-0.7815933,1.1190702,2.032244
8.214975,-9.355065,-0.61939913,-0.82472044,0.89814645,1.8320895000000001
8.305676,-8.990772999999999,-0.42094854,-0.7262314999999999,0.41746530000000004,1.6819738000000002
9.189875,-7.5871105,0.07336792,-0.48883182,-0.19895008,1.6521636000000002
10.486422,-5.9876304000000005,-0.152367,-0.22053981,-0.7227583000000001,1.6803856
11.372717,-4.407543700000001,-0.92848104,0.0024958209,-1.0975153,1.7234951
11.7951975,-3.6671317,-1.5010017,0.13292427,-1.2045215,1.6873145
12.003233999999999,-3.4171674,-1.7440227,0.11639601,-1.1528771999999998,1.6207477
11.83951,-3.3277009,-1.746187,0.08553859,-0.7983485,1.4749079
11.184906,-3.362599,-1.920734,0.052010812000000003,-0.46191883,1.2529196000000002
10.122063,-2.4470084,-1.7932571,0.0136833815,-0.32724923,0.9468411
8.987948,-1.6659238,-1.6306238000000002,0.06105162,-0.32937855,0.6396805999999999
7.935428,-1.3950821000000002,-1.2792219,0.16805775,-0.43530256,0.38789943
7.607557000000001,-1.5304312,-0.8601984,0.33199653,-0.5662545999999999,0.18613936
7.8238970000000005,-1.7506307,-0.49063897,0.6322281,-0.6684611,0.0046251225
8.894603,-1.7463787,-0.38717115,1.0644763000000002,-0.63812727,-0.29719466
10.046674000000001,-1.4065648000000002,-0.46551899999999996,1.3929298,-0.5817008,-0.78745764
10.933725,-1.4281030000000001,-0.28195077,1.4631968000000002,-0.60405844,-1.5965923
11.683063,-0.97976476,0.1140885,1.2534604999999999,-0.84732246,-2.3972273
12.117389999999999,-0.65807027,0.042645518,0.9425825000000001,-1.1315841999999998,-2.702241
12.436900999999999,-0.28478548,-0.14095144,0.7221998000000001,-1.2146270000000001,-2.6926591
12.3953085,0.019469649,-0.16362932,0.6380924,-1.1555476,-2.6798832000000004
12.72747,-0.1523191,0.0019919758,0.6934541999999999,-1.0586643,-2.8039064
13.814448,-0.82012904,0.21890664,0.81908303,-0.9484643,-3.1142607000000004
15.202279999999998,-1.6014911,0.26420495,0.98942715,-0.812189,-3.4799771
16.884563,-1.9101324,-0.30413064,1.0884397,-0.57051325,-3.7269585
18.378467999999998,-3.03127,-0.7765545,1.0123084,-0.28412214,-3.7243056000000005
18.518824,-4.2784,-1.7837186,0.7914021,-0.21172589,-3.4304620999999997
17.103535,-6.108135,-2.9480765,0.5939005999999999,-0.04351106,-3.1323597000000003
15.156609,-7.003145699999999,-2.7765749,0.41132173,0.3983016,-2.8363869999999998
14.453968,-7.752224000000001,-1.9758293999999998,0.029129544,0.97907734,-2.4887697999999996
14.100995999999999,-8.448305,-0.80081254,-0.6059434,1.643402,-2.089543
13.963032,-9.118422500000001,0.06948931,-1.2122533000000002,1.8744313000000001,-1.5731700000000002
13.426510999999998,-9.679183,0.80920184,-1.6019156,1.3799096000000002,-1.1899132
12.171327,-9.633913,1.385218,-1.6668593,0.5516113,-0.9764419
10.386641000000001,-9.008165,1.1935383,-1.3969790000000002,-0.19469148,-0.9136274999999999
7.8606334,-8.046251,0.5473241,-1.0456442,-0.7978249,-0.8140739
5.9049344,-7.049861,-0.08056968,-0.76881754,-1.0884746,-0.48935542
5.658513500000001,-5.986807,-0.4428986,-0.6022084,-1.0996447,-0.0076096356
5.6022882,-4.9590526,-0.5936279000000001,-0.5021312,-0.720629,0.45601964
5.4150615,-5.070009,-1.3151445,-0.4744503,0.041102502,0.999009
4.2936273,-5.1665434999999995,-2.058726,-0.5873033000000001,0.63146013,1.6436464
3.0118196,-4.881873000000001,-2.1795664,-0.82684976,0.82681483,2.163196
3.0020130000000003,-5.28295,-2.1963067,-1.0903596000000002,0.55532885,2.3409927
3.513328,-5.4676,-0.49132848,-1.3091365,0.19708258,2.2254867999999997
4.3959364999999995,-5.953278500000001,0.9560622,-1.509832,-0.19575612,2.0061511999999997
4.9907613,-6.634763700000001,1.5495082,-1.7030574,-0.49546406,1.9209791
5.375155400000001,-6.999094,1.4722042,-1.7216973999999998,-0.43956116,1.9385546000000002
6.442232,-7.065164599999999,0.84707814,-1.4869332,-0.031799898,1.955589
7.5396285,-6.5270057,0.41701248,-1.1292106000000002,0.45792204,1.9656945
7.723388000000001,-5.9632955,0.020264523,-0.8018217,0.61655504,1.8592468999999998
7.4789686,-5.1017947,-1.1596843000000001,-0.49733156,0.55532885,1.4866191
8.550748,-4.1308885,-2.4850376,-0.37489673,0.3615624,1.0852457
10.0144,-3.3864834000000004,-3.3927178,-0.53354716,0.20772909,0.839835
11.4084,-2.496932,-3.8036108,-0.8555953000000002,0.22102849,0.7589215
12.485532000000001,-1.7148327,-3.7807510000000004,-1.0727841,0.35836846,0.7610508
13.385148000000001,-1.7768807,-3.448378,-0.9812415999999999,0.49677306,0.77967346
14.177964999999999,-1.628469,-2.4783049999999998,-0.66130525,0.54042375,0.8632573
14.153553,-0.77616185,-1.3101839,-0.32859313,0.32642892,0.93087137
13.102355000000001,0.13010092,-0.632414,0.022183135,-0.13400638,0.8371821
12.537448,1.0210504999999999,-1.1331086000000001,0.5641079000000001,-0.56306064,0.5300216
12.132388,2.2160444,-1.7288721999999999,1.1320903,-0.7110470999999999,0.14728834
11.208666000000001,2.6923852000000004,-2.2642636,1.3673781999999999,-0.6658082,-0.17369516
9.925546,2.3510199000000003,-2.2510282999999998,1.1123856,-0.41774455,-0.24289747
9.004756,1.5081364,-1.2551172,0.59602994,0.0038397241999999997,-0.12365658
8.6951275,0.84297925,-0.16794845,0.19999728,0.25563836,-0.013997541
8.204402,0.7403925,1.1853023,0.06796312,0.19654153,-0.006544985
7.560075,0.5475826,2.173485,0.25534168,-0.0919614,-0.22533946
7.562583999999999,0.11731588,2.734092,0.7562686,-0.2787989,-0.6426826
9.114266,-0.2976663,3.1046762,1.3205334999999998,-0.39591047,-0.98654735
10.812348,-0.17040970000000003,3.2957337,1.783133,-0.52633893,-1.1952188999999998
12.018797,0.02189258,3.0240011000000004,1.9806169999999998,-0.68282515,-1.2133180000000001
12.6690235,-0.41170690000000004,1.4074075000000001,1.9752938999999998,-0.7429866999999999,-1.1781845
12.601096,-1.2392005,0.3065536,1.9044858,-0.6115109999999999,-1.2468632
12.972455,-2.081787,-0.49084967,1.8262426999999999,-0.35067156,-1.3815503
13.538895000000002,-2.5298667,-0.41842985,1.778857,0.0011868239,-1.4970561000000002
14.1795635,-3.1006253,0.24400747,1.7187129,0.3418751,-1.4991854
15.244860000000001,-3.9159178999999997,0.93262774,1.6431053,0.51860714,-1.4060371999999999
15.160698000000002,-4.364113,1.9182631999999997,1.531858,0.49890235,-1.3277767
14.147731,-4.7957106,1.9585911,1.3466088,0.42065924,-1.2708092
12.572239999999999,-5.040101,1.4279785,1.0458361999999999,0.31738812,-1.14998
11.127886,-5.151968,0.7246865,0.64873886,0.27106708,-0.8827526
10.579307,-5.2599077,0.6126858000000001,0.35383059999999994,0.29609509999999994,-0.49734902
10.344455,-5.1321726,0.6829508000000001,0.13824753,0.26787314,-0.10075786
9.86435,-5.0990176,0.8127835999999999,-0.22586305,0.03577925,0.22553144
8.902082,-4.8708024000000005,0.65306157,-0.7693585999999999,-0.32457888,0.31548572
7.636182000000001,-4.641534,0.31555578,-1.3362938999999998,-0.62374574,0.23884831
6.542223,-4.3074946,-0.21814050000000001,-1.8478497999999999,-0.6205518,0.31016245
5.9520044,-3.9003080000000003,-0.8929415,-2.1124244,-0.22450170000000003,0.7035597
5.4499693,-3.5387642,-1.3696653,-2.0959136000000003,0.11349876,1.1368725
4.9414215,-3.506682,-1.758273,-1.9771961999999998,0.18856537,1.3849361999999998
4.669823,-3.7829822999999996,-1.9062825,-2.1464932,0.18643607,1.3620375
4.623376,-3.5742176,-1.9146718999999996,-2.4472482,0.46483353,1.3529966999999998
4.619008999999999,-3.2639194,-1.9771892,-2.4786642000000003,0.7368606,1.5020478000000002
5.3198204,-3.3857555,-2.4341272999999997,-2.3482533,0.8135154,1.705396
7.047428599999999,-3.449221,-2.5659235000000002,-2.279557,0.51328385,1.8443418000000003
8.333584,-3.507314,-2.3538642000000003,-2.2178247000000004,-0.21279055,1.8709406000000002
9.219439,-4.6952214,-1.5868578000000002,-1.9005414,-0.9053546,1.8102729
9.475408,-5.484848,-0.49048576,-1.1632794,-1.2455018999999998,1.7250835
10.576463,-5.7886147,-0.37475002,-0.22851595,-1.1832285,1.7016785
11.527085000000001,-5.8431354,-0.86623174,0.5177694,-0.9021607,1.7234951
12.254367,-6.8332815,-1.8550179,0.8116305,-0.70413566,1.6420406000000003
11.520783,-7.142976299999999,-1.0645962,0.7253937,-0.5529552,1.4631968000000002
10.085317,-6.1212745,0.17970878,0.39055229999999996,-0.45926595,1.2731478
8.715728,-5.608906,0.5761407,-0.042743113,-0.33896038,1.1299436
8.392921000000001,-5.5317169999999996,0.30867964,-0.36904988,-0.28199285,1.122491
8.81683,-5.649473,0.47439670000000006,-0.49626693,-0.3437426,1.1384783
9.921083,-6.0817127,1.4843858,-0.32009340000000003,-0.35545376,0.87123346
11.192002,-6.077786,2.3424006,0.09457939,-0.34960690000000005,0.45017278
11.217678,-5.456625,2.7670653,0.39056978,-0.24685937,0.19413297
10.659896,-4.4851637,1.8728212,0.4752008,-0.08822639,0.18027505
10.341333,-3.1580956000000002,0.3207177,0.44645519999999994,0.034191,0.28302258
9.829817,-2.044658,-0.92838526,0.5667608000000001,0.05920157,0.22020820000000002
9.331631,-1.1216931,-1.6486568,0.8872207000000001,0.015027285,-0.071488686
8.741392999999999,-0.7750222,-1.7142389,1.2321674999999999,-0.0946143,-0.5308768
8.207898,-0.8744199,-0.82980156,1.3700311,-0.12283627,-0.9114982
8.842391000000001,-1.2882241,0.32616690000000004,1.1416723,-0.07012733,-1.1595619
10.3147,-1.4863396,1.1733503,0.7019714,0.0118333325,-1.2452575000000001
10.734336,-1.3483665,1.3830537,0.19573867,0.043772858,-1.1451803
10.341955,-1.4186603000000002,0.9980756,-0.12950343,0.04642576,-0.994541
9.645674,-1.6185187,0.55060893,-0.044331364000000005,-0.019024088999999998,-0.9216037
9.826197,-1.6824151000000003,0.15314272,0.41451570000000004,-0.10951941,-1.0536203000000002
10.806171,-1.459898,0.15473247,1.0415775999999999,-0.23888321,-1.3639748
11.8868,-1.1341716,-0.14320199,1.5275995,-0.53537977,-1.6849756999999999
12.544516,-1.1971583000000001,-0.90802497,1.6766505,-0.80847144,-1.9623085
12.473072,-1.6429491000000003,-1.602286,1.5675325,-0.9697573,-2.112948
12.240126,-2.4014037,-2.3414237,1.3482145,-0.92664766,-2.109754
12.05401,-3.4723012000000004,-2.7118835,1.101739,-0.6690022,-2.0091531000000002
12.029838999999999,-4.7368994,-2.5069206000000004,0.86592764,-0.32511994,-1.8558435000000002
12.368236,-5.658638,-1.7029766,0.6780081,-0.031799898,-1.6503657999999999
12.845831,-6.107972599999999,-0.58049816,0.56354934,0.07038913,-1.3842032
13.423398,-6.0781693,0.19649692,0.5598318,0.24870941,-1.2442103999999998
13.366406,-5.984355,0.37815937,0.73443455,0.22209315,-1.2575097
12.600415,-6.0985875,-0.008705316999999999,0.98249817,0.06239552,-1.3357528
11.696307000000001,-6.360369,-0.45520478,1.154448,-0.11006046,-1.3975024999999999
11.014486,-6.5140486,-0.8600260000000001,1.1592476,-0.27082273,-1.3219124
10.325961999999999,-6.443601,-0.6977757,1.0053794,-0.24898867,-1.0882477
9.560277000000001,-6.1975446,-0.3150578,0.80524254,-0.18352138,-0.7001563000000001
8.506867,-5.8315763,0.12591586,0.5859245,-0.24898867,-0.28228956
7.385461,-5.403646,0.38539943,0.34211943,-0.30754447,-0.01293289
6.498984,-5.200091400000001,0.38810009999999995,0.017400933,-0.3416133,0.09299114
6.488823,-5.3352585,0.43243113,-0.40578905,-0.3586477,0.20423843
6.5082636,-5.224378,1.0106690999999999,-0.8577246,-0.39910445,0.5183104000000001
6.4101973,-5.1348443,0.9612337,-1.0072993000000001,-0.21120229999999998,0.9926210999999999
6.0239263,-5.0533648,0.6205388000000001,-0.76244706,-0.061086524,1.400906
5.384732,-5.1869515999999996,0.15592,-0.5542991,-0.05469862,1.5446339
4.867508,-5.197716000000001,-0.19876663,-0.79810417,-0.023282692,1.5520863999999999
4.7885375,-5.124396,-0.54694104,-1.5018383,0.04642576,1.6271354999999998
5.1693783,-5.077393,-0.86642325,-2.3626172999999997,0.20879374,1.8358071
6.327013,-5.038272,-1.0441304,-2.9061303,0.37487927,2.0412848
7.665027,-5.2750487,-1.6339469,-3.0546403,0.5074196,2.240392
8.168269,-5.666414700000001,-2.2126349999999997,-2.8528802000000004,0.5622578,2.3260875
8.066171,-5.8837123,-2.0191453,-2.336001,0.4387583,2.1887476
8.050733000000001,-5.3986855,-1.5641032,-1.5518769,0.27160814,1.955048
9.069389,-4.499902,-1.8102846000000001,-0.5000019,0.12201597,1.6910319999999999
9.911669,-3.9117522000000005,-2.6661544,0.43472659999999996,0.06558947,1.4365629999999998
10.348687,-4.161745,-3.8955865,0.8563458,0.084753186,1.2044692
10.063739,-4.496943,-4.2828054,0.65247387,0.10232865,1.086834
9.950244999999999,-4.969252,-3.8785877,0.006213371999999999,0.1667313,1.1331376
10.342473,-5.623951,-2.5424123,-0.7347661999999999,0.2290221,1.2396201
10.700213,-5.964924,-1.1343153,-1.2111887,0.24392721,1.2609131000000002
10.974867,-6.2662195999999994,0.20693564,-1.2697445,0.20505874,1.2172624
11.292069999999999,-6.40991,1.4551575,-1.099924,0.15714945,1.1661591999999998
11.432983,-5.99827,2.1451377999999997,-0.9162804,0.26361454,1.1400665
10.839413,-4.9221725,1.9423583999999998,-0.76989967,0.43556437,1.2050101999999998
10.016688,-3.7980275000000003,0.836965,-0.64161795,0.6186843000000001,1.305611
9.205734,-2.903458,-0.84570867,-0.46115088,0.63624233,1.3130635
8.057369,-2.28471,-2.097426,-0.08372344,0.40788344,1.1507129999999999
7.209066,-2.075792,-2.6073717999999997,0.5481381,0.019285886999999998,0.8174773
7.1390020000000005,-2.2554624,-2.156984,1.2960466,-0.19203858,0.29206340000000003
7.901086,-2.4249146,-1.468067,1.8246369999999998,-0.12496557,-0.33445746
8.623704,-2.231329,-0.7448456999999999,1.7341417000000001,-0.049375363,-0.86304784
9.095419,-2.2665045,-0.21724986,0.9793216999999999,-0.26176447,-1.2005422
9.424507,-2.5343964,0.06833051,-0.1603783,-1.0043671,-1.7137039
9.136906,-2.539348,0.34578020000000004,-0.8880759,-1.196528,-2.3003266
8.950656,-2.4925268,0.3964415,-0.7816108,-0.88352054,-2.5036922
9.294377,-2.2851696,0.7386111999999999,-0.07785914,-0.4709771,-2.3908217
10.855426,-2.4081742999999998,0.70239174,0.667379,-0.39697513,-2.2034432999999995
12.455413,-2.1084106,0.62322986,1.0809871000000002,-0.70040065,-2.1922731
13.658001,-1.8538686000000002,0.49775454,1.0777931,-1.0357656,-2.2944796000000003
14.164317,-1.7484663,-0.28053340000000004,0.9441708000000001,-0.967628,-2.4254317000000003
13.759285,-2.4984452999999998,-1.8854147,0.8888089,-0.40496874,-2.4563064999999997
13.493846,-3.3491242,-3.5548437000000006,0.93565357,0.29555404,-2.3035203999999996
14.63904,-4.2341456,-4.428411,1.0437243,0.6798930000000001,-2.0330991999999997
15.365872,-5.6698236,-2.6199844,1.0985451000000002,0.6463651999999999,-1.8659488999999998
14.651337,-6.492385400000001,0.008015787,1.0655583999999998,0.42385322,-1.837727
13.123989000000002,-6.7355313,1.0105734,0.96705204,0.0049043754,-1.7770593000000001
12.181708,-6.5556399999999995,0.43539992,0.88296205,-0.51089275,-1.5540062
11.7792425,-6.3429394,-0.63869643,0.8755094999999999,-1.0831513000000002,-1.2042772
11.608756,-6.302209400000001,-1.2241458,0.893085,-1.6601921000000002,-0.8625243
11.3986225,-6.050722,-0.8442434000000001,0.7743677,-2.1797416000000003,-0.6165899
10.313244000000001,-5.5957475,-0.30942664,0.50555205,-2.2611787,-0.57505107
8.290997,-4.974529,-0.19947532,0.10843731,-1.9843695,-0.4914847
6.703631,-4.3105400000000005,-0.7451522,-0.32431707,-1.3061869,-0.25300294
5.851276,-3.994783,-1.2533933000000002,-0.8018217,-0.33841935,0.14781193
5.2875943,-3.921396,-1.622991,-1.283585,0.641042,0.6221226
4.804827700000001,-4.4377584,-1.9090215,-1.7658718,1.3862976,1.1395429
4.434004,-4.9970245,-2.006293,-2.112407,1.5704821000000002,1.5888256
4.5726379999999995,-5.554720400000001,-1.9016953999999997,-2.1954496,1.1749731,1.9018328999999998
5.557478400000001,-6.213748000000001,-2.1910488999999997,-1.9154465,0.5537406,1.923126
7.349864500000001,-6.9178348,-2.6032922000000003,-1.3847094,0.062412973,1.6473813999999998
8.795311,-7.099660000000001,-2.2746925,-0.8167268,-0.10845476,1.3402383
9.283,-7.201241499999999,-1.9712613,-0.38926077,-0.05787512,1.4025117
9.076858999999999,-7.3787093,-2.0376762999999998,-0.08264134,0.17791887,1.6878381000000002
8.521519999999999,-7.287921400000001,-2.3639007000000003,0.12599532,0.39137262,1.9279081999999998
7.531411599999999,-7.0811963,-2.8273127000000002,0.29740409999999995,0.5090253,1.9305785
6.50451,-7.0680666,-3.1894214,0.45177847,0.4754975,1.8549883000000003
6.307169999999999,-7.183783,-3.35261,0.5321683,0.22743386,1.7687515999999999
7.148003999999999,-6.876836999999999,-2.8348593999999996,0.39908698,0.117757365,1.6452521
8.646497,-6.667669999999999,-2.3672907000000003,-0.011850785,0.08796459400000001,1.6617628
10.316797,-5.8026643,-1.9371965,-0.45209265,-0.062674776,1.8587058999999997
10.263914,-5.4000544999999995,-1.4070052,-0.47657959999999994,-0.40283945,1.9609123
9.4593,-5.3980246,-1.2649525,-0.021432644,-0.8371995000000001,1.6399288
9.162859,-5.2991443,-1.5650705,0.4831944,-1.2769003,0.9165073
9.248169,-4.8871307,-2.0449069,0.6460859999999999,-1.3152277,0.2585531
9.256597,-4.1189175,-2.442641,0.5438795,-0.8861735000000001,0.055204764
8.741566,-3.1225273999999996,-2.7594898,0.45392522,-0.1638166,0.023265239
8.452164,-2.1481159,-3.2970072999999998,0.40493384,0.10658725,-0.18008307
8.306453,-1.5671871000000002,-3.6475758999999996,0.20160298,0.32590532,-0.42547637
7.712183500000001,-1.4950353,-3.7007847000000003,-0.3466922,0.53777087,-0.5915619000000001
7.1848173,-1.5107509,-2.883117,-1.1568741000000002,0.5638635000000001,-0.71399677
8.191597999999999,-0.9191628000000001,-1.5952469999999999,-1.7866237,0.49040259999999997,-0.7507185000000001
10.479038000000001,0.3106812,-1.1709657,-2.0650213,0.37807322,-0.5526934
12.048685,0.90361005,-1.8890346000000002,-1.8627375,0.3461337,-0.32218778
12.292923,0.13032117,-2.6153016,-1.025922,0.24446827,-0.2609791
11.231036999999999,-0.46711832,-1.8568949000000001,0.18669787,0.36370915,-0.5377883000000001
11.157957000000001,0.328676,-2.4451406,1.4525677,0.22156955,-1.167538
11.414356,1.4607983,-3.8193165999999996,2.2979004,-0.26176447,-1.8920241999999998
11.267822,1.6455636000000002,-5.0384445,2.6620111,-0.7802494000000001,-2.4408605
11.404531500000001,0.90038264,-5.714816000000001,2.6412416000000003,-1.0192548000000001,-2.66709
11.473445,-0.59327364,-5.898949,2.4565334,-1.049065,-2.6016226000000002
12.262306,-2.8312104,-5.2991343,2.1515023999999996,-0.89203775,-2.31682
13.043314,-5.0832734,-3.8012261,1.7139307000000001,-0.5513494999999999,-2.0708854
14.0459,-6.2267823,-2.0517542,1.3035166,-0.052028265,-1.9670733
15.194916000000001,-6.511798000000001,-0.06707596,0.96124005,0.25137976,-1.8430502
15.332516,-5.6437945,1.5582038999999999,0.7190233,0.33548720000000004,-1.717945
15.115582,-5.0584598,0.77195764,0.45551348,0.21092305,-1.5614588
13.6644945,-4.703926,-0.82869065,0.14678219,0.030997047000000003,-1.407608
12.176919,-4.756197,-2.5784116000000004,-0.23542747,-0.13187708,-1.23407
10.73516,-4.555821400000001,-3.2394507000000003,-0.6043202,-0.26974064,-0.9226509
9.072224,-4.2509146,-2.913552,-0.91413367,-0.31180307,-0.5771804
8.014159,-4.0624046,-2.4167838,-1.1941369,-0.36184165,-0.23436281
8.10556,-4.0986247,-2.3510103,-1.4374182,-0.35651842,0.073303826
7.939096000000001,-3.9811742,-2.2087849999999998,-1.629038,-0.27719320000000003,0.32775540000000003
6.9917869999999995,-3.771318,-2.156716,-1.6764237000000002,-0.15582299,0.49225265
6.2352767,-3.5820705999999998,-2.4029262000000005,-1.6891994,0.37648496,0.5843362
5.637042500000001,-3.734265,-2.5987622999999997,-2.080991,1.315507,0.89362603
5.675962999999999,-4.229501,-2.837943,-2.8688326,2.0714092,1.6953081
5.6512356,-4.812489,-2.6921265,-3.5688317000000005,2.5377262000000003,2.4501455
5.407419,-5.431629,-2.5263999,-3.7349174,2.4472308,2.6859744
5.772995,-6.201375,-2.3689572999999995,-3.3479080000000003,1.8206751,2.570451
6.4363894,-6.9822679999999995,-2.2222404,-2.5478315,0.8587718000000001,2.3292990000000002
7.157561299999999,-7.6518974,-2.0030754,-1.4267544,-0.24260077,2.0642183000000003
8.034194,-8.103367,-1.5109711000000001,-0.07888888,-1.3035166,1.8145665000000002
9.333978,-8.311461,-1.7575738,1.3466437,-1.7118189,1.5222936000000002
10.632841,-7.554347999999999,-3.279271,2.389478,-1.4110464,1.2955405
9.871417999999998,-6.932047,-4.506941,2.5497165,-0.87817985,1.3376028999999998
8.096625,-6.942332700000001,-4.675493,1.9370013,-0.37407643,1.790603
7.647904,-6.476938,-3.6176866999999997,0.97349226,0.14226179,2.2744782000000003
7.9581447,-5.9228525,-1.8787875,0.17767452,0.4771032,2.4735854
8.051671,-5.835062000000001,-0.4327759,-0.256162,0.44568726,2.4214175
8.564127000000001,-6.2539706,0.47542143,-0.23593360000000002,0.22795746,2.0077918
9.477409,-6.7294884,1.4480706,0.08025024,0.18378317,1.2550837
10.693789,-7.104659599999999,2.0464487,0.30223867,0.05815437,0.5832890000000001
11.762692999999999,-6.329330400000001,1.6926911,0.09728465,-0.00038397242,0.272411
11.436536,-4.836508,0.32383972,-0.42650609999999994,0.046984263,0.36025342
9.784556,-3.3882934999999996,-1.7391671999999998,-1.0242988000000002,0.20827013,0.6130993
8.009505,-2.4380347999999996,-3.0195098,-1.3160306,0.45472807,0.7781026999999999
8.232289999999999,-1.7739406999999998,-3.4280756,-1.1350225,0.50584877,0.7057239000000001
8.894899,-1.3800658000000001,-2.8091455,-0.6900159,0.39725438,0.30860913
9.205916,-1.4684885,-1.3475908,-0.043231804000000006,-0.008360127,-0.32112312
11.326967999999999,-1.2149615,-0.8192575000000001,0.7536506,-0.57156044,-0.86779517
12.104835000000001,0.12703633,-0.5847119000000001,1.6910669999999999,-1.4275396999999999,-1.2271235
10.952755,0.707908,-0.9993877,2.4267406000000005,-2.195153,-1.6705593
9.54642,0.6294451999999999,-1.4971901,3.0772424,-2.5033782,-2.5084395
9.022291000000001,-0.05864836599999999,-2.0374176999999998,3.6239492999999996,-2.2622259,-3.3314147000000003
9.187548,-0.51935023,-1.3099635,3.8145218,-1.6457931000000001,-3.6992428
10.203302,-0.74760383,0.018674773999999998,3.3572453999999996,-1.22845,-3.5225108
11.769762,-1.0983543,1.14326,2.450704,-0.91757196,-3.146689
13.400892,-1.533467,2.0797758,1.5563973,-0.59498274,-2.9901853
14.506286,-2.2501952999999997,2.5502365,1.0592053999999997,-0.38578758,-3.0173252
14.703204000000001,-2.70019,2.4289272,0.92612404,-0.25429448,-2.9688923
15.861222,-3.4272803999999994,1.5222334,0.92451835,-0.24631831,-2.7426627
18.364044,-4.868925,0.57706004,0.86118037,-0.34533083,-2.4578599999999997
19.54405,-6.3470287,1.06881,0.7057239000000001,-0.469895,-2.1161244
18.242725,-7.1333704,1.2204204,0.44437829999999995,-0.5704958000000001,-1.6817293999999998
15.334613000000001,-6.873399000000001,-0.30579704,0.10634291,-0.70464176,-1.153139
12.0972595,-6.857386,-1.92829,-0.13798574,-0.96973985,-0.6697875
10.552223,-7.072347,-2.6072762000000003,-0.15554374,-1.2843528999999998,-0.37699112
10.239168,-7.043769999999999,-2.192198,-0.11826351,-1.27423,-0.38870227
9.495873,-6.8783884,-1.3931764,-0.12999213,-0.87978554,-0.4387583
7.6612919999999995,-6.5175241999999995,-0.65675825,-0.20025907,-0.5012935000000001,-0.20505874
5.7581124,-6.1424685,-0.36167768,-0.43713516,-0.31232667,0.19683823
4.5929503,-6.235938,-0.64395404,-0.9300685,-0.014748032,0.5162335
3.6179547,-6.332884,-0.90998816,-1.657225,0.4142888,0.819659
3.2573211,-6.437338,-1.3038056999999998,-2.3242376,1.0977947,1.2125151
3.0566583,-6.510332599999999,-1.12561,-2.57923,1.6311847,1.772504
3.796246,-6.388659,-0.36278862,-2.2986857999999994,1.6657771000000001,2.2915301
5.673367,-6.5683300000000004,0.40583634,-1.6348848,1.2612098,2.5544987
8.507796,-7.440346000000001,-0.36049974,-0.77569413,0.61283743,2.5587572999999995
8.94171,-7.3671217,-0.86678725,0.19312069,-0.101525806,2.33731
8.157716,-6.5131383000000005,-1.7400483,0.8494691999999999,-0.45231953,2.1222506
7.854350999999999,-6.145868,-2.6440799999999998,1.3291031,-0.19840904,2.0131326
8.409269,-5.987238,-2.9843917,1.6809615000000002,0.54363513,1.9545767
8.875784,-6.7623553,-3.0890756,1.6027183999999999,1.1281284,1.7288706999999999
8.925355,-7.3952966,-2.5337548,0.8973785,1.2771796,1.7038427999999999
8.129043,-7.3060884,-1.512561,-0.36475635,1.2782443,1.8629993000000002
7.727085000000001,-6.595173399999999,-0.67004126,-1.5853523999999999,1.2420461,1.9865162
8.162360000000001,-5.921713400000001,-0.2254955,-2.041564,1.0908657,1.8784455000000002
8.907483000000001,-5.317474,0.19167021,-1.8547263999999999,0.9684308,1.6777674999999999
9.580503,-5.1370187000000005,0.49634674,-1.3958620000000002,0.85292494,1.4866540000000001
9.83742,-5.267378,0.5425835999999999,-1.0205638000000001,0.59527946,1.3679541000000002
10.35361,-5.020622,0.14938861,-0.70488614,0.35679767,1.4722899
10.742947000000001,-3.1385975,-1.4540561,-0.31257102,0.30621803,1.4845247
9.985085,-0.9671713,-3.5298192999999998,0.15318754,0.18484782,1.1076382
7.6440825,-0.25520274,-5.221533999999999,0.502393,-0.072239175,0.4789707
6.601311999999999,-0.25911006,-5.465283,0.6738018,-0.42411499999999996,-0.14863224
7.713821,-0.8171984999999999,-4.654108,0.5497787,-0.7834259,-0.50848424
9.32012,-0.9289790000000001,-3.1335409,0.07761479,-1.0480005,-0.6660524999999999
10.055255,-1.0456915,-1.6140462,-0.45204028,-0.9942268,-0.7836877
10.1583,-1.4556459,-0.9935171,-0.6979746,-0.5220629,-0.9369975
9.782746000000001,-1.9528162,-1.1652963,-0.6218608,0.004921828400000001,-1.0929775
9.392549,-2.3099163,-0.74160874,-0.2934073,0.30515337,-1.3649871
11.225875,-1.7342066000000003,0.156169,0.11114257,0.20614083,-1.7328153000000002
13.298957000000001,-1.3173089,0.17908628,0.47364745,0.034208454,-2.1310122000000002
14.654639999999999,-1.4144847,-0.4279013,0.73024577,-0.11962487,-2.4892583
15.066289999999999,-2.0114741,-1.2114468999999999,0.82391757,-0.14463544,-2.6723783
14.528609,-3.0721342999999997,-1.6124278,0.8159414,0.117774814,-2.6239455
15.398892000000002,-5.103337000000001,-2.2771347,0.8159414,0.47230354,-2.3678882000000003
16.729666,-6.471546,-1.5253651000000001,0.8718443000000001,0.6144432,-1.9910018
16.558126,-6.794160400000001,0.080655865,0.96551615,0.50904274,-1.6551131999999997
15.242619,-6.650469999999999,1.1461139,1.0453649999999999,0.22903955,-1.4645407
13.940555999999999,-6.461098000000001,1.573613,1.0725223,-0.19680333,-1.3591403
12.647687,-6.311374,1.1539764,1.0474943,-0.6088232,-1.2462872
12.063108,-6.3201084000000005,0.37667495,0.96446896,-0.94898784,-1.057844
11.061278999999999,-5.97406,-0.09269392,0.8755619000000001,-1.1379546999999999,-0.77942914
9.58329,-5.6120663,-0.20454144,0.840952,-1.2066333,-0.37487927
7.949133,-5.179395700000001,-0.070810914,0.81222385,-1.4110288999999998,0.03981096
6.32142,-4.661999,-0.104770266,0.49972266,-1.6676272,0.3581241
5.0155935,-4.334127400000001,-0.25957936,-0.25560346,-1.7740923,0.6903126
4.415223999999999,-4.0571856,-0.40684193,-1.190908,-1.2907408,1.1017915
4.1766176,-3.838432,-0.49134767,-1.8520561000000002,-0.45179594,1.4430033000000002
4.1187263,-3.980207,-0.60238117,-2.3849225,0.52820647,1.7709157
4.318354599999999,-4.5058303,-0.7375769,-2.8310112999999997,1.2436519,2.0051389
4.612535,-5.1000996,-0.86796516,-3.0497882,1.5577238000000002,2.1025631000000002
4.7143364000000005,-5.666884,-0.85178035,-2.7016475,1.3729981000000002,2.1158626
4.7071442999999995,-5.734812000000001,-0.8859886999999999,-1.7945650000000002,0.8758062,2.1568604
5.736689599999999,-5.6961699999999995,-1.4748666000000001,-0.51326644,0.20455259,2.0849879000000002
7.3911880000000005,-6.328574,-3.0419099999999997,0.70256484,-0.48692942,1.7246122
9.090314999999999,-7.8106427,-3.9922546999999997,1.4627255,-0.94418824,1.3652838
10.310112,-8.568014999999999,-4.0395449999999995,1.7160950000000001,-0.9197011999999999,1.1991982
10.693271000000001,-8.4100065,-3.0830040000000003,1.4302449,-0.5486791999999999,1.2667948999999998
10.013778,-8.119762,-1.9117892,0.8734325999999999,-0.13611823,1.5414921999999998
9.420542,-8.630742999999999,-1.4749911,0.27563986,0.2865307,1.8374651999999998
9.592149000000001,-8.7816725,-1.3572634,-0.2976659,0.51595426,2.0754058
9.283843,-8.166555,-0.8007072,-0.6718994,0.58037436,2.075947
9.158004,-7.295391,-0.44359767,-0.7325670999999999,0.5154306,1.8528938000000001
9.665891,-6.397287400000001,-0.12060073,-0.5483998999999999,0.30782372,1.5979012
10.196503,-5.620417,-0.41415859999999993,-0.37857938,0.11245156,1.3668895
9.6150465,-4.6374154,-0.7855472,-0.43341762,-0.062133722,1.2588187
8.437339,-4.1566887,-2.0912490000000004,-0.44725809,-0.030194197000000002,1.2896936
7.9379563,-3.4481196000000005,-3.1472929,-0.14276794,0.04431391,1.2939521999999999
7.396656,-2.5209222000000002,-3.6222932,0.39592794,-0.17392206,1.0639876
7.3380656,-2.0064464,-3.6202339999999995,0.80051273,-0.6908013000000001,0.4789707
7.594475,-1.9427031000000003,-3.165853,0.89366096,-0.9756041,-0.37592646
8.217408,-2.0874853,-2.666384,0.64346796,-1.0389421,-0.9976825999999999
8.823542999999999,-1.6756346999999998,-2.0627484000000003,0.22771311,-0.75042176,-1.0919128999999999
8.988532000000001,-1.177727,-1.9120574000000001,-0.14596188,-0.25164157,-1.0764666999999999
8.887478,-1.0031417999999999,-1.974479,-0.17257816,-0.06585127,-1.3149486000000001
8.874233,-1.5748771000000001,-1.8605342,0.39486328,-0.116430916,-1.8057525
9.10355,-1.8992053,-0.87255245,1.3722302,-0.52258646,-2.450931
9.743252,-1.9026049999999999,0.2686869,2.206899,-1.0629056000000001,-3.1748936000000003
10.9603,-2.08738,0.5688623,2.4682796000000002,-1.5552979,-3.6917902999999996
12.990105999999999,-2.8816132999999997,-0.7768130999999999,2.1414318,-1.5467806,-3.8275243999999997
14.608614000000001,-3.3030120000000003,-1.6721488000000002,1.5106348,-1.0133905,-3.6193940000000002
14.990976999999999,-4.2304205999999995,-2.478037,0.71160567,-0.13505358,-3.2579362
14.806261,-5.008287,-2.1843932,-0.16245525,0.754436,-2.927371
15.608184,-5.6586957,-1.8987456999999999,-0.90079933,1.5492066,-2.7234817000000002
15.499679,-5.835761,-0.3643592,-1.3133428,2.1688335,-2.637786
14.933938000000001,-6.377999999999999,1.3719542,-1.4836695,2.5276208,-2.5834713
14.596317,-6.6708110000000005,1.3305249,-1.4927451999999999,2.5286853,-2.6548202
14.219001,-7.018248,0.19916886,-1.3596464,1.8148282999999998,-2.8523042000000003
13.800667,-7.7199693,-1.57866,-1.1600331,0.47443286,-2.9795213
12.949423,-7.8552610000000005,-2.4598793999999997,-0.9582729999999999,-0.93567103,-2.765003
11.754831,-7.3445296,-2.514046,-0.7347138000000001,-1.6250411,-2.1251477999999997
10.407767,-6.625522599999999,-2.404631,-0.6357013000000001,-1.4637378,-1.3059077
9.361521,-6.2466545,-2.3813207000000003,-0.852349,-1.0043497,-0.37594393
8.445422,-6.116562999999999,-2.0889313,-1.4474888000000001,-0.44221407,0.39538687
7.504606,-6.089470400000001,-1.6031575,-2.1341887,0.064018674,1.352508
6.659051,-6.3856807,-1.5413296,-2.478612,0.23436281,2.3527563
6.1345,-6.631096400000001,-1.4991916,-2.2805867,0.083182395,2.9846177000000003
5.311057599999999,-6.740156699999999,-1.6407368000000002,-1.5156264,-0.51726323,3.0170982000000004
3.9476266000000004,-6.867298,-2.2163987,-0.28701940000000004,-1.1933165000000001,2.6524467
3.385679,-7.206174000000001,-1.8163371,0.9883974,-1.6644332,2.2744956000000003
4.1123959999999995,-7.255724000000001,-1.5763519,2.0818112,-1.8310423999999998,1.9556414
5.384770400000001,-8.0160265,-1.1504426,2.549734,-1.5952309,1.8241483
7.1182300000000005,-9.279361,-2.1652873,2.3208168,-1.0118023,2.041337
8.284924,-10.168328,-3.0970628,1.6181471,-0.50768137,2.44751
7.5601516,-10.816754,-2.5114603,0.65039694,-0.19999728,2.7637115000000003
7.7755339999999995,-10.8873825,-1.6990979,-0.19598302,-0.03338815,2.6977031000000005
9.491526,-9.5609,-0.7327885000000001,-0.5409473000000001,0.04059636,2.4219584
10.927414,-8.019703999999999,0.1377432,-0.5707401,0.05815437,2.0887227
11.854353999999999,-6.4620942999999995,0.3647614,-0.63409555,0.20401153,1.7735862
11.829578,-5.313164700000001,0.19081788,-0.79911643,0.36105627,1.6122828000000002
11.655702999999999,-4.417379,-0.9156097,-0.8992110999999999,0.598997,1.6655153000000003
10.731836999999999,-3.6695832999999998,-2.7549314,-0.8496961,0.6309365,1.6639271
9.379361,-2.995357,-4.1336274,-0.6138672,0.30462977,1.4227749
8.337061,-2.4550622000000004,-4.5999413,-0.09484119,-0.18137461,0.97349226
8.521117,-2.2881482,-4.446569,0.73075193,-0.32882002,0.40390408
10.081016,-1.6714976000000001,-3.7237785000000003,1.561197,-0.07490953,-0.13320352
10.821083,-0.72744465,-2.039247,2.0046153,0.11512191599999999,-0.43767622
10.816946000000002,-0.43811974,-1.1088506,1.8427885,0.28014278,-0.5095489000000001
10.290481,-0.8697655999999999,-0.68981737,1.1848341999999998,0.34189254,-0.5058313
9.677172,-1.0611868,-0.5648496999999999,0.3400425,0.27003735,-0.46588072
9.373396000000001,-0.77229285,-0.44089705,-0.24017476,0.07199483,-0.46322784
9.726311,-0.1515434,-0.17843506,-0.19387117,-0.105243355,-0.6255958
10.645750999999999,-0.03998317,0.1988624,0.36611772,-0.36875317,-1.0530618
11.797353,-0.23606828,0.9848021999999998,1.0788927,-0.7216762,-1.582717
13.176757,-0.19418892,1.0775919,1.5920718999999999,-1.1725645,-1.985696
13.843169,0.00548751,0.22194250000000001,1.8869802,-1.5089941999999998,-2.2859101
13.256389000000002,-0.5333611,-1.6035693000000002,2.0291023,-1.5302873,-2.4296553
12.401102,-1.4326233,-3.3404284,2.0237792000000003,-1.2178035,-2.4243147
12.352252,-2.6300209999999997,-4.545152,1.8656871,-0.75415677,-2.3609767
12.647342,-3.8343716,-4.4561839999999995,1.5494858,-0.40015164,-2.2837982000000006
13.677634,-4.853113700000001,-3.3496222,1.1166966,-0.20799088,-2.198626
14.739107,-5.112837,-0.9269774,0.81220645,-0.09246755,-2.1773157000000003
14.714716000000001,-5.183753,1.1514098999999998,0.66847855,-0.014748032,-2.1608224
13.675815,-5.4524016,1.9034476999999999,0.64879125,0.18325958,-2.066592
12.773152,-6.173583,1.5250682,0.56255454,0.32218778,-1.7605137
12.255535,-6.670332000000001,1.1823142,0.34962437,0.28918362,-1.3522288
11.767185000000001,-6.694676400000001,0.92577076,0.110601515,-0.04881686,-0.8933468000000001
11.09881,-6.307437999999999,0.5163336,-0.006492625,-0.63224554,-0.47760934
9.915030999999999,-5.526430599999999,0.19697577,-0.074630275,-1.0985626,-0.22422245
8.498832,-4.9023867,-0.017161638,-0.20929988,-1.3972058,-0.06717772
7.513014999999999,-4.7658309999999995,-0.19607554,-0.45471063,-1.2715771,0.053092916
7.0598116,-4.830417,0.102653794,-0.6708347,-0.5555906,0.32511994
6.7657175,-5.2163625,0.49598283,-0.8566075999999999,0.5856975999999999,0.77120864
6.107944,-5.6123247,0.3850451,-1.1286346,1.4587113,1.2162327
5.252649,-6.2728660000000005,-0.41007885,-1.6189151000000002,1.8590200000000001,1.5590502
4.4777317000000005,-6.792149,-1.157769,-2.087885,1.697193,1.8103078999999997
4.688239599999999,-7.233458000000001,-1.5467309999999999,-2.1714687,1.2739856,1.9886281000000003
5.2915306,-7.2899804,-1.4500339,-1.713128,0.8417374,2.1797416000000003
6.1066413,-7.434044,-0.90755564,-1.0232341,0.54949945,2.3362453
7.189127,-7.8569173999999995,-0.59097517,-0.517525,0.22211060000000002,2.4485748
8.296933000000001,-8.542617,-0.0061195795,-0.20397663,0.09009389599999999,2.465068
8.841596000000001,-8.907666,0.76031226,0.13348278,0.031014499999999997,2.2233925
8.691163000000001,-8.840082,1.0941118,0.49974012,0.11566297,1.7331293999999997
8.162676,-8.347777,0.6526976999999999,0.593953,0.29611257,1.4227749
7.4448466,-8.294032000000001,-0.27077463,0.19470893,0.5825036,1.4866540000000001
7.212360400000001,-8.230144500000002,-0.5851333000000001,-0.64793605,0.8161858000000001,1.8268011999999998
7.690425,-8.029069999999999,-0.008283937,-1.5193615,0.8252440000000001,2.083923
7.998434,-7.248493700000001,1.2642821000000002,-1.8525971999999997,0.65596455,2.041337
8.523444,-6.9591594,1.7821575,-1.4858162,0.44835764,1.8587581999999998
9.191588000000001,-7.324658,1.7048824,-0.7480131999999999,0.26682594,1.6362462
10.407478999999999,-7.0712649999999995,1.3130758999999999,0.01425934,0.14493214,1.328562
11.655768,-5.2898545,0.1469561,0.57904786,-0.121213116,0.9756216000000001
11.687104,-2.9435945,-1.308163,1.0091668,-0.22661355,0.70359457
10.012274,-1.4442687,-2.833557,1.427051,-0.101525806,0.45074874
8.189463,-0.8689610999999999,-3.8471758,1.7320647,0.16622515,0.106325455
6.943969999999999,-1.3352271,-3.9374754000000003,1.7964848000000002,0.36264452,-0.478674
7.6245747,-2.1114273,-2.9708118,1.4206631,0.3514744,-1.1350225
9.17051,-2.3045244,-1.1982883,0.66209066,0.2088112,-1.4970212
10.218194,-2.4500344,0.5374408,-0.3471809,0.0336674,-1.6503134999999998
10.792735,-2.6343305,1.3297491000000001,-1.2388347,-0.22022565,-1.6631068
10.886837,-2.0643764,1.1620688,-1.6641539,-0.5673018,-1.7786127
11.064191000000001,-1.6213247,0.42430039999999997,-1.4490945,-0.8031307,-2.0453165
11.779961,-1.0703518,0.40233123,-0.75759506,-0.918113,-2.3870695
12.877778999999999,-0.76332897,0.3523307,0.014241886,-0.86700976,-2.5638012999999997
13.842537,-1.0188669,-0.27576417,0.5375265,-0.9378003,-2.419009
14.435073000000001,-1.3746836,-1.7928165,0.7903898,-0.9117251000000001,-2.236936
14.1340065,-2.3810432,-3.0474357999999997,1.0123608,-0.68121946,-2.1576283
13.252529000000001,-3.5027747000000002,-3.4748964,1.1693879999999999,-0.31871456,-2.1437879
12.760204,-5.0704694,-2.9832807,1.1656705,0.12257447,-2.0857732
13.417298,-6.883952000000001,-1.7814584999999998,1.0059729,0.31792918,-1.94311
14.538962,-8.206517999999999,0.22863668,0.7967776999999999,0.36105627,-1.7264448000000001
14.9503145,-8.674202000000001,2.6665661,0.6168517,0.29876545,-1.4491119
13.752170000000001,-8.547310000000001,3.9708412,0.5934119000000001,0.14013249,-1.0493268999999998
11.688396000000001,-8.471653,3.8873696000000004,0.71586424,-0.070109874,-0.6969274000000001
10.277983,-8.567182,3.1097615000000003,0.90483105,-0.16114625,-0.394043
9.619213,-8.027681,2.6154928,1.0677226999999998,0.025150195,0.049898963
9.167993,-7.1104536,2.176559,1.084216,0.06773623,0.7935663000000001
8.098664999999999,-6.1834664,1.4835143999999998,0.96712184,0.082117744,1.507947
6.6931343,-5.5881433,0.67794216,0.52581537,-0.13133602,1.7432348999999998
5.1885414,-5.0380807,-0.30440837,-0.4036074,-0.23513076,1.4121284
3.9757540000000002,-4.5954695,-0.6331227,-1.3405001,0.12522738,1.1012503999999999
3.2643793,-4.580509999999999,-0.5928139,-1.7530436999999999,0.81725043,1.0921922
2.7771687999999997,-4.5797443,-0.0062728086,-1.9840727999999999,1.3655456,1.2050451000000002
3.1803904,-5.1445074,0.57397634,-2.2651582,1.5699586,1.3450555
3.908161,-6.274187599999999,0.8716139,-2.3167849,1.5550535,1.4483266000000001
4.0308204,-7.57852,0.7302219,-2.0080361,1.1802963,1.5015591
4.274483,-8.155091,-0.11744996,-1.3718987,0.56812215,1.486113
5.10418,-7.674689999999999,-0.56999236,-0.52124256,-0.012095132,1.4866540000000001
7.051096,-7.398102799999999,-1.0799286,0.31607914,-0.30806807,1.4360918
9.235527000000001,-7.868428999999999,-1.2229007,0.89950776,-0.20266764,1.401482
9.984358,-8.402403,-0.21825543,1.0506707,0.25830874,1.3849711
10.024311,-8.580244,1.4944223,0.7941074,0.70120347,1.352508
9.837621,-8.828302,0.9800424999999999,0.36611772,0.9194568999999999,1.2290084
9.475408,-9.124658,0.50352937,0.025953045,0.9737541,0.93142986
9.107161,-8.8313675,1.0110523,-0.20238838,0.98120666,0.6317394000000001
9.254116,-8.5788555,1.8264311999999998,-0.38550833,1.0546676000000001,0.4757593
9.494628,-8.039691,2.3493726,-0.67722267,1.0418916999999999,0.46884778
9.954593,-7.0822496,2.4663630000000003,-0.9508379000000001,0.8992285,0.47150070000000005
10.892871000000001,-6.296645,1.6093249,-1.0274928,0.7060031,0.39805725
10.887181,-5.302525,0.68042254,-0.7725175999999999,0.57131606,0.20162043
10.301522,-4.4069977,-0.49414408,-0.31578243,0.42067669999999996,0.007853981999999999
9.561905,-3.430939,-1.2838284,0.04300491,0.24233897,-0.13850933
9.233851,-2.476543,-1.6451325,0.29372147,0.027279496,-0.34133404
9.313914,-1.5717934,-1.4324892,0.42734388,-0.18030997,-0.61974895
8.788895,-0.8813247999999999,-1.1180729999999999,0.35280085,-0.38259363,-0.91465724
8.162456500000001,-0.9872825999999999,-1.0678523000000002,0.06482153,-0.38259363,-1.1297168
7.669978599999999,-1.3074448,-0.809087,-0.32749358,-0.42305034,-1.1313223999999997
7.9301133,-1.5628773999999999,-0.07999506599999999,-0.54733527,-0.5981767,-0.97960097
8.897649000000001,-1.6969718,1.2811565,-0.2848901,-0.6950599000000001,-0.9609608000000001
9.889911,-1.2918346,1.9761357,0.34215435,-0.73551667,-1.1824082
10.371902,-0.88083637,1.7275026999999998,1.0437591999999998,-0.81962407,-1.5273551
10.774435,-0.61029154,1.1999547,1.5170053,-0.9984854,-1.8552674999999998
11.566848,-0.58898324,0.5872977,1.6389165,-1.1645709,-2.085232
12.421807000000001,-0.9843424999999999,0.13463075,1.4978416,-1.0772696000000002,-2.2981622
13.24097,-2.0938156,-0.18464084,1.2524308000000002,-0.6482153,-2.500987
13.748685,-3.6280010000000003,0.26660874,1.0208780000000002,-0.003577925,-2.5409026000000003
13.921498000000001,-5.610514599999999,1.2823917999999999,0.8579863999999999,0.5191482,-2.445084
14.617626000000001,-7.174388400000001,2.7311810000000003,0.78611374,0.7219729,-2.3146732000000005
15.379087,-7.594791000000001,4.5669684,0.8324348,0.65383524,-2.2066022999999997
15.217535999999999,-7.3803472999999995,5.5955462,0.9644514999999999,0.38713148,-2.1342060000000003
14.267297,-7.108509,5.2437997,1.0309834,0.012374383999999999,-2.0357347
12.984714,-6.778205000000001,4.366870400000001,0.9202598,-0.3426605,-1.8339744999999998
11.922522,-6.501867,3.111696,0.65517914,-0.62053436,-1.4389889999999999
11.75124,-6.2020645,2.394623,0.36718237,-0.8558222,-0.90614
10.988103,-5.706445700000001,2.3858411,0.1499936,-1.1667002,-0.37646753
9.340911,-5.3305655,2.1632187000000003,0.00413643,-1.518035,0.0935671
7.700968700000001,-4.8453474000000005,1.7715368000000002,-0.12095132,-1.7229891,0.41188025
6.3125043,-4.6028433,1.3039684,-0.3274761,-1.479184,0.5215393
5.446052,-4.4211617,1.0094816999999998,-0.62133723,-1.0197783999999999,0.7637560999999999
4.695077400000001,-4.3235455,0.91739106,-1.0535854,-0.4805415,1.1997218
4.220508000000001,-4.576641,0.53016245,-1.6109214,-0.080232784,1.7054310000000001
3.8442833,-4.9088125,0.11674127,-2.2374772999999997,0.06721263,2.19997
3.461872,-5.2848744000000005,0.020254945,-2.7389278,0.042184606,2.4773028
3.4134900000000004,-5.473145,0.09342175,-2.930024,-0.18615682,2.395866
3.820619,-5.7357793,0.32506555,-2.7000592,-0.11269591,1.9455185000000002
4.4495664,-6.1037300000000005,0.59790874,-2.1916797000000003,0.21945770000000003,1.4366155
5.968314,-6.560869,0.6406309,-1.7690308000000001,0.55428165,1.2694652
7.683453,-6.901794000000001,0.63240445,-1.6391259999999999,0.67619294,1.338144
7.8077309999999995,-6.860537,0.5096202,-1.6380788,0.8965755999999999,1.3604841
8.1866665,-7.1798754,-0.27183765,-1.6018631,1.2787852,1.2444546
8.277282000000001,-7.295295200000001,-0.89479935,-1.5294669,1.6684474999999999,1.1209551000000002
8.439542,-7.3225417,-1.211083,-1.4703876,1.8345330000000002,1.1342546
9.447577,-6.9829669999999995,-1.1473302,-1.4139435,1.7099688999999998,1.1427717
12.141256,-6.3369346,-0.9497703000000002,-1.3064313,1.3522462,1.1039033
14.421408,-4.812058,-0.2271427,-1.0652791000000001,0.7326194,1.0538821000000003
14.266243,-3.4581660000000003,0.08913134,-0.7112915,0.13747959,1.0123608
12.648079,-2.7485722999999997,-0.36667678,-0.2891487,-0.40814525,0.92451835
11.856709,-2.6392817,-0.8431325000000001,0.044593163,-0.73551667,0.7962191999999999
11.747917,-2.6452862999999995,-0.66894954,0.30649728,-0.7648033000000001,0.7083941999999999
11.605442,-2.2717717,-0.45577937,0.44169047,-0.75841534,0.66952574
10.320397999999999,-1.7628220000000001,-0.46653414,0.47151816,-0.75841534,0.64718556
8.892956,-1.3450912,-0.60981274,0.43851396,-0.78077304,0.5236685999999999
8.231553,-0.9089921999999999,-0.56031984,0.43586108,-0.6636614000000001,0.29211575
7.8909345,-0.65437365,-0.33229604,0.41348594,-0.53590333,0.12709488
7.7831282999999996,-0.47940537,0.23295583,0.26017624,-0.36501816,0.09354965
8.096366999999999,-0.4406959,0.7730111,-0.008080875,-0.07810348,0.13561209
8.871072,-0.5215816,1.1355698,-0.2928837,0.27960175,0.08450884
9.614511,-0.8574210999999999,1.4662761999999998,-0.43130577,0.41748276,-0.08742354
9.870719,-0.6910335999999999,1.573048,-0.23593360000000002,0.31740558,-0.31738812
9.723744,-0.49557102,1.4009143999999998,0.25487044,0.26043802,-0.7272787
9.889461,-0.40889135,1.1420534,0.81805325,0.26256734,-1.3288064
10.831809,-0.7472495,1.0456629000000002,1.2471075,0.31634092,-1.9313987000000001
11.623858,-1.0670478,1.2352836,1.4302275,0.4605924,-2.2774103
11.644449,-1.4990385,1.2080662,1.4355508,0.6612878000000001,-2.3460715
11.914026,-2.4732293999999997,0.91346455,1.3951114,0.91999793,-2.2885804
12.575247000000001,-3.684571,1.1306187,1.4627081,1.0690491000000002,-2.299227
13.377946,-4.539923,1.7061560000000002,1.6144121,0.983877,-2.4142091
14.031794,-5.02405,2.5170052000000003,1.7171596000000002,0.6602231,-2.606911
14.76396,-5.234136599999999,3.4567676,1.7623986,0.46539205,-2.7415981
15.5155,-5.420147,4.1094556,1.7421702000000001,0.35892695,-2.4658535
16.025167,-5.7258005,3.9048182999999996,1.7134421000000002,0.45261624,-1.9436335999999999
15.593991,-6.346512000000001,3.114684,1.6751146000000001,0.4041659,-1.3969266000000002
14.184783,-7.092774400000001,2.1100004,1.5526624,0.10499900599999999,-1.0040879
12.595407000000002,-7.4494243,1.4311771,1.3743421,-0.27026424,-0.8055218000000001
11.20927,-7.2445,1.0720565,1.1635412,-0.575819,-0.7033153
10.121852,-6.3555136,0.82933235,0.8681093000000001,-0.804719,-0.60110885
8.952581,-5.469496299999999,0.29854736,0.38954005,-0.98464495,-0.49305552
7.875363,-4.5482073,-0.7325204000000001,-0.17151349999999999,-1.0075437,-0.32429963
6.671251299999999,-4.078608999999999,-1.1894969,-0.7757116,-0.8010014,0.028605945
5.2858515,-3.9783206,-1.2911068,-1.3836271999999998,-0.44912559999999996,0.43849653
4.471525700000001,-3.9539665999999998,-1.1066766000000001,-2.0256116000000004,-0.18137461,0.8260294
4.155424,-3.7855203,-1.2031151000000002,-2.4567778,-0.05681047,1.1076382
4.5033975,-3.710553,-1.4126940000000001,-2.5653896,-0.09087929,1.4190399999999999
5.4391475,-3.7190282,-1.4333128000000002,-2.2236366000000003,-0.22715460000000004,1.6069596000000002
6.081684,-3.652575,-1.2855235,-1.6423372999999999,-0.47680649999999997,1.5920545
6.649445500000001,-3.6370606,-1.4251438,-1.1302229,-0.71848226,1.4669666000000001
7.267657000000001,-3.8429712999999994,-1.7562426,-0.74644244,-0.9053372,1.3764538999999998
8.025402,-4.459239,-1.8989658,-0.38976693,-0.9708045,1.3833829
8.453706,-4.957166,-1.9412474999999998,0.029688051,-0.84624034,1.359437
8.727545,-5.2831697,-1.877102,0.25326473,-0.5933944999999999,1.2902347
8.969676,-5.5047584,-1.5008101,0.1558579,-0.30380946,1.2481722
9.105704,-5.5008125,-0.7990217,-0.17844246,-0.13931218,1.2513486999999999
9.233804,-5.2549470000000005,0.33257377,-0.5558525,-0.08075638,1.2774413999999998
9.892257,-4.533478700000001,1.3017945,-0.81828016,-0.02539454,1.2896936
10.596936999999999,-3.9453473,1.5162671,-0.98010707,0.020367993,1.1943986
10.895217,-3.6983330000000003,1.2710433,-0.972672,-0.003036873,1.0245955
10.926878,-3.7333171000000003,1.0469556999999998,-0.8241445,-0.07969173,0.86915654
11.036628,-3.4651568,1.034659,-0.66818184,-0.17498670000000002,0.741922
11.411283000000001,-3.0145297,0.6133945,-0.5782101,-0.30220374,0.6290865
10.999604,-2.3936174,-0.32413658,-0.58033943,-0.37247070000000004,0.50611055
10.058558,-1.6250787,-1.3116968999999998,-0.62931335,-0.37407643,0.45020768
9.21692,-0.6608859,-1.8092887,-0.62666047,-0.25270623,0.5151514
8.702263,-0.08777143,-1.8314110000000001,-0.47973865,-0.15102334,0.5896769000000001
8.59958,0.05299805,-1.4444888999999999,-0.27371999999999996,-0.27132890000000004,0.53963834
9.03631,-0.0141257895,-0.977294,-0.12945107,-0.43156755,0.30435053
9.134454,0.09492531,-0.4845098,-0.042690754000000004,-0.34639549999999997,0.039793506
9.073574,0.28066748,-0.35850775,-0.07037167,-0.14463544,-0.029932396
9.010033,0.42823648,-0.42321822,-0.27106708,0.062412973,0.058957222999999996
9.270282,0.47898397,-0.6573329000000001,-0.5483998999999999,0.27108455,0.25432938
9.465945,0.16822618,-0.9090497,-0.5957856,0.44675192,0.37941712
9.627563,-0.24083754,-0.7453724,-0.19971803,0.3647738,0.26549947
9.915778,-0.6210272,-0.33680674,0.43638468,0.14332643,-0.15395549
10.60346,-0.9398965,-0.0626802,1.0426946,-0.19999728,-0.6921451999999999
11.647101,-1.3543711999999999,-0.30901483,1.4030876,-0.52790976,-1.1238523999999999
12.7500725,-1.6377298,-0.5046307,1.5633088,-0.67963123,-1.3351943000000002
12.933506,-1.8329625,-0.35306814,1.6362462,-0.45764279999999996,-1.3218775
12.607014,-2.2530107000000004,-0.7470675999999999,1.6532806,-0.03817035,-1.265451
12.471885,-3.0518122,-0.8907867,1.6431577000000002,0.2652377,-1.2819618
12.415668499999999,-4.0876875,-0.5426506,1.7464463,0.32272884,-1.3511641
13.002267999999999,-4.529973,0.35123897,1.9801284,0.18325958,-1.4656053999999998
13.946053,-4.504336,1.1647025,2.2670605,0.010245083,-1.6263676
14.52408,-4.5414653,1.4165725,2.4618742,-0.041905355,-1.6114625
13.98257,-4.4786605999999995,1.2371798,2.5183008,-0.18296286,-1.339453
12.933276,-4.6568656,0.72210085,2.3080409,-0.42144465,-0.80658644
11.917302000000001,-4.657278,0.5068332999999999,1.5909898,-1.0043497,0.03286455
11.16263,-4.3873653,0.49077305,0.96925116,-1.5356104,0.5156924
10.446276,-3.970065,0.25945488,0.9357059000000001,-1.9375074,0.5242095999999999
