accx,accy,accz,gyrx,gyry,gyrz
7.8851595,-6.9218674,-4.392996299999999,-0.11376056,0.78401935,-1.0372841
8.945235,-6.758774000000001,-4.3104343,-0.02698279,0.50506335,-1.2480848999999998
10.453123,-6.374332,-4.4867725,0.038467057,0.10955431,-1.4929546
11.983516,-5.824163400000001,-5.038138,0.11618657,-0.27583185,-1.9555367
13.417461,-5.2423725,-5.7133026,0.31262338,-0.7022158000000001,-2.4718923999999998
14.208927,-4.899072599999999,-5.9313283,0.5276654000000001,-1.2249768,-3.0036943
14.663193,-5.178189,-5.9434237,0.62721896,-1.7019229,-3.4433949999999998
13.306849,-5.549597,-5.219168,0.560146,-2.041023,-3.675489
12.210726,-6.460179,-5.8212523,0.37117916,-2.1118135,-3.6595016000000005
11.101521,-7.1501206999999996,-5.959072,0.058695424,-1.8621616,-3.5301552000000003
10.299166,-7.261547,-5.763954599999999,-0.3123092,-1.2574223999999998,-3.4029207
10.143275,-6.8222394,-5.4952674,-0.5949653,-0.5701991,-3.3715224000000004
10.432628999999999,-6.666549000000001,-4.8143473,-0.7323052,-0.14220943,-3.4045265
10.252872,-6.994975999999999,-4.2496504999999996,-0.8281238000000001,0.03609341,-3.4322072999999995
9.919638,-7.9022064,-4.496033000000001,-0.8637984000000001,-0.0474555,-3.4577591
9.6401,-8.997611000000001,-5.123361599999999,-0.81854194,-0.2923252,-3.4694703000000002
8.9022455,-9.743903,-5.547557,-0.6966482,-0.5084493,-3.3949447
8.065069,-9.668792,-5.467265,-0.5529203,-0.62397265,-3.2267299
7.785771400000001,-9.200007000000001,-5.264313700000001,-0.479983,-0.6564358,-2.95205
7.79667,-8.8718195,-4.9419002999999995,-0.45764279999999996,-0.57499874,-2.5751636
7.893731,-8.874606,-4.62781,-0.45443138,-0.45467573,-2.0795598
7.516423700000001,-8.998013499999999,-4.628605,-0.50181705,-0.28593728,-1.4641916000000001
6.8538527,-9.038714,-4.6095467,-0.5699373000000001,-0.08204792400000001,-0.7561988000000001
6.1751347,-9.096579,-4.358098,-0.5837777,0.14683455,0.021519909
5.603045,-9.203321,-3.9381647000000006,-0.51724577,0.5056219,0.87215847
4.869710400000001,-9.144434,-3.4478898,-0.37885863,0.8218056999999999,1.6190023
4.182766,-9.1287365,-3.3481474,-0.33892548,0.9937556000000001,2.1694443
3.4533102999999996,-8.98064,-3.4707687000000007,-0.32135,0.9836501,2.6464078
2.733278,-8.946203,-3.5140848,-0.23565435,0.90060735,2.983361
2.009779,-8.961181,-3.7208288,0.029443703999999998,0.7872133000000001,3.2005672
1.3261197,-9.064323,-4.031922,0.44518113,0.58332396,3.3165967000000003
0.6873657,-8.977855,-3.9349663,0.89074624,0.32196090000000005,3.3070322999999995
0.34782959999999996,-8.886559,-3.6288437999999994,1.2724148000000002,0.14844026,3.1595695
5.7460842000000005e-05,-8.302239,-3.0228999,1.4853450000000001,0.15481070000000002,2.9503744
1.2817694,-8.214909,-3.4184699999999997,1.3671688,0.27033404,2.7363619999999997
2.3003970000000002,-8.578367,-4.234462000000001,0.8588066999999999,0.41938516,2.6208563
2.9882414,-8.245047,-4.084278,0.20191714,0.5545958000000001,2.6592011
4.352601,-8.795099,-3.9775257000000006,-0.4752008,0.7110995,2.77736
5.5483712999999995,-9.400785,-3.8536879999999996,-0.8834857,0.8287346999999999,2.9035296
6.8475413,-10.002496,-4.2146764,-1.0447716,0.9021956,3.0445870999999998
7.930869599999999,-10.078258,-4.8607655,-1.0176315999999999,0.9197711,3.1334944
8.686967999999998,-9.47897,-5.3889837,-0.87549204,0.8479158000000001,3.1467937999999998
8.6849575,-8.413503,-6.0634117,-0.67001444,0.6738367,3.0307467
7.967032000000001,-7.206336500000001,-7.088445699999999,-0.45495498,0.36030576,2.775248
6.973486,-6.4027275999999995,-7.727688000000001,-0.32454398,0.028658306,2.454247
6.2132214999999995,-6.1266665,-7.816178,-0.17175785,-0.33969343,2.1124942000000004
6.072566999999999,-6.446292400000001,-7.017214,-0.015795228999999997,-0.58775705,1.7808467000000001
6.173392,-6.886423,-5.6140870000000005,0.11993903,-0.6239551999999999,1.3432752000000001
6.3242745000000005,-7.113825,-4.4921737,0.16732472,-0.41367793,0.8327839
6.711675,-7.0875262999999995,-3.7236540000000002,0.18435913,0.05368633,0.24350834
7.27957,-6.818925999999999,-3.4040567999999998,0.25354397,0.44226643,-0.3058515
8.126457,-6.374524,-3.443628,0.18329448,0.5263913,-0.8658404000000001
9.000034,-6.0578957,-3.9746620000000004,0.28602457,0.27033404,-1.2177162
9.835027,-6.0542755,-4.5786047,0.32649875,-0.15709709,-1.562122
10.611446,-6.0236483,-4.790271,0.18594737,-0.6053151,-1.992241
11.565919000000001,-5.979863,-4.9759746,0.16413076,-0.97368425,-2.452711
12.677844,-5.724297,-5.0882053,0.23546237,-1.3196958,-2.9179635
13.722836,-5.653859,-5.429264,0.27220154,-1.599699,-3.318796
13.526779999999999,-5.200158,-4.964253,0.23172736,-1.7098991000000001,-3.5711180000000002
13.173329,-5.0529722999999995,-5.3920293,0.076829396,-1.5166562,-3.6499023
12.261502,-6.1888676,-6.1866074,-0.14407693,-1.0625913,-3.6254153
11.069257,-6.4447410000000005,-5.920200299999999,-0.32239723,-0.473822,-3.6195510000000004
10.702503,-6.3492120000000005,-6.397929,-0.41662756,-0.006981317,-3.6924884
10.708412,-6.6511497,-6.354355,-0.46134287,0.19741419,-3.819182
10.600184,-7.096825599999999,-5.3030800000000005,-0.5119051,0.18092082,-3.9150004000000003
10.559904,-7.998683,-5.0057683,-0.5102994000000001,-0.012304571,-3.9208472000000003
10.285960000000001,-9.056614,-5.1229024,-0.45547858,-0.33382913,-3.8106647000000002
9.796000999999999,-9.620898,-5.161228700000001,-0.3639186,-0.6723880999999999,-3.5913464999999998
8.96753,-9.547253,-5.0623192999999995,-0.27661723,-0.89011794,-3.2783391
8.397575999999999,-9.069599,-4.668042,-0.23136084,-0.9236281999999999,-2.8721662
8.049325,-8.6507015,-4.207436,-0.28139943,-0.7740535,-2.3137654999999997
7.716713400000001,-8.519948,-4.18064,-0.40329322,-0.44985859999999994,-1.6190721000000001
7.355859,-8.739296000000001,-4.4520183,-0.50284684,-0.07298967,-0.930243
6.6533237000000005,-9.205198,-4.673328400000001,-0.4895474,0.28258625,-0.25312510000000005
5.6753883,-9.457077,-4.451864700000001,-0.34527847,0.53970814,0.4021413
4.738585,-9.620764999999999,-4.1414905,-0.18184586,0.77127844,1.1112162
3.9715977,-9.623628,-3.7903660000000006,-0.070598565,0.9054245000000001,1.6579057000000001
3.3770692,-9.624077999999999,-3.6507459000000004,-0.024294984,0.93788755,2.1050591
2.6293794999999998,-9.438354499999999,-3.6727819999999998,-0.03440044,0.8362046999999999,2.6240674999999998
1.9643370999999998,-9.218883,-3.8662047,0.03052581,0.72654563,3.1063544999999997
1.3852947,-8.945321,-3.8786160000000005,0.21258110000000002,0.60730475,3.406586
0.9867367,-8.606686,-3.5745335,0.5740388000000001,0.41142645,3.5615015
0.8922711,-8.329964,-3.1430217999999996,0.97275925,0.133029,3.4917754999999997
0.7961965,-8.193629,-3.0789720000000003,1.1979241000000003,-0.022410028,3.2857568
0.63488483,-7.6272945000000005,-3.0672884,1.1867366000000001,0.05635668,3.0147946
1.7814776999999997,-7.8269515,-3.8443407999999994,0.83753115,0.29112092,2.8072049999999997
2.6539629000000002,-8.638356,-4.7722955,0.22429226,0.56047755,2.7087162
2.5299622999999998,-8.547348,-4.660591,-0.49378854,0.78831285,2.6746647
4.0317206,-9.092153999999999,-4.455638400000001,-1.0447540000000002,0.99537873,2.6709297000000003
5.4783163,-9.857455,-4.6197367,-1.2986646000000002,1.1215485,2.7289445
7.2854410000000005,-10.481383000000001,-4.9080176,-1.3290159,1.1997917,2.8236982999999998
8.736183,-10.453917500000001,-5.714251,-1.2081692,1.1603996,2.907282
9.46064,-9.6866045,-6.4558215,-0.9995152,0.98525584,2.9179112999999997
9.281994000000001,-8.446571,-7.1176744,-0.74504614,0.69303536,2.8444679
8.400824,-7.218403299999999,-7.700241,-0.51296973,0.31026718,2.6884878
7.439455000000001,-6.364851,-7.725533,-0.2978928,-0.12620476,2.4936566000000004
6.920660000000001,-6.1222515,-7.298341000000001,-0.08922123,-0.5360953,2.3068192
6.6085424,-6.410743,-5.8398986,0.022008602000000002,-0.81876886,2.0736606
6.318691,-6.715103599999999,-4.5058489999999995,0.070999995,-0.9028588,1.7031621
6.158155000000001,-6.901411,-3.5806148,0.05503023,-0.60369194,1.0995051000000002
6.3352876,-6.909388000000001,-3.1199512,0.0198793,0.09203121,0.35477307
6.7819495,-6.672602,-2.9786744,0.04543092,0.7771253,-0.42931607
7.317408,-6.2359858,-3.0993037,0.052883476,1.0081545,-1.1314621
8.046031,-6.0768,-3.629332,0.34780923,0.669613,-1.4817147
8.904264999999999,-6.157398000000001,-4.0905895,0.49471357,0.052098077,-1.7478949000000001
9.943425999999999,-6.3384385000000005,-4.6677165,0.5522222,-0.5664465999999999,-2.038527
11.399896,-6.413750599999999,-5.2740912,0.7944215,-1.2025667,-2.4500234
13.124592999999999,-6.0708337,-5.4795136,1.0345091,-1.829105,-3.0291933999999996
14.855667,-5.733921499999999,-5.5472884,1.0781597,-2.2799932999999997,-3.5226504999999997
14.706422,-4.766261599999999,-4.6113954,0.9078156,-2.4258506,-3.8612094
14.564762,-5.2330737,-5.063889499999999,0.53305846,-2.1804397,-3.9309528
12.984541,-7.0595336,-5.694283,0.072064646,-1.6087223,-3.7898777000000003
11.114094999999999,-7.4888997,-5.503571,-0.2957635,-0.9369276,-3.6285917999999997
10.243927000000001,-7.5642314,-6.163776400000001,-0.63378143,-0.3162362,-3.5705597
9.765125,-7.232164999999999,-5.4503427,-0.90846133,0.08566076,-3.5929173999999997
9.886377,-6.9997454,-4.4888983,-1.0851933999999999,0.25333455,-3.5827943999999996
10.058549000000001,-7.2863507,-4.581104,-1.1394906,0.19903734,-3.5151977999999997
9.88448,-8.057638,-5.148501,-1.0931870000000001,-0.011222467,-3.408209
9.295067,-8.720784,-5.631851999999999,-0.9180431999999998,-0.29335493,-3.210184
8.253991000000001,-8.778417,-5.609452,-0.6380399999999999,-0.59356904,-2.846056
7.4519910000000005,-8.570208000000001,-5.204104,-0.39049998,-0.72719145,-2.4265835
7.208156,-8.220971,-4.7660704,-0.16001178,-0.70322806,-1.8836116999999999
7.203558999999999,-8.281697,-4.742157499999999,-0.03757694,-0.51480234,-1.3113706
6.9121466,-8.709483,-4.739686,-0.07749262,-0.19113101,-0.8200255
6.3238244,-9.305361999999999,-4.654558,-0.19940387,0.19530234,-0.38885936
5.798852,-9.854917,-4.3924503,-0.24731316,0.5381374,0.13494886
5.2619095,-10.407547000000001,-4.0796337,-0.15468854,0.7670373,0.8227133
4.246710299999999,-10.376479,-3.3473910000000004,0.0076619955,0.8383689000000001,1.4854497
3.3560769999999995,-10.108406,-2.849349,0.11838568,0.8261166999999999,1.9650836
2.6915709999999997,-9.789852,-2.6492991000000004,0.1348965,0.70315826,2.3819032000000004
2.1823533,-9.391544,-2.7638759999999998,0.17907079,0.5706005000000001,2.6757470000000003
2.1394205000000004,-8.796555499999998,-3.2589872000000004,0.3281219,0.48862237,2.879095
2.4048321,-8.403648,-3.9620974,0.63048273,0.39173916,3.0143058
2.1620502,-8.513111,-4.3540764,0.95041907,0.31136674,3.0350577999999997
1.2323722,-8.695798,-4.06749,1.1431034,0.23364723,2.9525561000000002
0.26429114,-8.201222,-3.4654825,1.0542138,0.2474877,2.821063
1.0632362,-8.195074,-3.8431437000000006,0.66242224,0.34117696,2.7130096000000004
2.1889324,-8.475023,-4.6271777,0.10082767,0.44338346,2.6927812
2.9341133,-8.200965,-4.8736463,-0.41231660000000003,0.5413313,2.7566602000000002
4.543678,-8.917099,-5.120613,-0.6412165,0.61852723,2.8343797000000004
5.7967167,-9.526337,-5.102561,-0.6369579000000001,0.6786713000000001,2.873772
6.961314,-9.817894,-5.087046599999999,-0.5379454,0.7340331,2.8285155
7.9233899999999995,-9.673839,-5.501396700000001,-0.42402774,0.7579965,2.6784172
8.236839,-8.928984,-6.141213400000001,-0.36227798,0.7138048,2.4851744
8.011813,-7.8699803,-6.8777275,-0.34843752,0.613204,2.34944
7.4139333,-7.0787735000000005,-7.360599499999999,-0.3159744,0.41090286,2.1987832000000003
6.785225,-6.744514,-7.328584700000001,-0.2664594,0.136764,1.9954348999999998
6.430232,-6.7320833,-6.217608,-0.19619246,-0.14109242,1.7372484000000001
6.440038700000001,-6.7065997,-4.732714,-0.13072516,-0.28801423,1.5264475
6.78217,-6.572303999999999,-3.7548456,-0.10197959,-0.2981197,1.2751899
7.364056599999999,-6.2886004,-3.5091144999999995,-0.10037389,-0.13044591,0.92333156
7.747876,-5.853028299999999,-3.6762009,-0.022130774,0.19586085,0.44636795
7.7614083,-5.554796700000001,-4.13741,0.05078908,0.4657411,-0.13278465
7.5982194000000005,-5.3096976,-4.413883,0.039077923,0.5402667,-0.7332477
8.008432,-5.2111906999999995,-4.7038116,0.21207495,0.28900906,-1.0893822
8.787008,-5.358137,-4.976894000000001,0.42608723,-0.14906856,-1.3778851
9.640903999999999,-5.653332700000001,-5.210942,0.6059958000000001,-0.64093727,-1.7297609
10.348248,-5.8166747,-5.29765,0.87430525,-1.2121311000000001,-2.2093773
11.369327,-6.032201000000001,-5.509786,1.0148392,-1.7662731,-2.7448967
12.42582,-6.1456475,-5.4809019999999995,0.9136973,-2.1660583,-3.2074962000000005
12.617308999999999,-5.6894089999999995,-4.8242974,0.5581039000000001,-2.2230084,-3.4640772000000006
13.207652,-5.9431650000000005,-5.4434185,0.10775663,-1.8903136999999999,-3.4795057999999996
12.421864999999999,-7.183802,-5.824211599999999,-0.28827602,-1.2658873,-3.393269
10.986225,-7.536956299999999,-5.467725,-0.5720142,-0.5334075,-3.3368425000000004
10.055714,-7.0944886,-5.222233,-0.72745323,-0.0005585053599999999,-3.3703877999999996
9.892085,-6.788653999999999,-4.881011,-0.75300485,0.19638444,-3.4236205
9.940648,-6.5507464,-4.5850782,-0.71574205,0.11920599,-3.4294672
9.944968,-6.936625,-5.259994,-0.6225764,-0.13788101,-3.3847517999999996
9.761026,-7.721587700000001,-6.047294,-0.5730789000000001,-0.4360007000000001,-3.293192
9.160388000000001,-8.4534855,-6.414181,-0.56028557,-0.70162237,-3.1952439999999998
8.432772,-8.525925,-5.8267975,-0.5405983,-0.7862534000000001,-3.0270292999999997
7.9768004,-8.251864999999999,-5.002148,-0.48258352,-0.74153805,-2.7518257999999998
7.766273,-8.144959,-4.457525,-0.42615703,-0.5765346,-2.3493876
7.4191713,-8.269477,-4.1485004,-0.42242205,-0.33218852,-1.8367495999999999
6.7993603,-8.623244,-4.1177397000000004,-0.48523644,-0.07773697,-1.2442627
6.1456,-8.893769,-4.0142527,-0.53527504,0.13678145,-0.6001489000000001
5.5733185,-9.0149355,-4.021943,-0.46287876,0.35608208,0.12112585
5.241137,-8.939776,-4.029298000000001,-0.2520779,0.60042816,0.8477413
4.959225,-9.033447,-3.8744888,-0.06682865,0.7979122,1.4322346000000001
4.5853367,-9.251329,-3.6686542,0.044942225999999995,0.85433865,1.9544544999999998
3.8991394,-9.308953,-3.4852394999999996,0.14714871,0.79313,2.3542397
3.1865482000000003,-9.256587,-3.5497870000000002,0.25733134,0.7079579,2.5884454
2.3730562,-9.10083,-3.8044437999999996,0.43247512,0.55145425,2.7263265
1.6141133,-8.845061999999999,-3.975974,0.71567225,0.30606094,2.800852
1.1470141,-8.839269,-3.8330976999999997,0.9456368,0.13730505,2.7572014
0.56898683,-8.598450999999999,-3.2096477,1.0936233,0.17617354,2.5708873
0.6981875,-7.9868274,-2.7884693,1.0600955,0.37313393,2.3286881
2.0149698,-8.351972,-3.8200731,0.7178015999999999,0.59510493,2.1572617999999997
2.4442215,-8.118441,-4.1071954,0.13330825,0.74735,2.1812252999999995
3.5749546999999997,-8.130173,-4.3830557,-0.5533915,0.88840747,2.3909613999999997
5.0600877,-8.547626,-4.877535,-0.98827523,0.93633425,2.6597946
6.2518926,-9.145649,-5.240198599999999,-1.1021929,0.93046993,2.8615372000000003
7.2315235,-9.450681,-5.522628299999999,-1.0489603,0.8660673000000001,2.9642847000000003
8.075192,-8.94943,-5.8750453,-0.89992666,0.7239277,3.0174997
8.361730999999999,-7.8123759999999995,-6.05394,-0.7125307,0.5126032,3.0153877999999996
7.857137700000001,-6.656666,-6.53935,-0.56028557,0.24005258,2.9211576
6.762135000000001,-5.806341000000001,-7.258377,-0.43093926,-0.10594148,2.7199385
5.4800596,-5.6031885,-7.7116755999999995,-0.29147,-0.50199157,2.459099
4.6511292,-5.8387975999999995,-7.084165,-0.19723965,-0.81873393,2.1838956
4.7352620000000005,-6.185401000000001,-5.553217,-0.17701129999999998,-0.9411688,1.8645003
5.2593336,-6.5035715,-4.352706400000001,-0.16849409,-0.7170510999999999,1.4381164
5.8260309999999995,-6.6486597000000005,-3.8545019999999997,-0.1828756,-0.08784242,0.8168839
6.140457,-6.479312999999999,-3.5770333,-0.042324234,0.6520725,0.15360643
6.761254300000001,-6.2712283,-3.7126883999999998,0.14236651,0.9789203000000002,-0.49207813
7.5992823000000005,-6.0073013,-4.131884599999999,0.2578724,0.9017417999999999,-0.9520073
8.713792999999999,-5.9702773,-4.6571913,0.50380677,0.36568138,-1.2240343
9.936138,-6.177634200000001,-5.1266370000000006,0.6017545999999999,-0.39978513,-1.4747683
11.116077,-6.2773285,-5.606397,0.68746775,-1.174851,-1.7813878
12.5567255,-6.2518544,-5.731555999999999,0.93499035,-1.8274819,-2.2785797000000003
13.948178,-5.994947,-5.4254427000000005,1.1335565,-2.3432965,-2.8854132000000003
14.780498999999999,-5.7810106,-5.014952,1.1058755,-2.6179764,-3.3826050000000003
13.874791,-4.8532863,-3.9264238,0.7838099000000001,-2.4050636,-3.6541085
12.97212,-5.7991395,-4.958813,0.34199727,-1.8221587,-3.7169056000000005
11.561782000000001,-6.979835499999999,-5.6823983,-0.041259582999999996,-1.1157541000000002,-3.6445093
10.575888,-7.371067,-6.0337806,-0.36332518,-0.43758896,-3.5822358
10.042594,-7.340058,-6.429714700000001,-0.61777675,0.010611602,-3.5864943999999994
9.99947,-6.9189940000000005,-5.547068599999999,-0.7652396,0.13199925,-3.5641366999999997
10.590608,-6.5809326,-4.529810400000001,-0.8956506,0.08248426,-3.4651243999999997
10.709638,-6.805814999999999,-4.6671705,-0.96005327,-0.105400436,-3.2724051
10.238306,-7.380816499999999,-5.2884088,-0.9350252,-0.33056536,-3.0493693
9.30359,-7.662412599999999,-5.565542,-0.83655375,-0.5349958,-2.8848722
8.353571,-7.6607747,-5.1898346,-0.6880437,-0.677659,-2.6559896000000003
7.599723299999999,-7.6367273,-4.747701999999999,-0.5357986,-0.64517844,-2.3136957000000002
7.3639417,-7.925468400000001,-4.756168,-0.41708133,-0.55894166,-1.8447083
6.9771442,-8.318481,-4.8725166,-0.43730968,-0.37423348,-1.3549688999999998
6.222933,-8.650998,-4.8537173,-0.57836723,-0.043650682999999996,-0.8354193000000001
5.431266,-8.902169,-4.677772,-0.6789854000000001,0.3779336,-0.29085913
4.849724,-9.10332,-4.3001394,-0.57838464,0.7750484000000001,0.41659263
4.69299,-9.216928999999999,-3.863006,-0.30796334,0.9586919,1.1389495
4.4634624,-9.162417999999999,-3.3899980000000003,-0.08810422,1.0561162,1.8224553
3.8860095,-9.154834,-3.0803703999999996,0.09393362,1.0545105,2.3782032
3.1423322999999996,-9.261633999999999,-3.1450713,0.35370842,0.93793994,2.659271
2.5355937,-9.104814,-3.511997,0.75188786,0.6909409000000001,2.7183504000000003
2.3162272,-8.831626,-4.1414905,1.2038233999999999,0.34651768,2.6278725
2.1194527,-8.793788000000001,-4.368987000000001,1.4923438,-0.016510814,2.4708278
1.6723595000000002,-9.017128999999999,-4.015814,1.4119713,-0.10168288,2.2690852
0.6901718000000001,-8.701908,-3.1058927000000005,1.0377554,0.12986995,2.1530383
0.7475463999999999,-8.90713,-3.0916903,0.46814966,0.45884705,2.1972125
1.6128588,-9.055015,-3.816032,-0.15198328,0.7431088,2.3782032
2.774717,-8.443517,-3.7331638,-0.5895548,0.9012008,2.6273315
4.643363,-8.615658999999999,-3.9616472999999996,-0.74127626,0.95284504,2.8306797
6.2870398000000005,-8.934452,-4.441282299999999,-0.72370076,0.977332,2.9552438
7.384742699999999,-9.060454,-5.5110980000000005,-0.5623974,0.9326167,3.0180583
8.084242,-8.724634,-6.823369500000001,-0.34679693,0.7500378000000001,3.0074291
8.134501,-7.911438499999999,-7.893606699999999,-0.19989257,0.47375217,2.9270394
7.4326362999999995,-7.221391000000001,-8.242509,-0.15091862,0.17406169,2.7577597999999997
6.4314294,-6.909187299999999,-8.295689,-0.16634732,-0.1277581,2.522472
5.504471,-6.834459299999999,-7.619461,-0.24460789999999996,-0.43544218,2.2387338
5.188848,-6.8773539999999995,-6.002014599999999,-0.27761206,-0.6776415,1.9560776999999998
5.3746285,-6.8370643,-4.633144000000001,-0.22650883,-0.78304195,1.7234428
5.7028356,-6.734966,-3.8344862,-0.0646819,-0.7250272,1.3737137
6.057339700000001,-6.461194,-3.4089887,0.10564478,-0.38912115,0.76686275
6.4003906,-5.96251,-3.6885648,0.17804104,0.10538298,0.06258751
6.8688974,-5.393399,-4.348426,0.17378244,0.46362928,-0.62887704
7.6230235,-4.993653299999999,-5.0435967,-0.0061086523,0.5275258,-1.2149584999999998
8.437895,-4.7384889999999995,-5.588162400000001,-0.05935865,0.24804619,-1.5423474
9.485339,-4.940866000000001,-5.9173365,-0.20521581,-0.13414600000000002,-1.7723119999999999
10.33891,-5.4420495,-5.7784247,-0.20839229999999997,-0.5445601999999999,-2.0672202
11.268186,-5.6655335,-5.3576584,0.12693779,-0.95658004,-2.455818
12.806001,-5.6299267,-5.173477,0.5251172,-1.4612246000000002,-3.0562809
14.629339000000002,-5.790376999999999,-5.697635,0.64381707,-1.7981952,-3.5763717000000006
14.658030499999999,-5.233974,-5.778636,0.41973424,-1.7923310000000001,-3.9197127999999997
13.986246,-5.6935554,-7.099105000000001,0.023666665,-1.4463195,-3.9814625
12.6724615,-7.095178,-7.818706,-0.36810738,-0.84585637,-3.8563747000000004
11.1675625,-7.6239232999999995,-7.7237234,-0.6193649999999999,-0.24593434,-3.751498
10.434401,-7.970364,-7.565303999999999,-0.7668104,0.19268435,-3.6897483
10.167819999999999,-7.8312807,-5.774814599999999,-0.83068943,0.35398766,-3.6285222000000004
10.200898,-7.4355955,-4.343005000000001,-0.8232369,0.27893853,-3.5055635
10.507127,-7.5643272,-4.535700299999999,-0.79449135,0.057473693,-3.2910452000000006
10.162621000000001,-8.161249,-5.8148550000000006,-0.75136423,-0.18151425,-2.985473
9.276525999999999,-8.554875,-6.38592,-0.67258006,-0.34653512,-2.6373322
7.956995,-8.580378,-6.1139483,-0.5501451999999999,-0.48226938,-2.2657689999999997
7.073085000000001,-8.32531,-5.3546033,-0.42238712,-0.52326715,-1.8564194
6.697539999999999,-8.226056,-4.8414779999999995,-0.31379274,-0.48600438,-1.3475163000000001
6.259707499999999,-8.421135000000001,-4.729104,-0.28932324,-0.32311282,-0.7156373
5.4816970000000005,-8.568475,-4.6053904999999995,-0.40109409999999995,0.03885103,-0.019355701
4.5423465,-8.513782,-4.340496,-0.5788908,0.52061427,0.63219315
3.6895415999999996,-8.373251,-4.022144,-0.78330374,0.90441215,1.2150807
2.9152377,-8.296713,-3.6807883,-0.8573056999999998,1.1311828000000002,1.7894686000000002
2.6619215,-8.206767999999999,-3.3418843999999996,-0.7343298,1.1231891999999999,2.220652
2.4469220000000003,-8.448315,-3.2407436,-0.53949875,0.9682912,2.504914
2.0515628,-8.477974,-3.2809470000000003,-0.29197612,0.77291906,2.769471
1.5188336,-8.360733999999999,-3.4433792000000003,-0.003979351,0.5791526,3.0505388
1.1044452,-8.218853999999999,-3.8779745,0.37021923,0.34866443,3.2730682
1.0737995,-8.047189999999999,-4.507505999999999,0.8407949,0.16980308,3.3683457000000003
1.4604343000000002,-7.824462,-4.877324,1.1197508999999999,0.0628144,3.3289537000000005
1.4918653999999998,-7.788539,-4.9178147,1.0920524999999999,0.07717845599999999,3.1985428
1.5125034,-7.404499499999999,-3.9790387000000003,0.658216,0.23954643,3.0431037
2.6198409,-7.7702,-3.6450765,-0.0029146996999999996,0.46099383,2.9680371
3.6948757000000003,-8.46832,-3.8638199999999996,-0.7577520999999999,0.77133083,2.9265158
4.4594398,-9.295095,-4.10165,-1.2251338999999999,0.99543107,2.949938
5.513358,-10.223767,-4.5498357,-1.3544976999999998,1.1269242,3.0361748
6.816942999999999,-10.801326,-4.874566000000001,-1.1894767,1.1349177,3.0957952
8.073449,-10.633608,-5.502785,-0.86847585,1.0060950000000002,3.0590734
8.892036000000001,-9.907446,-6.736757000000001,-0.47935468,0.72022754,2.8711537999999996
9.102506,-8.846432,-7.877105,-0.26801276,0.34653512,2.5741162
8.627439,-7.594197299999999,-8.475264,-0.26803023,0.0021118484,2.2701497
7.927431599999999,-6.6824946,-8.396992,-0.26481882,-0.37421605,1.9949462
7.510812,-6.6105633,-7.296837299999999,-0.19242255,-0.6446199,1.7836218000000001
6.900616,-6.831749,-5.4283733,-0.11843804,-0.71862185,1.5871848999999998
6.681863000000001,-6.981808,-3.7918312999999997,-0.10937978,-0.58608156,1.3215633999999998
6.798364,-6.865297,-2.7143161,-0.1285435,-0.24059364,0.89570296
7.366049,-6.4164033,-2.3990283,-0.15941837,0.19854866,0.31173325
8.134032000000001,-5.777266,-3.093117,-0.0055676005,0.52487284,-0.25038493
8.566492,-5.3291197,-4.298521,0.099815376,0.5871462,-0.7693935000000001
9.059803,-5.1417589999999995,-5.2509346,0.15304792,0.45406485,-1.1542735
9.467133,-5.342221,-5.3099947,0.39472365,-0.022881266,-1.4007313999999997
10.052152,-5.413367,-5.067175,0.42240459999999996,-0.5493424,-1.7573894
10.816735000000001,-5.2172336999999995,-5.006793,0.46232027,-0.998084,-2.1545042999999997
12.063626,-5.1294336,-5.076081299999999,0.65610415,-1.4047806,-2.6128278
13.264223000000001,-4.993156,-5.1963367,0.82164866,-1.795525,-3.097785
13.624425,-4.954724,-4.9110629999999995,0.7811745,-2.0063256999999997,-3.5183394
12.651814,-4.427683999999999,-4.0966705999999995,0.5671971,-1.9110308,-3.7445690000000003
12.131468,-5.6110225,-5.412246,0.29145253,-1.4494958999999998,-3.817489
10.937355,-6.633136,-5.5015116,0.02794272,-0.75588465,-3.8441050000000003
10.586222,-6.961303999999999,-5.6614923,-0.21478021,-0.11655309,-3.924495
10.76639,-7.328489,-6.2873845,-0.4096113,0.21825342,-4.0479946
10.774875,-7.594360000000001,-5.46896,-0.53204614,0.28000316,-4.1336904
10.828371,-7.889325599999999,-4.7738757000000005,-0.586867,0.1314931,-4.0746107
10.808805,-8.324438,-5.009780999999999,-0.60657173,-0.10538298,-3.8313292999999997
10.351264,-8.718351,-5.4580903,-0.61667717,-0.3678107,-3.4469903
9.491832,-8.831463000000001,-5.296118,-0.6278473000000001,-0.52804935,-3.059981
8.749217999999999,-8.447137,-4.776413,-0.626259,-0.49717449999999996,-2.6655366000000003
8.273087,-8.103587,-4.449423,-0.5969724000000001,-0.35077628,-2.1379932999999998
7.879442,-8.188065,-4.588478,-0.5336344,-0.19268435,-1.5950215
7.350822,-8.71003,-4.9014573,-0.42771038,0.014905112,-0.96476567
6.6425399999999994,-9.349387,-4.9480580000000005,-0.24724334,0.25392795,-0.33341023
5.486399700000001,-9.737985,-4.788020599999999,-0.05508259,0.50357985,0.34794885
4.228208,-9.758977,-4.4851727,0.09929178,0.6355966,1.0218729
3.5287564,-9.520686,-4.1656713,0.25312510000000005,0.6361376,1.6973851000000002
3.4193222999999997,-9.569892999999999,-4.019405,0.34203216,0.5791875,2.2094996
2.9899937999999997,-9.408935000000001,-3.7105050000000004,0.38833576,0.50199157,2.7242496
2.1572907000000003,-8.984645,-3.3047836000000004,0.48628363,0.42586035,3.1022005
1.5234497,-8.739104,-3.0453672000000003,0.67685616,0.34335864,3.3103309999999997
0.85517055,-8.227751,-2.6576310000000003,0.98986346,0.22996458,3.3039432
0.50918925,-7.867327700000001,-2.5496812,1.2640198,0.03939208,3.0665259999999996
0.4928129,-8.036809,-3.0238001,1.2496383,-0.038292522999999995,2.7423487
0.29736942,-7.852272999999999,-3.3774523999999997,0.90895003,0.14585717,2.459675
1.4262354,-8.0637,-4.091489299999999,0.29197612,0.49080405,2.3787615
2.824478,-8.899803,-5.051354,-0.47294933,0.86610216,2.4634101000000004
3.3187754000000003,-8.712864,-5.02904,-1.0260267,1.098196,2.5666811000000003
4.827975,-8.983591,-4.970066,-1.2501445,1.149823,2.6805987
6.586199799999999,-9.517919000000001,-5.26732,-1.1953062,1.1423877,2.770553
8.283153,-9.598125,-5.7868333,-0.94246036,1.0508103000000002,2.8301735
9.536403,-9.298064,-6.8272004,-0.6076189000000001,0.78572977,2.8056865
9.91029,-8.506378,-7.9113809999999996,-0.31164598,0.3588048,2.6944392
9.045629,-7.446197,-8.443487,-0.14397220000000002,-0.0755553,2.5081252999999997
7.719031,-6.733453,-8.532829,-0.09019861,-0.41784927,2.2584734
6.656790700000001,-6.493994,-7.8538914,-0.08967502,-0.645161,2.0045455000000003
6.264304,-6.6004114000000005,-6.191836400000001,-0.11681489,-0.7383092,1.7282773
5.941834,-6.555698,-4.3500442999999995,-0.14981906,-0.7340505999999999,1.4530565
5.8623465999999995,-6.5316505,-3.1180742,-0.19826939999999998,-0.5589068,1.1113034
6.042314,-6.374773,-2.5543642,-0.23338543,-0.21237166,0.66149724
6.567142,-6.050607,-2.7438414,-0.19559905,0.28747317,0.13343042
7.221534700000001,-5.614882,-3.6003046000000003,0.029024825,0.6238854,-0.41112974
7.9482803,-5.0262720000000005,-4.449921,0.11526154,0.6313554,-1.0009463
8.736614,-4.776653,-5.0337515,0.29838148,0.36997488,-1.3698391
9.647991000000001,-4.7980285,-5.293493700000001,0.46553168,-0.088872164,-1.6988162
10.543068,-5.053039,-5.502393,0.47191957,-0.54454273,-2.1119008
11.441919,-5.100272,-5.5317745,0.594878,-1.0497108999999998,-2.573959
12.4945345,-5.2891072999999995,-5.5572870000000005,0.74605846,-1.5160278999999999,-3.011548
13.648960999999998,-5.719566,-5.5883927,0.8221896999999999,-1.876421,-3.4134452000000004
13.577029000000001,-5.616653400000001,-4.7710023,0.7029488,-1.912078,-3.6300928999999997
13.345184,-5.6006602999999995,-4.6697372999999995,0.46926668,-1.618758,-3.629028
12.58537,-6.8677773,-5.8918624,0.26696557,-1.1535229999999999,-3.5385504
11.088716499999999,-7.027767,-5.5789113,0.09663888,-0.5892581,-3.483171
10.626732,-6.8960667,-5.958057,-0.07049385,-0.15646876,-3.5135224000000003
10.578856,-7.2285070000000005,-6.0489697,-0.24989624,0.05164429,-3.5768602
10.479574000000001,-7.749274300000001,-5.438161,-0.36859608,0.04579744,-3.5928302000000003
10.41607,-8.311385000000001,-5.3325190000000005,-0.42343432,-0.13039355,-3.5231042
9.956786,-8.883485,-5.4577837,-0.40639990000000004,-0.41039672,-3.3516953000000003
9.114612,-9.194846,-5.521422,-0.34730306,-0.68985885,-3.1015023999999998
8.139146,-9.02957,-5.100866000000001,-0.3201632,-0.8075114999999999,-2.822023
7.491619999999999,-8.444896,-4.4853163,-0.32335714,-0.8037765,-2.415326
7.312447,-7.99989,-4.286291599999999,-0.34784412,-0.7053050000000001,-1.8782187
6.9940953,-7.810920200000001,-4.585021,-0.43353978,-0.4902281,-1.2516629
6.485337,-7.938627,-4.736047,-0.53256977,-0.16605063,-0.6091548000000001
5.730397,-8.249566,-4.613933,-0.57939696,0.20814797,-0.00017453292
4.959857,-8.511406,-4.29741,-0.50380677,0.58983403,0.6593679
4.247438400000001,-8.688884,-4.0089182999999995,-0.3009995,0.83789766,1.3774662
3.7892262999999997,-8.764512,-3.78824,-0.06091199,0.9448863000000001,1.9630241000000002
3.4044495,-8.757549000000001,-3.7583699999999998,0.10037389,0.9081646000000001,2.3942251
2.6467322999999996,-8.827603,-3.7683394,0.16051793,0.77721256,2.7562065
1.9605926,-8.768897,-3.8308377,0.22439697,0.63507295,2.9877594
1.4988371999999999,-8.566004,-3.8359900000000002,0.4176224,0.4450415,3.0995476
1.3034608,-8.31103,-3.6397996,0.7162656999999999,0.19113101,3.0729313
1.2348622,-8.283881,-3.2873347,0.99892175,-0.05958554,2.8871586
0.8477101999999999,-8.372926,-2.9263562999999997,1.0803937,-0.04733333,2.5698925999999997
0.8095562,-8.11055,-2.6984856,0.8733103999999999,0.20975366,2.3133117999999997
2.0748918,-8.243677,-3.4703953000000003,0.37344809999999995,0.57972854,2.2212107000000003
3.0454917,-8.394436,-4.345811,-0.2578724,0.903906,2.2845487999999996
3.859865,-8.286217,-4.8579693,-0.8157494000000001,1.1125776,2.3947487
5.35966,-8.916132000000001,-5.2306795,-1.1048108,1.1950793,2.4969554
6.8197017,-9.705893,-5.5973086,-1.2144698999999999,1.221172,2.6050259999999996
8.318041000000001,-9.817252,-6.0838675,-1.2096703000000002,1.1972260000000001,2.7290492000000004
9.483624,-9.339042999999998,-6.6568575,-1.0819121999999999,1.0077181999999998,2.8216739
9.662816000000001,-8.309805,-7.2191405,-0.88921034,0.7335619000000001,2.8254087
8.711025,-7.148453999999999,-7.657088000000001,-0.6751981,0.37531559999999997,2.7301314
7.326851,-6.2955246,-7.8720775,-0.502201,0.022916173999999997,2.5757394000000002
6.226907,-5.895722,-7.410562,-0.34782666,-0.34278268,2.3686736
5.729353400000001,-5.8975606,-6.343351,-0.23657937,-0.6249151,2.1381679
5.6232805,-6.0053954,-4.9947453,-0.17748253,-0.7883303,1.7974971999999998
5.457037000000001,-6.1272793,-4.220096599999999,-0.16205382,-0.7100871999999999,1.366296
5.422330400000001,-6.2288413,-3.6910832,-0.13809045,-0.3273365,0.81002474
5.8723545,-6.111612,-3.461403,0.0040142573,0.16877334,0.31548572
6.466595,-5.832553400000001,-3.4828453,0.10143854,0.49933869999999997,-0.3333928
7.218183,-5.4789010000000005,-3.8499818,0.25900686,0.46794020000000003,-0.8300436999999999
8.11871,-5.3794645999999995,-4.302907,0.48045424,0.20603612,-1.2319582
9.022146000000001,-5.458808400000001,-4.7154183,0.5278225000000001,-0.054262288,-1.6658119999999998
10.434267,-5.7039075,-5.24447,0.6087359,-0.4045324,-2.1619394
11.890333,-5.7851,-5.5624199999999995,0.7796211,-0.9294053,-2.656461
13.034618,-5.8003273,-5.514497799999999,0.92015505,-1.5825598,-3.119584
13.899289000000001,-6.0426297,-5.3142853,0.89460343,-2.0211959999999998,-3.3846822
13.598051000000002,-5.571278599999999,-4.5359015,0.6955137,-2.1234024,-3.4613369
14.065523,-6.835101,-5.8593297,0.4224395,-1.8684098999999998,-3.4187510000000003
12.363992999999999,-6.991643400000001,-5.553063400000001,0.14402457,-1.368024,-3.3570010000000003
11.380474000000001,-6.420272,-5.6519537,-0.114144534,-0.76649624,-3.3351672
10.8470745,-6.069531400000001,-5.718522,-0.3100403,-0.28635618,-3.3389019999999996
10.131141,-6.168431,-5.154199,-0.4463156,-0.029234264,-3.3452900000000003
9.566692999999999,-6.608667,-4.8238664,-0.5426578000000001,0.03249803,-3.3410312999999996
9.057868,-7.284157799999999,-4.900912,-0.60227823,-0.051591933,-3.3463547
8.472591,-7.9853233999999995,-5.13857,-0.58417916,-0.23684117,-3.3495486000000003
7.9127600000000005,-8.352105,-5.062137,-0.50645965,-0.4007974,-3.2723527000000003
7.6787600000000005,-8.221036999999999,-4.634131,-0.3297276,-0.4897045,-3.0823212000000004
7.5764704,-7.9103565,-4.2515945,-0.12744394,-0.52270865,-2.7437622999999998
7.4776473,-7.9351983,-4.1401873,0.0024260078,-0.48596948,-2.2534819
7.223267999999999,-8.128333999999999,-4.1806498,-0.014590953,-0.32627186,-1.6987988
6.8514967,-8.406176,-4.33973,-0.1327672,-0.06436774,-1.1531738999999999
6.486055400000001,-8.657941000000001,-4.443907,-0.20462239999999998,0.21348867,-0.60379666
6.2508683,-8.876168,-4.345534,-0.20357521,0.5456597,-0.009215338
6.005759200000001,-9.146713,-4.0072613,-0.14554301,0.84004444,0.65725607
5.458531,-9.320416999999999,-3.6185007000000007,-0.08911651400000001,1.0018713,1.3301154
4.747682599999999,-9.503928,-3.3334660000000005,-0.16203637,0.99548346,1.8150551
3.9948788,-9.650768,-3.527138,-0.23390903,0.83685046,2.297883
3.1006923,-9.407086999999999,-3.9408176,-0.19664624,0.6047566,2.6678405
2.5456014,-8.919081,-4.4634529999999994,-0.08911651400000001,0.39927897,2.9217684
2.0947158,-8.391964,-4.5686636,0.089203775,0.27365017,3.0457916000000003
1.5938967,-7.9492283,-4.2752495,0.37985346,0.23425809,3.0548499
0.8647952,-7.738500599999999,-4.017049,0.6630505999999999,0.3055897,2.9388027
0.10810299999999999,-6.972394,-3.7154562000000007,0.80890775,0.46900487,2.800922
0.9944173000000001,-6.958096,-4.3631835,0.6917787,0.5925044,2.7152262
1.7720541,-7.507651299999999,-5.212637,0.30265754,0.64414865,2.7115085
2.3772316000000004,-7.6818247,-5.0393156999999995,-0.24720843,0.6787411,2.7908162999999995
4.084623000000001,-8.456511500000001,-4.965996,-0.70980793,0.73890257,2.8876996
5.564794999999999,-9.214794,-5.066744,-0.84287184,0.76605994,2.9180507999999996
6.984901400000001,-9.918115,-5.1284089999999996,-0.8125555,0.7463550999999999,2.907387
8.22077,-10.100285000000001,-5.2180667000000005,-0.7161959,0.66116565,2.8296673
8.63647,-9.349597,-5.483584,-0.6517932,0.5115909000000001,2.7072325
8.123622,-8.253953,-6.0741760000000005,-0.6384588999999999,0.34391713,2.5741687
7.407228999999999,-7.313731,-6.8833394,-0.6507111,0.15173893,2.4038072
6.740731200000001,-6.768389,-7.440517999999999,-0.6618987,-0.087790065,2.2329392000000006
6.2369432,-6.486783,-7.3016067,-0.5910907,-0.3949331,2.1041167
6.2584815,-6.37009,-5.956793,-0.45375070000000006,-0.63873816,2.005104
6.458761,-6.322780000000001,-4.6589922999999995,-0.32066935,-0.6866474,1.8336953
6.617602000000001,-6.118641,-3.906849,-0.16948892,-0.426349,1.3908004999999999
6.8951573,-5.7992735,-3.7746792,0.09985029,0.049008845999999995,0.684937
7.0815600000000005,-5.3582616,-3.9480864999999996,0.29414034,0.47113420000000006,-0.24928537
7.280595299999999,-5.0579233,-4.129002,0.4075344,0.5946336999999999,-1.0472325
7.892457,-5.263183000000001,-4.492987599999999,0.6646388000000001,0.36466908,-1.4837393
8.560545,-5.956831,-4.8126807000000005,0.6864729,0.029304077999999997,-1.8909770000000001
9.500422,-6.636669599999999,-4.975544,0.62524676,-0.36566392,-2.329072
10.664292,-6.7450600000000005,-4.9113793,0.7205417,-0.8447394,-2.75865
12.276039,-6.573778599999999,-4.813964,0.8137074000000001,-1.3259616,-3.1632173
14.189379999999998,-6.1628,-4.5214977,0.79719657,-1.7198997999999999,-3.4533434
14.863951,-4.8202367,-3.5568836000000004,0.66198593,-1.8609573,-3.5475562000000007
15.676620499999999,-5.476545,-4.889208999999999,0.43306854,-1.6634732,-3.520434
13.789126999999999,-6.663925,-5.3854213,0.13233086,-1.1992681,-3.490065
11.872653999999999,-6.678223599999999,-5.4971065999999995,-0.15406021,-0.6355441999999999,-3.5166988
10.982231,-6.460667,-6.214840000000001,-0.36484364,-0.19104373,-3.5747135
10.276095,-6.615744,-5.805144,-0.5357288,0.09850638,-3.6263404
9.872845,-7.0992293,-5.16866,-0.6501875,0.1826138,-3.6455040000000003
9.585588000000001,-7.993464,-5.3417224999999995,-0.7034026,0.08307767,-3.6077178
9.175021000000001,-8.726941,-5.532454,-0.6597519000000001,-0.10801843,-3.5230691
8.466797999999999,-8.947610000000001,-5.431457,-0.51443577,-0.3991917,-3.4309857000000004
8.074828,-8.633818,-5.1792426,-0.38613665,-0.62861526,-3.3000336000000003
8.026446,-8.3091345,-4.946871,-0.28818876,-0.761173,-3.03333
7.966026299999999,-8.288860000000001,-4.7890835,-0.27701867,-0.76010835,-2.5877821
7.735819,-8.560545,-4.8927526,-0.388807,-0.5450489000000001,-1.9447331
7.2994227,-8.974444,-5.0618978,-0.5288173,-0.11705923,-1.1978718000000002
6.744437700000001,-9.264306,-5.036462,-0.50007176,0.30079004,-0.31529373
6.077451,-9.379438,-4.7391309999999995,-0.29352948,0.5339486,0.5699546999999999
5.4390516,-9.521185000000001,-4.2711215,-0.060370937,0.66596526,1.4834251
5.0160728,-9.680878,-4.0221057,0.074298665,0.6941873000000001,2.1280799999999997
4.3120437,-9.659302,-3.9799101,0.15362388,0.6739589,2.5608517999999996
3.211927,-9.538069,-3.8381736000000006,0.23506095,0.55152404,2.8861112999999996
1.8139333999999998,-9.179675999999999,-3.809424,0.23027875,0.40460223,3.088936
0.80502635,-8.847657,-3.8126800000000003,0.16160004,0.3407232,3.218265
-0.053361967,-8.544005,-3.3716967,0.15360643,0.3337942,3.3002431000000003
-0.7607911,-8.567326,-2.7682145,0.23558454,0.36521015,3.307172
-1.1470428999999998,-8.570332,-2.5218412999999997,0.41233402,0.5217138,3.2023127000000002
-0.49069643,-7.881635,-2.7539257999999998,0.60821235,0.69258153,3.014393
1.5940403,-8.051067999999999,-3.6208854,0.5342104,0.8256629000000001,2.8216913
3.1056435000000002,-8.673829,-4.356049,0.1142318,0.89753556,2.7173555
4.071464499999999,-8.696047,-4.742826999999999,-0.4500157,0.9081821,2.7375839
5.616098,-9.395374,-5.7647014,-0.8620356,0.86346674,2.8712063
6.9345946,-10.070491,-6.366804599999999,-0.97436494,0.7766890000000001,3.02771
8.095533,-10.655596000000001,-6.5590779999999995,-0.8806757,0.66437703,3.1591856
8.977423,-10.465813,-6.3554754,-0.74385935,0.50413835,3.2353167999999997
9.164908,-9.454818,-5.728319,-0.6299416999999999,0.30984829999999997,3.2140237999999997
8.737304,-8.031962,-5.6500287,-0.49527207,0.060196407,3.0953063999999997
7.806113000000001,-6.8603745,-6.368232,-0.33663909999999997,-0.29804987,2.8616068
6.8220477,-6.28568,-7.0525804,-0.14873695,-0.6999643,2.5150718999999997
6.049573400000001,-6.400295,-6.9200854000000005,0.00083775807,-0.9730385,2.0594012999999998
5.6978836,-6.790922999999999,-5.8797956,0.010419616,-0.96823883,1.4525503
5.8672113,-7.1100993,-4.697605599999999,-0.07740535,-0.60308105,0.7525510999999999
6.157063,-6.9772973,-4.0116954,-0.09496336400000001,0.060720004,0.060510565
6.722506500000001,-6.659203999999999,-4.036327399999999,0.09719738,0.57121134,-0.47338566
7.503140400000001,-6.247947,-4.183791,0.13657202,0.734644,-0.9956056000000001
8.458667,-5.9149613,-4.348991000000001,0.40540507,0.45303512,-1.2814556000000001
9.698519000000001,-5.658456,-4.6225905,0.68382,-0.1463284,-1.591269
11.182895,-5.58099,-4.893509,0.62098813,-0.6935764,-2.0506747
12.796711,-5.251260299999999,-5.257447,0.6050184000000001,-1.2354836,-2.5675537999999998
14.31656,-5.037994,-5.5932093,0.62311745,-1.6735787,-3.0509052000000003
15.283214000000001,-5.264811,-5.6295150000000005,0.52571064,-2.0217197000000002,-3.4890003
14.233614999999999,-4.916972,-4.245341000000001,0.3015929,-2.1239262,-3.7083359
12.967369999999999,-5.232049,-4.185132,0.01680752,-1.813048,-3.6774611000000004
12.723600999999999,-7.252209700000001,-5.8577404,-0.26424286,-1.1976798999999998,-3.57419
11.108761,-6.9849973,-5.085514,-0.54956925,-0.45083599999999996,-3.5347980000000003
10.825594,-6.4531493,-5.84031,-0.773146,0.15866788,-3.5928125
10.621733,-6.175355000000001,-6.153778599999999,-0.882805,0.44664719999999997,-3.6540387
10.443622999999999,-6.502834,-5.4438972,-0.85885906,0.41311944,-3.6577562999999995
10.43758,-7.4472604,-5.421957,-0.7534586,0.15812683,-3.6061294000000004
10.266672,-8.564031,-5.6913238,-0.5809852,-0.17987363,-3.5480974
9.60772,-9.441467999999999,-5.6245449999999995,-0.41277036,-0.51419145,-3.5363860000000003
8.832804,-9.432407000000001,-5.042169599999999,-0.32173398,-0.7233866,-3.4751775
8.542713000000001,-9.06665,-4.668042,-0.31162855,-0.7643669,-3.260118
8.542972,-8.963498,-4.616787,-0.40903535,-0.63022095,-2.8395808
8.277272,-9.249682,-4.7670856,-0.572468,-0.3491531,-2.195467
7.593431,-9.679116,-4.782169000000001,-0.71832514,-0.06117379,-1.4145370000000002
6.7430105,-9.916908,-4.479341000000001,-0.74546504,0.18634881,-0.6735399999999999
6.097169999999999,-9.964045,-4.2336282999999995,-0.6065368,0.37957420000000003,0.022183135
5.6760589999999995,-9.764474,-3.9576727999999997,-0.32279864,0.56855845,0.81854194
5.520263,-9.625103,-3.9634093999999997,-0.06250024,0.70163983,1.602666
4.783653299999999,-9.547674,-4.042054,0.054070299999999995,0.7681718000000001,2.2169695
3.7230410000000003,-9.453505499999999,-4.1768284,0.10622074,0.7138746,2.74556
2.504603,-9.530981,-4.4540772,0.10304424,0.62125,3.0623023999999996
1.1497532,-9.360419,-4.417111,0.17915805,0.52810174,3.2965254999999996
0.31359252,-8.89512,-3.9226217000000005,0.40273473,0.38116246,3.5094383000000002
0.0048745945,-8.397911,-3.1540062,0.7029488,0.21455333,3.6398666
-0.29692888,-8.281946000000001,-2.5248103,0.8983209999999999,0.13470452,3.6015394
-0.843822,-7.718686,-2.017048,0.9574178,0.17835520000000002,3.4466238
0.41751048,-8.007695,-3.0145776,0.8062374,0.3108955,3.2411637000000004
1.5994033,-8.43167,-4.0079417,0.41018727,0.44291220000000003,3.0841187999999997
2.7585322999999997,-8.042622,-4.3093330000000005,-0.10295697,0.5744053000000001,3.0282335
4.3661237,-8.5645,-4.7481136,-0.41222933,0.688864,3.0761428
5.4625626,-9.274247,-4.8262606,-0.47452012,0.7751007,3.1597092
6.5179844000000005,-10.193802,-5.1018715,-0.41011748,0.79957026,3.18739
7.791173,-10.510574,-5.661013,-0.33185690000000007,0.7048163000000001,3.126705
8.880544,-9.948933,-6.3607044,-0.23923229,0.505203,2.998406
9.16239,-8.849755,-6.718178,-0.1327672,0.20123646,2.7519479
8.801478,-7.800041,-7.130650999999999,-0.051330134000000006,-0.12346459,2.4181712
8.18025,-7.2348657,-7.412305,0.06257005,-0.48012263,2.0870647
7.5671615999999995,-7.2686815000000005,-7.0247984,0.12753119999999998,-0.74626786,1.7692752
7.3133097000000005,-7.590251400000001,-5.869107700000001,0.07482226,-0.82718134,1.4030353000000002
7.3691707,-7.515897,-4.774268,-0.031101767000000002,-0.66376615,1.0016619
7.6551149999999994,-7.148243400000001,-4.5406804,-0.14608406,-0.23844688,0.51724577
8.1068535,-6.686727499999999,-4.677935,-0.14662512,0.33751178,-0.043807764000000006
8.487627,-5.99103,-4.7420897,0.015725417,0.63880795,-0.63255966
9.036733,-5.2481860000000005,-4.876117,-0.009267698000000001,0.5861165,-1.2032125
9.4610815,-4.909579,-5.0321712,0.22439697,0.09637708,-1.5348600000000001
9.896433,-4.6716523,-5.075324500000001,0.41390482,-0.53600806,-1.8436086999999999
10.85782,-4.68891,-5.538593,0.37559485,-0.9166120000000001,-2.2763805
11.886072,-4.7928185,-5.9800935,0.37238345,-1.1098548000000001,-2.78476
12.6490755,-4.674679,-5.8009977,0.37877136,-1.3180028,-3.2947278
13.565097,-4.8989677,-5.7471857,0.34096754,-1.5245451,-3.6955776
13.313064,-4.600343700000001,-4.625215,0.24729571,-1.643786,-3.8792212
12.870614999999999,-4.815764,-4.9778514000000005,0.06895796,-1.5564846,-3.8073485000000002
12.469673,-7.0372577000000005,-6.485107,-0.14714871,-1.2157963999999999,-3.6157114999999997
11.237377,-7.424554,-5.886863,-0.41704643,-0.68931776,-3.4762419999999996
10.951845,-7.2368193,-6.204181,-0.7060904,-0.19479620000000003,-3.4672012000000003
11.112247,-6.9283886,-6.007215,-0.9089151,0.10861184,-3.4773242
10.973058,-7.0519295,-5.381476,-0.99248147,0.20868902,-3.4655955
10.705423,-7.9261007,-5.4364085,-0.96319485,0.15971509,-3.4086453999999997
10.069735000000001,-8.926464999999999,-5.5630616999999996,-0.8125555,0.0037524579999999997,-3.3245379999999995
9.026954,-9.624911,-5.5341496,-0.6038839,-0.2560049,-3.2494714
7.9800949999999995,-9.662558,-5.2381682000000005,-0.47931978,-0.46202356,-3.1318362
7.511050999999999,-9.362995,-5.036098,-0.4181111,-0.58712876,-2.916777
7.650154,-8.887487,-5.03357,-0.38934806,-0.61159825,-2.4941103
7.6705437000000005,-8.81005,-5.0709095,-0.43886304,-0.43380159999999995,-1.9239811999999998
7.095964,-9.046308999999999,-4.9029803,-0.5378755999999999,-0.04574508,-1.2969191999999998
6.627063799999999,-9.355228,-4.6510625,-0.5565157,0.31728340000000005,-0.7161435
5.911743599999999,-9.463599,-4.225833000000001,-0.4223697,0.6249675,-0.0017627826
5.469764700000001,-9.443938000000001,-3.8104677000000002,-0.1381079,0.80222315,0.8765566999999999
5.236368,-9.372112,-3.8233870000000003,0.08758062,0.83629197,1.6931438
4.6294379999999995,-9.375483500000001,-4.122729,0.13177235,0.7564605999999999,2.2723139999999997
3.7431427999999998,-9.415054,-4.1246157,0.13816026,0.6345494,2.8243267999999997
2.6397703,-9.251808,-4.092926,0.18126989999999998,0.5381897,3.2150536
1.6362836,-8.813248,-3.9395056000000004,0.309028,0.500927,3.5142205
1.0674118000000001,-8.367467,-3.6357867999999995,0.5235464,0.45301765,3.6504958
0.24827872,-8.210379,-3.125506,0.7918559000000001,0.32313025,3.649431
-0.7741412,-8.136436,-2.552899,1.0239497,0.22413518,3.511044
-1.4079916000000001,-7.656513,-2.304965,1.0851585,0.2635098,3.2496633999999998
0.20705056,-8.232051,-3.6755303999999995,0.8360302,0.41681954,2.9872183999999997
1.3886466,-8.659751,-4.6673813,0.2627244,0.5871811,2.7924047
2.4593813,-8.387414999999999,-4.558071599999999,-0.354232,0.6936287,2.7913224999999997
4.1663036,-9.0956,-4.7995696,-0.7401767,0.7367384,2.9451558999999996
5.789534,-9.854016,-5.0869026,-0.8397128,0.7702836,3.1053946
7.5469832,-10.568830499999999,-5.706589,-0.82000804,0.7985055999999999,3.2129242000000002
8.813661,-10.525571000000001,-6.3651,-0.8029736,0.75166094,3.2544456000000004
9.527046,-9.669721000000001,-6.7867765,-0.80032074,0.61538565,3.2555103
9.472975,-8.232013,-7.172789,-0.7300538000000001,0.36891025,3.1777908999999998
8.82427,-6.9261384,-7.831539,-0.5767439999999999,0.03302163,2.9712486
7.779546300000001,-6.3959374,-8.129167,-0.34997340000000005,-0.34917057,2.636948
6.673425,-6.7435946,-7.5769014000000015,-0.10190977,-0.7079753000000001,2.1743486
6.261421,-7.179167,-6.090715,0.09077457,-0.881496,1.6106247999999999
6.4552274,-7.330336999999999,-4.9459133,0.15730652,-0.76757836,0.9681166999999999
6.827430199999999,-7.172042,-4.5431795,0.07534587,-0.29541442,0.26331782
7.192182000000001,-6.8618684000000005,-4.5882190000000005,0.13442525,0.3156777,-0.29667106
7.6534395,-6.4386209999999995,-4.545076,0.02370157,0.6409198,-0.87105894
8.432512,-6.002149,-4.364582,0.10515609,0.55415946,-1.2575272
9.455775,-5.68916,-4.2579346,0.36917204,0.14374532,-1.5524354
10.755884,-5.427732,-4.311344,0.35000834,-0.18575539,-2.0267286
12.286247999999999,-5.2603292,-4.6040597000000005,0.34842008,-0.46308820000000006,-2.541496
13.491135,-4.9063606,-4.9066386,0.48363075,-0.85542077,-3.1148192999999997
14.421091,-4.542825,-5.1852374,0.5895722,-1.2945805000000001,-3.6311574
14.799536999999999,-4.8353105,-5.307016,0.57890826,-1.6831955,-3.9250184999999997
13.626254000000001,-4.313949,-4.395563,0.46499062,-1.7444042000000002,-3.9335358
13.69808,-6.5979886,-6.4686065,0.22917919,-1.4298086,-3.7935255
12.337254,-7.356357000000001,-5.7984595,-0.060388394000000005,-0.8399745999999999,-3.6875839999999998
11.493451,-6.7389307,-5.593602,-0.34784412,-0.28157398,-3.6684377
11.451582,-6.3650044999999995,-6.021867299999999,-0.55279815,-0.0015707964,-3.6796078999999997
11.085882000000002,-6.654128,-5.2175403,-0.65659285,0.07559021,-3.6780195
10.891396,-7.6286545,-5.05461,-0.6597868,-0.01754056,-3.6386101
10.365227,-8.809389,-5.3382845,-0.56238,-0.2629513,-3.5715544
9.353264999999999,-9.717835000000001,-5.484579599999999,-0.45005059999999997,-0.5189911,-3.4310205000000003
8.324112,-9.85303,-5.316296599999999,-0.37871900000000003,-0.6440963000000001,-3.2053146
7.894669500000001,-9.361329,-5.141213,-0.37926003,-0.5839348000000001,-2.9034774
7.971303,-8.978199,-5.082718,-0.4580442,-0.3864508,-2.4813520000000002
7.7805905,-8.881607,-5.144966999999999,-0.56557393,-0.16233307,-2.001718
7.2359285,-9.093983,-5.0514019999999995,-0.67203903,0.056426495,-1.4587462
6.705297,-9.48102,-4.7979417,-0.6981316999999999,0.2533869,-0.92537355
6.145322,-9.734834,-4.4766974,-0.586867,0.35559338,-0.34992105
5.499471700000001,-9.840198,-4.152561,-0.3494498,0.49347440000000004,0.4150044
4.828271400000001,-9.619912,-3.8658504000000002,-0.10937978,0.6515663,1.319434
4.2167735,-9.352011,-3.806072,0.014643312,0.7553785,2.0396616
3.7360367999999995,-9.17709,-4.0000887,0.042847835,0.75696677,2.6023383
3.0615422999999997,-8.9628,-4.1618695,0.082780965,0.6217560999999999,3.0590734
2.241643,-8.628597000000001,-4.1329956,0.14294246,0.49240974,3.3747510000000003
1.6737384999999998,-8.345516,-3.9193847,0.3526787,0.32578316,3.6094980000000003
1.2411063,-8.266776,-3.443657,0.6752504,0.12243485,3.6829587999999998
0.62778836,-8.418837,-3.0559015,0.9770877,-0.03138102,3.503574
-0.47647485,-7.977317299999999,-2.5252122999999997,1.1282681,0.0026703537,3.1485043
-0.3206602,-7.7573,-2.86042,1.0351024,0.20015436,2.7849345000000003
1.5111052,-8.173641,-4.143731,0.6183003,0.44130649999999993,2.5336595
2.433773,-8.29632,-4.714049,-0.06305875,0.68031186,2.4293412999999995
3.6745155,-8.412382000000001,-4.900452,-0.71410143,0.84426814,2.5171661
5.024644,-9.212591,-5.2935989999999995,-1.0781946000000002,0.921464,2.6912453
6.4054660000000005,-9.967042999999999,-5.4325686,-1.1745542,1.0023775,2.869042
8.125451,-10.287224,-5.8664165,-1.1266624,0.9996896999999999,3.0185993
9.560871,-9.568896,-6.48186,-0.9909107,0.8703608,3.1186938
9.908251,-8.319047,-6.8774595000000005,-0.8120493000000001,0.61643285,3.1069827
9.09361,-6.8782062999999996,-7.270223,-0.60337776,0.30023155,2.9888065
7.91525,-5.9403496,-7.733549000000001,-0.41174063,0.028221974,2.797693
6.8408375,-5.896411,-7.9615445000000005,-0.19881046,-0.24165829,2.5001318
5.9120406999999995,-6.434446,-6.987008,0.0077143554,-0.46736425,2.1290922
5.797483000000001,-6.942764,-5.441982,0.14346607,-0.5621182,1.6563872
5.899945,-7.236464999999999,-4.301375,0.15091862,-0.42744857,1.1277968999999999
6.19244,-7.4139524,-3.748994,0.056705747,-0.046286132,0.49487066
6.726567,-7.3753576,-3.57461,0.13868386,0.359852,0.012042772
7.397183,-6.892265299999999,-3.5340238,0.20628047,0.50197417,-0.40634754
8.120136,-6.372205999999999,-3.6506498,0.20308651,0.44769440000000005,-0.7709991999999999
9.065472999999999,-6.0719733,-3.9618196000000006,0.4314454000000001,0.055361845,-1.0174571
10.193083999999999,-5.8253900000000005,-4.3254514,0.5570742,-0.3295007,-1.3810441
11.214488000000001,-5.6307697,-4.699138,0.6071302,-0.7026521,-1.9484856
12.221528,-5.139585,-5.032554599999999,0.7327416,-1.1018961999999999,-2.4808285
13.205784,-4.7563596,-5.320146,0.771069,-1.5415969999999999,-3.0232593999999997
13.711028,-5.342249400000001,-5.6233096,0.71677184,-1.941382,-3.4491372000000005
12.38013,-4.9969095999999995,-4.5708660000000005,0.5533392,-2.1223726000000003,-3.6397097
12.100563000000001,-5.858736,-5.839103700000001,0.2956937,-1.9318002,-3.617352
11.521989999999999,-6.9443436,-6.0623775,-0.006126106,-1.4415373,-3.5172748999999994
10.82364,-6.6342177,-5.6942067000000005,-0.31965706,-0.79155916,-3.4502017
10.850082,-5.8308387,-5.755766,-0.591143,-0.21238911,-3.4379497000000003
10.954526,-5.6732526,-5.410589,-0.7668104,0.075049154,-3.4544604
10.579353999999999,-6.151365,-5.1998425,-0.8402712999999999,0.11709414,-3.491182
10.419509,-7.2469997,-5.699224500000001,-0.8195019,0.017558011999999998,-3.498111
9.890887,-8.448821,-6.0125012,-0.77745694,-0.14744541,-3.4363612999999997
9.040092999999999,-9.19633,-6.0293756,-0.77213365,-0.33215362,-3.3522364999999996
8.425091,-9.255927,-5.747856,-0.78330374,-0.4380951,-3.244724
8.167914999999999,-8.888455,-5.401549,-0.73858845,-0.46471137,-3.053087
8.021639,-8.587733,-5.181091,-0.6496988,-0.47589892,-2.7134633
7.6430774,-8.561292,-5.0638323,-0.66460395,-0.36250487,-2.2455406000000004
7.239826700000001,-8.87047,-5.021493,-0.8120493000000001,-0.050021138,-1.6695645000000001
6.8140893,-9.262735000000001,-4.929508,-0.8924392,0.28052676,-0.9977872999999999
6.3602834,-9.577458,-4.759357,-0.7652047,0.49132764,-0.19289379
5.6796690000000005,-9.471749,-4.6424335999999995,-0.46177920000000006,0.5908812,0.73652893
5.474026,-9.473713,-4.602652,-0.14664257,0.6329262,1.6302946000000003
5.009436,-9.623675,-4.441321,0.026337017999999997,0.6371848000000001,2.26535
4.2729316,-9.802648,-4.1222982,0.14025466,0.5733057,2.7992811
3.1553183,-9.505335,-3.8618474000000003,0.21212731,0.46418777,3.0931249
2.1587462000000004,-9.172417,-4.1551466,0.32443926,0.39870300000000003,3.2448463
0.9122196,-8.597445,-3.9067623999999994,0.47829002,0.3337593,3.2842383
-0.23082020000000003,-8.46744,-3.256938,0.64489913,0.26935667,3.25284
-1.3855437,-8.641345,-2.4962807000000002,0.7492349,0.25284585,3.2198184
-2.1874290000000003,-8.15761,-1.9085139,0.75136423,0.35346407,3.1804261
-0.37238455,-8.337453,-2.8333652000000003,0.6039014,0.5546656,3.1373167
1.4190242,-8.927096,-4.064769999999999,0.22169173,0.7415206,3.0995128
2.6547577,-8.412411,-4.270174,-0.25312510000000005,0.8410566999999999,3.1085536
4.4349422,-8.943531,-4.8358088,-0.7018667,0.8676729999999999,3.2134304
5.944276,-9.362621,-5.2911572,-0.9286373,0.8570439000000001,3.3954855999999998
7.377282000000001,-10.004746,-5.9037565999999995,-0.9094735999999999,0.79155916,3.5855346
8.301885,-10.295507,-6.480683,-0.7865151999999999,0.66805965,3.6701655
8.534763,-9.906977000000001,-6.7704960000000005,-0.6315997,0.48335147,3.681353
8.154306,-8.853595,-6.795367,-0.4378333,0.18950784,3.5780819999999998
7.578653999999999,-7.6678429999999995,-6.7697199999999995,-0.21371557,-0.16235052,3.2836974000000003
7.000798700000001,-6.924376,-7.050196000000001,0.017278758999999998,-0.54668945,2.7955463
6.4297247,-6.866858000000001,-6.9642253,0.2003987,-0.8650201,2.1503677000000003
6.13994,-7.401981,-6.3086257,0.21210986,-0.9320931,1.3950068000000002
6.183399,-7.955080000000001,-5.2576480000000005,0.05560619,-0.65102524,0.63484603
6.598755000000001,-8.154449000000001,-4.5310745,-0.09023352,-0.13360496,0.059393555
7.362744999999999,-7.7805233,-4.2692255999999995,-0.09553932400000001,0.38592719999999997,-0.27913052
7.970967999999999,-7.222531,-4.2422953,0.061994094000000007,0.66486573,-0.5335995
9.021361,-6.537492299999999,-4.3083754,0.09606292,0.66805965,-0.991923
10.443767,-5.649195,-4.4930925,0.20998056,0.3428001,-1.4683628999999998
11.967245,-4.880609,-4.785588,0.35051447,-0.20067796,-1.9485203999999998
13.315104000000002,-4.103891399999999,-5.1003394,0.41545817,-0.719704,-2.4643349999999997
14.204232999999999,-3.5084727,-5.5153313,0.5469513,-1.1673809,-3.007307
14.399246,-3.7567515,-5.6123157,0.6800326,-1.6140107,-3.593406
13.743417,-4.667535,-5.280345,0.71462506,-1.9999552999999999,-4.1315783999999995
12.587774000000001,-5.450725599999999,-4.6547785,0.5176647,-2.1223902999999997,-4.439803599999999
12.091523,-5.433507,-4.693478,0.10564478,-1.8115120999999998,-4.4217043
12.740266,-6.5528917,-5.9847093000000005,-0.35426694,-1.0843382,-4.2130327
12.3993025,-7.1214476,-6.178132499999999,-0.71678925,-0.23315853,-4.0650463
12.03185,-7.353617999999999,-6.3422112,-1.0021156999999998,0.45884705,-4.08421
11.707139,-7.513464999999999,-6.024903299999999,-1.1064515,0.7899535,-4.1667295
11.484832,-7.741842699999999,-5.409315599999999,-1.0792941999999999,0.7841066,-4.193328
11.450299000000001,-8.551734,-5.482454,-0.891392,0.4843987,-4.14596
11.272199,-9.723255,-6.079395,-0.64119905,-0.016510814,-4.0096846
10.464376,-10.684422,-6.697138000000001,-0.42879248,-0.49666834,-3.7834550000000005
9.312592,-10.829884,-6.652442999999999,-0.28187066,-0.72076863,-3.501846
8.534802,-10.185068,-5.986280000000001,-0.23609069,-0.7074691999999999,-3.0408522999999996
8.438938,-9.731224000000001,-5.5608497,-0.31860986,-0.45141196,-2.358952
8.302192,-9.890122,-5.371621599999999,-0.44741514,-0.021816615,-1.4917853
7.521614,-10.321921000000001,-5.203021499999999,-0.4953419,0.27040386,-0.6640105
6.5584364,-10.783887,-4.883797599999999,-0.39207077,0.4386187,0.114214346
5.2689004,-10.676406,-4.2367125,-0.17434093,0.5748939999999999,0.87172216
4.3299330000000005,-10.4078245,-3.7657633,0.034836773,0.6611307,1.7324836
3.4456296,-10.027357,-3.5146115,0.135455,0.67018896,2.4426231
2.5637112,-9.788262,-3.3795881000000003,0.09073967,0.6605897,3.0191228
1.3844041,-9.573158,-3.5355847000000002,0.0108908545,0.6249326,3.548778
0.10454042,-9.170042,-3.6445017,-0.0071907565,0.5338961999999999,3.9607977999999995
-0.8903556999999999,-8.705748,-3.4890702000000005,0.016737707,0.40507346,4.2083379999999995
-1.3780164,-8.166746,-3.020065,0.09765117,0.2735978,4.240801
-1.2977818,-7.7867774999999995,-2.517388,0.24244368,0.18256144,4.0278707
-1.1341523999999998,-8.123449,-2.8205802,0.47453758,0.21078339999999998,3.6994347999999997
-0.80065936,-8.085343,-3.3269732000000003,0.55918604,0.29595548,3.4700112
0.7157800999999999,-8.378816,-4.325776599999999,0.28557077,0.42956042,3.4268842000000004
2.5369153,-9.517536,-5.5535517,-0.3191509,0.57648224,3.5200324
3.6241796,-9.683932,-5.6622962999999995,-0.9456892,0.6760358,3.6302326000000003
5.389482,-10.382522999999999,-5.934259,-1.2006818000000001,0.7042403,3.6962410000000006
7.170778,-11.200811999999999,-6.458503,-1.1607486999999999,0.6792298000000001,3.6935703999999996
9.257736,-11.71729,-6.905433,-0.9866870000000001,0.59191096,3.6243682
10.656774,-11.541641,-6.900500999999999,-0.7700218000000001,0.40826740000000006,3.4487007000000003
10.838092,-10.825316,-6.824030400000001,-0.54803336,0.14477506,3.1601803
9.696344,-9.830017999999999,-7.4874635,-0.36384878,-0.12829915,2.801393
8.431574000000001,-8.90484,-8.192661,-0.22118558,-0.36997488,2.387244
7.6600665999999995,-8.243208000000001,-8.428968,-0.10248573,-0.5770582,1.9310323
7.528366,-8.132739,-7.2967130000000004,-0.014643312,-0.67552966,1.5025190000000002
7.77699,-7.9143114,-5.320912,-0.029024825,-0.539778,1.060689
8.06776,-7.6661470000000005,-4.137391,-0.20523326,-0.07028441,0.5097234
8.446619,-7.233745,-3.6933818,-0.43945646,0.5967106,-0.014067353999999999
9.14494,-6.586382,-3.6279337,-0.41495204,1.0523812,-0.40425315
9.658381,-5.6935459999999996,-3.65608,-0.18978710000000001,1.1513937,-0.8077558000000001
10.159115,-4.926156,-3.7354142999999995,-0.039671335,1.0145948,-1.2623618
10.753605,-4.3828926,-3.9139931000000003,0.32122785,0.53337264,-1.6147611000000002
11.452778,-4.0786953,-4.070382,0.63529986,-0.054314647,-1.9810009999999998
12.118683,-3.8532379,-4.1648674,0.95202476,-0.6127153000000001,-2.4297602000000005
13.207911,-3.6543657999999994,-4.412073,1.3273228000000001,-1.2371417,-2.9588916000000003
14.013434,-3.7798220000000002,-4.761578599999999,1.6222311000000003,-1.9440525000000002,-3.6721902
13.898217,-4.637157,-4.644636,1.6158433,-2.4673371,-4.3269677
12.670173,-4.904876,-3.4701464,1.2506680000000001,-2.5509209999999998,-4.7576103
12.307345,-5.7912865,-3.8364974999999997,0.6523343,-2.1335778,-4.7916794000000005
12.151771,-7.424822,-4.8449349999999995,0.056653388,-1.2935683,-4.5537386
11.394082000000001,-7.753919000000001,-4.5557346,-0.38090065,-0.37529814,-4.3280325
11.47154,-8.137202,-4.9588323,-0.7109424,0.33639476,-4.231148999999999
11.246924,-8.088293,-4.570876,-0.8796809000000001,0.6030985,-4.241796
11.419815,-8.171956,-4.538085,-0.85095274,0.454571,-4.272147
11.843675,-8.676874,-5.236167,-0.70401347,0.044680428,-4.15343
11.865213,-9.756669,-6.461567400000001,-0.49907690000000005,-0.34177038,-3.7967718
10.823008,-10.729165,-7.220739999999999,-0.32712707,-0.568541,-3.3277843000000003
9.470417999999999,-10.977128,-6.9892205999999995,-0.31382766,-0.57651716,-2.8423035
8.4774475,-10.655403999999999,-6.2273855000000005,-0.39952332,-0.40032616,-2.3067842
8.167330999999999,-10.373415,-5.772468,-0.45914376,-0.17462020000000003,-1.7212261999999998
7.735905000000001,-10.28641,-5.598381,-0.5123763,0.05906194,-1.1324743
7.0619855,-10.373003,-5.264418599999999,-0.6353522,0.21237166,-0.5330759
5.9730163,-10.659829,-4.545746299999999,-0.7130717,0.387498,0.056723199999999994
4.389424,-10.687113,-3.7868227999999995,-0.6140591999999999,0.680818,0.67367965
2.9676897999999996,-10.08952,-3.0792785,-0.30583405,0.9554978999999999,1.39286
2.273419,-9.258224499999999,-2.845432,0.15034266,1.0965555,2.127469
1.9803400000000002,-8.728282,-3.1620317000000004,0.46919686,1.0182949000000001,2.718874
1.6581953,-8.408025,-3.342746,0.6305002,0.7106283,3.2011607000000004
1.4950641000000002,-8.214611,-3.4359572,0.7385535,0.26771605,3.5226852999999996
1.342697,-7.8513155,-3.6870705999999998,0.86737627,-0.16716763,3.6770597
1.0820068,-7.510505,-3.6571239999999996,1.0297443000000002,-0.5770582,3.6983525999999998
1.0810587,-7.2819449999999994,-3.0408564,1.179319,-0.68245864,3.5732648
0.96329266,-7.608639200000001,-2.454344,1.1910301,-0.35986945,3.2384236
0.5182585,-7.4828567999999995,-1.8205892,0.9184795,0.15273376,2.8721836
0.97416234,-7.509978299999999,-2.359275,0.42289329999999997,0.5658357,2.6092147999999997
2.1584017,-8.192029,-3.9109476,-0.29731685,0.8458389000000001,2.4729395
3.2487687999999997,-8.541458,-5.0129795,-1.0170382,0.97092664,2.5133963
5.1454554,-9.549542,-6.0207086,-1.5222063,1.0273531999999999,2.635831
7.2118435,-10.647571000000001,-7.042917999999999,-1.6813804,1.0385233,2.784341
9.179647000000001,-11.208781,-7.608830499999999,-1.6696517,1.0598338,2.9818428
10.672623,-10.777517999999999,-7.712959,-1.5749153,1.0933614999999999,3.1915789
11.13525,-9.333518,-7.764711999999999,-1.3571855,0.9533511999999998,3.3592527000000003
10.379909,-7.8018603,-7.9189754,-1.0303377,0.6334323000000001,3.3890629999999997
8.944287,-6.788769,-8.128832000000001,-0.63163465,0.1341111,3.3097550000000004
7.529132400000001,-6.5517330000000005,-8.09425,-0.27230626,-0.43493605,3.1649625
6.486390599999999,-6.7807145,-7.131809700000001,0.039618972999999995,-0.9975953000000002,2.949362
6.0785527,-7.085697,-5.431189,0.20251055,-1.2669518999999998,2.6033506
5.783232,-7.2711043,-3.9600766000000003,0.24829054,-1.1551636,1.9501959999999998
5.5940332,-7.338985000000001,-3.0496192000000004,0.24242623,-0.5887694,1.0101093
5.6996555,-7.4010234,-2.581026,0.37285468,0.17776178,0.04766494
6.189634,-7.263347,-2.1489685,0.48836058,0.6909234999999999,-0.7300538000000001
7.059505000000001,-7.0033655,-2.0470137999999998,0.65285784,0.81920516,-1.1798600000000001
8.203205,-6.9747977,-2.5695148,0.9791646,0.52749085,-1.4497577
9.458888,-7.0947857,-3.3092752,1.1106577,0.08513716,-1.857519
11.074448,-6.913104,-3.972057,1.1287568000000001,-0.43172464,-2.4180488999999996
13.125098999999999,-6.2537603,-4.4633956,1.200612,-1.1242888,-2.9998894
15.370344000000001,-5.5578523,-4.640959,1.1612200000000001,-1.8786026000000002,-3.527415
16.723689999999998,-5.2954473,-4.4314849999999995,0.98288214,-2.4976882999999996,-3.8383107000000005
16.05,-4.9931936,-3.6852126000000003,0.73590064,-2.7925966,-3.8617156
14.742517000000001,-6.6483436000000005,-5.0680943,0.4590914000000001,-2.7095540000000002,-3.7217226
12.656947,-7.183735400000001,-5.078628500000001,0.1306379,-2.2682474,-3.5833180000000002
11.213263000000001,-6.4484277,-4.9283013,-0.2467721,-1.5964701000000001,-3.5279562000000007
10.932346,-5.93265,-5.675436,-0.59915406,-0.8937831,-3.5306091
10.517978,-5.9766555,-5.6775519999999995,-0.8647756999999999,-0.36891025,-3.5316737000000002
10.155772,-6.6897635,-5.7045403,-1.0745120000000001,-0.089448124,-3.4986696000000004
9.673149,-7.912425,-6.1348834000000005,-1.187906,0.019128809,-3.4470427000000003
9.029071,-9.114946,-6.2402472,-1.2102636,-0.018657569,-3.4049802000000002
8.365167999999999,-9.767673,-5.859493,-1.1565075,-0.12299335,-3.3772992999999993
8.181341,-9.589066,-5.3674555,-1.0196911,-0.19113101,-3.286804
8.348322,-9.122732000000001,-4.9972258,-0.8413709,-0.250734,-3.088779
8.511194999999999,-8.9367695,-4.9192038,-0.7668453000000001,-0.28214994,-2.7928061
8.314584,-9.044681,-4.780263,-0.764716,-0.20123646,-2.3813272
7.834460000000001,-9.251502,-4.7631016,-0.73277646,0.059044488,-1.9091633999999997
7.247622,-9.461300999999999,-4.662861,-0.672615,0.36301103,-1.3219996999999999
6.718398,-9.620046,-4.3438096,-0.5831843000000001,0.5583657,-0.62678266
6.467677,-9.740934,-3.9747769999999996,-0.42135740000000005,0.79578286,0.30956906
6.154831400000001,-9.933859,-3.6550171000000002,-0.18606955,1.0773917,1.2980886999999999
5.6643553,-10.185528,-3.4356410000000004,0.044942225999999995,1.1513761999999998,2.2562745
4.7728605,-10.142892,-3.4592192,0.20783381,0.99967223,2.8327916
3.8149402,-9.841596000000001,-3.5348952000000007,0.31269318,0.76757836,3.1463224999999997
2.8843330000000003,-9.4862,-3.3898544000000004,0.44790384,0.45989427,3.2155247000000005
2.0259447,-9.268165,-3.1867400000000004,0.82159626,0.22193606,3.1048012000000003
0.8546341999999999,-9.098657000000001,-3.0782635,1.3869258999999998,0.11601204,2.9285927000000003
-0.7988015,-8.433011,-2.5459560000000003,1.7515775000000002,0.10962413,2.6970397999999998
-1.499747,-8.231802,-2.4259584,1.4683628999999998,0.2703864,2.5192432
-0.92644113,-8.849783,-2.9504035,0.5857674,0.5051332000000001,2.4995383999999996
0.25428337,-8.307955999999999,-3.4105019999999997,-0.46661377,0.7164751,2.6549772999999997
2.6132329,-8.676463,-4.3287263,-1.2427442,0.8708495,2.8402267000000005
4.7543483,-9.032471000000001,-5.178428,-1.5536398,0.94003433,3.0116355
6.6794395,-9.468914,-5.439282,-1.4902843000000001,0.9006597,3.181997
8.107313000000001,-9.947792999999999,-5.3355265,-1.2198455,0.7755545,3.3619230000000004
8.808765,-9.31287,-5.582358999999999,-0.9121614,0.6163979,3.5173620000000003
8.642628,-8.204087,-6.97588,-0.62472314,0.39812705,3.5796354
7.654406,-6.9922756999999995,-8.934155,-0.35801938,0.027646014,3.5482367999999993
6.432387,-6.3149942999999995,-9.951078,-0.15838863,-0.4514294,3.3837397000000005
5.573912,-6.2828254999999995,-9.307957,-0.08279842,-0.953421,3.1399345000000003
5.531621,-6.8982600000000005,-7.140735,-0.09983283,-1.3771521,2.8849595
5.72219,-7.631048700000001,-5.162962,-0.12114330400000001,-1.5304618,2.46814
5.6572113,-8.050474000000001,-3.681286,-0.13178982,-1.1599633,1.6994619
5.7064265999999995,-8.059659,-2.9707062,-0.07588691,-0.22359413,0.7098603
6.0821629999999995,-7.8310889999999995,-2.8516762000000004,0.21739821,0.58817595,-0.13704325
6.771712299999999,-7.4551897,-3.1567645,0.33185690000000007,0.9219527,-0.7939328
7.7917857,-7.205647,-3.8704379,0.685321,0.59510493,-1.1117399
9.168519,-6.899266000000001,-4.87064,0.83330745,-0.07508406,-1.4657274
10.702628,-6.777410499999999,-5.752807,0.60227823,-0.7963763,-1.9730424
12.347223,-6.5362860000000005,-6.088359400000001,0.37709585,-1.3744816999999998,-2.515997
14.5397,-5.945674400000001,-5.7568865,0.27597147,-1.7497798,-3.049928
16.796053,-5.3640175,-5.2958784,0.17163567,-1.9973023999999997,-3.5519019999999997
16.6307,-4.557679,-3.7335373999999995,0.068364546,-1.9744211,-3.8329699999999995
15.328157999999998,-4.705286,-3.6509182,-0.037018432999999996,-1.5730478,-3.9421053
13.559514000000002,-6.504098,-5.1251809999999995,-0.20683897,-0.92945766,-3.9543402000000003
11.9584055,-6.635778999999999,-5.228496,-0.4208338,-0.17355554,-3.976174
11.768564,-6.526508,-6.7377720000000005,-0.6007598000000001,0.39920917,-4.049094
11.539774000000001,-6.28115,-7.21643,-0.63376397,0.5610361,-4.138001
11.454982000000001,-6.7599425,-6.2088165,-0.60821235,0.38695696,-4.1523650000000005
11.679729,-7.795032000000001,-5.5745535,-0.5246460000000001,-0.019181168000000002,-4.081051
11.551027000000001,-9.212083999999999,-5.4442806,-0.44053856,-0.47380453,-3.9884263999999994
10.689115,-9.842496,-4.7962465,-0.3521551,-0.86451393,-3.906972
9.859074,-9.716896,-4.3647922999999995,-0.32981488,-0.9986773999999999,-3.7195932999999997
9.207382,-9.351561,-4.268919,-0.39315286,-0.9097703000000001,-3.2846745999999998
8.742935000000001,-9.321805,-4.396664,-0.5853311,-0.59835124,-2.6336496
8.239166,-9.562528,-4.628375,-0.785468,-0.11341149,-1.8830706000000001
7.508705,-9.965731,-4.713513,-0.85041165,0.2964616,-1.1537848
6.5032554000000005,-10.280443,-4.697874,-0.67635,0.49235737,-0.4756022
5.6629477,-10.456235000000001,-4.546761,-0.3319267,0.5354845,0.27389452
5.2058372,-10.380703,-4.3348645999999995,0.013526301999999999,0.5785941,1.1234859
4.7422333,-10.374526,-4.182326,0.20729275,0.61001,1.8522481
3.8145955000000002,-10.327169,-4.223525,0.25785494,0.613204,2.461211
2.5053406000000003,-10.2192,-4.309946,0.27488935,0.55250144,2.9174225
1.3539401000000002,-9.917062,-4.418145,0.24455553,0.4790405,3.1718740000000003
0.46098918,-9.485492,-4.0358577,0.24614379,0.38217473,3.3331773
-0.27735390000000004,-8.993780000000001,-3.2155757,0.31534609999999996,0.26878070000000004,3.4146144
-0.85958546,-8.61385,-2.4235450000000003,0.4750437,0.24429373,3.3741577000000005
-1.4397197,-8.463742,-2.2886363999999997,0.6592458000000001,0.3395887,3.2575872
-1.2380129,-8.0397005,-2.6495576,0.6422114000000001,0.5179090000000001,3.1197062
0.63490397,-8.721454,-4.104294,0.31695178,0.6786713000000001,3.0297343999999997
1.8147186999999998,-8.652789,-4.7429233,-0.26007152,0.7606494,3.0419867000000003
3.5004665999999998,-8.589927000000001,-5.0787053,-0.7450287,0.77236056,3.1660272999999997
5.217569,-9.243658,-5.8190975,-0.9137671,0.7148694,3.299091
6.3943286,-9.741786,-6.10034,-0.85734063,0.6408849,3.4029032999999997
7.715468400000001,-10.354731,-6.329512599999999,-0.7487463000000001,0.54613096,3.4470952000000006
8.541085,-10.197393,-6.2652526,-0.64334583,0.41996112,3.4343019
8.876876,-9.271048,-6.290564,-0.5682792,0.21502456,3.3416946000000003
8.354614,-8.15647,-6.9596667000000005,-0.5049412,-0.041015237999999996,3.1122537
7.562488,-7.306998299999999,-7.644590400000001,-0.45490262,-0.33218852,2.8019166
6.7363834,-7.188217,-7.8148084,-0.37557740000000006,-0.64519584,2.4048017999999995
6.355753400000001,-7.5190287,-6.7261553,-0.27284732,-0.81395173,1.9901117
6.466796400000001,-7.652050999999999,-5.222233,-0.14189526,-0.7591135,1.4790792
6.693105999999999,-7.488172500000001,-4.412657299999999,-0.020525072,-0.42109558,0.83815944
7.186589,-7.105981,-4.2740045,0.03642502,0.19479620000000003,0.08225737
7.646898299999999,-6.5893025,-4.345945400000001,0.15831882,0.5791352,-0.5384166
8.5609,-5.9815874,-4.555619999999999,0.067282446,0.66908944,-1.1734896000000001
9.584057000000001,-5.508081,-4.8651423,0.28766516,0.36246997,-1.5056607
10.538039999999999,-5.257744000000001,-5.029892,0.35208526,-0.06815511,-1.9059694
11.768593,-5.213135,-4.967691,0.38987166,-0.38915607,-2.3531227
12.999069,-5.1258230000000005,-4.813848999999999,0.5873731,-0.7245210999999999,-2.8950126
13.900007,-4.5882483,-4.395419,0.75080574,-1.0827673999999998,-3.4720533
14.888344,-4.4162197,-4.4478617,0.82957244,-1.4309082,-3.9240062000000004
14.728026999999999,-4.3214865,-4.1501575,0.79817396,-1.6294743,-4.1273546
14.392466,-4.957951,-5.2205853,0.6571165,-1.5597309,-4.0890274
13.584451000000001,-7.066342999999999,-6.234587,0.3968006,-1.2387475000000001,-3.9554047999999997
12.264892,-7.3048910000000005,-5.7653527,0.08485791,-0.76230747,-3.872903
11.908414,-7.2572465,-6.096739,-0.17064084,-0.3455054,-3.8420281000000003
11.549093,-7.1945662,-5.2167163,-0.35430184,-0.12618731,-3.7999833
11.41295,-7.680283,-4.6800323,-0.49590039999999996,-0.07721337,-3.733975
11.244301,-8.621185,-4.974251000000001,-0.581055,-0.17249089999999997,-3.6450677000000002
10.493834,-9.68196,-5.3263326,-0.5475446999999999,-0.38063887,-3.5833353999999997
9.363589,-10.163884,-5.3583574,-0.41870448,-0.61006236,-3.5300856
8.228775,-9.821264,-5.15645,-0.26433012,-0.77084213,-3.367194
7.7298427,-9.326814,-5.1474667,-0.22441444,-0.75752527,-3.0328934
7.663514,-9.159593,-5.166572,-0.3681423,-0.5339486,-2.5335722
7.470934,-9.314344,-5.201068,-0.59117794,-0.14906856,-1.9373678
6.8922553,-9.375235,-5.1476393,-0.75300485,0.26132816,-1.3230643
6.212905999999999,-9.458015,-5.0072813,-0.71095985,0.5264262,-0.68587947
5.736219999999999,-9.572459,-4.616423,-0.45863762,0.6717423,0.10620329
5.5906525,-9.807186,-4.1340775,-0.13870132,0.73136276,0.99731606
5.2229223,-10.070549,-3.8213758,0.08166396,0.7356214,1.7974099
4.4283155999999995,-10.138227,-3.8784153,0.063023835,0.6701541,2.4074547
3.259744,-9.945677,-4.28995,0.043860123,0.5892406,2.8327742000000002
2.2446694,-9.542685,-4.592452,0.096028015,0.500351,3.1713505
1.348242,-9.148033999999999,-4.4466934,0.16950637,0.43273693,3.4577415
0.40499359999999995,-8.696363,-3.8114733999999997,0.29352948,0.29965559999999997,3.6797125
-0.64815825,-8.594418,-3.0163302000000005,0.47293186,0.24377014,3.7403977
-1.8948957999999998,-8.220759,-2.3021493,0.7135255,0.27570966,3.6291330000000004
-2.169463,-7.6268444,-2.3149824,0.7901804,0.41090286,3.3789398999999998
-0.16755582,-7.9430513,-3.780071,0.44205698,0.5876524000000001,3.1346114
1.5627816,-8.267963,-4.839505,-0.14723597,0.6802595,3.0382516
2.9719130000000002,-8.284359,-4.702968599999999,-0.85468775,0.72818625,3.0334694
4.384291,-9.131677,-5.1498029999999995,-1.273619,0.7590437,3.065409
5.5315633,-9.865423,-5.6793337,-1.3572028999999999,0.7840716999999999,3.107454
7.103874,-10.663707,-6.1867127,-1.2145222,0.7835481,3.1468635
8.579487,-10.777154,-6.423088,-0.9643293,0.73031557,3.1676154
9.5356655,-9.879883999999999,-6.6871777,-0.7748389,0.5972341999999999,3.145258
9.593106,-8.638193,-7.6076045,-0.66785026,0.38269836,3.0632796
8.640865,-7.478863700000001,-8.4459,-0.61140627,0.11814134,2.912623
7.6463529999999995,-6.761944000000001,-8.619778,-0.5523269000000001,-0.18741345,2.702363
7.0900545,-6.911553,-7.7692995,-0.46715483,-0.43493605,2.4463057999999998
7.110415,-7.3402205,-5.906706,-0.39421752,-0.5217138,2.1178699
7.0563063999999995,-7.6000004,-4.475778,-0.38250637,-0.3407232,1.6595289
7.0241375,-7.5669413,-3.4777312000000005,-0.4314803,0.08513716,1.0707768999999998
7.1166979999999995,-7.0527916,-3.1535754000000003,-0.35430184,0.5785941,0.4873483
7.377311,-6.4958043,-3.5134241999999998,0.045465827,0.80430007,0.006143559
7.9085746,-6.111439,-3.9414592000000006,0.34569737,0.726057,-0.49316022
8.833694,-5.960882,-4.3359760000000005,0.74759436,0.3161664,-0.9222319999999999
9.759801,-5.8454533,-4.47144,1.148444,-0.26991516,-1.4167535
10.724616000000001,-5.712613,-4.4385433,1.0387851000000001,-0.5962394,-2.09813
11.974112,-5.4890904,-4.3574853,0.9301906999999999,-0.83152723,-2.7028517999999995
13.248957,-5.2259197,-4.360722,0.9930051,-1.1594222,-3.2607288
14.073912,-5.441628,-4.382184,1.0377204,-1.4383781999999998,-3.7467506
13.471359,-5.444213400000001,-3.1806874,1.017492,-1.6230863000000002,-4.0453763
12.679788,-5.4307675,-2.529905,0.9168738000000001,-1.6076403000000001,-4.1028676
12.677069,-6.850548299999999,-4.2244253,0.69649106,-1.3324367,-4.034730000000001
12.070233,-6.787571400000001,-3.9949553,0.37018433,-0.8554731,-3.9202888
12.298267,-6.018439,-5.035876999999999,0.072082095,-0.41844269999999995,-3.8415046000000004
12.293412,-6.0077987,-6.324667,-0.14350097,-0.18633135,-3.8079593000000003
11.539679,-6.5963416,-5.5385547,-0.3724009,-0.10915289,-3.8106296000000004
11.10357,-7.610525599999999,-5.142908,-0.53901005,-0.23106414,-3.858539
10.587073,-8.802627000000001,-5.2325277,-0.65718627,-0.38489747,-3.7712202000000006
9.759283,-9.707903,-5.29766,-0.6806085999999999,-0.3667984,-3.5061394999999997
8.616511000000001,-9.752158,-5.172558,-0.7173478,-0.21190043,-3.1617162
8.0006275,-9.527639,-5.283084,-0.6678328,-0.024504422999999997,-2.7922822999999997
7.673655999999999,-9.380607000000001,-5.4407663,-0.55552083,0.0691674,-2.379739
7.4933057000000005,-9.414672,-5.460868,-0.496424,0.101630524,-1.9874063999999998
7.196587599999999,-9.577171,-5.662555,-0.51878166,0.06117379,-1.5269537
7.004735,-9.716273,-5.850519,-0.5113291,0.015934857,-1.0627658000000002
6.604147,-10.064793,-5.5415044,-0.33459708,0.013264502,-0.53148764
5.5900397,-10.257056,-4.9685526,-0.14083062,0.15219271,0.10300933599999999
4.7103815,-10.161518,-4.5168433,-0.008290314,0.42102578,0.93396056
4.128715000000001,-9.799036,-4.2959547,-0.058852499999999995,0.66535443,1.7191493999999998
3.5375094,-9.474594,-3.9741449999999996,-0.24569000000000002,0.6866649,2.4005432
2.8373396,-8.880161,-3.9355311,-0.34791392,0.56423,2.8902652
2.0671823000000003,-8.466816,-4.214791,-0.36760125,0.41463786,3.2618457999999997
1.4835049,-8.153253,-4.2265034,-0.28935814,0.24109977,3.5663185
1.0361052,-7.937075599999999,-3.7665102,-0.061505403,0.09311332,3.7148461000000004
0.6044114,-7.922691,-3.3485690000000004,0.3281219,0.08140215,3.586006
-0.38773617,-7.5688566999999995,-3.3194458,0.7427946999999999,0.17296213,3.2016668
-0.7308636,-6.983340299999999,-3.780004,0.88599896,0.23471187,2.759313
0.23678654,-7.19358,-5.048299,0.5676683000000001,0.30710813,2.4362004
1.3345759,-7.599914599999999,-5.739198,-0.103026785,0.43699554,2.331341
2.9333282000000005,-8.187183000000001,-5.6343517,-0.7636514,0.6328913,2.4345946
4.562659,-9.27915,-5.877555,-1.1346735000000001,0.8314574,2.595898
6.1035,-10.235969,-5.8805614,-1.2076107,0.9400518,2.744949
8.112608999999999,-10.899038000000001,-5.794207599999999,-1.1783416000000002,1.0044545,2.8838772999999995
9.965826,-10.496831,-5.728185,-1.1612897,0.99647826,2.9940773999999997
10.612404,-9.0014515,-6.017030999999999,-1.1357555000000001,0.8314574,3.0446396
9.897103,-7.4622574,-7.049017999999999,-1.0617536,0.5232323,3.0350577999999997
8.589036,-6.489426,-8.17211,-0.948377,0.13517575,2.9658554
7.254919500000001,-6.31396,-8.442569,-0.7806858,-0.33592352,2.8769658
6.1985307,-6.4964265999999995,-7.2417803,-0.5592384,-0.7660425000000001,2.7768886000000004
5.9690129999999995,-6.695892999999999,-5.466202,-0.38837066,-1.1168361999999998,2.5964215
5.71291,-6.667430400000001,-4.194057,-0.33194417,-1.1663511999999998,2.2594682999999995
5.591409,-6.469028,-3.703878,-0.38995892,-0.7282561,1.5876736999999999
5.6665487,-6.2227315999999995,-3.7621812999999995,-0.28457594,0.084596105,0.7551167
5.926108999999999,-5.906735,-3.7738940000000003,-0.07216936,0.77501345,-0.19401079999999998
6.449596400000001,-5.8375900000000005,-3.8294106,0.29618236,0.9182176999999999,-0.7258126
7.2026205,-5.921942700000001,-3.9981062000000005,0.8476715,0.60254,-1.0813886000000001
8.389608,-6.373480000000001,-4.271428,1.0366383,0.17561503,-1.5572875
9.926667,-6.6412187000000005,-4.577368700000001,1.0292032,-0.34444073,-2.1268756
11.872367,-6.5911800000000005,-5.094976,1.1143752,-0.91881114,-2.6607893
14.127417999999999,-6.1184015,-5.226801,1.1361918,-1.4394428999999997,-3.2362417999999997
16.148726999999997,-5.8709083,-5.0157185,1.027615,-1.7236871999999999,-3.6764662000000006
15.871929999999999,-4.5593166,-3.1737919999999997,0.8710938,-1.6848361,-3.8851552000000003
15.496997,-5.991758,-3.721681,0.7177840999999999,-1.3707641000000002,-3.88622
13.13279,-6.8070507,-3.4680681000000004,0.51921797,-0.85494953,-3.837246
11.759926,-6.2153764,-3.9376477999999997,0.30257028,-0.35243434,-3.834052
11.616781,-5.873082,-5.537252400000001,0.14606660000000002,-0.062849306,-3.8569508000000003
11.065071000000001,-5.8400419999999995,-5.534561,0.058241636,-0.04420919,-3.830317
10.902092999999999,-6.4038379999999995,-5.321219,0.03853687,-0.25288075,-3.7818842000000004
10.938342,-7.5208,-5.7069054,0.09337512,-0.614862,-3.8058300000000003
10.490262,-8.812607,-5.868005999999999,0.119991384,-0.9353219000000002,-3.7680437999999996
9.605212,-9.31513,-5.3991737,0.074735,-1.0290287,-3.5615015
8.729107,-9.168692,-4.970842,-0.056199603,-0.8373741,-3.254341
8.221661,-8.902696,-4.8128910000000005,-0.18289305,-0.5025501,-2.8907714
7.8938746,-8.921945,-5.005969,-0.33035590000000004,-0.19964822,-2.4329715
7.3474984,-9.166699000000001,-5.0870370000000005,-0.51026446,-0.011205014,-1.8628422999999998
6.618857000000001,-9.34976,-5.014406,-0.6678328,0.11705923,-1.2778254
6.186837000000001,-9.595338,-4.958746,-0.70244265,0.1868026,-0.75454074
6.108365,-9.831713,-4.7299370000000005,-0.62098813,0.2554813,-0.22701497
5.3289184999999994,-9.700262,-4.561203,-0.46235517,0.40505599999999997,0.44902086
4.5431894999999995,-9.389762,-4.4560785,-0.31543335,0.63022095,1.1985351
4.1918545,-9.332550999999999,-4.622169,-0.28297022,0.7489382,1.8671358
3.6757126,-9.221718,-4.8236360000000005,-0.28562313,0.65577257,2.4101076
2.7589536,-9.149643,-5.198262000000001,-0.28403488,0.47479936,2.733238
1.8466381999999997,-8.8664,-5.258451999999999,-0.23026128,0.28633872,2.9285927000000003
1.4088537,-8.567191000000001,-4.9216356,-0.083356924,0.12079424,3.0451806
1.2784079,-8.328288,-4.248597,0.22378612,0.09150761,3.0696676
0.713338,-8.212802,-3.704615,0.5367935,0.2751686,2.970114
-0.13912226,-7.5626893,-3.127268,0.6858446,0.49342203,2.8194573
0.21284452,-7.7128057,-3.6826174,0.46600290000000005,0.6281091,2.7252617000000003
1.2578082,-8.003682000000001,-4.5109057,-0.09133308,0.70157,2.754531
2.417598,-7.724039599999999,-4.714739,-0.6747616999999999,0.7271215999999999,2.8769658
4.260290599999999,-8.467047,-5.161353,-1.1266973,0.73031557,3.0398574000000003
5.907089,-9.572794,-5.5519905,-1.3401684999999999,0.75054395,3.1873202000000003
7.386457000000001,-10.415477000000001,-5.6256847,-1.4045712,0.761173,3.3486059999999997
8.391332,-10.356282,-5.370616,-1.3119465,0.6632425999999999,3.4582650000000004
8.731577,-9.239962,-5.4583010000000005,-1.1378848999999998,0.4529653,3.4907284
8.01573,-7.830169000000001,-6.286666,-0.93879515,0.119729586,3.4401662
6.9373527,-6.689945,-7.191215,-0.74926984,-0.30717796,3.26024
5.9201903,-6.172242,-7.5734444000000005,-0.56243235,-0.7511374,3.0212347999999998
5.355743,-6.20217,-7.106259,-0.36812484,-1.1423877,2.6917167
5.3771949999999995,-6.53709,-5.8273144,-0.21270327,-1.2696223,2.1466152999999997
5.482568700000001,-6.858459,-4.694522,-0.13763666,-0.8911302,1.4109416000000001
5.6656294,-7.1162667,-3.9788089,-0.14934783,-0.06709046,0.57039106
6.166161,-7.117310499999999,-3.5963497,0.036407568,0.7138048,-0.0082205
6.875534,-6.908612700000001,-3.5825303,0.24720843,0.96240944,-0.4149170999999999
7.854542299999999,-6.718005000000001,-3.8664824999999996,0.36964327,0.85114473,-0.8200255
9.208464,-6.5398483,-4.3152037000000005,0.74920005,0.26984537,-1.0962937
10.678608,-6.5744679999999995,-4.7268915,0.90090406,-0.34604642,-1.5354708000000001
12.4821415,-6.347411599999999,-5.011409,0.7986976,-0.75700164,-2.1338046000000004
14.453317000000002,-5.6115494,-4.9866915,0.88973397,-1.1902971000000002,-2.6927464
15.923720000000001,-4.8954334,-4.802146,1.0121688,-1.6465087,-3.2639227
15.849557999999998,-4.993663300000001,-4.5705695,1.0536902,-2.0239186,-3.7201345
13.461878,-4.689417400000001,-3.3892703,0.9759707000000001,-2.1048496,-3.9596807999999997
12.866287,-5.6255217,-4.811962599999999,0.7433357,-1.7971481,-3.9846913999999996
11.9972105,-6.6651506,-5.5081773,0.3930656,-1.1993553999999997,-3.882485
11.063836,-5.998136,-4.974481,0.03853687,-0.53607786,-3.8116943999999995
11.438969,-5.5031776,-6.0378989999999995,-0.2446428,-0.059655353,-3.8079593000000003
11.409596,-5.7454233,-5.895961,-0.38995892,0.15592772,-3.8138237
11.102305,-6.5844380000000005,-5.108258999999999,-0.4208338,0.15112805,-3.7770846
11.060359,-7.794601400000001,-5.1688614,-0.39154717,0.0031590459999999996,-3.6865892
10.698634,-8.994833999999999,-5.371966400000001,-0.3601487,-0.20230111,-3.5700011
9.902045,-9.570668,-5.401827,-0.3665366,-0.45781732,-3.4294846
8.955942,-9.345096,-5.2567096,-0.35110790000000003,-0.5914397,-3.2314422
8.316872,-9.050550999999999,-5.201432,-0.28883454,-0.5866574999999999,-2.9237754000000002
8.080574,-8.905291,-5.161449,-0.19886282,-0.49136254,-2.5160142999999997
7.6814029999999995,-8.971783,-4.96454,-0.18928096,-0.30504864,-1.9874063999999998
6.984681,-9.163165,-4.592452,-0.26113617,-0.07295476,-1.4950141000000001
6.358052,-9.463187,-4.346175,-0.36227798,0.17456783,-1.0148392
5.8142133000000005,-9.534467999999999,-4.164168,-0.33726743,0.45615926,-0.495307
5.4257016,-9.429928,-4.085408,-0.1254019,0.7782074000000001,0.23556710000000003
4.800767,-9.324113,-3.805028,0.09922197,0.93205816,0.9808226999999999
4.3975067,-9.39028,-3.3862154,0.13596115,0.92832315,1.7223432
3.8498762,-9.423204,-3.1934915,0.04759513,0.8362396000000001,2.4212952000000003
3.3492870000000003,-9.207535,-3.3282947999999997,0.014049901000000002,0.7201927,2.8743129
2.78958,-8.866121000000001,-3.6858926,0.119991384,0.6110747,3.0808551
2.4034529,-8.482369,-4.0152392,0.46439719999999995,0.4439245,3.1596394
2.1475894,-8.399960499999999,-3.941718,0.83543676,0.29859093,3.074991
1.3793857,-8.393419999999999,-3.36144,1.087759,0.23684117,2.8189337
0.25915796,-7.9388570000000005,-2.9290087000000002,0.9983283000000002,0.29061478,2.5527709
0.35104743,-8.093062,-3.8561682999999998,0.46598545,0.4465774,2.3877501
0.7403255,-8.269821,-5.215127,-0.31330407,0.6392791999999999,2.4143662
1.8227248,-7.804274,-5.3412147,-0.99574524,0.7952593000000001,2.5985683999999996
3.8893807000000002,-8.259574,-5.457133,-1.3374982,0.88681924,2.8264036
5.603409,-8.918919,-5.4554763,-1.4115001,0.9469633,3.0489156000000004
7.167569,-9.482513,-5.5126305,-1.3800842,0.9954136,3.2650397
8.499971,-9.247825,-6.0616015999999995,-1.2895888999999998,0.9368578000000002,3.4311078
9.051309,-8.255294000000001,-6.8435,-1.0862405000000002,0.7100871999999999,3.5056508
8.596717,-7.054362299999999,-7.8452915999999995,-0.7790975,0.31456068,3.478476
7.394492,-6.312696,-8.578196,-0.43415064,-0.17249089999999997,3.3539293
6.1394706,-6.172434,-8.346015,-0.18819885,-0.6350904,3.1218355
5.328382,-6.572821,-6.8807344,-0.046076692999999995,-0.9912247999999999,2.8258626000000002
5.22863,-6.944506,-5.080295,0.030019663,-1.2281008999999998,2.4660106
5.3179435999999995,-7.2827883,-3.9716837,0.08485791,-1.1876441999999998,1.9347497999999999
5.4848669999999995,-7.399271000000001,-3.4871836000000003,0.11306243,-0.74687874,1.1612723
5.969635500000001,-7.5020776,-3.244268,0.0768643,0.052656583,0.27441812
6.6079106,-7.3550067,-3.0281768,0.17694148,0.6680248000000001,-0.37180749999999996
7.4098053,-7.1231136,-3.1562188,0.19078194,0.88467246,-0.8418595999999999
8.414603,-6.847512700000001,-3.6397227999999995,0.42554617,0.6211800999999999,-1.1197158999999999
9.775210000000001,-6.3977949999999995,-4.4914837,0.5958903,0.10908308,-1.3731029
11.179208000000001,-6.224618,-5.172347,0.5964139,-0.5179788,-1.775541
12.787689,-5.898537,-5.471785,0.71033156,-1.164763,-2.2588923
14.583619,-5.439933,-5.311498,0.8897165000000001,-1.7348747,-2.8657607999999994
16.198767,-5.1741095,-5.307428400000001,0.9083565999999998,-2.0744984,-3.3730407
15.766020000000001,-5.0579233,-4.807107,0.73907715,-2.1256015,-3.7515328
13.83659,-5.337604499999999,-4.747348000000001,0.43938664,-1.8285639999999999,-3.9202714
12.562444000000001,-6.701007000000001,-5.5483519999999995,0.10402162400000001,-1.2296891,-3.9202714
11.042689999999999,-6.7936335,-5.3195524,-0.13391912,-0.5727996,-3.8462867999999997
10.514597,-6.4527470000000005,-5.773637,-0.32447416,0.029234264,-3.8249937999999997
10.588157,-6.462505999999999,-5.9553375,-0.4442561,0.31084314,-3.8712974
10.709522,-6.553342,-4.918926,-0.47993064,0.26558676,-3.9064483999999995
10.993839,-7.1116023,-4.8801017,-0.48631853,0.043074727,-3.8856788
10.838369,-7.955635000000001,-5.341627,-0.50335294,-0.25661576,-3.8212762000000002
10.422448,-8.815441,-5.6547410000000005,-0.50387657,-0.5515066,-3.7137464999999996
9.62562,-9.17281,-5.494875,-0.48099529999999996,-0.71439815,-3.4555599999999997
8.722795,-9.078774000000001,-5.0166187,-0.41125193,-0.69631654,-3.1425526
8.147152,-8.826636,-4.5921650000000005,-0.35004324,-0.57494634,-2.6858174999999997
7.7977240000000005,-8.793932,-4.611079,-0.37344809999999995,-0.32792990000000005,-2.0720375
7.3241024,-9.055876,-4.6737595,-0.48258352,-0.026110126,-1.3651267
6.740856,-9.471642999999998,-4.750335,-0.5400746999999999,0.23842943,-0.68055624
6.132135,-9.711025,-4.72805,-0.44745007,0.44605379999999994,-0.01993166
5.5759425,-9.842303999999999,-4.690059,-0.28988174,0.69837606,0.69975483
4.9859824,-9.875680000000001,-4.180592,-0.13124876,0.8655261999999999,1.4178705
4.2460309999999994,-9.907034,-3.7459967000000005,-0.057264253,0.8889311,1.9842473000000003
3.6668922999999993,-10.039855000000001,-3.4550053999999997,0.0076619955,0.76810193,2.4793274
2.6446542999999996,-9.837766,-3.589732,0.071017444,0.5759411999999999,2.8279919999999996
1.6821085999999998,-9.524632,-3.8116553,0.09550442,0.43912485,3.0329459
0.84278774,-9.020145,-3.8303873999999998,0.16151276,0.34117696,3.1590984
0.47172475,-8.595979,-3.4245799,0.24562019,0.31510174,3.2048783
0.118216105,-8.426575999999999,-2.966119,0.24774949,0.41676718,3.1633568
-0.43782288,-7.7948885,-2.7014065,0.14395475,0.6126629,3.1064067000000004
0.20158220000000002,-7.6687527,-3.2742720000000003,-0.15734144,0.8298517,3.1063892999999996
1.5441165000000001,-8.3131275,-4.249143,-0.6263114000000001,0.9719913,3.2011607000000004
2.5052638,-8.298207000000001,-4.5403733,-1.0314198,1.0108423,3.3597763
4.219608,-8.971917,-5.1458864,-1.1644837,0.9054419,3.5333318999999994
5.9686965999999995,-9.690091,-5.8742220000000005,-1.0431309000000002,0.7042229,3.611575
7.3495289999999995,-10.153656,-6.1969028,-0.8365712,0.45244170000000006,3.597211
8.406779,-10.258752000000001,-6.53142,-0.6827379,0.20223129999999997,3.4971163
8.816227,-9.725515,-6.822019,-0.5922426,-0.039409533,3.3400887999999997
8.53508,-8.944173,-7.002915400000001,-0.53688073,-0.23265238,3.177721
7.6766630000000005,-8.281084,-7.2375665,-0.48897144,-0.47432813,2.9876895
6.749034399999999,-7.9314156,-7.0914435,-0.43415064,-0.7356912,2.759313
6.1315599999999995,-7.902933999999999,-5.981079599999999,-0.33353242,-0.97630227,2.4532347000000003
6.1290226,-7.7560167,-4.379464,-0.21057397,-1.0151708000000002,2.0454736000000002
6.543842,-7.426095,-3.5853457000000004,-0.10037389,-0.7836179,1.4077476
7.079635000000001,-6.997045,-3.5758169,-0.10143854,-0.1810081,0.5938308000000001
7.75322,-6.6198435,-3.9941988,-0.05778785,0.6036047,-0.18282324
8.330807,-6.2941456,-4.3658557,0.03588397,0.9070476000000001,-0.7486939
8.945024499999999,-5.976196,-4.680358,0.08539896,0.9283405999999998,-1.3033595
9.780237,-5.825696499999999,-4.819010700000001,0.34889132,0.48490483,-1.646177
10.77362,-5.8514094000000005,-4.9468613,0.5117829,-0.21294762,-1.9868654
12.149157,-5.8739915,-4.8610053,0.57353264,-0.81447536,-2.3190365
13.833363,-5.5327606,-4.7472330000000005,0.7220426999999999,-1.3670292,-2.7550197
15.43467,-5.0017266,-4.666691999999999,0.8327839,-1.7742668000000001,-3.3166142
16.267193,-5.053116,-4.9577117,0.7672991,-1.9046953000000002,-3.823929
14.764496,-4.519582700000001,-4.1277475,0.48836058,-1.6374505,-4.103391
13.514626500000002,-5.2288885,-4.864252,0.15406021,-1.0353991,-4.150777
12.316061,-6.469028,-5.333994000000001,-0.06684611,-0.34444073,-4.077316000000001
10.854191,-6.821396400000001,-5.119397,-0.14241886,0.16976817,-4.0501585
10.38868,-7.16167,-5.7611294,-0.123272605,0.3523645,-4.1151023
10.274783,-7.383354,-5.396052,-0.07695156,0.28262118,-4.1891046
10.99923,-7.863277,-5.056458,-0.06365216,0.028169613,-4.1832576
11.615,-8.525091999999999,-5.22049,-0.09505063,-0.33060026,-4.1640763
11.420945,-9.243342,-5.68485,-0.16105898,-0.6819351,-3.964463
10.3914,-9.603105000000001,-5.7186084,-0.24197245,-0.81608105,-3.6301627
9.06303,-9.496303999999999,-5.062539599999999,-0.27869418,-0.72984433,-3.1782095
8.148378,-9.128449,-4.2771645,-0.3191509,-0.55204767,-2.5729644
7.703047,-9.218136,-4.164254,-0.41444588,-0.27790877,-1.8553897000000001
7.4942245,-9.6238,-4.5143914,-0.5384864,0.013264502,-1.123451
6.965163700000001,-9.971295,-4.8790097,-0.6076887,0.25919884,-0.5107357
5.9852742999999995,-9.826062,-4.982065,-0.4815189,0.45937064,0.10143854
5.0914426,-9.8397,-4.758246,-0.25953045,0.7020936,0.7444702
3.8143082,-9.634133,-4.364687,-0.024242622999999998,0.89160144,1.480685
3.1610644,-9.715181,-3.9744992,0.121056035,0.94750434,2.1492857999999995
2.4718602,-9.762654,-3.7637712999999997,0.23816763,0.8314574,2.8024402000000004
1.7067403,-9.576203,-3.8493589999999998,0.3233397,0.64034384,3.2128544
1.2346419,-9.254192999999999,-3.9431832,0.49741882,0.38056904,3.4683879999999996
0.96710426,-8.975259,-3.9892955000000003,0.7481354,0.047856927,3.5812237000000002
1.0955005,-8.701084,-3.4796657999999994,0.85353583,-0.19006635,3.4742349999999997
0.93526137,-8.613706,-2.852538,0.73057735,-0.14161602,3.2394881
0.21663694,-8.129684,-2.5044785,0.4686558,0.15060446,3.0073943
0.6233544,-8.218432,-3.2266176,-0.011990411999999999,0.54293704,2.8743129
1.3323924999999999,-8.681614999999999,-4.1708045,-0.61299455,0.8687201999999999,2.8599315
2.2291262,-8.54391,-4.5747256,-1.1059278000000001,1.0603573,2.9014702000000003
4.152446,-9.169582,-5.221533999999999,-1.3705024,1.1162602,2.9355216
5.884583999999999,-9.877135,-5.8252273,-1.3721079999999999,1.0640749,2.9791722000000003
7.658563000000001,-10.305918,-6.7447057,-1.1373438,0.9075711999999999,3.0345342
9.254586,-10.242338,-7.901603,-0.84562945,0.6477963999999999,3.0536978
9.882719,-9.347241,-8.338965,-0.64280474,0.30658454,3.0105882
9.357345,-8.16576,-8.241848,-0.5432686,-0.050056044,2.8854830000000002
8.310992,-7.355083500000001,-8.2005625,-0.45968482,-0.40936697,2.6890638
7.205053299999999,-6.9079995,-7.6265282999999995,-0.3691895,-0.7548549,2.4484525
6.638202000000001,-6.7559295,-6.39927,-0.29626963,-1.034317,2.172167
6.4161735,-6.928791,-4.87742,-0.23026128,-1.1492993,1.8288258000000002
6.306739299999999,-7.091999,-3.8398972000000002,-0.1254019,-0.9752376,1.3683556000000001
6.248416400000001,-7.021408,-3.154763,-0.01998402,-0.4514294,0.7535284999999999
6.529342,-6.5703697,-3.3045154,0.020455258,0.26932177,0.052464597
7.071178999999999,-5.951564,-4.0176044,0.24829054,0.67601836,-0.50913
7.8547535,-5.35604,-4.4972878,0.30632272,0.7042403,-1.06966
8.813813,-5.05663,-4.820275,0.41331142,0.3486295,-1.479568
9.934165,-4.862145,-4.8290854,0.43673372,-0.23797564,-1.9118162
11.103178,-4.9602494,-5.051296,0.41863468,-0.7607191999999999,-2.3099957000000004
12.401639999999999,-4.941527,-4.8424644,0.5245586999999999,-1.1312176999999999,-2.744373
13.489564999999999,-4.525367,-4.2366934,0.69224995,-1.4319728999999999,-3.259664
14.509542000000001,-4.2588344000000005,-4.083952399999999,0.8178787,-1.6603317,-3.7467332000000004
14.167688,-4.31686,-3.7699482000000004,0.83491313,-1.7290105,-4.1124496
12.876592,-4.169129,-3.6681373,0.6507286,-1.461242,-4.2976985
12.814093,-6.109064599999999,-5.5684629999999995,0.37976620000000005,-0.95766217,-4.2817287
11.889769,-6.6989765,-5.8084674000000005,0.11679743,-0.39767328,-4.214656
11.973289,-7.821321000000001,-6.676289,-0.083339475,-0.018657569,-4.2178497
11.555231,-8.170252,-5.980936,-0.18980455,0.12452924,-4.2460546
11.7039585,-8.478060000000001,-5.053528,-0.23823744,0.0712967,-4.231148999999999
11.818689,-9.183133,-4.7884417,-0.28455848,-0.04633849,-4.165141
11.651363,-10.057217999999999,-5.047962999999999,-0.3314031,-0.23956390000000002,-4.0725164
10.901959,-10.371557000000001,-5.196452,-0.42242205,-0.44930010000000004,-3.9149480000000003
9.697264,-10.141839,-5.2395477,-0.5091998,-0.5600238000000001,-3.6147165
8.534199000000001,-9.773792,-5.0450144,-0.55604446,-0.5456597,-2.9929605
7.9628176999999996,-9.4756565,-4.8414589999999995,-0.62789965,-0.3715806,-2.2296057
7.669088,-9.690713,-5.0119452,-0.7907911999999999,-0.048991393,-1.320935
7.149928999999999,-10.062303,-5.0591106,-0.873834,0.22780037,-0.5448045
6.32415,-10.259288,-5.2040367,-0.7423583,0.37418115,0.22704989
5.4649763,-10.12912,-5.0416813,-0.43254495,0.5030039000000001,1.0489603
4.693497,-9.930469,-4.812374,-0.10356784,0.6105335999999999,1.9134567999999998
3.5778472000000003,-10.067685,-4.75068,0.08594001,0.6265208000000001,2.5181959
2.194784,-10.402375,-4.5386114,0.2019695,0.5828701000000001,3.004724
0.87343353,-10.443163,-4.3018730000000005,0.2855533,0.4774697,3.3193370000000004
-0.33830068,-10.032299,-4.2139864000000005,0.33932692,0.40240312,3.4955453999999997
-1.0261069999999999,-9.491228,-3.9551256,0.40957642,0.26878070000000004,3.6594841000000002
-1.1904258,-9.107725,-3.2925828,0.4308869000000001,0.11335913,3.8032296000000003
-1.0136188,-9.255092999999999,-2.6326928,0.31588715,0.09737192,3.863897
-1.0125749,-9.137567,-2.2854667,0.14021975,0.32787755,3.8351517
0.01904827,-9.026819999999999,-2.7577946,-0.05405285,0.62385046,3.768096
1.9683977,-9.431431,-3.8993883,-0.3771831,0.8623323,3.6642663
3.1566975,-8.98564,-4.291645,-0.8275304,0.96719164,3.5583425
4.790797,-9.152554499999999,-4.9468517,-1.1607661,0.94963366,3.5147092000000004
6.1986165,-9.824463,-5.8036695,-1.1996171,0.8250695,3.5620773
7.236178,-10.62289,-6.6203127,-1.0803763000000002,0.6579193,3.6105278
8.245171000000001,-11.047775,-7.3475466,-0.91802573,0.47373469999999995,3.5913464999999998
9.101951,-10.725488,-7.775256,-0.76790994,0.26132816,3.4854226
9.313128,-9.744257000000001,-7.3579946,-0.602348,0.02019346,3.2825977999999996
9.049153,-8.631949,-6.929892,-0.45490262,-0.20123646,2.9690668999999996
8.497242,-7.757242,-6.816598399999999,-0.35376078,-0.36093408,2.5368185000000003
7.971858500000001,-7.361519,-6.6342564,-0.21320942,-0.4562116,1.9699006999999997
7.486726299999999,-7.512152700000001,-5.475013,-0.049270645,-0.43545964,1.4178705
7.240880000000001,-7.654320200000001,-4.349479,0.07049385,-0.27628562,0.85892886
7.586305599999999,-7.535893400000001,-3.8314410000000003,0.11679743,0.03457497,0.34096754
8.275779,-7.214505,-3.8154093999999996,0.09604547,0.44764206,-0.23605578
9.008855,-6.586860700000001,-3.842818,0.24403194,0.67921233,-0.65498716
9.781445,-5.8686385,-3.8367467000000004,0.23977333,0.6946585,-1.2123406
10.754333,-5.203270400000001,-3.9234169000000003,0.35636133,0.48279297,-1.6381835
11.879655,-4.8952518,-4.0627303,0.63795274,-0.044732787,-2.0166755000000003
12.682344,-4.6122765999999995,-3.8551629000000003,0.74282956,-0.55257124,-2.4867103
13.199694000000001,-4.380192,-3.789303,0.88069314,-0.9928130999999999,-2.9578269
13.388376000000001,-4.284788,-3.910392,1.0510373,-1.4740178999999998,-3.508775
13.693206,-4.4367046,-4.3046885,1.1383386999999998,-1.9302293999999998,-4.0666695
13.489229000000002,-4.8174209999999995,-4.3311972999999995,1.0574251000000001,-2.0979033,-4.387653
12.578485,-4.659106700000001,-4.175631500000001,0.75454074,-1.8642211,-4.4430146
13.118253,-6.6293144,-5.9407997,0.329204,-1.2781221,-4.3051515
11.869044,-7.324275,-5.332404,-0.10037389,-0.52595496,-4.1214905
11.600682,-7.6613975000000005,-5.505371,-0.40058798,0.010611602,-4.0357769999999995
11.365103999999999,-7.797178,-5.518003,-0.6002187,0.33587116,-4.009161
11.149203,-8.189607,-4.9907804,-0.70403093,0.40985566,-4.0139604
11.202728,-9.026628500000001,-4.998873000000001,-0.7066838000000001,0.253352,-4.0363183
11.036753,-9.983457000000001,-5.39813,-0.6459986999999999,-0.053773593,-3.9335883000000003
10.1098995,-10.393345,-5.6679664,-0.5262342,-0.31196016,-3.6951062999999995
8.856928,-10.259087,-5.6856256,-0.4948183,-0.42322489999999996,-3.3517477999999996
7.989508,-9.860519,-5.5188837,-0.63057,-0.34655258,-2.851903
7.6732054000000005,-9.681328,-5.3276157,-0.8323126000000001,-0.1794024,-2.1593387
7.545240400000001,-9.784929,-5.2979183,-0.9531591999999999,0.040945426,-1.3677796
7.190467999999999,-9.918507,-5.1620812,-0.9185493,0.24644049,-0.5900435
6.6292186,-10.070069,-5.0315876,-0.6837850999999999,0.3683343,0.16957618
5.9553084,-10.244109,-4.6411123,-0.3404439,0.55838317,1.0106504
4.6966577,-10.324296,-4.2415867,0.019914206,0.6946585,1.8490542
3.7181857000000003,-10.186246,-4.078312,0.26054275,0.70689327,2.478263
2.9190970000000003,-10.055589999999999,-4.3324037,0.26905996,0.62385046,2.9264807999999998
1.7896081999999998,-9.787765,-4.6180325,0.116273835,0.42956042,3.2687747000000003
0.76462185,-9.570592,-4.4444237,-0.07534587,0.25015804,3.5658123
0.08309796,-9.320762,-3.8091557000000003,-0.11847295,0.117600285,3.827699
-0.27444255,-8.980258000000001,-2.9287217,-0.056199603,0.027646014,3.9890025000000002
-0.59913456,-8.691968,-2.199802,0.12159709,0.0712967,3.9804852
-1.0743836000000002,-8.104641,-1.7677348999999998,0.48251373,0.26028094,3.831975
-0.21520042,-7.7282057,-2.2253914,0.7236484000000001,0.42636648,3.5104506
1.729284,-8.260474,-3.9000876000000004,0.5197765000000001,0.49661598,3.0632796
2.9221133999999997,-8.233382,-5.3006763,-0.09609783,0.53974307,2.7662597
4.33973,-8.837535,-6.3281627,-0.7758861,0.6334323000000001,2.6800053
5.7335769999999995,-10.052257,-6.8143673,-1.1410613,0.6706951,2.6911929
7.272646000000001,-11.006509,-6.732409,-1.0979341999999999,0.68453556,2.6166675
9.035487,-11.589449,-6.739275500000001,-0.8514763000000001,0.6754948000000001,2.4814568
10.167303,-11.18346,-6.062224,-0.5815961,0.68080056,2.3531575
10.619442999999999,-9.862339,-5.4361120000000005,-0.3878296,0.5690297,2.2168822
10.69693,-8.161824000000001,-6.079778,-0.24462534,0.37632790000000005,1.9635129
10.052141,-6.3757014000000005,-7.202927000000001,-0.12431980000000001,0.144234,1.7085203000000002
8.840887,-5.781959,-7.8249598,0.0071383966,-0.15280357,1.495049
7.8201427,-5.756054,-6.690932000000001,0.12746139,-0.41097268,1.3295046
7.723474499999999,-5.8438253,-4.540938400000001,0.23445007,-0.46952847,1.1346735000000001
8.175327000000001,-5.897666,-2.7560327,0.27223647,-0.3822271,0.9339780000000001
8.449032,-5.720025499999999,-1.9512936,0.29565877,-0.16236798,0.6034126999999999
8.356539999999999,-5.273727,-2.0726316000000002,0.30419344,0.016999507,0.16957618
8.626806,-4.8831754,-2.6120932,0.17854719,0.1341111,-0.37337828
9.138371000000001,-4.5225800000000005,-2.905182,0.3377212,-0.012793263000000001,-0.8700466
9.437609,-4.6106386,-3.290658,0.5581039000000001,-0.28747317,-1.4167535
9.7227,-4.7292,-3.5613654,0.74441785,-0.6712710999999999,-1.9841950000000002
10.244683,-4.8260307000000005,-3.8132546,0.9238202,-1.1413232,-2.5479363999999998
11.179706,-4.9586697,-3.9078736000000003,0.957348,-1.641168,-3.1020784
12.520247999999999,-5.3152714,-4.609575700000001,0.8397128,-1.9807916,-3.5321972
13.01783,-4.591332,-4.226733,0.58578485,-2.0031493,-3.7610972
14.144627999999999,-4.9945154,-5.2058277,0.23019147,-1.7007884999999998,-3.7935779999999997
14.119863,-5.879173000000001,-5.585941,-0.15786503,-1.1477110000000001,-3.7504508000000003
13.528704999999999,-5.923369999999999,-4.769556,-0.4969476,-0.47218138,-3.7073412000000006
12.848752000000001,-5.855949400000001,-4.705794,-0.7194421999999999,0.068120204,-3.7014767999999996
12.161214,-6.143349,-4.7791233,-0.83815944,0.33426547,-3.7451274
11.757953,-6.692799000000001,-5.151872,-0.91322607,0.38111009999999995,-3.8276467000000003
11.520257,-7.7820845,-5.932171,-0.9430363000000002,0.24377014,-3.8319053999999997
11.199625,-8.931426,-6.4463305,-0.9595471,-0.018640116,-3.7222462
10.5035925,-9.51812,-6.514374299999999,-0.9845402,-0.30129617,-3.4470252999999995
9.665335,-9.640713,-6.325596,-0.95314175,-0.52063173,-3.0323523999999997
9.153436,-9.280558000000001,-5.8584867,-0.831248,-0.6462604999999999,-2.5048093999999996
8.479966000000001,-8.849860000000001,-5.255876,-0.7061428000000001,-0.5839696999999999,-1.9527966
7.768868400000001,-8.502711,-4.675091,-0.6577099000000001,-0.25818655,-1.3454045000000001
7.2932076,-8.679862,-4.5705695,-0.6348286,0.12718214,-0.77422804
6.8646555,-9.221622,-4.8024335,-0.5448569000000001,0.41411427,-0.18652333
5.8922550000000005,-9.689727,-4.849024299999999,-0.36599556,0.58339375,0.46500808
4.728414,-9.819875999999999,-4.6157335999999995,-0.13016665,0.65633106,1.1836648
3.551664,-9.793339,-4.269417,0.04654793,0.6323677,1.8149853999999999
2.6869645,-9.618464999999999,-3.5485803999999996,0.1418429,0.5599889,2.44847
2.26435,-9.271278,-2.9850237,0.26534240000000003,0.43594834,3.0766141
2.114559,-8.820564,-2.7786817999999998,0.42982224,0.3220307,3.521097
1.8065113999999998,-8.325166000000001,-2.7359693,0.6576575,0.21928316,3.77129
1.4218876,-7.9421990000000005,-2.5905259999999997,0.95363045,0.0015707964,3.8671086000000003
1.1546661,-7.818687,-2.5967127999999997,1.1883947,-0.24115214,3.7840656999999998
0.5641505,-7.7521186,-2.5360916000000002,1.3251936000000002,-0.25232226,3.580194
0.25479093,-7.355542999999999,-2.4824040000000003,1.3683207,-0.033004176,3.3528821000000004
1.3804488000000001,-8.072855,-3.5934765,1.1303625,0.32470104,3.0824609
1.8453357,-8.579421,-4.0404263,0.56557393,0.6754948000000001,2.8471906000000002
2.802461,-8.308444999999999,-3.7580156000000002,-0.12217305,0.94006926,2.7093096
4.619459,-9.082022,-4.1938944,-0.56826174,1.047599,2.6826932
6.289453,-9.846900999999999,-4.903708,-0.6145828000000001,0.97679096,2.7167619999999997
8.157792,-10.676233,-5.9629703,-0.47298422,0.77930695,2.7029216
9.775286,-10.801834,-7.0621,-0.33670890000000003,0.5429545,2.6741759999999997
10.540492,-10.265436,-7.290775,-0.22279128,0.28637362,2.6693764
10.513447,-8.946538,-7.298043700000001,-0.14720106,0.0074351025,2.6480834
9.893799000000001,-7.605814,-7.803699000000001,-0.080128066,-0.2991669,2.5687757
8.863161999999999,-6.647692,-8.062628,-0.0024085543,-0.6579541999999999,2.4314356
7.974023,-6.4124574999999995,-7.718763,0.0731642,-1.0188708,2.1950831
7.0858507,-6.525339,-6.104755,0.07422885,-1.2078551000000002,1.7926451
6.8054223,-6.5848684,-4.692147,-0.04712389,-1.0444225,1.1416024
6.852827499999999,-6.3496337,-4.3131065,-0.1881814,-0.497733,0.32023302
6.784277,-6.050224299999999,-4.44315,-0.1775349,0.16287413,-0.41648793
6.866810000000001,-5.750489,-4.5313807,-0.14028956,0.5812819,-1.020686
7.3187203,-5.4480443,-4.718014,0.048153635,0.5935341,-1.376262
8.153051,-5.406251,-4.914712000000001,0.38830084,0.16446237,-1.6083558
9.3735485,-5.5613856,-5.2361,0.5815437,-0.43383649999999996,-1.9437208
10.973794999999999,-5.5312953,-5.471967,0.7076960999999999,-1.0976725,-2.4127257
12.773411,-5.1827283,-5.5810566,0.74497634,-1.7209994,-2.9535508
14.598204,-5.2922106,-5.691228,0.5714208000000001,-2.2240555,-3.484288
15.254646,-5.508321,-5.1019764,0.24937265,-2.3747125,-3.7919722
14.253698000000002,-5.5987544,-4.215892299999999,-0.21853268,-2.0819335,-3.8505279999999997
13.211732000000001,-7.383286999999999,-4.9314423,-0.62468827,-1.4569659,-3.7371339999999997
11.596508,-8.101403999999999,-4.6708193,-0.93769556,-0.50996774,-3.6040525000000003
10.525399,-7.8517175,-4.659298400000001,-1.0883348999999998,0.29702014,-3.584889
10.444255,-7.5230894,-5.150828400000001,-1.1543608,0.81656975,-3.6556794999999997
10.441055,-7.344740400000001,-5.0951676,-1.1905413999999999,0.9645562,-3.7706616000000004
10.609541,-7.802933,-5.4753,-1.1868238000000002,0.7697251,-3.9266417000000002
10.661055000000001,-8.807023,-6.0156236,-1.155949,0.39231512,-4.0405593
10.20448,-9.627631,-6.0954175,-1.0271088,0.02713987,-3.985721
9.388316,-9.778006,-5.5761533,-0.86688757,-0.16660912,-3.7195584999999998
8.661054,-9.491478,-4.7227445,-0.77000433,-0.20760691,-3.2489827
8.404701,-9.2005825,-4.014971,-0.7220951,-0.12669346,-2.6873882
8.29047,-9.172599,-3.8533718999999995,-0.63746405,0.050562188,-2.0326104
7.841719,-9.389522999999999,-4.1899967,-0.39472365,0.21184807,-1.3448633999999997
7.288496,-9.722202000000001,-4.648821400000001,-0.113638386,0.24539329,-0.649629
6.893251400000001,-9.987517,-4.668645400000001,0.07850491,0.2778564,0.11370819999999998
6.139288400000001,-10.306875999999999,-4.548667,0.18125243,0.4487416,0.99256873
5.116399299999999,-10.447664,-3.8771129,0.36009634,0.6116332,1.8128735
4.0929837,-10.477764,-3.604825,0.53204614,0.67497116,2.4223947999999997
2.9168081000000003,-10.044336999999999,-3.5079749,0.5144707000000001,0.64303166,2.8136454
1.9170085,-9.364594,-3.2132772999999997,0.37128390000000006,0.44661229999999996,3.0484095
1.3591978999999998,-8.975641,-2.8441296,0.24139649,0.22942352,3.1804261
0.63007724,-8.54819,-2.38496,0.29410544,0.026616272000000003,3.294344
0.19000384,-8.135278,-2.5176852000000003,0.5096885,-0.07824311,3.306055
-0.07157706,-8.2129545,-3.1557302000000003,0.6938731,0.027680922,3.1799026
-0.22322579,-7.781318,-3.3124356,0.74178237,0.2693392,2.9685607000000003
0.79526764,-7.507517999999999,-3.4462333,0.58794904,0.44767696,2.7758762999999997
2.7677164,-7.9978112999999995,-4.5671697,0.21957988,0.48919833,2.6805812999999996
3.9458933,-7.9456086,-5.668378,-0.22755602,0.40242055,2.7263612999999998
5.3461566,-8.388459,-6.4287763,-0.6076364000000001,0.28267354,2.874348
6.688575999999999,-9.406061,-6.749397999999999,-0.8104610999999999,0.29010862,3.0159464
7.935859,-10.07596,-6.4399047,-0.84985316,0.3683692,3.1341226000000004
9.001192,-9.997113,-6.157877,-0.6938731,0.40509093,3.2267473
9.546937,-9.241399000000001,-6.0559897000000005,-0.43516293,0.31140164,3.2203592999999997
9.161019999999999,-7.988235,-6.015671299999999,-0.17114699,0.06492624400000001,3.0675733
8.255102,-7.3096795,-6.4487343,-0.04230678,-0.23952898,2.7902405
7.350707000000001,-7.0154705,-6.8775744,-0.0018675023000000002,-0.5866226,2.4500756
6.4303184,-6.916867699999999,-6.671931699999999,0.02953097,-0.9171879999999999,2.0897002000000002
6.0542846,-6.887275,-5.749493599999999,0.04923574,-1.0678273,1.6281652
6.3373275,-6.8872275,-4.6315349999999995,0.02846632,-0.871408,1.1134153999999998
6.602394,-6.901966000000001,-3.773664,-0.035918877,-0.27626815,0.50817007
6.9673758,-6.700000999999999,-3.1518803,0.0678584,0.42851323,-0.026808257999999998
7.518472999999999,-5.9765120000000005,-3.0950708,0.14718361,0.77187186,-0.6123488
8.324064,-5.4721400000000004,-3.5517886,0.36543703,0.6260147,-0.9583777
9.474219,-5.255703400000001,-4.3860817,0.6970845,0.15543902,-1.274038
10.510133999999999,-5.3211613,-4.8616660000000005,0.9355663000000001,-0.34492943,-1.7036333
11.738025,-5.4635105,-4.974222,1.2219573000000001,-0.9539097,-2.2418056
13.101675,-5.532914,-4.805651,1.4290233,-1.5868358999999999,-2.798618
14.540714999999999,-5.8266635,-4.8771133,1.4125298000000002,-2.2000922999999997,-3.3612947
14.629999,-5.9288764,-4.1732087,1.1458261,-2.5434334,-3.7328580000000002
14.111463,-5.9380417,-3.6407955000000003,0.6640803000000001,-2.35232,-3.8164241000000003
13.450013,-7.407325,-4.7492056,0.03593633,-1.6853248,-3.7067652
12.171748,-7.927594,-4.605793,-0.55440384,-0.8027293000000001,-3.5625136
11.460305,-7.6665406,-4.717151599999999,-0.98078775,0.023945916,-3.5545201
11.062754,-7.0377655,-4.628605,-1.1974354999999999,0.32684782,-3.7424223
10.781952,-6.6974635,-4.340343,-1.2240692,0.24966934,-3.7520216
10.627823,-6.970556,-4.729717,-1.3182821000000002,0.15543902,-3.6982480000000004
10.498403,-7.871235,-5.75839,-1.4290056999999998,0.05429719400000001,-3.4821239
10.032231,-8.709781,-6.291857,-1.5056607,-0.05586799,-3.1904093999999996
9.110694,-8.791911,-6.285555400000001,-1.5445117,-0.116029486,-2.9343522
8.351071000000001,-8.476939,-5.9225845,-1.4817147,-0.103777274,-2.7421916
8.073421000000002,-8.215798,-5.2793007,-1.2581205,-0.050544735,-2.484005
8.077979,-8.478223,-4.942245,-0.9355314,-0.026598819,-2.0427158
6.992496000000001,-9.020204,-4.616145599999999,-0.6230651,-0.06492624400000001,-1.3906085
6.750663,-9.989367,-4.8756957000000005,-0.37500143,-0.09684832,-0.62353635
6.108844,-10.157803,-4.9967084,-0.15781267,0.030874874,0.14938273
5.146701,-10.0962715,-4.684591,0.0071907565,0.31035444,0.91114914
4.65179,-9.823486,-4.2047734000000005,0.10620329,0.52754325,1.520653
4.694588700000001,-9.781435,-3.7537443999999995,0.15250687,0.65688956,2.056696
4.5530243,-10.036159,-3.1662552,0.21479768,0.5584180999999999,2.5310066000000004
3.6747932,-9.995371,-2.4580886000000004,0.23237313,0.33325318,2.8600013
2.0891612,-9.775362,-2.0941794,0.24193753,0.113394044,3.0505562000000004
0.6603783000000001,-9.275329,-2.0692031,0.3281917,-0.05427974,3.1394634
0.19824947,-8.824942,-2.1542356,0.5794493000000001,-0.05215044,3.1352048
0.30249299999999996,-8.505392,-2.3606062000000003,0.9930574000000001,0.1187173,3.0713258
0.6727899,-7.8144350000000005,-2.5723493,1.2618905,0.27522096,2.999994
1.9112529999999999,-8.127903,-3.5702910000000005,1.226216,0.3593284,2.9558023999999996
2.7714705000000004,-8.500872,-4.3175693,0.9020385000000001,0.3130248,2.98563
3.6202247000000005,-8.453572,-4.763973,0.48576003,0.19217820000000002,3.0670671
5.1013637,-9.236773,-5.566797,0.18765779999999999,0.065484755,3.1213644
6.5080624,-9.656649,-5.932334,-0.0667763,0.04790929,3.1197586
7.852082000000001,-10.233958,-5.8257055,-0.26373670000000005,0.13416345,3.1298814
8.599005,-10.172091499999999,-5.265969999999999,-0.47986080000000003,0.27309167,3.1352048
8.7324295,-9.427389999999999,-4.9547434,-0.6241123000000001,0.3763628,3.101136
8.0793295,-8.366232,-5.5685587,-0.68373275,0.40617302,2.9595373
7.308205,-7.5639725,-6.5785766,-0.625718,0.317807,2.674211
6.6505084000000005,-6.9813967,-7.085170699999999,-0.45111525,0.10487683,2.237704
6.4484086,-6.6196423,-6.842063400000001,-0.15992452,-0.19533725,1.7229542000000002
6.725399,-6.3622559999999995,-6.359881,0.047647487,-0.39229766,1.1831762
7.124751600000001,-6.2046595,-5.900826,0.09236282,-0.36409312,0.6774495
7.3489830000000005,-5.9275265,-5.483306,0.15200073,-0.19001399,0.23883085
7.691592999999999,-5.667898999999999,-5.2724247,0.16371189,-0.039898228,-0.25514970000000003
8.276746000000001,-5.5249367,-4.8534584,0.15680037,0.09850638,-0.74541265
9.118777,-5.4740934,-4.54906,0.21907373,0.104353234,-1.1861956
10.14588,-5.318632599999999,-4.2487507,0.27124159999999997,-0.015934857,-1.7254325000000001
11.152421,-5.3222629999999995,-4.105424,0.38035959999999996,-0.26879814,-2.3157902000000004
11.984866,-5.2809095,-4.0932994,0.5251521,-0.63929665,-2.8992188
12.569875,-5.4140463,-4.673999,0.59915406,-1.0710038,-3.3894818
13.216107999999998,-6.133954,-5.440536,0.5278225000000001,-1.4665303,-3.670026
13.108513,-6.056287,-4.9982595000000005,0.35801938,-1.7289580000000002,-3.6694849
13.905973000000001,-6.896670299999999,-5.988071,0.10728539,-1.7230936999999997,-3.4906235
13.383367999999999,-6.973897999999999,-5.8166842,-0.23499113,-1.3643063999999998,-3.3357080999999997
12.531444,-6.386724500000001,-5.399844,-0.5479984999999999,-0.7659901,-3.2957926
12.068864,-6.0907917000000005,-5.1688805,-0.75080574,-0.20170770000000002,-3.3351846
11.322429,-6.4072666,-4.7844195,-0.8918632,0.19538961,-3.3708417
10.706553,-7.261499000000001,-4.943155,-0.996199,0.35667548,-3.3809644999999997
10.026572,-8.459624,-5.469218700000001,-0.97809994,0.21455333,-3.4139687999999992
9.292691,-9.64666,-6.0486154999999995,-0.8663116,-0.044680428,-3.4735892
8.246367999999999,-9.910961,-5.896976,-0.6730862,-0.28529152,-3.4884943999999996
7.7862697,-9.444015,-5.517208,-0.5490457,-0.4252844,-3.3761650000000003
8.033217,-8.905051,-5.160012200000001,-0.57831484,-0.4593532,-3.0849740000000003
8.290728,-8.670813,-4.784228,-0.7076786999999999,-0.32574826,-2.683077
8.087133999999999,-8.743710499999999,-4.539923,-0.8045793000000001,-0.0776846,-2.1789737000000002
7.4824839999999995,-8.89514,-4.5896845,-0.7465470999999999,0.18687241,-1.6237496
6.8963447,-9.002065,-4.4449024,-0.59695494,0.37850955,-0.9306619
6.545412000000001,-9.127817,-4.104179,-0.4532271,0.5605649,-0.17369516
6.1696467,-9.215111,-3.6305196000000004,-0.30736995,0.7660425000000001,0.80363685
5.757748599999999,-9.416252,-3.5431410000000003,-0.12372639,0.8368329999999999,1.7697988000000002
4.8637633000000005,-9.541613,-3.9165692,0.04394739,0.78414154,2.4490635
3.8688957999999998,-9.477389,-4.2437415000000005,0.054593899999999994,0.6095388,2.8445725
2.8584947999999994,-9.134684,-4.019702,-0.06782349,0.39873790000000003,3.1123235
1.9447333999999998,-8.995514,-3.4733449999999997,-0.13596115,0.29440212,3.4024495999999997
0.9230126000000001,-8.870814,-3.0131605,0.038083083999999996,0.22094123,3.6941638
-0.42884940000000005,-8.395307,-2.6052937999999997,0.4900361,0.21029472,3.7852004
-1.5300768999999999,-8.11599,-2.6280196,0.97710514,0.258204,3.5983453
-2.4870584,-7.319486,-2.2932718,1.1836474,0.3545462,3.2645686
-1.1350911,-7.271228999999999,-2.7642686000000003,0.9686054000000001,0.42483059999999995,3.017587
1.3561141,-7.984739299999999,-4.001784,0.41444588,0.48658034,2.9696777
3.1542554,-8.06776,-5.0528574,-0.33718017,0.52117276,3.0186517000000004
4.8042625999999995,-9.065281,-5.8248534,-0.883346,0.58505183,3.0740135
5.982564,-10.311625999999999,-5.8944,-1.0595545,0.64093727,3.1336164
7.545623299999999,-11.282503,-5.433765,-1.03505,0.6718295999999999,3.2033598
9.29929,-11.090010000000001,-5.185506,-0.9520073,0.6414783000000001,3.2560687
10.374469,-9.999863000000001,-5.677255000000001,-0.90729195,0.54991835,3.2486162
10.198677,-8.773045,-6.9585365999999995,-0.8609884,0.36786306,3.1810021
8.851718,-7.724710000000001,-7.933427,-0.8322428,0.14695673,3.0229103999999998
7.586286500000001,-6.9567933,-8.453016,-0.76888734,-0.13463470000000002,2.8046567000000002
7.04604,-6.7661866999999996,-8.18816,-0.6618987,-0.4827755,2.5699099999999997
7.075249,-6.909273599999999,-6.4939084000000005,-0.5389228,-0.75159115,2.3260875
7.004361,-7.199068,-5.068994,-0.40372956,-0.77023125,1.9971105
7.008116,-7.200696000000001,-4.2119279999999995,-0.30576423,-0.37948695,1.405182
7.176466499999999,-6.8193474,-4.017892,-0.057176985,0.17303194,0.7930078
7.4734716,-6.328622,-4.1011809999999995,0.048223447,0.72027993,-0.12363912
8.002667,-6.028676,-4.116265,0.25103070000000005,0.81981605,-0.83110833
8.888962,-6.119771,-4.520061,0.5752255999999999,0.52490777,-1.4012201000000002
9.760911,-6.129108400000001,-4.562994000000001,0.54274505,0.11129965,-2.0091357
10.626176,-6.3209032999999994,-4.691122,0.4980297000000001,-0.32040754,-2.5675537999999998
11.787651,-6.3487144,-4.496349299999999,0.60981804,-0.93204075,-3.008843
13.557598,-6.354403,-4.5875205999999995,0.78709114,-1.5963829,-3.5118991999999998
14.787873000000001,-5.9719343,-4.118736,0.88076293,-1.9567758999999998,-3.948406
14.8897705,-4.71765,-3.15936,0.7487636999999999,-1.7736558999999998,-4.182629
15.691416,-5.5901833,-4.621001000000001,0.47141343,-1.2934983999999998,-4.2331915
14.019582999999999,-6.122855,-4.2672334,0.12859586,-0.6206391,-4.222021
13.138010000000001,-6.6953087,-5.3827685999999995,-0.11519173,-0.10480702,-4.194864
12.225081,-7.065902,-6.2120432999999995,-0.24188519,0.24755749999999999,-4.1879525
11.478052,-7.6610336,-5.8208212999999995,-0.26263714,0.28164378,-4.145366
11.139062,-8.3552475,-5.2037497,-0.1982345,0.1081057,-4.175159
11.274018,-9.318377,-5.0316067,-0.18545869,-0.150587,-4.21031
10.728073,-9.7836275,-4.940435,-0.24134412,-0.28740337,-4.0868106
9.6611595,-9.579144,-4.7992635,-0.34355062,-0.22191861,-3.7184237999999996
8.815536999999999,-9.364125,-4.808093,-0.49366638,-0.02815216,-3.2329607000000005
