accx,accy,accz,gyrx,gyry,gyrz
13.054634,-0.31769142,-2.777743,0.88772684,0.15344934,-1.0173873
13.125388000000001,-0.7656082,-2.5256722000000003,0.80042547,0.24980898,-1.1158762
14.190318,-0.68533546,-2.227393,0.61784655,0.32594025,-1.1627034
14.651519,-0.32971987,-2.394518,0.4634722,0.35201547,-1.1510097
15.01945,-0.19136375,-1.8918982,0.38095300000000004,0.31848767,-1.0871133
14.724877,-0.08104852,-0.64067876,0.35594246,0.22532201,-0.9705252000000001
14.239467000000001,-0.120715655,-0.059443243,0.34529594,0.10234611,-0.80712754
12.913692,-0.55464077,-0.5613541,0.3426256,-0.046670105,-0.6138846
11.208206,-0.9598546,-0.9021256,0.25640630000000003,-0.19945623,-0.44992843
10.263894,-0.90289176,-0.87522435,0.11533136,-0.23033111,-0.31100023
9.280395500000001,-0.44215158,-1.2037375,-0.04860742,-0.20849703,-0.22581069
8.029884,-0.1263947,-1.7362654999999998,-0.12632693,-0.20956168,-0.07304203
6.7646446,-0.09495404,-2.0753515,-0.12367403,-0.27982864,0.16968091
5.762403,-0.22103270000000003,-1.9024518,-0.01293289,-0.37245327,0.41509166
4.9952817000000005,-0.44771573,-1.6407657,0.16004670000000001,-0.37405896,0.5529552
4.5256443,-0.73116046,-1.5677136999999999,0.23457225,-0.35702455,0.5423087
4.423709,-0.9604196,-1.5518545,-0.07415904,-0.32560859999999997,0.4661949000000001
4.7564936,-1.0307325,-1.7655131000000002,-0.70071477,-0.14463544,0.60938174
5.5853470000000005,-0.9086187,-2.0415834999999998,-1.1020881,0.07787659,0.88460267
6.821263,-0.81652814,-2.1770954,-1.1409392,0.09756391,1.0533412
7.8954735000000005,-0.955727,-2.0140407,-0.93120295,0.017191493999999998,1.0948625
8.4591255,-1.5015379,-1.7959769,-0.55538124,-0.13344787,1.0884746
9.148733,-2.0229952,-1.6877398000000001,-0.018797196000000002,-0.17816322,0.929318
10.262813000000001,-2.0807335,-1.5425459,0.43579125,-0.09937905,0.6849719
11.492685,-1.3766469,-1.8354716,0.58590704,-0.090338245,0.47949430000000004
12.581798,-0.6419045999999999,-3.219818,0.41928044,0.003874631,0.3453483
12.162545,-0.389709,-4.8978662,0.016842427,0.1497318,0.26391125
11.097422,-1.2957898,-5.0642059999999995,-0.40313616,0.24980898,0.23410101
10.432675999999999,-1.5776831,-3.1249504,-0.53780574,0.2125462,0.20481439
10.706266000000001,-1.3320476,-1.5081171999999998,-0.45104542,0.076270886,0.17606881
10.901644000000001,-0.9914868,-0.327364,-0.35149187,-0.09138544,0.14306463
11.577689,-0.5852578,0.40785706,-0.32381094,-0.16219345,0.16011651
12.475736,-0.15908992,0.51677406,-0.31051153,-0.20158553,0.2149373
12.454704,0.10271125,-0.84111184,-0.23705062,-0.26546457,0.2718874
11.461205999999999,0.41887036,-2.671297,-0.12152728,-0.35116026,0.31075588
10.039529,0.8820909,-4.0877833,-0.030508353999999998,-0.40493384,0.31553808
8.463024,1.3597246,-4.4927483,-0.044348817,-0.34529594,0.2820103
7.080162,1.464332,-3.8357792,-0.12152728,-0.25853562,0.26071727
6.3200984,1.3708911,-2.4900558,-0.20352285,-0.18081611,0.23303635
5.910106,1.3319614,-1.6791302,-0.26792550000000004,0.0028099802,0.1702045
5.8822184,1.2988065,-1.6679636999999998,-0.29080677,0.22425735,0.09302605
5.871387,1.1827356000000002,-1.5947585,-0.30092967,0.25886723,0.044593163
6.247574,0.93505067,-1.4531177,-0.32648128,0.20191714,0.08984955
6.940695,0.76362586,-1.2726427,-0.31370547,0.15718435,0.10473721
7.754053,0.8417534,-1.2781303,-0.19659388,0.14227924,0.0914378
8.817405,1.0541191,-1.5395003999999999,0.01685988,0.029967302,-0.008098328
9.778532,1.1208120000000001,-1.9220269,0.32452652,-0.024853487999999996,-0.22261675
10.743414999999999,0.9475484000000001,-2.2057588,0.6524564,0.031031952999999998,-0.49729666
11.775871,0.7694581,-2.2289634,0.811613,0.059777527999999996,-0.74270743
12.641126,0.7089806,-1.9965726000000001,0.8717745000000001,0.046460666,-0.8539546999999998
12.923699000000001,0.7368682,-1.894053,0.87975067,0.07307693,-0.8848296
13.159517999999998,0.27869463,-2.4360142000000002,0.84568185,0.16943656,-0.92635095
13.107948,0.056934115,-2.3222797,0.79086107,0.31155872,-1.0056762
13.912716,-0.18323305,-1.935645,0.7354991999999999,0.42388812,-1.0908308
14.14436,-0.24985889,-1.1606419,0.6795963,0.4004658,-1.1355461000000002
14.680287,-0.24447674,-0.6919721999999999,0.6034825,0.3089058,-1.1318285
14.760876000000001,-0.030071173,-0.11662635,0.49382347,0.23863886,-1.1009537
14.440782,-0.09965625,-0.3861656,0.40172243,0.17369516,-1.017911
13.180099499999999,-0.45756066,-1.2372563,0.28248155,0.079482295,-0.91996306
11.596976,-0.8550173000000001,-1.6213342,0.14194763,-0.02963569,-0.8055218000000001
10.432916,-0.8922328000000002,-1.7734904999999999,-0.03848451,-0.09245009,-0.6857399000000001
9.5077,-0.49805143,-1.7943297999999999,-0.21842796,-0.09086184,-0.5276479000000001
8.515936,-0.0627185,-1.7983613999999997,-0.274837,-0.11641346,-0.32110570000000005
7.4264116,0.084007755,-1.8793908,-0.17369516,-0.2308547,-0.054925512999999995
6.324236,0.007038953000000001,-2.0279462,-0.0070685832999999995,-0.34955454,0.1627694
5.6545677,-0.07802225,-2.1688595,0.15791739999999999,-0.40758675,0.3576005
5.370539,-0.24741681,-2.1334732000000005,0.23244295,-0.46348962,0.45235443
5.2437997,-0.40913078,-2.0590134,0.20423843,-0.49542916,0.39912188
5.5132623,-0.5712661,-2.247552,-0.117268674,-0.45017278,0.36718237
5.8161190000000005,-0.6661148,-2.3238312999999997,-0.835908,-0.21062633,0.55723125
6.3568644999999995,-0.82282007,-2.4234588,-1.3953906999999999,0.04061381,0.88992596
6.901497,-1.220267,-2.0669432,-1.3698391,0.14547320000000002,1.0496236
7.4989367,-1.6113169,-1.5783823000000001,-0.9072396,0.07894124,1.0693108999999998
8.325061,-1.9560915,-1.3408200000000001,-0.13219124,-0.14674728,0.9931970999999999
9.555575,-1.9301192999999999,-1.5170139999999999,0.6199933000000001,-0.30483920000000003,0.8116828
10.583569,-1.4435025,-2.1381946,0.8739038,-0.34903094,0.6370800999999999
11.731665,-0.5209304,-2.992867,0.72804666,-0.22340214,0.57053065
12.847985000000001,-0.19690873,-4.24921,0.38522908,0.010279989,0.52529174
12.572183,-0.38283285,-5.903278,0.047734755999999996,0.10662217,0.40179226
11.329295,-1.1217123,-6.392078,-0.18273596,0.017191493999999998,0.2713638
10.722643,-1.4124066000000002,-4.117452,-0.31422907,-0.029094638,0.20163789999999998
11.064842,-1.0523951999999999,-1.5375276000000002,-0.35575047,-0.0429351,0.20057324
10.857016,-0.41522163,0.38419273,-0.30145326,-0.08873254,0.22451915
11.106491,0.13195881,1.0748146,-0.23331562,-0.14409438,0.2506118
11.291736,0.5292431,-0.05416642,-0.18860027,-0.17549285,0.31662017
10.708355000000001,0.6094105,-2.4214861,-0.07733554,-0.19837412,0.40818015
9.690014999999999,0.7493850999999999,-3.7101983999999995,0.0450644,-0.2814169,0.46567129999999995
8.876934,1.2420926,-4.114703700000001,0.09192649,-0.33412582,0.48644072
7.962588,1.6793601999999999,-3.879689,0.007819075,-0.24841271,0.46513024
7.0192440000000005,1.6579368000000003,-3.2674053,-0.15453145,-0.14355333,0.40392154
6.369716,1.3762733,-2.5616999,-0.26312584,-0.020053834,0.28680995
5.902454,1.0971861,-1.8983338,-0.28761279999999995,0.18221237,0.122853726
5.9105463,0.98924583,-1.4739472,-0.28228956,0.39248964,-0.014992378999999998
6.0606246,0.8440423,-1.4598788999999999,-0.32700488,0.41430625,-0.016598081
6.3238053,0.6323373999999999,-1.4419799,-0.31583479999999997,0.27429596,0.086638145
6.8265395,0.56162226,-1.3515747,-0.27590165,0.2599319,0.06642723
7.5309424,0.76408553,-1.638132,-0.24609143,0.23066272,0.029164452
8.379667999999999,1.1720383,-2.0335486,-0.14601424,0.17636552,-0.10815805
9.634976,1.426992,-2.5633185000000003,0.13503613,0.17423622,-0.29394835
10.983353,1.391759,-2.8103618999999997,0.500735,0.19659388,-0.5553114
12.275005,1.3304579,-2.4696574,0.67587876,0.21415189999999998,-0.8001811
13.0986,1.2074341999999998,-2.154274,0.7158119000000001,0.23863886,-0.8885470999999999
13.21676,0.69341826,-2.4261787,0.7184648,0.29241246,-0.9183574000000001
12.576952,0.022687456,-2.889313,0.72165877,0.34670967,-0.9556200999999999
13.251035,-0.13356772,-2.7371662,0.6998247,0.40739477,-0.99820614
14.160773999999998,-0.05803545,-2.4667652,0.6769434,0.41856486,-1.0274928
14.541654000000001,-0.013148955,-2.323343,0.6929132,0.38023743,-1.0141759
14.931018,-0.12741941,-1.5725978999999999,0.723247,0.2833542,-0.99181825
14.758664000000001,-0.14739664,-0.75651026,0.6721611999999999,0.16411331,-0.9487085999999999
14.33649,-0.12049539,-0.89230937,0.5284333000000001,0.064577185,-0.84489644
12.830873,-0.28758195,-1.6170533999999999,0.30325097,-0.032829642,-0.7064918
11.0423355,-0.5200206,-1.9253978999999999,0.03656465,-0.08232718,-0.52443653
9.753173,-0.44992796,-1.8467148999999998,-0.17475982,-0.08180358,-0.33653438
8.692302999999999,-0.16099569,-1.7789015,-0.31475267,-0.104684845,-0.20823523
7.7546372,0.011042058,-1.7853179,-0.3818257,-0.18294542,-0.07993608
6.8202476999999995,-0.04066312,-1.7795718,-0.35787976,-0.32560859999999997,0.12018337
6.050099400000001,-0.16963397,-1.7211342,-0.19711748,-0.41662756,0.32833135
5.598324,-0.24800100000000003,-1.9589646,0.020577433,-0.42462116,0.45128977
5.2207675,-0.28807035,-2.4084902,0.11321951,-0.479983,0.43851396
5.1108446,-0.39353973,-2.8537734,-0.09862856,-0.36713,0.33311355
5.313184,-0.56231177,-3.1576264,-0.57187456,-0.19305086,0.44809583
5.7449255,-0.71759015,-3.11432,-1.0200926,0.0251851,0.7147996
6.496388400000001,-0.72999215,-2.680778,-0.90990996,0.058712877000000004,0.8430813
7.437970599999999,-0.749749,-2.2313099999999997,-0.5479111999999999,-0.024836035,0.8074241999999999
8.250401,-1.1326586,-2.0771902,-0.19231783,-0.1706932,0.819659
9.059267,-1.6120352,-1.7571238,0.15100588,-0.18188076,0.7674911
10.246503,-1.6657227,-1.3940861,0.29740409999999995,-0.073809974,0.6322979000000001
11.407202999999999,-1.0201789,-1.7625252,0.20797344,0.034225907,0.5582959
12.78317,-0.5004552,-3.137065,0.01314233,0.11674507,0.5194449000000001
12.799767,-0.3024547,-4.3864746,-0.2013761,0.19020598,0.39008108
11.391267,-0.9437177,-5.2136807,-0.3552094,0.19339994,0.24261822
10.371739,-1.09483,-3.4224922999999996,-0.39088395,0.16571902,0.14840534
10.818162,-0.5969128,-1.2379459,-0.37863174,0.10822786400000001,0.096778505
10.91531,-0.20200358,-0.6569307,-0.37276742,0.04914847,0.058451075
10.655702,-0.039523482,-0.66266716,-0.37863174,-0.0019547688000000002,0.08559094
11.44529,0.106886744,-0.93402594,-0.33923966,0.0150796445,0.16704546
11.608976,0.075225815,-2.1825063,-0.20029399,-0.064751714,0.2761809
10.674223,0.11175176,-3.2527912,-0.022514747,-0.18240435,0.3070383
9.912838,0.61421806,-3.6013966,0.11428416,-0.24202481,0.32833135
9.079914,1.2718096,-3.3233913999999998,0.08395033,-0.2553242,0.3352603
7.9006357000000005,1.4006081,-2.7102747000000003,-0.0006806784,-0.22179644,0.3112969
6.9270190000000005,1.3079811000000001,-2.0875237,-0.06562438,-0.10681415,0.21760765
6.365282,1.2708806000000001,-1.823127,-0.17208946,0.14922565,0.056321774000000005
6.0607394999999995,1.1143093000000002,-1.6619016,-0.31368804,0.38557813,-0.06503097
5.7974157,0.8223221,-1.4317997,-0.36320302,0.42921138,-0.066636674
5.927804,0.51069283,-1.0647589,-0.29187140000000006,0.34351570000000003,0.05630432
6.3290242999999995,0.46589250000000004,-0.84966385,-0.25139722,0.19181168,0.1558579
7.2648983,0.67257917,-0.8261145000000001,-0.23755677,0.15774286,0.2122844
7.9655476,1.1241256000000002,-1.3594756000000001,-0.09382889999999999,-0.0061959187,0.12020083
9.101155,1.3497456,-1.9698342,0.11321951,-0.10946705,-0.08525933
10.785439,1.2848626,-2.2584698,0.33520794,-0.12863077,-0.3136182
12.31292,1.366256,-2.1524064999999997,0.4927588,-0.033353243,-0.56648153
13.046944,1.3576847,-2.327777,0.57156044,0.10876892,-0.7677005
12.880949000000001,0.9195267,-2.5159516,0.61041147,0.20565215,-0.8683013
12.421166,0.09525092,-2.6067972000000004,0.5774073000000001,0.31051153,-0.9231396000000001
11.98024,0.04124731,-2.3360991,0.48265335,0.41165337,-0.9449562
12.754487,0.007431602,-2.630768,0.41558033,0.4260174,-0.9492322
13.415268,0.2894494,-2.2267606,0.43954372,0.32702234,-0.94284433
14.446488,0.39169142,-1.6384193,0.49436450000000004,0.18594737,-0.8975879000000001
14.954289000000001,0.30541393,-1.217758,0.46722463,0.08215265,-0.8150861999999999
15.071318,0.07737102,-1.1321605,0.35063663,0.018797196000000002,-0.711274
14.556007999999999,-0.13103944,-1.3643216,0.18987437,-0.0035430184000000003,-0.6165201
13.062372,-0.39483258,-1.5780375,0.032306045,-0.03600614,-0.5393416
11.144501,-0.4309946,-1.7736342,-0.08372344,-0.09562659,-0.44244096
9.473224,-0.18344374,-2.065382,-0.13215633,-0.11958996,-0.37538540000000004
7.9174237000000005,0.11836933,-2.2417773999999997,-0.12098622,-0.15100588,-0.28063148
6.728156599999999,0.2014194,-2.1716557,-0.075206235,-0.20795599,-0.11028735
5.721261,0.113896966,-1.8566842000000001,0.05094616,-0.31068605,0.17343336
5.138904599999999,-0.012440273,-1.9449537000000001,0.20903808,-0.38734093,0.396469
4.868676,-0.04966532,-2.1868255000000003,0.36342990000000003,-0.40915754,0.5151863
4.981912599999999,-0.07467994,-2.378831,0.43474406,-0.5869717,0.45076618
5.439521,-0.06129156400000001,-2.3677792999999996,-0.10554006,-0.47731265,0.41030946
6.0373054,-0.10826580000000001,-2.191518,-0.89392275,-0.073809974,0.65730846
6.6830115,-0.18773414,-1.8988413,-1.3432053,0.25035003,0.9011135
7.447931,-0.31089187,-1.5049186,-1.2191823,0.2684491,0.9617986
8.010164999999999,-0.6899611,-1.3319039,-0.76616466,0.10183996,0.978833
8.426632000000001,-1.2134963,-1.3660932,-0.13428563,-0.11852531,0.95434606
9.089960000000001,-1.532222,-1.4084322,0.56836647,-0.23083724,0.8478984
10.212093,-1.3011336000000002,-1.7403259999999998,0.8856324000000001,-0.22977260000000002,0.6179338000000001
11.235385,-0.20219512,-2.43475,0.74829245,-0.08710938,0.44917792
12.571703999999999,0.2412685,-4.323851599999999,0.31124458,0.13432054,0.39488074
11.660575999999999,0.20289423,-6.043367400000001,-0.13056809,0.30572933,0.3304781
10.900504,-0.7495288,-5.7136087,-0.32059953,0.30466467,0.20484929
10.77997,-0.7990792,-2.808389,-0.3035651,0.16413076,0.12391838
10.782863,-0.7425473000000001,-0.91248775,-0.21945770000000003,0.059253927000000005,0.08346164
10.579039,-0.6536554,0.3942963,-0.15985471,-0.048799407,0.060580377000000005
10.9094,-0.46693638,1.0484498,-0.1678134,-0.14086552,0.060580377000000005
11.636031,-0.1090511,0.17514063,-0.22478095,-0.19783308,0.11807153
11.902908,0.22154027,-2.1213872000000005,-0.23916246,-0.23722515,0.21760765
10.861574000000001,0.5015182,-4.073992700000001,-0.17687167,-0.27928758,0.28576276
9.563505000000001,0.9037344999999999,-4.934105000000001,-0.109275065,-0.27342328,0.35177112
8.61905,1.294564,-4.371477,-0.09011135,-0.22338470000000002,0.40392154
7.6576724,1.2674139,-3.1264252999999997,-0.06934193,-0.14566518,0.40924479999999996
6.7150464,1.0773523999999999,-2.2830245,0.020594886,-0.036547195,0.31290263
6.145734,1.0748338,-1.863503,0.07169812,0.12206833,0.1425585
5.8080745,1.1650186000000002,-1.9883366999999998,-0.019303342,0.24663247,0.010000736
5.7431054,1.144189,-2.2389426,-0.25672048,0.32541662,0.029164452
5.8896785000000005,0.8603037,-2.3165432999999997,-0.4350582,0.31796408,0.11274827
6.486199,0.6815718000000001,-1.9710697,-0.5000019,0.27485445,0.11646582
7.420311,0.6337739,-1.6561555000000001,-0.5415233,0.23172736,0.1558579
8.131178,0.7960625,-1.5668422,-0.39992476,0.19978784,0.10369001
9.322984,0.8818898000000001,-1.6523151000000003,-0.007592181999999999,0.18861774,-0.11400491
10.6924095,1.0547321000000003,-1.5125129,0.50181705,0.19020598,-0.44298202
12.199434,1.3280445,-1.4326424999999998,0.82601196,0.15933111,-0.76503015
13.014391999999999,1.3832165,-1.9537069,0.8877617,0.19127063,-0.89013535
13.363074,0.8906430000000001,-3.013936,0.8589986999999999,0.2700548,-0.95294976
12.974438000000001,0.23334847,-3.516747,0.8302530999999999,0.34191,-1.0163052
13.840860999999999,-0.22985293,-3.1002614,0.7626565,0.3765199,-1.0764666999999999
14.40934,-0.47318044,-2.720675,0.6679026,0.35522687,-1.1009363
14.513057,-0.6240631,-2.1039,0.5651550999999999,0.30251792,-1.078055
15.115687,-0.5442020000000001,-0.8880764999999999,0.4922352,0.25514970000000003,-1.0088527
15.306810999999998,-0.18683392,0.16795804,0.39854592,0.20884609,-0.9151634
14.626610000000001,0.1313076,0.083615094,0.31496212,0.09810495400000001,-0.8086983
12.920932,0.05617755,-0.9033706,0.20797344,-0.104684845,-0.6729466
11.056462,-0.25230098,-1.687577,0.044540804,-0.22127284,-0.513249
9.651572999999999,-0.25878447,-1.8275419999999998,-0.12365658,-0.21807889999999996,-0.32641149999999997
8.5092325,-0.06169379,-1.8533898999999998,-0.25352654,-0.25160667,-0.17894861
7.457871000000001,0.08545385,-2.1018312000000003,-0.30145326,-0.25586528,-0.06717772
6.5350504,0.025790341,-2.2132669999999997,-0.20244074,-0.26331782,0.0903906
5.9205065,-0.10893618,-2.2409346,0.01314233,-0.36020106,0.2538058
5.443189,-0.25206155,-2.130246,0.18987437,-0.3697829,0.38104028
5.270385,-0.39534974,-2.29965,0.26865852,-0.36552429999999997,0.40444514
5.070928599999999,-0.47854346,-2.385573,0.012077678,-0.32665583,0.32567844
5.3037696,-0.58289236,-2.548168,-0.514366,-0.13821262,0.46886525
5.88806,-0.7237001000000001,-2.5327015,-1.0339155999999998,-0.07113962,0.7696378
6.727755,-0.59944105,-2.3571682000000003,-1.0600083,0.06138323,1.0240719
7.8970633,-0.59664464,-2.0159081999999997,-0.65383524,-0.011519173,1.0570936000000002
8.848394,-0.7879031,-1.5085483,-0.010803588000000001,-0.31920326,0.90856606
9.347251,-1.0418895000000001,-1.0311731,0.52895695,-0.49860567,0.70469415
10.000562,-1.0370821,-1.0542629,0.7285877,-0.44059092,0.4757942
10.675429,-0.37748897,-1.5697248,0.5571789,-0.18826866,0.27616346
11.838503999999999,0.29414204,-2.8467345,0.06956882,0.15613715,0.20163789999999998
12.063692,0.073712684,-4.6439466,-0.33498105,0.4111123,0.145735
10.369307000000001,-0.12027512,-4.923877,-0.42867032,0.41643557,0.040352013
9.710192999999999,-1.0098646999999998,-3.5768225,-0.320617,0.30625293,-0.05386086
9.912627,-0.43924979999999997,-0.80206716,-0.24448572,0.23970352,-0.12306316
10.706027,0.15696387,0.8030248000000001,-0.18860027,0.17530087,-0.11508701
11.781905,0.49175945,0.9882306999999999,-0.12685053,0.07522369,-0.09484119
12.445473,0.561268,-0.22415474,-0.07628834,-0.05305801,-0.06504842
12.9637785,0.49452716,-1.8262779999999998,-0.029443703999999998,-0.13130112,0.032882
12.380772,0.30082667,-3.6408815000000003,-0.015062191499999999,-0.15207054,0.13988814
11.070405000000001,0.2921405,-4.4288324999999995,0.012077678,-0.21914354,0.25912905
9.841078999999999,0.52218497,-3.7415627999999996,0.020053834,-0.29951596,0.33737215
8.509711,0.7798585,-2.3581738,-0.026249751,-0.27344072,0.34376004
7.450889599999999,0.94475204,-1.8774084999999998,-0.07628834,-0.23617795,0.28520426
6.569287299999999,1.0366607,-1.8376265,-0.16252506,-0.14302973,0.16275196
5.8636775000000005,1.0448488,-1.7925388,-0.31209978,0.10503391,0.041416664
5.693507,0.99265516,-1.8191240000000002,-0.5447347,0.2812249,0.09250245
5.887955000000001,0.7840244000000001,-1.8603808999999998,-0.6320361,0.26525515,0.26230553
6.15442,0.53875285,-1.8901073,-0.5766741999999999,0.1534668,0.36931166
6.551417,0.45408428,-1.9041948,-0.5005430000000001,0.11301007,0.50504595
6.9490169999999996,0.71738905,-1.8662611,-0.3083822,-0.06689847,0.62004566
8.086924,1.032648,-1.9702747999999999,0.07061602,-0.31602678,0.47204176
9.628511,1.1325723,-2.1039574,0.4262094,-0.2979277,0.115383714
10.949566,1.1555567,-2.1920450000000002,0.48370054,-0.1573938,-0.25349160000000004
12.260448,0.9953846,-2.403204,0.30056316,0.0060039326,-0.51328385
12.582075999999999,0.5095723,-2.6617107000000004,0.26490608,0.108210415,-0.60484385
11.984771,-0.29399840000000005,-2.8944080000000003,0.43099160000000003,0.13960889,-0.6745696999999999
11.93726,-0.52721274,-2.2831778999999996,0.5289395,0.20509364,-0.81723297
12.979092,-0.6848949000000001,-1.8721508000000002,0.5390623999999999,0.2865307,-0.93382096
13.025443,-0.68146646,-1.5370871000000002,0.5060582,0.31421164,-1.0322924999999998
13.741271,-0.32722992,-0.8768812,0.47729520000000003,0.24872687,-1.0621201
15.090345999999998,0.49874094,-0.13153745,0.40170497,0.20083503,-1.0078228999999999
15.528572,1.2208992,-0.56890064,0.27555257,0.18538888,-0.90561646
14.573476999999999,1.3059222,-1.7655705000000002,0.12808971,0.16090190000000001,-0.7656061
13.008139,0.5930246,-2.1383092,0.020559978,0.10234611,-0.6139021
11.060034,-0.0011971008,-1.094064,-0.06033603,0.053372167000000005,-0.46804494
10.130547,0.14016613,-0.6182116,-0.13486159,-0.07543313,-0.28598964
9.156969,0.5045062,-0.95343816,-0.1604132,-0.17392206,-0.12150982
7.985150999999999,0.6907175999999999,-1.3132101,-0.15934856,-0.2755875,0.12440707
6.8566202999999994,0.5287834,-1.5331796,-0.08110545,-0.42038000000000003,0.46670103
5.7858562000000004,0.27737305,-1.6407465,0.17172295,-0.57848936,0.7408399
5.069818,-0.020427328,-1.7673613000000001,0.20579177,-0.6721786,0.8265355999999999
4.730617,-0.27161740000000006,-1.8633881,-0.075782195,-0.5555906,0.8574279
4.6541557000000005,-0.50419974,-1.7814393,-0.43830454,-0.30380946,0.9894446
5.019415,-0.67026156,-1.6231538,-0.60226077,-0.23993040000000002,1.1847993
5.398149,-0.89987504,-1.5761987,-0.42819908,-0.25431192,1.2444197
6.1264653,-1.1020988,-1.5688055,-0.08588765599999999,-0.28091073,1.1347607
6.998251400000001,-1.5433598999999998,-1.4003303,0.21537364,-0.25059438,0.9212895000000001
7.6867757,-2.320738,-1.6181643,0.35112533,-0.13187708,0.5859245
8.73671,-2.7340252,-1.4838878999999998,0.2898992,0.10232865,0.31443852
10.645109,-2.3901505000000003,-1.958093,0.08122762,0.33548720000000004,0.17390461
12.681732,-1.9089831000000002,-3.908295,-0.10400417,0.40788344,0.06850417
13.317995999999999,-1.6545945,-4.7888155,-0.30681142,0.39936623,-0.08478809
12.7731905,-1.7047578,-4.691199,-0.55593973,0.36742672,-0.16996016
12.64534,-1.7586561,-3.3727693999999997,-0.7289542,0.4030838,-0.19977039
13.02576,-1.0645483,-2.1945634,-0.6943618,0.37753215,-0.21947515
13.269604999999999,-0.06758352,-1.7041162,-0.47823766,0.2290221,-0.23755677
13.279909,0.6702999,-2.1926866,-0.22591542,0.07623598,-0.24022712
13.16695,1.0819876,-2.9109182000000002,-0.054506633,0.0027750734999999996,-0.158249
12.065339999999999,0.97795475,-3.7104092000000004,0.034906585,-0.076532684,-0.03635521
10.270445,0.7518847,-4.125928,0.09079203,-0.17448056,0.069027774
9.030871000000001,1.0194128,-3.9398217000000004,0.11156145,-0.26069984,0.13716543
7.856640299999999,1.4101561000000002,-3.7602372,0.04129449,-0.21174334,0.13555972
6.696745,1.4537498,-3.3311870000000003,-0.0763407,-0.10367256,0.11906636
6.152964599999999,1.1757063,-2.2270098,-0.20729275,0.05227261,0.06422812
5.919156,0.9265082,-1.0941406,-0.30684632,0.25829127,0.0008901178999999999
5.8463726,0.71567476,-0.41554722,-0.32173398,0.41479495,-0.07681194
5.8215303,0.5498045,-0.3690614,-0.36540213,0.46535712,-0.05127777
5.647357,0.40183324,-0.7837563,-0.38667768,0.38498473,0.12917182
5.8945723,0.46461877,-1.2078843000000001,-0.31962216,0.27797859999999996,0.2271197
6.430615400000001,0.6740253,-1.5513086,-0.24829054,0.13053317,0.23937191
7.4648433,1.12855,-1.7562426,-0.15351915,0.04855506,0.13503613
8.792859,1.3299408000000001,-2.028952,0.12753119999999998,0.1624727,-0.11674507
10.185537,1.2683236999999998,-2.038021,0.53688073,0.22739895,-0.41538835
11.446161,1.1720191,-1.9985647000000002,0.8450884,0.19174187,-0.70176196
12.255402,1.0599129999999999,-1.641072,0.9616764000000001,0.19120082,-0.8029213000000001
12.909488,0.729542,-1.5605407,0.9845577,0.25403267,-0.8561538000000001
12.763824000000001,-0.049990933,-2.0594826,0.9137671,0.3689975,-0.90990996
12.868345,-0.2822285,-1.8389288000000001,0.73755866,0.43500587,-0.9375909
14.174813,-0.22992955,-1.6542593,0.56028557,0.38550833,-0.93493795
14.995651,-0.12633723,-1.5838603,0.4516912,0.25562093,-0.9061924000000001
16.026001,-0.014585477,-0.9770162,0.40912262,0.17842501,-0.8577421000000001
16.062939,0.22690329,0.18895039,0.3888768,0.0980526,-0.7821519
15.223359,0.25099853,0.3151344,0.36173695,0.029914944,-0.6996501
13.296544,-0.115592055,-0.64879036,0.2829528,-0.06323328,-0.59266144
11.081649,-0.28503449999999997,-1.262338,0.1700998,-0.1606401,-0.4606273
9.500575,0.07800309,-1.5039034,0.052988198,-0.21813124,-0.3339513
8.0500145,0.49649996,-2.0188386,-0.039618972999999995,-0.24581218,-0.20139354
6.737581,0.69708616,-2.3992105,-0.09285152,-0.29745647,-0.04649557
5.761493,0.65166336,-2.3461452,-0.0715585,-0.34376004,0.13076007
5.1883693,0.5200589,-2.0498006,0.03593633,-0.3437775,0.25425956
4.987898,0.32509428,-1.6992223999999998,0.14667746,-0.32620203,0.27235863
5.010116,0.18545486,-1.555331,0.1248434,-0.36187658,0.20474458
5.355407700000001,0.03707182,-1.5746473,-0.17270033,-0.26816985,0.18718657
5.7056603,-0.16369636,-1.8456422,-0.7167369,-0.062168628,0.39053488
6.3096312999999995,-0.2863657,-2.034066,-1.0425200000000001,0.07941248,0.6518979
7.176064,-0.36164895,-1.9970611,-0.98556995,0.02459169,0.7637037
8.044863000000001,-0.60074353,-1.9512936,-0.67736226,-0.03874631,0.84885836
8.967989999999999,-1.0021937,-1.9122776000000001,-0.16685347,-0.22293091,0.8978323
9.985823,-1.1575007,-1.6796953999999997,0.37555996,-0.33897784,0.78284997
11.06939,-0.76978374,-1.5882463,0.6002187,-0.35175365,0.64763933
11.981447,-0.1262319,-2.1553369,0.52300537,-0.28628635,0.5597969
12.892652,0.047041275,-3.6631286,0.17914059999999998,-0.11487757400000001,0.48048913
12.209442,0.0018770541,-4.815889,-0.22062707,0.092170835,0.37402406
10.978363,-0.64283353,-5.053528,-0.35156167,0.14755014,0.24307199999999998
10.376843,-0.5919424,-3.2546107999999996,-0.24244368,0.07993608,0.1871691
10.601984,-0.54822433,-1.5823278,-0.08009316,-0.0030892328,0.15151203
10.202852,-0.32348537,-0.26713544,-0.051347587,-0.07600909,0.13021901
10.633052000000001,-0.0011109096,0.4587865,-0.14503686,-0.0882613,0.16109389
11.480897,0.27551517,-0.18690096,-0.20676915,-0.07974409,0.20528562
11.302671,0.32940385,-1.9065125,-0.19240509,-0.11328932,0.28352875
10.687726,0.6177519,-3.3182678,-0.10458013,-0.17130406,0.32824406
9.742515,1.1303121999999999,-4.002339,-0.016737707,-0.21654299999999999,0.34686673
8.734057,1.5192933000000002,-3.4008582,-0.05932374,-0.21334904,0.33623767
7.5571446,1.3473035,-1.9342563000000002,-0.21476276,-0.12924163,0.28085837
6.5636177,1.1347462,-1.0887585,-0.354232,-0.002024582,0.26330036
6.106105,1.1591192,-1.0679768,-0.37287214,0.21514674,0.20155062
5.912921400000001,1.1558152,-1.6179249,-0.28824112,0.37803832,0.10625564
6.0086703,1.0673639,-1.8722466,-0.30419344,0.38549086,0.13873622
6.303655,0.93621904,-1.7142197,-0.382454,0.29606020000000005,0.25904176
6.712001,0.85247946,-1.488322,-0.41226423,0.26146778,0.28565803
7.4324259999999995,1.0732727,-1.3060273999999998,-0.34306192,0.13475688,0.22336724
8.180384,1.4261111000000002,-1.5315516000000002,-0.15196581,0.027227135,0.054087754
9.311635,1.5860053,-2.1145875,0.22917919,0.049061205,-0.15880750000000002
10.505978,1.4177983,-2.2830627,0.6214943,0.111352004,-0.45799184
11.408716,1.1885008999999997,-1.8500187,0.79236203,0.14913839,-0.7140491
12.442359,1.1728907,-1.1751891,0.8307068999999999,0.18161896,-0.82901394
12.943906,0.8873869000000001,-1.3529633,0.8754048000000001,0.24282765,-0.89078116
12.479547,0.3969395,-2.1889613,0.8626290000000001,0.32213542,-0.95890135
13.013731,0.4672907,-2.358825,0.7668104,0.39718458,-0.9940523000000001
13.713605,0.59765977,-1.9011397,0.6502399,0.41530108,-0.98818797
14.666209,0.5542769000000001,-1.423602,0.54429835,0.3743033,-0.9621127
15.160545,0.30277076,-0.47742298,0.44954446,0.28274333,-0.91046846
15.172324,0.29946673,0.35049197,0.33936182,0.21142918,-0.84765404
14.807323,0.23602998,-0.056062627999999996,0.21533872,0.13210396,-0.7321307
13.345347,-0.0983538,-1.1381173,0.13974851,0.04321435,-0.6522819000000001
11.545568,-0.47454035,-1.4695705,0.07586946,-0.029705504,-0.5500754
10.217907,-0.41241562,-1.52254,-0.013020156000000001,-0.07920304,-0.44041640000000004
8.8631525,-0.09033802,-1.8044044,-0.043895032,-0.09944886,-0.3163933
7.5319476,0.10239522,-2.0795462,0.017296214,-0.18620917,-0.1513724
6.486831,0.18445888,-2.1820467,0.13814281,-0.31609657,0.078574724
5.73078,0.12248736,-2.1516595,0.23715533,-0.36081192,0.2909813
5.397412,0.043564897000000005,-2.1540825,0.309028,-0.3916868,0.42938590000000004
5.2077622,-0.04904283,-2.194851,0.21638592,-0.45078364,0.40329322
5.413635,-0.07165367,-2.1492367000000003,-0.3526438,-0.31876692,0.47356018
6.1275187,-0.14917792,-1.9831651000000001,-0.9941046,-0.027052603999999997,0.7833736
6.652787700000001,-0.28708392,-1.9671432,-1.059572,0.14594443,1.0037563
7.2848372,-0.46884215,-1.7623048,-0.7274009,0.059707712,0.9366833000000001
7.9004827,-0.8244481,-1.4790708000000001,-0.30686378,-0.027576202999999997,0.8765218000000001
8.380032,-1.2570325,-1.2190317,0.010384709,-0.055798177000000004,0.8504466
9.217227000000001,-1.633535,-1.3631052,0.29092893,-0.020123646000000002,0.71684164
10.129934,-1.3936456,-1.7573057,0.33297393,0.015515977,0.5789605999999999
11.356905000000001,-0.6852397,-2.5389743,0.09236282,0.11452851,0.5608615
12.353975,-0.41356483,-4.2301807,-0.23766148,0.21779963,0.54595643
11.448862,-0.85979617,-5.324475,-0.4947834,0.21247639,0.48846530000000005
10.526606,-1.6814287,-3.7941199999999995,-0.5479984999999999,0.09909979,0.39744636
11.254137,-1.3926401000000002,-0.9106201999999999,-0.49104840000000005,0.006998770400000001,0.33515558
11.848569,-1.0163386,0.13507129,-0.43196899999999994,-0.06483898,0.30056316
11.516216,-0.8028812,0.06618531,-0.34838519,-0.11168362,0.26701793
11.776867,-0.7161728,-0.39242882,-0.23818508,-0.15214035,0.26808256
12.105744,-0.42189664,-1.3359741000000003,-0.08913396,-0.23890066,0.30908036
11.123145,-0.17537048,-2.916042,0.03913028,-0.34271285,0.31812117
9.650539,0.27947995,-3.9219703999999997,0.10833259,-0.34697145,0.28085837
8.592578999999999,0.94571924,-3.9864895,0.07106981,-0.34430109999999997,0.21485002
7.60273,1.4620624,-3.1334736,-0.034836773,-0.38156387,0.14299482
6.9856005,1.6985999,-2.1026359,-0.13651966,-0.30490902,0.045046947999999996
6.489723000000001,1.7243903000000003,-1.54019,-0.23179717,-0.025446901,-0.098663464
6.490106,1.7280486000000002,-1.2579806,-0.30738738,0.28221974,-0.2817834
6.5884695,1.6652438999999999,-0.94516385,-0.31857494,0.3636568,-0.30894074
6.710420599999999,1.4539603,-0.8053903,-0.28131217,0.26466173,-0.12793264
7.006449000000001,1.3750858,-0.8196502,-0.2717303,0.1576556,0.010978121
7.830773,1.5463096,-1.0582658999999999,-0.33080970000000004,0.13849187,0.037594393
8.687505,1.8901361,-1.3853042,-0.2924823,0.035220746000000004,0.0051138145
9.483759,2.0416028,-1.8481131000000002,0.03913028,-0.030770155,-0.08962265400000001
10.919532,1.6701376,-2.0368049999999998,0.573585,-0.0925199,-0.2770012
12.433923,1.3834751,-1.7742567,0.8929803,-0.1484228,-0.533041
13.326260999999999,1.4033086000000001,-1.4619187,0.8269719000000001,-0.0951728,-0.6922149999999999
13.1629095,1.1945629999999998,-1.3339438,0.64119905,0.061837014,-0.74651223
12.333787,0.20522138,-1.5865991000000002,0.5608092,0.19970058,-0.83061963
11.96781,-0.31116962,-1.7907288000000001,0.5608092,0.30457740000000005,-0.93069685
13.268216,-0.21204965,-2.0709459999999997,0.57677895,0.37857938,-1.02758
13.956444,-0.09116162,-2.0265383999999997,0.5900958000000001,0.32107076,-1.0818771999999999
14.36319,-0.27320716,-1.0470035,0.59435445,0.25082126,-1.0834655
14.390732999999999,-0.34571314,0.42719263,0.5624149,0.20343557,-1.0249097
14.402857000000001,-0.08524316,0.7750318,0.50438267,0.15446164,-0.92537355
13.635352,-0.007987056999999999,-0.62289464,0.43198645,0.045867253,-0.7821693000000001
12.204041499999999,-0.28863537,-1.7942339,0.32977995,-0.105819315,-0.6341828
10.938935,-0.37976828,-1.6261322,0.21108012,-0.18514453,-0.4601037
9.762894000000001,-0.17691235,-1.1266826,0.13334316,-0.19633208,-0.29668853
8.566664,0.07785944,-0.90248954,0.1338842,-0.30386183,-0.15030776
7.348159299999999,0.18079096,-1.0108128,0.14453071,-0.42575562,0.07272787
6.277664,0.059644353,-1.1990832,0.17327629,-0.52742106,0.37561232
5.455725,-0.08708189999999999,-1.2713403,0.2398257,-0.5689424,0.5896070999999999
5.014004,-0.18874928,-1.3893744,0.29996973,-0.66903704,0.5661848
4.8100853,-0.36677256,-1.48384,-0.019408062,-0.5790653,0.42512730000000004
4.8634953,-0.5623884,-1.7233081000000001,-0.7438942,-0.20271999,0.52946305
5.4151096,-0.6865804,-1.951466,-1.2341572,0.14222687,0.78817326
6.3479095,-0.8440519000000001,-1.8395131,-1.0574427,0.16830209999999998,0.9345540000000001
7.3304996,-1.0302346,-1.7380849999999999,-0.5469338,0.019792033,0.91966635
8.223135000000001,-1.4105678999999998,-1.7333158,0.05297074,-0.13829988,0.90687305
8.901641999999999,-2.0125563000000004,-2.011589,0.5187642,-0.14042918,0.7887143
9.67948,-2.1710334,-2.259868,0.70666635,-0.10156071,0.6034476
11.223472000000001,-1.5133749,-2.4551005,0.5773199999999999,0.010210176,0.50284684
13.319816000000001,-0.7838138000000001,-3.6415233999999996,0.22650883,0.17416641,0.41448078
13.251906,-0.33786017,-5.1888094,-0.16153023,0.29180159999999994,0.28352875
11.93366,-1.1455966999999998,-5.8261657,-0.38404223,0.27956682,0.13608332
10.50796,-1.3676447,-2.9658507999999997,-0.4303633,0.24656266,0.059411008
10.549476,-0.97449756,-0.5626949,-0.38777724,0.2162114,0.031206487
10.638788,-0.46557647,0.54713255,-0.32070425,0.14913839,0.033859387000000005
10.778485,-0.028510155,0.4880724,-0.29674090000000003,0.028309241000000002,0.021083577000000003
11.666360000000001,0.3496970999999999,-0.84090114,-0.2679953,-0.07068583,0.009389871999999999
11.538079,0.5739189,-2.6152822999999996,-0.19985765,-0.10156071,0.06262241
10.809237,0.80553395,-4.1902742,-0.12692034,-0.15959291,0.119572505
10.121927000000001,1.3197701000000002,-4.812422,-0.12533209,-0.23410101,0.12756611
9.240911,1.7208852,-4.459985700000001,-0.15940093,-0.24209462,0.14831808
8.102324000000001,1.680653,-3.274856,-0.22008602,-0.16543975,0.162176
7.097046000000001,1.3986063999999998,-2.311755,-0.26960102,-0.07016224,0.1674818
6.4297915,1.2189264,-1.7901063000000002,-0.3159046,0.016598081,0.1648289
6.1069765,1.2728628999999998,-1.5683745,-0.382454,0.20450023,0.12011356
6.2763233,1.347495,-1.6709133000000003,-0.46760859999999993,0.34505159999999996,0.12543681
6.3951139999999995,1.2116767,-1.4845487,-0.49050733,0.35622170000000003,0.21699679
6.5547495,1.0651995,-1.2831773000000002,-0.4394041,0.27904323,0.2861991
7.054170599999999,1.1332523,-1.4840698,-0.39255947,0.23911011,0.29152235
7.6991687,1.2730832,-1.6461381999999998,-0.2706482,0.22155209,0.21593213
8.321603999999999,1.1982405,-1.6223014999999998,0.09822713,0.22581069,0.08445648
9.247757,0.9975871999999999,-1.5014996999999999,0.66462135,0.24336872,-0.24024457
10.097076,0.894761,-1.4313112,1.0596068,0.27530822,-0.6655813
11.1237,0.9438135,-1.4056741000000001,1.1660719,0.3482281,-0.90673345
12.115848,0.8281735,-1.3959727,1.1895117,0.36847392,-1.0206336
12.492532,0.40566397,-1.5763425,1.1224213,0.42861795,-1.0940945
12.868049000000001,0.22745875,-1.3429173,0.93610734,0.52178365,-1.1760901000000001
13.846463,0.08566453,-1.2185528,0.7136128,0.55957,-1.2266523
14.904279999999998,0.066961035,-1.0066661,0.5746671,0.49836132,-1.2362342
15.407693,-0.04374685,-0.2739733,0.48630109999999993,0.4163832,-1.224523
15.830882999999998,0.15758635,0.7478912,0.36758378,0.33279938,-1.1281808999999998
16.38899,0.6419333,1.0290278,0.21640338,0.22579324,-0.981259
15.157067999999999,0.7316298000000001,-0.55677634,0.08545132,0.09964084599999999,-0.80717987
12.933113,0.33504459999999997,-1.7071711999999999,-0.020978857000000004,-0.012653636999999999,-0.6272539
11.151665,0.10971189999999999,-2.235897,-0.06197664,-0.07494444,-0.43987533
9.7297,0.31231883,-2.7288632,-0.052935835,-0.13934709,-0.28817132
8.596285,0.5478987,-3.1887703,0.008813913,-0.2506118,-0.14761995
7.325825999999999,0.5311104999999999,-3.1756978,0.056705747,-0.34376004,0.03440044
6.499817,0.36119884,-2.8525572,0.12325515,-0.3959454,0.29152235
5.7583137,0.16391663,-2.597728,0.30211648,-0.45663050000000005,0.5523618
5.0492563,0.017975666,-2.5248199000000002,0.54005724,-0.5955587,0.68331385
4.7555933,-0.112814784,-2.3856208,0.50014156,-0.76855576,0.57738984
4.757738,-0.19877620000000001,-2.0420625,-0.022584561,-0.5412615,0.56887263
5.216956,-0.28686368,-1.6322709999999998,-0.8950572,-0.06375687599999999,0.8073544
5.8854938,-0.29037836,-1.1714829,-1.1479205,0.21622884,1.0261314000000001
6.8132467000000005,-0.27571627,-0.8861802,-0.81149083,0.13212143,0.9878040000000001
7.582446000000001,-0.38605067,-0.8381716999999999,-0.28874728,-0.087720245,0.8733628000000001
8.305246,-0.7386783,-0.96268934,0.12325515,-0.20322613,0.8036194000000001
9.007733,-1.1120299999999999,-0.9067225,0.33831462,-0.20003219,0.67692596
9.979339,-0.9680907,-0.8410255999999999,0.29626963,-0.11805407,0.51138145
11.698089,-0.23191196,-1.8502102999999999,-0.033213615,0.07037167,0.46081927
13.1355,0.20528844,-3.8185794,-0.40638247,0.25507987,0.46027824
12.429374000000001,-0.044139504,-5.3511653,-0.51923543,0.24816836,0.38629369999999996
11.55166,-1.0413052999999999,-4.8788085,-0.48144907,0.15393804,0.32452652
11.320034,-0.8631575999999999,-1.4258332,-0.4527035,0.05279621,0.28674015
11.687152000000001,-0.42504743,0.12888466,-0.45163885,0.008080875,0.26703537
11.273061,-0.048496947,0.27841693,-0.40107667,-0.006806784000000001,0.2425484
11.041847,0.24522372,-0.4658446,-0.35688493,-0.021170842999999998,0.22657864
11.392244,0.5206335,-1.5830367,-0.28927088,-0.06695083,0.26171213
11.023067,0.5137286,-3.027966,-0.17270033,-0.14041173,0.32559118
9.746019,0.47572790000000004,-3.8905108,-0.066235244,-0.22825415,0.37775907
8.823091999999999,0.7224839,-3.4859674,-0.0076794485,-0.24848253,0.39585814
7.9862905,1.0677086,-2.3932536,0.008813913,-0.24101251,0.34264305
7.1521797000000005,1.1795368999999998,-1.8778682,0.03488913,-0.24474752,0.25905922
6.736900299999999,1.2271816999999998,-1.7389758000000002,-0.014049901000000002,-0.16116370000000002,0.17442821
6.556512,1.3215705,-1.4458201000000002,-0.16631243,0.05279621,0.098820545
6.7081895000000005,1.3844136,-1.0957687,-0.2706482,0.23593360000000002,-0.008674286
6.6746893,1.289268,-1.0339791999999999,-0.3297276,0.19174187,-0.05338962
6.761082000000001,1.1525590000000001,-0.9960741,-0.37657225,0.10550515,0.050387654000000004
7.1223288,1.1294598999999999,-0.956043,-0.350497,0.006492625,0.14353588
7.670553,1.3841166,-1.1898896,-0.2536138,-0.0951728,0.13554227
8.448505,1.8561001,-1.3037290000000001,-0.10295697,-0.17821556,0.013124876
9.5464,2.1310502999999996,-1.4000621000000002,0.1743584,-0.15905185,-0.15241960000000002
10.63354,2.0350714,-1.5191497,0.5443333,-0.037140608,-0.41804126
11.472785,1.9436226000000003,-1.8318229,0.77801543,0.041626103,-0.7012384
12.177935,1.9324656000000002,-1.8958821,0.80730206,0.092729345,-0.8795586999999999
12.600013,1.7066252,-1.7540879,0.79717916,0.14702654,-0.9631424999999999
12.64627,0.8078898,-2.1253042,0.789203,0.2364572,-1.0509674999999998
12.776944,0.29654583,-1.8205606,0.7828151,0.32695252,-1.1111289
13.579241,0.16765158,-1.3090537,0.77003926,0.32695252,-1.1393335
14.668718,0.047539267999999996,-0.85419375,0.7482052,0.25296799999999997,-1.1340101999999999
15.479769000000001,-0.18445888,-0.3643113,0.69336694,0.19919443,-1.0839891000000001
15.774246,-0.26339093,0.35005146,0.62097067,0.10815805,-0.97698295
15.715578,-0.19747375,0.39988914,0.5278225000000001,-0.0009424778,-0.85400707
14.477729,-0.27927884,-0.5952943,0.3644073,-0.12817699,-0.70017374
12.653289,-0.61507046,-1.3928412000000001,0.15414748,-0.22184879999999998,-0.5590988
10.949614,-0.6133753000000001,-1.5067668,-0.02417281,-0.2676288,-0.40100685
9.571530000000001,-0.29645005,-1.552908,-0.09285152,-0.31981415,-0.26792550000000004
8.01708,-0.071634516,-1.6772628,-0.10775663,-0.39645153,-0.12899728
6.7777457,-0.023558944,-1.8829439,-0.1285086,-0.44703117,0.039217547
5.762116000000001,-0.08376832,-2.0774488,-0.1934523,-0.43264967,0.22870794
4.9991603,-0.16711529,-2.2105758,-0.17589428,-0.35280085,0.37988836
4.6158867,-0.20402429,-2.335065,-0.14819591,-0.35440657,0.41236895
4.672974,-0.27862763,-2.5701182,-0.3020467,-0.29530972,0.4384616
4.9624333,-0.38719988,-2.9046838,-0.70022607,-0.2756224,0.58112484
5.852578,-0.5288983,-2.9373598,-1.1010583999999999,-0.05417502,0.89626145
6.674575,-0.72714776,-2.4606647,-1.0787182,0.034697145,1.12195
7.8027515,-0.92085785,-2.124835,-0.80615014,0.0027750734999999996,1.1725297
8.472764,-1.2025023000000001,-1.9800526999999999,-0.39413026,-0.17181021,1.2209799
9.256568,-1.4328914,-2.161562,0.12060225,-0.32939598,1.1512367000000001
9.834787,-1.3565163999999998,-2.0901381999999997,0.41071087,-0.28626890000000005,0.994733
10.620497,-0.8965232,-1.8118457,0.38302997,-0.19364429,0.8557872999999999
11.530926,-0.5846161,-2.6755299999999997,0.04075344,-0.0035953782000000003,0.79670787
11.268435,-0.38067806,-3.6435727999999994,-0.35580283,0.17364279999999999,0.7530571999999999
10.835315,-1.2249789,-4.486428,-0.5208237,0.18163641,0.6167819
9.907685,-1.6337171,-2.8866794,-0.48994884,0.13053317,0.47572440000000005
10.162295,-1.1890563,-0.9650261,-0.43991023,0.083688535,0.41343358
10.165080999999999,-0.68075776,-0.08404606,-0.33185690000000007,0.0394968,0.3506192
10.116154,-0.30471486,0.35169864,-0.17854719,-0.039793506,0.27396435
11.076075999999999,0.09138189,0.10887872,-0.050265484000000006,-0.08026769,0.2361605
11.53149,0.26065195,-1.4019008999999998,0.00720821,-0.13774139,0.21488494
11.075759,0.37011483,-3.1134105,0.04181809,-0.14892894,0.20156808
10.175874,0.5814271,-4.230324700000001,0.058852499999999995,-0.17713347,0.15046483
9.468733,1.0753891000000002,-3.9818637000000003,0.04022984,-0.16009904,0.06422812
8.809791,1.3732758,-2.7516944,-0.016720254,-0.12018337,-0.023055799999999998
8.052064999999999,1.4031459,-2.001476,-0.10934488,-0.0030717794,-0.11301007
7.2935143,1.4518438999999999,-1.5651376000000001,-0.21954496,0.13744467,-0.21575761
7.261010000000001,1.4866365,-1.0510066999999998,-0.24827309,0.29396582,-0.26684338
7.3162107,1.5237370000000001,-0.9642408000000001,-0.23284437,0.40627775,-0.29719466
7.3353267,1.4931103000000001,-1.118456,-0.26637214,0.35889205,-0.1492082
7.586066199999999,1.494183,-1.478161,-0.25146705,0.18589501,0.07328638
8.016458,1.5722243999999999,-1.5760646999999999,-0.24455553,0.16406095,0.1557881
8.687246,1.7668251,-1.7407283,-0.21207495,0.10498156,0.11533136
9.502347,1.9282517,-1.7990607,-0.03853687,0.011815879,-0.0251851
10.349435,1.6582625,-2.0605745,0.32662090000000005,0.012356931000000002,-0.23917992
11.285223,1.3201053,-2.189507,0.5906543000000001,0.10817551,-0.52502996
11.794211,0.9167110999999999,-2.1748161,0.68593186,0.2375393,-0.7533888000000001
12.11195,0.61741674,-1.8028243999999998,0.7088306,0.29927159999999997,-0.8417723
12.305679,-0.17173129999999998,-2.2390192000000004,0.70457196,0.37166786,-0.906716
11.7195015,-0.9094806000000001,-2.4629056,0.67902035,0.4030838,-0.9471726999999999
12.751997,-1.0889788,-2.5064514,0.701378,0.38976693,-0.98389447
13.844213,-0.67861253,-2.1749023999999997,0.72480035,0.31578243,-1.0323448
14.554007999999998,-0.46617022,-1.6556096000000002,0.6598566,0.22848105,-1.0467088
15.000784,-0.4158441,-0.86955494,0.496424,0.14011504,-0.9897587999999999
15.272058,-0.25276068,-0.29744604,0.28829348,0.07675958,-0.90778065
14.933478,-0.14904384,-0.88673574,0.060981803,0.041626103,-0.79279834
12.977367999999998,-0.26845706,-1.5884187,-0.14660765,0.04803146,-0.6623699000000001
11.003866,-0.2835788,-1.8567799999999999,-0.30469957,0.031520646,-0.54845226
9.351857,0.013302185,-1.8812296000000002,-0.38189548,-0.058957222999999996,-0.44785148
8.012167999999999,0.28145278,-1.9470606,-0.32119295,-0.13720033,-0.30251792
6.998922,0.5220509,-1.8511968,-0.20516345,-0.18777998,-0.049654618
6.1583467,0.5840989999999999,-2.0391128000000003,-0.053983033,-0.2931804,0.22446679999999997
5.3731537000000005,0.44853935,-2.4640932,0.13763666,-0.33524284,0.42994440000000006
4.90367,0.28380865,-2.6782880000000002,0.30000463,-0.35334190000000004,0.50659925
4.8519263,0.11777557400000001,-2.6346464,0.34951964,-0.48375290000000004,0.42942079999999994
5.1279015999999995,-0.16349524,-2.5466645,-0.012461651,-0.40071014,0.38842303
5.672582,-0.36441666,-2.2494004000000003,-0.80773836,-0.159558,0.6119996999999999
6.442260299999999,-0.54042876,-1.9338541,-1.3810616000000002,0.09700539999999999,0.9500351
7.130938,-0.83859307,-1.4873356000000002,-1.3171825000000001,0.07410668,1.0905690000000001
7.7997727,-1.4676265,-1.0362201,-1.0616663999999998,-0.038728856,1.1736118
8.218662,-2.063323,-1.0968316999999999,-0.5250823,-0.20961404,1.2246976
9.128708,-2.1330612,-1.2331192,0.23399629,-0.3107384,1.0921572
10.035708,-1.6101581,-1.4782183999999998,0.6784793,-0.392734,0.83397067
10.942996,-0.48471093,-2.3339925,0.64015186,-0.3368311,0.6662969
12.091322,-0.053582232,-3.9385192000000004,0.18236946,-0.06586873,0.57101935
11.4208975,-0.013072341000000001,-5.6895614000000005,-0.3105639,0.20134118,0.49914670000000005
10.566838,-0.9667116,-6.418586299999999,-0.37655479999999997,0.24232150000000002,0.3564835
10.133583,-1.27655,-3.6529102,-0.20781635,0.14917329,0.27078784
10.627325,-0.98708147,-1.4577143999999997,-0.10189232,0.04907866,0.23298400000000002
10.27464,-0.73913795,-0.3124146,-0.10880382,0.010751228,0.20050342
10.913777,-0.20692608,1.0229083,-0.14980161,-0.017959438,0.16804029999999998
11.93184,0.38939297,0.631035,-0.17107718,-0.024888393999999998,0.15632914
12.243841999999999,0.603607,-1.6823577,-0.13861404,-0.011047933999999999,0.18242182
11.668314,0.6600239,-3.9314134,-0.060353484000000006,-0.07438593,0.21649064
10.550701,0.9486402,-4.8817387000000005,0.024260076000000002,-0.15636405,0.20903808
9.394771,1.2493998,-3.863686,0.033318337,-0.18990928,0.18401006
8.374994000000001,1.3040355,-1.9195848000000002,-0.060353484000000006,-0.12177162,0.14142403
7.2062407,1.2359444,-1.3114287,-0.1332908,0.019285886999999998,0.06637487
6.6104193,1.2918538,-1.4451976,-0.11465068,0.24179791,-0.08745845
6.6440244,1.5673785,-1.6167853,-0.06567674,0.42437682,-0.21574014
6.723368600000001,1.6506776,-1.5715348,-0.16043067,0.4653746,-0.21521655
6.930582000000001,1.5354014999999999,-1.3518237,-0.20727529999999997,0.36049774,0.018989183
7.0112185,1.3807266000000002,-1.1465545,-0.17374752,0.18750072,0.13451253
7.446398299999999,1.4359847,-1.0959027,-0.141808,0.06346017,0.113743104
8.084999,1.6069594999999999,-1.124997,-0.12370893,-0.04298746,-0.0054628807
9.234523,1.6707506,-1.5128003,0.099309236,0.0022514747,-0.22799236
10.542158,1.3514118999999998,-1.8378276000000002,0.54274505,0.093811445,-0.5021312
12.159786,1.0677086,-1.5826438999999999,0.8834333000000001,0.14917329,-0.7736172
13.014486999999999,0.9368032,-1.2849202,0.9388126,0.17420131,-0.89870495
13.014172,0.5793106,-1.7373573,0.84831727,0.24340361,-0.93225014
12.229841,-0.42591890000000004,-2.671996,0.75673985,0.3136531,-0.9679247
11.790103,-0.6922499,-2.5098321,0.7173478,0.38072613,-1.0019935
13.021805,-0.49766833,-2.1571279,0.7136302,0.38074356,-1.0525383
14.07736,-0.27498844,-2.0670676,0.7125656,0.30993557,-1.0855598
15.011041,-0.30386248,-1.3826513999999999,0.6779556999999999,0.21676989,-1.0488381000000002
15.589845,-0.54501605,-0.13508086,0.6045121999999999,0.15769049999999998,-0.990806
15.173665,-0.5854111,0.37461597,0.49218285,0.093811445,-0.9290562
13.729234,-0.66105825,-0.5947676,0.302675,0.010768682,-0.8555953000000002
11.695234,-0.8717959000000001,-1.7206168999999998,0.09028588,0.0054454273,-0.75871205
10.305150999999999,-0.73067206,-2.1187057,-0.03960152,-0.015306537,-0.6479884
9.234886,-0.4505313,-2.0144143,-0.09761626,-0.11484266,-0.5255535
8.205475999999999,-0.13018712,-1.858207,-0.11730358,-0.27506390000000003,-0.34030429999999995
7.3603697,0.041180268,-1.8759718999999997,-0.12636183,-0.37620570000000003,-0.09011135
6.5080724000000005,0.06291004,-2.0708218,-0.10665707,-0.43423793,0.14515904
5.9132667,0.056982002999999996,-2.278667,-0.033737216,-0.37781143,0.303792
5.729362999999999,0.097482316,-2.4562209999999998,0.03970624,-0.37620570000000003,0.33147293
5.821952,0.14525144,-2.7821772,-0.14552556,-0.30061552,0.27504644
6.064446,0.14872782,-3.0595791,-0.52719414,-0.20427333,0.36927676
6.4864287,-0.065859705,-2.7906432,-0.95785415,-0.116430916,0.5928534000000001
6.7959223,-0.2557103,-2.4913583,-1.126069,-0.07332128,0.77543235
7.3225317,-0.54355085,-2.199984,-1.1777133,0.065065876,0.88669705
7.8341823,-1.0216538,-2.1162443,-1.0983881000000002,0.16566665,0.999009
8.513409,-1.3696845,-1.9612056,-0.69275606,0.07838274,1.0421360999999998
9.594983000000001,-1.274673,-1.8245636000000003,-0.08110545,-0.07012733,0.92608917
10.62723,-0.76763856,-1.6909193,0.30161035,-0.13932963,0.7860788000000001
11.589564,-0.078797966,-2.395782,0.3021514,-0.14837044,0.72699946
11.741731,0.03169923,-3.7765752999999997,0.093479834,-0.07012733,0.639157
10.750539999999999,-0.4214657,-4.4402957,-0.28764772,0.09061749,0.5529203
10.04043,-0.93913996,-3.728567,-0.5692566,0.11990411599999999,0.48052403
9.961400999999999,-0.74760383,-2.191384,-0.536776,0.04696681,0.37831756
10.093897,-0.62559533,-1.429348,-0.42659336,-0.024347342999999997,0.307527
9.878237,-0.5442116,-0.43705672,-0.39145988,-0.06000442,0.2803697
10.405669999999999,-0.29707253,0.641081,-0.3334277,-0.05787512,0.26494098
11.134608,0.03413174,0.6373460999999999,-0.23921482,-0.097267196,0.28304005
10.852811,0.17516938,-1.3202777,-0.17692402,-0.14198254,0.30859166
10.214611999999999,0.42432916,-2.8981812000000002,-0.16523032,-0.14252359,0.30859166
9.607778999999999,1.0565995000000001,-3.7774565000000004,-0.21418679999999998,-0.10419615,0.2777168
8.491611500000001,1.587145,-3.942647,-0.25996679999999994,-0.05787512,0.21277308
7.6477413,1.6797432,-2.8796787,-0.26583108,0.020350538,0.14889404
7.243494500000001,1.6272048000000001,-1.5428906999999998,-0.27967155,0.11458086,0.062133722
6.840186599999999,1.5578973999999999,-1.262003,-0.2770012,0.2205049,-0.051242866
6.786164,1.4763606000000002,-1.186959,-0.26103145,0.29715976,-0.11458086
6.956066000000001,1.3734098999999997,-0.9226486999999999,-0.31799898,0.29396582,-0.084247045
7.061861,1.3039013000000002,-1.0316423000000001,-0.3941128,0.22369885,0.11269591
7.6219983,1.4168406999999998,-1.3445454,-0.3808134,0.19868828,0.25909412
8.272110000000001,1.6501125,-1.6308345,-0.34567990000000004,0.13107422,0.33094934
8.96983,1.9529599999999998,-1.7420595,-0.15988961,0.027279496,0.28729865
9.823984,1.9754272000000002,-1.575107,0.19940387,-0.004642576,0.13079497
10.754562,1.7999224999999999,-1.5035396,0.7280116999999999,-0.045099307000000005,-0.13267992
11.521569,1.7202818,-1.528353,1.0463424000000001,-0.080232784,-0.39884263
12.00809,1.5446815,-1.4203553,1.0990338,-0.03764675,-0.56440455
12.213598,1.1264241000000002,-1.5528121000000001,1.0341076,0.047507863,-0.63838905
12.109155,0.22516032,-2.054206,0.95638806,0.19282398,-0.7347486999999999
12.600558,-0.41327754,-1.8270631999999998,0.89835584,0.31527627,-0.8481253000000001
13.851798,-0.63299817,-1.4509531999999998,0.8882504000000001,0.36212093,-0.93329734
14.543157999999998,-0.5586343,-1.1023096000000001,0.88345075,0.30621803,-0.95300215
15.121203,-0.29134563,-0.029745562000000003,0.8520348,0.21252874,-0.92851514
15.020044,0.01997722,0.94051903,0.76420987,0.10606366,-0.86835366
14.448347,0.38410658,1.094447,0.58002526,-0.018483037,-0.7762701
13.251992000000001,0.41718486,-0.013244724,0.37561232,-0.07703883,-0.65010023
11.589641,0.13759956,-1.0876858,0.21430898,-0.10897836,-0.52447146
10.29433,0.060774416,-1.3380905,0.07485717,-0.1669931,-0.38234928
9.438489,0.17386693,-1.3956376,-0.050754175,-0.20479694,-0.21572270000000004
8.42918,0.3526276,-1.397371,-0.15030776,-0.23354250000000001,-0.051766466
7.2412057,0.27040115,-1.404161,-0.19661134,-0.2883633,0.14037684
6.264352,0.057087347000000004,-1.5723106000000002,-0.16999507,-0.42570326,0.3671649
5.736937999999999,-0.1467071,-1.8088959999999998,-0.0044505894,-0.5215218,0.50982815
5.5035419999999995,-0.18438226,-2.1892869999999998,0.2414663,-0.49864057,0.46244243
5.507564,-0.20225258,-2.4442692000000004,0.17971656,-0.4054749,0.2841047
5.84371,-0.30769324,-2.2734382,-0.22163936,-0.19734438,0.21970205
6.322071599999999,-0.40018603,-1.9969845000000002,-0.70977306,-0.003036873,0.3229732
6.7304070000000005,-0.4558177,-1.9139631000000001,-0.8668178,0.19710003,0.51248103
7.242814500000001,-0.5218115,-1.7753866999999999,-0.63205355,0.19123572,0.55133206
8.05172,-0.71076185,-1.5656354,-0.24664994,0.10554006,0.5859419
8.790206,-1.1751604,-1.5286115,0.21645573,0.011309733999999998,0.6248104
9.9011545,-1.4294628999999999,-1.3247501,0.5614026,-0.028064894,0.5843537
11.395797,-1.1155832,-0.77297276,0.69448394,-0.040840704,0.47467719999999997
12.884004,-0.27750713,-1.0545213,0.52572805,0.08957029999999999,0.40601593
13.685046,-0.18375976,-3.1177772999999998,0.22177899,0.330705,0.37833503
12.576588000000001,-0.4777773,-4.0535559999999995,0.08602728,0.41374776,0.27986354
11.258255,-1.5116031,-3.583957,-0.03000221,0.29131290000000004,0.16592845
10.517287,-1.4338108,-1.2565919,-0.18118262,0.22849850000000002,0.1643402
10.490377,-1.312444,-0.0007757214,-0.24771458,0.1678134,0.20001473
10.19612,-1.1073662,0.5333228,-0.19500564,0.050178215,0.23195426
10.483041,-1.0252354,0.25991455,-0.12847368,-0.07969173,0.27293459999999997
11.14431,-0.86486226,-0.8673044,-0.09227556,-0.12175417,0.32669073
11.0020075,-0.6415024,-2.2156515,-0.009232792,-0.173381,0.38207003
10.073393,-0.23082978,-3.2747986,0.11796680000000001,-0.22502529999999998,0.39165187
9.041856,0.36328658,-3.1796818,0.17919296,-0.2793225,0.3671649
8.217293,0.8785188,-2.8157537,0.15364133,-0.32775540000000003,0.31180307
7.088044,1.1032768,-2.8769877,0.07538077,-0.32669073,0.27506390000000003
6.164925599999999,1.1052688,-2.5429487,-0.07524114,-0.21064378,0.20853193
5.9279766,1.0313263000000001,-1.9872448,-0.2541025,-0.011030481000000002,0.11803662
6.0585084,0.988834,-1.5856893,-0.40475932,0.1656841,0.028605945
6.4875107000000005,0.90806323,-1.5574186,-0.47926742,0.21094050000000003,0.03286455
6.9961734,0.8084549,-1.5125704,-0.43402848,0.07892379,0.1031315
7.647769500000001,0.85485446,-1.2768948,-0.33501595,-0.020071287,0.15158184
8.247775,1.0937575000000002,-1.2690514,-0.24186772,-0.044034656,0.10950196
8.899227999999999,1.3908205,-1.7115381999999997,-0.07630579,-0.0067718774,-0.061348322999999996
9.728092,1.2524165,-2.0569642,0.3037571,0.05656612,-0.31260592
10.584458999999999,1.0868622,-2.2627982999999996,0.7141713000000001,0.066147976,-0.60006166
11.701871,1.0685129999999998,-2.2599254,0.8829271999999999,0.030473447999999997,-0.75975925
12.598175,0.9416491,-2.1677964,0.85365796,0.08478809,-0.78955203
13.232225,0.34799242,-2.1031337000000003,0.82650065,0.15132004,-0.78902847
13.189954,-0.22257458,-1.8253872,0.8094836999999999,0.21200514,-0.817774
13.859814000000002,-0.66381633,-1.5889072,0.76262164,0.21999875,-0.86409503
14.811394,-0.74992144,-1.315451,0.6907664000000001,0.16728981,-0.8992285
15.787539,-0.7431985,-1.0909228000000002,0.6348635,0.0959582,-0.9242391
16.0584,-0.58847564,-0.2629025,0.56833154,0.01558579,-0.9322153000000001
15.454255999999999,-0.33702698,0.6150800000000001,0.46984264,-0.081297435,-0.9157219000000001
14.057737,-0.29905492,0.08412267,0.31014502,-0.15528195,-0.8417374
11.872013,-0.5373642,-1.0587159,0.15257668,-0.20903808,-0.7145029
10.138630000000001,-0.58805424,-1.4659122,0.03494149,-0.22341959,-0.595262
8.84783,-0.24649744,-1.2457607,-0.015603243000000001,-0.21542598,-0.46163958
7.8513055,0.18284997,-1.2624433000000002,0.009389871999999999,-0.28143433,-0.3046123
6.9707084,0.43185654,-1.4522845,0.029618237000000002,-0.3517013,-0.13959143
6.2908797,0.46911028,-1.5507053,0.007784168199999999,-0.41132173,0.08822639
5.935427,0.40381566,-1.5366848999999998,0.023230333,-0.4528606,0.30061552
5.674373,0.19422722,-1.6323858,0.07913323,-0.4725479,0.40283945
5.6660986,-0.07544608400000001,-1.8686266,-0.03424336,-0.462425,0.35971236
5.7368809999999995,-0.46573925,-1.8513787,-0.41645299999999996,-0.29794514,0.41774455
6.3707795,-0.8222838,-1.7247541000000002,-1.0046813,-0.06956882,0.65249133
7.136435499999999,-1.1891713,-1.4490858,-1.150521,0.07040658,0.88406163
7.45632,-1.3608643,-1.2216749,-0.79653335,0.024102997,0.93303555
8.093589999999999,-1.5353633,-1.2469289,-0.23172736,-0.108960904,0.9473995999999999
8.684469,-1.7889380000000001,-1.5560204,0.33252013,-0.24843016,0.88460267
9.167330999999999,-1.9841133000000002,-1.9664537,0.6444628000000001,-0.26387632,0.69294804
9.969877,-1.7324921999999998,-2.0023284,0.6040061,-0.14409438,0.48321185
11.227035,-1.1217601000000001,-2.4765143,0.18772762,0.14599679999999998,0.39165187
12.115781,-0.92481303,-3.7857307999999996,-0.31211722,0.32485813,0.34747759
11.468456,-0.9869091,-4.798373000000001,-0.5128126000000001,0.37915534,0.31873202
10.63312,-1.7209713,-4.5681080000000005,-0.49097857,0.3903429,0.31127948
10.544399,-1.3767617,-1.7658578,-0.19500564,0.24661502,0.28785715
10.843014,-0.9231659,-0.146506,0.07168067,0.013456488,0.23408356
10.891435000000001,-0.50123096,0.26577553,-0.07737044,-0.029653143,0.25911158
11.443547,-0.056215855999999995,-0.4193588,-0.33927456,0.028885199,0.36877063
12.105783,0.22027613,-1.9929813000000003,-0.35789722,-0.020071287,0.42891467
11.655108,0.26259604,-3.6596617999999994,-0.21842796,-0.09457939,0.49014083
10.312334,0.30405405,-4.6917257,-0.03954916,-0.057316612,0.5423087
8.847733999999999,0.38600278,-3.9437290000000003,0.12438962,-0.038152896,0.5401794
7.5556984,0.27890533,-2.1802464,0.19518016,-0.081279986,0.50131094
6.8352637000000005,0.08423760000000001,-0.6968755,0.15524703,-0.11215486,0.42786747
6.4111547,0.11077493,-0.04345955,0.024818582000000002,-0.050405107000000005,0.3581241
6.2322025000000005,0.33194172,-0.9241043999999999,-0.22907446,0.15557864,0.2889218
5.8001356,0.32768962,-2.322366,-0.434011,0.38714895,0.16116370000000002
6.0809945999999995,0.14262737,-2.075725,-0.43826962,0.39299577,0.08077384
6.7090416,-0.054894257,-1.2807447,-0.35150929999999997,0.2604555,0.10421361
7.34657,-0.13399869,-0.89164865,-0.33979815,0.107145764,0.102607906
8.0728655,0.15580507,-0.8618264000000001,-0.37810809999999995,0.004939282,0.07440338
8.811352000000001,0.62275106,-1.3476386999999999,-0.34831536,-0.102573,-0.08049458
9.636547,1.0180337,-2.2142918,-0.19872318,-0.049340457000000004,-0.2944894
10.691375,1.1647983999999998,-2.9608707,0.2308547,0.08798204,-0.54520595
11.421769,1.2520238000000001,-3.3997474000000003,0.66149724,0.12576842,-0.87739444
12.24728,1.3282646999999999,-3.4471045,0.8472700999999999,0.17102481,-1.0695552
12.845467,1.233464,-2.861732,0.8382293,0.28387779999999996,-1.1392986
12.6944685,0.72076005,-2.4386189999999996,0.7908436,0.43134066,-1.1898607
12.70802,0.5688432,-2.2987976000000003,0.74134606,0.5723982,-1.2319232
13.439391,0.34295502,-2.4759111000000003,0.69343674,0.6336243,-1.2558692
14.3090515,0.28538886,-2.1547432,0.6753376999999999,0.606467,-1.2430933000000002
15.363707000000002,0.03181415,-1.3636032,0.7551865,0.48776716,-1.195184
15.565203,-0.48127285,-0.13189179,0.81480694,0.3466922,-1.1254407
15.603769,-0.71317524,0.9038398000000001,0.74134606,0.22425735,-1.0125877
14.851099,-0.9177453999999999,0.48123452,0.5624847,0.158249,-0.8619483
12.995746,-1.2635063999999998,-0.59333104,0.34742525,0.07466519,-0.70225066
11.356301,-1.3634306999999999,-1.1309539,0.15152949,-0.028029988,-0.53881806
9.91639,-1.1282437,-1.1213387,0.028029988,-0.09724975,-0.41531855
8.500038,-0.83072096,-1.0426556,-0.07150614,-0.17336355,-0.2646792
7.1939826,-0.6869731,-1.0465726999999998,-0.18275343,-0.2808933,-0.005969026
6.2438383,-0.7336216999999999,-0.97489977,-0.19872318,-0.40386918,0.28785715
5.560754,-0.80062103,-0.94241524,-0.0922581,-0.45923102,0.52846825
5.1252775,-0.8167770999999999,-1.3564302,0.05942846,-0.5183104000000001,0.58383006
4.932199,-0.8065204,-2.0345926,0.047193702000000004,-0.57314867,0.53220326
5.0773835,-0.8107533,-2.4892707,-0.40365976,-0.39161697,0.6088581
5.434742,-0.8391581,-2.7540693,-1.0749308000000002,-0.03070034,0.88140875
5.9839244,-0.81650895,-2.5786127999999997,-1.2782791999999998,0.09862856,1.0895393
6.721271000000001,-0.8715755999999999,-2.2721164000000003,-1.0339504000000002,0.017715093,1.1411835
7.270347599999999,-1.2886454999999999,-2.3308415,-0.6219131999999999,-0.16006415,1.1747113
7.782256599999999,-1.8936794999999997,-2.2806687,-0.18807667,-0.3330612,1.1608708
8.773916,-2.20211,-1.8646139,0.104684845,-0.3016627,1.0118197
10.189847,-1.8637806000000001,-1.623173,0.088715084,-0.17868681,0.8191179
11.846079,-1.1782728,-2.174998,-0.14016739,-0.022724187000000003,0.69348913
12.661027,-0.984783,-3.7766232000000004,-0.40100685,0.15507251,0.56946605
12.0537615,-1.2492944,-5.350753299999999,-0.5825210999999999,0.25247929999999996,0.39805725
11.2016945,-1.6530240000000003,-5.009378400000001,-0.56389844,0.2210634,0.24581218
11.025989,-1.3180081,-2.3546782000000004,-0.42868778,0.123115525,0.16968091
10.998647,-0.832349,-0.97019756,-0.27911305,0.07733554,0.12709488
10.753556,-0.50690037,-0.44560882,-0.15826645,0.0012217305,0.08611455
11.243669,-0.092080995,-0.3906954,-0.103428215,-0.06742207,0.05152212
12.03434,0.23960213,-1.5755666000000002,-0.120480075,-0.069027774,0.04033456
11.953157000000001,0.22284271,-3.0013137000000003,-0.18914133,-0.105749495,0.04939282
11.273041000000001,0.35723403,-3.7714423999999998,-0.22905701,-0.18294542,0.06588618
10.467325,0.99602616,-3.6207702000000004,-0.22055726,-0.19732693,0.08398525
9.372284,1.4562588,-2.7357106,-0.19711748,-0.17496926,0.0898321
8.031808999999999,1.4570537000000001,-1.6972688000000002,-0.25408503,-0.16271704,0.0871792
7.124474,1.3712071000000001,-1.1401955,-0.3461686,-0.057316612,0.07440338
6.749244999999999,1.4281125,-0.9081398,-0.32541662,0.13269739,0.008395034000000001
6.573251700000001,1.5625231000000002,-1.0886243999999998,-0.25621432,0.33711034,-0.11030481
6.650594,1.6370306000000001,-1.3553194,-0.3466922,0.38023743,-0.10709339999999999
6.764931699999999,1.5859191000000001,-1.6646884999999998,-0.42121777,0.30145326,0.046722464000000005
7.057321000000001,1.5122161,-1.8897147,-0.41378266,0.24076816,0.1499936
7.5107737000000006,1.4057604,-1.6727425999999999,-0.37491417,0.20669934,0.21600194
8.127022,1.3222506,-1.3470641,-0.11194542,0.1428203,0.12763593
8.932815,1.331789,-1.2837421999999998,0.31920326,0.13536774,-0.08155923
10.112955,1.0771514,-1.5566142,0.794596,0.09597565,-0.3519631
11.418485,0.76449734,-1.349736,1.012832,0.06510078,-0.6405009
12.464711999999999,0.8353656999999999,-0.68139935,0.96385807,0.10075786,-0.7703883
13.080472,0.6648124,-1.1094635,0.84887576,0.18594737,-0.8108276
12.610452,-0.080062106,-2.033587,0.8228006,0.24822073,-0.83850855
13.082942,-0.5690443000000001,-1.8494537,0.8313178,0.30625293,-0.8896118000000001
14.002851999999999,-0.85814893,-1.6389842000000001,0.8068308000000001,0.29984757,-0.9236806000000001
14.63654,-0.7490882,-0.9814023999999999,0.75785685,0.25886723,-0.940715
15.2541485,-0.48538128,0.0850995,0.7072946999999999,0.1492082,-0.8901528000000001
15.095949,-0.20547996,0.72654444,0.6146526,0.061365776,-0.8007221
14.307001999999999,0.18171033,0.2875532,0.53534484,-0.075939275,-0.6708173000000001
12.854421,0.13824122,-1.0340557,0.41184536,-0.20210913,-0.55211747
11.069533999999999,-0.16620548,-1.8015218999999998,0.22340214,-0.30485666,-0.41531855
9.641805,-0.32306399999999996,-1.6608481,0.006736971,-0.29208085,-0.35943309999999995
8.609099,-0.13340493,-1.2668966,-0.118333325,-0.29099876,-0.31363568
7.657212299999999,0.08586565,-1.2838091999999999,-0.2098933,-0.36341247,-0.20717058
6.741172,0.11186668,-1.5354111000000001,-0.27377236,-0.41449824,-0.026720991
5.952215,0.023223756,-1.7354611,-0.25514970000000003,-0.41290998,0.230366
5.292143299999999,-0.09380482,-1.8638095000000001,-0.13217378,-0.30164525,0.37304667
4.8973494,-0.14181335,-1.9949925,-0.10395181,-0.2425484,0.38210493
4.942264,-0.25056756,-2.1312609,-0.32222268,-0.12971286,0.38421679999999997
5.3753085,-0.33266953,-2.3751726000000004,-0.74541265,-0.0035604715999999997,0.5247507
6.2061157,-0.31301793,-2.5316767999999996,-0.99347633,0.12632693,0.74460983
7.3684716,-0.35482067,-2.2201624,-0.8763646999999999,0.15027285,0.8670447
8.100311999999999,-0.58178145,-1.9160125,-0.5500404999999999,0.13962634,0.8941844999999999
8.763352000000001,-1.1777653000000001,-1.867688,-0.1428203,0.044872414000000006,0.89153165
9.487254,-1.8319187,-1.6264961000000002,0.21914354,0.07309439,0.7286401
10.370351,-2.0233974,-1.1963825000000001,0.41130429999999996,0.11779227,0.5353972
11.666475,-1.52729,-1.0475878,0.38683477,0.14814354,0.43319073
12.424039,-1.1327256,-2.2434626,0.162176,0.21947515,0.37517598
12.069343,-0.97450715,-3.2697133999999997,-0.12739158,0.28920105,0.3059562
11.293402,-1.6153392,-3.67079,-0.3253992,0.24822073,0.21760765
10.526347999999999,-1.554785,-1.9835004,-0.3653323,0.14601424,0.1452114
10.920815,-1.1141945,-0.29109663,-0.29080677,0.066706486,0.08984955
10.936043,-0.76692986,0.24547271,-0.23277456,0.033702306,0.073879786
11.337675,-0.3318172,0.21230823,-0.18488273,0.021450097,0.05630432
12.128959,0.10710701,-0.43829215,-0.12098622,-0.042411502000000004,0.05630432
11.7069,0.22379082,-1.8371859,-0.094911,-0.12438962,0.10423106
10.638022,0.40539580000000003,-3.091518,-0.033702306,-0.1637817,0.12498303
9.503583,0.9112523000000001,-3.8348792,0.015795228999999997,-0.16112879,0.110601515
8.458791,1.4474770000000001,-3.7538114,-0.008133234,-0.20476203,0.09943141
7.622085,1.6729148999999999,-2.9417748,-0.0906524,-0.1749518,0.060580377000000005
7.039048700000001,1.642384,-1.9671048999999998,-0.17743017,-0.07648033,-0.008621926
6.726528599999999,1.6251267,-1.3342694,-0.21521655,0.12632693,-0.12093386
6.669125599999999,1.5591999,-1.1737239,-0.19444713,0.28441885,-0.20875883
6.861886999999999,1.5427375,-1.0967168,-0.30784118,0.30251792,-0.10709339999999999
6.8476562,1.4689481000000002,-1.2033545,-0.37650242,0.23172736,0.07068583
7.2207875,1.4270782,-1.2855426,-0.43825218,0.19978784,0.13562953
7.832056,1.6108668,-1.0712903,-0.44889867,0.15187855,0.14734070000000002
8.304853,1.8092215,-1.1631702,-0.19179423,0.11088077,0.09836676
9.229524000000001,1.8244773999999997,-1.3668209999999998,0.31815606,0.059777527999999996,-0.07250097400000001
10.5777645,1.6222537000000001,-1.3781887,0.85102254,-0.07806858,-0.40041342
11.896166000000001,1.3607684,-1.1795848999999998,0.9324595999999999,-0.060510565,-0.6458067
12.887413,0.9796116,-0.79340017,0.7291287,0.095452055,-0.7331081
13.196954999999999,0.24818295,-1.2097421999999998,0.61519367,0.22001621,-0.7969871999999999
12.655884,-0.59028566,-1.8285668000000002,0.5529203,0.34458035,-0.88748246
13.495301000000001,-0.85776585,-1.7310748,0.533233,0.38716638,-0.9673313
14.420612,-0.8063958999999999,-1.6722445,0.60615283,0.36693802,-0.9992708
14.713423,-0.90319824,-0.7560602,0.6897191999999999,0.27164304,-0.9779778
14.927005,-0.81751454,0.45778096,0.6865427,0.15454890000000002,-0.91409874
15.050162,-0.2866051,1.4156148000000002,0.59711206,0.04701917,-0.8044397
14.363429,0.056100935,0.36646609999999996,0.44910812,-0.075939275,-0.69212776
12.680716499999999,-0.036928166,-1.3982042,0.23884831,-0.19092156,-0.5441238
10.914505,-0.116731696,-1.8134831999999999,-0.009738937,-0.20743237,-0.38709658
9.657511,0.10509588,-1.4124641000000002,-0.20669934,-0.19305086,-0.22420500000000002
8.450421,0.37767097,-1.2635638999999999,-0.30251792,-0.18240435,-0.06928957
7.250255999999999,0.34559825,-1.0567145,-0.25352654,-0.24308945,0.056845374000000004
6.187239599999999,0.16423267,-0.8779825000000001,-0.10979866,-0.40011674,0.19685568
5.4246,0.079171464,-1.1378780000000002,0.05092871,-0.49382347,0.35707690000000003
4.93127,0.026077645,-1.5997291,0.14676474,-0.44643778,0.4523719
4.824086,0.037809234,-1.9319484,0.032829642,-0.52043974,0.42734388
4.9638696,0.030281862000000003,-2.190819,-0.38554323,-0.33623767,0.4188441
5.3632703,-0.05230852,-2.3154228,-0.96631896,-0.029094638,0.59608227
6.209458000000001,-0.18146133,-2.168256,-1.191484,0.19713494,0.81222385
7.087335,-0.34150895,-1.7609258,-0.9354440999999999,0.2098933,0.8643743
8.101509,-0.52342033,-1.1523963,-0.31740558,0.065641835,0.8510749
9.025977000000001,-0.75153995,-0.7298197,0.4331558,-0.12224286,0.7792197
9.726789,-0.9315743000000001,-0.5618809,0.9601405000000001,-0.2356369,0.64292693
10.518283,-0.758033,-0.72728187,1.1374136000000001,-0.2425484,0.4630184
11.464022,0.018397043999999998,-1.3252864,0.8755094999999999,-0.050911255,0.32620203
12.845888,0.04163038,-3.1532786,0.31815606,0.24237387,0.23038346
12.743319999999999,-0.17010324,-3.7207809999999997,-0.16889551,0.41751766,0.13510594
11.751595,-1.0229466,-3.483803,-0.3339164,0.3690673,0.047804568
11.185872999999999,-0.91998637,-0.8043847,-0.31368804,0.29293606,0.010000736
11.224133,-0.7293887,1.1639363999999999,-0.24607398,0.16039576,0.035552356
11.238067,-0.46908158,2.233474,-0.17315412,-0.013665928,0.07335619
11.619923,-0.29092422,1.9423583999999998,-0.11407472,-0.13397147,0.13936454
12.210007000000001,-0.21657948,-0.016318878000000002,-0.062430426,-0.23137829999999998,0.25541148
12.039253,0.05845683,-2.1790588,-0.009721484,-0.35700709999999997,0.38636354
10.884558,0.56901556,-4.0976377,0.003036873,-0.3697829,0.4326670999999999
9.547463,1.1380503,-4.5952682000000005,-0.042202063,-0.33730233,0.39913934
8.081704,1.2887988000000001,-3.7027287,-0.17526597,-0.250542,0.31024972
6.8984995,1.1666658,-2.3727784,-0.33072245,-0.12543681,0.17395696
5.920286,0.9882211,-1.5865513,-0.4552866,0.13857915,0.01160644
5.384196,0.9337674000000001,-1.4498233,-0.45741588,0.40261254,-0.14542083
5.355599,0.9059754999999999,-1.2702485000000001,-0.43877578,0.4776617,-0.24708626
5.660094,0.7755010999999999,-1.3117161,-0.45954520000000004,0.32115802,-0.11613421
6.102782,0.66617227,-1.3256216,-0.4217588,0.16945402,0.00041887903
7.049296000000001,0.8411405000000001,-1.4109701000000001,-0.37756708,0.13377948,-0.01870993
8.34567,1.2800455,-1.4342513000000001,-0.38234928,0.16306610000000002,-0.10655235
9.5834055,1.73888,-1.6260938999999999,-0.25884977,0.20032889,-0.23059290000000002
10.915214,1.9337776000000002,-1.8108686999999999,0.1637817,0.17636552,-0.40732494
12.199157000000001,1.9350226000000001,-1.6724552,0.6343748,0.14549065,-0.6319663000000001
12.967725,1.8513117,-1.1416798000000001,0.79779,0.13751449,-0.7320260000000001
13.27944,1.7409868000000002,-0.70176923,0.7717148,0.19607028,-0.72670275
12.823038,0.8683770000000001,-1.3751625,0.7408399,0.25195572,-0.73417276
12.295538,0.19023369,-1.5602916,0.7174176,0.27963665,-0.7719590999999999
13.639547,-0.09187988,-1.1437389,0.7104885999999999,0.28708920000000004,-0.8193448
14.548376000000001,0.08885361,-0.9333077,0.7323227,0.27059585,-0.8406378000000001
14.931534,-0.027724855,-0.7386111999999999,0.7312406,0.22959806,-0.8305149
14.695035,-0.26159048,0.32768962,0.6806784,0.1508139,-0.785276
14.482172,-0.38716155,1.3110361000000001,0.55133206,0.07628834,-0.7000865
13.398106,-0.46505934,0.8259709000000001,0.37779397,0.006562438,-0.56648153
11.521416,-0.65664333,-0.5176072,0.14302973,-0.080721475,-0.379644
10.042594,-0.54973745,-1.0046262,-0.05178392,-0.18399261,-0.22952825
8.973774,-0.20815189999999997,-1.0559003,-0.17741272,-0.23244295,-0.111352004
8.0899315,0.11844595,-1.1456255,-0.23809782,-0.250542,0.031293754
7.2719183,0.28416303,-1.1786847,-0.2737549,-0.39372882,0.22027801
6.4197169999999995,0.26756640000000004,-1.2699037,-0.24607398,-0.48209485,0.38955748
5.7635236,0.15721285,-1.564946,-0.1390853,-0.41076323,0.5247682
5.319811,0.057010733,-1.9356737000000002,-0.0028099802,-0.34475487,0.47951177
4.980907,-0.114078924,-2.2763495,-0.27003735,-0.32719687,0.34697145
4.920908,-0.28246793,-2.5589322999999995,-0.81620324,-0.14514159,0.48111746
5.270806299999999,-0.37132153,-2.7025077,-1.2856967,0.05607743,0.7547326999999999
6.2739387,-0.44097364,-2.3633645,-1.3128541999999999,0.06138323,0.9687275
7.4086657,-0.59775555,-1.7612321,-1.0887364,0.04436627,1.1140611
8.089519500000002,-0.91426903,-1.6162299,-0.6799279,-0.09562659,1.2013625
8.973353,-1.2865579,-1.5143135,-0.0315381,-0.2276433,1.1279016000000002
10.01622,-1.3384737,-1.2576934,0.47521824,-0.30056316,0.9671393
11.29797,-0.8816120999999999,-1.044638,0.6199933000000001,-0.32932618,0.8255406999999999
12.649352,-0.11803414,-2.0988815,0.39430478,-0.19196877,0.74356264
12.463763,-0.326866,-4.090751999999999,-0.026755897,-0.0014137167000000002,0.6243217
11.202192,-1.1253322000000001,-4.436589700000001,-0.42067669999999996,0.12102113,0.42575562
10.3031025,-1.6430448,-2.8203602,-0.64744735,0.16786577,0.2612758
10.238401,-1.416017,-0.88662076,-0.6570292,0.13538519,0.18514453
10.247136,-1.0767013,0.08805874,-0.55323446,0.08480555,0.17023942
10.5913925,-0.5753170999999999,1.0791625,-0.43558183,0.03317871,0.17821556
11.555968,-0.09033802,1.2273444,-0.2929186,-0.062098815999999994,0.17395696
11.8441925,0.13409445,-0.40272388,-0.14013249,-0.1690875,0.20217894
11.3386135,0.26820803,-2.4033284,-0.016632987,-0.21486749,0.22401302
10.532515,0.76001537,-3.8024998,0.071174525,-0.21966714,0.17343336
9.875909,1.5985413999999998,-4.144938,0.08449139,-0.20209168,0.0808262
9.096453,2.013562,-3.5284788999999996,-0.0038571777,-0.16854644,-0.013910273999999999
7.9771833,1.8855008999999998,-2.3586621,-0.13587388,-0.03440044,-0.14008012
7.036846000000001,1.5863981000000003,-1.2530006,-0.26471409999999995,0.14283775,-0.27370253
6.672391,1.3803339,-0.68161005,-0.3259228,0.32224014,-0.38282052
6.701811,1.3195117,-0.46439853,-0.3456101,0.39144245,-0.41634828
7.103969599999999,1.2895458,-0.42752782,-0.29344222,0.34618604,-0.31468287
7.492989,1.3012868999999998,-0.5323076999999999,-0.16250761,0.25302038,-0.27422613
8.178564,1.5852201000000001,-0.67237806,-0.10234611,0.23226842,-0.3024481
8.984855,2.0364792,-0.8943396999999998,-0.0043982295,0.15083136,-0.33384657
9.813383,2.259973,-1.3433386999999999,0.2990098,0.06405358,-0.41423646
11.019264999999999,2.1542835,-1.7676773999999997,0.7094414000000001,0.03052581,-0.5563585999999999
12.057573,1.9272174,-1.6946351999999998,0.97612774,0.009756391,-0.71713835
12.686989,1.5956110000000001,-1.4380726000000001,0.99103284,0.017749999,-0.76715946
12.806460000000001,1.2296333000000002,-1.0649886999999998,0.9228951999999999,0.13538519,-0.78578216
12.832317,0.37456805,-1.1798722,0.86966264,0.3302163,-0.8709716999999999
12.84718,0.020992361,-0.81462234,0.8361349,0.50855404,-1.004053
13.952096,0.055085793,-0.74660784,0.8504989,0.5766741999999999,-1.0854901000000001
14.330667000000002,-0.09347921,-0.85841703,0.8808328000000001,0.50640726,-1.1179707
14.339985,-0.36938703,-0.1285782,0.847305,0.35896188,-1.1046538000000001
14.373915,-0.5145235,0.94043285,0.7073121,0.20619320000000002,-1.0082940999999999
14.212747,-0.6154727,1.0613209,0.5481381,0.10718067,-0.8981115
13.332103,-0.7868113,0.0965438,0.3575656,-0.010454521999999999,-0.7448018
12.082186,-0.9592609000000001,-0.7130506999999999,0.13185963,-0.13501868,-0.6111794
11.227944,-0.72957075,-0.80904865,-0.05815437,-0.21806143,-0.47492155
10.298257000000001,-0.13738887,-0.78686875,-0.23649211,-0.28087583,-0.32159436
8.888100999999999,0.29847077,-0.87550205,-0.37063813,-0.36072466,-0.13156292
7.2125707,0.36551797,-1.0416597,-0.40418336,-0.39159954,0.14414674
5.906601,0.36660016,-1.4052527,-0.26789057,-0.36711255,0.3991568
4.876146,0.2895739,-1.8909116999999998,-0.026755897,-0.29791024,0.5061455
4.1560182999999995,0.12785037,-2.1799302000000003,0.04935791,-0.24626596,0.4880464
4.089267700000001,-0.027274746000000002,-2.2242901,-0.12149237,-0.1845162,0.513598
4.2168019999999995,-0.12137645,-2.3283994,-0.6596820999999999,-0.062081363,0.74675655
5.0879564,-0.24035871,-2.2485576000000003,-1.0536028999999998,0.080564395,1.0784041000000002
6.100349,-0.43778458,-1.9258575,-0.8955110000000001,0.045954518,1.2114854
7.251089,-0.86324376,-1.6861596,-0.42865285,-0.09562659,1.2434075
8.409125999999999,-1.5767063000000001,-1.4690439,0.091402896,-0.26330036,1.1667701000000001
9.344521499999999,-2.0453856,-0.88832545,0.34372514,-0.26010639999999996,1.0118546
10.49483,-1.8149198,-0.21789151,0.31658527,-0.17067574,0.8974134
11.959842,-1.2358007,-0.5744265000000001,0.13240068,-0.00726057,0.8580213
12.59489,-0.8389187,-2.1759942000000003,-0.027820547999999997,0.12580334,0.7616616999999999
11.752562,-0.6335728,-3.6142964,-0.117774814,0.16467181,0.58866465
10.475149,-1.1753232,-4.5723605,-0.32218778,0.13751449,0.41406190000000004
10.140602000000001,-1.1601727,-2.5523436,-0.57609826,0.11622147,0.35390040000000006
11.001767999999998,-0.87196827,-0.4827764,-0.63465405,0.081629045,0.29321529999999996
11.234811,-0.35831620000000003,0.4410215,-0.52927107,0.040631264,0.24584708
11.833571000000001,0.11128249,0.071529165,-0.41003019999999996,-0.030682888,0.25062928
12.085499,0.19578823,-1.3117161,-0.27747244,-0.11637855,0.29215068
11.652944,-0.08013872,-2.5202901,-0.13746212,-0.18558086,0.3262195
10.963443,-0.011233594,-3.009502,-0.06986553,-0.28192303,0.31930798
10.311779,0.6919434,-2.824047,-0.037926003,-0.26701793,0.25382322
9.413464999999999,1.4485878,-2.8657827,-0.037384953,-0.23455479999999998,0.17877407
8.14767,1.7340533,-3.184949,-0.05974262,-0.18397516,0.0877377
7.190774,1.7397802,-2.7506313,-0.118839465,-0.08550368,-0.012322023999999999
6.975975999999999,1.6640563999999998,-1.5032235,-0.20134118,0.090687305,-0.103340946
6.7620587,1.5617186,-0.9523751,-0.25137976,0.23228587,-0.1752136
6.5337863,1.3939713,-0.86605936,-0.2844014,0.25623178,-0.14913839
6.77244,1.3207088,-0.72027165,-0.2870543,0.1502903,-0.016580628
7.270271000000001,1.4430715,-0.8851843,-0.36210346,0.11304498,0.06963864
8.142057000000001,1.8060325000000002,-1.1182263000000001,-0.47656214,0.09388126,0.15695746
8.99063,2.0416987,-1.1712339,-0.32272884,0.09014626,0.15161675
9.860922,2.0416508,-1.2169152,0.19041543,0.13325588,-0.014451326
10.8792715,1.8031977,-1.3815979999999999,0.9101193999999999,0.054471727000000005,-0.31468287
11.633896,1.6657131999999997,-1.4008379,1.316816,-0.020036379,-0.6564358
11.988649,1.4700303,-1.2619548999999999,1.2769003,0.0017802357999999999,-0.81772166
12.229171000000001,1.0873315000000001,-1.0881263,1.0634465,0.07524114,-0.89491755
12.145354,0.3300455,-1.2021574,0.86327475,0.2546261,-0.95399696
12.849307000000001,-0.1168945,-1.2205257,0.75415677,0.4680973,-1.0327811
14.066998499999999,-0.63730776,-1.4222803,0.75680965,0.5394289000000001,-1.1248821000000002
14.694738000000001,-0.8272636999999999,-0.8023161999999999,0.7860963000000001,0.45425683,-1.1733149999999999
15.306092999999999,-0.7575446,0.98613334,0.72008795,0.331822,-1.1317936000000002
15.445684,-0.3896228,2.5347605,0.5694486,0.26103145,-0.9992359000000001
15.011023000000002,0.033269826,2.3987507999999997,0.39430478,0.14657275,-0.844879
13.629529000000002,0.106752664,0.31495246,0.226631,0.012426743999999998,-0.728291
11.7526,-0.20272185,-1.3259281,0.06000442,-0.11424925,-0.5920156999999999
10.601189999999999,-0.31465557,-1.7827897000000001,-0.064001225,-0.22762585,-0.48661524
9.633244,-0.17190368,-1.5960035,-0.14011504,-0.23614305,-0.39770818
8.618675999999999,0.07996634,-1.3134111000000002,-0.18537141,-0.24307199999999998,-0.26197392
7.470455,0.09827719,-1.266571,-0.21678734,-0.28513443,-0.0474555
6.308511,-0.024727317000000002,-1.6851828000000002,-0.18484782,-0.31492722,0.22668336
5.3236127,-0.16958609,-2.2016792,-0.0038571777,-0.33730233,0.48165852
4.7419459999999996,-0.21605277,-2.4412045,0.12494812,-0.40861648,0.5812121
4.800863,-0.16482642,-2.4861772,-0.05708972,-0.35325465,0.57375956
5.299373999999999,-0.14542381,-2.3392022,-0.49199086,-0.20954423,0.63922685
5.896478,-0.23852953,-2.0708888,-0.7900931,-0.018954275,0.86493284
7.057848,-0.33068714,-1.5398163999999999,-0.65540606,-0.03918264,0.90221304
7.821627,-0.52056646,-1.1247097,-0.39458403,-0.12596041,0.88889617
8.389475,-1.0028162,-0.9908164,-0.052831117000000004,-0.109449595,0.83992225
8.858326,-1.5696099,-0.9105532,0.36503562,-0.025883233,0.6450911
9.416184,-1.7035512,-0.6256432,0.63598055,0.014032447,0.39702750000000003
10.282148,-1.1924369,-0.40510848,0.61894614,0.11569787599999999,0.2192308
11.770346,-0.65549415,-1.5404581,0.31979668,0.31107002,0.098401666
12.363571,-0.101236425,-2.7867452999999998,-0.093811445,0.42338195,-0.015498524
11.719646000000001,-0.4961648,-3.2607207000000002,-0.41055379999999997,0.37334338,-0.110269904
11.252892,-0.40460092,-1.3037098999999999,-0.56599283,0.28764772,-0.13262758
11.887767,-0.14414051,0.0065888427,-0.5446823000000001,0.20193459,-0.084177226
11.957678,0.13079046,0.32906866,-0.43556437,0.0198793,-0.029880037999999998
12.550865,0.39228517,0.67170763,-0.25722662,-0.13873622,0.058468528
13.353257999999999,0.5197238000000001,0.32070809999999994,-0.079970986,-0.25637139999999997,0.16334537
12.988525,0.5669565,-1.1369393,0.037123155,-0.377218,0.28098056
11.660471000000001,0.74761343,-2.8195745999999997,0.076515235,-0.43416809999999995,0.37573448
10.113099,1.2070798999999999,-3.9391227,0.052028265,-0.4426853,0.42203808
8.543412,1.6812658,-4.096958,-0.006510078000000001,-0.43629742,0.43696064
7.0835137,1.6732788,-3.532089,-0.06665412,-0.35751325,0.42418483
5.93581,1.3326893,-2.4970949,-0.09967575,-0.1786519,0.32250193
5.2974973,1.077228,-1.6514533,-0.14065608,0.12582079,0.12606514
5.2087107,0.87742704,-1.1677383999999997,-0.2742785,0.34833282,-0.036808994
5.3318294999999996,0.737146,-0.75173146,-0.4946612,0.34833282,0.041434117
5.759779,0.563959,-0.7853269,-0.49305552,0.18172368,0.27406904
6.315732,0.5804406999999999,-1.1272572,-0.33335790000000004,0.076846845,0.35072392
7.290334700000001,0.79656047,-1.3590925,-0.21465804,-0.08283333,0.32517229999999997
8.288304,1.0776302,-1.4997088,-0.15769049999999998,-0.22708479,0.26715755
9.44299,1.1014572,-1.4557416,0.11377801,-0.3260973,0.11489502
10.833063000000001,1.1381459999999999,-1.2382045,0.46352455,-0.27714083,-0.09321803599999999
12.235653999999998,1.3845669,-0.9287011999999999,0.6897541,-0.13447762,-0.33969343
12.921372,1.7381904,-0.9668457,0.7168939999999999,0.03000221,-0.51694906
12.396267,1.4036628999999998,-1.797241,0.6908188,0.24932028,-0.6686531
11.240921,0.29649790000000004,-2.0016866,0.66526717,0.42072907,-0.8315621
11.742947000000001,0.0066750343,-1.0114927,0.6045821,0.5671273,-0.98274255
12.887633000000001,0.26755682,-0.3856197,0.5401794,0.5697802,-1.0695028
13.838084,0.39184463,-0.60874015,0.51834536,0.44521603,-1.063115
14.510632999999999,0.060678645999999996,-0.15464628,0.5066342,0.31745794,-1.0056238000000002
15.289679000000001,-0.17960344,0.7963977,0.45446628,0.17692402,-0.90661126
15.529060000000001,-0.33492965,0.8276276,0.3416133,0.060877085,-0.77672386
14.745917000000002,-0.39796420000000005,-0.021883002999999998,0.1483879,-0.049288097999999995,-0.62180847
13.224124,-0.46913904,-0.7571519,-0.0017104226999999999,-0.1270076,-0.5121494000000001
11.720652000000001,-0.09586384,-0.974555,-0.13585643,-0.21217968,-0.41633084
10.02775,0.45101014,-1.2750656999999999,-0.24551547,-0.24253096,-0.31627113
8.276277,0.6325673,-1.6485706999999998,-0.35836846,-0.25902432,-0.12035791
6.5656867,0.4581257,-1.8238741000000003,-0.37274995,-0.25104815,0.1362055
5.221016400000001,0.18556021,-1.7560416,-0.22102849,-0.2893756,0.34646532
4.559154,0.023386562000000003,-1.7818702000000002,0.025953045,-0.30906290000000003,0.39704496
4.308682,-0.11053551,-1.8982955000000001,0.040317107000000005,-0.25104815,0.3187844
4.5090575,-0.24528117,-2.1547432,-0.2795843,-0.10040879,0.34646532
5.275968,-0.302742,-2.2317982000000005,-0.8108451,-0.012566371000000002,0.570042
6.3258834,-0.34107798,-1.9968983,-1.1483393999999998,0.04118977,0.86549133
7.3874245,-0.38057274,-1.7210191000000004,-1.0706198,0.06513569,0.9959023000000001
8.437396000000001,-0.7711531999999999,-1.5176941000000002,-0.7214144,-0.02427753,1.0714926000000002
9.036292,-1.4173291000000001,-1.3271347,-0.061854467,-0.19940387,0.99483764
9.598766,-1.6937541,-0.87103933,0.5167571,-0.27340582,0.817041
10.632267,-1.3402261999999998,-0.3125678,0.76269144,-0.28883454,0.6317917
11.833409,-0.53835064,-0.6181446,0.62482786,-0.109449595,0.5306499
12.4566,-0.2873808,-2.4823275000000002,0.26443484,0.12049753,0.45186573
11.188277000000001,-0.29109663,-3.6093836,-0.09114109,0.29084167,0.32997194
10.116767,-1.1194617,-4.049993499999999,-0.2944894,0.25144958,0.20113175
9.688452999999999,-0.9537733,-2.057529,-0.37327355,0.119973935,0.13727015
10.2735,-0.6950175999999999,-0.10887872,-0.39191368,0.06726499,0.12288863
10.603556,-0.40645882,1.0724778999999998,-0.3817908,0.03693117,0.10798352
11.688483,-0.09539457,1.7620271,-0.344528,0.019896753,0.10904817
12.376643,0.006215348000000001,0.31757647,-0.27851963,-0.018954275,0.11917108
12.332888,-0.13811672,-1.7002089,-0.14915584,-0.09985029,0.14578736
11.429488000000001,0.063235655,-3.3846733999999996,-0.005969026,-0.19888027,0.15004596
10.350202000000001,0.7200131,-3.9384042999999997,0.090355694,-0.25530675,0.12075933
9.204719,1.2389516,-3.681018,0.0940907,-0.2611536,0.08030259599999999
8.071697,1.3799412,-2.9918517999999996,0.016371188999999998,-0.21856758,0.019093903
7.188332000000001,1.2973796,-2.3320484,-0.09433505,-0.13500121,-0.048502699999999996
6.853192,1.3278722,-1.8746216,-0.20292944,0.0842994,-0.15709709
6.813352,1.377796,-1.498435,-0.23380429999999996,0.32758084,-0.2417281
6.8453100000000004,1.3461063999999998,-1.1130931,-0.24712117,0.40795326,-0.23321089
6.9416910000000005,1.2907141000000002,-0.8771302,-0.17205456,0.32651618,-0.06873106
7.1180577000000005,1.3410498,-0.64491177,-0.09594075,0.1944995,0.03080506
7.4932094,1.6269653999999998,-0.5956295,-0.15076154,0.14819591,0.05050983
8.128564,1.9907787000000001,-0.75571537,-0.15447909,0.04703662,0.0020594885999999997
9.049297,2.03284,-1.1025778,0.08611455,-0.064734265,-0.13793337
10.254337,1.6875673999999998,-1.328667,0.49281117,0.010838495,-0.3625747
11.524892999999999,1.307531,-1.3284371000000001,0.7839844,0.11571533,-0.6303257
12.367488,1.1615996000000002,-0.95379245,0.85744536,0.12316789,-0.7373318
12.517058,0.83349824,-0.67617047,0.80951864,0.19821705,-0.75330156
12.301495,-0.035549107999999996,-0.9746412,0.75256854,0.34355062,-0.79534656
12.400088,-0.33246842,-0.8621999,0.6636789000000001,0.4665265,-0.8661370999999999
13.745485,-0.34711134,-1.2379364,0.62482786,0.4675737,-0.9177814000000001
14.500013000000001,-0.30190885,-1.5255566999999999,0.65570277,0.35419709999999993,-0.93322754
15.175226,-0.52666694,-0.7249834,0.6839073,0.20566959999999998,-0.87786573
15.692670999999999,-0.6928340999999999,0.43463379999999996,0.6551617,0.09548696,-0.7543662
15.715359,-0.6222913,0.8779921,0.53220326,0.01616175,-0.61489695
14.330570999999999,-0.629359,-0.024248473,0.32192597,-0.13925982,-0.45626396
12.059536,-0.8201576999999999,-1.0237224,0.060562924000000004,-0.29255208,-0.32103586
10.493806,-0.60522544,-1.3150104999999999,-0.17577212,-0.30532790000000004,-0.17304939
9.249989,-0.036506787,-1.3863673,-0.35835100000000003,-0.32929125,-0.061802108
7.9654417,0.32646379999999997,-1.6551881999999998,-0.48504445,-0.3596251,0.04358087
6.650249499999999,0.42751822,-1.5425746,-0.49890235,-0.36761869999999996,0.18624409
5.597442,0.31500992,-1.5343959999999999,-0.43341762,-0.369748,0.31719613
4.762258999999999,0.16523822,-1.6820799,-0.2817136,-0.25795966,0.42205550000000003
4.337479599999999,0.05281609,-1.9213086,-0.013945181000000001,-0.13020156,0.43804273
4.423076999999999,-0.03178542,-2.277087,0.16702801,-0.1765226,0.32836625
4.817478700000001,-0.10740388,-2.617619,-0.06504842,-0.14297737,0.30707324
5.6868989999999995,-0.21237527,-2.4770699,-0.53668875,-0.07271042,0.43004912
6.7379255,-0.35748303,-1.9276388,-1.1403632,0.04225442,0.68821824
7.720563,-0.5275001,-1.532222,-1.2627807,0.08271115,0.9048834000000001
8.818916999999999,-0.92155695,-1.066703,-1.0674084,0.04279547,0.9740856999999999
9.692925,-1.2801988000000002,-0.47810292,-0.64793605,-0.17172295,1.0747038999999998
10.752245,-1.4449295,-0.10641748,0.06321582,-0.3048043,0.9927084
11.4185705,-1.2159767,0.31356382,0.6407976,-0.31651545,0.77127844
11.849317,-0.203239,0.1077295,0.7483274000000001,-0.3095865,0.598264
12.186745,0.03679409,-1.9409984,0.4076391,-0.09080948,0.47211155
11.016058000000001,0.25676376,-3.4688822999999998,-0.12414527,0.20888099999999998,0.3565882
10.294645,-0.20984699,-4.531926599999999,-0.5185897,0.3163933,0.19795524
9.281544,-0.58164734,-3.425758,-0.5446649,0.26637214,0.089360856
9.822021000000001,-0.31021193,-0.91345495,-0.48186794,0.18758799,0.06700319
9.916008,-0.2095118,0.31984618,-0.4318119000000001,0.09283406,0.08192576
10.501017,-0.06944143,1.5224824,-0.30885348,0.017243853,0.0771261
12.103753,0.14181335,1.935511,-0.16990781,-0.057264253,0.06913249
12.67206,0.20676325,0.01133894,-0.08208284,-0.10784389,0.08670796
12.258848,0.33253548,-2.427395,-0.02459169,-0.15627678,0.097354464
11.406915,0.7449894,-4.08922,0.032882,-0.17170548,0.0766025
10.294876,1.2467757,-4.326696,0.05256932,-0.13393657,0.027611108
9.139358,1.3771448,-3.268478,0.043528512000000005,-0.08122762,0.0025830872
7.818543400000001,1.1868058000000001,-1.8519629000000002,0.03181735,-0.05248205,-0.0032463125
6.821617,1.1201321000000002,-1.4706719,0.020106193,0.02841396,-0.02453933
6.583097,1.1318061000000001,-1.0681108,-0.0006283185,0.1982345,-0.07351327
6.705717999999999,1.1733981000000002,-0.6073994,-0.058119465,0.3387684,-0.13100441
6.783769599999999,1.2224698,-0.43227790000000005,-0.14222687,0.34248596,-0.08894198
6.9754395,1.3164948,-0.6071408,-0.11828096,0.24507913,-0.013892821000000001
7.423854400000001,1.5195136999999999,-0.60224706,-0.07728318,0.16735962,0.0776497
7.9742045,1.7669783,-0.5329972,-0.0011693706,0.052377332,0.21340140000000002
8.459060000000001,1.8809903000000001,-0.5873168000000001,0.27616346,-0.10252064,0.25544637
9.001164,1.6990693,-0.6289759,0.79836595,-0.15201817,0.09255481
10.06508,1.2541691000000001,-0.7837371,1.1470479,-0.074298665,-0.20498893
11.155323,0.9686365,-0.77159375,1.1385132,0.0034033920000000003,-0.35404003
11.947545,1.0093188,-0.81194085,1.0325891999999999,0.08964011,-0.38756782
12.511103,0.5756427,-1.2928977,0.9921324,0.17428859,-0.46156980000000003
12.746308,-0.14047259,-1.4314453999999999,0.9426349,0.23284437,-0.47966883
13.645551999999999,-0.719946,-1.2451669,0.8452105999999999,0.20303415,-0.48977429999999994
13.968604999999998,-1.2332341999999998,-1.0079876,0.7046766999999999,0.12529719,-0.5211902
14.030567000000001,-1.4506661,-0.40590337,0.5194274,0.057700586,-0.51002014
14.719772,-1.1595023000000002,0.82250404,0.31714377,0.025237462000000002,-0.50574404
15.414053,-0.54860735,1.44039,0.06323328,0.054506633,-0.49138000000000004
14.614341,-0.24043532,0.05976885,-0.11934561,0.0789936,-0.47541022
12.4212055,-0.37859990000000004,-1.3016893,-0.111352004,0.058765236,-0.44347072
10.88112,-0.42114967,-1.3797593000000001,0.025970499999999997,-0.059934605,-0.4099255
9.442923,-0.28218059999999995,-1.4854777,0.25752333,-0.25209534,-0.3742684
7.5690675,-0.044283155,-1.7345513,0.34910077,-0.31278044,-0.35349899999999995
6.474515,0.24762748,-2.1625195,0.2144137,-0.32129768,-0.27312657
5.843097,0.2184661,-2.3934450000000003,0.076532684,-0.39688787,-0.14856243
5.569726999999999,0.19915926,-2.3964906000000004,0.006806784000000001,-0.47408378,-0.030386182
5.894553,0.14412136,-2.2361364,0.012130038000000001,-0.43256239999999996,0.040927973
6.2660475,-0.079487495,-1.9218161,-0.03947935,-0.41763982,0.011117746999999999
6.8109484,-0.36294183,-1.0554025,-0.37325612,-0.32129768,0.02815216
7.1499386,-0.59385777,-0.21268173,-0.8661895000000001,-0.12274901,0.2676986
7.6396203,-0.6870114,0.14582604,-1.2569163,0.046513025,0.5902878
8.353418,-0.7774548000000001,0.04024174,-1.0525033000000001,-0.01839577,0.80056506
9.176679,-0.7589428,-0.93176585,-0.40200168,-0.12699015,0.8080176
9.499311,-1.0504608,-1.9255509999999998,0.13775884,-0.20844467,0.6584429
10.273912,-1.5022084,-2.060584,0.21495475,-0.16105898,0.49233994
11.060379,-1.8631965,-1.9138863999999998,-0.074630275,0.044383723,0.3997153
11.916352999999999,-1.5429481000000003,-1.7911884999999999,-0.42701226,0.17587683,0.44549528
12.536624,-1.4702697,-2.8557463,-0.51485467,0.1423316,0.48701668
12.01373,-1.8797259999999998,-4.055462,-0.40999529999999995,0.072064646,0.3789459
11.025022,-2.5101671000000003,-4.52914,-0.35515705,0.057176985,0.22511257
10.075807000000001,-2.4428997000000003,-2.8437276000000002,-0.3913552,0.08431686,0.07553785
10.221919999999999,-1.7025743999999998,-0.15767254,-0.45790458,0.09389871,-0.042620942
10.957141,-0.6823954000000001,0.8349348,-0.49410272,0.08964011,-0.07562511400000001
11.377007,0.19461029999999999,-0.66584665,-0.48130944,0.08698721,-0.059131755999999994
11.163003999999999,0.56108594,-2.6588662,-0.4046546,0.03853687,-0.014940018999999999
10.463083000000001,0.32654995,-3.7629477999999996,-0.2843665,-0.11156145,0.05742133
9.628502000000001,-0.13336661,-3.6709815999999997,-0.16297884,-0.23080234,0.12718214
9.287923,0.16651194,-2.389107,-0.11028735,-0.22919664,0.16922712
9.079799000000001,1.0797466999999998,-1.6322614,-0.14542083,-0.13763666,0.16762142
8.400182000000001,1.7141047999999999,-1.6413977,-0.16406095,-0.020001473,0.14686945
7.791632000000001,1.9679189,-1.7079852999999998,-0.13955653,0.10560987,0.098419115
7.0645614000000005,1.8909596999999998,-1.6452476000000003,-0.08953539,0.26637214,0.07606145
6.369889,1.6694098000000002,-1.3118789,-0.0011693706,0.37390187,0.07021459
5.954638,1.4363103000000002,-0.9383164,0.052045718,0.40903535,0.008464847
5.8553653,1.2547437,-0.66069436,-0.13849187,0.44203955,0.057438787000000005
6.159898,1.0814129,-0.5003403000000001,-0.3839026,0.38720128,0.16975072
7.0388856,1.0834242,-0.4621767,-0.48556805,0.38934806,0.14952235
8.105455000000001,1.2548012,-0.61021495,-0.25295058,0.36751398,0.11864748
9.046999000000001,1.3169354,-0.6886203000000001,0.23251276,0.18493510000000002,-0.03996804
9.959314,1.3504638999999998,-0.47007757,0.71799356,0.022567106,-0.2922903
10.585588000000001,1.3013059999999999,-0.35822046,0.8585275,0.06569419,-0.5387482
10.836578,1.2359348999999997,-0.30607474,0.7792197,0.11625638,-0.65479517
11.237588,1.5624944,-0.52389926,0.71267027,0.08751081,-0.64947194
12.064142,1.5720998,-1.4856213,0.76537925,0.121056035,-0.6952519
12.073442,1.1396976,-2.6500173,0.7989069999999999,0.27701867,-0.8139692
13.848503,0.6881702,-2.5239675,0.7552563,0.42874014,-0.90127057
15.223378,-0.23862529,-1.4626370000000002,0.710541,0.44151595,-0.93905693
15.677003,-0.52824706,0.18490899,0.65252626,0.33718017,-0.9017941999999999
15.772991000000001,-0.27368596,0.97459334,0.5545609,0.18917623,-0.8182278000000001
15.626207,0.11658804,0.5116217000000001,0.44331363,0.057176985,-0.69685763
14.676591,0.04114196,-0.7773015,0.28255135,-0.055134952,-0.58026963
12.764503999999999,-0.48026729999999995,-1.3698568000000002,0.10847221,-0.16851154,-0.44080037
11.727355000000001,-1.0092231,-1.0773523999999999,-0.06557202,-0.20631537,-0.30026644
11.374536500000001,-0.8630714,-0.60324305,-0.23378685,-0.20525073,-0.19114846
10.276344,-0.39579028,-0.81444037,-0.3604803,-0.20470966,-0.086812675
8.517641000000001,-0.14820108,-1.1113118,-0.36580357,-0.19566886,-0.009616764
6.7748536999999995,-0.15780662,-1.3802669,-0.3072303,-0.24569000000000002,0.041469023
5.375327599999999,-0.18770541,-1.6332957000000001,-0.26466173,-0.33299136,0.22406536
4.584427,-0.22124339999999998,-1.7494048999999998,-0.19333012,-0.39475858,0.4550946
4.2804400000000005,-0.24521413,-1.7491751,-0.046408303,-0.40592867,0.6525786
4.487451999999999,-0.28894183,-1.7446259999999998,0.09197885,-0.49429470000000003,0.64352036
5.006946,-0.44176853,-1.6350387,-0.10442304599999999,-0.6103416,0.47052330000000003
5.9021669999999995,-0.5549472,-1.4222133,-0.70808005,-0.3271445,0.49766317
6.856667999999999,-0.61815417,-1.2568313999999998,-1.5129561000000002,-0.00083775807,0.6579019
7.6031512999999995,-0.6606082,-0.83109444,-1.79083,0.10189232,0.8149466
8.461147,-0.61562586,-0.36163938,-1.6486903000000002,0.091245815,0.9597391
9.004487,-0.96739155,-0.38377140000000004,-1.1398046999999998,-0.075363316,1.1487058
9.097421,-1.5485026000000002,-0.5486456999999999,-0.23431045,-0.4314803,1.2046088
9.773208,-1.7479012999999999,-0.5939344,0.48589966,-0.58585465,1.1332772
10.804217,-1.1255238,-0.7930841,0.71160567,-0.60608304,0.9874200000000001
12.229735,-0.07202716,-2.0546944,0.44704863,-0.3729245,0.80695295
12.826265,0.02759078,-4.146154,-0.11615166,0.057700586,0.6004107
11.798472,-0.20236751,-5.086137,-0.5446649,0.27649507,0.36245254
11.13163,-0.9686174000000001,-4.55969,-0.67614055,0.29672343,0.14315191
10.67539,-1.2374479,-1.8742672999999999,-0.60906756,0.2674368,0.0771261
10.047967,-1.3624827,0.0995126,-0.39507273,0.21368065,0.054768432
9.83112,-1.1230913,1.7448080000000001,-0.14594443,0.09922197,0.048921578
10.6178055,-0.60435396,2.453827,0.04834562,-0.03117158,0.038816124
11.652896,-0.2045606,0.654048,0.069097586,-0.08175122,0.06489134
12.050937,0.37387854,-1.7235379000000002,0.04939282,-0.11156145,0.12716469
11.775537,1.07673,-3.5173218,0.09358455,-0.19992746,0.1974491
11.075941,1.8347726000000002,-3.7989662,0.1468171,-0.30532790000000004,0.25120524
9.922654,2.0417464,-2.9062638,0.16439256,-0.29040533,0.2778215
8.348878,1.6929879,-1.3358879,0.22507766,-0.21322687,0.20329595
7.0078187000000005,1.3516322,-0.29080933,0.27563986,0.018849555,-0.0042935097999999994
6.486716,1.2463351,0.38596448,0.18195057,0.35154423,-0.22041763
6.255493599999999,1.3710347,0.4472273,-0.055990162999999996,0.48781952,-0.2534218
6.3435809999999995,1.6003706,-0.15638925,-0.120392814,0.33770376,-0.11342895
6.5883354999999995,1.6284976999999998,-0.78370845,-0.0400204,0.18439403,-0.07721337
6.8549055999999995,1.5220802,-0.8650825000000001,0.08506735,0.15247196,-0.13683382
7.266928699999999,1.5686523,-0.62491536,0.30119148,0.33026865,-0.33646458
8.263013,1.5491251,-0.5582991,0.74302155,0.47558478,-0.6026273
9.883035000000001,1.3399676,-0.43101376,1.2434075,0.41383502,-0.85494953
11.948111,1.4509437,-0.15139017,1.4589906000000001,0.36166713,-0.98961914
13.317738,1.7056006000000001,-0.1896878,1.4882772,0.35421458,-0.9922895
13.707331,1.3372861,-1.0642418,1.4680488,0.34889132,-0.9246754
12.860743,0.32829294,-1.5737375,1.3940468000000001,0.3302512,-0.89380056
13.314826,-0.37825513,-0.8939565999999999,1.2199851000000002,0.3196047,-0.907641
15.113963,-0.87106806,-0.14061625,0.99640846,0.27223647,-0.94331557
16.904837,-1.1712531000000002,0.22184673,0.8186118,0.16683602,-0.9683261000000001
17.522453,-1.2809266000000001,0.9486593000000001,0.7206639,0.05078908,-0.9885545
16.655523000000002,-1.2202289,1.4929284999999999,0.6056815999999999,-0.016266469,-0.96195567
14.789960999999998,-1.2412020000000001,0.5175019000000001,0.46088909999999994,-0.08546878,-0.9257575000000001
12.661582000000001,-1.4006367,-0.96051544,0.30438542,-0.12805481,-0.8155574000000001
10.637716000000001,-1.5030799,-1.7115955000000003,0.17503907,-0.17915805,-0.72026247
9.115923,-1.1273817,-2.0397258000000003,0.07016224,-0.22334978,-0.61807346
8.038753,-0.46430275,-2.3999476000000004,0.002024582,-0.29626963,-0.46048766
7.235546,0.08272446,-2.7068846,-0.086323984,-0.38463566,-0.2688505
6.4583205999999995,0.30336452,-2.7216134,-0.19011872,-0.41125193,-0.03515093
5.990618,0.30229190000000006,-2.323659,-0.22631684,-0.41444588,0.22139502
5.6736835999999995,0.18678604,-2.0195856,-0.14220943,-0.36280158,0.426349
5.5115676,-0.031833306,-1.9045299999999998,0.015865043,-0.34204963,0.5163032999999999
5.6722755,-0.2858102,-1.8587146,0.023317598,-0.48684213,0.38854520000000003
5.818983,-0.62248284,-1.7072956999999997,-0.41636574,-0.27497659999999996,0.29911453
6.287748000000001,-0.74176204,-1.4806988,-1.2680864,-0.01733112,0.4183554
6.749312,-0.90401226,-1.3172036,-1.7429206000000002,0.24029693,0.67760664
7.263232,-1.1399752,-1.23491,-1.5874816,0.24616124,0.8000415
8.009839999999999,-1.5259589,-1.3636607,-1.0737964,0.10241592,0.9128944999999999
8.791192,-1.896495,-1.3708911,-0.2987131,-0.13337806,0.95706874
9.667135,-1.9655534,-1.0118854,0.35655332,-0.2558129,0.84156287
10.428702000000001,-1.5122066,-0.7771100000000001,0.6205866999999999,-0.34417892,0.7138048
11.299138000000001,-0.27378175,-1.1245181999999998,0.37517598,-0.26433012,0.62863266
12.79854,0.08521442,-3.13967,-0.20662953,-0.04288274,0.57114154
11.785458,0.44171107,-4.463261,-0.74747217,0.17481218,0.47158796
10.839872999999999,-0.71447766,-5.160261,-0.9034521999999999,0.20729275,0.3534117
10.217687,-1.168246,-1.9516765999999999,-0.7666359,0.13969615,0.30178487
10.458457000000001,-1.2704879,0.46349830000000003,-0.6032206999999999,0.019914206,0.30922
10.180692,-0.98544383,1.9318718000000001,-0.47970375,-0.089186326,0.3257308
10.9597845,-0.39760029999999996,2.4191973,-0.4131718,-0.17437585,0.36192894
11.848703,0.016596606,0.6239577,-0.35622170000000003,-0.22973768,0.38802159999999997
11.788388000000001,0.2999456,-1.8637903000000002,-0.28806659999999995,-0.27071799999999996,0.37843975
11.18097,0.6625139,-4.192008,-0.2162114,-0.32927382,0.33105406
10.313216,1.2706411,-4.770485400000001,-0.14275047,-0.35269612,0.24055873
9.46653,1.6381606000000002,-3.7600746,-0.15872024,-0.33459708,0.19212584
8.296664999999999,1.640756,-1.6739779,-0.20875883,-0.22441444,0.2043606
7.035725599999999,1.5729331,-0.62150604,-0.15393804,-0.057264253,0.16870353
6.2486653,1.6772436999999998,-0.44245803,-0.09590584,0.15299556,0.05105088
5.8800254,1.8630528000000002,-0.49124232,-0.17736036,0.32173398,-0.04527384
5.914751,1.9516479,-0.5507526,-0.28221974,0.35740852,0.033492867
6.3173122,2.0480003,-0.4359075,-0.30831242,0.28448868,0.04733333
6.993061,2.1321037,-0.3446597,-0.354616,0.2647839,0.04520403
7.7118673,2.2651543999999997,-0.19061676,-0.29073694,0.22593287,0.028693212000000003
8.586229,2.221934,-0.07634631,0.015341444,0.22645646,-0.025586527
9.366739,1.6399611,-0.37985447,0.6322979000000001,0.18760544,-0.19805996
10.547761,1.1536222,-0.20771137,1.1316191,0.12053244,-0.4333478
12.056147,0.99957925,0.04840118,1.2625712,0.13702579999999998,-0.5717524
13.103954,1.0791625,-0.29187235,1.1108671,0.17163567,-0.6063448
13.209434,0.5020258,-1.2266357,0.9516931000000001,0.26319566,-0.6718295999999999
13.2808,0.10999921,-1.3182187,0.87449723,0.38774234,-0.7729714
14.541231,-0.20983742,-1.2008454,0.9085834999999999,0.43673372,-0.85973173
14.894186,-0.35242647,-0.9267284,0.95754,0.37337828,-0.94383913
15.052057999999999,-0.53247046,0.21656992,0.8963313,0.23816763,-0.96673787
15.007813,-0.50806874,1.4199245,0.72120494,0.1391551,-0.9252165000000001
15.000316,-0.33248758,2.1268651000000003,0.53914964,0.040142573,-0.84482664
13.995095000000001,-0.10569922,0.98807746,0.41030946,-0.04342379,-0.7692364
12.1210575,-0.076652765,-0.87136495,0.27989846,-0.15200073,-0.6569245
11.019314,-0.16657898,-1.8806453999999997,0.14309955,-0.25687757,-0.5781403
10.314632000000001,0.09493488,-1.8314973,0.014276793000000001,-0.28881708,-0.50253266
9.277550999999999,0.33795592,-1.5834389,-0.10814059999999999,-0.33512068,-0.3817035
8.048147,0.4428986,-1.4688715,-0.2332458,-0.3665366,-0.19380136
6.850289999999999,0.4660457,-1.8742577,-0.354616,-0.3771831,0.03296927
5.789936,0.38453755,-2.4317045,-0.34662238,-0.32766809999999996,0.25387558
5.1850557,0.21232738,-2.669353,-0.22312289999999999,-0.316498,0.35129988
5.0977345000000005,0.015849615,-2.370863,-0.35835100000000003,-0.25048965,0.31136674
5.4177527,-0.19680338,-2.0537653000000002,-0.6537829000000001,-0.03010693,0.4252844
5.845539,-0.45602837,-1.9420041000000001,-0.95560265,0.06782349,0.67760664
6.7984695,-0.5437901999999999,-1.8010526000000002,-0.9822189,0.00022689281000000004,0.8969246999999999
7.330767999999999,-0.72275203,-1.5371923,-0.77887064,-0.038083083999999996,0.98794365
7.9453883,-1.1614368,-1.4976690000000001,-0.47811549999999997,-0.08972738,1.0161656
8.637811,-1.6964738000000001,-1.5041908000000002,-0.11028735,-0.15360643,0.90490085
9.55752,-2.0653532,-1.4471896,0.20271999,-0.13337806,0.6856002
10.514453,-1.9097494,-0.92305094,0.22881266,-0.030630529,0.48651052
11.943331,-1.3072723999999998,-1.3841933000000002,-0.021380282999999996,0.20357521,0.43699554
12.711325,-1.373477,-2.8882787,-0.32958797,0.4159643,0.41303217
11.451869,-1.3990853,-3.2987502,-0.39029053,0.31801644,0.32147220000000004
10.213253,-1.4087291000000002,-2.683431,-0.40304887,0.13756685,0.23684117
10.252775999999999,-0.8195735000000001,-1.3421223999999998,-0.49673817,0.046530478,0.23949409
10.813067,-0.30396783,-0.44020748,-0.5766044,-0.01680752,0.26504570000000005
11.27418,0.2807824,-0.1926662,-0.55264103,-0.10304424,0.27091
12.27307,0.669323,-0.34055123,-0.47120398,-0.15840608,0.2714336
12.603882,0.7085305000000001,-1.3156521,-0.36685076,-0.17329374,0.30604348
11.792459,0.5577245,-2.8356159,-0.2337694,-0.24036674,0.34437090000000004
10.319583999999999,0.65098345,-3.6596617999999994,-0.09909979,-0.24942501,0.36992255
8.993072,0.9917263000000001,-3.3216483999999995,-0.009145525,-0.21748547,0.35660568
7.9391727,1.3566122,-2.5470572,0.026511552,-0.19938642,0.31614894
6.740530499999999,1.4578389999999999,-2.364839,-0.017645279,-0.1802227,0.26771605
6.096375,1.4423723999999998,-2.2516412999999997,-0.09803514,-0.13177235,0.23897047
6.042065,1.3783419,-1.6188825,-0.17360789999999998,-0.019442968,0.19586085
6.3741307,1.3113331,-0.92646027,-0.3029717,0.091245815,0.11918853
6.7694616,1.2240212,-0.39455488,-0.5441238,0.21422172,0.1308997
7.125325999999999,1.0695187,-0.17319655,-0.6926339,0.20570451,0.27197465
7.736738000000001,1.0058042,-0.15490484,-0.60374427,0.15460126,0.33053046
8.299441999999999,1.2243181,-0.23785914,-0.36473890000000003,0.11679743,0.27940977
8.767845,1.5885912,-0.48685613,-0.024033183,0.10082767,0.1319818
9.310466,1.7342543999999998,-0.89708817,0.5098630000000001,0.10721557599999999,-0.06976081
10.078785,1.469494,-1.4358985,1.0837098,0.049200833,-0.38650316
10.729652999999999,1.2510948,-1.5197147,1.2993103000000001,0.04972443,-0.6452133000000001
11.452511,1.2789347,-1.4391450000000001,1.1848691999999998,0.12585570000000001,-0.7505963000000001
12.352826,1.0108607,-1.6639221999999998,1.0129193,0.191323,-0.8171457
12.712110000000001,0.13034992,-1.9673633999999998,0.93732905,0.26371926,-0.90018845
13.394419000000001,-0.35954204,-1.1846126000000001,0.95968676,0.33026865,-1.0082418
14.592151999999999,-0.33011252,-0.084189706,0.9958849,0.35369098,-1.0934138
15.502906,-0.10693462,0.7668436,0.9846973,0.32601005,-1.1179183000000001
15.753779999999999,-0.09954133,1.4727405,0.88142616,0.24188519,-1.0870434
15.76804,-0.03943729,2.164253,0.7142934,0.15247196,-1.0252762
15.349485000000001,-0.022285229,1.3790506,0.4800528,0.09976302,-0.9316044
13.601038,-0.23538834,-0.57797945,0.3129201,0.021519909,-0.8277921999999999
11.834454,-0.3594463,-1.58228,0.18407987,-0.09238028,-0.74368477
10.682727,-0.3287622,-1.5743023999999999,0.063250735,-0.18819885,-0.64093727
9.910022999999999,-0.25902390000000003,-1.1635245,-0.037873644,-0.26326546,-0.5115909000000001
8.979137,-0.19781853,-0.956043,-0.12304571,-0.3606723,-0.3385764
7.7864995,-0.21281579,-1.2610068,-0.23643975,-0.40006438,-0.12299335
6.666875,-0.24363397,-1.7263248,-0.29658379999999995,-0.39367646,0.08620181
5.8425417,-0.21223160000000002,-2.2464602000000005,-0.27581438,-0.34522614,0.26453954
5.298301,-0.1828021,-2.5505621,-0.14060372,-0.27337092,0.3209486
5.29651,-0.27869463,-2.4832852,-0.20769417,-0.29253465,0.2645221
5.5557737000000005,-0.35240734,-2.1653062999999997,-0.50364965,-0.12058479999999999,0.30658454
6.1060667,-0.5099458,-1.9173436999999998,-1.0407746999999998,0.042289328,0.47160542
6.6166825,-0.66887295,-1.8267856,-1.3793336999999999,0.13543755,0.7569144
7.396417,-0.93656385,-1.5923644,-1.2547696000000002,0.07847001,0.9097004999999999
8.160502000000001,-1.3054433,-1.5554075,-0.8890707,0.022043508,1.0252238999999999
9.152612,-1.6178005,-1.4895669,-0.32159436,-0.17968164,1.0688745000000002
9.950522,-1.6654642,-1.2355133999999999,0.23945917,-0.23717280000000002,1.0230945
10.735802,-1.3088238,-0.77267593,0.58119464,-0.2627244,0.9379225
11.504178,-0.42168593,-0.9091549999999999,0.59718186,-0.18446384,0.7792895000000001
11.911517,-0.20110336,-2.6080327000000003,0.19472638,0.052394785,0.5977578
10.976734,-0.014326903,-3.2258804,-0.38121483,0.31483993,0.40346777
9.898808,-0.8869847,-3.7098253,-0.7187266,0.32707470000000005,0.21928316
8.97139,-0.83756834,-1.7030436000000002,-0.6766641999999999,0.26106635,0.11707669
9.330117999999999,-0.51356584,0.4548696,-0.5584879,0.18334684,0.08140215
9.451972999999999,-0.20672494,1.3755263,-0.43818235,0.09498082,0.08035496
10.374871,0.027887661,1.9323506000000001,-0.2923252,0.042271875,0.113882735
11.434315,-0.03638229,0.9633214,-0.16776104,-0.051923542999999996,0.18308504
11.9092865,0.08710106,-0.8351166999999999,-0.053319807999999996,-0.09983283,0.253352
11.797707,0.71963,-2.9168081000000003,0.0813498,-0.14402457,0.28422686
10.825823,1.463767,-4.425337,0.16173966,-0.19671606,0.30019662
9.6805525,1.8788258000000002,-4.4161150000000005,0.17982127,-0.18980455,0.28794440000000004
8.356741,1.6732884999999997,-2.8200345,0.18409733,-0.16477653,0.22727677
7.345975999999999,1.3428598999999999,-1.2465746000000002,0.16547467,-0.03647738,0.09206612
6.730876400000001,1.1997153999999999,-0.7980162,0.11435397,0.14182545,-0.10382964
6.500966,1.1381940000000002,-0.3976386,-0.055431657,0.29194123,-0.23317600000000002
6.4843698,1.113074,-0.16896361,-0.36685076,0.37817794,-0.14428636
6.6035533,1.0786741000000002,-0.3187736,-0.45947537,0.29619983,0.040945426
7.101814699999999,1.233598,-0.18214127,-0.32107076,0.18921115,0.087790065
7.584352,1.6400568,-0.21989307,-0.16776104,0.11681489,0.12133529
8.250084,1.8858743999999998,-0.49542737,0.091996305,0.050265484000000006,0.07023205
9.408102,1.9160701,-0.5786306999999999,0.51946235,-0.0013613568,-0.09690068
11.139339,1.7834791,-0.66857606,0.94106406,-0.030089477000000003,-0.33751178
12.369461,1.7897041,-0.67640984,1.1076732,-0.04553564,-0.5062502000000001
13.223617,1.7243233,-0.99042374,1.1412010000000001,0.003944444,-0.6063448
13.058158,1.0191636999999998,-1.8115679,1.10235,0.10882128,-0.6872583000000001
12.307882000000001,0.028174965,-1.9308183,0.9969495,0.2972645,-0.8267101
13.069488,-0.36954024,-0.5948154999999999,0.8867669,0.40585887,-0.93849844
13.935355,-0.47321874,0.24281994,0.80744165,0.41969929999999994,-1.0242115
14.392887,-0.55587614,0.61915976,0.7499505,0.35475559999999995,-1.0604097
14.920685,-0.4121762,1.3851988000000002,0.6243217,0.2940705,-1.0476339
14.948360999999998,-0.19275239,1.8930857,0.45504224,0.21050416,-0.9731083
14.415613,-0.199686,1.2266836,0.29588565,0.0689056,-0.878878
13.339668,-0.46869847,0.1656979,0.13884094,-0.13229595,-0.7591135
12.118989,-0.61122054,-0.41339245,0.03663446,-0.2999872,-0.5908986999999999
11.027357,-0.33513078,-0.7851066,-0.011257373999999999,-0.40219367,-0.42214277
9.948665,0.14520355,-1.1745092,-0.039461896,-0.45223227,-0.26192155
8.398849499999999,0.44210368,-1.3694066999999999,-0.07885397,-0.47565457,-0.08093092
7.0565553,0.4622532999999999,-1.4520642,-0.0479791,-0.48043677,0.09526007
6.0089192,0.44966936,-1.6798868000000002,0.023858652,-0.42294565,0.20650735
5.198099,0.37110126,-1.9834237000000001,0.12234758,-0.3361853,0.24216443
4.744637,0.31478965,-2.081136,0.13351768,-0.41442844,0.10908308
4.742108999999999,0.18771500000000002,-2.049226,-0.35513958,-0.18394025,0.03403392
5.155942,-0.2017546,-1.8286338,-1.226024,0.10456268,0.27305678
5.966724,-0.59857917,-1.2729013,-1.5922638,0.38510690000000003,0.5892406
7.023917699999999,-0.8559654000000001,-0.7289960999999999,-1.3127843000000001,0.34410912,0.6994406999999999
8.223766,-1.2126535,-0.55811715,-0.67826986,0.16524777,0.76331973
9.219142,-1.4910417999999999,-0.45358630000000005,0.025987952999999998,-0.072151914,0.8452978999999999
10.329286,-1.5017486999999998,-0.19272366,0.65413195,-0.21322687,0.8133583000000001
11.212209,-1.0884040000000001,-0.15321933,0.88357294,-0.29147,0.66484827
12.015944000000001,-0.20208979,-0.60314727,0.5774771,-0.117931895,0.5567774999999999
13.228710999999999,0.076116465,-2.357015,0.04569272,0.14556046,0.49715704
12.02324,0.062890895,-4.219819,-0.29071948,0.25415483,0.36088172
10.613889,-1.0964103,-4.5597377,-0.3641804,0.19718729999999998,0.22886503
9.984884,-0.96538043,-0.9482761999999999,-0.3657861,0.15885986,0.19905479999999998
10.354463,-0.59977627,1.2536806999999999,-0.37962657,0.14395475,0.20863666
9.970758,-0.19325039,2.2159965,-0.38973203,0.10775663,0.23844688
10.31808,0.012737153000000001,2.2370749,-0.35088098,0.016196655,0.27358037
11.429822999999999,0.30590236,0.6734028000000001,-0.21034709,-0.14187782,0.34171802
11.655443,0.56896764,-1.7051696,-0.022968533,-0.24089034,0.38430405
10.875,0.8296674999999999,-3.5720916,0.097337015,-0.27443558,0.39069197
9.947411,1.2127877,-3.7651025999999996,0.14629349,-0.24249604,0.35397023
9.119821,1.3787441,-2.5206442000000004,0.13351768,-0.20629792,0.29274407
7.8032107,1.2718669,-1.5664687,0.07230899,-0.15413003,0.20331341
6.7531524,1.2025309,-1.2182465,-0.027209682000000002,-0.0066671576,0.08087855599999999
6.1731615,1.26003,-1.0321882,-0.11185815,0.26532495,-0.062290803
5.9561224,1.3480216999999999,-0.8913804,-0.18957767,0.39681807,-0.187396
5.9224695999999994,1.2846999,-0.5838691999999999,-0.34660494,0.37871900000000003,-0.121387646
6.308501000000001,1.2325542,-0.14527059,-0.45200536,0.21528636,0.015934857
7.1206336,1.3453019,0.03601837,-0.48555058,0.13543755,0.10749483
8.07478,1.6862363,-0.20826681,-0.38334409999999997,-0.015707963999999998,0.12985249
9.129771,1.9728318,-0.38261259999999997,-0.15179129,-0.14933038,0.06332055
10.095295,2.0338361000000003,-0.73787385,0.2713987,-0.21746802,-0.039933134
11.287014,2.084708,-0.94044244,0.67968357,-0.19085175,-0.24914575
12.244925,2.0568584999999997,-0.95788175,0.89421946,-0.07480481,-0.49455649999999995
12.759457000000001,2.0615418,-0.7988685000000001,0.92881185,0.049200833,-0.7032106
12.588329,1.5998822,-1.403912,0.87186176,0.18069394,-0.8469385
11.590484,1.0535733,-1.7405366999999998,0.81437063,0.32175145,-0.97789055
12.283357,0.77217793,-1.4391738,0.7515562,0.4590914000000001,-1.0896788999999998
12.898465,0.57288456,-0.56010914,0.7180284,0.47719046,-1.1551636
13.896061999999999,0.46384305,0.3306967,0.7116231,0.41172317,-1.154099
14.568554999999998,0.11584105,1.2662166000000001,0.63709754,0.3137753,-1.1109719
15.207260999999999,-0.1624418,1.8961216,0.45984189999999997,0.20996311,-1.0108947
15.453651999999998,-0.17560992,1.3644077,0.25064674,0.08967502,-0.90336496
14.808511,-0.15156254,0.26189694,0.050474923,-0.038083083999999996,-0.7468613000000001
13.375867999999999,-0.16695248,-0.6796755,-0.110269904,-0.12964305,-0.56482345
11.673821,0.047740385,-1.1834252,-0.20928243,-0.21481512,-0.40884337
10.1581955,0.31845754,-1.3870856000000003,-0.23429299999999997,-0.28614673,-0.26352727
8.565352,0.4486255,-1.605159,-0.15070918,-0.3095516,-0.06602581
7.104066,0.31132284,-1.7204830000000002,-0.025080381000000002,-0.31009266,0.1357168
5.8687344,0.18111658,-1.8418115000000002,0.12234758,-0.3106337,0.36674604
5.0893545,0.13239935,-2.2148664,0.24795893,-0.40432298,0.5067389
4.583114599999999,0.11838849,-2.5054457,0.24317673,-0.60393625,0.5237733
4.538707700000001,0.02387498,-2.5640175,-0.28646088,-0.45968482,0.5780705
4.680568,-0.1495993,-2.1935964,-1.133382,0.011414453,0.8894896000000001
5.3382273,-0.31833306,-1.7021529999999998,-1.2127072,0.2812947,1.1583052
6.3133473,-0.5061534000000001,-1.1663688,-0.7325496,0.12692034,1.131689
7.24631,-0.8144883,-0.5618521,-0.18266615,-0.11473794,1.0747388999999998
8.257611,-1.2489976,-0.15586254,0.102119215,-0.22385593,1.0965555
9.075059,-1.5291191000000002,-0.10638875,0.30120890000000006,-0.25846579999999997,1.0353466999999998
9.72225,-1.4569484,-0.50310796,0.2799159,-0.13974851,0.9134355
10.612012,-0.70858794,-1.2351687,-0.011257373999999999,0.09072221,0.85168576
12.030835,-0.6182786,-3.1469292999999996,-0.27687904,0.25363123,0.73246235
11.870969,-0.9865835,-4.4879313,-0.2795494,0.24989624,0.588717
10.928324,-1.9117221999999998,-3.5036747000000004,-0.28539625,0.15940093,0.43594834
10.911986,-1.5469034,0.20140025,-0.46054003,0.15514232,0.36568138
11.645819,-0.87932324,1.4960792,-0.6196965999999999,0.14875442,0.35716417
11.338288,-0.37516183,0.9406722,-0.5771106,0.04335398,0.30871382
11.6527815,-0.3279769,-0.28146234,-0.4222126,-0.08173377,0.28422686
12.651747,-0.31394687,-1.0136284,-0.2987131,-0.19404571,0.29167940000000003
12.578053,-0.27249850000000003,-2.441626,-0.15976743,-0.26591837,0.28635618
11.597800999999999,0.12923901,-3.1016116,-0.032009337,-0.30157545,0.23418827
10.5645485,0.6932649999999999,-2.5940027000000003,0.021746803,-0.34149113,0.16020377
9.402547,1.3062764,-1.7955267,-0.052778757999999995,-0.35960764,0.09258971
8.245066,1.8022784,-2.1062846,-0.15070918,-0.2872114,-0.027157322999999997
7.1924114,1.9824756000000001,-2.3371432,-0.25877997,-0.07852236,-0.22785273
6.638949,2.1165700000000003,-1.6813328,-0.34554029999999997,0.32815679999999997,-0.40030873
6.553246,2.1544939999999997,-0.7577074,-0.4057018,0.491572,-0.46794020000000003
6.4432754999999995,2.1789822999999995,-0.3562572,-0.46638688,0.40479422,-0.25659829999999995
6.5323400000000005,2.2813776000000003,-0.26507646,-0.3450167,0.15299556,-0.05644395
7.1690345,2.433074,-0.040787622,-0.18584266,0.041224677,-0.039933134
7.847724,2.5505335,-0.082992606,-0.14699163,0.036966074,-0.11020009
8.707194,2.5142564999999997,-0.54105127,-0.012845623,0.025254915,-0.24914575
10.064525,2.0326006000000003,-0.9621530999999999,0.35285320000000003,0.040160026,-0.41149628
11.928975999999999,1.720186,-0.89901316,0.7403860999999999,0.07209955,-0.59461623
13.181028,1.4315124,-0.71876806,0.9282883,0.09765117,-0.75804883
13.144866,1.0917273,-0.45628697,0.9804562,0.15460126,-0.81712824
12.337063,0.20695479,-1.124049,1.0028138,0.27225390000000005,-0.87620765
11.18732,-0.41177395,-0.9071726000000001,1.0225011,0.40372956,-0.98427844
12.700732,-0.3313192,-0.20355502,1.0267771,0.4628264,-1.062539
14.312795999999999,-0.10645579,-0.034715924,0.98258543,0.4143935,-1.1072369
15.223761999999999,-0.15829505,0.0060046576,0.8697325,0.33080970000000004,-1.0880907
15.558001500000001,-0.46347916,0.8862377,0.6876772,0.2573488,-1.0204766
15.616142000000002,-0.72299147,1.6761327000000001,0.5088157999999999,0.15566592,-0.9613972
14.978547,-0.8175336999999999,1.2420064,0.36243507,0.025795966,-0.87781334
13.588857,-0.97777283,0.19339405,0.23574162,-0.12803735,-0.8000938
11.981696000000001,-0.97439224,-0.30536607,0.12608258,-0.23183209,-0.70640457
10.811036999999999,-0.5090264,-0.4923628,0.0094945915,-0.27762952,-0.6095388
9.398448,-0.03729209,-0.8333833,-0.118246056,-0.326586,-0.47856927
7.919397,0.15856318,-1.2501659,-0.25132743,-0.35587263,-0.28693214
6.619335700000001,0.21091002,-1.8056782,-0.27900833,-0.2967758,-0.038868482999999995
5.581832,0.25266489999999997,-2.3096673,-0.17945476,-0.23343779,0.21024236
5.0504346,0.3142725,-2.5484457000000003,0.028134707000000002,-0.30318114,0.41092032
5.010959,0.33592567,-2.398454,0.22190116,-0.44050366,0.49717449999999996
5.127651999999999,0.2979153,-2.2442957999999997,-0.023492131,-0.37557740000000006,0.5424134
5.650976999999999,0.20436907,-1.9434596999999998,-0.6180909000000001,-0.23556710000000003,0.7111693
6.2049184,0.11543883,-1.6191891,-1.2952088,-0.031154128,1.0241592
6.9328227,-0.07755298,-1.2935872,-1.3558940000000002,0.052394785,1.1434001
