accx,accy,accz,gyrx,gyry,gyrz
8.506072,-7.924357400000001,2.9341228,-0.62135464,-0.6821794,-3.7524405
8.330672999999999,-7.659731,3.3738803999999996,-0.8592953999999999,0.44153339999999996,-3.4772193
8.508859,-7.672334700000001,3.0157747,-0.71185,1.2245928,-2.9390297000000003
9.103138000000001,-8.898874000000001,1.6323092,-0.2790607,1.4295294,-2.252871
9.148494,-10.252355,0.5458301,0.29263934,1.2107523999999998,-1.5922464
9.05217,-11.257891,0.17267939999999998,0.7845255,0.8540943000000001,-1.0519273999999998
9.198715,-11.377927,0.51207185,1.1651294,0.50701815,-0.6095736999999999
10.99723,-9.942718,1.4870003,1.390818,0.08700466,-0.24865706
11.915712,-7.846153299999999,2.5662203,1.4557791000000002,-0.309028,0.07497934
10.434275999999999,-7.2441745,1.9020113,1.3583548,-0.594878,0.33475414
7.38548,-8.139683,1.5856128,1.1182848,-0.78119195,0.5508783
4.706770400000001,-8.282981,2.0905308999999996,0.77599084,-0.8807455,0.7361274999999999
2.7902122000000005,-7.953825,2.9122496,0.3325725,-0.88233376,0.95863956
1.6313993999999998,-7.090495599999999,3.3120046000000003,-0.052813664,-0.8227133,1.1917981000000002
1.5605503,-6.407353,3.1435103,-0.26307347,-0.74553484,1.3765237
1.9970324000000002,-6.335498,2.5939355,-0.2859722,-0.58316684,1.4334738
2.1845176,-6.275049,2.0462474999999998,-0.28703684,-0.1855285,1.3834351999999999
2.3169167,-6.3226557,1.3220686000000001,-0.3785968,0.21263346,1.4936178999999998
2.7437167000000002,-6.6554402999999995,0.62372786,-0.49785516,0.38564795,1.7624508999999997
3.3372300000000004,-7.1322308,0.07442136,-0.524995,0.41278782,1.9279953999999997
4.013056,-7.811284,-0.37576517,-0.44673450000000003,0.3132517,1.9306656999999998
4.556453,-8.438106,-0.7407373,-0.29396582,0.17058848,1.8103601999999999
5.089268700000001,-9.012398,-0.6879595000000001,-0.07410668,0.07209955,1.6458629
5.5275702,-9.146502,-0.12063904,0.19947368,0.14556046,1.4654133
5.884306,-8.798672,0.8646133,0.37885863,0.3936241,1.2663062
6.8759464999999995,-9.143877999999999,1.4574081,0.346954,0.77157515,1.0667103999999998
7.296454,-9.768208999999999,1.3150872,0.18669787,1.1814657,0.8990190999999998
6.4847529999999995,-9.550469999999999,0.9210973,0.066409774,1.431135,0.77606064
6.762595,-9.909887,0.87591386,0.021694442,1.4934083999999999,0.7733903
7.7672977,-9.936081,1.1080078000000002,0.08290314,1.3230643,0.80320054
8.619854,-9.539266,1.4183347,0.15371114,0.87645197,0.78723073
9.234369000000001,-9.4708,1.63614,0.05948082,0.33506832,0.74251544
9.51698,-9.318463000000001,1.8795537,-0.17845991,-0.07586946,0.78562504
9.358887,-8.745415,1.9775819,-0.344528,-0.16423549,1.0060078000000001
8.826177000000001,-7.774816,1.4303535,-0.20134118,-0.19298105,1.2908106000000001
7.9041122999999995,-6.549597299999999,0.6747052,0.14198254,-0.28560567,1.3653362
6.8499355,-5.500314,0.35277125,0.49014083,-0.34574974,1.1332421999999998
5.87403,-4.7101417,0.30263665,0.5678603,-0.38407716,0.67277205
5.007722,-4.2162657,0.3819039,0.31182054,0.04921828599999999,0.16760397
5.024941,-4.1611514,0.21220288,-0.14650294,0.541087,-0.09428269
5.594349,-4.456931,-0.21801601,-0.5697104000000001,0.7875449000000001,-0.31147146
5.885982,-5.130678700000001,-0.92965895,-0.88006485,0.6512696,-0.4919385
6.088541,-6.2562695,-0.9966296,-1.0456094,0.38191295,-0.8320857
6.1145806,-7.033092,0.041525036,-1.1227877,0.2067866,-1.169039
6.715055499999999,-6.6003547000000005,1.3140337,-1.1382165000000002,0.060929444000000006,-1.422967
8.21079,-5.9556723,1.5736896,-0.92956233,-0.14720106,-1.4298959
9.7620125,-5.4101300000000005,1.0253313,-0.5058139,-0.5879665,-1.3723873
10.835123,-5.5680127,-0.088585466,-0.20614083,-1.0973933,-1.5108093
10.500863,-7.000215,-0.86614555,-0.058136917999999996,-1.4231764,-1.8403101000000002
9.633013,-7.6894484,-0.88191855,-0.041102502,-1.3960365,-2.166093
9.133208999999999,-7.903164,-0.3934248,0.01691224,-1.0303202,-2.3742237
9.40115,-8.119082,0.3267415,0.20748474,-0.5240875,-2.4359734
10.080086999999999,-8.390423,1.1459032,0.45235443,0.102450825,-2.2443364
10.095123,-8.80437,1.5098985,0.7312755,0.51553535,-1.9004716
9.583242,-10.019801,1.9876566000000002,0.9665808000000001,0.65339893,-1.5816
9.140152,-10.661486,2.7875210999999998,1.1949396,0.6406231,-1.264875
9.491315,-10.630074,2.9792582999999997,1.4046758,0.43408084,-0.88744754
10.434878999999999,-10.286389999999999,2.510761,1.5531859,0.1381079,-0.46745154
10.891691999999999,-10.317888,2.1240685,1.6090889,0.068382,-0.06873106
10.303256,-10.43486,2.0327346,1.4797425,-0.020507618999999998,0.12501794
8.845896,-9.979281,2.5608191000000002,1.2082391000000001,-0.26644197,0.08988445
6.934029,-9.169323,2.97017,0.791437,-0.53951615,-0.055955257
4.8382316,-8.252133,2.913303,0.23835962,-0.757246,-0.1789137
3.5321657999999996,-7.117253,2.4688337000000002,-0.31204742,-0.8354891,-0.31412435
2.9095487999999996,-6.303991000000001,1.9781948,-0.7943517,-0.7615046,-0.4057018
2.369666,-5.879671,1.6754718999999998,-1.1967896999999998,-0.5022534000000001,-0.42486548
1.7169683,-5.669144,1.2083919,-1.4570707,-0.06361725,-0.25504497
1.5755666000000002,-5.8360294999999995,0.98528105,-1.4698639,0.22540927,0.046233773
2.068638,-5.6227636,0.7123516,-1.2755564,0.36061993,0.460924
3.142811,-5.459872,0.094829544,-1.0259045,0.4436627,0.9676978
4.6507654,-6.1955233,-0.57518303,-0.79646355,0.36009634,1.4909649999999999
5.660238,-7.555171499999999,-1.1480198,-0.5750162,0.23020893,1.7954550999999999
6.0095325,-8.207074,-1.3123288999999998,-0.3136531,0.109362334,1.8870151000000002
6.2193985000000005,-8.760900999999999,-0.8036186,0.038728856,-0.005602507,1.8407115
6.22842,-9.567584,-0.1659086,0.4789707,-0.041800637,1.7959962
5.904657,-10.520763,0.61838394,0.81698865,-0.013055063,1.8311121
4.9969764,-10.810836,1.3994684,0.8968200000000001,0.16952384,1.8577285
4.377989299999999,-10.908366000000001,2.2152974999999997,0.6402566,0.6054896,1.7842675
4.3944807,-11.391803999999999,2.5623607999999995,0.2766696,1.0585073,1.6197877
4.185802,-10.941626,2.454344,0.109536864,1.2517327,1.4446614
4.8604400000000005,-10.427916999999999,2.3023984,0.12868312,1.1580434,1.3158212
5.966408299999999,-9.653364,2.3518531000000005,0.19896753,0.89507467,1.1880805
7.22279,-9.269286,2.4480712000000002,0.15158184,0.5394813,1.0092192
8.356148,-9.722508,2.4424498,-0.12892747,0.29887018,0.8292931999999998
8.763544,-10.126621,2.212884,-0.48186794,0.25363123,0.7467739999999999
8.502873,-9.856316,1.5990107,-0.61440825,0.17804104,0.7478387
7.9541607,-8.520572,0.44568542,-0.49251446,-0.017313666999999998,0.7616791
7.230192,-6.7069535,-0.40046376,-0.28916615,-0.22279128,0.6541494000000001
6.6166825,-5.1369896,-0.3852845,-0.22635175,-0.30689868,0.37041122
6.0530877,-4.315596599999999,0.16872418,-0.14437364,-0.23024383,0.111177474
5.650583999999999,-4.048691000000001,0.51608455,0.028623400000000004,-0.22279128,0.13301153
5.8927817000000005,-4.2212744,0.27204835,0.22506021,-0.29518753,0.29696777
6.439684,-4.676202,-0.45063666,0.32618457,-0.41495204,0.28312729999999997
6.815747,-5.276035299999999,-1.1600865,0.30702087,-0.46924922,-0.015498524
6.8418913,-5.7544065,-0.82096213,0.163293,-0.30051079999999997,-0.5462357
6.894391000000001,-6.075718,0.38477695,0.13187708,0.070511304,-0.86776024
7.235498,-5.791689,1.4959067,0.18619172,0.20252799999999999,-1.074285
8.18362,-5.806935,1.5717552,0.17500417,0.068382,-1.2973381000000002
9.171516,-6.504117,1.3455606000000002,-0.03312635,-0.19244,-1.5448781
9.187538,-7.534926400000001,1.4985211999999999,-0.31578243,-0.37130135,-1.6838064
8.809982000000002,-8.658304,1.5833335,-0.6521946,-0.48628363,-1.7907951000000002
9.070079,-8.946738999999999,1.3296821,-0.9396677999999999,-0.5235464,-1.9041891
10.069533,-7.8860884,1.0150362,-1.0839193,-0.60925955,-2.040988
11.162678,-7.0087194,0.6445383000000001,-1.0008765,-0.65610415,-2.1580997
11.464222999999999,-7.249517999999999,0.7082527,-0.65008277,-0.6044599,-2.2475302000000004
10.201282,-7.1985793000000005,1.1201032,-0.102852255,-0.3846182,-2.2635
9.502701,-7.3854995,1.0525103,0.5854358000000001,-0.051382493,-2.1953622999999998
9.392329,-7.9445643,0.32745016,1.1560712,0.22434463,-2.0415292000000003
9.389781,-9.090564,-0.09648633,1.5494683999999999,0.36329028,-1.8360515
9.549733,-10.371998,-0.10240479599999999,1.7203536,0.39043015,-1.5320850000000001
9.747484,-11.230617,0.27761248,1.7038427999999999,0.33613297,-1.1253883
9.63987,-11.361818,1.0217017,1.5313693000000002,0.18388788,-0.7117802
9.001739,-10.919715,1.9812593,1.2322024,-0.005602507,-0.37800342
7.979252000000001,-9.824883999999999,3.1589862999999996,0.9037489,-0.23502603,-0.120898955
6.966332,-8.677727,4.227978,0.6136403,-0.51609385,0.05900958
5.796784,-7.8607197,4.90118,0.32672563,-0.7753451,0.12662363
4.6513114,-7.2886395,5.0038624,0.04511676,-0.8408124,0.16388641
3.664766,-7.1117463,4.107368,-0.30300662,-0.7939676999999999,0.19369663
2.9915166,-6.9239545,2.6930075,-0.6490007,-0.6294879,0.29270917
2.4286687000000002,-6.8950996,1.4883028,-0.88589424,-0.3617195,0.52054447
2.0708504,-6.757528999999999,0.35267547,-0.9694780000000001,-0.02316052,0.81491166
2.2093406000000004,-6.5945990000000005,-0.37821683,-0.9311505999999999,0.32335714,1.1369773
2.5744371,-6.4423847,-0.816078,-0.81349796,0.4873134,1.5415446000000002
3.1070130000000002,-6.4547677000000006,-0.81275487,-0.66552895,0.44685665,1.9120256999999998
3.8911428,-6.714232400000001,-0.6568636,-0.5004906,0.34838519,2.2005633999999996
4.816587999999999,-7.377263,-0.49159664,-0.26893779999999995,0.18229964,2.3144810000000002
5.499318,-8.258224499999999,-0.20736659,0.06534512,-0.018378316999999998,2.1723416
5.788978599999999,-8.855146000000001,-0.13146083,0.34163076,-0.09609783,1.8939439999999998
5.5856533,-9.271661,0.39736086,0.5391148,-0.0029321532,1.5878482
5.3211512999999995,-9.652493,1.1425034,0.56733674,0.23924974,1.452114
5.7404623,-10.50705,1.7578613,0.39910445,0.5719618000000001,1.4462496
5.8021755,-10.982136,2.0767593,0.19312069,0.9264905999999999,1.3861055
5.531631,-10.401197,2.1808495999999997,0.09515535,1.222987,1.170505
5.832955,-9.98271,2.1595986000000003,0.20854940000000002,1.2778254,0.92137676
6.3063273,-9.181764,2.2462304,0.34215435,1.215011,0.700453
7.417160000000001,-8.875316,2.4408502999999997,0.2756224,1.162302,0.5056393
8.769071,-9.1881895,2.5358617000000003,0.06695083,0.9461779,0.3837281
9.6693,-9.545319000000001,2.1443427,-0.14596188,0.6629808,0.3315602
9.709762,-9.917703,1.5698014,-0.44779912,0.5368284000000001,0.41407937
8.737582000000002,-9.371738,0.91448927,-0.6325248,0.47240826,0.51946235
7.758324000000001,-7.9498224,0.52556556,-0.5675636,0.27066565,0.49125782
7.3656754,-6.3732977,0.60353035,-0.3860494,0.124267444,0.36404076
7.125613,-5.0812144,1.1398698999999999,-0.27426103,0.16845918,0.16706291
6.5789789999999995,-4.2349114000000005,1.3309176,-0.23061036,0.33348006,0.0015184365
6.1955523,-4.0616389999999996,0.94923395,-0.20612338,0.47614327,-0.0016580628
6.014847799999999,-4.2258906,-0.6907175999999999,-0.24075072,0.4543092000000001,0.11222467
5.682723999999999,-4.682953400000001,-0.58556426,-0.25776768,0.2573488,0.22029546
5.5186443,-5.3290334,-0.8064629,-0.3232175,-0.08119272,0.06274459
5.3721765999999995,-5.8857713,-0.6527839,-0.40629518,-0.20043361,-0.24387486
5.9171830000000005,-6.2851815,0.26491365,-0.5212600000000001,-0.20521581,-0.4919385
6.8331,-6.01659,1.1820173,-0.6154904,-0.21853268,-0.7256206000000001
7.349586500000001,-5.907883999999999,1.4631542,-0.5526585,-0.36758378,-0.93535686
8.023439,-6.4739594,1.1209269,-0.3599567,-0.6992138000000001,-1.141358
8.243792,-7.497155,0.9000379000000001,-0.26148522,-1.1059104,-1.4176437
8.173478999999999,-8.432464999999999,0.571812,-0.24499187,-1.2624141000000002,-1.716287
8.130767,-8.803001,0.24213998,-0.23647466,-1.1399792,-1.8882193999999999
8.74872,-8.439561,0.22436543,-0.15714945,-0.8264483,-1.9803028999999999
10.360707000000001,-8.456846,0.15358326,0.014224433,-0.46340236,-1.9771265
10.656564,-8.360964,0.4542854,0.25911158,-0.15252432,-1.9425166
10.357087,-8.3588,0.6067961,0.46406558,0.09552187,-1.9228116999999998
10.277484,-8.694351,0.95431924,0.60779345,0.32229250000000004,-1.9084477
10.2605715,-9.070404,1.5474780000000001,0.70787066,0.40587629999999997,-1.8403101000000002
10.252316,-9.426336000000001,1.8021634999999998,0.8036892,0.39735909999999997,-1.7317156999999999
10.436392999999999,-9.84014,1.6723787,0.8356113000000002,0.33400366,-1.5693651000000002
10.124581,-10.364413,1.8620472,0.78663737,0.17537068,-1.2717866000000002
9.120663,-10.344981,2.2862902000000003,0.6503795,-0.01144936,-0.88584185
7.904025999999999,-9.687046,2.7973467999999997,0.47469464,-0.29305825,-0.5190784
6.7139735,-8.628099,3.1035461,0.30969122,-0.56347954,-0.2454631
5.9738492999999995,-7.631585,3.0801404,0.16489871,-0.7987674,-0.09747664
5.3798285,-7.058153999999999,2.6915807999999997,0.036599554,-0.89458597,-0.07033677
4.6477294,-6.662699000000001,2.1059973,-0.12575097,-0.7716101,-0.06553711
4.0022144,-6.385651999999999,1.7280486000000002,-0.3700796,-0.55176836,-0.039985493
3.5762956,-6.405974,1.2835411,-0.62187827,-0.23343779,0.112242125
3.0794222,-6.5644603,0.80582124,-0.78316414,0.14023721,0.3879867
2.5177522,-6.734630999999999,0.3724995,-0.8294676999999999,0.5011538,0.6413736
2.3725007000000002,-6.853134,0.019594146,-0.863554,0.7721161999999999,0.9086009
2.6490405,-6.8228717,-0.054712295999999994,-0.8688947,0.7476292,1.2200027
3.3431675000000003,-6.779086599999999,0.14048217,-0.7959574,0.6475521,1.5074583000000001
4.3603873,-6.96705,0.42341940000000006,-0.5803569000000001,0.52192324,1.6277639
5.3477559999999995,-7.708333500000001,0.64969057,-0.25457373,0.41172317,1.5234281
5.818791,-8.483346000000001,0.68901294,0.13452998,0.28822368,1.3456313999999998
5.8748629999999995,-9.163692,0.6131072,0.42465606,0.2546959,1.3557542999999999
5.4421544,-9.653805,0.913953,0.47949430000000004,0.36754888,1.5500443000000002
5.422426000000001,-9.972377,1.4594287000000001,0.30009192,0.5448045,1.6751496
6.049123000000001,-10.806564,1.5243787,0.08344419,0.81044364,1.7001601000000002
5.903824,-10.78426,1.2872569999999999,0.00837758,1.0659598,1.6096648
5.758045,-10.362776,1.3203065,0.06373943,1.0915115,1.4084458
6.0249224,-9.541574,1.7629273999999997,0.10527826,1.0169859,1.223214
6.8085732000000005,-8.801563999999999,2.2981942,0.06054547,0.82534873,1.0869212
7.976704,-8.929903,2.4631548,-0.13798574,0.5538628000000001,0.95277524
8.371431,-9.617288,2.0790290000000002,-0.42065924,0.32229250000000004,0.8644091999999999
7.825276,-9.956652,1.1969763,-0.61709607,0.16259487,0.80798274
7.027900999999999,-9.032126,0.22681709,-0.5856800999999999,0.04921828599999999,0.8021359
6.6031413,-7.405639,-0.23962128,-0.31100023,-0.17859954,0.8015948
6.353675,-5.9745292999999995,0.061923634000000005,0.030735249,-0.35906658,0.7494269
6.377493,-4.704549,0.51617074,0.27080529999999997,-0.34574974,0.49816933
6.363424299999999,-4.099295,0.5127518,0.32190853,-0.12856095,0.19900244
6.2901235,-3.9633327000000005,0.08746497,0.19895008,0.07796386,0.026529005
6.165673,-4.373105000000001,-0.42539218,-0.03790855,0.15088372,0.041975167
6.3623614,-4.900835,-0.8777621999999999,-0.24127431,0.1359786,0.13618805
6.746372,-5.602786,-0.8725142,-0.35997415,0.034313172,0.101054564
7.1134414999999995,-6.299576,-0.14225389,-0.38552576,0.007696901999999999,-0.09482374
7.477255,-6.7171435,1.0905684,-0.3003537,-0.02157227,-0.26995006
7.416136,-6.3790727,1.827475,-0.15130259,-0.11206759,-0.42593014
8.047955499999999,-5.890301,2.0463529,0.062133722,-0.3180688,-0.60425043
9.088389,-6.274561,1.4862916000000002,0.28253388,-0.601807,-0.77140063
9.402766999999999,-7.195658,0.7304421999999999,0.4049513,-0.8291011999999999,-0.96729636
9.073507000000001,-8.14155,-0.15474205,0.39697513,-0.9669822,-1.2701982
8.470225,-8.628033,-0.39304173,0.2718874,-0.9776287,-1.6199273
8.342787,-8.445585000000001,-0.018215086000000002,0.07438593,-0.8727519,-1.9228293
9.246417,-8.282003,0.60218006,-0.026214845,-0.6369405,-2.1038197999999997
9.559961,-8.091598,1.3044759,0.055222217000000004,-0.37290704,-2.2209315
9.264622,-7.949314599999999,1.7993767,0.16275196,-0.14081316,-2.3385665
9.35293,-8.324026,2.0399651999999997,0.27827528,0.10032152400000001,-2.4248032999999998
9.586412,-8.846997,2.1759367000000003,0.35438909999999996,0.34784412,-2.447161
9.675851,-9.394397999999999,2.1352447999999997,0.39430478,0.48624873,-2.338043
9.890036,-9.856441,1.8228877,0.4970523,0.40800563,-2.0170421999999997
10.286813,-10.16329,1.4736502,0.53325045,0.22753857,-1.5624361999999998
9.982307,-10.224772999999999,1.2899863999999999,0.48268825,-0.041259582999999996,-1.0870783000000002
8.941289999999999,-9.923123,1.4574081,0.43797293,-0.36917204,-0.7219031
7.749886999999999,-9.213089,2.2317982000000005,0.38739327,-0.6885673000000001,-0.40835467
6.7121735000000005,-8.1989155,2.6771295,0.3458719,-0.9574004,-0.17306685
5.938118,-7.475033,2.579762,0.23621286,-1.0335140999999999,-0.0085870195
5.0573487,-7.053921000000001,2.2714942000000002,0.04564036,-0.9499478000000001,0.0866905
4.3324226999999995,-6.949477000000001,1.7859116999999998,-0.23062779999999997,-0.74979347,0.1452463
3.1721543999999997,-7.146807000000001,1.3249511999999999,-0.5212775,-0.45062655,0.24265313
2.1818743,-7.086798700000001,1.1196053,-0.7863755,-0.066811204,0.4657062
1.7214214,-6.8743086,0.6683845,-0.96734875,0.23340288,0.6924768
1.7688842,-6.5544910000000005,0.48579308,-1.0397625,0.5543864000000001,0.9165771
2.2015355,-6.509212000000001,0.50701535,-0.97056013,0.7082371999999999,1.2945281000000002
2.7416675,-6.555037,0.5911666999999999,-0.77359974,0.6060307,1.7235824
3.6591828,-7.0784955,0.8042219,-0.46324529999999997,0.47401398,2.1068568
4.5582633,-7.744936,0.77122986,-0.05974262,0.23766148,2.2766773999999996
5.38681,-8.472544000000001,0.6581085999999999,0.38578758,0.025254915,2.1116563999999998
5.8534017,-9.16847,0.5998720000000001,0.74939203,-0.0050614546,1.8188775000000001
5.7908273,-9.588213,0.8189031999999999,0.96495765,0.11362094,1.657574
5.3937626,-9.706659,1.1411628,0.9426174,0.30312878,1.6682206000000002
6.016696,-10.425695,1.4935796000000001,0.72595227,0.59964275,1.6565093999999998
5.9502997,-11.007601,1.8087715,0.45926595,0.93181384,1.5436565
5.379330599999999,-10.586997,2.144017,0.39325759999999993,1.0233738000000001,1.3259441
5.485767,-10.08093,2.5056853,0.45127234,0.93872535,1.0768158
6.1219163,-9.544628999999999,2.8428847999999998,0.44807836,0.8290663,0.8739911
7.797446000000001,-9.488882,2.9083040000000002,0.25963518,0.714084,0.70738196
9.547692999999999,-9.906823,2.6344645,-0.06986553,0.6203947,0.6152809
10.071429,-10.352796000000001,1.9989861,-0.48614399999999997,0.5043478,0.63763857
9.154862,-10.033851,1.2993428999999999,-0.7533539,0.29567623,0.7627438
7.874596,-8.522506,0.48742118,-0.6852337,-0.129102,0.86173886
7.07682,-6.7124414,0.026566062,-0.39671335,-0.42453387,0.86173886
6.588125,-5.0928884000000005,0.28910464,-0.051766466,-0.46020842,0.68661255
6.330030000000001,-3.9032093999999997,0.75164527,0.1505172,-0.33883822,0.35817647
5.963133,-3.4752699999999996,0.66449636,0.10845476,0.026860617000000003,0.052621678
5.782447299999999,-3.8700642999999997,-0.028605923,-0.0389732,0.3137753,-0.121963605
5.792158000000001,-4.383371400000001,-0.7391571,-0.1667313,0.33880332,-0.19116591
5.78486,-5.248473000000001,-1.3243,-0.24659757,0.20198695,-0.18851301
5.579199,-5.9495244000000005,-1.1862598999999998,-0.32698745,-0.0018675023000000002,-0.30136599999999997
5.8225164000000005,-6.653908,-0.044283155,-0.40629518,-0.10513864,-0.53930676
6.832965400000001,-6.980266,1.3453019,-0.41852996,-0.14666001,-0.65589476
7.684468300000001,-6.9649243,2.1456263,-0.3003537,-0.32552135,-0.6931575
8.764263,-6.723311,2.264618,-0.124162726,-0.73860586,-0.7831292
9.260388,-6.7511887999999995,1.4896628,0.06054547,-1.2863774,-0.9348332
9.350201,-7.5864496,0.64778477,0.12494812,-1.7260783,-1.1674508
9.115942,-8.225289,0.19728222,-0.021956242999999997,-1.8815172999999998,-1.4746113
8.769645,-8.451628,0.06967127,-0.21944025,-1.7180846999999997,-1.7636551999999999
8.482723,-8.040544,0.3022823,-0.29930650000000003,-1.3433275,-1.9973546999999998
9.088417999999999,-7.7941036,0.5022555999999999,-0.17633061,-0.86051714,-2.11499
9.068671,-7.8409534,0.8360361,0.12815952,-0.397394,-2.1139252
8.592425,-8.113854,1.3052708999999998,0.5071752,0.015673056,-2.0787918999999997
8.824021,-8.698183,1.672484,0.745657,0.28982937,-2.0213008
9.582983,-9.729107,1.7359208,0.86542153,0.4149170999999999,-1.9265468000000001
10.201072,-10.355258000000001,1.8309034,0.8627511,0.39842376,-1.7519441000000002
10.589105,-10.6717615,1.5726458,0.73234016,0.28344148,-1.5310377
10.600099,-10.976935000000001,1.4478312,0.5327094,0.061994094000000007,-1.3335363000000002
9.882947999999999,-10.774827,1.958754,0.31712633,-0.20362756,-1.1275351
8.589858999999999,-9.957753,2.7726197,0.1664695,-0.47137854,-0.9396154000000001
6.999410000000001,-8.7661495,3.6479684999999997,0.07649778,-0.665686,-0.77726495
5.8923793,-7.8175473,4.1225953,-0.005969026,-0.7146600000000001,-0.6590887
4.9823337,-7.210445,3.6799169000000003,-0.08051204,-0.69814914,-0.57763416
4.3270693,-6.908383000000001,2.7759047000000003,-0.20772909,-0.594878,-0.49619709999999995
3.6367254,-6.8168864000000005,1.8914384999999998,-0.45153412,-0.30742228,-0.32265902
3.144171,-6.8603168000000005,1.1137155,-0.6745871999999999,-0.027419122,-0.049043752
2.8123155,-6.694370299999999,0.5509440999999999,-0.76721185,0.24563764,0.30546752
2.7278287,-6.6415057,0.23498611,-0.69586277,0.6108129,0.6397679000000001
2.870303,-6.716684,0.33130962,-0.58143896,0.82374305,1.0081371
3.0804085999999997,-6.755614,0.7326449,-0.415336,0.7300538000000001,1.5346156000000002
3.5038376,-6.965997,1.1818163000000002,-0.14119713,0.4713436,2.0972748
4.15393,-7.631297999999999,1.3340396,0.26389378,0.14768976,2.4145408
4.9102874000000005,-8.458092,1.3842412,0.7142411,-0.038606685,2.4214697
5.3357660000000005,-9.392050999999999,1.1122983,1.1081618999999998,-0.17381734,2.2335502999999997
5.183054,-10.061009,0.88980985,1.4163871000000001,-0.36651915,2.0190318
4.5439844,-9.927777,1.1599428999999999,1.4323568000000002,-0.42507493,1.8939266
4.4528704,-10.0430155,1.8968207,1.0128844000000001,-0.05510004599999999,1.8300474999999998
4.8725643,-10.547569000000001,2.0829458,0.51461035,0.55918604,1.6873843999999998
4.8722486,-10.973325,1.7484663,0.22076669999999998,1.1229098999999998,1.4680662
4.6828194000000005,-10.956691000000001,1.5965686000000001,0.105260804,1.4556221,1.1731578999999999
4.873704,-9.7566395,1.9310961,0.026459191,1.3289286,0.8180881999999999
6.282548,-9.030124,2.1739447,-0.1699427,1.0483844,0.54342574
8.038551,-9.09856,1.9288262999999999,-0.50904274,0.69546133,0.3736052
9.508495,-9.902686,1.2506353000000001,-0.81192714,0.39681807,0.36030576
9.865433,-10.176459,0.36287478,-0.92530376,0.1482308,0.4513247
9.023085,-9.167053999999998,-1.0331267,-0.82576764,-0.06948156,0.5269149000000001
8.134665,-7.5566564,-1.7100155,-0.51487213,-0.19830431,0.6163456
7.869003299999999,-6.0048976,-1.3183241,-0.13267992,-0.24780184,0.6200806
7.828512700000001,-4.9206970000000005,-0.6629161,0.13932963,-0.16475908,0.46890014
7.8068979999999994,-4.1666099999999995,-0.67635244,0.20214403,-0.045518185999999995,0.25329962
7.413435000000001,-3.7462745,-1.0803883,0.14515904,0.015673056,0.069115035
6.986308999999999,-3.9246328,-1.8570577000000001,0.016894788,0.012479104,0.03345796
6.3726462999999995,-4.523174,-1.9168075,-0.17366026,-0.066811204,0.0829555
6.0717916,-5.3277790000000005,-1.1620115,-0.34880406,-0.16955873,0.035046212
6.112617,-5.9668775,0.08636365,-0.50476664,-0.21586232,-0.24333379999999996
6.545853,-6.3105507,1.1970816999999998,-0.56599283,0.0108908545,-0.5739166
6.9360023,-6.2403526,1.9877429,-0.48027970000000003,0.22595033,-0.8837299999999999
7.4603996,-5.810115000000001,2.0653245,-0.2790607,0.26214844,-1.0679146000000002
8.094930999999999,-5.6607165,1.4717923000000002,0.041364305,0.16420057,-1.0876194
8.6370535,-6.437616,0.70421135,0.2798461,-0.17807594,-1.1509573
8.819042,-7.5568285,0.11757445,0.28625146,-0.46818456,-1.4352192
8.713755,-8.610105,-0.15910907,0.13081242,-0.549098,-1.7806896
8.935449,-9.055522999999999,-0.10076716,0.004118977,-0.506512,-2.0532403
9.800655,-8.741555,0.3028378,-0.09861110000000001,-0.309028,-2.1879272000000003
10.571769999999999,-8.483097,0.8647474,-0.026738444,-0.16050048,-2.2150671
10.259423,-8.040897,1.5420383,0.07119198,-0.014119713999999998,-2.1730223
9.897869,-8.369784,2.0046077,0.177116,0.17484708,-2.0889149
9.692657,-9.463849,2.15414,0.27612853,0.24350834,-1.9467752
9.301855999999999,-9.932461,2.1634580000000003,0.41027454,0.14610150000000002,-1.6896706999999997
9.59235,-9.596152,1.4714093000000001,0.53590333,0.015149458000000001,-1.3580406999999999
10.133716999999999,-9.451849000000001,0.8480261999999998,0.58168334,-0.116849795,-1.0008416
9.888541,-9.699475999999999,0.76418126,0.56784284,-0.20575686,-0.68357563
8.961574,-9.551772999999999,1.0941693000000001,0.5518731,-0.30583405,-0.40357247
7.5991197,-9.245526,1.4541231000000001,0.5407029999999999,-0.40856412,-0.17786649999999998
6.4134917,-8.586307000000001,1.9219118000000002,0.49492303,-0.5054473,0.03398156
5.4728866,-7.958336,1.8856828,0.36981782,-0.5613501999999999,0.19261454
4.6174669999999995,-7.443899000000001,1.7998267,0.14784685,-0.5751906999999999,0.31771973
3.7431620000000003,-6.9964889999999995,1.5165737,-0.11032226,-0.5688028,0.40608576
2.9888926,-6.912654400000001,1.3377267,-0.41161844,-0.47137854,0.54182
2.4950454,-6.687742699999999,0.9773514000000001,-0.71610856,-0.28454104,0.76698494
2.5310736,-6.422341,0.8021149999999999,-0.94074994,-0.129102,1.0422059000000001
2.6442330000000003,-6.1301904,0.7152821,-1.0078228999999999,0.024731316,1.2865345
2.8914294,-6.107666,0.7036559,-0.95565504,0.15940093,1.4590253999999998
3.2199426,-6.236321,0.6335440999999999,-0.83641416,0.20411626,1.6676794999999998
3.5627446000000003,-6.3841295,0.41640913,-0.6761755,0.15461873,1.9407712
4.086787,-6.686584,0.15632223,-0.44408157,0.072640605,2.1915052000000004
4.7168074,-7.330384700000001,-0.06824432,-0.07838274,-0.12377875,2.206934
5.433966000000001,-8.431708,-0.14267527,0.4155978,-0.28506464,1.8651810000000002
5.885321,-9.396456,-0.049655742999999995,0.87713265,-0.22492059,1.3823706
5.806696,-9.807129,0.25726175,1.1731056,0.10297442,1.0672339
5.941805400000001,-10.074207000000001,0.9491669,1.1491423,0.49370128,0.9841912
6.816072,-10.682554,1.5258535,0.8643394,0.9429839,0.95116955
7.3097663,-11.035478999999999,1.8858455000000003,0.54176766,1.3294522,0.8106531
7.254211,-10.816563,2.043432,0.47361255,1.363521,0.6466794
6.941748599999999,-10.0463295,2.2477915,0.55932564,1.1569787,0.4470661
6.964598700000001,-8.848117,2.6806152,0.55771995,0.8429068000000001,0.24637067
8.333861,-8.079989999999999,3.097216,0.38152897,0.6422288,0.09679596
10.16942,-8.435519000000001,3.115498,-0.08531169599999999,0.59590775,0.11222467
10.813029,-8.952753,2.607822,-0.38339648,0.39255947,0.19261454
9.884605,-9.112072999999999,1.4941447,-0.47869146,0.068382,0.39437459999999996
8.42488,-8.084817,0.3287239,-0.41907102,-0.21533872,0.58866465
7.504894,-6.400027,-0.4844715,-0.24020967,-0.40910518,0.6387031999999999
6.886404,-4.9714737,-0.37133113,-0.06932448,-0.33883822,0.5641776999999999
6.1578197,-4.028331,0.27055440000000003,0.05042256,-0.08864527,0.2777866
5.8239245,-3.626526,0.23637474,0.12335987400000001,0.08009316,-0.06766641
5.4331045,-3.7100358,-0.50608635,0.019006636,0.09073967,-0.27209684
5.217855999999999,-4.2233815,-1.3483665,-0.32272884,0.19027579,-0.25026277
4.635701,-5.1438274,-1.994686,-0.7651,0.21902137,-0.11931071
4.647355999999999,-5.975803,-1.0059860999999999,-1.0956653,0.033772122,-0.19011872
5.0331097,-6.755766400000001,0.08769482,-1.1254754999999999,-0.11526154,-0.38334409999999997
5.8242598,-6.9309460000000005,0.9483623999999999,-0.9604546999999999,-0.26857126,-0.55955255
6.5521927,-6.3678870000000005,1.6221865,-0.73155475,-0.42346925,-0.7543837
7.405467,-6.09785,1.5632222,-0.43877578,-0.5501627,-1.0035119000000001
8.507767,-6.338955400000001,1.2587754999999998,-0.1438675,-0.7402116,-1.2728686000000002
9.017703,-7.312342,0.5371057,0.073303826,-0.9254608,-1.5273201
8.856679,-8.543632,-0.50960106,0.21968459,-0.9350427,-1.7764485
8.293476,-9.197316,-1.0995993999999998,0.303792,-0.8322951999999999,-1.9803203
8.346503,-9.141521000000001,-0.90971047,0.35650095,-0.67313856,-2.1464060000000003
9.650155,-9.220711999999999,-0.07172070400000001,0.36236525,-0.36917204,-2.2379658
10.206682,-8.775621000000001,1.1554801000000001,0.42570326,-0.10939724,-2.1762161
10.175433,-8.589198,1.7810081999999998,0.48425904,0.07689921,-2.0330293
10.300305,-8.587475,2.1023676,0.5396209,0.23179717,-1.8791785
10.437407499999999,-8.699035,2.288359,0.6077585,0.27492425,-1.6992526000000001
10.326326,-9.151864,2.2005203,0.6642024999999999,0.16898277,-1.4133850000000001
10.442003999999999,-9.763516000000001,1.9972238999999998,0.7264584,-0.044453535,-1.0641971000000001
10.244683,-10.121564999999999,1.8116732,0.70464176,-0.20362756,-0.80868083
9.489036,-9.939299,1.6441653999999999,0.6242519,-0.33457962,-0.6010739
8.494024000000001,-9.440329,1.6383713,0.49968776,-0.44689155,-0.41688934
7.05214,-8.798921,1.5339459,0.34107223,-0.5405808000000001,-0.20500638
5.71381,-7.983417500000001,1.6560788,0.19734438,-0.59541905,-0.013910273999999999
4.903449500000001,-7.438344,1.3927455,0.04829326,-0.6236236,0.16812757
4.196135,-6.8197594,1.2737056999999998,-0.06986553,-0.598072,0.336866
3.4560587,-6.3733935,1.0553641000000002,-0.28333676,-0.510247,0.5152037
2.5941078999999996,-6.1943746,0.8193629000000001,-0.54576445,-0.31487486,0.7451683000000001
2.3910127,-5.975707,0.61671764,-0.78689915,-0.08970992,1.0049431
2.7202919999999997,-5.8559684999999995,0.43032426,-0.8880584,0.17271778,1.1901923
3.0373897999999997,-5.982229,0.31454065,-0.78106976,0.33080970000000004,1.4281331
3.170057,-6.12976,0.15443559,-0.5521698,0.27438322,1.7012247999999999
3.2976584000000004,-6.354211299999999,0.19919759,-0.31475267,0.2131745,1.9418359
3.838633,-6.958411999999999,0.31420544,-0.08796459400000001,0.28290042,2.0589476
4.6793904,-7.9076557,0.41906193,0.17657496,0.37233108,2.041913
5.468462000000001,-8.917846,0.44931504,0.5348212,0.37233108,1.8896680000000001
5.893529,-9.6610155,0.25340232,0.9463174999999999,0.37339574,1.7304939
5.7660418,-9.743127000000001,0.36643735,1.2582777,0.541087,1.6570505000000002
6.153874,-9.907034,0.9077280000000001,1.2470727,0.89081603,1.4973353999999999
6.671692,-10.567422,1.5448251,1.0101966,1.3124177,1.321668
6.476641000000001,-10.411472999999999,2.1695870999999998,0.776497,1.5604813999999998,1.1401538
6.6801577000000005,-10.413953999999999,2.3596869,0.64715064,1.498208,0.9942966000000001
7.11257,-10.2271,2.2780732999999995,0.5390973000000001,1.2708964,0.8606742000000001
7.6829643,-9.993245,2.3310812000000003,0.3639535,0.9158440999999999,0.7009766
8.241349000000001,-9.844891,2.4279406000000003,-0.0012042772,0.62465334,0.5311735
8.907714,-10.111164,2.4651468,-0.5872858,0.5144707000000001,0.42523202
8.932718,-10.343776,2.3066697,-0.97164226,0.28131217,0.46249480000000004
8.381296,-9.426902,1.5354014999999999,-0.9950471,-0.07213446,0.60889304
7.653467699999999,-7.880994,0.31168675,-0.76242965,-0.3175452,0.7685906
6.643383,-6.1775384,-0.340331,-0.33550465,-0.39632937,0.81276494
5.8053837,-5.033512,-0.41620803,0.11854276,-0.48947757,0.58653533
5.2862062000000005,-4.350255000000001,-0.5044487,0.2990098,-0.23024383,0.17929767
5.2998047,-4.117414,-0.85446185,0.2601413,0.1381079,-0.15231489
5.344355999999999,-4.0963354,-1.4036534,0.044558257000000004,0.3095167,-0.32265902
5.635404599999999,-4.571162999999999,-2.153728,-0.24342106,0.29941124,-0.2939309
5.567659,-5.5001802,-2.1091577999999997,-0.5446998000000001,0.23553218,-0.25026277
5.8209653,-6.7491493,-0.6348560999999999,-0.99825853,0.09658652,-0.34182274
6.0260715,-7.3774834,1.0234828999999999,-1.3160479999999999,-0.0024085543,-0.49780280000000005
6.4854236,-7.197277000000001,2.2146747,-1.3463819,0.04335398,-0.5834984999999999
7.187603999999999,-6.616577599999999,2.77759,-1.1978718000000002,0.04921828599999999,-0.7474546999999999
8.542627,-5.8873706,2.5290527000000003,-0.7965159,-0.09716248,-1.0168288
9.225912,-6.3397217,1.0389495,-0.19177678,-0.41814598,-1.2670218
8.968172000000001,-7.2787942999999995,0.079611994,0.307527,-0.9307841,-1.4772816
8.535109,-8.208291000000001,-0.78885114,0.5619786,-1.4482044,-1.6433669999999998
8.2487335,-8.832075999999999,-0.8448276,0.65406215,-1.8330668999999997,-1.8488448
8.417486,-8.804561999999999,-1.0663583,0.69134235,-2.080607,-2.1953797
9.165741,-8.730131,-0.80040073,0.6040234999999999,-2.0321567,-2.6521150000000002
9.273155000000001,-8.692225,0.5451214,0.4209036,-1.6637875,-3.0167667999999996
9.172187,-8.589696,1.8996171000000002,0.16804029999999998,-0.777998,-3.0428593
9.612212,-8.565161,2.6104078,0.031782445,0.2632131,-2.7772202
9.800597,-8.706199,3.5266209,0.10471976,1.0409318,-2.3614655
9.710308,-8.923428999999999,3.674956,0.27026424,1.3922666000000001,-1.9020773000000002
9.330272,-9.357527000000001,3.0089178,0.51726323,1.2208579,-1.3718811000000002
9.451082000000001,-10.165138,2.3034902,0.7914021,0.9307492,-0.7660948000000001
9.804074,-10.36992,1.9824661,0.9889034999999999,0.6140068000000001,-0.28646088
10.190939,-9.833714,1.9085139,1.1310432,0.2568252,0.049410272000000005
9.676769,-9.012943,1.6382468000000001,1.1826526000000002,-0.07958701,0.2761809
8.238745,-8.453553,1.4671763999999998,1.1288964,-0.40058798,0.44439572
6.1833897,-8.688759,1.5086629999999999,0.9718690999999999,-0.7056017,0.57163024
4.2228449999999995,-8.402115,2.0549338,0.7727794,-0.92811376,0.64296186
2.9279172000000004,-7.765200599999999,2.1452812999999997,0.55611426,-1.0159562,0.71481705
2.0320356,-7.019972,1.9019442,0.2516241,-0.90362674,0.8079653
1.2257930000000001,-6.667430400000001,1.5124459,-0.18165387,-0.65449846,0.9107128000000001
1.2514205,-6.5935836,1.2614857,-0.6133784999999999,-0.28134707,1.0576346
1.8696129000000001,-6.2165065,0.94411033,-0.94821995,0.20891590000000002,1.2450131000000002
2.5764675,-6.179588,0.7403255,-1.1100469,0.6230651,1.5250163
3.1664847999999997,-6.218067,0.30755913,-1.0482796,0.74124134,1.8886033
3.7074307999999996,-6.320549,-0.13620134,-0.7565828,0.6054896,2.3011467
4.365185299999999,-6.775945,-0.4012682,-0.2609791,0.24724334,2.6056367999999996
5.3977947,-7.946374400000001,-0.45166138,0.31017992,-0.14878932,2.5177945999999998
6.2319255,-9.102304,-0.45424709999999996,0.8308116,-0.2611187,1.9210664000000002
6.5927887,-9.616465,-0.5836106,1.0139141,-0.09822713,1.2748233999999998
6.586104,-9.707578,-0.59636694,0.82067126,0.27970648,0.8319286
6.832764,-10.443814,-0.18021636,0.23457225,0.75614643,0.6402915
7.014838,-11.228852999999999,0.54439354,-0.44516367,1.2932540000000001,0.53010887
6.970383,-11.512739,1.1239915,-0.7778758000000001,1.51896,0.3874282
6.6589932,-11.231363,1.9348502,-0.71291465,1.384814,0.29427996
5.9745007,-9.697963,2.7579575000000003,-0.48455575,1.0856471,0.22401302
6.700011,-8.480837,3.2614104999999998,-0.27429596,0.8588764999999999,0.20326105
8.756132000000001,-8.174063,3.1982706000000003,-0.21626374,0.75134677,0.2713987
10.676252999999999,-8.502672,2.4446907,-0.25300294,0.6496813,0.4231027
10.571321000000001,-8.598277000000001,1.1877155000000001,-0.28016025,0.46975538,0.6030287
8.792361,-7.846775999999999,-0.3286377,-0.20244074,0.23766148,0.7579267
7.149775999999999,-6.653822,-1.2989788999999998,0.017941985,0.017802358,0.7914719
6.201624,-5.620082,-1.1338268999999999,0.12812462,-0.07106981,0.6786189
5.625808999999999,-4.863428,0.25233927,0.099902645,-0.05190609,0.48911107
5.0373526,-4.5049205,1.3724234,-0.00013962633999999998,0.057194438,0.33953634
4.7835383,-4.592998000000001,1.6601873999999999,-0.10447541,0.14077826,0.32676053
4.604557499999999,-5.081549,1.2972647,-0.22638665,0.15514232,0.386381
4.47166,-5.6294293,0.7219955,-0.30037117,0.09606292,0.32941344
4.57259,-6.177021,0.47174394,-0.31848767,-0.03913028,0.061645027000000005
5.0053754,-6.4993,0.53587025,-0.32646385,-0.010384709,-0.26199138
5.8860683,-6.710526,0.9494159,-0.27536058,-0.030613074,-0.48980920000000006
6.850424,-6.215453,1.1510652,-0.1476025,-0.16423549,-0.60372686
7.582006,-6.0282264,0.5245983000000001,0.16004670000000001,-0.47724283,-0.6394014
8.184895,-6.564450999999999,0.09242576,0.47148323,-0.9334370000000001,-0.7863232
8.481297,-7.679038,-0.02138501,0.5853834,-1.3124527,-1.1483045
8.50452,-8.603850999999999,-0.046552856,0.5358859,-1.3795256999999999,-1.5566068000000002
8.838617,-8.884241000000001,0.06220136,0.43900266,-1.2017289,-1.8243577000000002
9.507931,-8.313262,0.60531163,0.43580872,-0.94301885,-1.9569154999999998
10.480723,-8.275214,0.8426632,0.40015164,-0.61990607,-2.041023
10.651218,-8.673349,1.176051,0.21010274,-0.32339206,-2.0399408
10.300449,-9.447127,1.4493444,0.35863024,-0.24089034,-2.1001024
9.988791,-10.036522999999999,1.772935,0.40917498,-0.18285814,-2.1411002
9.692848,-9.714426,2.357829,0.39481091,-0.1317549,-2.0974493
10.020442,-9.032423,2.1087842,0.38577009999999995,-0.21533872,-1.8626851999999998
10.561226,-9.238774000000001,1.5964919,0.39800490000000005,-0.40165263,-1.5044389
10.195057,-9.715661,1.4086908,0.34637803,-0.49747118,-1.1924962
9.019456,-9.854008,1.6209223999999998,0.26492350000000003,-0.6097831,-0.97263706
7.970891,-9.420092,2.0777457,0.1691224,-0.67472684,-0.8321031999999999
6.692531,-8.637207,1.6311408,0.033370696,-0.7098603,-0.7123212
6.4924335,-7.992812599999999,1.7669879000000002,-0.11672762,-0.7316944000000001,-0.6330135
5.504739,-7.187297999999999,2.1143196,-0.30304152,-0.67472684,-0.6330135
4.9531245,-6.97905,1.6777511999999999,-0.5372647,-0.43891540000000007,-0.5845806
3.9882035000000005,-6.8504815,1.2320083,-0.83323765,-0.1274963,-0.43285909999999994
2.7161644,-6.8260125999999985,0.9318040999999999,-1.0663961000000002,0.17111208,-0.17149605
2.391348,-6.651686,0.9103424999999999,-1.1840488,0.42982224,0.20004964
2.7585514,-6.491332,0.8862377,-1.1334692,0.7119546999999999,0.5673541999999999
3.3407160000000005,-6.636908999999999,0.86288947,-0.98441803,0.84238315,0.9900206
3.7666347,-6.7643094,0.80107117,-0.8390844999999999,0.738571,1.3770299
4.0201426,-6.9341919999999995,0.7940897,-0.69324476,0.5714208000000001,1.7874439999999998
4.569018,-7.2805184999999994,0.8721502,-0.46645668,0.42929864,2.065859
5.2283907,-8.127003,0.8162121,-0.15879005,0.3111224,2.1973345
5.177346,-9.081083,0.71725494,0.08873254,0.30899309999999997,2.2324681
4.855814499999999,-9.672699,0.77647793,0.24096015,0.40320596,2.2404616
4.264782,-9.805558,1.1169622,0.29951596,0.58473766,2.3101876
4.172816,-10.176774,1.7217183999999996,0.24097762,0.75454074,2.291024
4.5547867,-10.821945,2.0748439999999997,0.12758356,0.99408716,2.0956693
4.5580044,-10.725669,1.9528353999999999,-0.031573005,1.282084,1.7709506999999998
4.858065,-10.626569,1.5881124,-0.17795376,1.5067253,1.4584669
5.2893276,-10.255859,1.6957172999999999,-0.29719466,1.5908327,1.2162676000000001
6.068564,-9.652789,1.9545113999999997,-0.42814672,1.4614688999999998,1.0363415
7.094460000000001,-9.704428,2.0266726000000004,-0.6469411999999999,1.1798775,0.9277472
7.846699,-10.051730000000001,1.5920867,-0.8864702,0.83438957,0.95116955
8.122224000000001,-10.306875999999999,1.1301781000000002,-1.0025346,0.47401398,1.0517703
7.9506364000000005,-9.805386,0.79624444,-0.8726296999999998,0.086481065,1.1582354
7.8322477,-8.128860000000001,0.44800302,-0.5410172,-0.12004375,1.2370195
7.89217,-6.4292073,0.31568986,-0.17210692,-0.1727527,1.1561061000000001
7.419229,-5.0555673,0.17633773,0.07702138,-0.095033176,0.8085063
6.855672,-4.4069877,0.108026385,0.13608332,0.11362094,0.34536576
6.4104366,-4.442374,-0.09121908,0.033353243,0.30738738,0.005742133000000001
6.3951426,-4.8193364,-0.5207579999999999,-0.10822786400000001,0.3845833,-0.120392814
6.304479,-5.4877114,-0.90041137,-0.20244074,0.28770009999999996,-0.14327408
6.2421246,-6.2750974,-0.6963871,-0.20193459,0.043895032,-0.2822372
6.4372324999999995,-6.5305204,0.1989773,-0.13271484,-0.21479768,-0.60055035
7.2191887,-6.7377142999999995,1.3981371999999999,-0.02677335,-0.2701595,-0.83796746
7.936223,-6.469755,2.1780055,0.12597786,-0.27070057,-0.9502794
8.922614999999999,-5.8371596,2.242007,0.27981117,-0.4346568,-0.99394757
10.177013,-5.716147,1.6258161,0.5481031999999999,-0.9004328000000001,-1.0301456
10.729337,-6.554941,0.8047965,0.88613856,-1.5386997,-1.1504511999999998
10.559330000000001,-7.729058,0.13321339,1.0362543,-2.0129929,-1.4948571000000002
9.919483999999999,-8.482685,-0.011377247,0.88455033,-2.172167,-1.8743963
9.673829,-8.33345,0.2853314,0.57684875,-2.1487446,-2.1948738
10.385425,-7.892026400000001,0.8152831,0.25160667,-1.9049397000000001,-2.348707
10.749725999999999,-8.049335000000001,1.2074341999999998,0.08765043,-1.3624913,-2.263535
10.0567,-8.169591,1.5760072,0.14407693,-0.99731606,-2.1762335
9.501332000000001,-8.421059,1.6048334,0.37723547,-0.7173129,-2.1560051
9.320732000000001,-8.904132,1.6320124,0.6034649999999999,-0.55070376,-2.1634578999999996
9.536833,-9.229589,1.8388044,0.77009165,-0.49373618,-2.1123545
10.203801,-9.475168,1.8782417000000002,0.83288854,-0.5155702999999999,-1.9611741000000003
10.920825,-10.006671,1.2384727,0.77860886,-0.60020125,-1.7445263999999998
10.645942999999999,-10.509751,0.59127206,0.6678851,-0.7769333,-1.519344
9.884203,-10.669243,0.56088483,0.5438446,-0.95101243,-1.2915088
8.687169,-10.303946,0.95802546,0.38679987,-1.0468309999999998,-1.103083
7.121055,-9.370542,1.906838,0.22870794,-1.0462898999999999,-0.99555326
6.093588,-7.9066978,2.748084,0.07433357,-0.9424952,-0.940715
5.5648913,-7.142651,3.0564763999999998,-0.06085963,-0.735953,-0.9045169
4.9982885999999995,-6.894659,2.6916766,-0.18809414,-0.45488515,-0.8465021
4.481457,-7.0835524,2.0876672,-0.36482617,-0.129102,-0.746425
3.9027402,-7.1909084000000005,1.4704611,-0.5729566999999999,0.17910568,-0.58512163
3.6175718,-7.3487053,0.9445030000000001,-0.7353246999999999,0.4559149,-0.37484437
3.642414,-7.364679300000001,0.7309880999999999,-0.77045816,0.6784269,-0.13370967
3.8436224,-7.564528500000001,0.68933856,-0.69434434,0.94191927,0.22877775
4.164369000000001,-7.400401,0.76715964,-0.60650194,1.0798002,0.7153406999999999
4.574831,-7.236896000000001,1.0298036,-0.5436875,1.0483844,1.2449957
4.9772773,-7.549052199999999,1.2202193000000001,-0.42605233,0.87964594,1.5734317
5.431083999999999,-8.262716000000001,1.4070628,-0.19819959,0.63051766,1.6889551
5.5649962,-8.972797,1.3188125,0.071663216,0.50488883,1.7448404999999998
5.4008017,-9.216432000000001,1.0305123,0.27714083,0.37500143,1.8646224999999998
5.1056066,-9.370407,0.92386496,0.35807174,0.29141763,2.0573243999999997
4.96726,-9.439561999999999,1.0338163,0.33037338,0.28557077,2.2782307
5.170815,-10.099221,1.2684958999999998,0.23349014,0.4825312,2.460286
4.8030944,-10.429852,1.2016209999999998,0.1781283,0.7529524999999999,2.5380054
4.428401999999999,-10.154451,0.83759713,0.22123794,1.0776709999999998,2.5071306
4.46713,-9.035123,0.5424208,0.31014502,1.3198703999999999,2.3783078
5.477847,-7.8899,0.6226744000000001,0.42140976,1.4423052,2.1621837999999998
6.689955,-7.7348228,0.72538567,0.43525020000000003,1.4604043,1.9295661
7.5418887,-8.461981,0.47377420000000003,0.27874655,1.4258118,1.7586985000000002
7.8887606,-9.449492999999999,-0.12572432,-0.025202554,1.3055062,1.6697913
7.794878999999999,-9.624231,-0.5266286,-0.33341023,1.0537076,1.6484984
7.4812098,-8.855655,-0.63154256,-0.45690975,0.5820673000000001,1.5920718999999999
7.095801,-7.7542925,-0.31096852,-0.38507199999999997,0.16685347,1.4568437
6.931760000000001,-6.636947,0.32363862,-0.21898647,-0.24675465,1.2077155000000002
7.0375547,-5.7523665,0.7808162,-0.0864287,-0.4538205,0.87982047
6.93583,-5.1752199999999995,0.92477477,-0.15508996,-0.36651915,0.6083345
7.185104400000001,-5.033627,0.7103022,-0.40900046,-0.15624188,0.4528955
7.037382000000001,-5.3379015999999995,0.08846097,-0.68741536,-0.0018849556,0.34430109999999997
6.9793754,-5.7853010000000005,-0.7909389,-0.84765404,-0.07960447,0.14306463
6.998060000000001,-6.34134,-1.3482611,-0.8859815000000001,-0.24301964,-0.17151349999999999
7.332252499999999,-6.5961595,-1.3039972,-0.77471673,-0.31382766,-0.47865656
7.9770107,-6.3919440000000005,-0.6733932,-0.54581684,-0.32925636,-0.83692026
8.660775,-6.013899299999999,0.13409445,-0.23389158,-0.2829528,-1.1722853000000002
9.1911,-5.6459107,0.36350685,0.07483972,-0.2435607,-1.5465188
10.023881,-6.549645,0.27365726,0.09880309,-0.3132866,-1.9995189999999998
10.197853,-7.671759599999999,-0.21902157,-0.04171337,-0.32712707,-2.4610364
10.209336,-8.492789,-0.4923915,-0.13112658,-0.31700414,-2.7458217
10.451974,-8.759158,-0.1430296,-0.16095427,-0.28401740000000003,-2.7735202
11.390845,-8.950608,0.41289443,-0.088558,-0.25792477,-2.6681197
11.913701,-9.28096,1.0783388999999999,0.04452335,-0.24408429999999998,-2.5589842999999997
12.181985000000001,-9.324438,1.8230505000000001,0.15257668,-0.14507176,-2.5041634999999998
12.194617,-9.4199,2.259092,0.27288222,0.009285152,-2.4562542
11.5890665,-8.846478999999999,2.4580598,0.41552799999999995,0.14927801,-2.319979
10.929779,-8.100389,1.9455282999999999,0.6092944,0.19079939999999998,-2.0804324
10.757962,-8.303005,0.9092315999999999,0.7812443,0.19346975,-1.8291749
10.296322,-9.497501,0.7135391,0.9212546,0.11307988,-1.6109214
9.284886,-10.373252,1.0453851,1.0096030999999999,-0.006143559,-1.4001206
8.029357000000001,-10.736855499999999,1.4441728999999999,1.0122735999999999,-0.12964305,-1.1648326999999998
7.0552529999999996,-10.079483,1.9921386000000003,0.93561864,-0.23237313,-0.9173101
6.458101,-9.287664,2.1545612999999997,0.7950673,-0.38035959999999996,-0.68043405
5.9534316,-8.647484,2.2829576,0.57416093,-0.60074234,-0.44725809
5.159217400000001,-8.274524000000001,2.3304298,0.28616420000000004,-0.7742804,-0.29874802
4.1819234,-7.947236500000001,2.4237845,-0.0017976891000000001,-0.82112503,-0.1624727
3.536801,-7.6555943,2.3587675,-0.28553587,-0.67633253,-0.01288053
3.2684302000000005,-7.4370704,2.0060728,-0.67626274,-0.28241172,0.31607914
3.0730345000000003,-7.052217,1.6853169,-1.0866768,0.20144589999999998,0.5966059
2.8689432,-6.9223365999999995,1.2030288999999998,-1.3693503999999999,0.5863259,0.7413984
2.8415150000000002,-7.108059,0.75853103,-1.4667573,0.77848667,0.8856673
3.0089178,-7.0941350000000005,0.24750300000000003,-1.3379345,0.79712677,1.1555476
3.3469217,-7.109812,-0.22892399,-1.0350325999999999,0.5416105999999999,1.4036111999999998
3.9380019999999996,-7.2228084,-0.6066045,-0.52773523,0.13756685,1.4568437
4.9444766,-7.7322945999999995,-0.78475225,0.02693043,-0.032218777000000004,1.0331128
5.7940062999999995,-8.326373,-0.53157026,0.32555628,0.038030725,0.5556081
5.941383999999999,-8.583692999999998,-0.42370665,0.37398916,0.21315706,0.31925562
5.786814700000001,-8.557883,-0.31293175,0.15521213,0.42343432,0.33576643
6.7580366,-8.75528,-0.06055415,-0.118909284,0.55758035,0.28520426
7.764310000000001,-9.270388,0.42045057,-0.18493510000000002,0.59590775,-0.093811445
7.943347999999999,-9.034999000000001,1.0102860999999999,-0.21846285,0.5735501000000001,-0.5675636
7.7489867,-8.015874,1.7361218,-0.28660053,0.62145936,-0.83372635
8.47353,-6.509471,2.3687944,-0.36962584,0.6454053000000001,-0.8443728000000001
10.912839,-5.5730505,2.8323598,-0.39892990000000006,0.50487137,-0.7400545000000001
13.061769,-5.6689906,2.2634304,-0.41755256,0.27757716,-0.66657615
13.163704000000001,-6.1574655,1.0898596999999999,-0.45320964,0.09765117,-0.5936563
11.56137,-6.131685,-0.14208151,-0.43085197,0.009808751,-0.51700145
10.197968,-5.2923160000000005,-1.002979,-0.17959438,-0.040212385,-0.4557753
10.33778,-3.5711339,-0.7436965,0.17011724,-0.24249604,-0.37966147
10.420667,-1.9221609,-0.17557159,0.4911182,-0.4745899,-0.44619343
9.266067999999999,-1.4986936000000002,-0.13069469,0.68753755,-0.45862016,-0.79433423
7.7061020000000005,-2.1054132,-0.12473791,0.7173478,-0.15252432,-1.0376157
6.6942167,-2.7606294,-0.06912539,0.6188588,0.18121754,-0.9742777
6.567985,-2.9350326,0.21261469,0.5501976,0.2536138,-0.75016
6.68622,-3.0753903,0.48237416,0.58320177,0.07262315,-0.60376173
6.876042,-3.1309454,0.8774558000000001,0.5565855,-0.09344493,-0.5409473000000001
7.254929,-3.3371341,1.6132323,0.45116759999999995,-0.19298105,-0.47015680000000004
8.094633,-3.2951016,2.4164488,0.5123938,-0.556027,-0.35676274
9.347088000000001,-2.9944856,2.4575906,0.7498109000000001,-0.94675386,-0.17578956
11.224602,-2.2734572999999996,2.2033837000000003,1.0553831,-1.2107873,-0.08314749
12.24592,-2.3396618,1.6450368000000002,1.3124876,-1.336416,-0.18854792
11.258455999999999,-3.1529145,0.9095285,1.4498276,-1.3774138999999999,-0.36688566
9.966018,-4.0218663,0.39955395,1.5988786,-1.342804,-0.4249004
9.844622,-4.218717,0.3609211,1.6036783000000001,-1.1974878,-0.24977407
10.147279,-3.930015,0.43104252,1.4807024,-0.9499478000000001,0.051504667999999997
10.254826,-4.221849,0.16411774,1.311964,-0.669421,0.37250564
9.743798,-4.4487333,0.17137696,1.1575897,-0.446909,0.61896354
9.258722,-4.6275992,1.0656113999999999,1.029308,-0.23663174,0.75258595
8.966285000000001,-4.926137000000001,1.7186921000000002,0.85842276,-0.013055063,0.8457341999999999
9.648288,-4.995856,2.0584772,0.63536966,0.22540927,0.91226614
9.9315605,-5.0995445,1.6305568000000001,0.46291366,0.44792129999999997,1.0432357
9.633319,-5.8395824,1.2124141000000002,0.39210567,0.53148764,1.2023921999999998
8.554731,-6.605995,0.918004,0.38941786,0.47666687,1.3881651000000002
7.2265820000000005,-6.6432776,0.34392226,0.40914008,0.33506832,1.5691732
6.349834400000001,-6.324648000000001,-0.13877751,0.35430184,0.18654078,1.7160950000000001
5.832888,-5.528106,-0.26528713,0.19727457,-0.005078908,1.7757154999999998
5.717239,-4.7854443,-0.28277440000000004,-0.04918338,-0.26378906,1.6894788
5.534829,-4.3231044,-0.27474899999999997,-0.36644933,-0.40804052,1.4999708999999999
5.238695,-4.088951600000001,-0.40834546,-0.69968504,-0.401129,1.3221742
4.8560057,-4.169186,-0.35683182,-1.0776361,-0.20203932,1.2433726
4.5421166,-4.5726379999999995,-0.037052665,-1.5184015,0.10988593,1.3168508999999997
4.568539,-5.1509047,0.15380351,-1.9144516,0.44792129999999997,1.5036885
4.835196,-5.872479,0.25199452,-2.080537,0.83013093,1.8156312
5.194077,-6.2886195,0.09636183,-1.920316,1.0164448,2.224457
5.4768705,-6.4787669999999995,-0.22185631,-1.4263179,0.9797056999999999,2.541182
5.982191,-6.592712,-0.39635533,-0.699144,0.89559823,2.5619514
6.9375350000000005,-7.1840034,-0.51864153,0.10252064,1.0073866,2.1345026000000002
7.624249000000001,-8.129358,-0.40781873,0.856817,1.1463323,1.5255051000000002
8.039758,-9.0798855,-0.1213956,1.5126419,1.2192521,1.1363839
7.989748,-10.108991,0.055114526,1.8378841000000001,1.2783489,0.9016196
7.6608996,-10.894719,0.32768962,1.6334711000000002,1.6403302,0.6849719
7.7840667,-12.074553,1.0116556,1.10701,1.9607902,0.5391148
7.3995679999999995,-12.390445,2.2836852000000003,0.6364343000000001,2.0699081,0.52368605
7.154296,-11.550558,3.6153882000000004,0.36760125,1.8676244999999998,0.45127234
7.745491499999999,-10.53852,4.747089,0.25635397,1.4029131000000001,0.31553808
9.029819,-9.336917,5.372579,0.13871877,0.92169094,0.12070697
10.344369,-8.522774,5.1673384,-0.18491763,0.5629036000000001,-0.11721631
10.507002,-9.002236,4.3757195,-0.64432317,0.35955527,-0.25829127
9.923841,-9.830468,3.2236679,-0.9898110999999999,0.15727162,-0.20027652
9.111738,-9.386525,1.1731205,-1.0648601999999998,-0.07853982,-0.055466562999999997
7.81025,-7.911917699999999,-0.9447616,-0.94616044,-0.2414314,0.13932963
6.0675297,-6.090696,-1.8212118000000002,-0.6538876,-0.28188813,0.3027797
4.993529,-4.751485,-1.5895966000000001,-0.25944320000000004,-0.36812484,0.2804046
4.757978,-3.9825150000000002,-1.2072235,0.16533504,-0.5746671,0.15318754
4.790702,-3.622025,-1.0596354,0.69766045,-1.0255379999999998,0.097825706
5.147409,-3.6173900000000003,-1.43994,1.0335491,-1.3715495,0.13721779
5.5272635999999995,-4.4001117,-2.0407696,1.0212969,-1.4487455,0.12070697
5.467313,-5.6858845,-1.7989745,0.701378,-1.2161104999999999,-0.092729345
5.4314957,-6.757682300000001,-0.6622840999999999,0.21537364,-0.60660666,-0.44673450000000003
5.6340832999999995,-7.1430144,0.6232681999999999,-0.14926055,-0.27656487,-0.9039933000000001
5.555055599999999,-7.032661,1.8142015999999999,-0.4452335,-0.19139281,-1.3591403
5.995378,-6.7490053,2.6914082,-0.66296333,-0.21587977,-1.7440202
7.187460400000001,-7.159113400000001,2.9230902000000003,-0.9440311,-0.42135740000000005,-2.1267536
7.816704799999999,-8.019513,2.9235787,-1.2208229,-0.5996776999999999,-2.4951227000000005
7.969272999999999,-8.74509,2.7233085999999997,-1.2974952,-0.6310935999999999,-2.7831194
8.022758999999999,-9.191206,1.7479875,-1.1644313,-0.53154004,-3.0120194
9.300938,-9.551658999999999,0.5447958,-0.9392488999999999,-0.18819885,-3.1472301
11.02186,-9.919638,-0.44575247,-0.5623451,0.0689056,-3.1701113999999997
11.700751,-9.567163,-0.7607432,-0.03747222,0.3185575,-3.0428943999999998
11.6965275,-9.346667,-0.26597667,0.3867824,0.5948431,-2.8517807
11.662559,-10.066355,-0.07761044,0.79824376,0.445792,-2.4748943
11.209298,-10.473310000000001,0.22573490000000002,1.1315144,0.14927801,-1.938834
10.889385,-11.071342999999999,0.24364354,1.2219748,0.0800757,-1.5273551
10.246532,-11.512413,1.0134847,1.1266973,0.14395475,-1.1547273
9.516166,-11.41676,2.1038232000000003,0.95370024,0.15885986,-0.71022683
8.523568,-11.014678,3.0033154,0.76152205,0.049200833,-0.25829127
6.8861265,-10.240394,3.3866462999999998,0.63057,-0.19139281,0.085573494
5.5145073,-9.387072,3.9905884,0.5438097,-0.4783075,0.29956833
4.3136334000000005,-8.803766,3.9845165999999996,0.40542254,-0.76417494,0.41083306
3.138808,-8.278115,3.3211696,0.17863445,-0.8397652,0.53059757
1.5241201000000002,-7.744764,2.471132,-0.15831882,-0.70401347,0.69294804
1.2775843,-7.305849,1.6991648999999998,-0.5655216,-0.45116759999999995,0.90802497
1.3754879999999998,-6.626164,0.8497309000000001,-0.97809994,-0.12164945,1.2231442
1.4300567,-6.3786325,0.27818707,-1.2101763,0.16311847,1.5010355
1.2848531,-6.2077627,0.0060621183,-1.2458508999999998,0.445792,1.7773037
1.7095367,-6.1841655,-0.05373546,-1.140974,0.59803706,2.2111576
2.5104162999999997,-6.2259199999999995,0.050699614000000004,-0.82957244,0.5565157,2.7993683999999996
3.5606856,-6.5234237,0.084381245,-0.3068289,0.23125613,3.356181
4.535853400000001,-7.3261614,-0.11360966,0.408058,-0.312763,3.5749752999999997
5.2631927,-8.496936,-0.26949134,1.2193393999999997,-0.77269214,3.3966377
5.676949,-9.295803999999999,-0.33382833,2.0849006,-0.9760405000000001,2.9697127
5.4040870000000005,-9.4691925,-0.2757833,2.8477142000000004,-0.94623023,2.4123766
5.459134,-9.783033999999999,0.41299020000000003,3.0670319999999998,-0.47671923,1.9247665
6.4026510000000005,-10.929397,1.1287128999999998,2.4979675,0.32281609999999994,1.6804203999999998
6.5493293,-11.67475,1.8681955000000001,1.2640547,1.6222311000000003,1.3445319
6.213078,-11.954383,2.347007,0.46876052,1.9874063999999998,0.8744798
5.8496,-11.646364,3.1416812000000003,0.15788248,1.7638296999999998,0.35440657
6.68487,-11.138095,3.756962,0.07269296,1.0946878999999998,-0.13533282
8.773964,-11.079906,4.006543,-0.22059216,0.60920715,-0.5329712
10.785323,-11.156932000000001,3.9309629999999998,-0.7060555000000001,0.46495572,-0.74748963
11.594669,-10.731110000000001,3.9072603999999997,-1.2032648000000001,0.57887334,-0.68308693
11.523647,-10.567404,2.9612827,-1.4364233999999998,0.66669834,-0.49038514
9.685848,-8.861707000000001,0.5956008,-1.444417,0.65020496,-0.23965116
7.9915294999999995,-6.707787,-1.7093929,-1.2032648000000001,0.59271383,0.024888393999999998
7.8710437,-4.762814,-3.8750536,-0.8391543,0.5384166,0.23410101
7.4212976,-3.4807096,-1.9866225,-0.50272465,0.43353978,0.20481439
7.125661999999999,-3.2761106,-1.1278031000000002,-0.34196237,0.5410695,-0.00010471976000000001
6.645844500000001,-3.47278,-1.0143563,-0.543705,0.69544387,-0.21303488
6.100129,-4.5811806,-1.7103508,-0.8290314000000001,0.8290663,-0.19334757
5.33611,-5.5891967000000005,-1.6550734,-1.0414379999999999,0.75612897,-0.15554374
4.603638,-6.5320339999999995,-0.7412544,-1.1377976,0.4761258,-0.3131295
4.482463,-7.063057400000001,0.33270785,-1.0504962,0.21315706,-0.48080329999999993
4.7770934,-7.3892913,1.3302758999999997,-0.74385935,-0.080128066,-0.57021654
5.019444,-7.366086999999999,2.1334252,-0.30469957,-0.38142425,-0.6399599
5.9065056,-7.170787299999999,2.3944123,0.1749169,-0.7029488,-0.77304125
7.2806524999999995,-7.141310000000001,2.1638794,0.54115677,-1.071318,-1.0541091
8.23298,-7.826214299999999,0.86627966,0.6880786,-1.3300281999999999,-1.3607285
8.44773,-8.616368,-0.2697403,0.6870139000000001,-1.4274524,-1.6029278
8.082298,-9.119611,-0.43787077,0.64175755,-1.5296589,-1.7221862000000001
8.498746,-9.00827,0.017937358,0.7913496999999999,-1.6621993000000002,-1.7243155
9.403668,-9.359126,0.70173097,0.9414655000000001,-1.7681407,-1.7195158
9.146856,-9.439074,1.8366686999999997,0.96914643,-1.5924733,-1.7094103999999999
8.921446000000001,-9.452682000000001,2.6654167,0.80730206,-1.2049404,-1.7046281000000003
8.7799015,-9.321000999999999,3.1074919999999997,0.6513569,-0.83815944,-1.7354856
9.141857,-9.168854,3.1249119999999997,0.5235813,-0.3777067,-1.6998285
9.479104,-9.397367,2.512437,0.3958232,0.0018325957,-1.5598181
9.492894,-10.071746000000001,1.7977294999999998,0.2771234,0.20996311,-1.3261186000000003
8.993091,-10.563821,1.4454083,0.17172295,0.22327997,-1.0626262
8.072645,-10.464414,1.7679552,0.10091494,0.10456268,-0.76986474
6.9343357,-9.519863,2.5506005000000003,0.08655088,-0.16584119,-0.49890235
6.0410786,-8.460285,2.512973,0.098262034,-0.52995175,-0.21144664
5.229971,-7.480577499999999,2.1424944,0.08705702400000001,-0.8850041,-0.038449604
4.691218,-6.658275,1.6193423,0.002443461,-0.9813636999999998,0.013718287
4.454623000000001,-6.335221,1.5788419,-0.14819591,-0.8227308000000001,-0.0022340214000000002
3.880474,-6.458263400000001,1.5400943,-0.39892990000000006,-0.5054648,-0.0347146
3.1423322999999996,-6.519191,1.2150477,-0.65069366,-0.042341687,0.037140608
2.7594995,-6.4104652,0.9712415000000001,-0.85512406,0.4564385,0.22610740000000001
2.7369845,-6.429111499999999,0.75122386,-0.9557423,0.8295899,0.40283945
2.8428080000000002,-6.642512,0.6655306,-0.98342323,1.067548,0.65196776
3.063678,-6.856562599999999,0.7722641,-0.9264556999999999,1.0856471,1.0187312
3.5062892,-6.995272999999999,0.8446169,-0.79070395,1.0164448,1.3903118
4.7200155,-7.497155,0.93670744,-0.5948257,0.7944564000000001,1.5563798999999998
5.7405105,-8.144701,0.8528242,-0.28340656,0.65020496,1.5239167
6.2846836999999995,-8.716475,0.79573685,0.07749262,0.5389401999999999,1.4467383999999999
6.418941,-9.277571,0.7482934,0.3654894,0.46654397,1.5207229
5.9387026,-9.682879,1.0166738000000002,0.46874309999999997,0.47931978,1.687873
6.00483,-10.229476,1.2107573999999999,0.35803685,0.64168775,1.7751743999999998
6.2158647,-11.056728999999999,1.3418638999999999,0.10196213400000001,0.9429839,1.7442995
5.853718,-11.061834,1.3247788,-0.024678955,1.2677025,1.5127466999999999
5.112961299999999,-10.519108000000001,1.4901702,-0.058765236,1.3842729,1.1890929
5.077814599999999,-9.340058,1.5898743999999998,-0.12849113,1.2783489,0.92664766
5.9707847,-8.5369,1.8457859,-0.34622097,1.0973583,0.75736815
7.004313499999999,-8.855768,1.9396769,-0.6571165,0.86259407,0.7142411
7.459375,-9.568887,1.6671785,-0.8966453999999999,0.6134658000000001,0.7701439999999999
7.155464,-10.134752,0.9928466999999999,-0.94828975,0.36327282,0.84306383
6.721118,-9.47989,0.31123662,-0.8508829,0.13491395,0.85583967
6.2413197,-8.052897,-0.1820934,-0.67306876,0.042289328,0.8419992000000001
6.0844426,-6.431458,-0.30437008,-0.4015828,-0.04499459,0.77440256
6.553907000000001,-5.132747,0.16905937,-0.07632325,-0.08970992,0.59927624
6.323709,-4.4483885999999995,-0.072218694,0.114214346,-0.02263692,0.33629003
5.925639599999999,-4.516805000000001,-0.6445957,0.09772099,0.050265484000000006,0.15690510000000002
5.6483045,-5.0039487000000005,-1.2718191,-0.09389871,0.06997025,0.0898321
5.362112000000001,-5.631201,-1.3262154,-0.36753142,0.09178686,0.031799898
5.514143499999999,-6.284521,-0.59333104,-0.57035613,0.04441863,-0.20294689
6.248062,-6.6839504000000005,0.44959277,-0.6320884,0.10297442,-0.5579818
6.888223599999999,-6.711914500000001,1.0978947000000001,-0.57033867,0.2924823,-0.729408
7.084778,-6.4686923,1.6884964,-0.42713442,0.28715903,-0.87632984
7.5278296000000005,-5.995359,2.016167,-0.11040953,0.015132004,-1.0386803
8.602673,-6.3876343,1.8951542000000001,0.26804766,-0.48097783,-1.2500223
9.205897,-7.3076973,1.0107554,0.5118527,-1.0851585,-1.4964802
9.227903999999999,-8.314047,0.10960655,0.5847899999999999,-1.4700383999999997,-1.7690308000000001
9.193208,-8.900856,-0.49063897,0.559762,-1.6254773999999999,-2.0453165
9.611858,-8.74056,-0.27778485,0.45809656,-1.4838790000000002,-2.3098732999999996
10.657846000000001,-8.452624,0.19118179999999999,0.31489229999999996,-1.1069924999999998,-2.4924698
10.675027,-8.502098,0.9378566999999999,0.22387338,-0.6231,-2.5760362
9.914303,-8.666578999999999,1.451662,0.24410175,-0.16636479,-2.5414437999999997
9.750012,-8.861276,1.6892241999999997,0.31860986,0.22221532,-2.4083624
9.76184,-8.804878,1.9689436000000002,0.43093926,0.45005059999999997,-2.2582467
9.674337,-8.615143,1.723107,0.5948955,0.5426751999999999,-2.0208293999999998
9.855961,-8.874395,1.2087941999999998,0.8179311,0.36381388,-1.6902641
10.058099,-9.50656,0.92954403,1.0867467,-0.03488913,-1.2989962
10.127953,-9.6387205,0.8749849000000001,1.2491146,-0.42455134,-0.9583079
9.529938000000001,-9.618255,0.8806065999999999,1.2837071000000002,-0.7125307,-0.64317125
8.374744999999999,-9.259689999999999,1.0928094,1.1820416,-0.8360302,-0.3562566
7.2178383,-8.769559,1.3784665,0.979758,-0.8264483,-0.10445795
5.9896894,-8.275741,1.6564907,0.7519226999999999,-0.7487288000000001,0.053092916
5.0920553,-7.8518705,1.6521237000000002,0.45594979999999996,-0.6135181,0.13613568
4.335229,-7.4551134,1.6184325000000002,0.107808985,-0.4346568,0.21544345
3.4853735,-7.337376,1.5355165000000002,-0.2892883,-0.18394025,0.37727037
2.847989,-7.144518,1.4269059,-0.6443581,0.063582346,0.5891359
2.4389062000000004,-6.8653827000000005,1.2793847,-0.9254085,0.21528636,0.7919606
2.5121496,-6.7345923999999995,0.782971,-1.0563605,0.4154407,1.0011557
2.801781,-6.802425,0.30768365,-1.0712656,0.50008917,1.3189628
2.9948015,-6.8814144,0.020446481000000002,-1.0510547,0.49528953,1.6074831
3.4610483999999997,-7.007072,-0.15520173,-0.9828995999999999,0.5293584,1.8220015999999999
4.218564499999999,-7.353024499999999,-0.2380411,-0.83226025,0.55545104,1.8704343999999997
4.9239917,-7.9986353,-0.4622054,-0.5682268,0.6326295,1.7868681
5.2754703,-8.641019,-0.59797585,-0.17537068,0.685862,1.7437584
5.199123999999999,-9.08002,-0.53304505,0.24726079999999998,0.6640454,1.8369067
5.192564,-9.305688,-0.26224169999999997,0.57094955,0.5969724000000001,1.9529536
5.909426,-10.119888000000001,0.34864366,0.7662868,0.5863259,1.9502833
5.884172,-10.606065,0.9445604,0.7870562,0.81203187,1.8257365
5.7674403,-10.348151,1.3385311000000002,0.63107616,1.052102,1.5558388
5.9172597,-10.204336999999999,1.6314473999999999,0.36756635,1.1894419,1.302452
6.3059444000000004,-9.658439999999999,2.035531,0.06789331,1.2096703000000002,1.1326488000000001
6.965403599999999,-9.394617,2.4224918,-0.20305161,1.0659424,1.0293777
7.694447,-9.863613,2.7195642,-0.4175875,0.79658574,1.0038086
7.776444000000001,-10.38236,2.8428174999999998,-0.5847551,0.5384166,1.0687524
7.328651400000001,-10.238679,2.4171476000000003,-0.6102893,0.22273892,1.07994
7.133648399999999,-9.173422,1.7436875,-0.4362276,-0.06948156,0.9963561
7.0044856,-7.4631289999999995,1.1185232,-0.17006488,-0.32606240000000003,0.8792445
7.163355999999999,-6.0871525,0.33072543,0.09555677,-0.2611187,0.64715064
6.9536424,-5.011667299999999,-0.40028179999999997,0.15676548,-0.008796459,0.32882002
6.498304,-4.6885557,-0.9466578000000001,-0.017296214,0.35636133,0.012618731000000001
6.1890019999999994,-4.7560150000000005,-1.1746528,-0.28237683,0.47347292,-0.22849850000000002
6.2485504,-5.2394233,-1.2130463,-0.5315226,0.37552503,-0.30782372
6.3685765,-5.943749400000001,-0.9715096,-0.6629808,0.21156882,-0.28014278
6.6942167,-6.6523943,-0.6096212,-0.67790335,-0.018378316999999998,-0.30143583
7.4580054,-6.44409,0.21535365,-0.5937958999999999,-0.17116444,-0.40257764
8.146492,-6.248407,0.9597684000000001,-0.3771482,-0.22385593,-0.46273914
8.522994,-5.952732599999999,1.3858309,-0.10299188,-0.3042458,-0.6091199
9.014198,-5.616586,1.1843445,0.20998056,-0.36706018,-0.7677529000000001
9.406578999999999,-5.763169,0.39444953,0.5592035,-0.5224992,-0.9226509
9.558639999999999,-6.86884,-0.49396214,0.7125132,-0.7402116,-1.1621972
9.270761,-7.9365587,-0.7110109,0.703455,-0.9116204,-1.5295018
8.794947,-8.7892,-0.33320585,0.5932723000000001,-0.9872105999999999,-1.9617676
8.480769,-9.00285,0.43315896,0.53895766,-0.7519402,-2.1220062
9.065002999999999,-9.212534,1.1685716,0.54215163,-0.5304754,-2.1092129
9.164707,-9.379266000000001,1.8811721000000001,0.6028366999999999,-0.34896109999999997,-2.0027478
9.131312,-9.070816,2.4002352000000005,0.71888363,-0.29679325,-1.8563671000000002
9.52197,-9.200381,2.4679142999999995,0.80192643,-0.26644197,-1.6939992
9.647656,-9.395327,2.6143436,0.83440703,-0.2499486,-1.5140731
9.380636,-9.133133,2.2403312,0.8280190999999999,-0.31169835,-1.3586341
9.6310215,-8.959342,1.3416531999999999,0.788086,-0.40751693,-1.210124
9.923200999999999,-9.303225999999999,1.22088,0.7242244000000001,-0.51824063,-1.0339155999999998
9.462095,-10.30972,1.3401976,0.62999403,-0.6662271,-0.8476017
7.981464,-10.388010000000001,1.920868,0.51553535,-0.76417494,-0.64212406
6.5507565,-9.904056,2.3115442,0.36329028,-0.8174075,-0.44090506
5.240381,-8.90553,2.4775581,0.21210986,-0.85892886,-0.2865307
4.3604064000000005,-7.968334,2.4228554,0.048694685,-0.9031031999999999,-0.21094050000000003
3.7142687000000008,-7.30243,2.0032766,-0.18177605,-0.8685107,-0.16144295
3.3657305,-6.8305134999999995,1.5994129,-0.46762607,-0.66994464,-0.0959582
3.1774982999999994,-6.501052400000001,1.206582,-0.777998,-0.5139819999999999,-0.065083325
2.9238470000000003,-6.3329315,0.9080728000000001,-1.0436370000000001,-0.32501522,-0.023038346
2.6032922000000003,-6.1579156,0.72997296,-1.2448386,-0.060440753,0.07703883
2.6131852,-6.2882557,0.6026971999999999,-1.2964829,0.26693067,0.22074924
2.6941187,-6.4786525,0.47680047,-1.208658,0.6102718,0.572084
2.8943985,-6.4876065,0.44337740000000003,-1.0830117,0.66137505,1.0458536
3.437135,-6.678041499999999,0.5954475,-0.8935213,0.7172605,1.4243283000000002
4.3333135,-7.443103999999999,0.65943974,-0.7162482,0.77475166,1.5707265
5.1746645,-8.726023,0.5059523,-0.5139471,0.78648025,1.567009
5.697491,-9.740781,0.39604884,-0.26803023,0.75667006,1.4962008999999998
6.070814599999999,-9.506638,0.53233635,0.019408062,0.7018318,1.4168931999999999
5.9188019999999995,-9.372342,0.9223614,0.20998056,0.72738343,1.4456388
6.039153,-9.924234,1.253738,0.23499113,0.80456185,1.5180175
6.1867895,-11.066757,1.7085119999999998,0.15461873,0.96427697,1.4525503
5.1163324999999995,-10.720747,1.9518107,0.006632251,1.1761424999999999,1.2470727
5.1012010000000005,-10.250162,1.9426553,-0.17381734,1.3624389,0.9697224
6.145226,-9.993742,2.106093,-0.32447416,1.4146068,0.8169536999999999
6.839832,-9.182596,1.9519639,-0.41547564,1.2767433000000001,0.76532686
7.4622765,-8.658649,1.9048171999999999,-0.46287876,1.0574251000000001,0.8318588
7.970623,-8.6998005,1.8601511999999998,-0.4953419,0.7731634000000001,0.94738215
8.097104,-9.003739999999999,1.5790431,-0.52461106,0.45111525,1.0400068
7.508437,-8.94285,1.0224007,-0.46924922,0.14927801,1.0442654
7.2381887,-8.143005,0.44651863,-0.27443558,-0.025848325,1.0565002000000001
7.329973,-6.7163773,0.0757717,-0.00827286,-0.05778785,1.0666056000000002
7.1256995,-5.299968,-0.25948358,0.19240509,-0.040212385,0.9580112
6.619623,-4.548667,-0.44406694,0.23127358,-0.0034732053,0.75839794
5.831892,-4.5539346,-0.42009622,0.18069394,0.010349803000000001,0.54281485
5.389463,-4.87741,-0.3183522,0.017819813,-0.04818854,0.3325376
5.299355,-5.4884677,-0.22559126,-0.24300219,-0.06789331,0.12653637
5.583183,-5.876932,-0.16468278,-0.43837434,-0.03541273,-0.031555552
6.289137,-6.181963,0.0038019924,-0.56133276,0.0082205,-0.22265165
7.224628,-6.4834504,0.6175604,-0.55176836,0.10084512,-0.33869859999999996
7.610190400000001,-6.6101613,1.1907514,-0.36491343,0.048136182,-0.44409904
7.9479833,-6.270951,1.3408488,-0.006143559,-0.18554595,-0.54632294
8.711742999999998,-6.080679,0.7795138,0.4532271,-0.6454751,-0.6863333
9.402144,-6.5411790000000005,0.0437277,0.7071725,-1.1048632,-0.91999793
9.77318,-7.1342807,-0.35320222,0.66565114,-1.3476036,-1.277197
10.049499,-7.777507000000001,-0.7962157,0.4564385,-1.3145993999999999,-1.6168207
9.886712,-8.031848,-0.59768856,0.28982937,-1.1282855,-1.8473089
9.706008,-8.022558,0.25415888,0.21050416,-0.9153554,-1.9846662
9.802494,-8.541775,0.8888425999999999,0.22329742,-0.6923023,-2.0927196
9.433106,-8.668503999999999,1.6884484,0.33348006,-0.5203699,-2.1683097
9.495232000000001,-8.882239,2.2411356,0.46335,-0.3319267,-2.1922731
9.491765,-9.088351,2.6091244,0.5953841999999999,-0.12644911,-2.1432817
9.628608,-8.959639,2.3852282000000002,0.7119546999999999,-0.03436553,-1.9708258
10.117954,-8.936291,1.5669955,0.84077746,-0.109938286,-1.6865466
10.506705,-9.349989,0.74083304,0.92329663,-0.2717652,-1.4246424
10.289024000000001,-10.047804,0.7445776,0.9057037,-0.43680355,-1.2255702
9.398572999999999,-10.108176,1.2419394,0.7907389,-0.56934386,-1.0541614
8.367927,-9.603574,1.7023828,0.6060307,-0.67633253,-0.8795412
7.298992,-8.721282,2.1150951,0.44046873,-0.8025024000000001,-0.7342251000000001
6.363165400000001,-7.990102,2.3374877,0.27864182,-0.82486004,-0.6330833
5.39021,-7.425281,2.2922277,0.077422805,-0.72425926,-0.5606869999999999
4.4078403,-7.142678999999999,2.0961235,-0.18394025,-0.5028119000000001,-0.44144613
3.4467597000000003,-7.0572257,1.8275419999999998,-0.51344097,-0.21481512,-0.19764109
2.9354637,-6.951822999999999,1.591876,-0.7295651,-0.016266469,0.10841985
2.953497,-6.8575683000000005,1.1933277,-0.77960366,0.17428859,0.44591418
3.2129037,-6.873657000000001,0.66256183,-0.7024078,0.34784412,0.7993956999999999
3.4099943999999995,-7.201931,0.32080385,-0.5911605,0.36911967,1.2896587
3.448005,-7.225633599999999,0.22271821,-0.45862016,0.21261601,1.7091311000000002
3.6785474000000002,-7.398878,0.44825202,-0.25047220000000003,0.05771804,1.9939165
4.105586499999999,-7.838636,0.5970276999999999,-0.007731808299999999,-0.030630529,2.0721772
4.3792919999999995,-8.470628,0.5552824000000001,0.23977333,-0.0013613568,1.9465482
4.3331413,-9.385693,0.366332,0.37978363,0.18973474,1.7596933000000001
3.9501455,-9.864474000000001,0.5036826,0.40268236,0.40798816,1.690491
3.663215,-10.066996000000001,1.0797945,0.32815679999999997,0.593761,1.7847214
4.0094357,-10.529403,1.7341682,0.2616074,0.73748887,1.8666995
4.116964,-11.154126,1.8354811999999998,0.2940705,0.87430525,1.8107965
4.058181299999999,-11.036954,1.6796761999999998,0.33559190000000005,1.0792418,1.6010603
4.8302059999999996,-10.558161,1.7271771,0.32014576,1.2416098,1.2827297
5.782466400000001,-9.598766,1.9063974999999997,0.19240509,1.3193293,1.051718
6.978053999999999,-8.935668,1.832704,0.020455258,1.3113357,0.9803689
8.329533999999999,-9.270828,1.5458690000000002,-0.120567344,1.1106577,0.9622873
8.93088,-9.800933,0.8119791000000001,-0.23024383,0.8061676,1.0000737
8.499388,-10.027894,0.21484609,-0.26804766,0.4926192,1.0538298000000001
7.8363757,-9.335596,-0.12740983,-0.23237313,0.19664624,1.0171081
7.514278999999999,-7.821215,0.15830462,-0.10353293,0.056129787,0.8499578999999999
7.5448,-6.2776445999999995,0.48440444,0.055065135999999994,0.013526301999999999,0.5699546999999999
7.6272564,-4.9664269999999995,0.27631003,0.05932374,0.10189232,0.17390461
7.368405,-4.2794247,-0.13672808,-0.051923542999999996,0.27490679999999995,-0.13376203
6.6325707,-4.4105697,-0.6662489,-0.2621659,0.33665657,-0.2604555
6.157475,-4.9572806,-0.8345517,-0.48417178,0.2498788,-0.24609143
6.2629347,-5.341368,-0.7550833,-0.59435445,0.15460126,-0.20457004
6.4385639999999995,-5.872335,-0.56039643,-0.5900958000000001,0.013543755,-0.32059953
6.961113,-6.13473,-0.11919294,-0.49373618,-0.0056199604,-0.48722609999999994
7.774308,-6.063766,0.35958034,-0.33456215,0.0044854963,-0.6229604000000001
8.477897,-5.7130823,0.8372523000000001,-0.23980823,-0.118996546,-0.7853283000000001
8.968947,-5.4838424,0.78744334,-0.093968526,-0.36334264,-0.8710415000000001
9.483108,-6.132135,0.3270288,0.088610366,-0.7875973000000001,-0.98494166
9.220778999999999,-7.493612,-0.18104953,0.1311964,-1.1580957,-1.2197059
8.694774,-8.628836999999999,-0.42267236,0.061994094000000007,-1.3215108999999998,-1.53856
8.21803,-9.081044,-0.09166919400000001,0.036966074,-1.3428214,-1.7994169999999998
8.415964,-8.869914,0.76860577,0.16207127,-1.3300456,-2.015
9.219353,-8.928467,1.3059317,0.39521235,-1.2352916999999999,-2.1225297000000003
9.141024,-8.753815,1.8132438999999998,0.61453044,-0.9850986999999999,-2.0480042000000003
9.062791,-8.704253999999999,1.8539740000000002,0.7683812,-0.7200006999999999,-1.9005588
9.137069,-9.237788,1.5643235,0.9174323,-0.43519786,-1.7147685000000001
9.252526,-9.791988,1.7498358,1.0356085,-0.27017698,-1.4800043
9.590588,-9.941855,1.6629741999999998,1.0728889,-0.2376964,-1.2021304
9.957725,-9.999564999999999,1.4005219,0.9962165000000001,-0.28188813,-0.92373294
9.749698,-9.957982000000001,1.5213428,0.830672,-0.37611845,-0.7518005999999999
9.01553,-9.667777000000001,2.0434799999999997,0.57887334,-0.48897144,-0.7464773
8.121889,-9.101614999999999,2.6734421000000004,0.29567623,-0.5885076,-0.86517715
6.813773599999999,-8.339503,2.950212,0.0710349,-0.6098005999999999,-0.9679247
5.359525700000001,-7.5730710000000006,2.8508047999999997,-0.12004375,-0.5075940999999999,-0.91734505
4.413232,-7.0331016,2.6503813,-0.25047220000000003,-0.32660347,-0.7592357
3.7269099999999997,-6.667631,2.3332547999999997,-0.40165263,-0.09185668,-0.54845226
3.17407,-6.5070953000000005,1.8554966,-0.5145056,0.10882128,-0.24396212
3.1400242,-6.735110000000001,1.2078556,-0.5161113,0.1998402,0.13716543
3.3028873999999995,-6.733280000000001,0.66028255,-0.39418262,0.1886701,0.5784719
3.9025583,-6.7473965,0.38051525,-0.24247860000000002,0.116273835,0.86219263
4.520454,-6.605258,0.20566192,-0.18924604,0.099239424,0.99155647
5.007339,-6.8808110000000005,0.35238817,-0.2398257,0.013002703000000001,1.1778704
4.858745,-7.448783000000001,0.78794134,-0.33833209999999997,0.0800757,1.418464
4.201412,-8.09585,1.1216547,-0.33670890000000003,0.2594781,1.5925605
3.9077394,-8.606466000000001,1.4280263000000002,-0.23291420000000002,0.44418630000000003,1.5872198
3.851112,-9.382052,1.2523206,-0.058817595,0.6336941999999999,1.4355159
3.8808190000000002,-10.040659,1.4347014,0.15037757,0.7060904,1.2438787
3.8988714,-10.255678,1.6531101000000001,0.3739368,0.66669834,1.1980986999999998
4.4013089999999995,-10.429727,1.9002875,0.5251172,0.65339893,1.2348378999999998
6.037315,-10.828678,1.4291277,0.49850094,0.7582583,1.2167388000000001
6.39429,-10.426021,0.8442146999999999,0.27544788,1.0020632999999999,1.0671467
6.4263535,-9.956862,0.48096640000000007,-0.068940505,1.250127,0.81375974
6.51582,-9.588644,0.7010126999999999,-0.38034216,1.4226003999999999,0.6162757
6.7368336,-8.644812,1.39038,-0.6901729999999999,1.4428288,0.5374916000000001
7.5132537,-8.1092,1.7132523999999998,-0.9669648000000001,1.3076181,0.5811423000000001
8.215416000000001,-8.221258,1.6828938999999998,-1.1011282,0.9860936,0.6758962
8.480656,-8.719386,1.2728248,-1.067042,0.60068995,0.84624034
8.252937,-9.117666,0.863828,-0.9499478000000001,0.2536138,1.0298839
7.8151054,-8.34522,0.2654978,-0.8232369,0.040160026,1.1624416000000002
7.4357104000000005,-6.7262509999999995,-0.43973824,-0.6411816,-0.03541273,1.1629652
7.078716,-5.1371236,-1.1252748,-0.43837434,0.055588737,1.0405304
6.4487824,-4.13923,-1.3782079,-0.25844836,0.27225390000000005,0.8515636000000001
5.656953,-4.012299,-1.3741568000000002,-0.18924604,0.42130503,0.7051654
4.838107,-4.295389,-1.349669,-0.23183209,0.41172317,0.62318724
4.6230407,-4.9517837,-1.0840083,-0.29038787,0.25254914,0.53269196
4.906083,-5.6132827,-0.39620209999999995,-0.31752774,0.013543755,0.33307862
5.2203364,-6.0125779999999995,0.42648396,-0.24727824,-0.062046453,0.06318091599999999
5.856907,-6.233304,0.9217198,-0.05989969999999999,-0.0636347,-0.22266911
6.679785000000001,-6.304843,1.3495348999999999,0.15196581,-0.11739085,-0.56121063
7.724087,-6.2453423,1.7173417000000002,0.4410098,-0.24888395,-0.83323765
8.679029,-6.5503254,1.8352897000000001,0.6667158000000001,-0.58690184,-1.0344566
9.469738000000001,-7.195697,1.5896925,0.7407176999999999,-1.0026567,-1.274003
9.742083000000001,-7.9899683,0.91387635,0.76201075,-1.2996943,-1.5369718
9.991904,-8.693049,0.43396342,0.7268773000000001,-1.4183941999999998,-1.8164339
10.383844,-8.558849,0.56369084,0.6528753,-1.3300281999999999,-2.0378814
11.121421,-8.628300999999999,0.9490711,0.57622045,-0.98775166,-2.1661804
11.167773,-8.285326,1.6914460999999998,0.56079173,-0.59754837,-2.2082255
11.138639999999999,-7.806725500000001,1.9682157,0.60870105,-0.14880677,-2.1895854
11.049346,-7.9286575,2.0735893,0.67631507,0.124267444,-2.1257062
10.380933,-8.3122,1.8708484,0.75988144,0.22060962,-1.9803901999999998
10.050226,-8.569939999999999,1.310088,0.86315256,0.20198695,-1.7930116999999999
10.141857,-9.098426,0.97927636,0.94141316,0.09019861,-1.5332369
10.336688,-9.701630999999999,1.1709083,0.9520596,-0.109938286,-1.2532337
9.942459,-10.08184,1.3455031000000002,0.8897514000000001,-0.3606723,-0.9854826999999999
9.0721,-9.998034,1.611202,0.74710566,-0.5970248,-0.7443306
7.7039857000000005,-9.503094,1.9535919999999998,0.5128825,-0.7434055,-0.5505641
6.426507,-8.706936,2.2998032999999998,0.25949556,-0.8344419,-0.41641809999999996
5.3119005999999995,-8.155188,2.402524,0.052412238,-0.83815944,-0.34456290000000006
4.2662949999999995,-7.6326575,2.207971,-0.1956165,-0.68219686,-0.3035651
3.3738707999999997,-7.269955,1.9305596,-0.5198114,-0.42029274,-0.17315412
2.808437,-7.011410000000001,1.7373381999999997,-0.83760095,-0.10728539,0.055745817999999996
2.3392596,-6.831213000000001,1.3067073999999999,-1.0819296,0.25202554,0.3160442
2.2253819,-6.8817883,0.8850885000000001,-1.3182995000000002,0.6251769,0.6040234999999999
2.4628196,-7.0040645999999995,0.47954902,-1.4636331,0.70876074,1.0538471999999999
2.8097203,-7.251596000000001,0.17977582,-1.3502216,0.62465334,1.5728732
3.175334,-7.273633,-0.005985504,-0.9557771999999999,0.43886304,1.9971279
3.6560610000000002,-7.351261999999999,0.2815581,-0.33028612,0.24776694,2.1488492000000003
4.378612,-7.9053288,0.51428413,0.41495204,0.1338493,2.051425
4.6377505999999995,-8.697637,0.50249505,0.9770877,0.042289328,1.8981153999999998
4.667429,-9.746211,0.39881653,1.169772,-0.035953782000000004,1.9124793999999998
4.5826936,-10.499742999999999,0.71035963,0.87325805,0.051871184,2.0194855
5.004542400000001,-11.435733,0.97546476,0.29302332,0.3137753,2.1200864
5.043405,-12.729358,0.87853795,-0.14505431,0.6714979999999999,2.1200864
4.6356725999999995,-12.617155,1.2475034999999999,-0.15196581,0.8652644,1.9875460999999999
4.2532415,-11.309826,2.2484330000000003,0.125367,0.80883795,1.8007084999999998
4.5605426,-9.153991,3.2066407000000003,0.40322343,0.7332477,1.5409336999999999
6.108988,-8.372418,3.6569227999999994,0.45485026,0.7891332,1.3008462
7.6911817,-8.63239,2.9378674,0.27174777,0.8365189000000001,1.0996273
8.11711,-9.313512,1.2920261999999998,0.06679375,0.83864814,0.963893
7.6052394,-9.438575,-0.48531428,-0.08063421400000001,0.7060904,0.8308116
6.989948299999999,-8.790694,-1.8746504000000002,-0.13919,0.512324,0.66205573
6.672899,-7.796804400000001,-1.8254543999999997,-0.19083429999999998,0.38243654,0.46455428
7.0432916,-6.8689933000000005,-0.40241742,-0.26696557,0.3185575,0.24310692
7.141894000000001,-6.2817917,1.2423799999999998,-0.36435494,0.26373670000000005,-0.00066322513
7.417074,-5.827353,1.7873194,-0.42823398,0.13171999,-0.20827013
7.494244,-5.6543384,1.3287437,-0.47294933,-0.013596115,-0.27162558
7.246358,-5.6567419999999995,0.3748458,-0.48413688,-0.1855285,-0.22691025
7.053797,-5.752922,-0.17295714,-0.46284387,-0.48150143,-0.19816469
6.9637080000000005,-5.91092,-0.32162747,-0.42078143,-0.7966380999999999,-0.37702602
7.1548996,-5.9910107,-0.03037763,-0.27546529999999997,-0.9579414,-0.5872858
7.422763000000001,-6.0538826,0.17953639,-0.07105235,-0.87116367,-0.8247030000000001
7.4456515,-5.8084,0.29513803,0.08969247,-0.63854617,-1.0541439
7.489599,-5.699081,0.36871666,0.16901769,-0.49853584,-1.2723973999999998
7.689161,-6.2279696,0.39979336,0.12269664599999999,-0.53154004,-1.5305665000000002
7.720132400000001,-7.217474,0.6602442,0.024766222,-0.5496390999999999,-1.8079168
7.6512649999999995,-8.425627,0.7990792,0.0050614546,-0.54379225,-2.0847259
7.6457777,-8.931493,1.0725545,0.039671335,-0.43945646,-2.2374947
8.525005,-9.206625,1.292189,0.09449212,-0.23930210000000002,-2.1720273
9.730025999999999,-9.537417,1.7050067999999998,0.17327629,-0.11739085,-1.9590971000000001
10.407575999999999,-9.980383,2.1526556,0.27281243,-0.15732397,-1.7216799999999999
10.769694,-10.458668,2.301661,0.41601667,-0.27124159999999997,-1.5066031000000002
10.346064,-10.450959,1.9669611,0.62999403,-0.40165263,-1.3224360000000002
9.523531,-9.671942999999999,1.5713241000000002,0.8035321,-0.49853584,-1.2010658
9.131141,-9.356885,1.1527219,0.83386594,-0.49001864,-1.1201524
9.033726,-9.674241,1.2506542999999999,0.73380625,-0.41868705,-0.9897413
8.357258,-10.091023,1.7160393,0.54696876,-0.35428438,-0.77094686
7.0607977,-10.338785000000001,1.8478161,0.38460076,-0.38090065,-0.5702514
5.3721765999999995,-9.917069999999999,2.0267396,0.27920032,-0.43732715,-0.36796775
3.9878495000000003,-8.9180765,2.1292882,0.18764035,-0.41496947,-0.11831587
3.2478497,-7.919751,2.1755153999999997,0.041259582999999996,-0.34150857,0.18030997
3.0084772,-7.2997966,2.3548697999999995,-0.1381079,-0.23184954,0.37939966
2.933395,-6.899869,2.5301251000000002,-0.36648422,-0.03541273,0.4805415
2.9619242999999997,-6.8189163,2.1526747000000004,-0.6230651,0.20038125,0.6109525
2.8727546000000004,-6.907387,1.4949396000000001,-0.80300856,0.3829776,0.81484187
2.554642,-7.1305933,0.97896993,-0.79553854,0.42715190000000003,1.0623818999999999
2.4112005,-7.460227000000001,0.6335632,-0.6688625,0.34784412,1.2428141000000001
2.4461272000000003,-7.4970217,0.6420483,-0.5522745,0.354232,1.4142402
2.4378145,-7.678693300000001,0.8026226,-0.5128825,0.32229250000000004,1.5648796999999999
2.4395189999999998,-8.073525,0.77192897,-0.60496604,0.30897564,1.6314291
2.9227552000000006,-8.5261545,0.5743307,-0.6832090999999999,0.3829776,1.6319702
4.0575589999999995,-9.062599,0.49209464,-0.6555281999999999,0.43034583,1.5489273000000001
4.753017,-9.654167999999999,0.36281732,-0.45005059999999997,0.45802677,1.3780421
4.8833385,-10.089357000000001,0.4923245,-0.12213814,0.47347292,1.2098273000000002
4.734926000000001,-10.099383999999999,1.0192212999999999,0.22383848,0.5448045,1.112403
5.089575,-10.097335000000001,1.7329136000000003,0.50970596,0.7124783,1.055453
6.099832,-10.786549,1.8117595000000002,0.6720565,1.0105805,0.8648629999999999
6.458043,-10.920615,1.672934,0.6380051,1.342228,0.5407029999999999
6.8497634000000005,-10.393191,1.2778525,0.5256757,1.5668693999999999,0.23034856
7.28591,-9.975431,1.0760021,0.37716565,1.5705869,0.062133722
7.4564443,-9.190764999999999,1.5266963,0.112573735,1.4045013000000002,-0.05921902
7.884269000000001,-8.667757,2.1130939,-0.33560935,1.2192521,-0.118839465
8.52558,-8.888781,2.706061,-0.6677804,0.780616,-0.13161528
8.978764,-9.352528,2.853381,-0.86952305,0.49689522,-0.010768682
9.036177,-9.2959385,2.538955,-0.84077746,0.3015231,0.13878858
8.8432045,-8.302603999999999,1.8951352,-0.63955843,0.21582742,0.20160298
8.784661,-6.4401727,1.0530752,-0.34201473,0.20038125,0.19839157
8.133534,-4.930964,0.053553507,-0.034854226,0.28183576,0.13985324
7.1110954,-4.17362,-0.5508962,0.13281955,0.37072540000000004,0.09087929
6.119541000000001,-3.977832,-1.1280903999999998,0.1274963,0.332939,0.067456976
5.6387568,-4.1887035,-2.0074232,0.06414085,0.16950637,0.08449139
5.143587999999999,-4.8613405,-2.6433902000000002,-0.09073967,-0.0066671576,0.10843731
5.068516000000001,-5.786383,-1.5330552,-0.2509609,0.016196655,0.082362086
4.9347367,-6.547471,-0.2894111,-0.37128390000000006,0.15034266,0.008360127
5.576766,-6.707452,0.8599207,-0.34784412,0.13704325,-0.13746212
6.1338105,-6.592463,1.6067584,-0.15036010000000002,-0.05989969999999999,-0.10871656
6.451521400000001,-6.317982,1.9124212,0.06735226,-0.4490383,-0.13639748
6.7775345,-6.212877,1.673863,0.26535985,-0.85732317,-0.14971434
6.9773073000000005,-6.748039,0.666517,0.54962164,-1.3087351,-0.17154841
7.414306,-7.613686,-0.12904747,0.7226361,-1.748436,-0.36370915
7.858880999999999,-8.309154,-0.4257657,0.5789257,-1.8384076,-0.72143185
8.204815,-8.597445,-0.47658019999999995,0.23556710000000003,-1.6228071000000002,-1.1403806
8.591966000000001,-8.440136,0.11397358,-0.024731316,-1.3071469,-1.4869158000000002
9.026026,-8.666647,0.6536075,-0.22860323,-0.9622,-1.7152747
8.9263315,-9.153808999999999,1.3555683,-0.30738738,-0.56560886,-1.8020525
8.340288000000001,-8.995543,1.798055,-0.27544788,-0.36226055,-1.961209
8.722230999999999,-9.220348,1.5773288,-0.265866,-0.22917919,-2.203426
8.672794999999999,-9.349366999999999,1.5998343000000002,-0.21743312,-0.10728539,-2.4003862999999996
8.941989,-8.839086,1.7319368000000002,-0.16205382,-0.0013439035,-2.4046447
9.570151,-8.294271,1.1580466,-0.11896164,0.061453044000000005,-2.208749
10.248944999999999,-8.37081,0.3927257,-0.07049385,-0.038606685,-1.9745258999999997
10.282071,-8.746852,0.38015133,-0.015149458000000001,-0.2376964,-1.7514728
9.566685000000001,-8.977183,0.93337476,0.060946897,-0.42933354,-1.5135319999999999
8.153444,-8.786261,1.3858597,0.09077457,-0.5374043000000001,-1.255363
7.276113499999999,-8.232089,1.9124116999999998,0.066305056,-0.5917015,-0.9327563
6.8079220000000005,-7.2141705,1.8652555,0.06148795,-0.5900958000000001,-0.62189573
6.5724955000000005,-6.785886,1.6478811999999998,0.08066912,-0.5389925999999999,-0.40310124
5.9070125,-6.9354277,1.5943947,0.051382493,-0.38302997,-0.22476350000000003
4.825964,-7.17457,1.3700484,-0.0667763,-0.19458675,-0.0038571777
3.8108702000000005,-7.0630673999999996,1.2726235000000001,-0.22488567,-0.04660029,0.29103366
3.6151678999999994,-6.795912700000001,1.1138401000000002,-0.33773866,0.13863151,0.6343748
3.713129,-6.862356699999999,1.0443987,-0.38299504,0.23392648,0.93247706
3.838346,-6.897073,0.9626319,-0.36222562,0.36540213,1.2300556999999999
3.6101690000000004,-6.900243,0.8908440999999999,-0.3137753,0.35210273,1.5686146
3.391061,-6.854120699999999,0.9580446,-0.26373670000000005,0.30471703,1.8725637
3.8480375,-7.0539119999999995,1.0982969,-0.10934488,0.33506832,2.1834592999999995
4.686928,-7.541898,1.1502702,0.18394025,0.3334626,2.321323
5.163862,-8.286513000000001,0.8239597,0.4490383,0.42182863,2.2153987999999996
5.154745,-8.900876,0.41443630000000004,0.6337465,0.5495866999999999,2.0088565
5.1019573,-9.325224,0.39147112,0.80834925,0.57087976,1.9194258000000002
5.25828,-9.427093,0.5673204000000001,0.92333156,0.6299766,2.0519662
6.0754876,-10.022358,0.73400474,0.8392241,0.7348359999999999,2.1328795
6.107503400000001,-10.431527,0.8892735999999999,0.5491155,0.96054196,1.9753113000000002
6.296703,-10.094874,0.8156949,0.40697587,1.137274,1.6969138
6.512832,-9.986857,0.9682726,0.39526471,1.1729485,1.4382037
6.4355564,-8.842744,1.6122553,0.40378192,1.0260267,1.2753121
7.182021000000001,-7.909264599999999,1.8883738999999997,0.37025416,0.7768984,1.1864051000000002
8.120222,-7.9730077,1.596358,0.23823744,0.5235115,1.1443601
8.489188,-8.677688999999999,1.19056,-0.013020156000000001,0.26267204,1.118791
8.097822,-9.475321000000001,0.9814695,-0.19718729999999998,-0.00027925267999999995,1.0916511
7.307247,-9.283919000000001,0.5619287,-0.18336429,-0.32234487,1.012867
7.2577257,-7.85415,-0.06735368,-0.04335398,-0.41071087,0.89043206
7.2694187,-6.335221,-0.14528973,0.12803735,-0.2499486,0.6253340000000001
7.029184299999999,-5.4522676,0.37591840000000004,0.19723965,-0.019442968,0.27186993
6.364898999999999,-5.070583999999999,0.57651424,0.22865559,0.14289011,-0.09807005
5.6790752,-5.17137,0.44633666,0.21746802,0.05771804,-0.3083473
5.5967817,-5.54635,0.05329493,0.043406337,-0.11580259,-0.37114426
5.7821407,-5.941365,-0.4011437,-0.29194123,-0.33138567,-0.38500217
6.149277,-6.414928400000001,-0.55972606,-0.60442495,-0.5826433000000001,-0.4675039000000001
6.723857000000001,-6.713763,0.007393295,-0.7907389,-0.7615046,-0.7357959
7.3135585999999995,-6.7054789999999995,0.99575806,-0.82534873,-0.80995494,-1.0078228999999999
7.8404455,-6.5234146,1.5493741,-0.72206014,-0.82964224,-1.2611923
8.212792,-5.979768,1.5581273000000002,-0.5330934,-0.8759633,-1.3559636999999998
8.3744,-6.003480000000001,1.1511992,-0.17643534,-0.9579414,-1.2569511999999998
8.557194,-7.044670599999999,0.73323864,0.129102,-1.1266798999999998,-1.276656
8.322321,-8.001144,0.1448492,0.22387338,-1.180977,-1.5209671
8.160531,-8.840341,-0.7361404,0.1833992,-1.032467,-1.8297333999999998
8.258396000000001,-8.941185,-0.9884030999999999,0.11526154,-0.7875973000000001,-2.06448
8.7679405,-8.801487,-0.33542767,0.017313666999999998,-0.49427724,-2.1549754
9.626214,-9.004823,0.4885225,0.009337512,-0.31169835,-2.1272945
9.506464999999999,-9.069207,1.3610941,0.08279842,-0.1833992,-2.0857732
9.593633,-9.602875,1.6454294999999999,0.1679705,-0.062028999999999994,-2.0894907
8.967406,-10.267649,2.0516777,0.28560567,0.08752826,-2.0203059
8.520427999999999,-9.9601755,2.4063258,0.4426504,0.18069394,-1.845162
9.183794,-9.529574,1.9308279,0.58051395,0.19666370000000002,-1.5763465
10.098791,-9.765115,1.3194541000000002,0.64812803,0.12000884,-1.2958021999999998
10.185691,-10.234331,0.97850066,0.67209136,-0.08438667,-1.0344392
9.556992999999999,-10.312228,0.99548995,0.61938244,-0.29199359999999996,-0.80234534
8.002495,-9.9849415,1.0533146999999998,0.46074948,-0.4777839,-0.5670575
6.7501645,-9.088064,1.6669965,0.2627244,-0.5613501999999999,-0.38233182
5.959149,-8.198312,1.8127171999999998,0.054070299999999995,-0.5714732,-0.22156955
5.3090177,-7.6004314,1.9355012999999999,-0.10456268,-0.5427276,-0.10819296
4.2799515999999995,-7.327205,2.0451078000000003,-0.2669132,-0.42507493,0.0019896755
3.4886296000000003,-7.1008762999999995,1.9392077,-0.40957642,-0.23130849,0.17765707
2.9297174999999998,-6.998031,1.5600044,-0.5501278000000001,-0.014660765,0.42572072
2.5872414,-6.782984,1.0777354,-0.64912283,0.16950637,0.6807133000000001
2.6637504,-6.6419559999999995,0.7151289000000001,-0.7044847,0.37126642,0.8734151
2.8194310000000002,-6.815334299999999,0.31801704,-0.74761176,0.5799380000000001,1.1416897
3.0011127,-6.8459997,0.08994537,-0.7438942,0.5634272,1.4935656000000002
3.3029065,-6.9426483999999995,0.092933334,-0.6336941999999999,0.5064771,1.8055082999999998
3.6735480000000003,-7.0840309999999995,0.41379467,-0.39255947,0.43408084,2.082841
4.290036,-7.6690784,0.697565,-0.06784095,0.36859608,2.1573665
4.7363725,-8.488325999999999,0.80075514,0.1828756,0.37604862,2.016309
4.8138394,-9.241311999999999,0.91629934,0.32873276,0.40479422,1.751752
4.7844095,-9.533529,1.0574709,0.45064402,0.3829776,1.6149358
5.1195884000000005,-9.758901,1.2762818,0.5139819999999999,0.36753142,1.5760846000000002
5.8801309999999996,-10.531672,1.2831676,0.31330407,0.45963246,1.4792014
5.434062,-10.827021,1.1880699,-0.09817477,0.6917263000000001,1.302452
5.648793,-10.784892999999999,1.2952152,-0.43034583,0.95202476,1.020337
5.9749217,-10.22667,1.6817256,-0.5671622,1.0744596000000002,0.7094414000000001
6.384531,-9.180355,2.1042063,-0.6384764,0.98396426,0.50237554
7.4516845,-8.414996,1.9900892,-0.71459013,0.83864814,0.43317327
8.563982000000001,-8.411214,1.4087005,-0.7225838000000001,0.63317055,0.47417104
9.088714999999999,-8.833589,0.8225806999999999,-0.6235712,0.42982224,0.5859594
8.818083999999999,-9.119112,0.47477020000000003,-0.42074654,0.198793,0.6626141999999999
8.669853999999999,-8.481612,-0.30294309999999997,-0.12159709,0.009285152,0.64929736
8.347413000000001,-6.977805,-1.4077906999999998,0.27389452,-0.1200612,0.49331729999999996
7.92475,-5.499213,-1.6114031,0.5006826,-0.10196213400000001,0.24207717
7.891126,-4.4737573,-1.101055,0.47298422,0.009808751,0.017418386
7.481372400000001,-4.1642637,-0.5747233,0.35428438,0.08487536,-0.069848076
6.686134,-4.3701077,-0.53566915,0.21535617,-0.014119713999999998,-0.053878315
6.290506400000001,-5.033043,-0.34386483,0.092903875,-0.16742943,-0.038990654
6.1982627,-5.609891999999999,0.23709299999999997,0.025307272999999998,-0.2962522,-0.10658725
6.328622,-6.0685925,0.9925306999999999,-0.016720254,-0.37823029999999996,-0.30300662
6.951641,-6.2109137,1.535526,-0.03960152,-0.24195500000000003,-0.4760210999999999
7.6917276,-6.025151999999999,1.9329827000000002,0.0029496064,-0.11206759,-0.59793234
8.367811,-5.473681,1.8165861,0.10463249,-0.13868386,-0.7187614999999999
8.556225999999999,-5.1693397,0.73214686,0.34578463,-0.34522614,-0.7911577
8.34747,-5.936596,-0.27607062,0.61620593,-0.7162656999999999,-0.8864353000000001
8.109123,-6.898375,-0.71708256,0.6880611999999999,-1.0148915,-1.1195939
8.359278999999999,-7.8178635,-0.86935383,0.53688073,-1.1059278000000001,-1.4230193000000002
8.686728500000001,-8.232922,-0.5808236999999999,0.32021555,-0.9957278,-1.625844
9.270961999999999,-8.118729,0.09054871,0.15575318,-0.8051553000000001,-1.7003521000000001
9.943311999999999,-8.462458999999999,0.4028388,0.11206759,-0.65345126,-1.7232683000000002
9.767586,-8.781856,0.9067321,0.14723597,-0.47139597,-1.75252
9.649639,-8.905567999999999,1.0909036,0.21694443,-0.26963592,-1.7871298999999998
9.47783,-9.2209425,1.3347197,0.31489229999999996,-0.09557423,-1.7610546000000002
9.053108,-9.07051,1.68502,0.40859902,0.018325957,-1.6827941000000002
9.058788,-8.6673355,1.4795017,0.46713737,0.10669198,-1.5646353000000002
9.426212,-8.809905,0.8969446,0.49483573,0.12053244,-1.4038556
9.440969,-9.387578999999999,0.5436753000000001,0.5278399,0.042289328,-1.1685678
8.819502,-9.996367,0.7702147,0.54115677,-0.09929178,-0.90134037
7.9027905,-9.802044,1.264081,0.5224992,-0.27017698,-0.5856800999999999
7.078744400000001,-9.240671,1.8573929,0.45118508,-0.4516912,-0.30300662
6.3980155,-8.434609,2.145013,0.33194417,-0.58211964,-0.09539969999999999
5.544205000000001,-7.791086999999999,2.2248454,0.20738003,-0.6167121,0.02008874
4.7080154,-7.361232000000001,2.2136695,0.03330088,-0.5932898,0.0983493
4.113736,-6.986117999999999,1.9944273999999997,-0.19291124,-0.4996005,0.17980382
3.5629745,-6.7588506,1.5757103000000001,-0.46066222,-0.31169835,0.33950144
3.105069,-6.672975,1.3315209,-0.62995917,-0.118996546,0.56306064
2.7289494999999997,-6.6013985,1.0754083,-0.6703984000000001,0.08913396,0.791437
2.4893186000000003,-6.645308,0.86250633,-0.6379353,0.23392648,0.92238903
2.439088,-6.6145473,0.6047945,-0.6129247,0.34997340000000005,1.0575997
2.8414577999999997,-6.5421467,0.40967664,-0.63739425,0.3414562,1.2982107
3.4898746,-6.605727000000001,0.3681133,-0.65338147,0.34890878,1.6037656
4.214992,-6.970833,0.38720945,-0.54637533,0.34091517,1.8858981
4.875495,-7.703573700000001,0.2827265,-0.2775597,0.25148448,1.9886456000000001
5.3535786,-8.564558,0.19703321,0.021066124,0.21263346,1.8273423
5.406184,-9.181648,0.38027585,0.24942501,0.23657937,1.5132703
5.423997,-9.465246,0.9787688,0.33246776,0.31696925,1.3189628
5.8073277,-9.572363000000001,1.555082,0.26541220000000004,0.44046873,1.2774588
6.6195364,-10.155103,1.588955,0.08655088,0.6411467,1.1997393
6.5741334,-10.515189999999999,1.2390378,-0.1391551,0.9307316999999999,0.97668624
6.608293499999999,-10.735581,0.9591843000000001,-0.26583108,1.1468558,0.6173753000000001
6.6147485,-10.426067999999999,1.1702953999999999,-0.27810076,1.1734722,0.36131805
6.670418300000001,-8.995906,1.7938508000000002,-0.29300588,1.1266273999999998,0.276146
7.6251683,-8.005722,2.2037861,-0.32014576,0.9626713,0.3022212
9.007006,-7.870296499999999,1.9029498,-0.34622097,0.69437927,0.39912188
9.653075999999999,-8.16938,1.252675,-0.30522317,0.30312878,0.49813443
9.1918955,-8.538077000000001,0.5021310999999999,-0.15990707,0.04707153,0.52846825
8.532647,-7.806735499999999,-0.021021092,0.037035886000000004,-0.07960447,0.50611055
8.227339,-6.5069137,-0.20851581,0.19247492,-0.04766494,0.46617743
8.131188,-5.235669000000001,-0.20731871,0.2733884,0.0694292,0.36131805
7.706073299999999,-4.3630877,0.18863437,0.23612559,0.20943952,0.19842649
6.6064262000000005,-4.3304405,0.24161327,0.10358529,0.3206868,0.05630432
5.759606400000001,-4.6980075999999995,0.050661307,-0.043860123,0.25521950000000004,-0.009162978
5.334846,-5.14377,-0.07043742,-0.16414821,0.08168141,0.029147000000000003
5.4263334,-5.678079,0.010141838,-0.18385299,-0.09131563,0.1585108
6.095436599999999,-6.2321453,0.40976283,-0.15723671,-0.2414314,0.2213252
6.924060000000001,-6.425596700000001,0.9457384,-0.050771628,-0.30318114,0.17128661
7.248062599999999,-6.288591,1.0815854,0.15255924,-0.3319267,0.06482153
7.286647299999999,-5.9331,0.89140916,0.29044023,-0.42029274,-0.13957398
7.5888724000000005,-5.5941386,0.49226704,0.40329322,-0.5081177,-0.3386637
8.054411,-6.150398,-0.24817337,0.50867623,-0.7210479000000001,-0.53190655
8.068287,-6.9781113,-0.6921636999999999,0.52199304,-1.0447017,-0.8379849
8.037987,-7.780916,-0.7522773,0.3963468,-1.1325442,-1.1643091
7.775936,-8.382809,-0.37018190000000006,0.23931955,-1.1037986000000002,-1.3735043
7.822431599999999,-8.568025,0.23578098,0.13765411,-1.0255379999999998,-1.4453770000000001
8.80032,-8.760816,0.6433603,0.11264355,-0.91109675,-1.4091613
9.487915,-8.871924,1.2628552,0.12966052,-0.7966380999999999,-1.357011
9.803222,-8.425138,1.4916353999999998,0.18184586,-0.6832615,-1.3554051999999999
10.274219,-8.654292,1.1519654,0.23719025,-0.5453805,-1.3964031000000001
10.182118,-8.713544,0.9770162,0.31119220000000003,-0.44849727,-1.3809569
9.777747,-8.111305999999999,0.84509575,0.38091812,-0.35321975,-1.2925909
9.695905,-7.9041505,0.6551781,0.42989203,-0.29199359999999996,-1.152598
9.5129,-8.729068,0.57058614,0.44587925,-0.35321975,-0.97586596
8.777814,-9.385012,0.8723896999999999,0.4602433,-0.49747118,-0.7783645
7.8387117,-9.651582000000001,1.3280158000000002,0.4565083,-0.67313856,-0.609085
6.887830999999999,-9.351972,1.7602363,0.4299095,-0.83870053,-0.44460517
6.1678180000000005,-8.435539,2.0885196,0.3654894,-0.89032733,-0.35623914
5.649684,-7.4907007,2.2420259999999996,0.2611536,-0.8413533999999999,-0.33175218
5.1133733,-6.939392599999999,2.2834267999999995,0.08600982,-0.66462135,-0.37379718
4.337508000000001,-6.7080455,2.3000042,-0.18650588,-0.3521551,-0.37805578
3.7852807,-6.6446667,2.1623664000000002,-0.47289696,0.0034208453999999998,-0.26574382
3.2911080000000004,-6.537559,1.862325,-0.649629,0.3100403,-0.05014331
3.044668,-6.611559,1.6512043,-0.6341828,0.5176472,0.13030629
3.1207654,-6.75933,1.4580591999999999,-0.5314528000000001,0.70450217,0.33311355
3.3255653,-6.892284399999999,1.319004,-0.43404594,0.6299766,0.54923767
3.6205788,-6.833971000000001,1.2694823,-0.38507199999999997,0.52031755,0.7435276999999999
4.136558,-6.9505973,1.2939318000000002,-0.3462035,0.5261644,0.9011135
4.9117045,-7.395383,1.2183708999999998,-0.23919737,0.5676858,0.9857445
5.5038004,-8.343802,0.9237117,-0.07897615,0.62091833,0.9463524
5.6138377,-9.258569999999999,0.68885976,0.07590437,0.7348359999999999,0.86063933
5.1644273,-9.739708,0.81173015,0.20685643,0.78806853,0.8920551999999999
4.9992557,-9.794708,1.332268,0.23560199,0.7859392,0.96338683
5.4646025,-10.128555,1.7591061999999997,0.12594296,0.8498183000000001,0.97190404
5.425673000000001,-10.295546,1.5856893,-0.011362093500000002,0.9674709,0.9495464
5.8769035,-10.084559,1.0959315,-0.1338144,1.1415325,0.92238903
6.285851999999999,-10.024331,0.7501704,-0.30894074,1.2554502,0.82178825
6.408962,-9.163404,0.8322149,-0.5729916,1.2240517,0.68816584
6.7816815,-8.470963000000001,1.1105361,-0.90355694,1.0813886000000001,0.6509031
7.4955754,-8.661924,1.0149883,-1.094653,0.8317191999999999,0.7371573
7.608735,-9.201013,0.6169091999999999,-1.0472673000000001,0.5448045,0.91760683
7.120691000000001,-9.219994999999999,0.034457352000000004,-0.8231671,0.24404939,1.1289488
6.7677474,-8.513819999999999,-0.6204526,-0.48993137,-0.006143559,1.2380668
6.2894435,-7.2999973,-0.96141565,-0.15030776,-0.08386307,1.1853752
5.7212415,-6.136904,-0.88251233,0.16055284,-0.0625526,0.9388999
5.37934,-5.368144999999999,-0.9112044,0.2377313,0.08594001,0.5566901999999999
5.5696025,-4.9628544,-1.2971401000000002,0.099885195,0.28876472,0.24155357
5.473969,-4.987936,-1.7460817,-0.0816465,0.31164598,0.13615313
5.227241,-5.4475940000000005,-1.6802986,-0.25303784,0.14662512,0.18512708
5.17363,-5.993223,-0.66373014,-0.3382099,-0.08651597,0.25645867
5.4349527,-6.248751599999999,0.6115845,-0.28605947,-0.28134707,0.20003219
6.2368665,-6.2777785999999995,1.4223282,-0.13220869,-0.33883822,0.078661986
7.5233191999999995,-6.181560500000001,1.798055,0.12807226,-0.28560567,0.009459685
8.644926,-5.4981694,1.8898296,0.32344443,-0.36706018,-0.13159783
9.564989,-4.764442400000001,1.3674434,0.5267927,-0.48417178,-0.3301465
9.9169655,-5.0161495,0.19819202,0.73492324,-0.66994464,-0.6101496
9.709895,-6.2126184,-0.53155106,0.7333350000000001,-0.8078255999999999,-1.0631673000000001
9.361098,-7.5887284,-0.79304576,0.53000414,-0.77747434,-1.5986692
9.088313000000001,-8.429534,-0.4928991,0.31333897,-0.5677382,-1.9287109
9.250333,-8.270588,0.40359536,0.15842354,-0.3191509,-2.0218766
9.773197999999999,-8.244682000000001,1.1561887,0.13233086,-0.22172663,-1.9787669999999997
10.037566,-8.425023,1.9232334999999998,0.24626596,-0.23343779,-1.9297756000000001
9.962733,-8.365456,2.1506537999999997,0.40542254,-0.2627244,-1.9217994999999999
10.474125,-8.651859,1.8135408,0.528922,-0.309028,-1.9212584
10.7467575,-8.691823,1.8116158,0.6188763,-0.35587263,-1.8616380000000001
10.762626,-7.9876027,1.5263514999999999,0.6503097,-0.35852554,-1.7386795
10.992996,-7.863248,0.7078121999999999,0.6396457,-0.28241172,-1.5475835
10.865434,-8.91705,0.4009426,0.6092944,-0.24408429999999998,-1.3090841999999998
9.805375999999999,-10.008567999999999,0.6256623,0.56353194,-0.30583405,-1.0578266
8.207266,-10.271412,1.0153618,0.45226717,-0.3649309,-0.7448193000000001
7.1106257,-9.932508,1.5499009,0.27927014,-0.45275587,-0.37805578
6.3658470000000005,-9.1837845,1.9992733,0.12383111,-0.5996776999999999,-0.09857619599999999
5.740616,-8.305907000000001,2.0100377000000003,0.031189033999999997,-0.76417494,0.07972664
5.003096,-7.640578,1.7909778000000003,-0.050754175,-0.84294164,0.16331045
4.2539988,-7.0530505,1.5199733,-0.22322759999999997,-0.73382366,0.19312069
3.6147370000000003,-6.653199000000001,1.2007688,-0.44521603,-0.5145056,0.2947861
2.9954047000000004,-6.470780400000001,0.99090266,-0.65017,-0.25314257,0.54710835
2.5662396,-6.2462230000000005,0.76860577,-0.7065791,-0.065222956,0.886732
2.3995457,-6.2805176,0.41710824,-0.5910907,-0.012531463999999999,1.1646059
2.358145,-6.6760399999999995,0.031411927,-0.4680973,0.03324852,1.2700063
2.4927855,-6.692636500000001,-0.1529416,-0.45958009999999994,0.11681489,1.4046934
3.1820185000000003,-6.689792,-0.04616021,-0.5112244,0.16205382,1.5862076
4.0462489999999995,-6.8552504,0.39903679999999997,-0.5633923000000001,0.2530902,1.6756381999999999
4.922795,-7.276687599999999,0.48307330000000004,-0.5687154999999999,0.39308307,1.6463691000000003
5.414669,-8.189607,0.37448190000000003,-0.4846081,0.4654793,1.4829364999999999
5.3610773,-9.139978999999999,0.43072647,-0.35897929999999995,0.5921901999999999,1.2056036
5.078954,-9.658822,0.8396370000000001,-0.20086995,0.79873246,0.9708394
5.1800857,-9.64304,1.53657,-0.053948127,0.8886867,0.95380497
6.196395,-9.816601,1.825234,0.06633996,0.8029911,1.1124379999999998
7.4031496,-10.501112,1.4153850000000001,0.13554227,0.66723937,1.1789874
7.201873299999999,-10.172044,0.8499224,0.19355701,0.5841966,1.0666579999999999
7.407210000000001,-9.701363,0.73489547,0.28831095,0.60123104,0.78719586
7.870085700000001,-9.013834,0.9178315999999999,0.27927014,0.68746775,0.49441686
7.9358783,-7.7747107,1.2992375,0.13021901,0.7992561,0.32459635
8.412238,-7.252084700000001,1.6191603,-0.101874866,0.81149083,0.29850367
9.004525,-7.602797,1.6634433999999998,-0.29775316,0.65818113,0.3155555
8.829356,-8.424755000000001,1.470126,-0.37706092,0.37552503,0.39912188
7.923036,-8.813583,1.0813173,-0.26474899999999996,0.08115781,0.5114512999999999
7.2087307,-8.047583,0.73901343,0.0008552113400000001,-0.20043361,0.5700071
7.234444,-6.6402415999999995,0.6125229999999999,0.24626596,-0.34416148,0.49867547
7.4462543000000005,-5.3202324,0.6886873,0.38412952,-0.32339206,0.33471924
7.446484599999999,-4.268411599999999,0.576179,0.35379568,-0.13707817,0.12124802
6.891269,-4.058976,-0.118886486,0.18718657,0.10032152400000001,-0.029914944
6.139672,-4.284758999999999,-0.7374045,-0.028396507999999997,0.17430604,-0.06983062599999999
5.5885453,-4.7266617,-1.0573847,-0.28124234,0.14236651,-0.060248765999999995
5.690864,-5.1895375,-0.9098636999999998,-0.44893359999999993,0.0752935,-0.088453285
5.876827,-5.840195,-0.37185782,-0.54955184,0.0028972465,-0.25614452
6.4694777000000006,-6.337768,0.5216008,-0.5612455,0.09126326400000001,-0.45416957
7.141377,-6.103930999999999,0.92226565,-0.46970302,0.17111208,-0.5760808000000001
7.6748433,-5.625895,0.87094355,-0.30785862,0.11309733,-0.63090163
8.103069999999999,-5.494377,0.33967975,-0.07150614,-0.080128066,-0.63568383
8.362199,-6.1956196,-0.40843168,0.22497293,-0.44210935,-0.65432394
8.39589,-7.126763,-1.0154,0.41233402,-0.83177155,-0.8465021
8.23863,-7.972002000000001,-1.3516608,0.40542254,-1.0159562,-1.1738735
8.362257000000001,-8.394855999999999,-1.0559100000000001,0.25213027,-0.97549945,-1.5140382
8.862674,-8.350976,-0.24821168,0.10147344,-0.87381655,-1.7881771
9.741356,-8.673983,0.40880513,0.024818582000000002,-0.73221797,-2.0074952
9.570725,-8.608746,1.0238085,-0.012426743999999998,-0.50118876,-2.1166131
9.000034,-8.510094,1.4853628,0.0503702,-0.16795303,-2.1033137
8.852205999999999,-8.931512,1.6329893,0.20528562,0.0710349,-1.9862021
8.994528,-9.420819,1.7701962,0.4842067,0.1961401,-1.7621019
9.253053999999999,-9.128728,1.788574,0.77808523,0.16791813,-1.5294495000000001
9.87001,-8.928562,1.3495158,0.97022855,-0.02370157,-1.2020955
10.327227,-9.304241000000001,0.9279926,1.0963983999999998,-0.22544418,-0.785276
9.901318,-9.505488,0.7576499,1.103851,-0.36384878,-0.3588746
9.123603999999998,-9.240144,1.0176793,1.0506183999999998,-0.47511354,0.013735741000000001
8.186427,-8.59572,1.2588138999999998,0.95534086,-0.5730614,0.39327505
6.942783,-8.006833,1.5133365,0.8462054,-0.6752679,0.6951123
5.6308940000000005,-7.444300699999999,1.8386128000000002,0.7046069,-0.74234086,0.89631385
4.471545,-6.946067299999999,2.1308396000000003,0.51192254,-0.7886445,0.9287943999999999
3.707632,-6.75117,2.2687072999999995,0.22073179999999998,-0.71837753,0.8462927
3.0472825,-6.398322,1.7909968999999997,-0.091734506,-0.60233057,0.73289865
2.2550697,-6.2413006,1.2317114,-0.40048325,-0.37823029999999996,0.61791635
2.020304,-6.351271,0.7610401,-0.62138957,-0.08119272,0.558837
2.231415,-6.535376,0.33142456,-0.69593257,0.29354692,0.6083345
2.6580236,-6.655163000000001,0.11548671,-0.62299526,0.4473977,0.85426885
3.04259,-6.848211999999999,0.018856734,-0.40475932,0.3265511,1.1837696000000002
3.6401348,-6.962903999999999,0.0003064578,-0.16999507,0.21743312,1.3408142
4.6742287000000005,-7.2854220000000005,0.038910564,0.0503702,0.16207127,1.2678943999999999
5.9024925,-7.8899484,-0.10130346,0.20261528,0.19294615,1.0475117
6.6690297,-8.495557000000002,-0.20225258,0.26331782,0.3286804,0.82232934
7.2184800000000005,-8.932718,-0.09854534,0.25425956,0.47081999999999996,0.7520624
7.0879674,-9.009936,0.34700602,0.21593213,0.5905845000000001,0.8228704
7.2278075,-9.7193,0.9411894000000001,0.14140658,0.70610785,0.8265879
6.742273,-10.555029,1.4607791,0.038676497000000004,0.9009389000000001,0.72172856
5.849456,-10.28345,1.8175343000000002,-0.03211406,1.0696774,0.55084336
6.0329576,-9.824712,1.9844580000000003,-0.04860742,1.1585845,0.40978587
6.841374000000001,-8.784882000000001,1.8547784,-0.12100368,1.1143928,0.32141984
7.586037599999999,-7.860643,1.668682,-0.26474899999999996,0.9951518,0.32939598
8.2206545,-7.843528999999999,1.1694622,-0.501084,0.78169805,0.33152529999999997
8.424439,-8.659272,0.53186715,-0.7433008000000001,0.50488883,0.2878746
8.088629,-9.536805000000001,0.047970228,-0.80080944,0.24298474,0.2713638
7.703775,-9.163404,-0.30417854,-0.67729247,0.038030725,0.29798007
7.409757000000001,-7.751716,-0.47630249999999996,-0.44200462,-0.030089477000000003,0.33046064
6.823628,-6.295515,-0.42343852,-0.19872318,0.0667763,0.35442399999999996
6.2295594,-5.19266,-0.36681086,0.0035255651,0.2509609,0.31449088
5.610486,-4.7263556,-0.50289726,0.1105317,0.445792,0.17821556
5.1847199999999996,-4.618051,-0.9690579,0.09669124,0.48518407,0.058451075
5.051076,-4.8135905,-1.3491614,0.021101031,0.37180749999999996,-0.029373892000000002
5.394788,-5.0833693,-1.5827876,-0.1604132,0.25576055,-0.059707712
5.8656793,-5.6667976,-0.9790177999999999,-0.36482617,0.27118927,0.010524335
6.1442685,-6.3424416,0.17727627,-0.47979102,0.27864182,0.034487706
6.4377785,-6.5398192,1.0973775,-0.47926742,0.31058133,-0.054925512999999995
6.7344394,-6.656369000000001,1.5908513000000002,-0.37864918,0.332939,-0.13903293
6.913765,-6.43163,1.6692758,-0.19287634,0.1961401,-0.20556487
7.3112984,-6.0586519999999995,1.3761201,-0.0006981317,-0.033283427000000004,-0.22207569
7.728397,-6.1649637,0.5057607,0.2335076,-0.40910518,-0.19439477
8.074388,-6.900453,-0.19893901,0.4368559,-0.823778,-0.26572640000000003
8.453419,-7.6348696,-0.78821903,0.45282567,-1.1245506,-0.48663270000000003
8.594896,-8.185928,-1.1176996000000001,0.31388003,-1.1469082,-0.7735648
8.580867,-8.162571,-0.73425376,0.1637817,-0.99040455,-0.9785014000000001
9.175825999999999,-7.933082000000001,-0.026135106,0.10679669999999998,-0.7950324000000001,-1.0876368
9.569921,-8.186867,0.5210262,0.15685274,-0.64332837,-1.2004898000000002
9.163683,-7.689773599999999,1.0132835999999998,0.26918212,-0.51822317,-1.3287715
8.74508,-7.6882033,1.1709657,0.39426988,-0.37768924,-1.4341719
8.490012,-8.015481,1.076663,0.4954117,-0.19830431,-1.480493
8.555498,-8.215196,1.1569166000000002,0.5699373000000001,-0.04499459,-1.4496181000000001
9.09676,-8.020921000000001,1.0243448,0.60454714,0.047088984,-1.3096077
9.701085,-8.291983,0.6250686,0.60240036,0.015673056,-1.1211646
9.758594,-8.905559,0.61032987,0.567808,-0.08597492,-0.94282687
9.097142,-9.188821,1.0056701,0.53213346,-0.23130849,-0.75546575
8.270358,-8.859829,1.5621878999999999,0.48315948,-0.34629077,-0.52975976
7.514825,-7.994651299999999,1.9851187,0.38042942,-0.46553168,-0.29234266
6.658140700000001,-7.1464906,2.1948125,0.2425484,-0.552292,-0.13158037
5.9660535,-6.6541667,2.1173458,0.09245009,-0.5645441999999999,-0.03415609
5.292775,-6.506684,1.8488697,-0.079482295,-0.48415434,0.03396411
4.614124299999999,-6.448169,1.4702122,-0.2865656,-0.33936182,0.14734070000000002
3.95004,-6.4452963,1.139573,-0.43774602,-0.21799162,0.30970868
3.6728587,-6.3597083,0.7438593000000001,-0.5282239000000001,-0.067875855,0.48431140000000006
3.6673421999999998,-6.5038204,0.5414055999999999,-0.5660276999999999,0.09393362,0.5737420999999999
3.6051983999999995,-6.582982,0.43585005,-0.61447805,0.35796702,0.6562438
3.5289001000000004,-6.827325,0.28703603,-0.6783571,0.47614327,0.84309876
3.6448370000000003,-6.742723,0.14093228,-0.67460465,0.53202873,1.0821216
4.2546782,-6.9026464999999995,0.15075809,-0.4867025,0.48944268,1.2567068000000001
4.954877,-7.3645167,0.28385657,-0.10983357,0.3845833,1.2412782
5.420559,-8.155944,0.35041538,0.1685639,0.37606609999999996,0.9873502000000001
5.6532845,-8.991586999999999,0.45875779999999994,0.19997983,0.5432163000000001,0.626451
5.8488045,-9.514988,0.8535040999999999,0.0019373155,0.80245,0.44863690000000006
6.261421,-9.770133999999999,1.1841146999999999,-0.35948548,1.0553133,0.48377037
7.082039,-10.298475999999999,1.2410583,-0.7917337,1.2868662,0.5316970999999999
6.7257915,-10.352653,1.0533626,-0.9194918,1.3832258,0.5391322
6.309353400000001,-10.2978735,0.96150184,-0.72946036,1.282084,0.5705481
6.220174299999999,-9.80057,1.3112085,-0.44891614,1.0329556,0.59609973
6.5266128,-8.517017999999998,1.9869576,-0.278572,0.7055668,0.6461383
7.4148235,-7.552422999999999,2.19057,-0.27804840000000003,0.3936241,0.6775368
8.670391,-7.492798,1.3434441000000001,-0.35842082,0.15248941,0.70734704
9.005453999999999,-8.212054,-0.043718125999999996,-0.3690673,-0.02370157,0.7701789000000001
8.133161,-8.636842999999999,-0.9390251000000001,-0.22692771,-0.21692698,0.8180706999999999
6.805671,-7.8006444,-1.5284966999999998,0.054646257000000004,-0.31487486,0.8111592
6.0787535,-6.754742,-1.2446401000000002,0.37032396,-0.26803023,0.7701789000000001
5.530654,-5.820505000000001,0.079142734,0.5513146,-0.08810422,0.60515803
5.090274,-5.1197040000000005,0.8247833000000001,0.49860567,0.18282324,0.32833135
4.884717500000001,-4.6225424,0.6949985,0.29740409999999995,0.30579913,0.0834791
4.8799577,-4.5658193,0.020235792,0.05092871,0.18655825,-0.021903882000000003
5.364955999999999,-4.76245,-0.51995355,-0.25460863,0.037507123999999996,0.069097586
6.0480694999999995,-5.466566,-0.49184564,-0.43455207,-0.067875855,0.17130406
6.735349,-6.160108599999999,0.14304876,-0.567616,-0.20149826,0.10049606
7.479649,-6.4815062999999995,0.8085219,-0.6134134,-0.20628047,-0.07834783
7.897465700000001,-6.233792299999999,1.3298354,-0.49150217,-0.20734511,-0.2545388
8.123736,-5.572418700000001,1.2520046,-0.28228956,-0.27654743,-0.35568064
8.652827,-5.020622,0.3803429,0.061034165,-0.42081633,-0.3604803
8.978056,-5.365349,-0.77241737,0.47731265,-0.6875026,-0.40306634
8.754033999999999,-6.181771299999999,-1.4551383,0.70940655,-0.9712408000000001,-0.7341553000000001
8.3406515,-7.254249000000001,-1.7023157,0.7163354999999999,-0.98347557,-1.2111188
8.014026,-7.907876,-1.3899873,0.5662196999999999,-0.7178539,-1.6162273
8.416806,-7.750012,-0.40678445,0.39905208,-0.32765067,-1.7722073
9.561167999999999,-8.045093,0.19760783,0.35487779999999997,-0.07319911,-1.8025411
9.828533,-8.251904,1.1669148,0.42249185,0.12000884,-1.8078644
9.826761,-8.620017,1.8630337,0.56089646,0.20837486,-1.8579029999999999
9.652464,-9.295967,2.3110366,0.6455274999999999,0.28982937,-1.9302993000000002
9.467124,-9.371805,2.773807,0.7120769,0.33773866,-1.9755381
9.7907715,-8.715708,2.6598333999999997,0.76318014,0.29674090000000003,-1.8802607
10.611811,-8.510727000000001,1.9951936000000001,0.84782857,0.0641234,-1.6023868000000001
11.011144999999999,-9.017597,1.4552915000000002,0.8296946,-0.116849795,-1.1956902
10.142901,-9.899239,1.0827346000000002,0.6987774999999999,-0.24141394,-0.7799353
8.660805,-9.976189,1.2822578000000002,0.5380151999999999,-0.3851418,-0.39613740000000003
7.41535,-9.190287,1.6735948,0.3937463,-0.552292,-0.08419468
6.5330772,-8.228201,2.0099131999999997,0.3005806,-0.7348883,0.12819444
5.823100599999999,-7.274331599999999,1.9561298999999999,0.21169098,-0.8658404000000001,0.25541148
5.3061447,-6.898672,1.5570164,0.09936159,-0.90575606,0.32941344
4.565637000000001,-6.8069453,1.2305335,-0.06510078,-0.8376184000000001,0.44120178
3.4375663,-6.765314999999999,0.9261251,-0.26525515,-0.62894684,0.6450737
2.3221266,-6.700777,0.5486361,-0.45795694,-0.3617195,0.9351997999999999
1.7675147,-6.583097,0.17228676,-0.51277775,-0.18446384,1.2024271
1.8239987000000002,-6.4474893,-0.07544608400000001,-0.41378266,-0.10513864,1.3876764
2.1557965,-6.5093174000000005,-0.13712071,-0.27537805,-0.05297074,1.5596088
2.7159152,-6.348877,0.034045547,-0.20509364,-0.06841691,1.8295065
3.4031373999999994,-6.3049097000000005,0.37192488,-0.18275343,-0.17008233,2.0514773999999996
4.301921,-6.872555999999999,0.48361918,-0.11142181599999999,-0.10194468,2.2596254
4.995617,-7.6711273,0.49672025,0.045605455,-0.11046189,2.3107285
5.35061,-8.508285,0.50875825,0.325085,-0.10674433400000001,2.0227494
5.3169474999999995,-9.118508,0.6118143,0.66097367,0.13226105,1.4520790000000001
5.3687,-9.302039,0.95662725,0.9255481,0.51818824,0.85109234
5.915948,-9.414135,1.5078011999999998,0.8733801999999999,0.88655746,0.5258328
6.8442564,-10.004191,1.7781736000000001,0.46881288,1.2059526000000003,0.44172537
7.089192999999999,-10.459893,1.556461,-0.015603243000000001,1.3140235,0.44544294
7.3869743,-10.62723,1.0750923000000001,-0.2120226,1.1953062,0.45024258
8.188428,-10.749544,0.9689813,-0.094911,0.80032074,0.38583994
8.280165,-9.573158,1.433332,0.12226032,0.34039158,0.269793
8.476633,-7.733175800000001,1.9473574,0.12119567,0.103515476,0.15800466
9.59506,-7.0828240000000005,2.4934842999999995,-0.07414158400000001,0.11203268,0.020664698000000002
10.535646,-7.386878500000001,2.539951,-0.34456290000000006,0.11787954,-0.025097834
10.069591,-7.9948716,1.636954,-0.44465753,0.072640605,0.020123646000000002
8.612278,-8.300046,0.07500555,-0.32328734,-0.048712137999999995,0.13777629
7.137440700000001,-7.3774934000000005,-1.265757,-0.0927817,-0.21746802,0.18195057
5.9430404,-6.3579464,-1.1098274,0.06263987,-0.38620645,0.063250735
5.527809599999999,-5.39836,-0.043382935,0.029112091,-0.3569373,-0.12836896
5.371621599999999,-4.807144999999999,0.79207855,-0.1433439,-0.14133677,-0.37376225
5.4694676,-4.523375,0.6466451,-0.37437314,0.17910568,-0.5691344
5.611147,-4.5697455,-0.18676689999999999,-0.64959407,0.43301618,-0.6670823
5.7888927,-5.0334835,-0.6253941999999999,-0.87530005,0.5261819000000001,-0.65217716
5.674382,-5.5881915,-0.46252146,-1.0073168,0.42823398,-0.5792573000000001
5.705555,-6.3374233,0.33334949999999997,-1.05095,0.28663543,-0.60320324
6.162924299999999,-6.784611999999999,1.033663,-0.89552844,0.15301302,-0.61384976
6.8151044999999995,-6.473203,1.1292588,-0.53354716,0.009826204,-0.5686108
7.456137700000001,-5.894247,0.62721384,-0.15559610000000001,-0.20149826,-0.5318715999999999
7.952389,-5.9401774000000005,-0.009931149,0.24895376,-0.5017298,-0.52496016
8.453802,-6.454854,-0.39385575,0.54759705,-0.823778,-0.60533255
8.561463999999999,-7.531200999999999,-0.60276425,0.5630258,-0.9856049000000001,-0.8656484
8.478711,-8.607088000000001,-0.68119824,0.41449824,-0.891392,-1.141393
8.256242,-9.200619999999999,-0.5036442,0.28942794,-0.69495517,-1.3175839
8.557883,-9.180816,-0.25828648,0.30059806,-0.51131165,-1.2728686000000002
9.043598,-9.157687,0.31965467,0.41770965,-0.36810738,-1.1546923999999998
8.789717999999999,-8.747685,1.2398038,0.5577025,-0.27122417,-1.1307465
8.697014999999999,-8.789842,1.7015113000000002,0.6679026,-0.21266837,-1.1690563999999999
8.928658500000001,-8.910031,1.6591817,0.7333699,-0.19085175,-1.2010134
9.264689,-9.000254,1.4660461999999999,0.77065015,-0.20043361,-1.2063366000000002
9.838014999999999,-8.864369,0.83800894,0.72113514,-0.20682152,-1.089225
10.306492,-9.092891,0.22555295,0.6301161999999999,-0.24141394,-0.8683013
9.825880999999999,-9.304414,0.18448761,0.50447,-0.3201981,-0.622908
