accx,accy,accz,gyrx,gyry,gyrz
6.833971000000001,-4.324972,0.6768025,-0.24980898,0.11562806,0.11410963
7.5182242,-4.346807,-0.279614,-0.32859313,0.0006457718,-0.15257668
7.625877,-4.695355,-0.43421245,-0.30995303,-0.0035953782000000003,-0.4128751
7.130124,-5.0487103,0.24962905,-0.18592992,0.1667313,-0.6167644
6.592952,-5.18789,1.2430983,0.073303826,0.41214204,-0.68914324
6.5563970000000005,-5.0904940000000005,2.0167990000000002,0.5300216,0.60589105,-0.6311285
6.87904,-5.1850843,2.098384,1.0548944,0.5345594,-0.5826956
7.5632734,-5.53324,1.6424129,1.5574270000000001,0.15289085,-0.62899923
8.662423,-6.1180663,1.2328128,1.8949214,-0.45500734,-0.8743924999999999
9.578664999999999,-6.77312,0.72684133,1.9385720000000002,-1.0474943,-1.3316687
9.993389,-7.306423700000001,0.8099968000000001,1.7187129,-1.3115276000000002,-1.855477
9.921016999999999,-7.734392,1.6501125,1.5206879,-1.2077155000000002,-2.2493978
10.107917,-8.474037,2.6485043,1.5206879,-0.92825335,-2.5464354
9.965711,-9.600442,3.4678097,1.7251008999999997,-0.6338687,-2.76523
9.210216,-9.810519000000001,4.0682279999999995,2.0620716,-0.41296235,-2.9270568
8.335787,-9.196952,4.2587485,2.4495869999999997,-0.30969122,-2.9430264999999998
8.552146,-9.066612,3.857011,2.8025274,-0.20216149,-2.666741
9.900551,-9.768419999999999,2.9002687999999996,2.8153033,-0.15744615,-2.3260527
11.651095,-10.6487875,1.9389682000000001,2.7503595,-0.5577548999999999,-2.0396616
13.004585,-11.530227,1.1410861,2.6960626,-1.1576768999999998,-1.9257438999999998
13.159642999999999,-12.447598,1.2656804,2.7546182,-1.5159231000000002,-1.7899922
12.071843,-12.416819,2.2143877,2.7897517999999994,-1.6250586999999999,-1.3785135
10.3659935,-11.180587,3.082985,2.5299767999999996,-1.6527395,-0.84618795
8.723446000000001,-9.736319,3.434109,1.767687,-1.783168,-0.32450905
7.291637400000001,-8.3619795,3.348808,0.7605272,-2.0770116,-0.004049164
5.662306299999999,-7.5403943,3.0301976,0.084997535,-1.9162493999999999,0.18277088
4.1229014,-7.1178565,2.0795078,-0.29293606,-1.1816403,0.4074122
3.9598086,-6.9053664,0.09553822,-0.9098924999999999,-0.33896038,0.7842986
3.4442123999999996,-6.4468955999999995,-0.83661073,-1.4885389999999998,0.45896924,1.1345687
3.1641576000000002,-6.4078800000000005,-1.1332235000000002,-1.9340866,1.1132058999999999,1.478992
1.7983328,-6.9194345,-0.39743748,-2.2178247000000004,1.4954156,1.930404
-0.11630075,-7.405534299999999,-0.67992455,-2.3003266,1.6338202,2.5840994999999998
-0.9261251,-8.485137,-2.3417304,-2.1651158,1.6045336000000001,3.168593
0.42599553,-10.4163,-4.2001867,-1.8680782,1.4549588,3.4672186000000003
2.1656032000000005,-12.713901,-3.1557782000000003,-1.5231313999999998,1.2957848,3.3139089999999998
4.4310737,-15.271760999999998,-0.51302,-1.2569686000000002,1.1020184,2.8268400000000002
3.5562322,-15.683017999999999,0.5451789,-1.2324817,0.90292865,2.1938963
2.3929663,-15.039330999999999,0.55482274,-1.4831983,0.7081149999999999,1.6748878
2.610762,-14.977666000000001,1.0525485,-1.7754537000000001,0.62611943,1.4528993000000001
2.984315,-15.846684,1.3151253,-1.9085349999999999,0.6319836999999999,1.4688691
3.0204866000000004,-15.670988000000001,1.5786791999999998,-1.7323439999999999,0.7033153,1.5748106000000002
3.4197342000000006,-14.989904999999998,2.250023,-1.3932440000000001,0.94712037,1.6653058999999997
4.5787096,-13.218004999999998,2.9199874,-1.1169584,1.1957076000000002,1.7025686999999998
6.9029717,-11.368253999999999,3.2025799999999998,-1.0025171,1.3107073,1.6775581000000002
9.228086,-10.109497,2.8783092,-1.0680018999999998,1.3027138,1.6232434999999998
10.871716000000001,-9.245401,1.9705621,-1.2276995000000002,1.1717618,1.4614165000000001
11.091014999999999,-8.988542,0.86313844,-1.4251835,1.0913718000000001,1.1968595
10.189177,-9.437033999999999,0.30747297,-1.531125,1.0546501,0.9461255
8.636872,-9.657252,0.75471944,-1.48161,1.0812663999999998,0.8098502
6.9061613,-8.943588,2.0102963,-1.2676152,1.1360872,0.7454476
5.97746,-7.3396935,3.2597632,-0.9854826999999999,1.1296992000000001,0.6480233
5.749301999999999,-5.945291,3.3825377999999997,-0.7528651999999999,1.0280339,0.5165476
5.9240785,-5.0703735,2.5021513,-0.57505107,0.70757395,0.38720128
6.24177,-4.495928,1.3351218999999999,-0.37437314,0.24551547,0.22856832
6.697444,-4.2963853,0.47659937,-0.12791517,-0.21652554,-0.03546509
7.357324,-4.2013739999999995,0.19786641,0.17123425,-0.5396558000000001,-0.42032763
7.9290886,-4.3337736,0.43812934,0.55611426,-0.5380501,-0.78284997
7.9968348,-4.693449,1.2288767,1.0346661,-0.27933994,-0.9952390999999999
8.037766,-5.333103700000001,2.1568022,1.5169529,-0.07492699,-1.0766937
8.392846,-5.837552,2.8166156000000004,2.0370436,-0.10473721,-1.1975228
8.903279,-5.9760237,2.9008625,2.4740741,-0.36451203,-1.4328105
9.341639,-6.452814,2.6260657000000003,2.7476892000000004,-0.7483274000000001,-1.9081860000000002
9.868162,-6.99308,2.6518946,2.6502824,-1.1289313,-2.639601
10.434467,-7.4778485,3.0696154,2.3489864,-1.3674131999999999,-3.443936
11.063606,-7.782774000000001,3.8548660000000003,2.0929291,-1.2157091,-3.9070592000000004
11.811736,-8.708095,4.5655513,2.0003045,-0.71265286,-3.9421926
11.647581,-9.592005,5.3100424,1.9960457999999999,-0.038728856,-3.7926178
10.386986,-9.324342999999999,5.446885,1.9742292000000001,0.6026971,-3.6020453000000003
9.585924,-8.326871,5.0651636,1.8890572,1.1195939,-3.364087
10.140536,-8.244702,4.29605,1.80015,1.42089,-3.125623
11.772998,-9.027031,3.432117,1.7367946,1.4437712,-2.8855355
13.735487,-10.154527999999999,2.460435,1.7064607,1.2457463,-2.6411892999999997
15.213054999999999,-11.586356,1.5222526,1.7421179,0.9034697,-2.4474404
15.250519,-13.459675,1.8441386000000002,1.8054733,0.4877148,-2.3015656000000004
13.513497000000001,-14.654803,2.6568742000000003,1.8592468999999998,0.056007615999999996,-2.1599672
10.793321,-14.254081,3.3572263999999996,1.8118612,-0.37941712,-1.9630067
8.658649,-12.689776,3.2218103,1.5898902,-0.69668305,-1.6872622
7.1241865,-11.175185,2.4994794999999996,1.1661591999999998,-0.815924,-1.3460503000000001
6.1277485,-9.936914,1.6363316,0.5603729000000001,-0.80953604,-0.91751957
5.447144000000001,-8.974598,0.9924254000000001,-0.18273596,-0.72277576,-0.44961426
4.818101,-8.3610115,0.6041816,-0.91256285,-0.5247507,-0.022689281000000002
4.483746,-7.7508163,0.39766732,-1.4981208000000001,-0.26017624,0.3270398
4.1406089999999995,-7.372733599999999,0.43980527,-1.8505203000000001,0.017680185,0.6576052
3.814969,-7.1295779999999995,0.3929747,-1.95805,0.22155209,1.0840065
3.4606748,-7.250227000000001,0.18750429999999998,-1.8686193,0.19334757,1.5950388999999998
3.2393262000000003,-7.723216000000001,-0.32526666,-1.6812407999999999,-0.015306537,2.113524
3.3438665999999997,-8.425034,-0.8746402,-1.4896036,-0.31714377,2.484546
3.6781449999999998,-9.547157,-1.4476014,-1.2952961,-0.5428498,2.7570965
4.0154495,-10.416884,-1.8596436,-1.0919478,-0.65676737,2.8672967000000003
4.3037977,-10.656917,-1.9296117,-0.945567,-0.73607516,2.8731433999999996
4.5169587,-10.368454,-1.1511799999999999,-1.0142282,-0.7845255,2.8401394
4.601292,-10.210015,-0.03610456,-1.2750677,-0.7855901999999999,2.8348336
4.673194400000001,-10.649600999999999,1.0427994,-1.4267892,-0.67964864,2.9008244999999997
4.296021499999999,-10.799142999999999,1.8465328,-1.3192595,-0.45235443,3.0264533
4.178543,-10.566398,2.2644935,-1.0600083,-0.23410101,3.1318537999999996
4.578547,-9.906823,2.3355532,-0.7411541,-0.1654223,3.2159612
6.0361557,-10.003597000000001,2.2036138,-0.53832936,-0.29530972,3.168593
7.8893924,-10.377216,2.1027796000000003,-0.60062015,-0.5848946999999999,2.9247704
9.579421,-10.780286,1.9215671000000003,-0.8257851,-0.8829969999999999,2.6213623999999998
10.639641000000001,-11.0123415,1.3022733,-1.1553031999999999,-0.96816903,2.307814
10.614042,-10.791787,0.40294415,-1.4688341999999999,-0.68710124,2.0443215
9.734604,-9.907321000000001,0.19498378,-1.7360616000000002,-0.08876745,1.8431026000000001
8.718812,-8.715459,1.2035076999999998,-1.8462616000000003,0.4249004,1.6365603000000002
7.934508999999999,-7.391609,2.016205,-1.7765182000000002,0.79007566,1.3879556999999998
7.78557,-6.665544000000001,2.1149132,-1.5816872,0.8379849,1.1356333
8.240881,-6.1612678,1.6091813,-1.3660866000000003,0.6287898000000001,0.8827875
9.308503,-5.893384999999999,0.41709867,-1.1191051,0.27904323,0.6389825
10.227666000000001,-5.701274400000001,-0.67213863,-0.8236558,-0.044593163,0.29084167
10.78403,-5.7863736,-1.016061,-0.47551495,-0.22451915,-0.16694075
10.947275999999999,-5.915737,-0.5886384,-0.021450097,-0.09889036,-0.62421703
10.793741,-5.973083,0.42780554,0.4773300999999999,0.29555404,-0.8845154000000001
10.4722,-6.1354485,1.4400836000000001,0.95375264,0.70064497,-0.92231923
10.519959,-6.0353327000000005,2.3319716,1.4269986000000001,0.81510365,-0.9606466999999999
10.410727,-5.8652678,2.9274096000000003,1.8651112,0.5095489000000001,-1.1118271
10.582506,-6.0407910000000005,3.1056340000000002,2.0892115,-0.18990928,-1.5110712
11.051338000000001,-6.579975,3.1975617,1.9492186000000002,-0.9660397,-2.1503851000000003
11.416004,-6.7363353,3.7236252,1.56008,-1.3024693999999999,-2.7726824
11.765528999999999,-6.816196400000001,4.3496513,1.2784711000000002,-1.1454421000000001,-3.1208231
12.042682000000001,-7.0911274,5.111161,1.2577192,-0.57051325,-3.2980788
11.727653,-7.8131323,5.7574515,1.447227,0.26626742,-3.4269016000000003
10.233709,-7.849754300000001,5.741448999999999,1.7165837,1.1477983,-3.4391363
8.726778999999999,-7.369008,5.1030016,1.9630591,1.8877307,-3.273592
9.203599,-7.461529700000001,4.229769,2.1408384,2.2337422,-3.0212696
10.805883999999999,-8.695089,3.1845946,2.279243,2.2571645,-2.7471308999999997
12.966536999999999,-10.092680999999999,1.9516861,2.4325526,1.840886,-2.5954268
14.222851,-11.347683,1.1394006,2.5502052,1.1382165000000002,-2.6140494
13.786244,-12.467986999999999,1.7705026000000001,2.5518110000000003,0.49942598,-2.7167795
12.199425,-12.663747,3.2853332,2.4474752,0.025673794,-2.7471132000000003
10.666418,-12.040622,4.535154299999999,2.2201636000000002,-0.21333160000000004,-2.5837157000000004
9.184664999999999,-10.960453999999999,4.819183,1.8422124,-0.25804693,-2.2004240000000004
7.8523784,-10.3742485,4.1050024,1.4291279,-0.22823670000000001,-1.69365
6.919147,-9.938494,2.9039083,0.89306754,-0.18458602,-1.0421011
6.4507837,-9.44934,1.7221396,0.23033111,-0.09995501,-0.46291366
6.3770614000000005,-8.962972,0.815647,-0.5761331999999999,0.0394968,-0.09402089
6.648209599999999,-8.482599,0.18443015,-1.2058653999999998,0.24071582,0.12156218
6.7567434,-8.127472000000001,-0.3041115,-1.6668593,0.44566983,0.47289696
6.272416000000001,-8.006738,-0.71759015,-1.9234401,0.47335073,1.0770950000000001
5.093597,-8.37983,-0.8708860999999999,-1.9585736,0.21944025,1.8276738999999997
3.8388057,-8.969465,-1.233914,-1.7791712,-0.22130775,2.5324728
3.0763192000000004,-9.7771635,-1.5952469999999999,-1.4204013,-0.73075193,3.024324
2.8256943,-10.475724000000001,-1.9234729,-0.8955110000000001,-1.1443775,3.0978024
3.1710339,-10.9033375,-2.276426,-0.49946088,-1.4062642,2.811935
4.0139556,-10.592101,-2.5619204,-0.5745275,-1.511682,2.4744406000000003
4.72014,-9.959802999999999,-2.374483,-1.1712556,-1.4291629,2.3764927000000005
4.9507976,-10.026381,-1.3761966,-1.9181168000000002,-1.1981336,2.5117032999999998
4.4008400000000005,-10.783292999999999,-0.44369346,-2.329072,-0.9575225,2.735821
3.6058784,-11.292339,0.29681396,-2.2588049999999997,-0.78984874,2.9141414
3.4823282,-10.924732,1.1134571000000002,-1.7903588,-0.6588792,3.0333822
3.9865947,-9.93585,1.8190761999999998,-1.1520919,-0.62961006,3.0674683999999997
5.8760796,-9.093474,2.4959936000000003,-0.58410937,-0.7238404,3.0147421000000003
8.834739,-8.834547,2.6612222,-0.22903955,-0.94687605,2.882202
10.866389999999999,-9.074571,1.655169,-0.13217378,-1.1949396,2.6852415
10.973345,-9.851153,-0.18513882,-0.2780135,-1.2795707,2.4632704
9.943561,-10.591364,-1.282593,-0.52768284,-1.0400417,2.184332
8.716982000000002,-10.804793,-0.5764279999999999,-0.74645984,-0.55827844,1.9431797
7.61903,-9.838647,1.4902661,-0.90243995,0.0996583,1.7254498999999999
7.166861,-8.739545,3.4240722999999997,-0.9482025,0.6910805999999999,1.4832506
7.0078187000000005,-7.7816534,4.625856400000001,-0.91947436,1.0823311000000002,1.225064
7.281514,-7.1759973,4.666768599999999,-0.86303043,1.0908482,0.98501146
7.9367113,-6.926349,3.7674870000000005,-0.7581885,0.82840306,0.6693163000000001
8.644476,-6.821501700000001,2.5170624,-0.60327303,0.43767622,0.26794294
9.207535,-6.663322,1.4081736999999999,-0.33763394,0.09327039,-0.26860616
9.454702000000001,-6.26599,0.9628713,-0.012915436,0.08688249,-0.7274706999999999
9.715584,-5.8376,1.2492849,0.37779397,0.42278856,-1.029308
9.650642999999999,-5.6105433,1.818875,0.8212123,0.77464694,-1.1123507
9.634967,-5.3987713,2.3939814999999998,1.3466263,0.80393356,-1.175165
10.013864,-5.610362,2.6995103,1.8028203999999999,0.49464375,-1.3630673
10.599628,-6.137392500000001,2.6676865000000003,2.1163688,-0.13507102,-1.7021673
11.373933000000001,-6.7629399999999995,2.5823092,2.1009226,-0.9053546,-2.126963
11.888552,-6.8743563,2.8778207,1.8390185000000001,-1.4775957,-2.5070433999999997
12.097547,-6.8366622999999995,3.5254907999999996,1.5973427,-1.6692504000000001,-2.69601
12.567126,-7.4938226,4.3894625,1.5334637,-1.5984423,-2.797693
12.482717,-8.770957000000001,5.0544953,1.630888,-1.2524308000000002,-2.9494145
11.2614155,-9.213453,5.209361599999999,1.80762,-0.72223467,-3.1447692000000003
9.443008,-8.5506525,4.987946,2.0375671000000004,-0.23462461,-3.2512342999999997
9.286534,-8.271967,4.263058,2.2787194,-0.0052010813,-3.1362520000000003
10.317899,-8.98225,3.3916452000000006,2.3415337000000003,0.14489724,-2.7561717
11.353917,-10.087873,2.2967672,2.414471,-0.06534512,-2.4176126
11.880412,-11.222705,1.3613719,2.5565932,-0.55401987,-2.1844542000000002
11.720699,-12.263092,1.5092568000000002,2.6108903999999997,-1.0528,-2.077989
10.843463999999999,-12.564647,2.5941558,2.519348,-1.3988116000000002,-2.1051287999999997
9.750885,-11.642975,3.569774,2.1509612000000002,-1.3881651000000002,-2.2312987
8.864379,-10.620344000000001,4.1360025,1.4168931999999999,-1.1039033,-2.3441517000000003
7.9634213,-9.8630295,4.081271,0.51194,-0.7515039000000001,-2.1855187000000003
6.6920333,-9.449952,3.737684,-0.518101,-0.42146212,-1.6617104999999999
5.3060875,-9.269171,2.8646529,-1.319242,-0.23675391,-0.8781275
4.5995297,-9.101778,1.7159052,-1.7791712,-0.18245672,-0.026406832
4.4241495,-8.624844,1.4336096,-2.0080712,-0.17819811,0.83967793
4.501501599999999,-8.249959,1.0287693000000002,-2.0102005000000003,-0.1654223,1.6195433000000001
4.646954,-8.085277,0.53855175,-1.9548385,-0.16648696,2.4174729999999998
4.696753500000001,-8.33367,-0.33147246,-1.8334683,-0.25698227,3.0940673
4.2695417,-8.827613000000001,-1.6693141,-1.5476184,-0.32457888,3.753086
3.7191050000000003,-9.775583000000001,-3.178504,-1.0488207,-0.23621286,4.2785
2.2442957999999997,-11.240116,-4.235543700000001,-0.47497390000000006,-0.027541295,4.52337
0.9713468000000001,-12.675612,-4.2058363,-0.18858282,0.28012535,4.4296803
0.11834059999999999,-13.503738,-3.0552123,-0.32751104,0.56438714,4.0730224
-0.1352724,-13.850122,-1.7374914000000001,-0.81566215,0.65966463,3.650356
0.69659775,-13.871325,-0.10998962,-1.4193192,0.5484173000000001,3.3362842000000006
1.8634073,-14.363975,1.0763278,-1.7871473000000002,0.34932765,3.0887442000000003
2.8061671,-14.643426000000002,1.6612791,-1.7632014999999999,0.15981979999999998,2.8390923
3.711836,-14.386289000000001,2.4655009999999997,-1.457123,0.15769049999999998,2.5910285
4.6135019999999995,-13.618976000000002,3.559086,-1.1510272,0.35571554,2.3583937
6.277156400000001,-13.235492,4.292823,-0.9487435,0.68734556,2.1385520000000002
8.587311999999999,-13.231709,3.8530559999999996,-0.80608034,0.95192003,1.9091284
10.303169,-12.890775,2.2968919999999997,-0.73368406,1.1302403,1.6860753000000002
11.120368,-12.329095,0.43279505,-0.67938685,1.251087,1.4875093000000001
10.883754,-11.83269,-0.75548553,-0.6517059000000001,1.2627981000000001,1.3453871000000002
9.940036,-11.060808999999999,-0.68783504,-0.63254225,1.1691087,1.2266698
9.230967999999999,-9.728264,0.6298666,-0.57929224,0.97534233,1.1202221
8.419537,-8.058759,2.5358807999999997,-0.53085935,0.8182976,1.0440909
7.8812046,-6.5949054,3.5697449999999997,-0.4776268,0.6894749,0.9445372999999999
7.4438796,-5.7681775,3.6006017,-0.45633379999999996,0.5074196,0.78696895
7.4016743,-5.400936,3.237899,-0.43771112,0.20399408,0.50537753
7.601868,-5.357984,2.6739306000000003,-0.3578623,-0.1680752,0.070999995
7.9201913,-5.5552472999999996,2.0496187,-0.15770794,-0.38793433,-0.51560515
8.159966,-6.010768,1.6184517,0.11960741,-0.19842649,-1.0985103
8.087556,-6.320348,1.1355316999999998,0.49544662,0.36475635,-1.5829089
8.064869,-6.272492400000001,0.8759043,0.9202423000000001,0.9040107,-1.8543949
8.182577,-6.3684235000000005,0.79702014,1.2662538,1.0264456,-2.035403
8.481717999999999,-6.6055837,0.74837,1.5398517,0.7570889000000001,-2.3090181
9.154862,-7.016227199999999,0.835404,1.6532456999999998,0.33281684,-2.7242319999999998
9.876447,-7.160558999999999,0.9354720999999999,1.6213062,-0.14358823,-3.2746565
10.68741,-7.11935,1.5061349,1.5941663000000001,-0.46778315,-3.6589954
11.527726,-7.018553999999999,2.5112112,1.6282351000000002,-0.66048497,-3.8325162000000006
12.407424,-7.6665597000000005,3.6892636,1.7714218999999998,-0.6775194,-3.8314687999999997
12.578361,-8.727103999999999,4.511902,1.9678586999999998,-0.7467216999999999,-3.7547965
11.570525,-9.389569999999999,4.7320150000000005,2.0956168,-0.7850490999999999,-3.5786057000000002
10.559368,-9.618302,4.101095,2.2622435000000003,-0.81431824,-3.2682512000000004
10.539574,-10.032989,3.0508928,2.2499912,-0.657291,-2.9605669999999997
11.488538,-11.169267,2.1013908,2.277672,-0.51356316,-2.8381498
12.491717999999999,-12.287521,1.3783514,2.2547734,-0.39645153,-2.7689473999999996
12.812935000000001,-13.797373,1.2715508999999998,2.1424615,-0.2175902,-2.5607994
11.945122,-14.750207000000001,1.7789589,2.0285436999999997,-0.17659241,-2.1429152
10.357258999999999,-14.523658,2.4131062,1.8262602,-0.57157785,-1.5743916999999998
8.563189,-13.326757999999998,2.7618935000000002,1.4371215,-0.96336937,-1.0559068
7.083686,-11.832125999999999,2.6733274,0.8638158000000001,-1.1315841999999998,-0.69127256
5.766626400000001,-10.57201,2.5798767000000002,0.08609709,-1.1129615,-0.37559485
4.7166734,-9.5879345,2.238502,-0.7209081999999999,-0.9138718000000001,0.11145672
4.7279167,-8.669261,1.5451986,-1.1669969999999998,-0.71052355,0.7060729
4.8483157,-8.100255,1.3155947000000001,-1.1707145,-0.51302207,1.3331523
4.033176399999999,-7.8492947,0.49089757,-0.98972386,-0.33629003,1.9873716000000001
2.3571392999999996,-8.131083,-0.37558323,-0.86835366,-0.29848620000000003,2.6506665000000003
0.63528705,-8.528528999999999,-1.2758318000000002,-0.7219554,-0.21491985,3.2388773
0.093335554,-9.504885,-2.5110195,-0.41322416,-0.014765485,3.605117
1.0221901,-10.945055,-3.1122804,0.025411992999999997,0.2870543,3.7046707000000003
2.3219352000000004,-12.862867999999999,-3.514037,0.29316294,0.6240076,3.4991758
3.0390081,-14.735488,-3.4975072999999997,0.11856022,0.8571661,3.078656
2.5474975,-15.390474,-2.3156624,-0.53298867,0.9348856,2.6660953
2.2329187000000004,-14.9253,-0.10466492,-1.4693403,0.9040107,2.3041139
2.5297232000000003,-14.888476999999998,1.7002758999999998,-2.119842,0.74750704,2.0155935
2.7800702999999998,-14.487181,2.1208222,-2.1613634,0.6665936,1.9176456000000002
3.2234477999999998,-13.839549,2.146287,-1.7887355999999999,0.73846626,2.0251753
4.2634606,-12.80827,2.716107,-1.2468283000000002,0.94074994,2.2178771
5.99691,-11.8761215,3.3731525,-0.86303043,1.156333,2.4052558
8.101939999999999,-11.304109,3.3109224000000004,-0.7688001,1.177626,2.4238784
9.907658,-10.798031,1.7826269000000001,-0.78531086,1.0929775,2.2753682
10.534477,-10.474402,-0.5554548,-0.84119636,0.8651597,2.0219815
10.025642,-10.246369,-2.4411566000000002,-0.95670223,0.58941513,1.761683
8.8634205,-9.581825,-2.3983482999999994,-1.0956479,0.42865285,1.5774983999999999
7.529515299999999,-8.570772,-0.04857356,-1.2159535,0.37487927,1.4353588
6.0113235000000005,-7.610784,2.4179044,-1.1765614,0.37009707,1.2660793
4.8875237,-6.647798,3.9047036,-1.0871307,0.3498687,1.0584723999999999
4.6863339999999996,-6.1864349999999995,3.9333574999999996,-1.0062171999999998,0.27799603,0.8194670000000001
5.4016066,-6.148492,2.56871,-0.8417199000000001,0.19601792,0.49900708
6.4965897,-5.958957700000001,1.2082674999999998,-0.51008993,0.13639748,0.0742114
7.5869284,-5.8213577,0.4217913,-0.025673794,0.28119,-0.35376078
8.245716999999999,-5.9666095,-0.04701254,0.5380501,0.5824862,-0.63641685
8.582505000000001,-6.32935,-0.24929385,1.0735694,0.78424627,-0.75939274
8.853826,-7.039911,-0.02300349,1.5143349,0.7555006999999999,-0.8962091
9.081494000000001,-7.3866005,0.7876061,1.7597281999999999,0.41374776,-1.2001582
9.766351,-8.089672,1.7536186000000002,1.7048900000000002,-0.19895008,-1.7788046999999998
10.418627,-8.746592999999999,2.2444777,1.3109866000000001,-0.82177085,-2.5102024
10.990956,-9.187327999999999,2.7649007,0.84679884,-1.1411661,-3.1192
11.291869,-9.070768,3.7914769999999995,0.5699896,-1.0932568,-3.4114379999999995
11.716591000000001,-9.213999000000001,4.749608,0.60884064,-0.7967428000000001,-3.4444422999999995
11.369297999999999,-9.330989,5.4063754,0.8744798,-0.34906584,-3.3661816
9.914810000000001,-8.636288,5.2394996,1.2486959,0.17898351,-3.2245831000000003
8.906871,-7.729489,4.2636805,1.6580628000000002,0.52234215,-3.0079352999999998
9.236945,-7.725706,2.9273808,1.9396542,0.65914106,-2.680023
10.655489999999999,-8.296435,1.4030021000000001,2.2020993,0.50370204,-2.3920436
12.028221,-9.202009,-0.017851168,2.4522922,0.11990411599999999,-2.1870894
12.640561,-10.558516000000001,-0.43947008,2.6205072,-0.33203143,-2.0529435
12.054471000000001,-12.123375999999999,0.71077144,2.593891,-0.66153216,-1.9326379
10.38849,-12.701997,2.3188229,2.2500086,-0.8632921999999998,-1.7287661
8.54459,-12.16922,3.7425396,1.6575391,-0.99476784,-1.4184116000000002
7.0978694,-11.130462,4.324713,0.91174257,-0.98625064,-1.0303377
6.138934,-10.232876,4.1881194,0.10419615,-0.8803266,-0.8190132
5.0920453000000006,-9.705184,3.434827,-0.76667076,-0.58222437,-0.6758264
4.542652599999999,-9.344617,2.3267138,-1.5348077,-0.28038713,-0.44638540000000004
4.27546,-8.926369000000001,1.6725988,-2.0011246,-0.12388347,-0.060440753
4.0701237,-8.605278,0.8979214,-2.0112302,-0.14039429,0.4399277
3.402831,-8.280261,-0.04846822,-1.7370913000000001,-0.25590017,1.151638
2.4498142999999994,-8.25968,-1.4292905,-1.2611923,-0.5263215,1.9368268
1.5040375,-8.634267,-3.1670406000000004,-0.62133723,-0.7717321999999999,2.6884704
1.2119161,-9.594399000000001,-4.092619399999999,-0.0075747290000000005,-0.8579689,3.0557573
1.6661153999999998,-10.586528999999999,-4.6771400000000005,0.46458918,-0.6940126999999999,3.0222297
2.9076622000000003,-11.738599,-4.628327400000001,0.48961720000000003,-0.32084388,2.6219208
3.4942800000000003,-12.937165,-3.8828205999999996,-0.040561453,0.13320352,2.1359165
3.0661680000000002,-13.494334,-2.7010045,-0.86088365,0.52447146,1.7946872
2.5938494,-13.703423499999998,-0.7639611,-1.4831633999999998,0.7453778,1.6184962
2.4076092,-14.2468605,1.0880976999999998,-1.5891048,0.8545132,1.5583347
2.0027115,-13.962821,2.1978962,-1.2505285,0.84440774,1.6296837
2.2281687000000003,-13.370496,3.0896310000000002,-0.82520914,0.79541636,1.7611593999999997
3.4583287000000005,-12.463094,3.7002099000000004,-0.5952445,0.83374375,1.8718830000000002
5.978312,-11.915989,3.5786517,-0.56065214,0.8145800999999999,1.9011523000000001
8.617526,-11.47039,2.4055982000000005,-0.65327674,0.6793694,1.8383379000000002
10.167475999999999,-10.953214,0.2608818,-0.7671944,0.43823472,1.7510365
9.928725,-10.4727745,-1.7410157,-0.89121747,0.19336502,1.6334013
8.561254,-9.637571000000001,-2.2099822000000002,-1.0242988000000002,0.028344147000000004,1.5503585
6.994161999999999,-8.356358,-0.8368405000000001,-1.1020184,-0.027000242999999997,1.5349298
5.553982700000001,-7.113384,1.2190796,-1.0732728,-0.047769662000000004,1.5679165000000002
4.3855260000000005,-5.8359239999999994,2.3931577,-0.8853706,-0.08768534,1.6142375
4.051228500000001,-5.2254505,2.045357,-0.62611943,-0.12547173,1.6105026000000002
4.3999586,-4.959493,1.0722767,-0.4185125,-0.21172589,1.4545398999999999
5.0481076,-4.832628700000001,0.108993635,-0.33707544,-0.3107384,1.140468
5.723167,-5.041144999999999,-0.59753525,-0.19973548,-0.3937812,0.5889788
6.3684044,-5.4834685,-0.7570945,0.10634291,-0.28304005,-0.06948156
6.871838,-6.005271,-0.7619403,0.5731835999999999,0.25350907,-0.5762728
7.111928,-6.6780990000000005,-0.25735754,1.038977,0.7831816,-0.81156063
7.319907700000001,-7.476507700000001,0.590889,1.4866714,1.0738313,-0.9355838
7.7165213,-8.093235,1.5327773999999998,1.7171596000000002,0.8853880999999999,-1.0665358
8.555048,-8.894086,2.3687081,1.603783,0.25565583,-1.4476808
9.734585000000001,-9.450374,2.6599677,1.2466015,-0.49544662,-1.9842648999999997
11.032328,-9.695922999999999,2.5329216,0.7440861999999999,-1.2316439,-2.6501951
11.757887,-9.061383,2.8450203,0.39379865,-1.5377398000000002,-3.0425277000000004
12.763902,-8.871225,3.7135217000000003,0.44598398,-1.4664081,-3.1473869999999997
12.91239,-9.183621,4.669354,0.7595149,-1.0746167,-3.108536
11.3258,-8.783196,4.953037999999999,1.1582179,-0.4246386,-2.980237
9.607308,-8.063519,4.157895,1.4302449,0.29717723,-2.7540072999999996
9.356817999999999,-8.684391999999999,2.6561081000000004,1.5457508999999998,0.89870495,-2.461752
10.224457000000001,-9.677574,0.5463951,1.5697142,1.3218948999999998,-2.1588675999999998
11.531443,-10.579595,-0.89011633,1.519152,1.471487,-1.9017456999999998
11.7397,-11.2182045,-1.2546096000000002,1.476025,1.3282828000000002,-1.7479122999999999
12.238709,-12.438749000000001,-0.61291564,1.4110812,0.9045518,-1.7154318
10.3750725,-12.616945,1.5660568000000001,1.2806528,0.2998301,-1.7308778999999999
8.39252,-11.663746000000002,3.6418872,0.9894795,-0.24684192,-1.7787697
6.606368499999999,-10.167562,4.698142,0.55457836,-0.65940285,-1.7984745999999998
5.23158,-8.925833,4.335832,0.008412487,-0.8627511,-1.7234078999999998
4.1488643,-8.080622,3.1392868,-0.7011685999999999,-0.804719,-1.459392
3.5142286,-7.351339,1.7982179,-1.5140382,-0.5220629,-1.0968696000000002
3.2277,-6.995139,0.6200408000000001,-2.1730397,-0.12653637,-0.7551167
3.091125,-6.597280499999999,-0.29718748,-2.532368,0.27269024,-0.3830125
3.02969,-6.3437824,-0.9349931999999999,-2.568566,0.4605924,0.19718729999999998
3.001515,-6.3500643,-1.5352675,-2.2278605,0.2088112,1.0915115
2.9905686,-6.921407,-1.9951265999999999,-1.4975273999999998,-0.32084388,2.1348693
3.3103763999999996,-8.107782,-2.5903826000000003,-0.3567453,-0.8393288000000001,3.0903847
3.9430777999999997,-10.052037,-2.8591366000000003,0.77229077,-1.0320306000000001,3.424144
4.5868883,-12.230721,-2.8529212000000004,1.4579433000000002,-0.88669705,3.0909257
4.3396153,-13.532995000000001,-2.958381,1.1443775,-0.53164476,2.230147
3.8954712999999996,-13.701556,-2.4127712000000003,-0.20769417,-0.059463367,1.4880852
3.659298,-13.661698000000001,-1.1253132,-1.4724993999999998,0.28918362,1.1734896000000001
3.2415287,-13.922666,0.31335312,-2.2071085,0.47071528,1.1005523000000001
2.2347479999999997,-14.221127,1.4527059,-2.1522877,0.43610543,1.2778254
1.1110532,-13.906319,2.898564,-1.4038206,0.26204374,1.7510713
1.2628552,-12.849383,4.523240599999999,-0.5797984,0.13587388,2.2232354
3.7777245,-12.165571,5.2789470000000005,-0.05386086,0.05921902,2.5053678
8.017521,-12.013395,4.675253400000001,0.03396411,0.0315381,2.4904625
11.775641,-11.470907,1.8581495,-0.12945107,-0.057334065,2.2530456
12.354549,-10.436689,-2.6343112,-0.29977775,-0.17283995,2.001247
10.062735,-9.695416,-4.8563795,-0.44882888,-0.19999728,1.7510713
7.497960000000001,-9.1170435,-3.6037907999999996,-0.59416246,-0.1622109,1.5226951000000002
5.385105599999999,-8.513072,-0.6687101,-0.7075564999999999,-0.08820894,1.3113531
3.3967017999999998,-7.4545,2.5251741,-0.78525853,0.01823869,1.1750953000000002
2.2886462000000005,-6.4772735,4.2676067,-0.8337089,0.13002703,1.1117399
2.812076,-5.94781,3.9650373,-0.8842885,0.19922933,1.0505136
4.35511,-5.521546400000001,2.1095118999999998,-0.9401565000000001,0.24129176,0.90680325
5.921866400000001,-5.166275499999999,0.5139202,-0.9657256,0.26789057,0.66032785
7.0477924,-4.717496400000001,-0.33813790000000005,-0.8204094999999999,0.27640778,0.29567623
7.708361999999999,-4.7244980000000005,-0.33774525,-0.47013932,0.43771112,-0.10300933599999999
7.9880238,-4.8382025,-0.19431342,0.0808262,0.7283608,-0.40269983
8.099508,-5.0863190000000005,0.13354857,0.75846773,0.9317091000000001,-0.6145653
8.488364,-5.9889235,0.518517,1.3461375,0.8827351999999999,-0.8493296
8.760164,-7.241608,0.97867304,1.6788497,0.52075386,-1.1575547
9.219267,-8.491745,1.3917016000000002,1.6187056,-0.12812462,-1.667505
9.991521,-9.397299,1.7826171999999998,1.2641768,-0.8355938,-2.2818085999999997
10.8524275,-9.95985,2.2440374,0.9106953999999999,-1.2976522,-2.7241797
11.32739,-9.878735,3.0733507,0.8218056999999999,-1.4850309,-2.8625844
11.8524475,-9.93384,4.1633252999999995,1.0070549000000002,-1.4488328000000001,-2.8513968
11.535608,-9.665737,5.0887227,1.3067628999999998,-1.1448662,-2.796576
10.100007000000002,-8.353964,5.5390816,1.6218996,-0.663644,-2.7736772999999997
9.450258999999999,-7.551599499999999,4.995051999999999,1.7778796000000001,-0.18083356,-2.6677532000000004
9.939596,-8.080852499999999,3.5220047999999995,1.7629744999999999,0.20561723,-2.533066
10.970817,-9.283737,1.6140176000000002,1.7826618000000003,0.2689727,-2.4505644
12.046397,-10.373445,-0.0023750481,1.8279182,0.16941911,-2.4324653
12.174975,-11.60233,-0.26293126,1.8071488000000002,0.059236474000000004,-2.4223425
10.849449,-12.382819999999999,1.035971,1.6549038,-0.059986967999999995,-2.3254592
8.957809,-12.133986,2.8332696,1.3142154,-0.22874285,-2.0837833999999997
7.4073343,-10.940199,4.0685720000000005,0.7696553,-0.6828076999999999,-1.7856811999999997
6.370607,-9.668649,4.4718614,0.2570172,-1.4355159,-1.4944905000000002
5.871215,-8.836127000000001,4.017154,0.028640852999999997,-2.0407786,-1.1468908000000002
5.1198760000000005,-8.4036,2.5758834,0.044087015,-2.216446,-0.7024078
4.856763,-7.9430227,1.5615079,0.07283259,-2.01788,-0.0630762
4.7400694,-7.527360400000001,0.9551716,-0.038414698,-1.609054,0.70397854
4.328468,-7.350247,0.19128715,-0.09056514,-1.0777931,1.4817147
3.468317,-7.389378,-0.70989996,-0.08684758,-0.4209036,2.1769316
2.3141396,-7.7889605,-2.0262512999999998,-0.20500638,0.031031952999999998,2.7720716
1.1190212,-8.612882,-3.4951036,-0.39186132,0.38076103,3.2517054
0.8144212,-9.828649,-4.300848,-0.5542293,0.71132636,3.5838589999999995
1.3223176,-11.882394999999999,-3.4478227999999995,-0.5786988000000001,0.9285325999999999,3.7196282999999997
1.5398548,-13.728669,-1.6169481,-0.6069208,1.0568143,3.5391612
0.8141626999999999,-14.43581,-0.1756578,-0.83582073,1.0946007,3.0238702
-0.16947117,-14.487658999999999,0.14160267,-1.3356656,1.0754545,2.32333
-0.50308883,-14.306313000000001,0.21823627,-1.9068595000000002,1.0041053,1.7436188000000001
0.8194969000000001,-14.924332999999999,1.0076333,-2.2848105,0.8625068000000001,1.444993
2.2164943,-15.007736999999999,0.9461023000000001,-2.2629938,0.84121376,1.4316761
3.4128485,-14.46749,0.45909294,-1.8424394,0.9684483,1.5594341999999999
4.642654,-13.34164,0.34216973,-1.2041899,1.2729385,1.6962506000000002
5.9920735,-12.168463000000001,0.68803614,-0.6111794,1.5875515,1.8314612000000001
7.947208,-11.589976,1.040635,-0.27101472,1.7451198,1.9288855999999999
10.108213000000001,-11.127694,0.5917413,-0.15976743,1.654607,1.8378491000000001
11.710653,-10.764617999999999,-0.42738417,-0.18531907,1.3011605,1.5189774999999999
11.637315,-10.404950999999999,-1.0887008999999999,-0.26729718,0.74221873,1.1043047
10.311003,-10.355189999999999,-0.56161267,-0.431777,0.3253992,0.8014203000000001
8.230921,-10.070232,0.9334226000000001,-0.62660813,0.28761279999999995,0.6661922
6.39475,-8.901527,3.1236575,-0.76023054,0.3440393,0.6140243000000001
5.208011,-7.1492877,4.631516,-0.71762705,0.31848767,0.6060481
5.0199226999999995,-5.9372087,4.957597,-0.5009793,0.097022854,0.6204122
5.324293,-5.489129,3.9032,-0.27740264,-0.23511331,0.60020125
6.05394,-5.199699,2.060699,-0.12676327,-0.5348212,0.45912632
7.235890400000001,-4.682915,0.4643219,0.011641346,-0.7424281999999999,0.16688839
8.221679,-4.2785153,-0.4049457,0.16282177,-0.75785685,-0.23713788
8.248292999999999,-4.1147323,-0.96969956,0.36882296,-0.41132173,-0.63690555
7.7962008,-4.51534,-0.790824,0.65147907,0.020909045,-0.8743401
7.3982654000000005,-5.1333504,-0.35631466,1.103432,0.24502677,-1.0739534
7.3691807,-6.0376406,0.33147246,1.5436739,0.09862856,-1.3715146999999999
7.663447,-7.0100217,1.1306665,1.7896081999999998,-0.37564722,-1.8463488999999997
8.244894,-7.976876700000001,1.6187197,1.6261756,-0.9526879999999999,-2.5128202
8.975202000000001,-8.433911,1.7152444,1.1997917,-1.2880530000000001,-3.224548
9.827701,-8.384715,2.0264811999999996,0.8867669,-1.2438787,-3.700447
10.632439999999999,-8.315608000000001,2.5586450000000003,0.8143881,-0.83877033,-3.8622739999999998
11.353755,-8.869741000000001,3.2261102000000004,0.9485341,-0.36128315,-3.8931489999999997
11.257603999999999,-9.186533,3.701589,1.1630526,0.16676621,-3.8446983999999995
10.256186,-8.589945,4.0174227,1.4015343,0.66982245,-3.5785358
10.303993,-8.528443,3.6491466,1.3733298,1.2287642,-3.145223
11.506294,-9.417937,2.6033497000000003,1.488312,1.5987216,-2.6820998
13.000380499999999,-10.793109,1.2059882,1.6831431000000001,1.4310478000000002,-2.1982247999999998
14.077054,-12.209261,0.011789049,1.8220888,0.7411541,-1.7877932
14.166501,-13.747688,0.39208403,1.8343235,-0.09245009,-1.5205657
12.788886999999999,-14.623047,1.9225248,1.6756906999999999,-0.8201476999999999,-1.3438337
10.504589,-14.301649,3.1784656000000004,1.3275498,-1.288594,-1.2480152
8.458695,-12.852036,3.5678777999999998,0.8830667999999999,-1.5329226,-1.1953062
6.4313235,-11.519874,3.452075,0.326778,-1.6521636000000002,-1.0457314
4.587280799999999,-10.301139,2.469638,-0.13952161,-1.651099,-0.76679295
3.3144562000000004,-9.230269999999999,0.96659666,-0.515867,-1.4807546999999999,-0.39948842
2.348166,-8.440941,0.6460226,-0.8006698,-1.1586891000000001,0.010384709
1.669295,-7.765439999999999,-0.40639179999999997,-1.0034771,-0.7487986,0.4830897
1.4197329,-7.2164779999999995,-1.4432153,-1.0604446,-0.37725290000000006,1.0058333000000002
1.4022553,-6.81407,-2.0809443,-1.0322226,-0.10787880400000001,1.6696517
1.5527356,-6.969952,-2.5338507000000003,-0.91085243,-0.01844813,2.3430521
2.2361557,-7.803,-2.7431134999999998,-0.6734353,-0.07274532,2.9600086
3.1004240000000003,-9.458888,-2.645794,-0.34286994,-0.07702138,3.2708867
3.5129832999999997,-11.1532545,-2.284078,-0.057002455,0.03848451,3.3161256000000003
3.57869,-12.158072,-1.4610376,-0.0559378,0.20031144,3.1101243
3.5058296,-12.550118,-0.43597454,-0.41100758,0.25089110000000003,2.711945
3.2379662999999996,-12.763106,0.19167979,-0.9081821,0.20617574,2.37658
3.247639,-13.206043,0.8367351999999999,-1.1935084999999999,0.10396926,2.1918716000000003
3.0045889999999997,-13.579414000000002,1.3478302,-1.0806555,0.024644048999999998,2.2099533
2.9665596,-13.547445999999999,1.6000353999999999,-0.695793,0.02677335,2.3228237999999997
3.3776152,-12.962102999999999,1.9279357,-0.38224456,0.18807667,2.397873
4.5986769999999995,-12.09318,2.2945838,-0.35829863,0.47286206,2.373927
6.698717599999999,-11.582717,2.3045053,-0.5217138,0.6836629,2.2818259999999997
8.716302,-11.466435,1.4726542999999999,-0.71867424,0.7363719,2.141292
10.223892,-11.090192,0.112623245,-0.86879,0.70230305,1.9645776000000001
10.405401,-10.513035,-1.3362423,-0.9672789,0.59423226,1.7766578999999998
9.564328,-9.917339,-1.4972476000000001,-1.038593,0.54367006,1.6675400000000002
7.997198599999999,-9.001392999999998,0.08323202,-0.96141464,0.4686209,1.6467705000000001
6.564614,-7.9998130000000005,1.7300502,-0.80330527,0.4169766,1.6808393
5.917796599999999,-6.791057,2.4135275000000003,-0.6957755,0.49363148,1.6946796999999998
5.9992185,-5.946948,1.7157903,-0.5233021,0.4973665,1.6563523999999998
6.404135,-5.50201,0.57375604,-0.39767328,0.45582765,1.459392
6.799782,-5.295658,-0.27178976,-0.39660862,0.4036772,0.97871083
7.210492599999999,-5.3548617,-0.48684657,-0.3689277,0.35203290000000004,0.21055652
7.652165400000001,-5.63416,-0.48044926,-0.20497146,0.41165337,-0.64912283
7.8897949999999994,-6.061209,-0.19558713,0.16817993,0.7699170999999999,-1.2080646000000002
7.672717,-6.7415449999999995,0.21392672,0.6009691999999999,1.1020881,-1.3060124
7.6353583,-7.281026,1.1200651000000001,1.0060601,1.1153876,-1.1394033000000001
7.962406,-7.756466400000001,1.2654506,1.2440008999999999,0.6692989,-1.0813711000000001
8.829903,-8.099862,1.366754,1.3536598999999998,-0.1020145,-1.4422877
9.931206,-8.117905,1.5241008999999999,1.3132032,-0.8190656,-2.0949187
11.304941,-7.5943217,1.3668879999999999,1.0811267,-1.2710011,-2.8210106
12.323607,-6.549023,1.4796261999999998,0.8458389000000001,-1.2891002,-3.248459
12.579394,-5.706550599999999,2.2970066000000005,0.7819599,-0.86536914,-3.3714352
12.453880999999999,-6.539886,3.3045442000000005,0.89533645,-0.2356369,-3.3373663000000002
10.762272,-8.089203,3.8599799,1.0726095,0.40739477,-3.2495239
8.905778999999999,-8.910853999999999,3.4527645,1.2722229,0.83592546,-3.1148540000000002
8.405353,-9.404013,2.1153731,1.3861405,1.0770601,-2.8667905
9.774013,-9.702129,0.7856334,1.4862176,1.0216982,-2.581464
12.010686,-10.299722000000001,0.32007605,1.3840111000000002,0.7757639000000001,-2.142287
13.447963,-11.136859,0.27087998,0.96987945,0.40634754,-1.6850107
13.242061999999999,-12.603786,0.783105,0.5983163,0.037978366,-1.3368698
11.804256,-13.434565,2.0185323,0.49504519,-0.43737950000000003,-1.0212096
9.924004,-13.131469000000001,3.1642057999999995,0.5147325,-0.87547463,-0.7220426999999999
8.2534075,-11.928094999999999,3.4657025000000004,0.3475823,-1.0735171000000001,-0.56714475
7.080928299999999,-10.687908,3.0847566000000004,-0.07773697,-1.0298665,-0.6597519000000001
6.172941000000001,-9.856996,2.2333974999999997,-0.63985515,-0.8626988000000001,-0.7614348000000001
5.2666497,-9.202641,1.1421683,-1.0332523999999998,-0.7333524,-0.52454126
4.2141304,-8.69938,0.08181466,-1.0071596999999999,-0.7785914,-0.0683471
2.0806284,-8.410945,-2.5081944,-0.6968227,-0.90795517,0.5523269000000001
0.15191689,-7.5042233,-4.639005,-0.47164032,-1.0261314000000001,1.2129514
-0.64709526,-6.806227000000001,-4.519122599999999,-0.35878733,-1.1735768,1.8613238
-0.54341674,-6.901592699999999,-3.4601290000000002,-0.12721705,-1.323169,2.4335823
0.42287347,-8.118623,-2.9210505,0.2980848,-1.2576842,2.7460487000000002
2.4361482000000003,-10.173231,-3.2132294,0.6707126,-0.8696278000000001,2.7487016
4.2570343,-12.312661,-3.5991747000000003,0.596187,-0.20209168,2.5102372
4.4300585,-14.482373,-3.5166898,0.005305801,0.4856553,2.159426
2.978224,-15.179632000000002,-2.3698957000000003,-0.8165872,0.96954787,1.8448305
1.9752929,-14.73768,-0.63530624,-1.3803285,1.1872603000000002,1.5765209999999998
1.5383416,-14.741665,0.070399106,-1.4575069999999999,1.1281808999999998,1.3726491000000003
1.704911,-14.51481,-0.23028389,-1.051334,0.81410885,1.4237523
2.2334836,-14.030913,0.03652594,-0.5429719,0.46116835,1.6760746
3.5574772000000006,-13.109567000000002,1.1238478,-0.26883307,0.25303784,1.8783581999999999
5.8146157,-12.442072,1.9565321,-0.20813051,0.16945402,1.9603363
7.999344000000001,-11.997727000000001,1.2169152,-0.32470104,0.084823005,1.8826343
9.304184,-11.441431,-0.91208553,-0.5834111999999999,0.010297443,1.6462643
9.243036,-10.547502,-2.6414842999999997,-0.85011494,-0.045588,1.3971361
8.185019500000001,-9.374506,-2.9726026,-1.0241940999999999,-0.09030333,1.2464966999999998
6.9677973,-7.887247599999999,-1.5273857,-1.0545278999999999,-0.088697635,1.2608781999999998
5.516796599999999,-6.7753515,0.40831673,-0.9070825000000001,-0.042917646,1.4083236000000001
4.0220385,-5.965029,1.4979850000000001,-0.6164154000000001,-0.008848819,1.5233059
3.4894529999999997,-5.4932947,1.083338,-0.29969049,0.016144296000000002,1.565892
4.027813399999999,-5.0996017,0.05544971,-0.25816910000000004,0.06140068,1.3982008
5.0436635,-4.901314,-0.9653229999999999,-0.43703043,0.13644984,0.9457241
6.1631730000000005,-4.9063992999999995,-1.7651396000000001,-0.5152736,0.21471039999999997,0.31386256
7.104343400000001,-5.219657,-2.261946,-0.31298990000000004,0.2945592,-0.37123153
7.3430550000000006,-5.884574400000001,-1.9125553,0.13414600000000002,0.4686209,-0.8487186999999999
7.127414,-6.839726400000001,-1.1026639999999999,0.65688956,0.59852576,-0.84604836
6.769289,-7.753593400000001,-0.14784674,1.1785685,0.53836423,-0.6315299
6.677352000000001,-7.993023399999999,0.75886613,1.5591723999999998,0.34833282,-0.5452932
7.4640960000000005,-8.366883,1.3054048999999999,1.7300576,-0.01150172,-0.8199731
8.637571000000001,-8.589534,0.8756841000000001,1.5895237,-0.5012411,-1.4156365
10.252307,-8.690846,-0.12501563,1.1700511999999998,-1.0458186999999999,-2.1502457
11.481749,-8.407785,-0.012047622,0.6893526999999999,-1.3023996,-2.735821
11.634613,-7.7244034,1.3571388999999998,0.45886450000000006,-1.2124454,-2.9939902000000003
11.555183,-8.453917,2.9118855,0.6084392,-0.8445997,-2.9897316000000003
10.099863000000001,-9.786693,3.5587416,0.96563834,-0.27979374,-2.926917
7.4842935,-9.498142,3.3094474999999997,1.3350722,0.36430258,-2.8459861
6.8528466,-9.030421,2.412321,1.488923,1.0382266,-2.6804419
8.193475999999999,-9.314267999999998,1.0312018,1.549067,1.5194488000000002,-2.4462185
10.537121,-10.040381,-0.39446867,1.5282975,1.7126741,-2.198696
12.198142,-11.16197,-1.6463009999999998,1.4410136999999998,1.5513883,-2.0160997
12.731933999999999,-12.366646000000001,-1.7071041,1.3063266000000002,1.1170107,-1.9916127000000001
12.036762,-13.744595,-0.48489287,1.1684456,0.48354346,-2.0533624
10.06552,-13.730516,1.8312674999999998,1.0752973999999997,-0.090826936,-2.0714613999999996
7.729766400000001,-11.783189,3.5315146,0.9273109,-0.65296257,-2.0065176
6.3579172999999995,-9.89131,4.1689754,0.6861762,-1.1341847,-1.8154217000000001
5.4451904,-8.673349,3.2810428,0.3199363,-1.4732673,-1.5056083
4.611194,-7.939671000000001,1.6757688999999998,-0.17619099,-1.4631618,-1.1409566
3.8859427,-7.4724759999999995,0.3122422,-0.8676729999999999,-1.1639950000000001,-0.76832885
3.3643226999999998,-7.024310000000001,-1.1171536,-1.5250861999999998,-0.6465747,-0.45212755
3.3445466,-6.54908,-2.2017367,-1.9631987000000002,-0.06260496,-0.07098254
3.2163417,-6.1250095,-2.7798789,-2.0302718,0.2732662,0.48527133
2.8939772,-6.119848,-2.7765272000000003,-1.7108765,0.17160077,1.2773715
2.7054286,-6.915728,-2.560637,-1.0427994,-0.24839526,2.1205926
2.7678409,-8.545508,-2.63751,-0.26879814,-0.7242941999999999,2.7572362
3.3733056000000006,-10.757368,-2.6931608,0.33697072,-0.9483944999999999,2.9084167
4.1018324,-12.604332000000001,-2.7226958,0.73993236,-0.9601056,2.7647061
4.401778,-13.383644,-2.7480936000000002,0.68402946,-0.88983864,2.5251424
4.092035299999999,-12.799182,-2.4626951,0.011711158999999999,-0.8525759,2.2600617
3.4378054,-12.000678,-1.3017466,-0.8197636999999999,-0.6380574999999999,1.9278733000000001
2.9772662999999997,-12.357289,0.062421627,-1.227525,-0.27553514,1.587726
2.1361165,-12.712713,1.3408966,-1.1402236000000001,0.11304498,1.3934186000000002
1.6095068000000001,-12.35546,2.6794182999999996,-0.7345916,0.36217326,1.4099293
2.1771338,-11.650961,3.602718,-0.25654593,0.4803495,1.5813382
4.499701,-11.1563,3.4384568,0.04738569,0.5261295,1.7665874
7.353963,-10.825967,2.6502472999999998,0.09688323,0.5250648,1.7777574
9.563217999999999,-11.196551,1.0382216999999998,-0.07291985,0.46437976,1.5648273000000001
10.533434,-11.439525,-1.4607887,-0.34067082,0.24293238,1.2353265
10.513744,-10.955214999999999,-3.368498,-0.5796762,-0.03227114,0.9345540000000001
9.994203,-9.300085000000001,-2.3413953999999997,-0.7132986,-0.1717404,0.76900953
8.577544,-7.476775599999999,0.17828183,-0.7606843000000001,-0.19781561,0.77965605
6.8192414999999995,-6.068209599999999,2.0582378,-0.73246235,-0.17493436,0.8733453000000001
5.25873,-5.2136903,2.7122571,-0.635038,-0.15789993,0.9968448000000001
4.562161,-4.711138,2.0861444,-0.5104739,-0.17332865,1.0740408000000001
4.974682,-4.4411864,0.74513304,-0.437013,-0.20793852,1.0399718
6.0342693,-4.0530669999999995,-0.72436094,-0.42903683,-0.2302962,0.85364056
7.0254593,-3.8167887,-1.8093365000000001,-0.40667915,-0.16055284,0.44961426
7.452901,-3.9317102,-2.250722,-0.29063222,0.10398672,-0.065659285
7.383402,-4.5077934,-1.8607066000000003,0.019704766999999998,0.60491365,-0.5026897
6.9172125,-5.274110299999999,-0.99893755,0.5078384,1.0116103,-0.70125586
6.5106773,-6.1858699999999995,-0.23408589,1.080638,1.0882652,-0.8162381
6.581134,-7.0548983,0.3846333,1.4591126,0.78483963,-0.9764768
7.2417326,-8.029147,0.80794734,1.4010805,0.21205749999999998,-1.2942663
8.261959,-8.828283,0.96711385,1.1024373,-0.29204595,-1.7946522
9.336639,-9.210025,1.0298419,0.78836524,-0.5656611999999999,-2.3062258
10.480551,-9.209191,1.5039513,0.62707937,-0.5273338000000001,-2.5367138
11.644689,-9.272772,2.2931566,0.7053399,-0.29630455,-2.4770935
11.929225,-9.776694,3.3080491999999997,0.91985834,0.00816814,-2.2380881
11.104489,-9.840782,4.118563,1.1870856,0.36056757,-1.9048523999999998
9.76885,-9.445403,4.0681987,1.3888283000000001,0.56658626,-1.5700108999999998
9.828888000000001,-9.74847,2.8849652000000003,1.5245799999999998,0.6123662,-1.3283352
10.555567,-10.525007,0.84678125,1.5698364,0.49897218,-1.252745
11.259931,-10.745723,-0.8414756999999999,1.5000930000000001,0.15296066,-1.3427167
11.672001,-10.863441,-1.0091177,1.3393308000000002,-0.28565803,-1.500285
10.946692,-11.317372,-0.051848833,1.1418293,-0.6774495,-1.6461421000000003
8.991071,-11.145575,1.2193286,0.93156946,-0.9632995999999999,-1.7164091000000001
6.804953,-10.209374,2.2791745999999997,0.72663295,-1.1512191,-1.6903164000000002
5.064062,-8.720277000000001,2.5191886,0.5227436,-1.2821711999999998,-1.5721402
3.9532292,-7.293897,2.0435852999999997,0.16660912,-1.2262683,-1.2857492
3.5308057999999996,-6.142362599999999,1.043192,-0.44926520000000003,-0.9052848,-0.9258972
3.7747269999999995,-5.208854,0.25251165,-1.1998440000000001,-0.38945276,-0.63205355
4.263767,-4.483152400000001,-0.7091434,-1.7885958999999998,0.17692402,-0.4505393
4.5391192,-4.1280828000000005,-1.4437037,-2.0473060000000003,0.6256656,-0.18383554
4.5016737000000004,-4.182019,-1.8139813000000002,-1.968522,0.8167791999999999,0.2994985
4.0911736,-4.8134947,-1.7148900000000002,-1.6640493000000003,0.58840287,1.047407
3.7309995000000002,-6.0776525,-1.4953896999999998,-1.1668573999999998,0.10876892,1.8751643
3.7451157999999998,-7.893845599999999,-1.2921124,-0.47216392,-0.42619196,2.484162
4.5367537,-10.534066000000001,-1.3497839,0.20760691,-0.6380574999999999,2.5788984
5.1396904,-12.960992,-1.8404133000000003,0.695217,-0.5374392,2.2914603
5.221438,-13.934206,-2.39266,0.65528387,-0.29843384,1.8985866000000002
4.96296,-13.616256,-1.9957299,0.004782202,-0.055693455,1.605284
4.348972,-13.227812,-0.818501,-0.7468438000000001,0.12899728,1.5094655000000001
3.7113862,-13.793579999999999,0.53532434,-1.1689867,0.2817834,1.4950839
2.67598,-14.142569,1.4598023,-1.055069,0.3642851,1.5547044
1.7943297999999999,-13.656373,2.076491,-0.5701118000000001,0.36002649999999997,1.7506001
1.9693553,-12.389122,2.8472133,-0.130411,0.33341023,1.9491663000000001
4.0202480000000005,-11.023537,3.5374043,0.09473647,0.27272514,2.0838358
7.177491000000001,-10.262448,3.2962985000000002,0.027680922,0.12527974,2.1014112999999996
9.190795,-10.022215,1.6444526999999998,-0.25975734,-0.11798426,1.8895457999999998
9.676942,-10.0153675,-0.8571146000000001,-0.5695882,-0.33836700000000003,1.5483165
8.729422,-9.589066,-2.7129276,-0.8634318000000001,-0.48209485,1.248626
7.3028994,-8.535568,-2.4805272,-0.95019215,-0.51136404,1.0979691999999999
6.1962705,-7.182347,-0.35684140000000003,-0.8421388000000001,-0.4858124,1.0692236000000002
5.025764499999999,-5.865162000000001,1.526926,-0.60472167,-0.38573520000000006,1.1043571
4.2487597,-4.707355000000001,2.1123178,-0.28904396,-0.19357447,1.0740232
4.4181833,-4.041824299999999,1.0979139,0.011170107,-0.030682888,0.9180431999999998
5.102695,-3.8451262,-0.42867702,0.13573426,0.010821042,0.63378143
6.2053975999999995,-3.8177269999999996,-2.0104303,0.09260717,-0.06740461,0.21111503
7.6122108,-3.8604492999999995,-2.8185117,0.036180675,-0.10786135,-0.35206783
8.531441000000001,-4.381054,-2.7501812,0.08089601,0.017208947,-0.94774866
8.660393,-5.509863,-1.8342650000000003,0.26188666,0.33288664,-1.3794559
8.52352,-6.5986304,-0.34566525,0.5269847,0.70551443,-1.4859209
8.300208999999999,-7.097084,0.79217434,0.8958775,0.82581997,-1.4901795
8.2187395,-7.0583267,1.6081948,1.1508701000000001,0.6565405,-1.6019678999999998
8.843013000000001,-6.8229294000000005,1.899416,1.1002903999999998,0.31956979999999996,-1.8479023
9.697225999999999,-6.8848815000000005,1.4775767,0.7835656,0.03424336,-2.2114892000000004
10.587485000000001,-7.152477,0.64205784,0.52804935,-0.08710938,-2.579841
11.549888000000001,-7.6138678,0.32695219999999997,0.42158428,-0.04717625,-2.7661548
12.233039,-8.172005,1.0731865,0.51101494,0.07204719,-2.690041
12.388203,-9.397356,2.0064657,0.7116929,0.2668783,-2.4941454
11.281977000000001,-10.468695,2.6326162999999996,0.9863903,0.5447522,-2.171015
9.297892,-10.186246,2.6338804,1.294598,0.75342375,-1.7675123
9.035832000000001,-10.114946,2.1743947999999995,1.5309503999999998,0.8614771000000001,-1.3986195
10.19158,-11.073394,0.8191713,1.6139932,0.8151735,-1.1952713
11.085604,-12.0484085,-0.43032426,1.5879005,0.45797440000000006,-1.0893472
11.236879,-12.313129,-0.61394995,1.492623,-0.23509584,-1.0153453000000001
10.612491,-12.598462,0.40847954,1.3946577,-1.1214263,-0.9248674000000001
8.967521000000001,-12.604916000000001,1.5049186,1.291404,-1.7389063999999999,-0.8524537
6.7609,-11.372841000000001,2.2688603,1.1354239,-1.9523776999999998,-0.7992385999999999
4.9000115,-9.594389999999999,2.4534726000000004,0.80644685,-1.8368543000000002,-0.75717616
3.5028989999999998,-8.063327000000001,2.2595806,0.12934636,-1.4216405,-0.77366954
2.784332,-6.8570704,1.5989628,-0.64359015,-0.97981036,-0.7348185
2.7763259999999996,-6.0904565,0.42365879999999995,-1.3265548999999999,-0.5651376,-0.44043383
2.9690304,-5.493716200000001,-0.99562395,-1.6369094,-0.2494599,0.085486226
2.843306,-5.0480595,-2.2800272,-1.5868708,-0.07274532,0.5768139
2.4523616,-4.9285120000000004,-2.9328876,-1.4064212,0.13751449,1.0803937
2.3379858,-5.034393,-3.004091,-1.2706695,0.24717353,1.6217774
2.8477304,-5.9388266,-2.456451,-1.0987371000000001,0.20511109,2.1833720000000003
3.5167089,-7.1161423,-2.2145312,-0.81393427,0.04701917,2.7002687
4.325460400000001,-8.927289,-2.6080229999999998,-0.3912679,-0.041852996,2.9477912999999996
5.017653,-10.765842999999998,-3.3328342000000006,-0.01277581,0.061924282000000004,2.8322854
5.220825,-12.845064,-3.2221357999999998,0.040439277999999995,0.25729644,2.427177
4.475021400000001,-14.373772,-1.9337487000000002,-0.33590606,0.46116835,1.9677889
3.6363997,-14.151283,-0.099598795,-0.9629854,0.6192776999999999,1.5690684
3.7637138,-13.967151000000001,1.3584508999999998,-1.4569834,0.7321307,1.3018411
3.7250044,-13.946110999999998,1.7411879000000001,-1.5155392,0.8369901,1.2518023999999999
3.1856673,-13.017983000000001,1.6385150000000002,-1.2062494,0.9035395,1.3630673
3.0957315,-12.050227,1.8858839,-0.7383441,0.9274853999999999,1.5589629999999999
3.9047706,-10.823342,2.3535097,-0.34281757,0.92322683,1.7559234000000001
5.988243,-9.918593,2.6609924,-0.13203415,0.8332550999999999,1.8751468999999998
8.216239,-9.269611,1.8357589,-0.14905111,0.6107604999999999,1.8533303
9.597961999999999,-9.059573,0.16308345,-0.34866443,0.38770744,1.6755508999999997
9.692141000000001,-9.087499000000001,-1.4804593000000001,-0.631879,0.15561356,1.4258642
8.983581,-8.808996,-1.8122191000000003,-0.84960884,-0.00832522,1.2667077
7.6147103000000005,-8.283985000000001,-0.5416546,-0.83575094,-0.06794567,1.2278566
5.9427247,-7.2524866999999995,1.4173961000000002,-0.6760533000000001,-0.08817403,1.2688369
4.779449,-6.2892327,2.411038,-0.45992917,-0.06740461,1.2933413
4.243713,-5.4979873,2.488562,-0.28640854,-0.0429351,1.265643
4.584446400000001,-5.2625513,1.4717253000000001,-0.22305308,-0.0503702,1.1187211000000001
5.3620253,-5.0881767,-0.020532673,-0.2592512,-0.07752752,0.8206189
6.4904795,-5.133791,-1.343377,-0.24167573,-0.07646287,0.32716197
7.475177,-5.2590650000000005,-2.1994956,-0.0575086,0.07257079,-0.28927088
7.772757,-5.6243052,-2.2136598,0.32470104,0.4015479,-0.81306165
7.494971799999999,-5.972777,-1.2523973,0.7649254,0.64695865,-1.0148216
7.086186,-6.2922587,0.01616565,1.1966326,0.62299526,-1.1127696000000002
7.101949,-6.594216,0.6796946999999999,1.3723,0.34086279999999997,-1.2564973999999998
7.796459700000001,-7.3726187,0.91664404,1.2424301000000002,-0.19942132,-1.5966446
9.048167,-8.343219,0.7284119000000001,0.9001360999999999,-0.7860614,-2.1209938999999998
10.312603,-8.995207,0.5053777,0.5477367,-1.1049156,-2.608604
11.29026,-9.028093,0.8680226000000001,0.40242055,-1.1113034,-2.8875425
12.017763,-8.910461999999999,1.8879716,0.507821,-0.8706924000000001,-2.9849494
12.119143,-9.141063,3.0239822999999997,0.75375533,-0.42512730000000004,-2.965262
10.799114,-9.192959,3.6569227999999994,0.9906314,0.095452055,-2.8848722
8.987614,-8.71568,3.2779589,1.1481998,0.55379295,-2.824187
8.840914999999999,-9.149576,1.9522129000000001,1.4101039,0.8108974,-2.842286
9.935832000000001,-10.274783,0.08049306,1.9605457999999998,0.28017770000000003,-2.8129995
11.206694,-11.197461,-1.2432132,2.4997652,-0.78712606,-2.6570544
11.887345,-11.8633175,-1.2208705,2.4348216000000003,-1.778316,-2.0741494
11.273367,-12.553001,-0.020982785,1.8285116000000001,-2.1259158,-1.2005945
9.739536,-12.381778,1.7766892,1.0816503999999998,-1.9097916000000001,-0.4585329000000001
8.060472500000001,-11.354099,3.0235128,0.3784572,-1.4109938999999998,-0.15084879999999998
6.5731273,-10.082768,3.2873154,-0.18898425,-0.9941919,-0.16203637
5.524218,-8.964552000000001,2.593945,-0.71066314,-0.6236934000000001,-0.23069762
4.9116955,-8.085822,1.5412146999999998,-0.91720545,-0.39372882,-0.11465068
3.8363538,-7.484322,0.7765545,-0.7713656999999999,-0.25638887,0.23080234
2.1041392999999995,-7.4065204,-0.28406724,-0.43811256,-0.11159635,0.8121017
-0.09305783,-7.5889773,-1.9355875,-0.22464132,0.12421508,1.6143248
-2.2683144,-8.110242999999999,-4.2442107,-0.35239944,0.3472507,2.317518
-2.5276735,-8.254891,-4.930437,-0.6313554,0.39622465,2.8269622
-0.8635120000000001,-8.367122,-4.403703,-0.77134824,0.3882485,3.0489330000000003
1.9880493000000001,-9.487982,-3.4329882000000005,-0.6611482,0.32169908,2.9861188
4.1045046,-11.231056,-2.5437147999999996,-0.50731486,0.34299209999999997,2.5570645
4.7450395,-13.027761,-1.5829505,-0.64146084,0.57615066,1.8102206000000003
4.1293370000000005,-14.053560999999998,-0.15659994,-1.1418468000000002,0.9663539000000001,1.0654886000000001
2.7681088,-14.210582999999998,0.99548036,-1.7050470000000002,1.4417118,0.5805314
1.6614993999999998,-14.058321,1.09483,-1.930753,1.7483311999999998,0.51347584
1.8834323,-14.759679,0.07808928,-1.6746956999999998,1.7941113000000002,0.66785026
3.0237427,-14.595044,-1.0535444999999999,-1.0902025,1.6322843,0.9888336999999999
4.8208494,-13.897708999999999,-1.022937,-0.53606045,1.3006543,1.3412331
6.470129,-12.434018,0.030837318,-0.29277897,0.97912973,1.5589629999999999
8.544714,-10.9765625,0.97106904,-0.32260665,0.70390874,1.5275471
10.78651,-9.856239,0.81244844,-0.45834090000000005,0.324352,1.2714899
11.667299,-9.345785000000001,-0.39670965,-0.6276204000000001,-0.098820545,0.9632821
10.771360000000001,-9.367716999999999,-1.1042058000000001,-0.76283103,-0.40809290000000004,0.7876147
8.516568,-9.580627999999999,-0.63141805,-0.811805,-0.5278748000000001,0.7705803000000001
5.910049,-8.972347000000001,0.723432,-0.73515016,-0.50977576,0.85309947
3.7763937000000007,-7.5558895999999995,2.0955298,-0.57651716,-0.38840556,0.9717993
2.70744,-6.139317500000001,2.315557,-0.42320743,-0.21060888,1.0788053999999998
2.7006403999999997,-5.152772,1.1784643999999997,-0.31887165,-0.07539822,1.0990163999999998
3.9215489999999997,-4.591485,-0.37399346,-0.29173177,-0.030159289,0.9781871999999999
5.42596,-4.051985299999999,-1.5088928999999998,-0.31833062,-0.046111599999999996,0.6651799
6.741947,-3.8367943999999996,-1.9570875,-0.32686526,-0.09775589400000001,0.19832176
7.1948633,-4.3862157,-1.8937752,-0.20708331,-0.14992379,-0.33609805
6.839707400000001,-5.100617,-1.1501073999999998,0.103777274,-0.054105207,-0.7805985
6.4557157,-5.8125186,-0.19813456,0.61906826,0.19500564,-1.0456966
6.3765445,-6.326563,0.7671979999999999,1.1423529,0.3387335,-1.0808301000000002
6.6840267,-6.657508999999999,1.2528282,1.6528441999999999,0.25782004,-1.0632546
7.2853065,-6.909187299999999,1.2677201999999999,1.8615158,-0.12650147,-1.132998
8.42578,-7.373385000000001,1.0397826,1.5437261999999998,-0.64605105,-1.5844098
9.873994,-7.8581433,0.90467304,1.0486636,-0.9505412,-2.1758146000000003
11.021334,-8.059016999999999,1.1379066999999998,0.7452380999999999,-1.0042974,-2.6383967
11.606093,-8.205627999999999,1.9052578000000002,0.7526906999999999,-0.8057486999999999,-2.7837302999999998
11.924283,-9.068019999999999,3.0631895,1.0055366,-0.44696137,-2.7017522
11.490962,-10.05512,4.1050124,1.2956626,0.012426743999999998,-2.492016
9.975671,-10.34592,4.3961277,1.587377,0.43828708,-2.1454635
9.059553999999999,-10.223749,3.7771117999999997,1.7997661,0.65174085,-1.7616656000000002
9.518944,-10.738847,2.4425166000000003,1.8466107,0.5724331,-1.3650918
10.710058,-11.219066999999999,0.301679,1.7837963,0.2626197,-1.1569438
11.911325999999999,-11.032405,-1.1877539,1.7161998,-0.22390829,-1.1218103000000001
11.792899,-11.290174,-0.5467685999999999,1.6650964,-0.7791324000000001,-1.144168
10.209681,-11.56749,1.3766372,1.6145169,-1.2763243999999998,-1.0978645
7.741392599999999,-10.893704,2.9226978,1.5495731000000001,-1.6803506999999998,-1.0227978000000002
5.530481299999999,-9.515821,3.5460904,1.4197031,-1.8049148000000002,-1.0541964
3.9549913,-8.417275,3.2485201,0.8777784,-1.5126768,-1.1702607
2.8804927000000005,-7.464326400000001,2.3855538,-0.24699899999999997,-0.8818625,-1.4023546
2.2325356,-6.794457,1.0604876,-1.4431428999999998,-0.016842427,-1.5886685
2.0763762,-6.253856,-0.3407907,-2.1686938,0.87479395,-1.6014268
2.5836787,-5.621968700000001,-1.1207353999999998,-2.3257383999999997,1.4720631000000002,-1.5157312
2.9519742,-5.300954,-1.2430216,-2.2075447999999995,1.496009,-1.3134475
3.0200365000000002,-5.602939599999999,-1.2002038000000002,-1.9498993000000002,0.8407251,-0.93176144
3.2678842999999995,-6.67875,-1.0527111999999998,-1.57036,-0.20261528,-0.07632325
4.5336986,-8.272186999999999,-0.89682007,-1.0619979,-1.1991285,1.2816128
6.371948000000001,-10.292874000000001,-1.27542,-0.27148595,-1.7192191000000003,2.500638
7.4999037,-11.858939999999999,-2.8380866,0.59246945,-1.5882671,3.2655982999999997
7.945359,-12.937136,-4.107406,1.2115552,-1.0426248,3.3678047999999996
7.428432000000001,-13.818557,-3.1204492999999998,1.2631994,-0.31707397,2.8615720000000002
6.1767626,-14.1481905,-1.0888447,0.58873445,0.43668140000000005,2.183913
4.8310394,-14.15771,0.00035434187000000003,-0.53871334,0.96954787,1.9246793000000002
3.1883487999999995,-14.091476,-0.1868435,-1.4090566999999998,1.1846073000000001,1.9795
1.6013954,-13.481894,0.016232686,-1.7140878000000002,1.3134301000000002,2.1737902
-0.09828676,-13.39419,0.60774416,-1.5511962,1.2751026,2.3468046
-0.8761055,-12.237741999999999,2.202905,-1.2578763000000002,1.2165469,2.3989724999999997
1.1144435,-11.245575,3.9872746,-1.0422931999999998,1.1936481,2.3270998
4.515445,-10.731913,4.390314599999999,-0.90175927,1.0999589,2.144521
8.296408,-9.961258,2.9909133999999997,-0.77613044,0.7874926,1.9443666000000002
10.379448,-8.75912,0.16523822,-0.75696677,0.38079593,1.7873393
9.70097,-8.27755,-2.6439552,-0.85756755,-0.004066617,1.6031548
7.647692999999999,-8.298954,-3.8142507000000005,-0.97789055,-0.18664551,1.4535625
5.9934144,-7.894908999999999,-2.1639562000000003,-0.91347045,-0.225514,1.3630673
4.904043700000001,-7.029950599999999,0.33821452,-0.69680524,-0.14831808,1.3167636
4.558512,-5.85231,1.8040596999999998,-0.46045277,0.039043017,1.242238
4.881844,-5.2165823,2.0677955000000003,-0.37421605,0.17851228,1.0740232
5.7706102999999995,-4.9237046,1.5822608,-0.41041416,0.22855087,0.7615395
6.521068,-4.8699403,1.0782334999999998,-0.38166859999999997,0.28124234,0.32344443
7.004697,-5.357409,0.3562189,-0.17034413,0.41538835,-0.24666739
7.4986496,-5.8105839999999995,-0.25911006,0.17832029,0.7677878,-0.737995
7.961697,-6.2789474,-0.33405817,0.5307196999999999,1.0962413999999998,-0.8939751
8.086646,-6.7976656,0.51170796,0.8847074,1.118058,-0.7374714
8.165004,-7.088264,1.6709995,1.1849564,0.6858097,-0.5857498999999999
8.536038000000001,-7.5042133,2.4376516,1.4362139999999999,-0.11903145,-0.6735749
9.455698,-8.081033999999999,2.3790896,1.5708836000000002,-1.1091741000000002,-1.033968
10.547952,-8.457642,1.8405281999999998,1.5251036,-1.887434,-1.5412828
11.471703,-8.468924000000001,1.9338349,1.344113,-2.1461442,-2.050186
11.737143,-8.042717,2.6959765,1.1455468,-1.8650763,-2.3536115
12.098342,-8.480502,3.5706263,1.1264006000000002,-1.3023996,-2.5601537
11.407634,-9.716886500000001,3.782695,1.2046437,-0.70034826,-2.7203748
9.392856,-9.851681,3.2231414000000003,1.2967273000000001,-0.24200736,-2.8885896
7.659607,-9.072032,2.33834,1.3467659,0.014556046000000001,-2.970568
8.062062,-8.693002,1.2475994,1.3723173999999998,0.1502903,-2.9828200000000002
9.616177,-9.22145,0.49683517,1.4207678,0.08428195,-2.900301
11.124668,-9.853682000000001,0.21763293,1.5149807,-0.10786135,-2.7150517000000005
12.189829,-10.731588,0.5258433000000001,1.5980233999999998,-0.29523990000000006,-2.3658462000000005
12.15204,-11.601162,1.2844412,1.6544499,-0.59547144,-1.8670659
10.884242,-11.272419000000001,2.4763994,1.6470148999999998,-0.91219634,-1.4672809
9.350986,-10.095956,3.223649,1.4755886,-1.1656007,-1.0558020000000001
8.136474,-8.956709,3.0530574,1.118407,-1.4652911,-0.695409
7.28455,-8.185804,2.565052,0.59246945,-1.6697041000000001,-0.45373324
6.134989,-7.753412,1.718625,0.0069115036,-1.4344163,-0.49418998
5.363194,-7.718082400000001,1.2669541000000002,-0.60152775,-0.9925861999999999,-0.67465705
4.359486599999999,-7.833933,0.9228976999999999,-1.1333121000000002,-0.47410125,-0.646435
3.366535,-8.007714,0.74921274,-1.3414426000000002,-0.00991347,-0.32065190000000005
1.9227355,-8.105226,0.27970982,-1.2147491000000001,0.22909191,0.23136084
0.8216613000000001,-7.630656,-0.23263979,-0.88577205,0.26794294,0.9845925999999999
0.9019245000000001,-7.878063,-0.91737187,-0.53497833,0.13592625,1.8506948
1.8528535,-9.346763000000001,-1.7669305,-0.38325685,-0.036529742000000004,2.6230903
3.2163706000000003,-10.9268875,-2.4287932,-0.29862583,0.013491395,3.0159464
4.894762999999999,-12.200727,-2.1615427000000005,-0.21238911,0.26953119999999997,3.0164874
5.8784833,-12.45844,-1.7261045,-0.17193238,0.5990493,2.742331
5.2727985,-12.724282,-1.1034875,-0.34707618,0.8737292999999999,2.3712916
3.7443112999999997,-13.423398,-0.19480184,-0.77825975,1.0217158000000002,2.0130453
2.5929682,-14.095039000000002,1.1226987,-1.2674756,1.02011,1.7468651999999998
1.4271357,-14.283894,1.8853763,-1.5314915,0.9684832,1.5935728999999998
0.865207,-13.925289999999999,2.0858476,-1.5027285,0.921115,1.5440753999999999
1.1766831,-13.795391,1.5598702,-1.3025916000000002,0.94345516,1.6707512999999998
2.5179725,-12.4531145,1.0939875,-1.072086,0.94719017,1.8458952000000002
4.820160400000001,-11.013625,1.295876,-0.97200876,0.9818001000000001,1.9624831999999999
7.023505,-9.897305000000001,1.3992577,-1.0108773000000002,1.0265154,1.9667417
8.399367,-9.046930999999999,0.7774548000000001,-1.1050901000000002,0.9833883,1.8698584999999999
8.848797,-8.610469,-0.48619533,-1.1902796,0.9210975,1.7234603
8.512497999999999,-8.391667,-1.4279306999999999,-1.2179431,0.82262605,1.5797324
7.587139,-8.021016,-1.2611888999999998,-1.1695102,0.7321307,1.4237698
6.795855499999999,-7.597242999999999,-0.008801086,-1.0374761000000001,0.6363121,1.2800419
5.869873999999999,-7.0752683,1.1676809,-0.82508695,0.5655216,1.1506782
5.173209,-6.674344500000001,1.6625720000000002,-0.6909409000000001,0.5250474,1.0468659
5.2998433,-6.262743,1.4108839,-0.5695707,0.42285836,0.8605695
6.124358,-6.0526376,0.58178145,-0.47535786,0.23760912,0.5789605999999999
6.976081,-5.8503375,-0.09368032,-0.3795393,0.0028448866,0.13500121
7.754925,-5.7357507000000005,-0.34719753,-0.27466246,-0.12222540400000001,-0.3919835
8.154115,-5.693316,-0.2567159,-0.047368235999999994,0.04384267,-0.8274256999999999
8.282051,-5.659998000000001,0.07750510000000001,0.28159142,0.38240165,-1.0073516
8.445478999999999,-5.6531124,0.54944056,0.66594785,0.6986029,-1.0174571
8.666609,-5.691400499999999,0.9554396999999999,1.0055715,0.808262,-1.0158689
8.755117,-5.885627700000001,1.0333662000000001,1.1977322,0.6522819000000001,-1.1478856000000002
9.331631,-6.3838897,0.8131763000000001,1.1386353999999999,0.23706807,-1.5088021999999999
10.13343,-6.698938,0.9193543,0.97148514,-0.27607617,-2.128429
11.284419,-7.4626117,1.2120215,0.87355477,-0.6098355,-2.6905472
12.327438,-8.631681,1.7769095000000001,0.86130255,-0.60238296,-2.972156
12.609399,-9.645913,2.6112027,0.9289166,-0.40489894,-3.003031
11.872453,-10.478328999999999,3.6405367999999996,1.0231295,0.0028448866,-2.9929080000000003
10.098809,-10.26492,3.8684363,1.1636634,0.5745624,-2.957792
8.898194,-9.293984,3.4139786,1.3388071000000001,1.1031703000000002,-2.8183227000000004
9.338842,-9.279045,2.2775369999999997,1.5895237,1.316624,-2.5106387000000003
10.617786,-9.94266,0.9323213,1.9222183000000002,1.1585321000000002,-2.0203583
12.054921,-10.503775,-0.016462531000000002,2.1191962,0.6852861,-1.5657523000000002
12.708662,-11.074591,0.31090146,2.0654225,0.10133382,-1.3144947
11.965521,-11.840055,1.3281211000000002,1.8120357,-0.4272566,-1.2229347
10.053263000000001,-12.165811,2.3891547,1.4718885,-0.7695331,-1.1590557
8.092507000000001,-11.160485000000001,2.9645292999999997,1.0880731000000001,-1.0000387,-0.9934938
6.767652,-9.992996,3.0772004,0.6861762,-1.2470378,-0.8268846
5.6078815,-9.107399000000001,2.872544,0.22518238,-1.623383,-0.6815511
4.525252,-8.584956,2.2125487,-0.01595231,-1.7862746999999999,-0.4686209
3.1687355,-8.160014,1.5035396,0.05057964,-1.6058251000000001,-0.16147786
2.0425796999999997,-7.785341000000001,0.54312944,0.11604694,-1.2305268999999999,0.15364133
1.7451144,-7.09289,-0.80074555,0.03567453,-0.8419293999999999,0.52094585
1.9463903000000002,-6.4875300000000005,-2.0999543999999997,-0.11922344,-0.46399578,1.1464195
2.3096577999999996,-6.1684785,-2.6230586,-0.19001399,-0.39318776,2.0205151999999997
2.1649616000000003,-6.3632610000000005,-2.8361905,-0.09101892,-0.5619261999999999,2.9659077999999996
2.1532204,-7.2074093999999995,-2.7345327999999998,0.09901253,-0.7280116999999999,3.5413604
2.8434591,-8.656552,-2.5336304,0.3593284,-0.6550919,3.6728535000000004
3.9696152000000002,-11.002199000000001,-1.738564,0.43598324,-0.4150044,3.3390767999999995
4.6518955,-12.662127499999999,0.078539394,0.03673918,-0.16374679,2.7423487
4.5054374,-13.111721,1.3699622,-0.7409621,0.06354744,2.1211336
3.6976242,-12.956164999999999,0.94443595,-1.6246222,0.4068886,1.4072764
3.181923,-13.371847,0.196631,-2.0696464,0.7060555000000001,0.96171135
2.5201653999999998,-14.052824,-0.31106427,-1.9866036,0.9482548000000001,0.80946624
2.2268567000000004,-14.0317745,-0.25512612,-1.5538317,1.2059178,1.0138791999999999
3.4136336000000003,-13.325284,0.19881451,-0.8559618,1.4422529,1.3944832
5.5894747,-11.8472185,0.5712086,-0.27305678,1.4784509,1.7048376
8.586708999999999,-10.476271,0.5283142,0.012793263000000001,1.3922317,1.881046
10.743692,-9.380856,-0.7289769,0.09796533,1.0802889999999998,1.7862921000000003
11.573926,-8.8442955,-2.3683919999999996,0.0058643064,0.7188313000000001,1.475414
11.616494,-8.643039,-3.003325,-0.17776178,0.43830454,1.1283379
10.8152895,-8.74511,-1.6245711999999999,-0.3390651,0.21525146,0.8493994
8.714855,-8.571338,0.8100734,-0.5365491,0.12953834,0.70567155
6.195657700000001,-7.790406699999999,3.0098946,-0.7500203000000001,0.06352998,0.64125144
4.0360208,-6.8362985,4.1161213,-0.9698620000000001,0.039584067,0.7397404000000001
3.6388323,-6.0233035,4.4413977,-1.0300235,0.04384267,0.8190481
4.0801125,-5.6250334,2.9595685,-0.93898714,0.058747783,0.7684859
5.2274423,-5.402391400000001,1.3328426000000002,-0.8596794,0.030543262,0.61784655
6.643852000000001,-4.907951000000001,0.06684612,-0.79951787,-0.005637413399999999,0.3783001
7.518282000000001,-4.7126412,-0.78945446,-0.64568454,0.019355701,0.020036379
7.662967999999999,-4.950740000000001,-0.8426345,-0.37739253,0.24560273,-0.32808699999999996
7.471288700000001,-5.349767,-0.48044926,0.06815511,0.6097133000000001,-0.56231016
7.233611,-5.9210525,-0.45855668,0.65743065,0.8636238000000002,-0.7177492
7.0876417,-6.470838,-0.51979077,1.2035965,0.808262,-0.97433007
6.993425,-7.102591,-0.042511445,1.5709183999999998,0.42765802,-1.3703802
7.7541966,-7.5424156,1.0093763,1.6374505,-0.239337,-1.9468798999999999
8.872060000000001,-8.040151,1.6089801000000001,1.3947101,-0.8578991,-2.5196794999999996
9.700003,-8.537771000000001,1.9101993999999998,1.0950022,-1.1086156,-2.861956
10.359979,-8.810949,2.4572458,0.98640776,-0.980334,-2.9125357000000003
11.036292999999999,-9.151195,3.250416,1.0790323,-0.6124884,-2.809788
10.803797,-9.142135000000001,3.9752845999999997,1.3159258,-0.09135053,-2.682571
9.765278,-8.430425,4.569401,1.6161573999999999,0.43298128,-2.5643773
9.532283999999999,-8.041185,4.2600894,1.8264346999999999,0.64591146,-2.3700874
10.617758,-8.82045,3.2026662999999997,1.7428508999999999,0.83274895,-2.0576209999999997
11.929292,-9.894231,1.8544912,1.6182867,0.7491826,-1.894712
12.447397,-10.881782000000001,0.6223583,1.5788946000000001,0.46277404,-1.9064406000000003
11.981734,-11.974944,0.39972636,1.5293796,0.10665707,-1.9532677999999999
10.48237,-12.482381,1.4461266000000002,1.4213263,-0.21485002,-1.9213282999999999
8.559635,-11.951252,2.6348380000000002,1.2328831,-0.5028294,-1.7206503
6.969817599999999,-10.575218,3.5121024,0.99653065,-0.7833736,-1.4124252
5.919251999999999,-9.203158,3.6106381,0.6915169,-0.9239075000000001,-1.0802541
5.2780085,-8.330347,3.0832338,0.236911,-1.0042799,-0.7672467
4.3006660000000005,-7.691592999999999,1.7908629,-0.29967302,-0.8914269,-0.41910592
4.1605,-7.274284,0.051925447,-0.77609557,-0.61728805,-0.09812241
4.4323378,-6.6704473,-0.19208202,-1.1396825000000002,-0.2936342,0.18453366
4.527320400000001,-6.246539,-0.5313308000000001,-1.3547245,0.022026055,0.53319806
3.8635426,-6.3014526,-1.013523,-1.4239268,0.16201891,1.0085734
3.1017457999999998,-6.846182000000001,-1.3867025,-1.3211968,0.04225442,1.5153472
2.4618714,-7.744217999999999,-1.7019613999999998,-1.0081894,-0.24305455,1.9688884999999998
2.8336525000000004,-9.155389,-1.7865053,-0.51632077,-0.49857074,2.1882064
3.6739410000000006,-10.678628,-1.9927226999999998,-0.037227873,-0.5230577000000001,2.1072931
4.475702,-12.061815,-2.1888175,0.11819369,-0.34154347,1.8720052
4.7799473,-12.699027000000001,-1.7230782999999998,-0.16179202,-0.09773844,1.6414996
4.804473000000001,-12.542332,-0.840202,-0.7138048,0.12262683,1.4759551000000002
4.8957977,-12.566112,-0.013828908999999999,-1.1173248,0.30255282,1.436022
4.6340923,-12.898608,0.75422144,-1.1460705,0.40210640000000003,1.4951188999999998
3.9970527000000002,-12.40162,1.2951291,-0.88308424,0.43511057,1.669198
3.716615,-11.378444,2.0526352,-0.57327086,0.35897929999999995,1.842195
4.3045063,-10.206664,2.8393697999999996,-0.35129988,0.23282692,1.9603713
6.185535,-9.376498,3.3404190000000002,-0.320425,0.090687305,1.9907051
7.943347999999999,-8.882364,2.7356147999999996,-0.4609589,-0.08655088,1.8837163000000001
8.853814999999999,-8.903078,1.0888924999999998,-0.72818625,-0.2478542,1.6478875
8.802111,-8.883092,-0.57785493,-0.9799674999999999,-0.3048043,1.4349573999999998
7.984328,-8.480512,-1.1505576000000002,-1.0992258,-0.28670523,1.3418092
6.6962660000000005,-7.4878086999999995,-0.12394303,-1.0683334999999998,-0.13233086,1.347656
5.577389,-6.3663454,1.2295566999999998,-0.8985304000000001,0.04490732,1.3737487
4.6872815999999995,-5.5317454,1.8441098999999999,-0.65898395,0.14126694,1.3375504999999999
4.643631,-4.7306266,1.4035958999999998,-0.4593532,0.11465068,1.2321501
5.1507416,-4.502746599999999,0.40568309999999996,-0.3991917,0.0044505894,0.9995325999999999
5.9766555,-4.424686,-0.6030994000000001,-0.43221334,-0.09773844,0.5512971
7.038962400000001,-4.4475169999999995,-1.3687938,-0.45083599999999996,-0.059934605,-0.014538593
7.8339715,-4.657096,-1.5568537,-0.32414255,0.272219,-0.61074305
7.949161500000001,-5.21687,-0.82220715,-0.05745624,0.87001175,-0.8737118
7.7211375,-5.774106,0.19950405,0.342835,1.305995,-0.81142104
7.8860693,-6.3753470000000005,1.1866238000000002,0.7836179,1.2724497,-0.68685687
8.394033,-6.8867392999999995,1.7510424999999998,1.1381291999999998,0.808262,-0.7289193
9.338986,-7.2761320000000005,1.8536772000000001,1.2792041,0.06832964,-1.079713
10.420677,-7.894057000000001,1.4538741000000002,1.1227004999999999,-0.61142373,-1.6977514999999999
11.788236,-8.320205,1.1809351000000001,0.8336565,-0.9260368,-2.2955444
12.360756,-8.019618,1.4425736999999998,0.60847414,-0.7961494,-2.6064397999999995
12.301658,-7.720620599999999,2.3442779,0.56004125,-0.35058429999999996,-2.6069633999999997
12.434343,-9.070386,3.246959,0.730909,0.19343483,-2.5090156
10.855089999999999,-9.920155000000001,3.6761625,0.98961914,0.7374714,-2.3684816000000004
8.630331,-8.875487,3.3177602,1.175933,1.2192172,-2.1960082
8.514327,-8.329399,2.2820287,1.3915336,1.4640868999999999,-2.0192761000000004
9.888571,-8.587264,1.0481815,1.6193688,1.5056257,-1.8739426
11.699908,-9.262602000000001,-0.09323022,1.7412627,1.2958721000000002,-1.8984470000000002
12.708585000000001,-10.138438,-0.49118483,1.6603491000000001,0.9296322,-1.9873366000000001
12.407289500000001,-11.212497,0.31578562,1.390469,0.52241194,-1.9569854
10.842343,-11.863777,1.5236508,1.0529746000000002,0.18811159,-1.8712896
8.646803,-11.009267999999999,2.6560125,0.68832296,-0.043964844,-1.7371436000000002
7.1228647,-9.50928,3.2466237999999996,0.28216738,-0.30426323,-1.4347829
6.010021,-8.23863,2.8383453,-0.044662975,-0.5603205,-1.0014524
5.4779334,-7.2803745,1.9599414000000002,-0.42102578,-0.6747791999999999,-0.3999422
5.165107,-6.612698599999999,1.2229104,-0.8436921999999999,-0.5842839,0.12065461
5.3230667,-6.1868086,0.26861984,-1.2397423,-0.26701793,0.45495498
5.304555000000001,-5.641074,-1.2175951999999999,-1.4393556,0.018832102,0.72804666
4.344269799999999,-5.408052,-2.7366585999999997,-1.4180626,0.22005111,1.0964159
2.996152,-5.490412,-3.5803754,-1.3531189,0.10719812,1.4754316
2.1560936,-5.757643,-3.7916205,-1.2663585,-0.32503265,1.8794578000000002
1.951782,-7.145562,-3.6796007000000004,-1.1087728000000001,-0.814231,2.1685193
2.3669076000000002,-9.618399,-3.4746666,-0.74467963,-1.1283205,2.294148
3.3209492999999997,-12.024495,-2.9687622000000005,-0.36192894,-1.1251265,2.217493
4.1097145,-13.11922,-2.4718218,-0.3448945,-0.8083840999999999,1.8592468999999998
4.760889,-12.68224,-1.7990893000000001,-0.8500800999999999,-0.35271358,1.464244
4.6742864,-11.6677685,-0.87202567,-1.5373033999999999,0.096028015,1.2044692
4.8532095,-11.990756,0.12967953,-1.8481815,0.4005007,1.1624242
5.009417,-12.457241999999999,0.63209796,-1.6895485000000001,0.52401763,1.2736715
5.037946,-12.169537,0.3766271,-1.1550938,0.5117654,1.4323045
5.411739,-11.555174000000001,0.43854114,-0.59082884,0.42765802,1.5680561000000002
6.378144,-10.577324,1.131969,-0.29485592,0.38507199999999997,1.6558986
7.8926105,-9.938896000000002,1.9298224,-0.24959953,0.2892534,1.6010603
9.652827,-9.861199000000001,1.7583305,-0.36405823,0.07897615,1.4078175
11.141906,-9.971908,0.16905937,-0.5583657,-0.19353956,1.1491073
10.868018,-10.042709,-1.325229,-0.722322,-0.40009928,0.9415004000000001
9.222838000000001,-9.594515,-0.8546341999999999,-0.84421575,-0.4911182,0.9143604999999999
7.171333,-8.496350999999999,1.0594918,-0.87615526,-0.486336,1.0229549999999998
5.444558,-7.025210400000001,2.714412,-0.85592693,-0.41392228,1.1602948999999998
4.5432086,-5.449749,3.5433612,-0.7590437,-0.38943532,1.2822062
4.445745,-4.6213169999999995,2.7840352000000004,-0.5652772,-0.4197866,1.4147464
4.900739,-4.1787057,1.2638416000000001,-0.43858379999999997,-0.46078438,1.439757
5.6739707,-3.7387947999999995,0.008858547,-0.45188320000000004,-0.39742893,1.2662364
6.295103,-3.5161437999999996,-0.8613093,-0.49607494,-0.21376793,0.8132187
6.6702843,-3.6411019999999996,-1.0958261,-0.39973277,0.118909284,0.09829694
6.519564599999999,-4.1914234,-0.72664976,-0.10587167,0.6251595,-0.4771032
6.049075,-5.1344805000000004,-0.15061444,0.4173955,1.0510198,-0.77255255
5.9520717,-6.0256886,0.5918275,1.0141235999999998,1.0967999,-0.83164936
6.613148700000001,-7.138217,1.0381545,1.5033219,0.79763293,-0.85027206
7.629612400000001,-8.252842,1.5142271999999999,1.6177806000000001,0.41222933,-1.0770427
8.737342,-8.935639,1.7574398999999998,1.3250016000000002,0.057700586,-1.6844346999999997
10.158235000000001,-9.214995,1.6144006000000002,0.7953291,-0.06632251,-2.4350134999999997
11.440061,-8.623818,1.7918589,0.35084608,0.12210324,-2.8965308999999997
12.495186,-7.7383375,2.4866946,0.23851669,0.47343802,-2.9561515
12.960044,-7.898270599999999,3.5283732000000003,0.43388885,0.8780053,-2.7953892000000002
11.69627,-8.058854,4.369935,0.8512145000000001,1.2304046999999998,-2.4451365000000003
9.443660000000001,-7.8728724,4.346855000000001,1.4490246999999998,1.3964903,-1.9569854
8.707013,-7.9236393,3.4590660000000004,1.9355701,1.3288937,-1.4283774999999999
9.644907,-8.9238405,1.9621918999999999,2.3209736,1.0914766000000002,-0.84494877
11.507826,-9.734948,0.29295453,2.524322,0.5612804,-0.46699774
13.268301999999998,-10.932777,-0.8278861999999999,2.506223,-0.047158795999999996,-0.46540950000000003
13.606238000000001,-12.749516499999999,-0.5299229999999999,2.3012865000000002,-0.5938483,-0.6953741
11.783121000000001,-14.111865,0.83764493,1.9403698,-1.0596417,-0.90617496
9.000513,-13.651394,2.3500144,1.5294145000000001,-1.3556146999999998,-0.9897413
6.234951000000001,-12.065147999999999,3.3596682999999996,1.2180129,-1.4860257,-1.0344566
4.1605387,-10.387407000000001,3.6047196,0.95822066,-1.4620798000000002,-1.1057881999999999
2.4077625,-8.599464,3.2177496,0.6366961,-1.351356,-1.2042772
1.3224133,-7.4937553,1.8938327000000001,0.11290534599999999,-1.0633593000000001,-1.1776434
1.2116001,-6.7417655,0.5316755999999999,-0.7579616,-0.44692647,-1.0168812
2.2339149,-5.790261699999999,-0.8146032,-1.6666498,0.21952751,-0.86357147
3.4448635999999997,-4.7861720000000005,-2.035962,-2.3256686,0.89238685,-0.61870176
3.8158882000000003,-4.1918545,-2.8116164,-2.5620213,1.2511742000000001,-0.020367993
3.4625425,-4.226963,-3.1668967999999995,-2.4257459999999997,1.0733774999999999,0.9330007
3.1886554,-4.4742365,-2.7258942000000004,-1.9737928,0.44416884,2.0205503
3.4461756,-5.2877665,-1.8869373999999999,-1.2966924,-0.34578463,2.870124
4.5030527000000005,-7.0645614000000005,-1.5956875,-0.50351006,-0.9819222,3.1544034
6.109179,-10.038283999999999,-1.7631572,0.40301397,-1.4104354,2.907387
6.904217,-12.687305,-2.4108272,0.8139692,-1.5270233999999998,2.3143938
6.549942,-13.575851,-3.0949560000000003,0.33913493,-1.460474,1.6016013999999998
5.539857,-13.303267000000002,-2.406575,-0.7515736999999999,-1.1032925,1.1022801000000002
4.1984625,-13.787068,-1.1941991000000003,-1.6027708,-0.43362704,0.8813738000000001
2.6536470000000003,-14.53924,0.1699979,-1.8348646,0.23230332,0.8068482
1.6154541,-14.446824,1.1952525,-1.5048229,0.86842346,0.88828534
2.141738,-13.727251,2.4262457000000004,-0.9256528,1.1761075,1.1150559
4.3149166,-12.0201,3.2170794,-0.43643704,1.2756611,1.3562081
7.808947,-10.637342,3.713675,-0.21446607,1.1793015,1.5004596000000001
11.264536999999999,-10.154605,3.0185041,-0.15484561,0.8072148,1.4072938999999998
13.351592000000002,-9.902466,0.5164006,-0.23361231,0.20942205,1.0692760000000001
12.979638000000001,-9.828705000000001,-2.5912732999999997,-0.3874631,-0.36601300000000003,0.6822841
11.269747,-9.512805,-2.797979,-0.55941296,-0.66252697,0.44326127
9.032691,-8.523837,-0.20829555,-0.72762775,-0.74131113,0.40493384
6.7849283,-7.041175,2.3448522,-0.8351575000000001,-0.6401693,0.46935394
4.8951080000000005,-5.6777534,3.8714720000000002,-0.82822853,-0.45492005,0.550791
3.7640681000000002,-4.5316496,3.7433822,-0.6882357,-0.28509954,0.76159185
3.7624114,-3.980121,2.2982996,-0.44547784,-0.109432146,1.0352072
4.499605,-3.4729330000000003,0.8061756,-0.30654964,-0.0061610119999999996,1.1161206
5.7070775000000005,-2.7919838,-0.5239375,-0.35287067,0.09070476,0.95589936
6.457468,-2.4550145,-1.2675,-0.35287067,0.18917623,0.52204543
6.6086089999999995,-2.7905952999999997,-1.2453393,-0.24534093,0.28872982,-0.04272566
6.3415985,-3.8341992,-0.83805674,-0.014311700000000002,0.48356092,-0.44357544
5.974146,-5.153633999999999,-0.03106716,0.33382913,0.639541,-0.59315014
6.247535,-6.4549885,0.81614506,0.76925385,0.54637533,-0.6229604000000001
6.8869405,-7.9435015,1.5648407,1.1876616000000002,0.15458381,-0.6884451
7.2626,-8.966956,2.1646075000000002,1.4410485,-0.47301912,-0.83163196
8.14653,-9.239559,2.2939517000000005,1.4027386,-1.1655657,-1.1510272
9.556121000000001,-9.172264,1.6663738000000001,1.1205886999999999,-1.5637451,-1.5939219
10.997287,-8.9908495,1.5347121000000001,0.83526224,-1.4365281,-1.8723368999999999
12.142788000000001,-8.552059,2.0732157,0.7032455,-0.99469805,-2.0096767
12.118547999999999,-8.7221155,2.6751277,0.7681892,-0.31490976,-2.1262474
10.673188,-8.607615,3.1934533,0.95291483,0.42552873,-2.2071607
8.665861,-8.03744,3.2394602000000003,1.1882027,1.1361918,-2.169898
8.043876,-7.667575,2.8522124,1.4357253,1.6120908,-1.9457978
8.567124,-8.356855,2.0610821,1.7322392,1.7137737000000002,-1.548683
9.540386,-9.158741000000001,0.9896096999999999,1.8807667000000001,1.5082961000000001,-1.1856371
10.725276,-9.924349000000001,0.22805251,1.8770318,1.0387851000000001,-1.0291334
11.509234,-11.0459175,0.6695720000000001,1.7886658,0.53998744,-1.0222044
10.823936,-11.587572,1.9055068,1.6161923,0.072064646,-1.0461679
9.379371,-10.627373,3.1338854,1.3878335,-0.29201102,-1.0184869
8.049498,-9.321949,3.8321497000000004,1.080673,-0.6907314999999999,-0.91095716
6.692425699999999,-8.151278999999999,3.8497038,0.7266853,-0.97871083,-0.72516686
5.2154427000000005,-7.528069500000001,2.9847745999999997,0.2438574,-1.0090620000000001,-0.5856975999999999
3.917067,-7.016543400000001,2.0656598,-0.37468728,-0.7790975,-0.5590813
2.9541385,-6.616989,1.0508248,-1.0880034,-0.3596251,-0.6293483
2.9642612999999995,-6.171208,-0.6458119999999999,-1.7363756999999997,0.09656907,-0.62508965
3.2936362999999997,-5.697568,-1.6468468,-2.201087,0.36699040000000005,-0.37596136
3.3233243999999997,-5.717143,-2.2028763,-2.3512204,0.36590827,0.2255489
3.0918433999999997,-6.254986,-2.5222914,-2.1840527,-0.033841934,1.0660994
3.0406265,-7.387281,-2.9199398,-1.7161298999999999,-0.59117794,1.9609298
3.7622006000000003,-9.314249,-2.8418214,-1.0730982,-1.1384083999999999,2.6444356
4.7841325,-11.061278999999999,-2.6966949000000002,-0.32517229999999997,-1.4279935,2.8924992
5.6131864,-12.048083,-2.6899047,0.3024132,-1.3641143999999998,2.6566877
6.003595,-12.37851,-2.7549217,0.5174727,-1.0303551,2.0647418
5.644292,-12.463056,-2.3819049999999997,0.14219198,-0.49323004,1.4658672
4.638478299999999,-12.983325,-1.9085139,-0.44708353,0.09443977,1.1922518
3.568979,-14.088957999999998,-1.031269,-0.8463276,0.657099,1.2683831
1.9891698,-13.998706,0.04745308,-0.9783443000000002,1.0430436,1.4802312
1.2198267,-13.381098000000001,1.3336086,-0.88411397,1.2075235,1.6468577000000002
1.7277995,-12.252586,2.7012245999999998,-0.75209725,1.2309458,1.655375
3.8208778,-11.333346,3.7597777999999997,-0.64934975,1.1537673000000002,1.5505156999999998
7.0052905,-10.790868,4.193674,-0.6520201,0.8929279,1.3828243999999998
9.854333,-10.308389,3.4307377,-0.7409097,0.48303732,1.1949222
11.193285000000001,-9.567430499999999,1.6120926000000002,-0.8324697,0.08272861,0.99211496
10.230079,-9.00533,-0.47607264,-0.9070127,-0.24038419,0.85104
8.109285,-8.219054,-0.68908954,-0.94425803,-0.35801938,0.81271255
6.0668690000000005,-7.157887,-0.12756306,-0.8926312,-0.38995892,0.8366584999999999
4.9213963,-5.714825,0.6046891,-0.7920304,-0.3702716,0.872333
4.887073,-4.464449,0.8193054,-0.6536258,-0.30426323,0.91704834
5.4144583,-3.4947587999999996,0.5238035,-0.5109626,-0.22547908,0.89362603
6.1064115,-3.2054148,-0.09263645,-0.42366123,-0.14137167,0.7041182
6.5669699999999995,-3.2974572,-0.85107166,-0.35604715,-0.060458205999999994,0.37088245
6.9644639999999995,-3.663253,-1.2043887,-0.21019000000000002,0.06356489,-0.13693853
7.275548,-4.2609699999999995,-1.008658,0.066060714,0.27276006,-0.6059260000000001
7.193397999999999,-5.067979,-0.40801027,0.47862163,0.46706757,-0.82950264
7.2776647,-6.0577326,0.32176158,0.9380272,0.4750437,-0.87154764
7.586564500000001,-6.907722,1.0400699,1.374534,0.2498788,-0.9428791999999999
8.056977,-7.6971383,1.479157,1.6204684,-0.16318828,-1.0983181999999998
8.660699000000001,-8.145524,1.8455848000000001,1.5858584999999998,-0.6981841,-1.4597759
9.664339,-8.381008999999999,2.0477512,1.3553703000000001,-1.0771998,-1.9516447000000001
10.702886,-8.454405,2.1490831000000004,1.0545977,-1.2006992,-2.3891985
11.624414,-8.518818,2.657181,0.8730834999999999,-1.036743,-2.5739243
12.410105999999999,-9.175758,3.2601080000000002,0.89596474,-0.7476816,-2.5930880000000003
11.8832,-9.913604,3.777447,1.0423629,-0.32820916,-2.5696657000000003
9.988053,-9.621962,3.8706772000000003,1.2510344999999998,0.21207495,-2.5265560000000002
8.919704,-8.772718,3.5589044000000003,1.4272256,0.74865896,-2.4003862999999996
9.23162,-9.08047,2.6160772,1.5134623,1.0973408000000002,-2.1672277
10.139042,-9.724260000000001,1.5295213,1.5720180000000001,1.2346808,-1.8717958
11.158187,-10.309337,0.70547545,1.6348325000000001,1.1170281000000002,-1.5688939
11.815386,-11.146493,0.6621117,1.6428261000000002,0.73535955,-1.3266946000000002
11.257986,-12.027272,1.4810244,1.4746113,0.1918466,-1.1483568000000002
9.450488,-11.752438,2.5856516,1.1456342,-0.32023302,-1.0338981
7.593986500000001,-10.455411999999999,3.5011656,0.78578216,-0.74661696,-0.99770004
6.369524500000001,-9.10918,3.868551,0.5212077,-1.0463248,-1.0056937
5.3489146,-8.124875999999999,3.5989258,0.24439846,-1.1384083999999999,-0.89177597
4.3581080000000005,-7.601083,2.5774633999999996,-0.20432569,-0.9175021000000001,-0.73898983
3.4516342000000004,-7.1447,1.3572443,-0.8947605,-0.46022588,-0.6532941999999999
2.6980355,-6.7182164,0.35963783,-1.6389513999999998,0.09922197,-0.48507935
2.1363652,-6.3329124000000006,-0.63922316,-2.1345377,0.46067965,-0.07785914
1.8211830000000002,-6.053308,-1.7226856,-2.1579599999999997,0.47397906,0.6146875
1.8654948,-6.107426599999999,-2.709834,-1.8087546,0.10508627400000001,1.524964
2.4131255,-6.728923,-3.0952623,-1.2423601999999998,-0.38837066,2.3165407000000005
3.5739017,-8.076102,-2.6687972999999996,-0.62592745,-0.7993259,2.7008622000000004
4.990196,-10.30633,-1.9631113000000002,-0.102119215,-0.88449794,2.6124961
5.5972610000000005,-12.230367999999999,-1.9212894,0.13688618,-0.7349058,2.339963
5.653304,-12.805177,-2.3631822999999996,-0.1516342,-0.44799110000000003,1.9284667000000002
4.9927244,-12.577987,-2.677627,-0.8825083,-0.058328904,1.4568263000000001
3.8856552000000004,-12.707445,-2.2315395000000002,-1.5074583000000001,0.37922513,1.0959097
2.9977129000000002,-13.572021,-0.8395219999999999,-1.7448754000000002,0.8407600000000001,0.94738215
2.1591582000000002,-13.942642999999999,0.7899142,-1.5777253,1.1122458999999998,1.0197783999999999
2.2361843999999995,-13.437381,2.1819892000000003,-1.12099,1.1495087,1.2226031000000002
3.6177537,-12.0828085,2.9650847999999996,-0.69832367,1.0036516,1.3950765
6.252793,-10.528761,3.1118016,-0.45505969999999996,0.74546504,1.4951538
8.682381,-9.544102,2.6503048,-0.45717153,0.41542327,1.4749253999999998
10.049824000000001,-9.251263,0.9927700999999999,-0.591335,0.012461651,1.2987343999999998
10.838379,-9.062512,-0.8865632999999999,-0.7984009,-0.32820916,1.0927156999999998
10.673591,-8.883322,-1.6104071000000002,-0.9384111999999999,-0.51719344,1.0101966
9.432044,-8.285719,-0.51607496,-0.94425803,-0.6103416,1.034701
7.1499004,-7.1799045,1.2020712,-0.8819847,-0.61460024,1.1235906
5.354153,-5.9959050000000005,2.3304107000000003,-0.81117666,-0.54061574,1.210892
4.414343,-4.838528,2.5888216,-0.71694636,-0.52729887,1.2332497
4.4569116,-4.10324,1.6661728999999998,-0.6594552,-0.5805314,1.1949222
5.0900917,-3.84119,0.21561223,-0.61421627,-0.61299455,1.010214
6.112426,-3.9862022000000006,-0.92456406,-0.5290442,-0.48897144,0.62852794
7.0874690000000005,-4.173706500000001,-1.3151734,-0.30972612,-0.20364502,0.06161012
7.1018915,-4.560236,-1.1119438,0.07778932,0.29352948,-0.48720866
6.771147,-5.022499,-0.2697403,0.58510417,0.7518704,-0.7256729999999999
6.7713866,-5.7046165,0.6620351,1.1009363,0.8801521000000001,-0.7150265
7.1091223,-6.602873,1.1161002,1.5411606000000002,0.66350436,-0.65435886
7.962617,-7.38593,1.4511161,1.8562973000000003,0.12372639,-0.7139793000000001
9.026782,-8.178229,1.6778758000000003,1.8765256000000001,-0.65664524,-1.1041651000000001
10.081811,-8.59074,1.8883452,1.6124922,-1.3151405,-1.7136865000000001
11.188143,-8.496093,2.4876714,1.2372116000000002,-1.6286714,-2.323714
11.882461,-7.8899193,3.3485017,1.0120292,-1.5520166000000002,-2.6298098999999997
12.458727,-8.182252,4.2394896,1.0572854999999999,-1.1863177,-2.6825012999999998
12.074237,-9.253311,4.8501449999999995,1.2127246,-0.7002959,-2.6441738999999997
10.093179,-9.412277,4.535978,1.4192668,-0.025307272999999998,-2.577642
8.553908,-8.639016999999999,3.6475184,1.632197,0.60920715,-2.3923926
8.688203999999999,-8.685597999999999,2.5455055,1.8057176,1.0536902,-2.1038723
10.213147,-9.150017,1.2583733,1.8994243000000002,1.1899655,-1.7977763
11.935286999999999,-9.667010000000001,0.114490725,1.9590448,1.0526255,-1.5364133
12.946061,-10.664846,-0.094321966,1.9750146,0.76623446,-1.4501766
12.295557,-11.681828,0.98807746,1.9004889999999999,0.5293584,-1.4778576
10.175289999999999,-11.810664,2.6235566,1.6875589,0.26319566,-1.4278015
7.9468627000000005,-10.682736,3.8230612,1.3111961,-0.10835004,-1.2271235
6.4163837,-9.266327,4.1099057,0.8725599,-0.5975658,-0.9242391
5.32616,-8.217618,4.017135,0.45043457,-1.078247,-0.6559471
4.381839299999999,-7.671730999999999,3.2394027999999997,0.023509584,-1.2752073999999998,-0.54681164
3.8772085,-7.1473145,2.2428787,-0.46408305,-1.1022103,-0.48080329999999993
3.5318593999999996,-6.9388179999999995,1.1560163,-0.9660572000000001,-0.71413636,-0.36049774
3.5209610000000002,-6.420119000000001,0.45500365,-1.3599955,-0.28988174,-0.008639379
3.6005442000000003,-6.093473,-0.41027042,-1.5202167,0.013526301999999999,0.64983845
3.188866,-6.120039,-1.2325158,-1.4036461,-0.019460421000000002,1.5095353
2.3679612,-6.8354845,-2.3313875,-1.007596,-0.22600268,2.3948011
2.2405226000000003,-8.208664,-3.2268476,-0.47846457,-0.5400746999999999,2.9633248
3.1456556,-10.274534,-3.3227114999999996,0.061313417,-0.5746671,2.9516137000000002
4.8676324,-12.007516,-2.7992911,0.25932103,-0.40751693,2.4916843999999996
5.985686,-12.937816,-2.1346988999999996,-0.16969836,-0.079063416,1.8603464
5.500458200000001,-12.957448,-1.8012633000000002,-1.0837098,0.26745427,1.3700835
4.3883038,-12.785238,-1.3848637,-1.9013441999999998,0.5458691999999999,1.127343
3.4504662000000006,-13.513573999999998,-0.7078314,-2.1728477,0.6959675000000001,1.1321253
2.3373632,-13.620470000000001,0.19805793,-1.9902513,0.6997025,1.2998165000000002
1.8464180000000001,-13.216348000000002,1.2434046,-1.3961936000000001,0.5410695,1.6117418
2.5030037999999997,-12.152353999999999,2.3299602999999998,-0.7770904000000001,0.3792426,1.9220960999999999
5.072145,-10.907878,2.7574117,-0.27883379999999997,0.22645646,2.133438
8.478989,-9.820191000000001,2.3098779,-0.0030717794,0.0715585,2.1233150000000003
10.548039,-9.121899,0.45731170000000004,0.02459169,-0.1221905,1.9779991000000001
10.926821,-8.926264,-1.8890827000000001,-0.21067870000000002,-0.2675066,1.804461
9.750558999999999,-9.145793,-2.8555834,-0.60035837,-0.25846579999999997,1.6671209999999999
7.9926977,-9.243658,-1.3597916,-0.8925963,-0.14774212,1.5686321
5.994746,-8.478912,1.0455191,-0.98255056,-0.024242622999999998,1.4845247
4.264408,-7.311183,2.8248706,-0.96073395,0.08594001,1.451538
3.2650878,-6.0693779999999995,3.8386044999999998,-0.8755619000000001,0.15140732,1.4222513
3.3861866000000003,-5.6493583,3.6020381,-0.7674911,0.099239424,1.3722128
4.568404699999999,-5.255397299999999,2.4369526,-0.6780604,-0.027960173999999997,1.179511
5.765611,-4.923513400000001,1.1584297,-0.6045995,-0.13390166,0.7893252
6.761139999999999,-4.918648,-0.29477412,-0.47151816,-0.12377875,0.17980382
7.3349147,-5.2200394,-1.2206119,-0.19631463,0.23605578,-0.49836132
7.562095599999999,-5.634590599999999,-1.0828303999999997,0.25134486,0.8242666999999999,-0.95509654
7.863985499999999,-6.099497,-0.09124782,0.7767588000000001,1.2165992,-1.0982833
8.2037325,-6.7185802,0.9724002,1.2979141,1.1867889999999999,-1.1680267
8.513618,-7.33683,1.3826323999999999,1.6582897,0.73750633,-1.3160132
9.1167555,-7.8313284,1.7849443999999999,1.7381383999999998,-0.08545132,-1.6391435
9.944987,-8.247641999999999,1.9778788,1.4948745,-0.982952,-2.0862794
11.275781,-8.456733,2.3212457000000004,1.0887015,-1.5514755,-2.5190687
12.392866999999999,-8.116382000000002,2.9006712,0.8305324000000001,-1.6110959999999999,-2.751686
13.154183999999999,-8.109103,3.8007474,0.84224355,-1.2858539,-2.804395
13.072964,-8.866878,4.7104006,1.0077881,-0.6603628,-2.8129122000000004
11.181928,-9.067416,4.966082,1.3021726999999998,0.056653388,-2.8560220000000003
9.203828,-8.463512,4.348837400000001,1.5497128,0.7774220000000001,-2.7437099999999996
9.165828,-8.730255999999999,3.129844,1.7195158,1.1729485,-2.5206568
10.317698,-9.782057,1.6945584999999999,1.8499442,1.2416272,-2.2709875
11.624117,-10.966497,0.37271976,1.9186056,1.0851061000000002,-2.147488
12.285827000000001,-12.188383,-0.11676043,1.9462863999999997,0.8636587,-2.1373825
11.912073,-13.003024,0.7494043,1.8967889999999998,0.55491,-2.0218592
10.483165,-12.815089,2.579149,1.647678,0.15088372,-1.7493086
8.564931,-11.431144999999999,3.9547231,1.2303175,-0.32606240000000003,-1.3628403
7.125029,-9.671694,4.4760175,0.75281286,-0.7923795,-0.98488927
6.2165256,-8.479841,4.46464,0.25244442,-1.0654536000000001,-0.7559894
5.1673860000000005,-8.130278,3.3455712999999996,-0.297439,-0.92813116,-0.5845806
4.504671599999999,-7.786174000000001,2.0977516,-1.0597290000000001,-0.5480508000000001,-0.39454913
4.1646276,-7.3719387,1.0511694,-1.7565342000000002,-0.10513864,-0.103358395
4.0512767,-6.915862,0.005659893,-2.1339617000000004,0.16526523,0.4023333
3.158546,-6.573117999999999,-0.96561027,-2.0093975,0.14023721,1.0240893
1.7747929,-6.870592599999999,-2.1072137000000004,-1.5526624,-0.10142108,1.7049248
0.7795425,-7.2954490000000005,-3.4368575,-0.992656,-0.4996005,2.2324681
0.9690388000000001,-8.361778,-4.0009312999999995,-0.46617743,-0.86264646,2.4784024
2.5747247000000004,-10.096971,-3.6928644,-0.09941395,-1.028191,2.3772607000000003
4.620426,-11.871084,-3.0499833,0.036320303,-0.9770877,2.0754235
5.1661797,-12.985939,-2.9623172,-0.2505769,-0.67633253,1.6868433
4.358539,-12.647102,-2.7688177000000005,-0.93516487,-0.24993114,1.3690363
3.0340377999999997,-12.335989999999999,-1.7683191000000003,-1.6266469,0.22701497,1.1986921
2.5765537999999997,-12.858433999999999,-0.07852981,-1.9556240000000003,0.6007074,1.2838641000000002
2.9402235,-13.641539000000002,1.680404,-1.8055082999999998,0.7289891,1.5606733999999998
3.6022297999999995,-13.528398499999998,2.5939642999999997,-1.3072516,0.6209358,1.9130728
4.7070003,-12.717435,2.7149673,-0.7919606,0.3936241,2.19627
6.186081,-11.334524,2.421831,-0.4693714,0.109362334,2.3575733
7.9129705,-10.329132000000001,1.8159828000000002,-0.34480724,-0.1839228,2.3586204
9.163702,-10.173001,0.6927,-0.40123373,-0.36758378,2.1866882000000003
9.573474000000001,-10.414212,-0.87832725,-0.62109286,-0.37290704,1.9237194
8.905567999999999,-10.460459,-1.7015303,-0.90748394,-0.16104153,1.7187653999999999
7.227060300000001,-9.980144000000001,-0.81694955,-1.1102912,0.13332570000000002,1.5942011999999999
5.157905,-9.064878,0.82303077,-1.1832285,0.35529667,1.5053116000000002
3.5675137,-7.7887883,2.4995751,-1.1342546,0.39468876,1.4467558
3.2340686,-6.676939999999999,3.0893917,-0.9841388000000001,0.27811822,1.3839413999999999
3.9235892,-5.953565599999999,2.3311957999999997,-0.8643569,0.04441863,1.2221144
4.9709945,-5.4693527,1.2556629,-0.82283545,-0.20788616,0.90378386
6.269121599999999,-5.0072236,0.23988943,-0.7530920999999999,-0.35587263,0.48591712
7.617239,-4.789974,-0.43388679999999996,-0.49972266,-0.28293532,-0.08792969
8.245994999999999,-4.8718367,-0.741513,-0.005183628,0.18814649,-0.6686880000000001
8.405582,-5.145273,-0.35898662,0.59367377,0.7481703000000001,-0.94708544
8.492913,-5.46465,0.36920506,1.1930722,0.93713707,-1.0125703000000001
8.814206,-6.2027636,0.9895523,1.7961881000000002,0.6981142,-1.095613
9.390863000000001,-6.930198700000001,1.4365497999999999,2.2476,0.006632251,-1.2483816
10.146445,-7.4631386,1.7277133000000002,2.3045502,-1.0404432,-1.5731002
11.184455999999999,-7.7472057,1.8809903000000001,1.9681206000000002,-1.9060043000000002,-1.9931136000000003
12.140336,-7.952053500000001,2.3429849999999997,1.5491891000000002,-2.3749743,-2.4392023
12.819417999999999,-8.123172,3.5181453,1.315507,-2.29619,-2.6766021
13.51885,-8.974368,4.862202,1.2526752,-1.8144443,-2.8150241
13.14751,-10.125108,5.789611,1.2388347,-1.1091043999999999,-2.9507759
10.495251,-9.533443,5.5750804,1.3181599,-0.21001546,-3.025825
9.091971000000001,-8.634966,4.659241000000001,1.4933037,0.5692915,-2.8810325
9.53397,-9.272532,3.279003,1.7184686999999998,0.9882403000000001,-2.5291567
10.593174000000001,-10.433759,1.6438205000000001,1.9388514,0.94246036,-2.073486
11.605729,-11.426702,0.026096797999999997,2.0895080000000004,0.5027595,-1.7045933000000002
12.223778999999999,-12.428914,-0.29034963,2.2023437,-0.019966567,-1.6236798000000001
12.070942,-13.12689,1.2489497999999999,2.2939212,-0.48096037,-1.763149
10.422458,-12.764208,2.9380493,2.1736157000000005,-0.67313856,-2.0724213
8.904926,-11.472124,3.7819195,1.6721650000000001,-0.8376184000000001,-2.2560822999999997
7.575676,-10.002592,3.9960375,0.88006485,-1.1202743999999998,-2.0516520000000003
6.013631299999999,-8.817768,3.9645777,-0.100478604,-1.4907905000000001,-1.455465
4.483966400000001,-8.153214,3.420328,-0.87339765,-1.5764861000000001,-0.86671305
3.4418373,-7.658113,2.4455047000000003,-1.4083934,-1.3497155,-0.55794686
2.9314508,-7.268250500000001,1.4697334,-1.8134843,-0.7977026999999999,-0.35248670000000004
3.0726993,-6.92881,0.39616376,-1.9167554,-0.29197612,0.06538004
3.6824257000000005,-6.4832206,0.13144168,-1.6905259,-0.01144936,0.8718443000000001
3.8561876000000006,-6.430758999999999,-0.24437138,-1.2098273000000002,-0.05297074,1.9221311
3.2632585,-6.9358587,-1.8164042,-0.6232047,-0.15304792,2.8547652
2.4639783,-8.575455999999999,-3.6709815999999997,-0.22715460000000004,-0.19296359999999999,3.4163773
1.862641,-11.487677,-5.091797,0.004921828400000001,-0.007731808299999999,3.5031376000000005
2.0287316000000004,-13.643626999999999,-4.813475599999999,0.10712831,0.21795672,3.2944660000000003
3.0119247000000002,-13.718517000000002,-2.634704,-0.12601277,0.33135074,2.8520950000000003
3.4432356,-13.311751999999998,-0.7979970000000001,-0.9032079,0.37606609999999996,2.2021344
2.8460548,-13.079972999999999,0.46485820000000005,-1.7235126,0.41174063,1.6165763000000002
2.1907997000000003,-14.250058,1.8798697,-2.177595,0.45750317,1.2838641000000002
1.3739654,-15.187753,2.733412,-2.0493133,0.40107667,1.3418964
1.2777566999999999,-14.871717000000002,3.3280265,-1.5052767,0.31218705,1.7352936
2.6842064999999997,-13.86033,3.1312997000000005,-1.126261,0.55918604,2.1989403
5.228218,-12.553346000000001,2.022047,-0.90055496,0.6837502,2.3442738
7.9778056,-11.706783999999999,1.0300143,-0.95272285,0.5772851,2.3437327999999997
9.993551,-11.195958000000001,-0.27102363,-1.0203195,0.39470622,2.1946816000000005
11.325042999999999,-10.746718,-2.3505887999999997,-1.0256428,0.10883873,1.8720925
11.472603,-10.2415905,-3.9372647000000005,-0.98464495,-0.1258906,1.5958244
10.252613,-9.553986,-3.0727186,-0.88245595,-0.20734511,1.4499497
7.685301299999999,-8.670161,-0.81264955,-0.7339284,-0.21853268,1.4574022
5.1948524,-7.346225,1.6963686000000002,-0.60510564,-0.1317549,1.5596261999999999
3.6282212999999994,-6.0754684999999995,2.4670525000000003,-0.39430478,-0.081716314,1.5835721
4.0271144,-5.47259,1.9126797999999998,-0.21917845,-0.042324234,1.4605962
5.8632083,-5.007348,0.22127213,-0.21066125,-0.031154128,1.1609056999999998
6.733931500000001,-4.8726025,-0.7589428,-0.35545376,0.039095376,0.7121466999999999
8.128076,-4.845184,-0.81708354,-0.38098790000000005,0.2046573,0.11435397
8.91141,-5.1956763,-0.6961285,-0.09087929,0.53044045,-0.53452456
8.821512,-5.795137,-0.13156618,0.42652357,0.9786584999999999,-0.99125975
8.435117,-6.5846677,0.47530648,0.9631076,1.1591256,-1.13127
8.062292,-7.112225,0.77505094,1.4288836,0.9999515,-1.1994076999999999
7.908201700000001,-6.9055386,0.98135453,1.7275269,0.50488883,-1.3947624
8.839106,-6.732696000000001,1.1631511,1.7632014999999999,-0.24726079999999998,-1.8584266
10.270847,-6.8520617,0.82235086,1.5002327,-0.9824109000000001,-2.533939
11.9106455,-7.239242,0.40525216,1.2159708999999999,-1.3885665,-3.0715876
13.200719,-7.783195500000001,0.80792814,1.1616737,-1.4300879,-3.2211797000000004
14.096581,-8.394502000000001,2.2231216000000003,1.2670567,-1.2432504,-3.1604946
14.169748,-9.563428,3.7698142999999997,1.385774,-0.8881806000000001,-3.0838397
12.257872,-9.655729,4.069961,1.4677521,-0.3654545,-2.9449115000000003
9.847371,-8.411472,3.0955687000000003,1.3884443000000002,0.28876472,-2.6947012000000004
9.630111999999999,-7.9776335000000005,1.6659335,1.2361819,1.0089923,-2.30558
10.837795,-8.568982,0.033815704,1.2548218999999998,1.2027588,-1.9925724999999999
12.368283,-9.576319,-1.2180933,1.3171127,1.0744771,-1.7482265
12.920539,-10.992230000000001,-1.3091398,1.3746038999999999,0.6592631999999999,-1.5954578000000001
12.005322,-12.832395,0.2804185,1.4246424,0.07744026,-1.4479950000000001
9.873114,-13.421119000000001,2.158344,1.3926854,-0.5373869000000001,-1.3234483
7.752875,-12.235013,3.0020703999999996,1.2207531,-1.0026393,-1.1813086000000002
6.4745917,-10.765317,3.1053658,0.97481877,-1.3433275,-1.0455569
5.0542172999999995,-9.578242999999999,2.4455240000000003,0.6362598,-1.4210471000000002,-0.91727525
3.8766242999999996,-8.722728,1.4109797,0.12948598,-1.1351796,-0.84646726
3.3013934999999996,-8.002388999999999,0.5504174,-0.5486791999999999,-0.62894684,-0.79429936
2.9045978,-7.3062224,0.10172484,-1.1757585,-0.048712137999999995,-0.57604593
2.8407874,-6.884747,-0.6357564,-1.5052767,0.38191295,-0.06503097
2.6255965,-6.63213,-1.2702677,-1.369525,0.46443212,0.5721538
2.4325855,-6.7712235,-1.5083758999999999,-1.0714226999999998,0.38936550000000003,1.1954982
2.306411,-7.2640367,-2.1030285,-0.8579515,0.22701497,1.6368047
2.789446,-8.381995,-2.4055119,-0.7834259,-0.020490166,1.9050967
4.0075774,-9.839259,-2.1984037999999995,-0.6886720000000001,-0.24567254,2.0147557000000003
5.146643,-11.276729,-2.072756,-0.5188689000000001,-0.34468508,2.0163615000000004
5.531104,-12.061605,-2.4244359,-0.43743187,-0.36332518,1.9056377
4.8461422999999995,-12.232302,-2.4051576,-0.66313785,-0.2526015,1.7012073
3.3914537000000005,-12.465459,-1.7846379,-1.0634465,-0.010384709,1.5335336000000002
2.3251432999999997,-12.586884,-0.33846352,-1.3242686000000001,0.25363123,1.4914886
2.331512,-12.864525,1.1228998,-1.3125575,0.4825312,1.5282103
3.088367,-12.435578999999999,1.2942193000000002,-0.9942268,0.55440384,1.614447
4.1149817,-11.590886,0.8020001,-0.59124774,0.46549675,1.7762914
5.335622,-10.788149,0.5060479999999999,-0.33416075,0.32389819999999997,1.8843447
6.629449,-10.3396,0.7512047,-0.30967376,0.15887733,1.8747629000000001
7.968209299999999,-10.433424,0.9737793,-0.5044874,0.008761553,1.684714
9.059478,-10.593529,0.22393447,-0.9894446,0.33826226,1.4238745000000002
9.353907000000001,-10.560603,-0.73845804,-1.4530913,0.7966032,1.3110389999999998
8.578358,-9.969542,-0.5693603,-1.6564571,0.9781349,1.3616011000000001
6.9956374000000014,-8.698049000000001,0.48440444,-1.5904486999999998,0.8706050999999999,1.508523
5.8152385,-7.152667999999999,1.5879973,-1.4270161,0.72101295,1.5164992
4.94349,-5.893912,2.1994095000000002,-1.1565948,0.5432163000000001,1.4244156000000001
4.7098927,-5.181857,1.6700418999999997,-0.88030916,0.35157913,1.2397074
5.3062309999999995,-4.710812000000001,0.39852923,-0.70783573,0.031660274,0.92083573
6.29495,-4.489118599999999,-0.9263167,-0.61575216,-0.26909485,0.5710892
7.282462599999999,-4.3183165,-1.7683957,-0.36875317,-0.31913346,0.13512339
7.863114,-4.9486327,-2.1497824,0.005986479,0.0061086523,-0.34927529999999996
7.523309700000001,-5.5241795,-1.2059115,0.5446998000000001,0.59964275,-0.682511
6.947829700000001,-5.9419775,-0.070456564,1.0876718,0.88655746,-0.75386006
7.330250299999999,-6.0025224999999995,0.7454586,1.6061566999999999,0.7779805000000001,-0.774071
8.491401,-6.049372,1.2285701999999998,1.9633558,0.22488567,-0.85978407
9.556849,-6.1655006,1.7810179,2.0884435000000003,-0.54483944,-1.2781919
10.729596,-6.6096244,1.5760072,1.9761142,-1.138391,-1.7913536
11.882298,-7.320434599999999,1.6808349999999999,1.7206153999999998,-1.4322171000000001,-2.2725758999999996
12.655712,-7.866906,2.610446,1.4656228,-1.2975476000000001,-2.4753830000000003
12.831935000000001,-8.215406,4.301680999999999,1.315507,-0.8477413,-2.4588897000000003
12.803252,-8.831578,5.4366384000000005,1.2149062,-0.2403493,-2.3545540000000003
11.190757000000001,-8.831980999999999,5.467456299999999,1.1515507999999999,0.38351864,-2.197509
9.703068,-7.9637947,4.254755,1.1494215,0.86315256,-1.9760618000000003
9.528636,-7.6039080000000006,2.5781817000000005,1.209042,1.1309035,-1.7029876
10.633348,-8.177702,0.97450715,1.3101838,1.1245157,-1.45173
12.198046000000001,-8.981762,0.07909485,1.3501168,0.90893257,-1.2733922
12.582497,-10.260351,0.14340311,1.3282828000000002,0.5128825,-1.2185714
12.183929,-11.891799,0.7869166,1.2958021999999998,0.03005457,-1.2191125
10.662673,-12.58901,1.9070295,1.2580159,-0.46605527,-1.2180303
8.748662,-11.7869425,2.5838513,1.1526154,-0.89882714,-1.1616038999999998
7.094000299999999,-10.373242999999999,2.510062,0.9987821,-1.1325266,-1.0471627000000001
5.76631,-9.011957,2.1995819,0.75710636,-1.3050002,-0.83049744
4.57123,-7.9202204,1.6751558999999998,0.43771112,-1.4002776000000001,-0.56806976
3.8072116,-7.0812729999999995,1.1969476000000001,-0.008901179,-1.2006643999999997,-0.33384657
3.3320105000000004,-6.4910254,0.45902595,-0.54920274,-0.7519053000000001,-0.12676327
3.1171741,-5.9419875,-0.48931736,-1.0203195,-0.27122417,0.15906931
3.0316436,-5.460772,-1.0500778,-1.2023573,0.058800142,0.5205270000000001
2.8767867000000003,-5.379187,-1.2346993999999998,-1.1592652,0.23392648,0.9964259
2.574782,-5.604242299999999,-1.5003886999999998,-1.024037,0.073705256,1.5069172
2.5020077,-6.361279,-1.6815436000000001,-0.74138093,-0.3398854,2.105251
2.8127465,-7.8153257,-1.7214596999999998,-0.35011303,-0.7481876999999999,2.4395688
3.577828,-9.689497,-1.8301564,0.11246902,-0.92066115,2.380472
4.8788376,-11.774205,-1.8367932,0.26949629999999997,-0.80674356,2.0030446
5.669575,-12.923211,-1.8271206999999998,-0.21064378,-0.39472365,1.3855646000000001
5.3485510000000005,-12.960513,-1.4609419,-0.9974207,0.18655825,0.8713207000000001
4.5409293,-12.825939,-0.73505825,-1.7022196,0.8157669,0.62379813
4.179989,-13.309722,0.27415523,-1.9588004,1.2032998,0.6764896
3.7729839999999997,-13.093515,0.6536266,-1.7581226000000003,1.2985947,0.91390675
3.5761712,-12.8300295,0.728795,-1.2816825,1.1995822,1.2178733
4.1396894,-11.88521,1.2953972,-0.79780746,1.0425376,1.4813657
6.161277,-10.432686,1.8003055000000001,-0.47680649999999997,0.8195019,1.6282874
8.535654,-9.256022,1.4999194,-0.33999014,0.5102121000000001,1.593695
10.294905,-8.785886999999999,-0.11457692,-0.31817353,0.10086258,1.45262
10.742697999999999,-8.602347,-1.9800240000000002,-0.4246386,-0.22596778,1.3083686
9.726598,-8.891816,-2.291069,-0.5321683,-0.4351804,1.2104207
7.4400105,-8.954247,-0.9136082,-0.59498274,-0.45806167,1.2647178999999997
5.437711,-8.422275,0.80079347,-0.5390973000000001,-0.35585517,1.4377149
3.7635699999999996,-7.3328074999999995,2.2985008,-0.43847907,-0.26961845,1.6336107
3.1010177000000003,-6.2173204,2.8332121,-0.32988468,-0.18976966,1.7709681000000002
3.4123216,-5.5871663,2.3914722999999998,-0.25481808,-0.16050048,1.801302
4.337422,-5.1497746,1.2936829,-0.27506390000000003,-0.17592919,1.7134595000000001
5.355963,-4.862547,0.23350170000000003,-0.41294490000000006,-0.22437952,1.4206805
6.0665817,-4.88103,-0.46599784,-0.51939255,-0.24673720000000002,0.9304176
6.4200230000000005,-5.301471,-0.6908517,-0.47307150000000003,-0.17379989,0.37466982
6.4415135,-5.86046,-0.2877639,-0.19626227,0.011955505,-0.13261011
6.092161,-6.398178,0.31491414,0.27534315,0.26534240000000003,-0.42966515
5.9892970000000005,-6.714184299999999,0.98395944,0.80766857,0.3212453,-0.5403888000000001
6.3273,-6.9187354999999995,0.9937661,1.3272356,0.112573735,-0.7453254
7.3307962,-7.0274034,0.7939939,1.61148,-0.2488665,-1.0854901000000001
8.681977999999999,-7.4920506,0.42222226,1.5672882,-0.6992138000000001,-1.6955349999999998
10.198447,-7.920296700000001,0.06423164,1.2356582,-0.98506385,-2.3902109
11.613142999999999,-7.9780645,0.14098018,0.8625068000000001,-0.9669648000000001,-2.9986677000000004
12.565508,-7.9221168,1.1536509,0.66874033,-0.62255895,-3.2179856
12.925663,-8.4032545,2.4520457,0.68577474,-0.08597492,-3.2036042
12.830986,-9.438719,3.6379127999999996,0.8646360999999999,0.46816713,-3.07904
11.679845,-9.780783999999999,4.1282167,1.1483743,0.92329663,-2.9677752999999996
10.284486,-8.425904,3.5684042000000002,1.3176538,1.1287743000000001,-2.813942
10.344608000000001,-7.496589999999999,2.4087489,1.3085955,1.4620098999999998,-2.56429
11.424613,-7.6102095,0.982226,1.4060023000000001,1.4747858,-2.4072454
12.659312,-8.489207,-0.16381128,1.460317,1.2176813,-2.3635947999999996
13.033833,-9.973688000000001,-0.09914868,1.4933212,0.8407949,-2.3183384
12.388222,-11.541833,1.0446285,1.5018383,0.17645279,-2.1719575
10.698022,-12.529748,2.3416922000000002,1.4155841999999998,-0.49532443,-1.935605
8.76252,-11.868355000000001,3.1983087,1.1952015,-0.9701586999999999,-1.6044986
7.441725,-10.674854,3.3840606,0.8502546000000001,-1.2400563999999998,-1.2361294
6.628261,-9.546918,2.8556697,0.6112491999999999,-1.5110013,-0.74799573
5.4926624,-8.8875065,1.6223302,0.43132323,-1.7383131,-0.18584266
5.464593,-8.386707000000001,0.83708954,0.23062779999999997,-1.5280358,0.37254053
5.2974396,-7.8363757,0.15931018,-0.13452998,-0.93289596,0.7275929
4.954858,-7.426765400000001,-0.58198255,-0.6418274,-0.21053907,0.8585449
3.8334904,-7.299528,-1.1884243,-1.0879334999999999,0.46443212,0.9277472
2.4090939,-7.1524477,-1.8737023000000002,-1.4254103999999999,0.87645197,1.1758108
1.2690896999999999,-7.2558966,-2.346873,-1.5521038999999999,0.81417865,1.6181821
0.8813535,-7.85641,-2.6159337000000003,-1.3966649,0.43516293,2.0946045
1.3792995000000001,-9.318089500000001,-2.5310447,-1.0405304,-0.03806563,2.3543967999999995
2.3734488,-11.04745,-1.7862468,-0.7253937,-0.34574974,2.3426857000000005
3.6999419000000002,-12.368714,-1.1571752,-0.6343748,-0.42931607,2.0829108
4.6226864,-12.690783,-0.7472687,-0.8536929,-0.35852554,1.7102656000000003
5.202878,-11.809391,-0.8899535,-1.316816,-0.16582373,1.438256
5.2348550000000005,-11.062437,-0.9800234,-1.7314888,0.07476991,1.4084458
5.2784580000000005,-11.630937,-0.6368672,-1.8336953,0.26162484,1.5628376
4.4612117,-12.101253,-0.55803096,-1.6255647,0.40109409999999995,1.7815971000000002
4.023676399999999,-12.163464,0.06832094,-1.2050277,0.50701815,1.9641936000000002
4.510791,-11.164909,1.0239426,-0.7930078,0.56557393,2.0749173
5.8595023,-10.043236,1.6312175,-0.56836647,0.5144707000000001,2.1393372999999998
7.670045399999999,-9.635772,1.379903,-0.46722463,0.31644565,2.112721
9.276278,-9.675487,0.58555466,-0.49329987,-0.010384709,1.9679285
9.831511500000001,-10.027625,-0.36444540000000003,-0.64554495,-0.32923892,1.727841
9.117014999999999,-10.570171,-0.6269361,-0.8212123,-0.48415434,1.5622965
7.498496,-10.373923,0.4517667,-0.9207658999999999,-0.44050366,1.5393978000000001
5.9132565999999995,-9.123259,1.9772657999999999,-0.86966264,-0.28612927,1.6245698999999998
4.8678718,-7.538508,3.0895354999999998,-0.67004937,-0.14186037,1.7187828
4.6492906,-6.155244000000001,3.3451405,-0.42730895,-0.066811204,1.7523279999999999
4.902491599999999,-5.550564,2.5671779999999997,-0.22448425,-0.107791536,1.7092183999999997
5.533019,-5.3061643,1.4211023999999999,-0.18989182,-0.22863813,1.4451675
6.3402677,-5.3208356,0.36524028,-0.2633353,-0.31539845,0.8543038000000001
7.2485027,-5.426372,-0.44595358,-0.25429448,-0.28239426,0.045169123
7.796785000000001,-5.8173449999999995,-0.75561005,-0.10259046,-0.02316052,-0.8076161999999999
7.653516000000001,-6.3339276,-0.29913157,0.16835445,0.60815996,-1.3867862
7.254047999999999,-6.77244,0.6497385,0.55801666,1.1820068000000001,-1.4698291
7.1030602,-6.9585943,1.5432928999999997,1.0104933,1.3880253999999999,-1.3255601000000001
7.525110000000001,-6.8838563,1.9535631999999998,1.3825973999999999,1.1532612,-1.2685926
8.424401,-7.0581164,1.9504700000000001,1.5832754,0.5485395000000001,-1.4027386
9.867443,-7.261556,1.4981669,1.5907278999999999,-0.29464647,-1.7296039
11.671704,-7.187748,1.118255,1.4672285,-1.0446843000000001,-2.1943152
13.437829999999998,-7.064830000000001,1.7138078,1.3240417,-1.4327582,-2.5690722000000004
14.381874,-7.583011,2.9072123,1.2457811,-1.4476632999999999,-2.6579618
14.330955,-9.139041,3.9648554,1.3187008999999998,-1.2118343999999999,-2.5829127
12.359933,-10.29751,4.3366656,1.4645755,-0.7950324000000001,-2.4796417
9.246896000000001,-9.727181,3.9965258,1.5731700000000002,-0.43676865,-2.4375792
7.888157400000001,-8.803614,2.8684738,1.5614413,-0.22383848,-2.3188793999999997
8.416098,-8.532322,1.4815032,1.3948147,0.087545715,-2.1480117
9.50543,-9.058836,0.15755764,1.4512588,0.01569051,-2.0718803
10.665382000000001,-9.930411,-0.4975151,1.5327133,-0.15837118,-2.033553
11.310496,-11.173594999999999,-0.09916783,1.5731525,-0.31965706,-2.0543221999999997
10.718295,-12.152528,0.9004496999999999,1.4624288,-0.3707603,-2.0569751
8.912215,-11.903387,2.0855603,1.274003,-0.3659781,-1.9659388
7.326103999999999,-10.717912,2.9817197,0.95246106,-0.33243287,-1.7551554
6.420837000000001,-9.554866,3.071301,0.63627726,-0.22596778,-1.5060097
5.7766532999999995,-8.671578,2.4908794999999997,0.26204374,-0.16102408,-1.1424402
4.7304444000000005,-8.166679,1.4127418,-0.12601277,-0.14133677,-0.76874775
4.850442,-7.733645,1.0671051999999999,-0.59498274,-0.09501573,-0.38599703
4.6586475,-7.2193894,0.9800138,-1.0362892,-0.0039968040000000005,-0.117181405
4.6831164,-7.053107300000001,0.8787773000000001,-1.4307337,0.20572196,0.07604399
4.3893476,-7.204910000000001,0.32935596,-1.7245773000000002,0.2845061,0.4098032999999999
3.954733,-7.7278223,-0.30590236,-1.7778098999999998,0.11683234,1.032624
3.3557036,-8.711925500000001,-1.0501639999999999,-1.4813133,-0.28187066,1.9088317
2.8719022,-9.414738999999999,-1.5049473,-0.8393288000000001,-0.70879567,2.684421
2.6613755,-10.261692,-1.8039543999999998,-0.102573,-0.82962483,2.956989
2.732761,-11.354214,-2.1014867,0.42917645,-0.74179983,2.8717997000000004
3.0584105999999998,-12.153753,-2.3660269,0.4339761,-0.549098,2.492784
3.5771,-12.529327,-2.1880705000000003,-0.06852163,-0.35159656,1.9759046999999998
4.2965865,-12.798014,-1.4962038,-0.74616313,-0.21851522,1.5660142
4.1050024,-13.240739999999999,-1.0968125,-1.0825928,-0.047647487,1.4110987
3.245034,-13.699814000000002,-0.5277970000000001,-1.0219076999999999,0.102450825,1.4233508999999998
2.2446884999999996,-13.843169,0.61532897,-0.77757907,0.26694809999999997,1.5617555
2.2127116,-13.178586,2.302925,-0.6311809,0.46603779999999995,1.7001601000000002
3.7892455999999997,-11.753079,3.4476697,-0.59658843,0.6358409,1.7320997
6.5344467,-10.585963000000001,3.6619123999999994,-0.59871775,0.693332,1.6964251000000001
8.725313,-9.952169999999999,2.0534015,-0.624793,0.60337776,1.6389340000000001
10.066986,-9.218711,-0.22414516,-0.66792005,0.42716932,1.5697317
10.062006,-8.684497,-1.9129863,-0.7216762,0.2626895,1.5053290000000001
8.891902,-8.391810000000001,-1.7104273,-0.794596,0.23127358,1.4957472
7.2621020000000005,-7.871340299999999,0.15222335,-0.783967,0.18762289,1.5106523
5.9964986,-7.095188,1.6860926,-0.6695083000000001,0.13812536,1.4962882
5.21868,-6.5011005,2.014079,-0.5002287999999999,0.14503686,1.4164219
5.300715,-6.07183,1.5050814,-0.36822957,0.20306906,1.3019806999999999
5.8984222,-5.7443795,0.96677864,-0.32990214,0.30899309999999997,1.1289662
6.4486099999999995,-5.7910185,0.48380113,-0.38311723,0.36276668,0.8372519
6.8843546,-6.0099254,-0.03127785,-0.48106509999999997,0.34786156,0.40395644
7.2885056,-6.2623505999999995,-0.29047412,-0.51248103,0.27759463,-0.12623966
7.5637813,-6.530099,-0.3240696,-0.42730895,0.24246114,-0.7187091
7.5658693,-6.6425977,-0.07476613,-0.20903808,0.3968355,-1.1264703999999999
7.5905867,-6.39634,0.42894518,0.12789772,0.7401767,-1.1978021
7.9137845,-5.954715,0.8517229,0.5441762,0.9584301,-1.106783
8.271689,-5.462668,0.9109649999999999,0.9295798000000001,0.91212654,-1.063656
8.644283999999999,-5.1551857000000005,0.6371737,1.23407,0.5570567,-1.1514984
9.5317955,-5.3285545999999995,0.26558402,1.4267718,-0.13281955,-1.3862453000000001
10.940429,-6.063028299999999,0.06099468,1.3937676,-0.9153379,-1.780166
12.131449,-7.109697,0.43791863,1.1680616000000001,-1.4577688,-2.21402
12.780249000000001,-8.127558,1.3374202,0.9907885000000001,-1.5871326000000001,-2.5232923
13.066471,-9.460171,2.3174915,0.9029635,-1.3821785,-2.6254988
12.469700999999999,-11.071947,3.1407807,0.9769655,-1.0138094000000002,-2.617505
10.418014999999999,-10.817739999999999,3.3342992999999996,1.0360448,-0.54962164,-2.531286
8.655011,-8.850608,2.7933247000000003,1.0621201,-0.07319911,-2.5142515
8.36445,-7.4060993,1.6851348999999998,1.0567969,0.30154052,-2.527551
8.819147000000001,-6.9633536,0.6276544,1.0386978,0.5123414000000001,-2.5334152999999997
9.741269,-7.324935400000001,-0.3808217,1.0248747999999999,0.46177920000000006,-2.4876177000000004
10.6865,-8.342777,-0.9971180000000001,1.0552086,0.20252799999999999,-2.3923402
11.132568,-9.804371000000002,-0.4530883,1.0844778,-0.10246828,-2.228384
