accx,accy,accz,gyrx,gyry,gyrz
12.844806,-6.7032576,-1.2965655,1.4675252,-2.0123121999999998,-1.951313
12.595952,-7.651677,-1.0424354,1.3663833,-2.123036,-2.3250055
11.626291,-8.186235,-0.5041614000000001,1.2444896,-2.00753,-2.557623
10.494638,-8.059016999999999,-0.015974113999999998,1.1694229999999999,-1.7717186000000003,-2.6662173
9.569548,-7.661560499999999,0.17038096,1.1422656999999998,-1.5231139999999999,-2.7327666
8.833991000000001,-7.2018924,0.037330396,1.1103436000000002,-1.38258,-2.7961047000000003
8.277109,-7.0694550000000005,-0.26598623,1.0033374,-1.3671339,-2.8844707
7.6028357,-7.4375973,-0.1324185,0.8665385,-1.4336833,-2.8961818
7.026197,-7.80233,0.19338445,0.7680496,-1.4970212,-2.7763999
6.5609746,-7.837333,0.44479480000000005,0.718011,-1.5082089,-2.5650754
6.431544000000001,-7.641937700000001,0.39079118,0.6493323000000001,-1.4438062,-2.3388459999999998
6.491159400000001,-7.5474625,0.1904348,0.5231799,-1.3069898000000002,-2.1338918
6.625914999999999,-7.5332985,0.14461936,0.36561158,-1.1552683000000001,-1.9390608
6.453303,-7.347536999999999,0.10355401,0.21549580000000002,-0.9221098,-1.7649816000000003
5.973323000000001,-7.258166,0.18652746,0.09679596,-0.7182379,-1.5749502
5.9215217,-7.4218054,0.25375664,0.039828412,-0.595803,-1.4014121000000002
5.746112999999999,-7.890312,-0.029917944,-0.03413864,-0.3434808,-1.2970763
4.935724,-8.516961,-0.20158220000000002,-0.13688618,-0.038990654,-1.0703056999999998
4.1351886,-8.961545,-0.14946522,-0.14379768,0.13985324,-0.63751644
4.048327,-9.254939,-0.06288131,-0.036285397000000004,0.17976889999999998,-0.13234831
4.128819999999999,-9.373721000000002,-0.5436753000000001,0.053145275,0.2809282,0.30201176
3.9651427000000004,-9.262152,-1.1917666,0.03876376,0.50450486,0.71881384
4.369848999999999,-9.468139,-2.0721529,-0.10281735,0.7360576999999999,1.108476
5.4136734,-10.231372,-2.8054395,-0.41315433,0.8494517,1.4896386000000001
6.0709290000000005,-10.051528999999999,-2.6633675,-0.72509706,0.7983485,1.8345679
6.687695,-9.824588,-1.7576408,-0.8842711,0.7190233,2.1017952
6.900262,-8.799006,-1.0342281999999998,-0.91727525,0.82974696,2.307814
7.724193,-8.340442,-1.1441506000000001,-0.9614495000000001,0.9910503,2.2748098
7.7185807,-8.779641999999999,-1.3265505,-1.0801668,1.0506707,2.1965666
7.629392,-9.375157000000002,-0.8895225,-1.0530095,0.84784603,2.3269777
8.233956,-9.583961,-0.6366470000000001,-0.91354024,0.55293775,2.5734529999999998
9.081811,-9.077319000000001,-0.7829614,-0.8140041,0.42146212,2.7688076
9.785418,-8.181571,-1.1397645,-0.9215338,0.5188689000000001,2.7586849
9.531202,-7.315894999999999,-1.2148658,-1.1845026,0.82442373,2.6421144
8.969646000000001,-6.77244,-0.8986684000000001,-1.4884517,1.1848167,2.5569422000000004
8.569930000000001,-6.4491653,-0.27676973,-1.6433669999999998,1.4035938000000001,2.5266085
8.518875999999999,-5.9948225,0.33802298,-1.5491368,1.4312747,2.5079683999999998
8.750548,-5.500859999999999,0.37956718,-1.3111786,1.2864822,2.475505
9.076754,-5.100511599999999,-0.21214543,-1.0711086,1.1097502000000001,2.4057617000000002
9.540674000000001,-5.006515,-1.0033333,-1.0056412000000001,0.9569815,2.3328419
9.999872,-4.783548000000001,-0.9593183000000001,-0.9635788000000001,0.8345466,2.2391527
10.403275500000001,-4.396923,-0.65544623,-0.81559235,0.75841534,2.1220412
11.062036,-3.813542,-0.86306185,-0.58775705,0.8286823,1.9186928
11.1418295,-3.47776,-2.2776422999999997,-0.58988637,1.010214,1.6477305
11.216652999999999,-3.3427172,-2.9001443,-0.82037455,1.098039,1.3767855
11.714369,-3.5959184,-2.1797193999999998,-0.8656309000000001,1.0064790000000001,1.0648428
12.073661999999999,-4.141538,-1.4272603000000001,-0.61810833,0.763215,0.7587470000000001
11.948101,-4.5752907,-1.4557416,-0.29923669,0.533774,0.54955184
11.925605000000001,-4.491618,-1.5404868,-0.057560957999999995,0.43902013,0.37547270000000005
12.233661999999999,-4.2646766,-1.4284766000000002,0.16439256,0.37301177,0.06407104
12.493921,-5.00595,-1.7657621,0.36349973,0.28625146,-0.36603045
12.319854,-6.6097207,-2.2755067,0.47315875,0.24685937,-0.6731735
11.938447,-7.646132499999999,-2.0515819,0.66160196,0.090355694,-0.75410444
11.96417,-7.021532499999999,-1.435659,1.0453999,-0.44673450000000003,-0.8610931000000001
12.183902,-6.261326,-1.3966815000000001,1.4494261999999998,-1.0083466,-1.2811066
11.997287,-6.3784980000000004,-1.7542698,1.5819839,-1.353817,-1.8576063000000003
10.783197,-7.331629799999999,-1.7126586,1.511717,-1.4794631999999999,-2.3904552000000003
9.817596,-8.330528999999999,-0.9565889000000001,1.4265449,-1.5656999,-2.6252196
9.164017999999999,-8.621463,-0.12632766,1.5010704,-1.6279733,-2.6922924999999998
9.243466,-8.638557,0.030904356,1.6133823,-1.6961110000000001,-2.7316847
9.012541,-8.505689,-0.28125164,1.6155291,-1.6982403000000001,-2.8519902000000004
8.467419999999999,-8.618935,-0.6858622,1.416963,-1.622109,-2.9584553
7.783875500000001,-8.687629,-0.5173008,1.1348305,-1.4709285,-2.9488733
7.350314,-8.631355000000001,-0.018770542,0.9309586,-1.3011255,-2.8610485
7.446159,-8.607327,0.13557886,0.7984009,-1.1568741000000002,-2.8157919999999996
7.5246315,-8.786576,-0.010524911000000001,0.658408,-1.0248399,-2.8605072
6.73533,-8.933235,0.023501484,0.5423611,-0.9716248,-2.7492425
6.272808599999999,-8.961238,0.25311500000000003,0.49124038,-0.9817302,-2.4420995999999997
6.427129,-8.676501,0.37221217,0.46783552,-0.909334,-2.1227042999999997
6.4679265,-8.340862,-0.18637423,0.37041122,-0.6751108,-2.0258211999999998
5.524046,-8.485472999999999,-0.64565873,0.13566445,-0.3983016,-1.8842225
4.571642,-8.748422999999999,-0.42973047,-0.0027227136,-0.27319640000000006,-1.4801788
4.737589,-8.94966,0.19070296,0.10266027,-0.34454545,-0.96755815
5.119196,-8.803202,0.110420585,0.32888985,-0.4302411,-0.52412236
5.490307,-8.583366,-0.8433049000000001,0.34592426,-0.38126716,-0.18877481
5.6874166,-8.202554,-1.468201,0.15269886,-0.22530456,0.02893756
5.5162983,-8.019627999999999,-1.4554927,-0.046373397000000004,-0.026738444,0.24452063
5.267301,-8.094078,-1.8392353,-0.17945476,0.20905554,0.4846081
5.186128599999999,-9.087183,-2.7613093999999996,-0.41954225,0.35918877,0.75876445
5.0105567,-9.450077,-2.6256442000000004,-0.67292917,0.4134685,1.183019
5.6373014,-9.000494,-1.6565386000000002,-0.7320085,0.43158500000000005,1.5844098
6.355753400000001,-7.823264599999999,-1.3380809999999999,-0.6457718000000001,0.50289917,1.7856113999999998
7.408761,-7.587886,-1.5082417,-0.6021211,0.5103692,1.7345081999999998
7.815803999999999,-8.0586815,-1.3728161,-0.52333695,0.46404815,1.6828813999999999
8.013479,-8.56611,-1.1937585,-0.33169982,0.32990214,1.771771
8.511742,-8.600011,-1.4740238,-0.13739231,0.29850367,1.8926176
8.842764,-7.814885,-2.3443446,-0.16083209,0.48586476,1.9059169999999999
8.68648,-6.9086604000000005,-3.3232667,-0.51536083,0.87978554,1.7621891
7.820266999999999,-6.090542299999999,-3.2986162000000006,-0.97261965,1.2508252,1.6227198999999999
6.8087363,-5.6309037,-2.6735474999999997,-1.2462349,1.4041348999999999,1.5620346999999999
6.18927,-5.4307675,-2.1302936000000003,-1.335142,1.3061869,1.6179377000000001
6.286925,-5.266851,-1.6199552,-1.2797801000000002,1.0245955,1.7121506000000002
6.7906265,-5.1166295999999996,-1.3815979999999999,-1.1227353999999998,0.7429866999999999,1.7802881999999998
7.109667999999999,-4.981299400000001,-1.2547723,-0.99443626,0.5470909,1.8484433
7.6903005,-4.986011,-0.9644419,-0.82198024,0.3522598,1.9586259
8.704398,-4.8125849999999994,-0.6992793,-0.55581754,0.18458602,2.0389984
9.695300999999999,-4.2672143,-0.90707684,-0.21671753,0.0988729,1.9926947
10.522776,-3.7614824999999996,-1.7204063000000003,-0.03255039,0.10578441,1.8170098999999997
11.105131,-3.4355550000000004,-2.5334005,-0.010175269,0.19949113,1.5306363
11.42809,-3.5028989999999998,-3.1287236000000003,-0.14486232,0.35332444,1.2096354
11.722700999999999,-4.053987,-3.3551002,-0.38493237,0.5215393,0.8897165000000001
11.836838,-4.661233,-2.8539937,-0.52173126,0.6306746999999999,0.64432317
11.5681505,-5.0167910000000004,-2.341223,-0.4754277,0.6200281999999999,0.49631926
11.462921000000001,-4.8212233,-2.0309055,-0.30986574,0.50611055,0.38774234
11.628791,-4.441321,-1.9138483,-0.12941617,0.39165187,0.19237019
11.668889,-4.256536,-1.8851273999999998,0.02867576,0.30276227,-0.063669614
11.653537,-4.976511,-2.0785983,0.13831735,0.20746729,-0.29202849999999997
11.898158,-5.759195,-2.0099993,0.2628815,0.07386234,-0.40168753
12.510566,-6.1091404,-1.6242168,0.49551642,-0.17844246,-0.53105134
12.657886,-5.2962419999999995,-1.2873143,0.8404633,-0.5399001,-0.7918908
12.944232000000001,-5.061725599999999,-1.6454103,1.0848094,-0.9034697,-1.2672486
12.816449,-5.7459784,-1.6318208,1.1774166000000001,-1.18082,-1.7867982
12.487093,-6.692684700000001,-1.3087090000000001,1.2221318,-1.3447761999999999,-2.2014885
11.988361,-7.3909197,-0.94936806,1.2397074,-1.4049201999999998,-2.5182135
11.369059,-7.858191499999999,-0.60344416,1.2492893,-1.3761747,-2.7620183999999997
10.441008,-8.017952000000001,-0.38110903,1.2588711000000001,-1.2590629999999998,-2.9259746
9.447807000000001,-7.964397999999999,-0.21829373,1.2902870000000002,-1.1334343,-3.0031529999999997
8.400775,-7.7498684,-0.28459397,1.356278,-1.0652966,-2.9989119
7.624105499999999,-7.4299836,-0.68132275,1.360554,-1.0471976,-2.9563086
7.0018139999999995,-7.289032499999999,-1.0813556,1.2721705,-1.0738138000000002,-2.9041580000000002
6.328833,-7.373385000000001,-1.1854361999999998,1.124184,-1.0897835,-2.7747943
5.923426999999999,-7.474362400000001,-1.2080088,0.965551,-1.1084237,-2.5565407
5.801926,-7.3624,-1.082524,0.84152794,-1.1291757,-2.3207119
5.6333175,-7.290919000000001,-1.0045974,0.7552911999999999,-1.1483393999999998,-2.0950234
5.4063754,-7.387682400000001,-1.0032376,0.63817966,-1.1520743,-1.7793458
5.272836,-7.3247056,-1.016262,0.5104215,-1.0754195,-1.4594268999999997
5.2548895,-7.2248964,-0.9214515999999999,0.35285320000000003,-0.9205040999999999,-1.1677126
4.9738584,-7.389378,-1.1187339,0.17931512,-0.7155675,-0.8940798000000001
4.906409,-7.765142999999999,-1.0768448,-0.016022123,-0.5484173000000001,-0.53422785
5.052905,-8.013565,-0.845,-0.14219198,-0.37913787,-0.16905259
5.3042006,-8.001758,-0.8204546,-0.25291565,-0.15289085,0.17959438
5.231129,-7.858842999999999,-0.94464666,-0.37428585,0.040858157,0.45586255
4.9402914,-7.965758,-0.7791115,-0.44614106,0.21226694,0.77579886
5.378095,-8.290718,-0.9012446,-0.37854445,0.3538655,1.1154225
6.4294275999999995,-8.974952,-2.0457304,-0.40355504,0.48108256,1.391167
6.577705,-9.321661,-2.805947,-0.65322435,0.7110645999999999,1.5907978
6.1407347,-9.348592,-2.7921082999999998,-0.9747488999999999,0.88619095,1.9043287
6.495833,-8.440748,-1.7087035,-1.056186,0.9671044,2.168903
7.7667904000000005,-8.107255,-1.5005229,-0.9912423,0.95272285,2.1880669999999998
8.651036,-8.422772,-1.4536923000000002,-0.8821243000000001,0.8329584000000001,2.1002245
8.897638,-8.772853,-1.481963,-0.67397636,0.6354569,2.0842547
8.8407135,-8.744601,-1.9886622,-0.5510179000000001,0.50982815,2.1774204
8.857885000000001,-8.149968,-2.4674547000000002,-0.6590712,0.607776,2.2545989
8.733674,-7.330845,-2.5780380000000003,-0.9310982,0.86063933,2.2641807000000003
8.546361,-6.5420127,-2.235696,-1.1913966,1.0879334999999999,2.2162714
8.143772,-5.882534,-1.6716604,-1.2925385,1.1693879999999999,2.1518688
7.726261,-5.388495400000001,-1.4037396,-1.2563403999999998,1.1001858,2.1364226000000004
7.758152000000001,-5.157129299999999,-1.3760148,-1.1562631,0.95272285,2.1667737999999996
8.124082000000001,-4.837293,-1.3544766000000001,-1.0551213,0.7717321999999999,2.1784852000000003
8.627995,-4.523471,-1.1724502,-0.9103288,0.6205518,2.153457
9.240871,-4.458578,-1.2312133,-0.7357435,0.49066442,2.0911663000000003
9.951882000000001,-4.2491330000000005,-1.3953121000000002,-0.52227235,0.39858085,2.004947
10.57494,-3.8091172999999996,-1.8693928,-0.3104068,0.32244956,1.8420554
10.910664,-3.3742730000000005,-2.6092392999999996,-0.23481660000000001,0.35067156,1.6184788
11.188487,-3.0740304,-3.1439602000000004,-0.26782078,0.46352455,1.3469927
11.470409,-2.9770463,-3.6393970999999996,-0.38386770000000003,0.58541834,1.0153453000000001
11.717089,-3.4419042999999996,-4.016733,-0.62980205,0.68443084,0.6528404000000001
11.246139999999999,-4.1426487000000005,-3.09192,-0.75968945,0.6812369,0.40104175
10.773218,-4.5342827,-1.8983338,-0.58561033,0.5492201999999999,0.3110875
11.069946,-4.274732599999999,-1.4288499,-0.21085322,0.35227725,0.26104888
11.754267,-3.763733,-2.0524723999999996,0.12023573,0.24792401,0.033196162
12.2274275,-3.9035447,-3.2091687,0.15430456,0.25324726,-0.31173325
12.424222,-5.284616000000001,-3.4229423999999997,0.02867576,0.24740042,-0.62367594
12.85944,-6.565878,-2.276809,0.13301153,0.04405211,-0.8121017
12.75217,-6.46061,-1.165507,0.63339746,-0.35250413,-0.9568941999999999
13.312422,-6.135831400000001,-1.6101676999999999,1.1018438,-0.83267915,-1.259255
13.684911999999999,-6.199699400000001,-2.0259256000000003,1.3562953000000002,-1.2468283000000002,-1.7638996
13.369279,-6.669757400000001,-1.9153229999999999,1.4670191000000001,-1.4746636,-2.3036776000000003
12.513372,-7.257706599999999,-1.8958056,1.4787302,-1.5018034,-2.7774472
11.348009,-7.6421866,-1.9195081000000003,1.4297563,-1.3532933999999999,-3.0537329
10.330195,-7.843146000000001,-2.0277643,1.3365906,-1.1770848999999999,-3.2065015
9.458561999999999,-7.9568424,-1.9546167,1.2886813,-1.1206584,-3.2581458
8.763649000000001,-8.038628,-2.0852828000000003,1.2418367000000001,-1.2175417,-3.2341998
7.803364299999999,-7.911007400000001,-1.9944466,1.1625288999999999,-1.3373237,-3.1570039
6.889181,-7.8161974,-1.8141058999999997,1.0358355,-1.4565645,-2.9861362000000002
6.277185,-7.7322755,-1.4330733999999998,0.8990190999999998,-1.5491891000000002,-2.7433958
6.169321,-7.552021000000001,-0.75042903,0.8511098,-1.6641715,-2.4751039
6.316019,-7.45315,-0.5288121,0.86547387,-1.7019752000000001,-2.229693
6.4747642999999995,-7.4807405,-1.0199203000000001,0.7499680000000001,-1.5986867,-2.0258211999999998
6.3383617,-7.618924000000001,-1.0406158,0.552484,-1.4986095,-1.8432248
5.8299384000000005,-7.783885000000001,-0.9068278000000001,0.36934659999999997,-1.4123728000000002,-1.644135
5.3787655999999995,-8.0841465,-0.70963186,0.15482816,-1.1706971000000002,-1.4088472
5.075296,-8.311098,-0.3423421,0.043039817,-0.9125279000000001,-1.1474841999999998
4.753285,-8.50567,-0.3875159,-0.043179445,-0.5867448000000001,-0.84672904
4.2911468,-8.577562,-0.52446425,-0.13793337,-0.2231578,-0.5262517
3.5263623999999996,-8.771616999999999,-0.73125625,-0.22362904,0.124424525,-0.19886282
2.7363236,-8.950742,-0.8163653000000001,-0.20446531,0.3666413,0.21739821
2.5694861,-8.947266,-1.194017,-0.054349552999999995,0.42146212,0.74227107
3.7832696000000006,-9.0506,-2.356172,0.0025830872,0.49970523,1.2234758
5.2707489999999995,-9.288153,-3.5161629,-0.20926498,0.63971555,1.5364832
6.0851125999999995,-9.224581,-3.7853382000000004,-0.47649235,0.78611374,1.7776352999999998
6.404652,-8.599044000000001,-3.4758062000000005,-0.7469137,0.9458114,2.0022767
7.281351600000001,-8.149691,-3.1272776,-0.9635788000000001,1.0639702,2.0906427
8.208797,-8.507269,-2.6137116000000002,-1.130188,1.123067,2.0815845
8.954888,-8.424372,-1.9073265,-1.0812141000000002,1.1837521,2.0512330000000003
8.983255,-8.215904,-2.3392692000000004,-0.99445367,1.2013276000000002,2.0033412
8.146109,-7.9087667,-2.8837297000000004,-1.0892076000000002,1.1528771999999998,2.0587032
7.991050200000001,-7.6645007,-2.296863,-1.1695799999999998,1.0331128,2.199237
8.171927,-7.006717,-1.4517385,-1.091337,0.8931024,2.3551995999999997
8.507356,-6.021628,-1.3065733999999998,-0.9923244000000001,0.87552696,2.4472833
8.754245,-4.8833475,-1.5575048,-0.95558524,1.0469532,2.421749
8.950407,-4.054571,-1.9562831000000003,-0.9992359000000001,1.1720409,2.3190014
9.207946000000002,-3.7072968,-1.9255509999999998,-1.0088178,1.1534183,2.1609097000000004
9.4492445,-3.6214983,-1.7140952,-0.82410955,0.9745395,2.0129056
9.7943535,-3.6189222,-1.923923,-0.5142962000000001,0.66952574,1.8883590000000001
10.177464,-3.3128664,-2.3813784,-0.27103218,0.42997932,1.7797471
10.538039999999999,-2.842741,-3.024595,-0.1645671,0.339484,1.6189848
10.734556,-2.2196357000000004,-3.3007133,-0.15603243,0.35119516,1.386891
11.253505,-2.0384425999999998,-3.504939,-0.14219198,0.37620570000000003,1.097847
11.480044,-2.054541,-4.0813475,-0.18797196,0.39856339,0.7539648
11.480091999999999,-2.7932575,-4.685271,-0.43071234,0.41294490000000006,0.43137556
11.152019500000002,-3.6633489999999997,-3.8161660000000004,-0.67399377,0.46617743,0.20408134
10.57222,-4.394107,-2.6382377,-0.703804,0.56997216,0.11250392
10.264133000000001,-4.415157,-1.5672541000000002,-0.43605307,0.56199604,0.16308357
10.852867999999999,-4.0381849999999995,-1.4631923,-0.006981317,0.37833503,0.10185742
11.186889,-4.025256,-2.1744618,0.29855603,0.1600816,-0.13020156
11.630342500000001,-5.068276,-2.953401,0.38903388,0.052028265,-0.39903462
11.581644,-6.257073999999999,-3.1214836,0.39596283,0.020612339,-0.5438271
11.532458,-6.530175700000001,-2.6747735,0.49549899,-0.05815437,-0.5959949999999999
11.686683,-5.5927978,-2.3688617,0.75846773,-0.29131290000000004,-0.7956258
11.811487,-5.4871845,-2.7234714,0.95116955,-0.67830473,-1.2172276000000002
12.078786000000001,-6.213796599999999,-2.6304328,1.0049431,-1.0418916999999999,-1.6893915000000002
11.835669000000001,-7.018094500000001,-1.9894188999999998,1.0118546,-1.2361819,-2.18126
10.757292,-7.812844999999999,-1.2054709,1.0581757,-1.2825029,-2.4782977
9.823879,-7.750758599999999,-0.8173709,1.187522,-1.1488805,-2.5618814999999997
9.925555000000001,-7.143714,-1.2690322,1.2625886,-1.0232516999999999,-2.6795167999999996
9.821475,-6.714414,-2.129068,1.2029682,-1.0094112,-2.892988
9.187663,-6.741363000000001,-2.489261,1.004402,-1.0237926,-3.0319335
8.474928,-6.762241,-2.125055,0.75686204,-0.9535256999999999,-3.0691965
7.9074160000000004,-6.714184299999999,-1.6157413999999999,0.6200631,-0.8284205,-3.0042353
7.904744,-6.519737,-1.6294075000000001,0.5657659,-0.65062386,-2.9360976
7.384828999999999,-6.277664,-2.0909999999999997,0.48113492,-0.5548053000000001,-2.8866
6.4922805,-6.386389299999999,-2.2563150000000003,0.3666762,-0.4717625,-2.7103915
5.687263,-6.439081,-2.057893,0.31398472,-0.45420447,-2.3697033
5.539608,-6.0955699999999995,-1.8207426,0.3283488,-0.5058313,-1.9859054
5.8197103,-5.734209,-1.3686215,0.43748423,-0.5462880999999999,-1.6446761000000003
6.3112783,-5.666032,-1.8255404999999998,0.5748241999999999,-0.49944340000000004,-1.4221815
6.0375442999999995,-5.8634386,-2.6946452,0.53649676,-0.49572587,-1.2544903
5.449998,-6.4246099999999995,-2.7156568,0.47261772,-0.52873003,-0.86589277
5.4159527,-6.522016000000001,-2.7203302000000003,0.46038294,-0.49679053,-0.34634313
5.9338274,-6.640797,-3.0948599999999997,0.3624176,-0.3498687,0.114633225
6.434292299999999,-6.5518475,-3.6022105000000004,0.15961036,-0.10232865,0.40847686
6.3953050000000005,-6.760594,-3.774861,-0.1044056,0.04670501,0.64004713
6.484858,-6.9091587,-3.4427376000000005,-0.22418754,0.06586873,0.90299845
6.53461,-6.894669,-3.4915410000000002,-0.18531907,0.09354965,1.139892
7.1452556,-7.8210716,-4.693746,-0.29923669,0.11430161400000001,1.3815677
7.527188000000001,-8.538174,-5.2239375,-0.6968925,0.19149752,1.6258963
7.406836500000001,-8.252142999999998,-4.278064700000001,-1.0982659,0.4150742,1.8729128000000002
6.871942999999999,-7.3662114,-2.9989293,-1.2914913000000001,0.72647583,2.0773083999999997
6.831250999999999,-6.6212029999999995,-2.2113519,-1.2489052999999999,0.7765144,2.1944373
7.857760400000001,-6.794208,-1.671373,-0.9273806999999998,0.5204746,2.2311592
9.035612,-6.851583,-1.6725127,-0.4440292,0.1685988,2.1598275
9.525877000000001,-6.9086419999999995,-2.688018,-0.11398745,-0.10925761,2.0815668
9.435243,-6.956496700000001,-3.9697014999999998,-0.24706881,-0.079970986,2.0533624
9.342452999999999,-6.4823585,-4.185141000000001,-0.7421489,0.25270623,2.0618796
9.087384,-5.874480200000001,-3.4629064,-1.264875,0.6897541,2.0363279999999997
8.709474,-5.2589692999999995,-2.1048672,-1.4841931000000002,0.9074665000000001,1.9788369
8.361271,-4.8190017,-1.2867396999999998,-1.3915684,0.8643569,1.9165634999999999
8.179608,-4.3867235,-1.1256005,-1.1994076999999999,0.7259348000000001,1.8595959
8.050609,-4.0766935,-1.0491488000000002,-0.95186764,0.5609314000000001,1.8111456999999997
8.025833,-3.7854242,-1.2575018,-0.7235088000000001,0.43795547,1.7925229
8.2282095,-3.5003517,-1.5594298,-0.5675286999999999,0.37727037,1.7983698000000001
8.597445,-3.2153745,-1.9509391999999999,-0.4440292,0.34906584,1.7845293000000002
9.345555000000001,-2.9996857999999995,-2.2648957000000003,-0.3535339,0.30541515,1.7116095
9.941568,-2.7798022999999996,-2.505398,-0.26516786,0.24685937,1.5449829
10.008654,-2.3485587000000003,-2.587816,-0.14379768,0.18030997,1.3927379
10.336621000000001,-2.0016293999999997,-2.992168,-0.0043284167,0.10365511,1.1861956
10.626913,-1.9163573,-3.4344153,0.057403877,0.08449139,0.8971515999999999
10.764905,-2.420385,-3.6629848,0.04675737,0.10951941,0.6714456
11.177655999999999,-3.0157267999999995,-3.6192095,0.052604225,0.16966346,0.53197634
11.370026,-3.4118333,-3.5949129999999996,0.093060955,0.20799088,0.4074122
11.61703,-3.3200681000000003,-3.2819333,0.22401302,0.092484996,0.26368433
11.604159,-3.0270755,-2.9536881,0.45610690000000004,-0.10606366,0.049689524000000006
11.626608000000001,-2.9806757,-2.8256368999999997,0.6402915,-0.16036086,-0.20102702
11.46679,-3.6530538,-2.8376078999999996,0.78028435,-0.074124135,-0.43418556
11.249108,-4.448264,-3.1016881,0.9261415000000001,-0.038990654,-0.50977576
11.926582000000002,-4.9453,-3.1976862,1.0948973999999998,-0.18910642,-0.54065067
12.838954,-4.605419599999999,-2.9582467,1.4180101999999999,-0.53246504,-0.7296174
13.557177,-4.312656400000001,-3.4344347,1.6458629,-0.9412735000000001,-1.1985874
13.195345999999999,-4.933396299999999,-3.6314580000000003,1.6181821,-1.2021129,-1.7548762999999998
12.223099000000001,-6.018726,-2.9697006,1.4909475,-1.3027312,-2.1088812000000003
11.905503,-7.009619,-2.110546,1.4015168,-1.3325415,-2.2888074
11.948283,-7.369803,-1.5538561000000002,1.370642,-1.2707916000000001,-2.4713862
11.705453,-7.4406424,-1.3896712,1.3339028,-1.1653912,-2.706674
10.567509,-7.256355999999999,-1.4941733,1.2535303999999998,-1.0174048,-2.9355740000000003
8.870958,-7.2594304,-1.5946053,1.099156,-0.90826935,-3.0622675
7.336533,-7.510629700000001,-1.2270955,0.9793915000000001,-0.84545493,-3.0297867999999997
6.1470650000000004,-7.820755999999999,-0.8959485999999999,0.9538399,-0.87154764,-2.8818178
5.520991,-8.05376,-0.42569864,1.10235,-1.107359,-2.6055322
5.354546,-7.997984,-0.42631155,1.29664,-1.3399940000000001,-2.2808137000000004
5.554720400000001,-7.6173635,-0.789014,1.3977993,-1.4741399,-2.0018752
5.412830400000001,-7.336945,-1.3887615,1.3163447,-1.4874393999999997,-1.8203435000000001
5.016312,-7.298292999999999,-1.4743494,1.1337483999999998,-1.4837219,-1.5110712
5.42438,-7.3763633,-1.3249799999999998,0.9953438,-1.4475236999999999,-1.2017988000000002
5.7540617,-7.604176,-1.4523419,0.81437063,-1.2180828000000001,-0.95000017
5.9647512,-7.775840299999999,-1.3362996999999999,0.6200631,-0.99876463,-0.68118453
6.43299,-7.8041496,-0.9260964,0.56150734,-0.8827351999999999,-0.41448078
6.578883,-8.078257,-1.0246992,0.5471258000000001,-0.7246258000000001,-0.22232004
6.2229705,-8.535166,-1.3794146,0.43800783,-0.4728446,-0.0030019663
5.8361160000000005,-8.788817,-1.333532,0.30332077,-0.20188223,0.29721212
5.8847566,-8.824183999999999,-1.0991971,0.31611404,0.045099307000000005,0.6048962
6.091596,-8.8064,-1.6151668,0.382646,0.21598449999999997,0.80665624
6.252333,-9.680878,-2.6009362,0.3235666,0.36397097,0.9945584000000001
5.72535,-10.010627000000001,-2.999906,0.14522885,0.46403068,1.3730506000000002
6.4431605,-9.767251,-3.1164942000000004,-0.023492131,0.5880711999999999,1.8031694999999999
7.413684,-8.57039,-3.080284,-0.19331266,0.81910044,1.9389037
7.895923599999999,-7.716224700000001,-3.1156514,-0.38121483,0.92291266,1.8425615000000002
8.065597,-7.594589699999999,-2.6754439999999997,-0.45786968,0.9154601000000001,1.7041568999999999
7.894430000000001,-7.636306299999999,-2.4041040000000002,-0.3530103,0.8622101000000001,1.6594416
7.692272999999999,-7.9194827000000005,-3.0820844,-0.28274333,0.85158104,1.721715
7.716292,-7.7274199999999995,-3.7849648,-0.42753586,0.85104,1.8862122
8.330816,-6.9131327,-3.7717872000000003,-0.68731064,0.9378003,1.9612613999999997
8.391274000000001,-5.8836260000000005,-3.350628,-0.8965233,1.0101966,1.9330568
8.205446,-4.9138402999999995,-2.9146438,-1.0444921999999999,1.1070973,1.838844
7.7055373,-4.0482793,-2.3042085,-1.0785611000000002,1.2242088,1.7345081999999998
7.167014,-3.4822037000000003,-2.080006,-0.9598613000000001,1.1997218,1.6855342
7.401071000000001,-3.0756490000000003,-2.0443227,-0.707539,0.98998564,1.655183
7.808765400000001,-2.7639240000000003,-2.3245877999999998,-0.3652625,0.66631436,1.584375
8.399960499999999,-2.6044989,-2.9493406,-0.11506956,0.39802232,1.4976146000000001
9.127626,-2.467062,-3.52098,-0.01977458,0.27293459999999997,1.3602747
9.507194,-2.3640635,-3.8973773,-0.051714107,0.25483552,1.1968421
9.91075,-2.336626,-3.872832,-0.12356931,0.29635692,0.9998816999999999
10.290834,-2.3265224,-3.7338150000000003,-0.13688618,0.3107384,0.7677878
10.642782,-2.3347106,-3.7684447999999997,-0.13156292,0.293704,0.50003684
11.007054,-2.5859869,-3.6279720999999996,-0.12676327,0.3107384,0.20245819
11.254107000000001,-3.104523,-3.3341079,-0.061295964,0.32244956,-0.06154031
11.094597,-3.7288542000000002,-3.188598,0.05953318,0.27399924,-0.25425956
10.855023,-3.8777353999999997,-2.9538702999999997,0.20219639,0.20692624,-0.37135372
10.811419500000001,-3.8779937999999996,-2.9041667,0.29907963,0.18191567,-0.53318065
11.109220500000001,-4.62441,-2.874105,0.36721727,0.16701056,-0.72694707
11.437016,-5.791526,-2.8389966,0.51572734,0.07225663,-0.77752674
12.496545,-6.2626095,-2.6058302,0.7717845999999999,-0.19549432,-0.7887143
13.104175,-5.728701999999999,-2.4916650000000002,1.0847745,-0.6048613,-0.97342247
13.176441,-5.434838,-2.5124942999999997,1.2407546,-0.97056013,-1.3726666
12.588032,-6.1552725,-2.0412676,1.2732351,-1.2015893,-1.7969210999999998
11.999959,-7.1470942,-1.4031267,1.2945281000000002,-1.2883497,-2.027968
11.705386,-7.641411,-1.1752848999999999,1.3456313999999998,-1.2675976999999998,-2.1232455000000003
11.420053999999999,-7.4995494,-1.5604641000000001,1.2689766000000002,-1.1797553,-2.2148054
10.816400999999999,-7.0165625,-1.6732501,1.0555053,-1.0456094,-2.361186
9.748221000000001,-6.490968,-1.4084322,0.8739911,-0.9444674999999999,-2.518231
8.653746,-6.126254599999999,-0.9413043,0.7898837,-0.89496994,-2.6364071
7.714347999999999,-6.024348000000001,-0.7386783,0.80105376,-0.8779355,-2.6757991000000003
7.2449594,-6.2326717,-0.67618,0.86812675,-0.89336425,-2.6784694
6.934039,-6.9139757,-1.0372831,0.9607514000000001,-0.9684308,-2.6390599999999997
6.268997,-7.5211835,-1.476418,0.99110264,-1.1158762,-2.4612634
5.631833,-7.7227564,-1.7672273,0.9016719999999999,-1.2218177,-2.1413444999999998
5.448035,-7.44998,-1.698303,0.73024577,-1.1430336,-1.8176906000000004
5.105022,-7.3894644,-1.6275303,0.5269149000000001,-0.89816386,-1.5589805
4.597691,-7.453284299999999,-1.4323934,0.44865432,-0.71291465,-1.2645957
4.619162,-7.791154,-1.3360603000000002,0.5098805000000001,-0.7102443,-0.88877404
5.3055224,-8.2890415,-1.6834685,0.62379813,-0.82789695,-0.51775193
5.6861043,-8.633577,-2.2261384,0.5721713,-0.8694183000000001,-0.18397516
5.8026643,-8.537809,-2.3679228,0.33527774,-0.7123735999999999,0.14285520000000002
5.8996,-8.418597,-2.0586016,0.023317598,-0.31847024,0.45851544
6.2748099999999996,-8.421000999999999,-1.7328753000000001,-0.23109904,0.1643402,0.7241371
6.8023868,-8.316432,-1.6457933999999999,-0.3806912,0.52790976,0.8753175
7.013028599999999,-8.699025,-2.173418,-0.48609164,0.7562861,0.98286474
7.2260740000000006,-9.599139,-3.0238099999999997,-0.78951716,0.8728741,1.1760901000000001
6.662766499999999,-9.073095,-2.3890877,-1.1498926999999999,0.9990264999999999,1.4161601000000001
6.3804426,-8.116258,-0.8753871999999999,-1.243582,1.1640473999999998,1.6466657999999998
6.626538,-7.0638146,-0.43642464,-1.1328583,1.2513486999999999,1.7451546999999998
7.663811,-7.1408119999999995,-0.66866225,-1.046098,1.1714997999999999,1.6578358
8.181542,-7.913392,-0.5487893,-0.93218035,0.9436646000000001,1.5572351
8.089375500000001,-8.817308,-0.49920059999999994,-0.8150688,0.7765144,1.6642238
8.052475999999999,-8.869521,-0.7641621999999999,-0.83049744,0.83135265,1.9564792000000002
8.404127,-7.921849000000001,-1.0205716,-1.0306518,1.0783516000000002,2.1688857000000006
8.657567,-6.374428,-0.661403,-1.2382587,1.394012,2.2189243
8.549139,-5.1530886,-0.4659787,-1.2781744,1.6516575,2.100207
7.641085,-4.61152,-0.99437904,-1.2286768999999997,1.6915731,2.0182290000000003
7.264937,-4.3682017,-1.2091006000000002,-1.1701211,1.4818543,2.0507095
7.4613667,-4.1148477,-1.2087941999999998,-1.0200053,1.2204739,2.0741316999999997
7.8650006999999995,-3.9733595999999998,-1.2175281999999998,-0.8422086,0.985186,2.0821080000000003
8.378681,-4.0702004,-1.479291,-0.6495068,0.83507025,2.103401
8.957245,-4.027028,-1.6503710999999999,-0.4786391,0.7360576999999999,2.125235
9.431421,-3.7365828000000003,-2.1332624,-0.2577153,0.6663318,2.1326876
9.807511,-3.3375937999999996,-3.1495914000000003,-0.20235348,0.6317219000000001,2.100207
10.796375,-2.9337877999999997,-3.6501522000000004,-0.31201252,0.6253340000000001,1.9362508000000003
11.85217,-2.7359693,-3.5378351,-0.37163296,0.6216165,1.6046208
12.820165,-3.0169528,-3.8376178999999997,-0.41263074,0.63917446,1.1723726
12.777586,-3.4943372999999998,-4.4736137000000005,-0.65057147,0.7483099,0.78536326
12.552924,-3.9625762000000004,-3.6452677,-0.8725599,0.8153829,0.48406705
12.781742,-4.1804103999999995,-2.0297658,-0.75225437,0.6604675,0.15296066
12.497034,-4.3595157,-1.1086686000000001,-0.36311576,0.43689079999999997,-0.19942132
12.244091000000001,-4.966034400000001,-1.4664676,-0.038938295,0.31977922,-0.4272566
12.573103,-5.7765956,-1.8317174999999999,0.15695746,0.30647979999999997,-0.56353194
13.53265,-6.0313387,-1.9607172,0.4098032999999999,0.17498670000000002,-0.7567573000000001
13.612291,-5.4892244,-1.9121627,0.7952069,-0.2263692,-1.0825405000000001
13.390158,-4.9025492999999996,-2.7166145,0.99110264,-0.6559471,-1.5696268999999998
13.344216000000001,-5.5333924,-2.9104874,0.8580213,-0.89709926,-2.1328099
13.291631,-6.765583,-2.0790386,0.6562786999999999,-0.9508554,-2.6390599999999997
12.7357645,-8.072617,-1.2559311000000002,0.54501396,-0.8262912,-2.9802892000000005
11.673983999999999,-8.686919999999999,-0.7488967,0.5593779999999999,-0.59367377,-3.1101767999999996
10.420619,-8.608084,-0.72258925,0.63763857,-0.40788344,-3.0974009999999996
9.217399,-7.8499746,-0.8124771,0.7371747,-0.4041659,-3.0420392000000005
8.362554,-7.085812599999999,-1.1424077,0.79627156,-0.57451004,-3.0010412
7.584371000000001,-6.5613093,-1.2302846,0.7563559,-0.70759135,-2.9978472999999997
6.7780137,-6.468223,-1.2036227,0.6786364,-0.70066243,-2.9329035
5.9801316,-6.388458,-1.2404646000000001,0.6019815,-0.5910034000000001,-2.800346
5.24403,-6.4897423,-1.4578389999999999,0.5370204000000001,-0.4946612,-2.6172432999999997
4.4603019999999995,-6.673665,-1.6486473000000001,0.47048840000000003,-0.50743705,-2.3217939999999997
4.0565057,-6.757261,-1.7188932000000001,0.41673225,-0.6681993,-1.8852871999999998
4.408003,-6.655353999999999,-1.6165075,0.37625808,-0.8720711999999999,-1.5025538999999999
4.88692,-6.686038000000001,-1.4694461,0.3379481,-1.0003704,-1.1927406
5.107751400000001,-7.0305157000000005,-1.2779098999999998,0.26926940000000005,-0.9615019,-0.89570296
5.396301,-7.6071258,-1.2277658,0.19207348,-0.83641416,-0.5188166000000001
6.0107584,-8.127089,-1.2607674999999998,0.115959674,-0.7187614999999999,-0.13606587
6.8190413,-8.254432000000001,-1.4935031,-0.019233529,-0.5143485,0.19502309
7.2082424,-8.0743685,-1.8390821,-0.25026277,-0.23701571,0.42285836
7.0126266,-7.9523406,-1.8826566000000002,-0.5574058000000001,0.096202545,0.63578856
6.6670565999999996,-7.7912683000000005,-1.4277103,-0.7352025,0.36555922,0.89608693
7.382492,-8.46107,-1.6019795000000001,-0.816116,0.44434336,1.1595968
7.3820806,-8.736825,-1.5622549,-0.93909186,0.56358427,1.4630222
6.9252953999999995,-8.094107000000001,-1.1154298,-0.96729636,0.68282515,1.8441671999999998
7.4149766,-6.546744,-0.5993166,-0.8858593000000001,0.7280814999999999,2.0916898
8.459749,-5.7393417,-0.6011745,-0.7682241,0.68814844,2.0139704
8.992986,-6.2904873,-0.36890817,-0.5377185,0.63065726,1.8931412
9.32193,-7.0790796,-0.987024,-0.20980603,0.41613886,1.9389212
10.007992999999999,-7.2475643,-2.3432433999999995,-0.11185815,0.24792401,2.0341988
10.591498,-6.7323804,-3.6241605000000003,-0.46425757,0.31445596,2.0022593
10.124322,-5.773378,-3.6083300000000005,-1.1418991000000003,0.7094589,1.8691952
8.963353999999999,-4.9733696,-2.3922193,-1.7343861,1.2598658999999999,1.7627127
8.294108,-4.3072457,-0.6741114,-1.8440450000000002,1.5888605,1.6669116000000002
7.8171550000000005,-3.9083235,-0.5671672,-1.5273027,1.5286989,1.5939743999999998
7.381075,-3.7376552000000003,-1.7307299999999999,-1.2728511,1.1731056,1.5641639999999999
7.2020936,-3.5158853999999997,-2.18446,-1.1663861,0.802066,1.5865216999999998
7.443812400000001,-3.4823089,-1.6296086,-1.017876,0.5907416,1.613138
7.732381,-3.5848765,-1.5211991000000002,-0.7389375,0.47682396,1.7094976999999998
8.150849000000001,-3.0514674,-2.251536,-0.4860742,0.40762165,1.8239387999999999
9.037432,-2.3605582999999997,-3.0110247,-0.31573007,0.29796259999999997,1.8074455000000003
10.10652,-2.3019292,-3.6801562000000003,-0.2577153,0.17500417,1.6509418000000002
10.796020500000001,-2.4809196,-4.0502709999999995,-0.19170697,0.042970005,1.4513111
11.323214,-2.9481528,-4.7498093,-0.25291565,-0.043772858,1.2857666
11.927482000000001,-3.250445,-4.6748033,-0.52387804,0.08716174,1.1164871
12.165868,-3.3291565999999997,-3.6074394999999995,-0.6676059,0.32190853,0.93015575
12.3611,-3.3024757000000005,-2.9645004,-0.53558916,0.3480012,0.73319536
12.867752000000001,-3.3518440000000003,-3.2081343999999996,-0.30243066,0.10951941,0.47609090000000004
13.664821,-4.4289760000000005,-3.6801752999999997,-0.2364223,-0.16194909999999998,0.17266542
13.823948000000001,-5.483354,-3.0454917,-0.21193533,-0.19015363,0.03213151
13.926860999999999,-5.302908,-2.0186663,-0.0016580628,-0.25244442,-0.031730086
14.451507000000001,-3.9713295,-1.0989386,0.47209412,-0.5414884,-0.3564486
14.979515,-3.6502383000000003,-1.2070893999999999,1.046482,-1.0615791,-1.0809348
13.900648,-4.9193373,-2.0624707,1.2881403,-1.4815751,-1.6622341
12.901491,-5.909368499999999,-2.0755525,1.2817523000000002,-1.5720878999999999,-1.9874936
12.246495,-6.4000363,-1.9587921999999998,1.1390891,-1.3761747,-2.2142644000000002
11.197796,-6.3833345999999995,-1.5866758,0.9980315999999999,-1.1259992,-2.429865
9.61587,-6.3587794,-1.1005284,0.9591630999999999,-1.0514561000000002,-2.576769
7.977930000000001,-6.0264544,-0.44630793,1.1332421999999998,-1.1983780000000002,-2.5746398
7.318088499999999,-5.7980957,-0.6445191,1.3626658,-1.5236375,-2.4788213
7.525857000000001,-5.7742496,-1.3284276000000002,1.3451078,-1.7850006,-2.4144187
7.5988417,-6.027173,-1.6999502,1.082139,-1.8334508999999999,-2.4367764
7.217512599999999,-6.4570374,-1.3098006000000002,0.7377158,-1.7786127,-2.373421
7.178266499999999,-6.596677000000001,-0.37712505,0.52585024,-1.6647124,-2.1961652999999997
7.6474056,-6.42621,-0.07101203,0.39170423,-1.4900923000000001,-2.0769243000000004
7.8346032999999995,-6.72107,-0.21047907,0.16173966,-1.2095655,-2.0902238
7.3137115999999995,-7.341494,0.12632766,-0.026145032000000002,-0.9306270000000001,-2.038056
6.785425999999999,-7.9864345000000005,0.6861303000000001,-0.018168878,-0.7735823000000001,-1.8043737000000002
6.5970889999999995,-8.185143,1.1543405,0.23467697,-0.6559471,-1.4615562
6.744294,-8.168681,0.40849867,0.49605748,-0.57609826,-1.1613072
6.841661,-8.063153999999999,-0.43345585,0.55833083,-0.47760934,-0.97127575
6.6410365,-8.140161500000001,-0.8730696,0.5333028000000001,-0.27693140000000005,-0.80786055
6.235037999999999,-8.504626,-1.0604781,0.53332025,0.009442232,-0.5928011
5.2474003,-8.524105,-1.3367403,0.6562786999999999,0.22717206,-0.29682815
4.554020400000001,-8.113441,-2.2692816000000002,0.8069181,0.406557,0.08962265400000001
4.815793,-7.8981460000000006,-3.6278572000000002,0.87027353,0.6013881,0.41807616
5.5627556,-8.438297,-5.533297,0.64669687,0.68656015,0.66294587
5.018888,-8.372514,-6.6599894,0.17983873,0.7722733,0.9078156
5.210970400000001,-8.383804,-6.859311,-0.3705683,0.7025299,1.2272108
6.1907544,-7.7377152,-5.8550587,-0.8001461999999999,0.6998770000000001,1.4097897
7.0893273,-7.547758999999999,-4.983300700000001,-1.0338284,0.69348913,1.4247123
7.4182043,-7.4732899999999995,-4.2574654,-1.1647978,0.71371746,1.4097897
7.7394967,-7.6725449999999995,-3.7639437000000004,-1.2515582,0.6439741,1.4103308
7.5758386,-7.782755,-3.0098083,-1.3026613999999999,0.5785068,1.464628
7.3227139999999995,-7.543392,-2.1083244999999997,-1.2111014,0.5492201999999999,1.6120733
7.2165546,-6.9739455999999995,-1.6483408,-1.0588563999999998,0.49652870000000005,1.7281203
6.980964999999999,-6.1081257,-1.5742738,-0.9422684000000001,0.48214722,1.7978636000000001
6.673166999999999,-5.321171,-1.7602936999999999,-0.9193870999999999,0.60938174,1.8436436999999999
6.677227499999999,-4.8628345,-1.7618451000000002,-0.92844534,0.7025299,1.8867532999999999
6.8906565,-4.5290446,-1.5364741000000002,-0.84646726,0.62428683,1.9362682
7.393064999999999,-4.368556,-1.3498701000000002,-0.657483,0.44968408,1.9996063000000002
8.162647,-4.242985,-1.3315114,-0.4184776,0.30860913,2.0475156
8.81862,-3.6905087999999995,-1.5092857,-0.14484487,0.21652554,2.0219638
9.215703999999999,-3.139373,-2.3422282,-0.017086774,0.25644124,1.9352037
9.757359,-2.7877702999999996,-2.818732,-0.026145032000000002,0.36131805,1.7808292000000001
10.037144999999999,-2.5332665,-2.9277449,-0.016022123,0.42678535,1.6094203999999999
10.456705,-2.423679,-3.1765504,0.04782202,0.4582013,1.4188478999999998
11.272869,-2.44312,-3.7152550000000004,0.049427725,0.45500734,1.1532263
11.8201065,-2.7448852,-4.218229,-0.05914921,0.46830675,0.8375485999999999
11.955982,-3.0608144,-4.0325446000000005,-0.18317229999999998,0.5071752,0.5522222
11.8768015,-3.2648485000000003,-3.3340695,-0.17200220000000002,0.49918163,0.32545155
11.962121,-3.3181623999999994,-2.4832468,0.051015973,0.43476152,0.08962265400000001
11.72454,-3.2972467000000005,-2.3474667,0.41725585,0.33470178,-0.18610446
10.984635,-3.3507426,-3.337364,0.63763857,0.26549947,-0.4027522
10.476816,-3.6363230000000004,-4.1463456,0.61742765,0.25698227,-0.5448743
10.105647,-4.2546496,-4.0703629999999995,0.545555,0.25059438,-0.5975833
10.442234,-5.2549852999999995,-3.5896074999999996,0.61262804,0.08822639,-0.52571064
11.858874,-5.9125676,-2.6959476,0.88943726,-0.31738812,-0.4384267
13.077782000000001,-5.2001295,-2.4459355,1.3413903,-0.7214144,-0.5789432
13.931056,-4.5794377,-3.4242446,1.5111933000000002,-1.0163227,-1.0101267
14.309970999999999,-4.9616194,-3.7550947999999997,1.3089097,-1.1909253999999998,-1.6553050999999999
14.041160999999999,-5.9461246,-2.7477105,1.0379473,-1.1760203000000002,-2.251527
13.212929,-6.848231,-1.6405357,0.8915665,-1.0088701,-2.7130444
12.020261999999999,-7.291187,-1.1828313999999998,0.8644091999999999,-0.7507010000000001,-2.9738839
11.094118,-7.577227000000001,-1.3646280000000002,0.82023495,-0.5063549,-3.1788380000000003
10.156683000000001,-7.6311729999999995,-1.5221664,0.7686081,-0.39191368,-3.3225657999999996
8.735044,-7.894228999999999,-1.4799708999999999,0.73080426,-0.38552576,-3.3997443
6.989613,-8.09153,-1.1733216,0.7478387,-0.4424759,-3.2751799999999998
5.5409775,-8.007791000000001,-1.0176985,0.8511098,-0.49944340000000004,-2.9802717999999997
4.5904984,-7.840358999999999,-1.2591107,0.95385736,-0.63146013,-2.5448296000000004
4.661587,-7.4209914,-1.7605043999999999,0.9533163,-0.76134753,-2.1088638
4.8495035,-7.146807000000001,-2.025734,0.8612327,-0.8097804,-1.8347075000000002
4.3343287,-7.266440400000001,-2.2005203,0.73345715,-0.86727154,-1.513183
4.0578656,-7.5088296,-2.2244337000000005,0.60517544,-0.9135926,-1.0841287
4.323248400000001,-7.5767,-2.1814244,0.44708353,-0.8922996,-0.6588094
4.8827157,-7.601217,-1.9150453,0.33581880000000003,-0.8230973,-0.28776988
5.4248400000000006,-7.612891,-2.0261075,0.23680627,-0.74803066,0.01616175
6.005673000000001,-7.783866000000001,-2.3642263,0.045710173,-0.65488243,0.26104888
6.459403,-8.214496,-2.4242442000000004,-0.24492206,-0.45312238,0.47397906
6.3721485,-8.695377,-2.176703,-0.5680523000000001,-0.09700539999999999,0.74118894
6.267952999999999,-8.698958,-1.6898563000000002,-0.80707514,0.24846508,1.0360973
5.9936733,-8.574259,-1.740144,-0.9593028,0.5327268000000001,1.2793787
6.2480907,-9.073803999999999,-1.9708302,-1.0902723,0.65674996,1.5423474
6.807663400000001,-9.870661,-1.9075276,-1.1887437,0.6514267,1.8713244999999998
7.237728999999999,-9.67448,-1.3815979999999999,-1.1674508,0.6807133000000001,2.2178771
7.705441499999999,-9.268338,-1.3261962,-1.1631922,0.74405134,2.4808285
8.173345,-8.150514,-1.1978191,-1.190332,0.82018256,2.6069982000000005
8.921945,-7.447719599999999,-1.1133995,-1.239306,0.8813913000000001,2.5196970000000003
9.558247,-7.2981496,-0.5913487,-1.1738386,0.85851,2.3520057
10.035449,-7.5582266,-0.73878366,-1.0125527,0.8212472,2.1933727000000003
9.981733,-7.902483999999999,-1.4729416000000002,-1.0274404000000001,0.8760680000000001,2.1444162999999996
9.896309,-7.695682499999999,-1.7112606,-1.2068428,1.055994,2.1555862
9.593403,-6.9317985,-1.6824342,-1.4219023000000002,1.2997991000000002,2.1353579
8.864091,-5.9379935,-1.4961556999999999,-1.6119337,1.532434,2.0666966
8.155475,-5.1158155999999995,-1.4424875,-1.7221339,1.7144892,1.9958886999999998
7.522322999999999,-4.625923,-1.4847019,-1.7242631000000002,1.6692328,1.9580848000000002
7.2343583,-4.332145,-1.2760904,-1.610869,1.4312922,1.9666195
7.4249845,-4.327778299999999,-0.97047526,-1.3638701000000002,1.0858041999999999,2.0012119999999998
7.811801400000001,-4.3575144,-0.9325224,-1.0034945,0.7429866999999999,2.081061
8.543116,-4.277251000000001,-1.4349697,-0.69739866,0.5359208000000001,2.160386
9.043283,-4.0444293,-2.3719165,-0.56272906,0.5385736999999999,2.2279825
9.756621,-3.4233732000000003,-3.2818568,-0.6271317,0.653556,2.224265
10.639583,-2.7048063,-3.6760379999999997,-0.809728,0.79302526,2.029434
11.330042,-2.4938195,-3.7552767,-0.97527254,0.8744798,1.7339846
11.860905,-2.785893,-3.4908707000000003,-1.1136771,0.90322536,1.3863848
11.882606,-3.0571754,-2.8034282000000004,-1.1285822,0.8883201999999999,1.0999937
12.069363000000001,-3.3155577000000003,-2.0636773,-1.0258521999999999,0.89257884,0.86310023
12.324096,-3.3617752,-1.4275379,-0.79002327,0.86915654,0.61877155
12.497656,-2.9659847999999998,-1.0089835999999999,-0.44827035,0.83986986,0.30096456
13.168885000000001,-3.5855947,-1.1752082,-0.075118974,0.6727371999999999,-0.11901400000000001
13.350461,-4.8806953,-1.7311802,0.25864035,0.5034402,-0.4075344
13.785257000000001,-5.6270823,-1.9762316000000002,0.5684537,0.2676288,-0.5768139
14.318082999999998,-5.0836754,-1.6759125,1.0188011000000001,-0.15395549,-0.8770454
14.329958,-4.661932,-2.2565637,1.4239093999999999,-0.6202726,-1.3827546
14.145307999999998,-5.093348000000001,-2.7306923999999997,1.5670962,-0.9732129999999999,-1.9353083
14.28442,-5.836910700000001,-2.4709501,1.5905186000000002,-1.134499,-2.4750862000000002
14.210478,-6.736948,-2.3920279,1.4989586000000001,-1.0669023000000002,-2.9861362000000002
13.535581,-7.584878999999999,-2.1574917,1.3089097,-0.8481078000000002,-3.4103909
12.094778999999999,-8.234647,-1.4302673000000001,1.2168261,-0.70066243,-3.6637776
10.757895,-8.453658,-0.7478912,1.3057157,-0.69586277,-3.7287214
9.62562,-8.4110985,-0.64316875,1.4467907,-0.76612973,-3.7116870000000004
8.700011,-8.336573,-0.94965535,1.470213,-0.8401316999999999,-3.6893294
7.6061296,-8.559422999999999,-1.0258484,1.3876939,-0.926892,-3.6153274
6.2191014000000004,-8.748997,-0.87964886,1.3014572,-0.89336425,-3.394421
5.165078,-8.592541,-1.0219603000000002,1.2322548999999998,-0.8555603999999999,-3.0090175
4.685299400000001,-8.206692,-1.323668,1.1497531,-0.8901703000000001,-2.5783575
4.956189,-8.014944,-1.6860830000000002,0.97354466,-0.98385954,-2.1738076
5.186693,-8.099297,-1.6536847,0.7797782,-1.0200577,-1.8906105
4.7290845,-8.353810000000001,-1.6977763,0.56897736,-0.95031434,-1.5653508999999999
4.104236,-8.513005999999999,-1.8024316000000002,0.3336895,-0.84384924,-1.1325616000000003
4.0713305,-8.563389,-1.6427863,0.12716469,-0.76133007,-0.62207025
4.7281747,-8.612748,-1.8215566000000003,-0.076183625,-0.6436949000000001,-0.189822
5.550602400000001,-8.314517,-1.8571056000000001,-0.38226202,-0.41266564,0.09442231
5.271917,-8.185431,-1.3767809,-0.6404486,-0.1795071,0.31854004
4.455925499999999,-8.13907,-0.69747883,-0.74743724,0.05948082,0.74173003
5.1324883,-8.055694,-0.5500918,-0.5951922,0.14358823,1.169196
6.516538,-8.709494,-1.9230611,-0.6223495,0.18139207,1.4742098
6.7889886,-8.352200999999999,-1.8282028000000001,-0.7197563,0.2804046,1.7973226000000002
7.135554300000001,-7.413531,-1.1034875,-0.6271317,0.37196457,2.0959659
8.275242,-6.4285274,-1.226607,-0.40303144,0.42519712,2.2290473
9.798213,-6.2739773,-1.9527683,-0.28005552,0.4076391,2.0965068
10.491181,-6.5610704,-2.172872,-0.16613789,0.32299063,1.8894236
10.220875999999999,-6.8786273,-2.473785,-0.08361872,0.258588,1.8452493000000003
10.1053705,-6.463042,-2.8643560000000003,-0.15601498,0.346954,1.8585662
9.9029455,-5.7101707,-3.086241,-0.39610246,0.56892496,1.8101158
9.454999,-4.8349657,-2.9948876,-0.7266853,0.8718094000000001,1.7025686999999998
8.610076,-4.03083,-2.251718,-0.93322754,1.1166791,1.5758927
7.625303,-3.4358517999999996,-1.8310663,-0.89968234,1.1736467,1.5274423000000001
7.137651400000001,-3.134939,-2.1075392,-0.8294154,1.0959271000000002,1.5876038000000001
7.8443913,-2.8885085999999998,-2.1941326,-0.8049284000000001,0.9362295,1.6019678999999998
8.568033999999999,-2.8653612,-1.8729168999999999,-0.7548898,0.76747364,1.5332892
8.778551,-2.6997112999999997,-1.3395846000000002,-0.55686474,0.6673964,1.4641043
8.857321,-2.3483862999999996,-1.4473236,-0.30560714,0.5726425,1.3837144
9.10763,-2.1039095000000003,-1.6005046,-0.06660176,0.39964548,1.257562
9.556705000000001,-2.2856965,-1.8901361,0.21233675,0.24740042,1.1127696000000002
10.364719000000001,-2.8422527,-2.9357029999999997,0.41407937,0.11006046,0.991923
11.217152,-3.3973818,-4.11275,0.36936402,0.07012733,0.8173201999999999
11.558009,-3.7594233,-4.6085415,0.098419115,0.13615313,0.64912283
11.666905999999999,-3.8690394999999995,-4.1032214,-0.20820032,0.26921704,0.4803495
12.005255,-4.0428205,-3.165326,-0.32850587,0.35866517,0.30628783
12.130999000000001,-4.0718093,-2.3118892000000004,-0.24652776,0.35705945,0.09496336400000001
11.871736,-3.9048182999999996,-2.1267214,-0.076183625,0.28412214,-0.13765411
11.1598625,-3.8803400000000003,-2.2389232999999997,0.028134707000000002,0.26391125,-0.38624138
10.365888,-4.254716999999999,-2.359323,0.045169123,0.32405528,-0.5012236
10.309911,-4.7179947,-2.2177777,0.12981759,0.29585075,-0.50867623
10.935353,-5.20124,-1.7318122,0.38692203,0.01850049,-0.51719344
11.890514999999999,-5.5892544,-1.4674636,0.8569741,-0.59098595,-0.63058746
12.7950735,-6.143129,-2.0351288,1.1508178,-1.0775313,-0.8211424999999999
13.31905,-6.514939,-1.9851092000000001,1.2402483999999998,-1.3522288,-1.1059453000000001
13.008253,-6.665908,-1.4008857,1.2796406,-1.3953383999999998,-1.4173645000000001
12.024427000000001,-6.409871599999999,-0.86196053,1.3376727,-1.2819443000000001,-1.6675400000000002
10.492761999999999,-5.7914877,-0.7478623999999999,1.4281504999999999,-1.0807427,-1.8762289
9.393373500000001,-5.351453,-1.4647822,1.4462496,-0.92635095,-2.018351
8.823858999999999,-5.245629,-2.0290284,1.4079221000000002,-0.9210451,-2.144521
7.835714299999999,-5.235717,-2.2585653999999997,1.3477781999999998,-1.0248399,-2.1737902
6.8717995,-5.0864720000000005,-2.1949754,1.3035864,-1.216477,-2.064131
6.5707235,-4.9814715,-2.2988167,1.2333193999999998,-1.4725343000000002,-1.8953927
6.9959435,-4.899494,-2.3426112999999997,1.0422233,-1.5981631,-1.7963802
7.3086357,-4.9501653,-2.0979047000000004,0.76754344,-1.5986867,-1.7873218999999998
7.0779977,-5.1786769999999995,-1.5710081,0.48541096,-1.4922216,-1.7553823
6.9215417,-5.4438787,-1.0023469,0.2708751,-1.3490174,-1.6691456000000002
6.756284,-5.8796805999999995,-0.63950086,0.12875293,-1.1440808,-1.5690684
6.3166895,-6.3113647,-0.48354253,0.06913249,-0.9678898000000001,-1.3598733
6.2272224000000005,-6.733759399999999,-0.78547055,0.022811454,-0.91305155,-1.0867816000000001
6.394970400000001,-7.125833999999999,-0.9757521,-0.07564257,-0.8225562,-0.8286125
6.173277,-7.6947155,-0.97018796,-0.19488347,-0.6538178000000001,-0.5331632
6.244087,-8.084864999999999,-0.8126111999999999,-0.26782078,-0.42650609999999994,-0.16107644
6.6978464,-7.8654795,-0.9661656999999999,-0.36896262,-0.122539565,0.10348057
6.461739499999999,-7.434963000000001,-1.0869963,-0.48340383,0.18086848,0.2110103
5.9571760000000005,-7.641238,-1.4705378999999998,-0.5632526,0.45128977,0.34356806
6.048989,-8.886741,-1.9612342,-0.65003043,0.5971295,0.5958729
5.4342440000000005,-9.387608,-1.6685096000000001,-0.6707824,0.7408748000000001,1.038244
5.381466400000001,-8.620477000000001,-1.1612165,-0.45094073,0.86543894,1.5444767
6.1895094,-7.02566,-1.8348875,-0.06977826,0.9287770000000001,1.8303441999999999
8.143082000000001,-6.614825200000001,-3.7448761,0.13939945,0.7584328,1.7323964
9.29455,-7.063565299999999,-5.3925085,0.0020594885999999997,0.5359208000000001,1.4907206
9.271028999999999,-7.840302,-6.050099400000001,-0.43603559999999997,0.42519712,1.3161178999999998
8.318645,-8.307277000000001,-5.221792,-0.99391264,0.62748075,1.3384756000000002
7.329446300000001,-8.105838,-3.6655707000000004,-1.4575593,0.98520344,1.5306363
6.898557,-7.257266,-2.2366345,-1.5762767,1.1614118999999998,1.7126915
6.8218565,-6.132010500000001,-1.3639191000000002,-1.419773,1.19014,1.8207624
6.417935400000001,-5.189193,-1.4013358,-1.0897138000000002,0.9857445,1.861219
6.0360985000000005,-4.488582599999999,-1.9698533999999999,-0.8065340999999999,0.68816584,1.9442618999999999
6.262571,-4.1590734,-2.4564798,-0.6745174,0.51836276,2.0352807
6.7229470000000005,-3.7653131,-2.7258275000000003,-0.6372545999999999,0.42039746,2.0885133999999996
7.424285,-3.7787205999999998,-2.9146917,-0.6564183000000001,0.37035885,2.0784078
8.359011,-4.036279,-2.7664904999999997,-0.63193136,0.25220007,2.0491211
8.992275999999999,-4.020401000000001,-2.4818678,-0.49405035,0.13934709,2.0278282
9.420763,-3.6245244,-2.5591909999999998,-0.30401890000000004,0.10845476,1.9831129
10.226766,-3.5540488,-3.2334461,-0.21617648,0.07972664,1.8362086
10.915338,-3.5230870000000003,-3.4269931000000002,-0.18903661,0.05469862,1.6147437
11.266932,-3.3855638999999997,-3.4614315,-0.13578662,0.101543255,1.3762794
11.628772,-3.37434,-3.718789,-0.13100441,0.163293,1.1228924999999998
11.8576765,-3.4735080000000003,-3.8328870000000004,-0.15442674,0.21439624,0.8843931999999999
11.985728,-3.558502,-3.6159818,-0.18210766,0.25165904,0.6331531
11.831446000000001,-3.5534934999999996,-3.1027513,-0.111840695,0.24794148,0.37816048
11.629548,-3.636419,-3.0358093,0.022811454,0.21385519,0.15191346
11.80396,-4.028569999999999,-3.1677682000000003,0.10107201,0.15796974,-0.038100537000000004
12.420295,-4.937725,-2.9083707000000003,0.15962781,0.085573494,-0.24251350000000002
12.737200999999999,-5.426659,-2.4517393,0.3294309,0.04564036,-0.411793
12.823105,-5.0398903,-2.3238506,0.57271236,-0.051749012999999996,-0.6226113
13.136754999999999,-4.3071303,-2.8385081000000003,0.8053298000000001,-0.28490755,-0.9787283000000001
13.946579000000002,-4.4563947,-3.3937904999999997,0.8564504999999999,-0.55691713,-1.5605513
13.861374,-5.4844837,-2.827964,0.81012946,-0.75602424,-2.1477149
13.252232999999999,-6.719892,-1.8144122,0.82023495,-0.8534311,-2.614032
12.41793,-7.692024000000001,-1.0248141,0.89797187,-0.8039161,-2.9014702000000003
11.3154955,-8.042266999999999,-0.6289759,1.043288,-0.6394363000000001,-3.040957
10.18568,-8.117780999999999,-0.7481689,1.1683933000000002,-0.5483998999999999,-3.0814137
9.09723,-7.81795,-0.87182456,1.2908106000000001,-0.56384605,-3.0675733
7.787965,-7.421757,-1.1268646,1.4254977,-0.6985331,-2.9717546
6.944219,-6.9070134,-1.5677329,1.4510493,-0.84597856,-2.793417
6.631402499999999,-6.484954,-1.8244966,1.3435196000000003,-0.90134037,-2.6619412999999996
6.2999873,-6.4058495,-1.7508223000000003,1.1742401000000002,-0.85449576,-2.5373597
6.0319996,-6.445727,-1.5659707,1.0235833,-0.7725175999999999,-2.375009
5.8635144,-6.4427012999999995,-1.4279688999999998,0.9176591999999999,-0.73577845,-2.1748548
5.5774745999999995,-6.4668922,-1.4369806999999999,0.8580388000000001,-0.7432310000000001,-1.9800236
5.273909,-6.6469936,-1.4613441,0.78670716,-0.8039161,-1.7223781000000002
5.204899,-7.003260000000001,-1.3170791000000002,0.72548103,-0.87100655,-1.4264052
5.1604147000000005,-7.428499,-1.2218951,0.68183035,-0.8300088,-1.0969045
5.1139097,-7.7251315,-1.5041045,0.59135246,-0.68680453,-0.72640604
5.142180000000001,-7.932210400000001,-1.9381925,0.4002389,-0.48080329999999993,-0.3729245
5.0670980000000005,-8.2108,-2.2268662,0.11491248,-0.19334757,-0.029583331
5.0595517,-8.538863000000001,-2.1490737999999996,-0.17571975,0.038187806,0.33609805
5.08018,-8.640664,-1.5817916,-0.33541736,0.21279055,0.71937233
5.322789,-8.462785,-1.3222123,-0.30506609999999995,0.33843678,1.0542138
6.275862999999999,-9.082538000000001,-2.3866649,-0.3439346,0.5109102,1.3129239
6.4961877,-9.513983999999999,-3.4260452000000003,-0.6771703,0.7823962,1.5269188
5.941547,-9.4533615,-3.3538265,-1.0449984,0.91334826,1.8915703000000001
6.264869,-8.685694999999999,-2.440429,-1.2323945,0.929318,2.284409
7.751122500000001,-7.795971000000001,-1.7736150000000002,-1.1642568000000002,0.8494691999999999,2.3642578
9.097832,-8.066899000000001,-1.7449708,-1.1115478,0.7323576,2.1795497000000004
9.212093,-8.794439,-1.2888658000000002,-0.9507856,0.54072046,2.060309
8.778245,-9.288784,-1.2839528,-0.7756592,0.45446628,2.2034957000000004
9.054431,-8.817701,-1.4952556000000001,-0.69739866,0.5380501,2.4142964
9.337117999999998,-7.4938899999999995,-1.7976241000000002,-0.72240925,0.6982888,2.446777
8.942458,-6.1405625,-2.1605754,-0.8395383,0.9277122999999999,2.3450942
8.265464,-5.033100599999999,-2.3243582000000003,-0.964626,1.1145498,2.184332
7.544302,-4.554757599999999,-2.5698592999999996,-1.0439337,1.1614118999999998,2.0459447
7.025976700000001,-4.498082599999999,-2.8166826,-1.0934488000000002,0.99372065,2.0209167000000003
7.217100599999999,-4.480078,-2.6862752,-1.1227353999999998,0.76215035,2.0592441999999997
7.8771243,-4.504968,-2.0933082,-1.0891901000000002,0.55189055,2.0714788
8.477131,-4.559039,-1.6146975000000001,-0.9795311,0.42146212,2.0650911
9.047238,-4.4437823,-1.4376512,-0.7836354,0.38313466,2.0661557
9.732613,-4.120057,-1.6974793999999997,-0.6164852,0.43264967,2.0454037
10.528300999999999,-3.6018178,-2.1976953,-0.49138000000000004,0.49281117,1.9006112000000002
10.960934,-3.2041507,-2.7001617,-0.4349535,0.5247507,1.6344485
11.411186,-3.0189445,-3.1263103,-0.44985859999999994,0.59767056,1.2905662
11.821945,-3.2740134999999997,-3.4805086000000003,-0.5414359999999999,0.6828426,0.9685007
11.884999,-3.6555437999999993,-3.4103584000000002,-0.675041,0.8270940999999999,0.6592283
11.559550999999999,-3.8949256,-2.801484,-0.70432764,0.9133308000000001,0.41701153
11.116469,-3.880091,-2.1676912,-0.56751126,0.8931199000000001,0.23603833
11.073499,-3.6845806000000003,-1.8377414,-0.32264155,0.7839844,0.05396558
11.537639,-4.434387,-1.9606883999999998,-0.03783874,0.54869664,-0.16638224
11.957457000000002,-5.575952,-1.978779,0.27406904,0.26069984,-0.27180013
13.035624,-5.965221,-1.918311,0.6158394,-0.04855506,-0.35695472
14.093986,-5.289749,-2.0195186,0.9820793,-0.3950902,-0.6529276999999999
14.859067000000001,-4.7885947,-2.5497866,1.1907333999999998,-0.70757395,-1.2911946
14.644096,-5.5307684,-2.2800367,1.2242787,-0.98225385,-2.0582843
13.585581,-6.786460400000001,-1.3935977,1.3062568,-1.1967896999999998,-2.62042
12.719139,-7.746219,-0.7687495,1.4324092,-1.2542634,-2.9717546
11.829482,-8.193743,-0.6997294,1.5165166,-1.0652966,-3.183079
10.575045,-8.059429,-0.9403945,1.5436739,-0.80819213,-3.2836974000000003
9.468473,-7.636335000000001,-1.3290309,1.5399388999999999,-0.7315373000000001,-3.3103137
8.741872,-7.271267,-1.4349983,1.5207752,-0.8417199000000001,-3.3379946000000005
8.048971,-7.143148399999999,-1.4271933,1.495241,-1.0109994,-3.345447
7.360580400000001,-7.339444,-1.5723298,1.3940816999999999,-1.1254581,-3.2858267
6.663599499999999,-7.4928455000000005,-1.5755378999999998,1.2370545,-1.1227877,-3.1154826
6.14468,-7.628492,-1.5750208,1.0672513000000001,-1.0961715,-2.8557076
5.8665986,-7.7345834,-1.6312559,0.870291,-1.0785959999999999,-2.5453532
5.8769894,-7.6604686,-1.373726,0.7031408,-1.0652966,-2.237128
5.944736,-7.6366224,-0.9053530000000001,0.6014579000000001,-1.014717,-1.9235972
5.729123599999999,-7.80209,-0.84595764,0.55354863,-0.90612257,-1.6467880000000001
5.2923160000000005,-8.177118,-1.2259461999999999,0.43910740000000004,-0.74216634,-1.3188756000000001
5.1224422,-8.456224,-1.1455585,0.3315602,-0.662335,-0.94253016
4.97313,-8.563715,-1.2042451,0.27193975,-0.61123174,-0.5187991
4.7122774000000005,-8.690062,-1.5838794,0.09894271,-0.44566983,-0.116361104
4.437787,-8.525427,-1.2574444,-0.1155757,-0.22102849,0.34035665
4.588277,-8.088705000000001,-0.62830555,-0.20394172,0.056286868,0.75344115
5.203548400000001,-7.9531837,-0.9856353999999999,-0.18050195,0.28253388,1.0398498
5.805824299999999,-9.016649000000001,-2.3102419999999997,-0.33009413,0.42413247,1.284702
5.968266000000001,-9.10241,-2.1842492,-0.53876567,0.56679565,1.6642587
6.777305,-8.497164999999999,-1.7280486000000002,-0.56059974,0.61735785,1.9990827000000002
7.624163,-7.45948,-1.7756453999999997,-0.49459141,0.6849719,2.1380284
8.787410000000001,-7.4684057,-2.3162272,-0.5467593000000001,0.65196776,2.0698906999999998
9.545376,-7.977461,-1.8564353,-0.5329014,0.5737246,1.955973
9.7642145,-8.418253,-1.5641606000000001,-0.35777503,0.4832293,1.931486
9.483002,-8.311011,-2.2425818,-0.28485520000000003,0.5428498,2.0033412
9.087441,-7.5064735,-2.8554783,-0.45944047,0.71638787,2.0555265
8.494752,-6.351032,-2.7967916,-0.75968945,0.96391046,2.0187874
7.5855303,-5.351903,-2.4458877999999995,-1.0151881999999999,1.1912221,1.9660958999999998
7.085783500000001,-4.7099023,-1.9439863999999998,-1.1142181999999998,1.3093983999999999,1.9064580000000002
6.475118599999999,-4.375681,-1.7754729,-1.0386106,1.1997393,1.9064755000000002
6.366479,-4.216716,-1.5972198,-0.8618959,0.8984257,1.9836539
7.1142364,-4.1739364000000005,-1.5435514,-0.56751126,0.57798326,2.065632
8.20285,-4.181349,-2.3318472000000003,-0.36789796,0.34428364,2.050727
8.754283000000001,-4.318278,-3.0113887999999998,-0.3758741,0.24794148,2.0108113000000003
9.364767,-4.407275,-2.9205334,-0.45252895,0.27401668,2.0001473
10.069591,-4.3092947,-2.6685004,-0.46317548,0.35599482,1.9650139
10.831177,-4.0307536,-2.5768027,-0.38971457,0.44010222,1.8175683999999996
11.548949,-3.7450485000000002,-3.06567,-0.3237062,0.49600512,1.5285243999999998
11.982424,-3.9195763999999995,-3.8229367999999995,-0.43123594,0.5242095999999999,1.171849
12.060217,-4.1679606,-3.6994727,-0.6164852,0.6083170999999999,0.8641823000000001
11.939653999999999,-4.275661,-2.9221327,-0.6473601,0.6674139,0.60386646
11.726925,-4.0536423,-2.4770220000000003,-0.53185415,0.6423859000000001,0.37549013
11.904603,-3.9594061000000003,-2.4008287999999998,-0.410484,0.57265997,0.04918338
12.206559,-4.8267393,-2.2971310000000003,-0.3066718,0.4880115,-0.31969196
12.029666,-6.096576,-2.077985,-0.13739231,0.39325759999999993,-0.49909434
12.110496000000001,-6.468252,-1.4054633,0.20701350000000002,0.1462586,-0.521452
12.635686999999999,-5.5035515,-1.4286008999999997,0.7233691999999999,-0.37166786,-0.70457196
13.085653,-5.291339,-2.1923993,0.97675604,-0.8491725,-1.1384083999999999
13.167267,-5.8889794,-1.6299534,1.0358355,-1.1680441000000001,-1.7122727999999998
12.443508999999999,-6.682638000000001,-0.7587512,1.1502941999999998,-1.2776858,-2.1258807
11.344752,-7.1252685,-0.43783244,1.3078625,-1.1994426,-2.3739445
10.473713,-7.0263023,-0.6955635,1.4185861000000002,-0.99555326,-2.5038318999999998
9.777738000000001,-6.705709,-1.4123971000000002,1.4409263,-0.8576896999999999,-2.6230729
9.04673,-6.3708363,-1.8306639999999998,1.3706768999999999,-0.90931654,-2.7332728
8.173671,-6.1987414,-1.8384596000000002,1.2487656,-1.032816,-2.8093867
7.277042,-6.224455,-1.5343864,1.1252661,-1.1387575,-2.7891583
6.625905,-6.2186613,-1.2179782,1.0102838,-1.198919,-2.6534240000000002
6.712949000000001,-6.3701468,-1.0477216999999999,0.9048834000000001,-1.230841,-2.5453532
6.54411,-6.6139339999999995,-0.8447988000000001,0.7771253,-1.1909253999999998,-2.4319592
6.252629799999999,-6.909493400000001,-0.63582337,0.6706602,-1.1073416,-2.2525742
5.829431,-7.1131253,-0.51596963,0.59081143,-1.0104584,-1.9880172999999999
5.802472,-7.150235,-0.5078102,0.5008570999999999,-0.94286174,-1.7143846
5.899514,-7.553908,-0.25713727,0.4486718,-0.91783375,-1.4498276
6.200446,-8.088035000000001,-0.058016295999999995,0.47956413,-0.9103812,-1.1512016999999999
6.555372,-8.485472999999999,-0.25998157,0.506704,-0.8417199000000001,-0.8557524
6.3769849999999995,-8.817548,-0.96141565,0.36936402,-0.6133436,-0.5613676999999999
6.1862435,-8.900559,-1.1141656999999998,0.13194689,-0.3051359,-0.23560199
6.0033555,-8.762758999999999,-0.98295385,-0.057019908,0.04298746,0.037454765
5.4638844,-8.571932,-0.9104479,-0.15974998,0.3639884,0.28927088
5.3800106,-8.625092500000001,-1.2803615,-0.16453218,0.56360173,0.52614695
5.8701324,-9.596611,-2.3039117,-0.30721286,0.7184997,0.7465297
5.478805,-9.717586,-2.6394349999999998,-0.49405035,0.8329584000000001,1.122875
5.502421400000001,-9.133515,-2.2535567000000003,-0.63193136,0.76482075,1.5748280000000001
6.563359299999999,-7.727257300000001,-1.2855043,-0.5446300000000001,0.67006683,1.800534
7.9511633,-7.3692284,-1.1650281,-0.4456,0.6407976,1.7276141999999999
8.402805,-7.653382000000001,-1.1447827,-0.3061482,0.61416394,1.5583171999999998
8.08588,-8.386497,-1.6321656999999998,-0.1794373,0.51729816,1.6030326000000001
7.9621954,-8.276277,-2.0848136000000004,-0.17519616,0.51462775,1.814898
8.515294,-7.4287,-2.432394,-0.32105333,0.67006683,1.9618199
8.641210000000001,-6.1317900000000005,-2.7355669,-0.60105646,0.8952317,1.9368093000000002
8.105101,-5.079251,-2.8171517999999995,-0.98752475,1.1608708,1.8255446
7.525272999999999,-4.520837,-2.1242313,-1.2307887,1.3072691,1.7382432
7.1250677,-4.1412315,-1.1964784,-1.1844677,1.2417843000000002,1.697804
7.0915966,-3.877036,-1.3469013,-0.9971065999999998,1.1023151000000002,1.6924633000000002
7.195543300000001,-3.7127078,-1.9736458,-0.8954236999999999,0.94420564,1.6972629000000001
7.4967914,-3.782829,-2.0892377,-0.84538513,0.7520449,1.7020625
7.9321246,-3.9886633999999996,-1.8254351999999998,-0.7027219,0.51836276,1.7297435
8.355275,-4.2064304,-1.7992903999999998,-0.51481974,0.39432225,1.7925403999999998
9.24092,-4.1427830000000005,-2.0346406000000004,-0.31838295,0.32192597,1.8399261000000002
10.28234,-4.0323625,-2.4255082999999997,-0.177308,0.26497588,1.7707238
11.233499,-3.6338427,-2.8130624,-0.06871361,0.23994787,1.542365
11.922367999999999,-3.5415223,-3.371467,-0.05222025,0.24420647,1.2053941000000001
12.113416,-3.8502498,-3.9221811,-0.16772614,0.31234413,0.85777694
12.011826,-4.295456400000001,-3.9120296999999997,-0.35138714,0.41667992,0.5916316999999999
11.685984,-4.385699,-3.1329757999999996,-0.40249038,0.47417104,0.40690607
11.384773,-4.1764646,-2.4528596,-0.29496065,0.41774455,0.24453808
11.428865,-3.907864,-2.1215117,-0.12461651,0.32457888,-0.002443461
11.768267999999999,-4.7851377,-2.1771912999999996,-0.016022123,0.19629718,-0.3117158
11.782154,-6.2349896,-1.8503348999999998,0.1362055,0.043528512000000005,-0.42563343
12.293861,-6.8393917,-0.9484295,0.50830966,-0.2822372,-0.40699333
13.123117,-6.0277476,-1.1509215,0.9916437,-0.76667076,-0.5704259
13.910082000000001,-5.544176,-1.8601797999999998,1.1854277,-1.1616387,-1.0734648
14.140127,-6.1713424,-1.6249639,1.1502941999999998,-1.3830862,-1.7106669999999997
13.693751999999998,-7.2113357,-0.79287344,1.1540117,-1.4512413,-2.226499
12.816305999999999,-7.7723830000000005,-0.27677929999999995,1.2349252,-1.3240068,-2.5719695
11.612108000000001,-7.7502704,-0.35055903,1.3035864,-1.0833957,-2.7891583
10.443681,-7.2820990000000005,-0.5915977,1.3376552,-0.9769306000000001,-2.9685607000000003
9.419106,-6.9457707,-0.6534064,1.3626833,-1.0551738000000002,-3.1245234
8.627621000000001,-6.701409,-0.68351585,1.3626833,-1.1893197,-3.2437642
7.754187,-6.7393713,-0.631351,1.3142503,-1.3037784,-3.3039258
7.091194000000001,-7.030966,-0.66684264,1.1934037,-1.3064487,-3.2496285
6.5708866,-7.222617,-0.50917965,1.0869387,-1.2686449,-3.1101592
6.191644999999999,-7.3978534,-0.4685357,1.0209303,-1.2324468000000002,-2.869548
6.050933000000001,-7.376066000000001,-0.6811887,0.96876246,-1.2532163,-2.6198787999999995
5.835311,-7.346589,-1.0101615,0.8447219000000001,-1.2702332,-2.3468046
5.735032,-7.597740700000001,-1.109789,0.66586053,-1.2675802999999999,-2.0364501
5.584083000000001,-8.00079,-0.8136647,0.50616294,-1.1967722,-1.6382707
5.6109557,-8.20444,-0.58205914,0.42046726,-1.0482622,-1.2518023999999999
5.577973,-8.308043,-0.9631299000000001,0.28099802,-0.7533539,-0.8786511
5.181425599999999,-8.227128,-1.3433867,0.010035643,-0.36636207,-0.53742176
4.822573,-8.527774,-1.374243,-0.30187213,0.05363397,-0.15627678
4.334673400000001,-8.939919999999999,-0.8272446,-0.42591270000000003,0.29850367,0.27862436
3.920285,-8.830439,-0.21457793,-0.26462683,0.32405528,0.8705528
4.5922894,-8.571444,-0.7787189,0.011100293999999998,0.21917845,1.4417467
6.258108,-8.982671,-2.2181130000000002,0.067544244,0.2175902,1.8186331000000002
6.772976400000001,-9.036760000000001,-3.303663,-0.15601498,0.32991958,2.0778668000000002
6.9902167,-9.037422,-3.7942445,-0.5515415,0.42626175,2.4164257
7.9328330000000005,-7.8552704,-2.9589746,-0.8698720999999999,0.5481729999999999,2.6112742
9.393986,-7.3262863,-2.8941972000000002,-1.1440108999999998,0.6045995,2.4547706000000002
9.9565935,-7.557288000000001,-2.2864625,-1.3904864,0.67113143,2.1625153999999998
9.522707,-8.47105,-1.457159,-1.4698116,0.6977477,2.0496624
8.859867999999999,-9.016649000000001,-0.8313722,-1.4187083,0.73555154,2.1933901000000002
8.695703,-8.452557,-0.46985730000000003,-1.2925385,0.77440256,2.3860919999999997
8.903825,-7.151289,-0.34770513,-1.1333643999999998,0.75098026,2.4409301
8.822393,-5.912673000000001,-0.62373745,-1.0189232,0.791437,2.3509586
8.271431,-5.085323000000001,-1.0763181,-1.0114707,0.9436821,2.2263943999999998
7.678894500000001,-4.520828,-1.4035958999999998,-1.0359576,1.0836924,2.1641035
7.475071400000001,-4.056764,-1.6340235,-1.0434101999999998,1.0799573999999998,2.14494
7.825467,-3.6069129,-1.6263621000000001,-0.9848544,0.9388824,2.092772
8.485807000000001,-3.6208663,-1.776852,-0.90448195,0.7280989999999999,1.9549083999999999
8.770401,-3.6913705,-1.7090672999999998,-0.7974758000000001,0.61896354,1.8489843999999998
9.032595,-3.5876919999999997,-1.7906426,-0.67397636,0.61631066,1.8026633
9.666503,-3.1773832000000004,-2.128675,-0.5781578,0.64718556,1.7270731
10.511838000000001,-2.8848502999999996,-2.4667172,-0.54674184,0.67326075,1.5045611
11.036628,-2.7840257,-2.5241783,-0.48340383,0.6466445,1.1452327
10.897745,-3.0485177000000006,-2.9687717,-0.45200536,0.64132124,0.87748176
10.951002,-3.5429492,-3.241069,-0.5116258,0.7195643,0.70181435
11.150276,-3.871807,-3.1098382,-0.5579294,0.8366934000000001,0.5772501999999999
11.311521,-3.9510648,-2.8582554,-0.52492523,0.86063933,0.4510978
11.473761999999999,-3.777083,-2.672245,-0.44720572,0.8414756,0.30949923
11.416368499999999,-3.4538946000000004,-2.4407067000000002,-0.34819320000000004,0.84041095,0.1332908
11.841252,-3.7313633000000004,-2.1015728,-0.17997836,0.7621678000000001,-0.114214346
11.88453,-4.512017,-1.7553903999999998,0.1553692,0.54710835,-0.32981488
12.632067,-5.501847,-1.74793,0.545555,0.19949113,-0.4245688
13.705713000000001,-5.398742700000001,-1.5694472,1.0821565,-0.2881015,-0.61194736
14.632748000000001,-5.1203356,-2.3556454,1.4638251,-0.7203497,-1.0591007
14.855398999999998,-5.4253182,-2.6213827000000003,1.533551,-0.99876463,-1.7250485
14.000323999999999,-6.287145,-1.8360366000000001,1.5553851,-1.0626438,-2.2626972000000003
12.764581,-7.1776447,-1.2939415,1.6325635,-1.0328335,-2.6193552
11.581232,-7.5743922999999995,-1.0841806999999999,1.7411578999999997,-0.9609608000000001,-2.7891583
10.747973,-7.4799169999999995,-1.0023469,1.8902091,-1.0232516999999999,-2.8738067000000003
10.191015,-7.142651,-0.9053146999999999,2.0744112,-1.2233886,-2.9866424
9.548565,-6.942208,-1.1286651,2.1755354,-1.4310128999999998,-3.1463572999999996
8.559136,-7.116372,-1.4871919,2.1116563999999998,-1.5395899,-3.2421759999999997
7.846928999999999,-7.4433812999999995,-1.6543838,1.9051142,-1.5566243,-3.235788
7.1819253,-7.790857000000001,-1.6645256000000002,1.6543976000000002,-1.4693228999999999,-3.147422
6.380700599999999,-7.9158916,-1.7700046000000003,1.3956875,-1.3303946000000002,-2.942468
5.7663965,-7.8339524,-1.8894465,1.1210076,-1.2047659,-2.6518182999999995
5.4318023,-7.772785000000001,-1.9794877,0.8484569,-1.1584448999999999,-2.3137830000000004
5.120163,-7.841748,-1.9481045,0.5626069,-1.1270463,-1.9294441000000002
4.908133,-8.0226345,-1.8005833999999998,0.27248082,-0.98385954,-1.5227648
4.777783,-8.158951,-1.3229879,0.06541494,-0.8938878,-1.0809348
5.180286,-8.311250999999999,-0.7208175,0.011117746999999999,-0.90666366,-0.631111
5.631871,-8.257631,-0.7205398000000001,-0.042638395,-0.8145626,-0.25155429999999995
5.6921473,-8.21035,-1.0714148000000001,-0.2720619,-0.47122145,0.03853687
4.965536,-8.253053,-1.2742612,-0.5776167,-0.068783425,0.31321678
4.6699862,-8.553879,-0.65599215,-0.7873529,0.28572786,0.71884876
5.5238255999999994,-9.421461,-0.6342814999999999,-0.78311175,0.3623827,1.0898708000000001
6.077671499999999,-9.426748,-0.74711543,-0.763407,0.43744934,1.4396174
6.444166,-8.770736999999999,-0.9175252,-0.7602131,0.5103692,1.6711876
7.1416835999999995,-8.215473,-0.8818324000000001,-0.7799003999999999,0.6370626,1.8351438999999998
8.612547,-8.155178,-0.7493564,-0.77937675,0.7232993000000001,1.8138334999999999
9.702081,-8.188792,-0.67626625,-0.66013587,0.79463094,1.6498772000000002
9.567785,-8.579124,-1.6366379,-0.5600586999999999,0.87927943,1.5157312
8.829912,-8.625849,-2.5207975,-0.696334,0.9836152,1.5487528
7.797972,-7.941433,-2.8728027000000003,-0.93640405,1.0884746,1.6828813999999999
7.351932499999999,-6.616376400000001,-2.679897,-1.2275947,1.1949396,1.8032043999999998
6.9010277,-5.405178500000001,-2.1804283,-1.4634061999999999,1.3588958999999998,1.7946872
6.183246,-4.737186400000001,-1.7550265,-1.6039575000000001,1.4403503999999998,1.7622066000000003
5.479351,-4.4553413,-1.3223846000000001,-1.5480546999999998,1.348773,1.8404497
5.3699837,-4.234001999999999,-1.2647322,-1.363329,1.1193495,2.053921
6.217626999999999,-4.039861,-1.3961165,-1.1503989,0.8563806999999999,2.2567456000000004
7.6237607,-4.0666375,-1.6342533000000001,-0.9662143,0.61950463,2.3876977000000004
8.996107,-4.307811,-1.8150827,-0.8379325999999999,0.5119749,2.462206
10.138475999999999,-4.3742065000000006,-1.9295828000000002,-0.6489483,0.40603340000000004,2.5351431
11.194933,-3.9642522000000007,-2.231348,-0.42697734,0.31288517,2.5457895
12.132004,-3.2672906000000004,-3.1842022,-0.33009413,0.31234413,2.4169669999999996
12.850503999999999,-2.6438308,-4.0538620000000005,-0.48340383,0.38315213,2.111412
13.37561,-2.701368,-4.0030956,-0.77777106,0.53007394,1.6844871
13.086841,-3.1144445,-2.9404054,-0.9177814000000001,0.67060786,1.3076006000000002
12.41587,-3.3611623999999996,-1.9293627,-0.76286596,0.65357345,1.102123
11.907916,-2.8883650000000003,-1.6391183999999996,-0.44827035,0.51729816,0.9807529
12.481864,-2.4735074,-2.1015344,-0.26780329999999997,0.38954005,0.68477994
13.361263000000001,-3.0875914,-2.126348,-0.24066345,0.26391125,0.16735962
13.293632500000001,-4.8331847,-1.1703911,-0.08361872,0.19151498,-0.1796991
13.330044000000001,-5.9163213,-0.11364797,0.4124911,-0.06504842,-0.21429153
14.5429945,-5.270816,-0.60890293,1.0656457000000001,-0.58407444,-0.37398916
15.920053,-4.7725725,-1.7786811999999999,1.3610951,-1.0759431000000002,-1.0079974
15.973711999999999,-5.355542,-1.4566417999999999,1.3749354999999999,-1.3106898999999999,-1.8650414
14.748263,-6.569545699999999,-0.6656934,1.4239093999999999,-1.3607285,-2.5235367
13.33327,-7.700634,-0.39446867,1.4904413,-1.2723625,-2.9323452000000003
11.909764,-8.029482000000002,-0.26848578,1.5436739,-1.0716845,-3.131976
10.7965765,-7.633414299999999,-0.32827377,1.6155291,-0.92530376,-3.2666627999999998
9.956049,-7.268385,-0.6228468,1.6810138,-0.9630901,-3.3997443
8.929501,-7.037267699999999,-0.8169878,1.7055008000000003,-1.1291757,-3.510468
7.8749795,-7.110357799999999,-0.83489645,1.6719556,-1.3261361,-3.5056684000000002
7.2252410000000005,-7.375913000000001,-0.8861994000000001,1.583066,-1.5140382,-3.366199
7.3201279999999995,-7.749657000000001,-1.0174591999999998,1.4334912,-1.6002749,-3.1857321
7.353101299999999,-7.827889999999999,-0.9172091,1.2296018999999998,-1.5768526000000003,-2.9999592
7.092631,-7.915862599999999,-0.8452777,1.0294476000000001,-1.484228,-2.7423136
6.9876595,-7.773034,-0.88166,0.8159938,-1.3585992,-2.4404764
6.94331,-7.78105,-0.91170245,0.6099751,-1.2228649999999999,-2.2115939
6.615984,-8.1079445,-1.0735792,0.37522835,-1.0599733999999998,-1.9549956000000002
6.26848,-8.407757,-1.0792295,0.12610003,-0.9087929,-1.6404
5.8479339999999995,-8.512604,-0.8214889000000001,-0.095870934,-0.74429566,-1.2597786
5.393179,-8.494427,-0.5854206,-0.27260298,-0.5510703,-0.91537285
4.782657,-8.653507000000001,-0.29063693,-0.46582840000000003,-0.26893779999999995,-0.57255524
3.517561,-8.4976635,0.48779464,-0.49031535,0.030752702000000003,-0.10676179
3.3710263,-7.982010000000001,1.133664,-0.10067059,0.25591764,0.50591856
4.857988400000001,-8.254758,-0.9584181,0.25438175,0.44703117,0.9190030999999999
5.658437,-8.584936,-3.4749732000000004,0.097354464,0.54072046,1.1952888000000002
6.1389246,-8.185096000000001,-3.9392087,-0.24226916,0.5785068,1.4103308
6.7022710000000005,-7.325692,-3.4836593000000002,-0.52331954,0.6487738000000001,1.5333066
7.4928265,-7.164304,-3.2328522,-0.82196283,0.79463094,1.4672983
7.925267,-8.01753,-2.6199462000000002,-1.0859963,0.9665808000000001,1.3858613000000002
7.756332400000001,-9.221219999999999,-2.09711,-1.2323945,1.0623993999999999,1.5354359
7.59165,-9.502547999999999,-1.5622741000000002,-1.3090318,1.1252137,1.9123223999999999
7.8423896,-8.526605,-1.0748626000000001,-1.3351245,1.1651294,2.2567282000000004
8.21712,-7.224303,-0.60474664,-1.3356481000000002,1.1518301000000002,2.4797812
8.718313,-5.7370243,-0.114548184,-1.2840213,1.172582,2.498945
8.942047,-4.6901546,-0.06449022,-1.204696,1.264683,2.3296653999999997
8.309144,-4.0995245,-0.40658334,-1.183403,1.3743421,2.1843493
8.046825,-3.7916017,-0.57169706,-1.140817,1.328562,2.1380284
8.373233,-3.6202724,-0.6951804,-1.0423455,1.1960043,2.1007655
8.73602,-3.7204936,-0.9698528000000001,-0.9561088,0.9878563,2.03741
9.172138,-4.4022856,-1.140569,-0.9428094000000001,0.8728741,2.0171816000000002
9.228977,-4.5514445,-0.7946068000000001,-0.8427148000000001,0.7956956000000001,2.1045005
9.677919000000001,-4.2000523,-0.68485665,-0.5951922,0.6727371999999999,2.2093599999999998
10.882519,-3.8887389999999997,-1.1757636999999999,-0.3284884,0.5524316,2.1907372000000005
12.471311,-4.008075700000001,-2.2523212000000004,-0.25556856,0.61470497,1.9996238000000002
13.04951,-4.139469,-3.2263687,-0.4046197,0.7451334,1.7206852
12.923537,-4.201929,-3.5097082000000004,-0.70537484,0.8579863999999999,1.5200073
13.190998,-4.071493,-2.5256627000000003,-0.8618785,0.8665036,1.2777903999999998
12.9928255,-3.9840379,-1.3946607,-0.68249357,0.7605621,1.0355911
12.504552,-3.7420892999999995,-1.378792,-0.33807027,0.6237632,0.83543676
12.373876,-3.6427300000000002,-2.129451,-0.06871361,0.40231586,0.6762802
13.143851000000002,-4.1895657,-2.7465324,0.014835299,0.21174334,0.4617443
13.494860999999998,-4.4619303,-2.6682707999999997,0.046774823,0.095696405,0.28180087
13.826054999999998,-3.7854435,-1.9075946,0.22350687,-0.09539969999999999,0.04811873
14.815588,-3.0036986,-1.3266559,0.5583483,-0.6676408,-0.5379454
14.830460999999998,-3.9429629999999998,-0.92479396,0.82344633,-1.1802788999999998,-1.375302
13.452789000000001,-5.885944,-0.5550813,0.94321084,-1.3484937,-2.0194159
11.582094999999999,-7.7620687,-0.25446534,0.9213941999999999,-1.1371518,-2.2924900000000004
9.881761000000001,-8.817663,-0.19143079,0.88945466,-0.6857399000000001,-2.2530978
8.358646,-8.519298,-0.17765935,0.9192648999999999,-0.54733527,-2.1354627999999996
6.938435000000001,-7.3493085,0.18778203,1.1002556000000001,-0.8885646,-2.0417733
6.3011745999999995,-6.599674,0.51497364,1.3179678999999997,-1.3884094,-2.0082283
6.079568,-6.46965,0.61603767,1.3999461000000002,-1.5896284999999999,-1.9603188999999999
5.8532677,-6.150474,0.5609423000000001,1.2658,-1.4272778999999998,-1.8671707
6.400851,-5.985858400000001,0.7500268,1.1018438,-1.1387575,-1.8304490000000002
7.203272,-6.303770500000001,0.78895646,1.1087728000000001,-0.99077106,-1.8714118000000002
7.7637734,-6.704186,0.20228131,1.1603996,-1.0046115,-1.8825994
7.935811500000001,-6.700049000000001,-0.3769431,1.1375183,-1.0913718000000001,-1.8889873
7.991519500000001,-6.550603,-0.46567225,1.0725746,-1.1392811999999999,-1.8810111
8.367285,-6.8003182,-0.8938896000000001,0.98366755,-1.0706198,-1.9235972
8.142795,-7.192842999999999,-1.6388694,0.80534726,-0.9391268,-1.9262501
7.5303197,-7.6705723,-1.9674879,0.6158394,-0.8390496,-1.8064855
6.8297954,-7.9809947,-2.1157272000000003,0.47050586,-0.7517482,-1.5456461000000001
6.1671667,-8.242011,-2.2415762000000004,0.3352952,-0.63091904,-1.1879233999999999
5.378153,-8.345077,-2.701349,0.15378097,-0.5020962999999999,-0.8046491
4.496971599999999,-8.669203,-2.9294782,-0.10545279,-0.33281684,-0.30426323
4.357083,-8.8247595,-2.5147066000000002,-0.2752559,-0.2881015,0.22485077
5.160788,-8.778302,-2.1336646,-0.30400145,-0.33281684,0.7215191
6.861523599999999,-8.437933000000001,-2.3251722000000004,-0.32264155,-0.27213174,0.90036297
7.169829400000001,-8.682458,-3.5247247,-0.59625685,-0.10498156,0.80669117
5.22388,-9.6151905,-2.95071,-0.96036744,0.24314182,1.0882826
5.0718,-9.069036,-1.4321061000000002,-1.0764143,0.42519712,1.5034964
5.0824112999999995,-7.5435743,-0.5782189,-0.8256804,0.46033058,1.7851053
6.7042437,-7.1067758,-1.2916718999999999,-0.558453,0.24846508,1.7606183000000002
7.546494999999999,-7.601782000000001,-1.8979602999999998,-0.46424013,0.04139921,1.5886685
7.7675657000000005,-8.245669,-2.2864720000000003,-0.5243842,-0.010751228,1.5317184
7.50022,-8.427465,-2.5481583999999997,-0.78948224,0.23355997,1.6339248
7.468223599999999,-7.939671000000001,-2.2234762000000003,-1.2041725,0.6407976,1.78617
7.6900509999999995,-7.0869327,-0.9714521999999999,-1.3973978999999999,0.88779664,1.7893639
7.491389999999999,-6.3176947,-0.15128481,-1.3548118,0.9846799,1.7451897
7.2324905,-5.735588,0.10393708,-1.123259,0.95858717,1.7265495
6.9236770000000005,-5.177107,-0.21365856,-0.8592255999999999,0.82711154,1.7510365
7.248550999999999,-4.728903,-0.60765797,-0.6420368000000001,0.6695432,1.7590126
7.732764200000001,-4.415214499999999,-0.9349837,-0.45305258,0.58276546,1.7323964
8.059678,-4.3120145999999995,-1.3667348999999998,-0.29548424,0.5071752,1.7127091
8.389676,-4.1255927,-1.657027,-0.1293987,0.44010222,1.7137737000000002
8.897561999999999,-3.6734428,-2.0844111,0.06435029,0.37302923,1.6892866999999998
9.476891499999999,-3.2043614,-2.9959123,0.17613862,0.34747759,1.5982678
10.136244999999999,-2.7475476000000003,-3.6902788,0.19530234,0.30382693,1.4353588
10.835353,-2.6148992,-4.221945,0.122365035,0.28946286,1.1654785
11.263627,-2.5970004,-4.520071,-0.053284902,0.3325725,0.8412835999999999
11.465114,-2.9455576,-4.366114,-0.26460937,0.4124213,0.4974014
11.207718,-3.6285276,-3.6990513999999997,-0.36629224,0.51995105,0.24029693
10.802858,-4.168037,-2.9798331,-0.2917667,0.49972266,0.10826277
10.492407,-4.427309999999999,-2.5720046,-0.060196407,0.3410897,0.08751081
10.815269,-4.177201999999999,-2.4593717999999996,0.19317304,0.15531684,0.045989424
11.092931,-3.6199756,-2.7537436,0.40662682,0.05736897,-0.12805481
11.240337,-3.8720562000000007,-3.3408787,0.46198866,-0.042167153,-0.36707765
11.336477,-4.854761,-3.0717225,0.46359435,-0.14437364,-0.5123938
11.813298,-5.8299675,-2.229586,0.61158085,-0.31737068,-0.5768139
12.29774,-5.4314957,-1.5228462999999999,0.97673863,-0.5984385,-0.6758264
12.984492999999999,-5.0070324,-2.0980198,1.2908281000000001,-0.9338035,-1.011715
13.409185999999998,-5.3883233,-2.6270907,1.3211619,-1.2005073,-1.4886786
12.839261,-6.5602756,-2.0741258,1.2296194,-1.3639225,-1.9225150000000002
12.02369,-7.447489999999999,-1.2846041000000001,1.1673286,-1.3788276000000002,-2.1312041
11.246897,-7.4698615,-0.7360638,1.1710461,-1.2313821000000003,-2.2121174
10.709945,-6.945311,-0.9234915000000001,1.1524235,-1.0764666999999999,-2.2829082
10.29818,-6.331878,-1.1280617,1.1034495,-1.0344216999999998,-2.427177
9.917674,-6.057876,-0.96957505,1.1194191999999998,-1.128111,-2.6124089
8.994327,-6.0726724,-0.7809024,1.1795632999999999,-1.2957848,-2.7321908
8.374496,-6.321085,-0.5612488,1.2099146,-1.4485709999999998,-2.743902
8.162293,-6.439407,-0.28898972,1.2860284,-1.5832405,-2.7034452
8.576941,-6.749695299999999,-0.77729195,1.2588885,-1.5832405,-2.680023
8.675265,-7.038455,-1.1919198,1.1007791999999998,-1.5326784,-2.6677880000000003
8.096223,-7.4632916,-1.36775,0.83248717,-1.4187607,-2.5762281000000002
7.146922,-7.81862,-1.1073948999999998,0.53970814,-1.2691685,-2.3595629000000002
6.645796300000001,-7.945666,-0.3971406,0.35499996,-1.1163999,-2.0678487000000003
6.3243127,-8.039000999999999,-0.0009864111,0.30550244,-0.9545729,-1.7708111
5.826903,-8.069217,-0.17772637,0.28473303,-0.75600684,-1.5110363000000002
5.0242705,-8.404281,-0.51553863,0.1378112,-0.45790458,-1.2209276000000002
4.472982,-8.821762,-0.04363193,0.09789552,-0.24762732,-0.82433647
4.1539019999999995,-9.163117,0.054128114000000005,0.22244221,-0.09698795,-0.38517672
3.9232156000000002,-9.380789,-0.6328929,0.26343998,0.13135348,0.030560715
3.4708360000000003,-9.501964,-1.080781,0.25759315,0.43477896,0.5282937
4.199286,-9.334197,-1.9066657,0.26237535,0.6945538,1.0371968
5.1342025,-8.922097,-3.6200902000000004,0.040927973,0.90696037,1.3565747
5.6537256,-8.495403,-4.6915627,-0.45411720000000005,1.0096904,1.5391709999999998
5.803707599999999,-8.086905,-4.110260500000001,-1.0029534,1.0474943,1.638707
6.071772,-7.768035,-2.5354693,-1.2494113000000002,1.0592053999999997,1.6956746999999999
6.6930003,-8.0223,-1.9616460999999998,-1.3995271999999999,1.0730458,1.7190968999999998
7.373863,-8.80077,-1.7907383000000001,-1.5693302,1.0799573999999998,1.761683
7.271899,-9.274994,-1.1688589,-1.7077348,1.0741105,1.9794128
7.5606017,-9.169514999999999,-0.6444329000000001,-1.7998359,1.0788927,2.332336
8.579047000000001,-8.613581,-0.17526513,-1.8472216000000001,1.1118968999999999,2.608604
9.281583,-7.339243,0.41664857,-1.7993122,1.1486361,2.645343
8.972204,-6.2877965,0.7035793,-1.6555845,1.1459656999999999,2.5867875
8.304978,-5.5481987,0.56239796,-1.4868286,1.1055264,2.5926516
8.401388,-5.10303,0.29903579999999996,-1.3287367,0.9830741,2.6054275000000002
8.82541,-5.247707,0.19787598,-1.1929849,0.8744798,2.6112742
9.296254,-5.432664,0.2600965,-0.92523396,0.80314815,2.6597072999999996
9.927921000000001,-5.4607529999999995,-0.3003861,-0.625526,0.7520449,2.7720366000000003
10.716878,-4.9941325,-0.8862760000000001,-0.25822145,0.667955,2.8891482
11.866572999999999,-4.063094,-2.1613321,0.057438787000000005,0.49281117,2.8731785
13.058321000000001,-3.0152384999999997,-3.747443,0.16229817,0.25272366,2.6479962
14.154798000000001,-2.2839727,-4.5138655,0.020699605,0.17182766,2.1944722999999997
14.610578,-2.0076723000000003,-4.915468,-0.3066718,0.3405661,1.6371188
14.396555,-2.108851,-4.630568,-0.72879714,0.6860366,1.0946878999999998
13.896042000000001,-2.6656852000000004,-3.4033482000000004,-0.9470506,0.9458114,0.6618987
12.931696,-2.989678,-2.1461816000000002,-0.7218856,0.80953604,0.37444293
12.201713999999999,-3.0262518,-1.7608298999999998,-0.3093247,0.45607197,0.22806217
12.202873,-2.647623,-1.9230037,0.077667154,0.11431906,0.056653388
12.833113,-2.9705627,-2.263411,0.30070278,-0.11615166,-0.18767525
13.691348000000001,-3.764183,-2.1808302000000004,0.45135959999999997,-0.3040538,-0.4777839
14.793092999999999,-4.5927973,-1.3842219999999998,0.7132461999999999,-0.6399599,-0.8403062
15.325792999999999,-4.878933,-1.0652282,1.0826975,-1.0455918,-1.3380218000000001
15.410729000000002,-5.4437346,-1.2513918,1.2833755,-1.4341894,-1.9528663
15.265651,-6.659577400000001,-0.8067694000000001,1.3392783000000001,-1.7919121,-2.620926
14.648654999999998,-8.348946,0.12799403,1.388776,-1.9766377,-3.146881
13.520038000000001,-9.396158999999999,0.73158187,1.4744891000000002,-1.8254398,-3.4135672999999995
12.18955,-9.464959,0.5183159,1.5042819,-1.4943509,-3.5046036
11.092317999999999,-8.962703999999999,0.10307517,1.4877884,-1.2526576999999999,-3.5466487
10.041559,-8.520083,-0.30007009999999995,1.4994996999999999,-1.2771447,-3.5610127
9.311567,-8.292603999999999,-0.4730751,1.488312,-1.4964802,-3.5541012000000003
8.289225,-8.170108,-0.23643221,1.4223212,-1.6577661,-3.4577415
7.547136999999999,-8.058786999999999,0.018224662,1.3499074,-1.7663605,-3.2634516
7.2194275999999995,-7.937066000000001,0.21949083,1.294022,-1.8360863999999997,-3.030293
6.961898,-7.9422565,0.1931642,1.2205611,-1.8834721,-2.7939404999999997
6.744111999999999,-7.7316723,0.17108966,1.1098374,-1.8733666000000002,-2.4979675
6.680578999999999,-7.2102914,0.19122967,0.97569144,-1.7850006,-2.2514923
6.3364177,-7.107311999999999,-0.11793838,0.7691491,-1.6263502,-2.0587904
6.0273449999999995,-7.435002000000001,0.09638098,0.56793016,-1.5049974,-1.8203086
6.1988277,-7.7996197,0.5190246000000001,0.46785295,-1.3484937,-1.4940018999999998
6.107369,-7.8534217,0.25776932,0.41196752,-1.0668848999999998,-1.2187808999999998
5.408425,-7.9123387,0.12541786,0.24905849,-0.8124333,-0.9686054000000001
4.583613,-8.170702,0.5614595,0.09203121,-0.52551866,-0.67263246
4.071464499999999,-8.401608,1.5708739999999999,0.1399405,-0.102852255,-0.31756267
3.6981127000000003,-8.572794,2.012901,0.5578247,0.31234413,0.114144534
4.0774693,-8.809743,-0.007881711999999999,0.98047364,0.6344097,0.5352051999999999
4.6778297,-9.161757000000001,-2.534138,1.0667278,0.7520449,0.8226609
4.995521,-9.342941,-4.588191,0.6914296,0.8313700999999999,1.0606017
4.966695,-9.339359,-5.02224,0.11119492,0.925583,1.2831137
4.928598,-9.048473,-3.6840154999999997,-0.2981546,1.1523536,1.5631169
5.836269000000001,-8.686202,-2.9169709999999998,-0.34391713,1.3136569,1.8032043999999998
7.3070745,-8.890581,-3.5111449,-0.35192817,1.2444546,1.8995465
8.509328,-9.399847,-4.501712,-0.5653645,1.0687872,1.9341563999999998
8.785428,-9.654139500000001,-4.648553400000001,-1.0572506000000002,1.0980564,2.005488
8.087508,-9.18229,-3.2375162,-1.5991579,1.3514433000000001,2.1965842
7.882047,-8.942344,-2.0373986,-1.9893438,1.5500095,2.4569
8.081723,-8.02321,-0.3126157,-2.0947442,1.6841555000000001,2.6384141
8.349423,-6.9419975,1.0432878,-1.8477452,1.7389762,2.732121
8.877968,-5.8151426,1.3410115,-1.2962561000000001,1.5984423,2.7512672
8.985085,-4.879095599999999,0.20757729,-0.75434875,1.2045215,2.7145455000000003
9.527457,-4.638105,-1.1787517,-0.44879395,0.7956956000000001,2.7038990000000003
10.381843,-4.2017856,-1.9002205,-0.3055897,0.6024702,2.6229856
11.217946000000001,-3.9884431000000005,-2.748218,-0.31730086,0.6674139,2.454247
11.455977,-3.785568,-3.5283160000000002,-0.51853734,0.7839844,2.262069
11.4895735,-3.5967995999999998,-3.3816373,-0.6697177,0.82711154,2.0879898
11.651536,-3.2141104,-3.2060564,-0.61116195,0.69668305,1.8915703000000001
12.244858,-3.0048478,-3.4473917000000003,-0.53183675,0.53698546,1.6472243000000002
12.465938000000001,-2.8521838,-3.7494538,-0.47647488,0.49706978,1.3443398000000002
12.608642,-3.0846127999999995,-4.354871299999999,-0.6069033,0.61896354,1.0387851000000001
12.4138775,-3.4475163999999996,-4.100520599999999,-0.78309435,0.72064644,0.75984657
11.941856,-3.5558205000000003,-3.2303145,-0.7165623999999999,0.6051231,0.60706043
11.964678999999999,-3.2377173999999997,-2.8395137999999998,-0.49563859999999993,0.43957862,0.45855036
12.088402,-2.7261147,-2.9103916,-0.29708993,0.301174,0.24188519
12.502847000000001,-2.8318331000000003,-3.1430316,-0.21298252,0.10473721,-0.07375761
12.782327,-3.6247928,-2.5825009999999997,-0.20179497,0.0099832835,-0.37613592
13.043179499999999,-4.629706,-1.6755773,-0.06977826,-0.09007644,-0.5970422
13.316397,-4.917163400000001,-0.5593524999999999,0.29909706,-0.34772193,-0.82594216
13.928889999999999,-5.1116589999999995,-0.40295374,0.8463276,-0.78794634,-1.2012228999999999
14.426014000000002,-5.6986694,-1.2255344,1.0933266000000001,-1.1483393999999998,-1.6584991000000002
14.185827,-6.470847,-1.0363542,1.1268718,-1.3436941,-2.1365272999999996
13.388089,-7.188389999999999,-0.22021867,1.1923392,-1.3649871,-2.5160666000000003
12.015857,-7.3722644,0.312089,1.3211619,-1.2574573999999998,-2.7534838
10.822931,-7.309086,0.23713131,1.4563725,-1.1440808,-2.8828475
10.097574,-6.978686,-0.22023782,1.5479325000000002,-1.0956304,-2.9935713
9.231927,-6.7468224,-0.9440624,1.5394153999999998,-1.1238523999999999,-3.0872604999999997
8.019810000000001,-6.6891026,-1.1714351,1.4196507999999999,-1.2084834999999998,-3.0563857999999997
7.021255,-6.622304,-0.94585335,1.2945457,-1.308578,-2.8839123
6.9244813999999995,-6.494387000000001,-0.7039432,1.2146968,-1.4528295,-2.677911
7.387817,-6.742177000000001,-0.5338782,1.1226132,-1.6087922,-2.5246012
7.799504799999999,-6.837744,-0.32616690000000004,0.9831264999999999,-1.6412726999999998,-2.3856556
8.281122,-7.127634,-0.041544187999999996,0.8308814,-1.5720703999999999,-2.285055
8.093187,-7.778589,-0.12795572,0.59665823,-1.3878858,-2.260027
6.943242,-8.536497,0.6431399999999999,0.42259657,-1.2031776,-2.0444438000000003
6.351060400000001,-8.683349,1.373726,0.53597313,-1.1451453999999999,-1.7340894
6.247372599999999,-8.767031,1.116694,0.71111697,-1.0865896000000002,-1.4343989
6.132949,-8.8894415,0.23000616,0.6472379,-0.8310734000000001,-1.2225333
5.2653284000000005,-9.064678,-0.14168885,0.42579052,-0.44566983,-0.972864
4.335947,-9.164736999999999,0.17629944,0.32623693,-0.15395549,-0.5800078000000001
3.8889687000000004,-9.017531,0.046658202999999995,0.36297613,0.19416788,-0.19833921
3.4636629,-8.645922,-1.0936042,0.37362263,0.63280404,0.13700834
3.9444665999999997,-9.309298,-2.6768804,0.24851742,0.9234537,0.48301986
4.163651,-9.772556,-3.9587836000000003,-0.05808456,1.0357656,0.87002915
4.780885700000001,-9.974723,-4.145263,-0.37322122,1.0538646999999999,1.2580857
5.279962,-9.308522,-3.2926881000000003,-0.55899405,1.1294549999999999,1.6120733
6.708888000000001,-8.831425,-3.0161293,-0.52173126,1.056535,1.8010576
8.362812,-8.870861999999999,-3.2329097,-0.47862163,0.8377406,1.8271502
9.578339,-9.126371,-3.584369,-0.52866024,0.66952574,1.779241
9.3072,-9.09177,-3.9416604,-0.8757364,0.8526457000000001,1.7701827
8.132146,-8.516415,-3.3489902000000003,-1.3846395,1.2385903999999999,1.8787771
6.949822,-7.570964,-2.1220383999999997,-1.7833424999999998,1.5127291999999999,2.081061
6.566807000000001,-6.4932857,-0.8182710999999999,-1.8525448,1.6101534,2.2471464
6.6258097000000005,-5.2586246,0.08044518,-1.5368845,1.4355508,2.3637342
6.9529630000000004,-4.450993,-0.2915946,-1.1030307,1.0182076999999998,2.4361305
7.6107554,-4.186271700000001,-0.84975964,-0.8044048,0.56573105,2.4744406000000003
8.873821000000001,-4.227193,-0.96621364,-0.6564183000000001,0.35067156,2.4467597000000003
10.046443,-4.180516000000001,-1.3743961999999998,-0.59093356,0.410292,2.2998377999999997
10.374258,-4.2645135000000005,-2.0096643,-0.65854764,0.6642024999999999,2.1454635
10.589725999999999,-4.3259206,-2.3134022,-0.72296774,0.7988896,2.0576383999999996
11.113099,-3.9536027999999996,-2.4056365,-0.6164852,0.69561845,1.9469148
11.507423,-3.3334565,-2.6873669999999996,-0.38706166,0.45553094,1.7659241
12.117725,-3.1354849999999996,-3.5747824,-0.31466540000000004,0.29476866,1.4790094999999999
12.455356,-3.3928232000000005,-4.235295,-0.47223374,0.36503562,1.143627
12.208542,-3.997723,-4.204276,-0.76447165,0.5785068,0.9078156
11.773342999999999,-4.1149435,-3.1015637000000003,-0.79321724,0.6823016,0.805068
11.480666000000001,-3.9391608,-2.9203994,-0.551559,0.57370716,0.7688699000000001
11.457577,-3.3389057999999996,-3.2854385,-0.3018896,0.3330961,0.7252192
11.57315,-2.626832,-3.6747739999999998,-0.14379768,0.09993755,0.60013145
11.857006,-2.3278534,-3.7580347,-0.14590952,-0.07304203,0.37655479999999997
12.126439999999999,-2.7487638,-3.0436337000000004,-0.15603243,-0.1651256,0.15936601
12.967350999999999,-3.3875656000000003,-1.9733107,0.036651913,-0.33068752,-0.02480113
14.548423999999999,-3.6929220000000003,-1.1297854999999999,0.47741735,-0.75815356,-0.37400659999999997
16.096332999999998,-4.0850824999999995,-1.3655378,0.91285956,-1.2420286,-0.9584999
16.321684,-5.1338004999999995,-1.8623441000000003,1.039012,-1.5603592,-1.6622341
15.819448000000001,-6.248589,-1.2188594,0.9746093000000001,-1.6849234,-2.3164709
15.165113,-7.413454,0.16156073,1.0544581,-1.6886583999999998,-2.8168566000000004
13.853416000000001,-8.039758,1.0457873,1.3488253000000001,-1.6253028999999999,-3.2437816
12.122619,-8.109247,0.7280289000000001,1.6075355,-1.5151203000000002,-3.465229
10.859026,-7.9344516,0.060142346,1.7193413,-1.4395301,-3.6062865
9.673589999999999,-8.04696,-0.33285149999999997,1.6991129,-1.4698639,-3.6403553
8.6045885,-8.032478999999999,-0.11157937,1.7118887999999999,-1.5896458999999998,-3.592446
7.830476299999999,-7.913057000000001,-0.31431079999999995,1.7688389,-1.7360266,-3.415714
7.7046366,-7.6043009999999995,-1.1261176000000002,1.6543801,-1.8520736,-3.1777732000000003
7.992381599999999,-7.2371929999999995,-1.5764956,1.3408492,-1.8749723000000003,-3.037763
8.390384,-7.5075270000000005,-1.3196648000000002,0.9235061,-1.7615782,-3.002106
8.021063999999999,-7.856515400000001,-0.8153023,0.54342574,-1.5262904,-2.9392915
7.5054490000000005,-8.214181,-0.2484511,0.2580993,-1.220212,-2.812598
6.3061166,-8.531842999999999,0.100412816,0.03452261,-0.93542665,-2.6449068
5.063401,-8.830409,0.6801831,-0.08044223,-0.7256729999999999,-2.324447
4.1230645,-9.197689,1.3684491,-0.022410028,-0.58407444,-1.8602592
3.5747727999999994,-9.26897,1.6556671000000003,0.21603686,-0.44621086,-1.290671
2.9769025,-9.325828,1.3198563,0.47369979999999995,-0.16566665,-0.70830697
2.6215265,-9.712567,0.10865845,0.6876772,0.11857767,-0.029600783999999998
2.8954804,-9.437522,-1.1921496,0.8393985999999999,0.230366,0.6262066999999999
4.011906,-8.587857000000001,-2.5938206000000004,0.87879074,0.37887606,1.0733601000000002
5.497269,-8.547319,-4.454029,0.7627438,0.58009505,1.257562
5.5317836,-8.100044,-5.776184,0.41193262,0.80951864,1.3427167
5.381476,-8.416769,-6.2033863,0.08402015,0.95006996,1.5018908000000002
5.7369666,-8.553199000000001,-6.115002,-0.16402604,0.96497506,1.7206677
6.9336275999999994,-8.657903,-6.0161977,-0.34873423,0.8499928,1.7973226000000002
7.8952155,-9.28255,-6.1861,-0.6180909000000001,0.7291462,1.7978636000000001
8.384398,-10.024666,-6.501291999999999,-1.1743622,0.6588792,1.8500314999999998
7.9449477,-10.322822,-5.023619,-1.8743789,0.8308290999999999,2.0544446
7.256499300000001,-9.923075,-2.881173,-2.3098210999999997,1.0953861,2.4111025
7.65455,-8.589678,-0.43621397,-2.270429,1.1502243,2.73528
8.491515,-6.862711,0.82072276,-1.7556616000000003,1.0932568,2.8114111
8.633980000000001,-5.4612026,-0.19435172,-1.2765862,1.013408,2.7017522
8.118556,-4.692012999999999,-1.7572578,-1.1248646999999998,0.89257884,2.6282914
8.203924,-4.3214955,-2.1298146,-1.1243411,0.720629,2.6373322
9.018852,-4.191864499999999,-1.9039363,-1.0764319,0.6764547,2.6442611
9.922041,-3.836124,-1.9556319,-0.9838072,0.69188344,2.5409898999999996
10.178517,-3.3866557999999998,-2.5160284,-0.92204,0.6551617,2.3621285
10.362699000000001,-2.9604494999999997,-2.6622088,-0.85924304,0.61948717,2.1859202
10.310266,-2.4342327,-3.021473,-0.7320085,0.58276546,2.0342162
10.777882,-2.2603946,-3.7352612,-0.67025876,0.48321185,1.8558784
11.498795,-2.4837255000000003,-4.0006824,-0.7064569,0.38739327,1.6211316999999998
11.899795,-2.8665586,-3.5554183,-0.7048512,0.32405528,1.3773266000000002
12.167257000000001,-3.1322477,-3.0110342999999995,-0.65376544,0.3368311,1.1947303
12.50864,-3.0457788,-2.5861976,-0.56272906,0.4539427,0.99298763
12.819237,-2.6689029,-2.4846356,-0.41420153,0.56040776,0.74705327
13.28396,-2.4316664,-3.0827646,-0.318924,0.6455798,0.35632643
13.735085,-3.4990873,-3.4710943999999997,-0.3604454,0.58702403,-0.07590437
13.697947000000001,-4.674593,-2.3975153,-0.24972170000000002,0.47788859999999994,-0.33939672
13.858232999999998,-5.1917114,-1.2628264,0.1500285,0.26176447,-0.50869364
14.243479999999998,-4.591715,-1.0851861999999999,0.77232563,-0.09807005,-0.7796386
14.956453,-4.4156356,-2.389193,1.1710286,-0.54042375,-1.3140934
15.168714000000001,-5.1730275,-2.4817145,1.3099743000000001,-0.89601713,-1.9917523000000001
14.306235999999998,-6.015374700000001,-1.7935827000000002,1.5149108999999998,-1.0876718,-2.5602758
12.544353,-6.400515,-1.8257511999999998,1.6565269,-1.0184519,-2.9291687
11.153887,-6.62015,-2.3871912999999996,1.6325635,-0.8545132,-3.1154826
9.78788,-6.5638766,-2.3159783,1.5931715,-0.81670934,-3.203325
8.452394,-6.317407599999999,-1.7620462,1.7193238999999998,-1.0317688,-3.1713855
7.980917999999999,-6.254746400000001,-1.7232698,1.8609224999999998,-1.3580756,-3.09206
7.8598289999999995,-6.261699,-1.7375200000000002,1.8870151000000002,-1.6178503999999998,-3.0547974
7.995264,-6.5365634,-1.7182226999999999,1.7576512999999998,-1.7929941000000003,-3.0457566000000003
8.438594,-7.270980000000001,-1.4718498,1.536745,-1.8504852999999999,-3.0308516
8.458015,-7.8610835,-1.3821822,1.1864748,-1.7519964,-2.9584553
8.374295,-8.171515,-1.1616763,0.73399824,-1.5044738000000002,-2.8855178
7.999047,-8.52559,-0.5794255,0.28684485,-1.1211995000000001,-2.8413262
7.0977163,-9.071774000000001,0.033308133,0.012164945,-0.70544463,-2.7242319999999998
5.5315156,-9.422152,0.11051635,-0.12835151,-0.28757790000000005,-2.3984490000000003
4.402966,-9.39908,0.47111183,-0.11025245,-0.028326694,-1.9017806000000002
3.418872,-9.152621,0.46187982,0.11863003,0.14412929,-1.3300631
2.6812856,-8.731309,-0.32651165,0.34220672,0.24527112,-0.8206189
2.134536,-8.725333000000001,-1.3721074,0.49925143,0.29796259999999997,-0.27977628
1.9995319,-8.743769,-1.9409218999999998,0.6163456,0.37248817,0.37549013
2.7420123,-8.524939,-2.7002764,0.7781725,0.49972266,1.052067
4.9679494,-9.073997,-4.737560299999999,0.79627156,0.47682396,1.4412056
5.622658299999999,-9.139884,-6.246951,0.44441320000000006,0.3937812,1.7531483
6.4118059999999995,-9.213357,-6.504778,-0.03785619,0.38048178,2.068285
7.572936500000001,-8.700338,-5.51219,-0.44720572,0.5423087,2.2913206
8.828207,-8.429859,-5.008296499999999,-0.7250795999999999,0.6370626,2.3238013
9.803787,-8.305448,-4.4322133,-0.96410245,0.67591363,2.2333060000000002
10.541096000000001,-8.729164,-3.8027487,-1.0897312,0.68017226,2.0917072
9.779586,-8.768017,-3.3512406,-1.1701037,0.7552389,2.0560327000000003
8.68829,-8.192183,-3.1352742,-1.278698,0.81325364,2.1795497000000004
8.276324,-7.077461200000001,-2.634321,-1.4192319,0.8798030000000001,2.30092
8.008691,-5.7845445,-2.1742895,-1.483652,0.96124005,2.2854737999999997
7.237442,-4.8405685,-1.8157912,-1.4666176000000002,0.9697573,2.2434112999999996
6.690864599999999,-4.1911553999999995,-1.424052,-1.3196958,0.8446695,2.2769566
7.0414047,-3.8768252999999997,-1.3345759,-1.0876019,0.62906903,2.3392472
8.015213000000001,-3.663847,-1.6730871999999999,-0.854967,0.40283945,2.315825
8.982911,-3.491378,-2.075859,-0.703263,0.26549947,2.1806145
9.472064999999999,-3.6438696000000004,-2.3104906,-0.64310145,0.23940681,2.0491211
9.927108,-3.7593660000000004,-2.075773,-0.5227959,0.22558379999999997,1.9644903000000002
10.569192999999999,-3.4488665999999997,-2.0207253,-0.2587625,0.20694369,1.8494905
11.090029,-2.8644515999999998,-2.7194013999999997,0.07126179,0.21491985,1.648289
11.429546,-2.5929875,-4.5162497,0.1601514,0.22769566,1.3672037000000001
11.772184,-2.7532938,-5.887543,-0.10386454,0.20481439,1.0392913000000001
11.781023,-3.2072055,-5.5128407,-0.5057615,0.3022212,0.7726049
11.797533999999999,-3.3954089,-3.9286551,-0.64683646,0.46991244,0.5825735
11.6560755,-3.205635,-3.0161386,-0.5531472,0.57157785,0.4058414
11.857207,-2.9433072,-2.7807121,-0.32690015,0.5188864000000001,0.15351915
12.180434,-3.3966252999999997,-3.04281,-0.12781046,0.33841935,-0.14775957
12.139254,-4.3425839999999996,-3.037859,0.03239331,0.19362682,-0.3654894
12.685524000000001,-5.2079635,-2.743688,0.17931512,0.10899581,-0.41872194
13.683514,-5.1685934,-2.1807442000000004,0.5460961,-0.12468632,-0.5470036
15.039705,-5.091174,-2.7305872000000004,0.94640476,-0.5867273000000001,-0.948377
15.231595,-5.1249804,-2.9770367,1.1327187,-1.0471976,-1.6079370000000002
14.563269,-6.016945,-2.1500506,1.2248023000000001,-1.3192246,-2.1588849999999997
13.415574,-6.6972523,-1.3037865,1.3578836,-1.3836271999999998,-2.5836806
11.949911,-6.764941,-1.0696143999999999,1.5042819,-1.2218003,-2.8626192
10.736136,-6.5460634,-1.599049,1.5441976,-1.0514561000000002,-3.0324397000000003
9.774482,-6.198052,-2.0617046,1.5330274,-1.0637083,-3.1852082999999998
8.886635,-6.297191000000001,-2.1304755,1.4728659,-1.2526752,-3.2741156000000005
8.568005,-6.575272999999999,-1.6475269000000001,1.4249566,-1.5193789,-3.2906089999999995
8.512996000000001,-7.024501299999999,-1.1280329,1.4010108000000001,-1.7434793000000002,-3.2693157000000004
8.55453,-7.2835255000000005,-0.9858173000000001,1.3190325,-1.7514728,-3.2443054
8.288055,-7.456367500000001,-1.2005198000000001,1.0720334999999999,-1.6210444,-3.1921197999999995
8.238486,-7.7780337,-1.1721053,0.7382568,-1.4475063,-3.1138767999999994
7.924894,-8.274314,-0.7818218000000001,0.42366123,-1.1856022,-3.0052824
7.0095234,-8.63239,-0.5328823,0.21179570000000003,-0.86566585,-2.793417
6.173794,-8.50657,-0.10922348,0.14205235,-0.6138846,-2.5022435
5.624315,-8.596956,-0.04550899,0.18570304,-0.51167816,-2.2355572999999995
4.6560516,-9.110627000000001,-0.14082696,0.27300440000000004,-0.390308,-1.9406316000000003
3.2274892000000004,-9.623206,-0.41913852,0.3789459,-0.23486896,-1.4109764999999999
1.9609182,-9.69487,-0.8594226999999999,0.49233994,-0.033649947,-0.6460161999999999
1.8434588,-9.267313,-1.6297618,0.552484,0.18139207,0.13009684
2.8225338,-8.84919,-2.6226373,0.5109626,0.42465606,0.6741334
3.7100072,-8.912675,-3.4942896,0.49179888,0.48481756,1.0680542
4.739102,-9.892343499999999,-4.809195,0.38053414,0.3490833,1.4891149
5.125842,-9.53078,-5.171533,0.21446607,0.34588936,1.9857831999999997
6.554568,-9.130834,-5.60248,-0.04103269,0.40231586,2.3653226000000003
7.62898,-7.9714756,-5.70476,-0.42591270000000003,0.61418134,2.4936216
8.961152,-7.850366999999999,-5.662153,-0.9545030999999999,0.7302283,2.4068612999999996
9.5250635,-8.039634,-3.9244125,-1.2313123,0.76110315,2.2530105
9.473482,-8.456636,-2.718683,-1.1615864,0.67964864,2.2184007
8.877862,-8.524554,-2.2636700000000003,-1.041822,0.6764547,2.3413765
8.568617999999999,-7.8406085999999995,-2.3292902,-1.0173349,0.77279687,2.5303435000000003
8.230011,-6.6592326,-2.0737906,-1.0657678999999998,0.86118037,2.6389554
7.858373599999999,-5.5588574,-1.537834,-1.0466042,0.8712858,2.709746
8.063585,-4.8056993,-1.2079992,-0.90287626,0.8345640999999999,2.7241272999999997
8.117512,-4.276379599999999,-1.5837643999999997,-0.7064569,0.75363314,2.6942997
8.415044,-3.9797955000000003,-2.1845272000000002,-0.60264474,0.7009417,2.6778063999999997
9.235767,-3.6790260999999997,-2.5002553,-0.54408896,0.6626141999999999,2.5857227000000003
9.863699,-3.39335,-2.8344762,-0.49830896,0.63812727,2.446777
10.277847999999999,-3.195024,-3.2295002999999998,-0.51056117,0.60884064,2.2508814
10.748032,-3.10935,-3.0635152000000003,-0.4977679,0.5763775,2.0853193
11.479891,-2.8551238,-2.747672,-0.29016098,0.49706978,1.8106569
11.602435,-2.299516,-3.1226133999999997,-0.020804325,0.4576777,1.49285
11.521119,-1.7409675999999998,-4.270144999999999,0.05050983,0.4709771,1.1095756
11.643031,-2.0074520000000002,-5.3872504,-0.1746551,0.5103692,0.6837153
11.466187,-2.9502695,-5.086338,-0.52331954,0.67113143,0.33718017
10.9361105,-3.6396847,-3.9348896,-0.6074444,0.79463094,0.20408134
10.894987,-3.7897915999999996,-3.3216772000000003,-0.48818603,0.84201664,0.12903219999999999
11.131716,-3.4932265,-3.1550407000000003,-0.26780329999999997,0.71904075,-0.012548917
12.164747,-4.31438,-3.3118417,-0.050614547,0.47310638,-0.25687757
12.446133,-5.213096599999999,-3.3585768,0.19050269,0.26069984,-0.39955822
13.682077,-5.8624425,-3.15053,0.43430772,-0.05227261,-0.5571090999999999
14.3828125,-5.436015599999999,-2.5216784,0.8111941,-0.43608797,-0.8887565999999999
14.98911,-5.5706463,-2.5541343999999997,1.1540117,-0.77464694,-1.4796377
14.288145000000002,-6.2729135000000005,-2.2425146000000002,1.5016288999999998,-1.1009537,-2.0433616999999997
13.474213,-6.647950999999999,-2.3344902999999997,1.91789,-1.4123728000000002,-2.438888
12.771668,-6.789219,-3.6828665999999997,2.0829282,-1.6013396,-2.7487016
12.401323,-7.106393,-4.728826000000001,1.8518990000000002,-1.6519191999999998,-3.0446744
10.89697,-6.961160700000001,-4.204448,1.5575143,-1.572594,-3.238982
9.266116,-6.592625999999999,-3.4594489999999998,1.4648898000000001,-1.597081,-3.2703805
8.250927,-6.2621975,-3.5058584,1.4350796000000001,-1.6875763,-3.210219
7.475511599999999,-6.062444,-4.146049,1.1992681,-1.8030996,-3.1021657000000005
6.918046,-6.013200299999999,-4.09307,0.7318864,-1.84408,-2.9264982
7.0751247,-6.477761699999999,-3.0758595,0.2873859,-1.7972354,-2.7188914
7.440489299999999,-6.866187599999999,-1.9955096,-0.06764896,-1.7445438000000002,-2.5363123
7.7636204,-7.127816,-0.9272073000000001,-0.29122564,-1.6854470000000001,-2.3297527000000002
8.025719,-7.225758,-0.14500242,-0.3934321,-1.6268913,-2.1988008
7.9943256,-7.389713,0.44957359999999996,-0.43814746,-1.5007389,-2.0774305
7.746066000000001,-7.5925020000000005,0.95901185,-0.41207224,-1.2201946000000001,-1.9736358
7.030869999999999,-8.171372,1.0608037000000001,-0.315189,-0.89601713,-1.7931686999999998
6.3796854000000005,-8.488958,1.0408648,-0.18636626,-0.67509335,-1.5121008999999999
5.631747,-8.369909,0.93436116,-0.060737457,-0.4052131,-1.1623719
5.0091105,-8.1847315,0.7240258,0.041469023,-0.13266248,-0.82060146
3.8526824,-8.249385,0.17216226,0.09416051,0.29213320000000004,-0.51291734
2.6007542999999997,-8.632045,-0.13680468,0.17559758,0.66154957,-0.038100537000000004
2.7230790000000002,-9.518934,-1.1561025,0.30761427,0.8941844999999999,0.5958903
3.6786718,-9.361184,-2.2916630000000002,0.38587484,1.0996622,1.1846421999999999
4.5887459999999995,-8.916849000000001,-3.4104252,0.4130147,1.2162327,1.5210544
4.514736,-7.972318,-4.0999556,0.4561418,1.1981336,1.7435839
5.340832,-7.846862,-5.1415963,0.46624726,1.0150137,1.9160573
7.153587299999999,-8.721464,-6.268633,0.35447636,0.76269144,2.0017705
8.227253,-9.183995,-6.879987700000001,0.06169739,0.6205693,2.160927
8.965281,-8.689343,-6.9482800000000005,-0.5499358,0.815924,2.358952
9.054592999999999,-7.6597886,-5.8325434000000005,-1.2903917,1.3402733,2.524514
9.341802000000001,-6.622687299999999,-4.025821700000001,-1.8370986,1.9029325000000001,2.6384141
9.207142,-5.2075133000000005,-2.3257849999999998,-1.8466805,2.0929813000000004,2.6373496
8.630283,-3.7628614999999996,-1.8269196,-1.5033393,1.8954799,2.6400200000000003
8.727278,-2.7203016,-2.2189174,-1.1142007,1.4611024,2.6165977000000002
9.55908,-2.086288,-2.8503928,-0.9369276,0.9985203000000001,2.3797214
9.848443,-2.0406546999999997,-2.7377599999999997,-0.802258,0.7472627,2.1800907000000005
10.038053999999999,-1.9424446,-2.5548813,-0.6340432,0.62004566,2.0448802
10.571799,-1.9638871,-2.6358917,-0.45198792,0.5380501,1.8718656000000002
10.901019999999999,-1.9561490000000001,-2.7418877999999998,-0.20073032,0.46354198,1.6791811999999997
11.253936,-1.5225781999999999,-3.3858129999999997,0.123447135,0.34962437,1.4598632
11.960158,-1.2763871999999998,-4.7771697,0.32145473,0.10101966,1.1148989
12.436288000000001,-1.6678487000000002,-6.101115,0.18678513,-0.11295771,0.68373275
12.348957,-2.9216442000000002,-5.97542,-0.19966567,-0.05014331,0.33239797
11.568601,-3.4450742999999995,-4.425441999999999,-0.38597956,0.21439624,0.21474531
11.607253,-3.4509065000000003,-3.6263824000000002,-0.34711108,0.36240017,0.12424999
11.717071,-3.4241582999999998,-3.4269644999999995,-0.17463765,0.30330333,-0.09983283
11.3615885,-3.5627828,-3.674324,0.004729842299999999,0.17926277,-0.28508207
11.112084,-3.7123053,-4.0069837999999995,0.08937831,0.11805407,-0.44106215
10.995716,-4.377701999999999,-4.1399292999999995,0.015917404,0.12498303,-0.5256932
11.675009,-5.246453,-3.5304897000000004,0.016982054,0.0871792,-0.5576327
12.605213000000001,-5.5674386,-2.500236,0.27675685,-0.11934561,-0.6747443000000001
12.90581,-5.457679,-2.7772071,0.6999468000000001,-0.6005678000000001,-0.88980377
12.833563,-5.6336713,-3.288953,0.8415454,-1.0370747,-1.1586368
12.700847999999999,-6.0505786,-2.437374,0.8537976,-1.2686275,-1.4668446000000002
11.748358,-6.162704,-1.3823546,0.92991143,-1.254787,-1.7079966
10.690953,-6.110367,-1.0601143,1.0635338,-1.0940248,-1.8314960999999998
10.063271,-5.7464,-1.6457933999999999,1.1109021000000001,-0.9678723,-1.8990928
9.299147,-4.9299297,-2.3765134999999997,0.9746268,-0.8241445,-1.9949113
7.942390400000001,-3.9432693,-2.435248,0.7893775,-0.672423,-2.0199394
7.119762400000001,-3.3891553999999995,-2.4083657000000005,0.6227684,-0.676158,-1.9619071
7.440853,-3.4036162000000005,-2.1009502,0.50352746,-0.85980153,-1.9682951000000002
8.21758,-3.8733587,-1.4535007,0.42739624,-1.1009537,-2.076366
8.927883,-4.8061495,-1.0691738000000002,0.31401965,-1.2116774,-2.2115765
9.308465,-5.579495400000001,-0.40520429999999996,0.15325736,-1.1057358999999998,-2.3047247000000004
9.59572,-6.4196978,0.27019045,0.078731805,-0.9167690999999999,-2.3553045
9.772164,-7.108797,0.8428068999999999,0.10267772,-0.7080975,-2.4143836
9.350066,-7.608600599999999,0.860093,0.17507398,-0.40945423,-2.4851918
8.029502,-7.9350834,0.37561193,0.18306759,-0.043755405,-2.4702692
6.246673,-8.4810095,-0.29888257,0.14261085,0.26923448,-2.3308174999999998
4.290122,-9.163051,-0.40061697,0.17667969,0.52155674,-2.0284564
2.128407,-9.614166,-0.82941854,0.31454325,0.72438145,-1.406683
0.6476506999999999,-9.811726,-1.7271866999999999,0.5375963,0.82552326,-0.54166293
0.23239079,-9.685072,-3.3033087,0.6440614,0.7568446,0.43193409999999993
1.4736311000000002,-8.854678,-4.5237675,0.61638045,0.5242271,1.2687496
4.2187653,-8.547903,-5.763676599999999,0.47584656,0.27349308,1.7957691999999998
6.7353587,-8.909285,-6.822286999999999,0.046792275999999994,0.14679964,1.9953825
7.213997999999999,-8.587589999999999,-6.2988763,-0.41896629999999996,0.25699973,2.1955369
7.5513315,-7.8793755,-5.195695400000001,-0.7862708,0.50186944,2.4382772
8.463082,-7.158691999999999,-4.7421474,-1.0843905,0.7147996,2.546348
9.956824000000001,-7.3076015,-3.9062547999999997,-1.3042322,0.72916365,2.4079435
10.631261,-7.6852054999999995,-2.8916116,-1.207349,0.5891708000000001,2.2588923
10.485234,-7.8342776,-3.031222,-1.0540392,0.45608944,2.1854315
9.922932000000001,-7.737159700000001,-3.5684426,-1.2382238,0.5380676,2.2035131000000003
9.352404,-7.4778867,-3.299574,-1.7279631999999998,0.8585275,2.2327998
8.578492,-6.784258,-1.8718157,-2.040447,1.250319,2.2567456000000004
8.035256,-5.8179680000000005,-0.8420312,-2.0872740000000003,1.4424796999999998,2.2178946
7.778589,-5.213853,-0.52194554,-1.917471,1.3280385000000001,2.1566857999999995
7.702271499999999,-5.0067163,-0.7402968000000001,-1.6827067999999998,1.0166368000000001,2.1449747
7.632303,-4.577963,-0.7119494000000001,-1.4506303999999999,0.7052177,2.1966016
8.09699,-4.374599,-0.7454395,-1.2153425,0.44064328,2.2514224
9.09089,-4.1705174,-0.9397625,-1.0141235999999998,0.35334190000000004,2.231735
9.688137,-3.7989278,-1.7603512,-0.9289514999999999,0.38528144,2.1098413
9.921313,-3.4653962,-2.1865572999999996,-0.9470331,0.38049924,1.9554668999999998
10.112017,-3.2845669,-1.6698025,-0.8554731,0.3155555,1.7989631999999998
10.35408,-3.2497075,-1.4341363999999999,-0.6042155,0.23410101,1.70208
10.95332,-3.0333384999999997,-2.0535738,-0.36840409999999996,0.15905185,1.5439706
11.613075,-3.1574159,-2.6546812,-0.2603333,0.14414674,1.2911248
11.593998,-3.275651,-2.9714918,-0.2496868,0.21547835,1.0712656
11.637725999999999,-3.3740718000000003,-3.158019,-0.31250120000000003,0.36292377,0.9073094
11.771657000000001,-3.213488,-2.731947,-0.33698818,0.53167963,0.7407003000000001
11.790485,-2.8263838,-2.3422763,-0.21989404,0.6067288000000001,0.50645965
11.787498,-3.0062075,-2.4479083999999998,-0.045814894,0.52209777,0.22060962
12.048005999999999,-4.081501,-2.7406619,0.12610003,0.3597298,0.016737707
13.103035,-5.460571,-2.6804428,0.34756488,0.09995501,-0.077998765
14.634539000000002,-5.5646324,-1.8598830000000002,0.81440556,-0.29234266,-0.26218337
15.4923725,-4.890358,-2.3009236,1.3036212999999999,-0.75173074,-0.74712306
15.53403,-4.6559944,-2.6822049999999997,1.5080168,-1.0668848999999998,-1.4615213
14.786504,-5.131751,-2.1923418,1.6970011000000003,-1.272886,-2.1886778
14.103437,-6.0086613,-2.2606819,1.8593689999999998,-1.4416419,-2.7832765999999998
13.551469,-7.008336,-2.7954412,1.8279531000000002,-1.4304544,-3.2538521
12.20544,-7.520120599999999,-3.1337419,1.6139583999999998,-1.1972958999999999,-3.5466309999999996
10.549925,-7.550594,-2.9967744,1.3185263999999999,-0.93486816,-3.6807773
9.316058,-7.3853364,-2.4961276000000003,1.1353891,-0.8496961,-3.7105875
8.417046000000001,-7.3194574999999995,-1.8681093,1.0757860000000001,-0.9401914000000001,-3.6887708
8.017846,-7.6543584000000005,-1.6760081999999998,1.0321178,-1.0876368,-3.6052042999999996
7.4701580000000005,-7.7904644,-1.2166376,0.9533511999999998,-1.1749382,-3.4534828999999996
6.7993603,-7.8585460000000005,-0.6297708000000001,0.9474869,-1.2601103,-3.2251241000000004
6.595451400000001,-7.784277400000001,-0.42804495,0.9794264000000001,-1.3479527,-2.9493793999999998
6.5383059999999995,-7.9375160000000005,-0.44254425,0.9772970999999999,-1.4251312,-2.6853287
6.316718,-7.975325,-0.3672897,0.96823883,-1.4485534,-2.3478517999999995
6.0332446,-7.8224506,-0.32089007,0.96345663,-1.3873447,-2.002364
5.9919400000000005,-7.469105,-0.6077825,0.92725855,-1.2430758,-1.6531584
6.215242400000001,-7.561626400000001,-1.4802870000000001,0.7595847,-1.0221695,-1.4253231000000002
6.0868745,-7.9353704,-1.9605926,0.40238565,-0.7230025999999999,-1.1778005
5.7305025999999994,-8.181409,-1.6654546000000001,0.12025318,-0.30778882,-0.8999091999999999
4.8401947,-8.222876,-1.6148124,-0.10117674,0.15266395,-0.59063685
3.4797137000000005,-8.404606,-1.8665675,-0.2401224,0.49281117,-0.2579422
3.0614657000000003,-9.101998,-2.2139375,-0.26513296,0.5923647,0.27810076
3.9072032,-10.048465,-3.084699,-0.38650316,0.6477265999999999,0.84716535
4.708916,-10.072225,-2.759959,-0.49563859999999993,0.82552326,1.3688268999999997
4.7476635,-9.219353,-2.260414,-0.45251152,0.9921324,1.8676244999999998
5.7616277,-8.0947,-2.3949776000000003,-0.2752559,1.0011733,2.209901
8.323883,-7.794984299999999,-3.3552343999999996,-0.16186184,0.8026246,2.1779612999999998
9.905089,-8.030661,-4.602555799999999,-0.20659462,0.5715953,1.9101931
9.486181,-8.584486,-5.7011400000000005,-0.65320694,0.5114512999999999,1.7787174
8.272877000000001,-8.838675,-5.1021776,-1.3356481000000002,0.81540036,1.9171220000000002
7.520378999999999,-8.435203999999999,-3.7201107,-1.9904084,1.3115276000000002,2.2162888
7.157207499999999,-7.6136,-2.3611715,-2.4295857000000005,1.6516749,2.4824517000000004
6.944228999999999,-6.592214599999999,-0.8285469999999999,-2.5195397999999996,1.8193661,2.676759
7.235996000000001,-5.46737,0.15273091,-2.2389956,1.7698686000000001,2.8210106
8.134798,-4.379847,0.002078167,-1.7695020000000001,1.4866540000000001,2.849215
9.22304,-3.5359773999999997,-0.6922786,-1.3409714,1.0826278,2.7374442
10.308034,-3.2442486,-1.7742662,-1.0481924,0.7185170999999999,2.5149322
10.541699000000001,-3.3858802000000003,-2.5030037999999997,-0.9470506,0.49014083,2.3435059
10.486719,-3.4332373,-2.3080487,-0.8720014000000001,0.36451203,2.27378
10.597168,-3.0210707,-2.1322951,-0.68249357,0.35334190000000004,2.248752
11.169717,-2.5399895,-2.7830489,-0.4392121,0.31768483,2.1385693999999997
11.683082,-2.2934537,-4.056515,-0.3045425,0.13082989,1.9224453000000001
11.812531,-2.237324,-4.758562,-0.3652276,0.023823743999999997,1.6866164000000001
12.157785,-2.435181,-5.1329293,-0.540895,-0.024068091,1.4907206
12.906221,-2.6518368999999997,-4.799005,-0.83526224,0.15318754,1.2618381
13.333232999999998,-2.7248982999999996,-3.8810678,-1.1024896,0.3884754,0.9387078999999999
12.964812,-2.4115740000000003,-2.4327579,-1.1812737,0.5593431,0.60918975
12.612932,-2.049293,-1.0673351,-0.94652694,0.57904786,0.22326252
12.764581,-2.8427505,-0.9525571,-0.53822464,0.42786747,-0.14721853
12.936102,-4.0285506,-1.3347004999999998,-0.13526301,0.17606881,-0.38250637
13.23848,-4.604232,-1.567072,0.12875293,0.004660029,-0.5070705
14.370054999999999,-4.56194,-1.4664581,0.43697807,-0.23061036,-0.79187334
15.442476000000001,-5.1664667,-1.8702450000000002,0.6440439,-0.5004906,-1.2890652
15.654278,-5.905366000000001,-1.4532038999999999,0.80161226,-0.6777637,-1.9044335
15.031908999999999,-6.658667599999999,-0.88302946,1.0326415,-0.8177566,-2.4138599999999997
13.972054,-7.3370504,-0.76378864,1.3089271999999998,-0.94657934,-2.8290740000000003
12.890918,-7.585961,-1.1128441,1.534633,-0.9034697,-3.1458163
10.937345500000001,-7.3991466,-2.198107,1.5788073999999999,-0.7176794,-3.2634689999999997
9.508084,-6.745251700000001,-2.8254454,1.5170576999999998,-0.683628,-3.2687922
8.620429,-6.511003,-2.9818153,1.4420084999999998,-0.8864353000000001,-3.2544107
7.6653523,-6.3412538,-2.6507549999999998,1.406875,-1.1233114,-3.1676330000000004
7.413444500000001,-6.354872,-2.516105,1.3557542999999999,-1.3250715,-3.0393512
7.390096000000001,-6.503131,-2.5562222,1.2109792,-1.3964031000000001,-2.9403386
6.968458,-6.6360087,-2.5412345000000003,0.9655684999999999,-1.3665928,-2.7992811
6.591917,-6.8095026,-2.1639943,0.7084465999999999,-1.28355,-2.6055148
5.931146599999999,-6.7392087,-1.4035002,0.5822941999999999,-1.18082,-2.3223176
