accx,accy,accz,gyrx,gyry,gyrz
6.132853,-8.956142999999999,-3.6935925000000003,-1.3270087,0.97317815,0.6851814
6.715094000000001,-8.259556,-1.8251861,-1.6123352,1.0689966999999998,0.6585651
7.5283375,-7.580732000000001,-0.6324331999999999,-1.7305288,1.0551562,0.7373493
8.764387,-6.603227599999999,-0.73482835,-1.7369168000000001,0.9454971999999999,0.85498446
9.920364999999999,-5.8152475,-2.2998893,-1.6762142,0.82466805,0.9449562
9.439302,-5.607469,-4.2286677,-1.5745487,0.8017694000000001,1.0391865
8.016746000000001,-5.422522,-4.719651,-1.4473318000000002,0.9130341000000001,1.1557571000000002
7.830476299999999,-5.226992,-3.8441589999999994,-1.3259441,0.99447113,1.2957673
8.080651,-4.8462567000000005,-2.9753032000000004,-1.1465591,0.9497558,1.4384305
7.822048,-4.533487999999999,-2.4557805,-0.84739226,0.6910630999999999,1.4213961000000002
7.0980134,-4.6925015,-2.1785892999999996,-0.5796413,0.40306634,1.3425945
6.4210477,-5.2561727,-1.5993267,-0.45399505,0.22153464,1.3346183
6.3240633,-5.798651,-0.94591075,-0.36988762,0.050125855999999996,1.2515756000000002
6.4598627,-6.2051196,-0.48969087,-0.32410765,0.054925512999999995,1.1216882
6.90233,-6.458933999999999,-0.11195287,-0.2080607,0.17310175,0.83477354
7.0313300000000005,-6.2492209999999995,0.17914376,-0.005253441,0.16032594,0.45095816
6.9834557,-5.960442,0.24204423,0.24226916,0.0980526,0.021903882000000003
6.9326406,-5.574994599999999,0.11143572,0.42964769999999997,-0.17128661,-0.35070646
7.651610000000001,-5.426065400000001,0.059395354000000004,0.5786988000000001,-0.6626316999999999,-0.7185345999999999
9.139185000000001,-5.550947,-0.07451714,0.770336,-1.0773045,-0.93891734
10.166422,-6.1392694,-0.5724632,1.0615093,-1.3743595,-1.0863802
10.688176,-6.409546,-0.8955655,1.3825101999999998,-1.5787723999999999,-1.2274377
11.674808,-6.440258999999999,-0.68969285,1.660384,-1.6777849999999999,-1.3653187
12.318359,-6.53529,-0.3356862,1.8552151999999997,-1.7182417,-1.5058526
12.579958999999999,-5.531544,0.22282356,1.9691154,-1.7501813000000002,-1.6229643
12.998292999999999,-5.242152,0.37478834,1.910036,-1.7432523000000002,-1.6852375
12.892249000000001,-5.472800299999999,0.21728817,1.6704895,-1.6958841,-1.7054833999999999
12.3870535,-5.929288400000001,-0.37104380000000003,1.380922,-1.677244,-1.7368644
11.702522,-6.352162,-0.37550658,1.1003777,-1.6548862000000002,-1.748052
10.466636,-6.4728394,0.24115357,0.8443205,-1.5622617,-1.6911019
9.626242999999999,-6.2601,0.89011633,0.6308666999999999,-1.3865943,-1.5553502000000001
9.321575,-6.5372143,1.0007476,0.4844685,-1.1518475000000001,-1.3807473999999997
9.23322,-6.979788,0.7081953000000001,0.39023817,-0.93359405,-1.2327784
8.83038,-6.989077,0.18890251,0.32424727,-0.75686204,-1.1539941999999999
8.079856,-6.6221704,-0.35148796,0.28218484,-0.7057588,-1.1151258
7.2665553,-6.095044000000001,-1.0826006000000001,0.19594811,-0.68765974,-1.1534532
6.745175,-5.755718,-1.5479664,-0.11013027,-0.48696432,-1.2002978000000002
6.550258,-5.781815,-1.5109041,-0.4657062,-0.060039327,-1.0251540000000001
6.4185295,-6.0922279999999995,-1.2784463,-0.62594485,0.5473178000000001,-0.56470126
6.1863585,-6.594703999999999,-0.8689610999999999,-0.63446206,0.97158986,-0.13510594
5.9459333,-6.7523,-0.33630872,-0.66055477,1.4575943,0.091106184
5.8540529999999995,-6.7413254,0.1415931,-0.86707956,1.60771,0.26996753
5.975774299999999,-6.5646424,0.42271066,-1.2226728999999998,1.4288661,0.6585651
6.1875267,-6.429389,0.5723291,-1.2285371999999999,1.1829143999999998,1.1275525
6.388620400000001,-6.547346599999999,0.50997454,-0.77127844,1.0014001000000001,1.4501243000000001
6.8404355,-7.2196964999999995,0.11769896,-0.07393215,0.8001811,1.6124922
6.164351,-8.065548,-0.8841308000000001,0.51321405,0.513249,1.5885288999999998
5.242248,-8.869244,-0.6802693,0.57124627,0.26518533,1.4336309999999999
4.497603400000001,-9.185478999999999,-0.10488518,0.21191788,0.14381513,1.3362067
5.204899,-9.600491,-0.3232172,-0.28899163,0.31150636,1.3101314
6.005271,-9.517728,-1.4517385,-0.78990114,0.7501425,1.2505108999999999
5.8521376,-9.803662,-3.1392295,-1.1481649,1.1509749,1.1658624
4.9929447,-9.776569,-3.5847614,-1.3509719999999998,1.3564525,1.0173524999999999
5.2908125,-8.913403,-1.8167682,-1.4239093999999999,1.2893795,0.8981115
6.4918876,-8.550499,-0.39409518,-1.4127219,0.99447113,0.90024084
7.4617114,-7.88402,-0.29902622,-1.3222439,0.69104564,0.9880658000000001
8.275317999999999,-7.4144406,-1.7823203,-1.1891452,0.5068611,1.0503566
8.462296,-7.2397594,-3.8826193999999994,-1.0416824,0.44936990000000004,1.0998716
7.7906656000000005,-6.844563000000001,-4.7226300000000005,-0.9448165000000001,0.57341045,1.0673735
7.2499304,-6.0875735,-4.191548,-0.87613785,0.7629183,0.98220146
6.853469400000001,-5.3227987,-3.2486541,-0.8096059,0.7762177,1.0333047
6.5077370000000005,-4.676575,-2.2773647,-0.68930036,0.6111969,1.1733149999999999
6.473586599999999,-4.5626016,-1.3790506,-0.55196035,0.44724062,1.2733922
6.396157700000001,-4.9255047,-0.9848021999999998,-0.42472586,0.24708626,1.2765862
6.032067,-5.41488,-0.65473753,-0.32625440000000006,0.057054814,1.1685328000000001
6.414689,-5.9496775,-0.18552190000000002,-0.27834509999999996,0.036285397000000004,0.979025
6.921426299999999,-6.1543529999999995,0.16755582,-0.12555899,0.07567748,0.6260845
7.290986,-6.0647907,0.21466412,0.05222025,0.005410521,0.18744837
8.278795,-5.8342767,-0.17803283,0.18688986,-0.08239699,-0.31131437
8.325262,-5.4124665,-0.68611115,0.38545597,-0.43427283,-0.83992225
7.8172026,-5.058996,-1.1190978,0.51958454,-0.7659203,-1.1598586000000002
8.426096000000001,-5.5309315,-1.3814543,0.65640086,-0.9974731,-1.3062394
9.603899,-6.054898000000001,-1.5867141000000002,0.91936964,-1.2343493,-1.4031225
10.9524,-6.380088,-1.5633562,1.2382413,-1.4685723999999998,-1.4685898000000002
12.246619,-6.884689999999999,-1.5442697,1.5421904,-1.659686,-1.5351392
13.083919999999999,-6.711445299999999,-1.1604791,1.7577909,-1.8066077,-1.6171174
13.343728,-5.58867,-0.579234,1.8945898,-1.9333011999999998,-1.6985718999999997
13.465939,-5.5223889999999995,-0.6296845999999999,1.8860726000000003,-2.0317726,-1.7619098000000002
13.401917999999998,-5.4662976,-0.58170485,1.7178577000000002,-2.0796995,-1.8071662
12.452328999999999,-5.7505945999999994,-0.4116686,1.4676648,-2.0780938,-1.8358942999999999
10.909162,-6.420828,-0.41100782,1.15094,-1.9625703999999997,-1.7906555
9.869139,-6.7449639999999995,0.20070115,0.86720175,-1.7570927,-1.6932311999999998
9.139491,-6.7563414999999996,0.8537915,0.6473426,-1.4488851,-1.5819839
8.873036,-7.0136704,1.0562643,0.48658034,-1.1161729,-1.4499671
8.790685,-7.358579,0.8409873,0.34499922,-0.8313876,-1.30411
8.496313,-7.1770697,0.45453438,0.26035076,-0.6019466,-1.1635761
7.922567,-6.714519500000001,-0.09881349,0.20498893,-0.42521456,-1.0693458
7.4147563,-6.4060025000000005,-0.73467517,0.11342895,-0.28363347,-1.0448761999999998
7.117089999999999,-6.335977,-1.1593011999999998,-0.040404372,-0.07176794,-1.0081371
6.867126,-6.4578896,-1.2266741,-0.267175,0.17149605,-0.85643303
6.408636,-6.582292599999999,-1.0083516,-0.40769145,0.51379,-0.49604002
6.179176,-6.638728599999999,-0.42514318,-0.42898446,0.75386006,-0.026529005
6.121226999999999,-6.750672,0.049301405,-0.42846087,1.0679319999999999,0.2912431
5.676575700000001,-6.5696699999999995,0.33946908,-0.52480304,1.2904441,0.4349884
5.3895106,-6.290171599999999,0.4885608,-0.87081456,1.3223836000000002,0.50897294
5.2883510000000005,-6.03176,0.6915412,-1.2290783,1.3005495,0.770336
5.402037,-5.967586,0.69858974,-1.1582878,1.3798747,1.1866143999999998
5.5061274000000004,-6.269255,0.41554722,-0.65629613,1.5044389,1.4639647
5.338763,-7.0878233999999996,0.17204733,-0.05211553,1.4389541000000001,1.4799345
5.033100599999999,-8.236725,-0.3239259,0.28909633,1.0264107,1.2968146
4.6087620000000005,-9.26782,-0.08781932,0.2401224,0.44511130000000004,1.1344465
4.983454,-9.752139,-0.2316055,-0.08883726,0.15924384,1.1222118
6.0986543,-9.670621,-0.7292834,-0.45827109999999993,0.29606020000000005,1.1163476
6.777209299999999,-9.313234,-2.1995628,-0.7925715,0.71713835,1.035434
7.307554,-9.587772,-3.5896362999999996,-1.1651993,1.1211646,0.92418677
6.2222238,-9.192001,-3.2286672999999997,-1.4558489,1.2957673,0.8012108
6.2962812999999995,-8.477878,-1.3564876000000001,-1.6001003999999999,1.2010134,0.7405432
7.1662383,-7.743518400000001,-0.33723766,-1.5868008999999998,1.0189581,0.7809825
8.304509,-6.927871700000001,-1.0608516000000001,-1.4888531,0.8353146,0.85020226
8.669891999999999,-6.499549,-2.8361619,-1.3222439,0.73043776,0.9545206
8.038915,-6.2852488,-4.244316599999999,-1.2024621000000002,0.8624545,1.0923841
7.40382,-6.0395080000000005,-4.2918463,-1.0885444,0.98434824,1.1860908000000001
7.4623914000000005,-5.526468799999999,-3.2969306000000005,-0.94535756,0.90343475,1.2803037
7.38276,-5.133293,-2.5797524,-0.82718134,0.6010739,1.3244954
7.129291,-4.8161664,-2.269751,-0.78140134,0.25719172,1.3149136000000001
6.9714174,-5.004705,-1.7073723000000003,-0.8064119000000001,0.026703538,1.2994674
6.7366037,-5.4254045,-1.0870442,-0.8346339,-0.11754792,1.2206832
6.591256,-5.8883475999999995,-0.4279875,-0.8596444999999999,-0.097843155,1.0844079
6.8150473,-6.1647058,-0.0004884171599999999,-0.77288413,0.022444934,0.84379685
6.8462005,-6.171964599999999,0.18657535,-0.43538985,0.09536479,0.38386770000000003
7.115060000000001,-5.687742,-0.12655750000000002,0.08946557,0.11932816,-0.30813786
7.22006,-5.109677,-0.37024894,0.6281789000000001,-0.21495475,-0.9032777
7.585903599999999,-4.7670183,-0.82136446,0.9528974,-0.675425,-1.1002381
8.5227165,-4.739303,-1.4999865,1.1791444,-1.144936,-1.1279191000000002
9.655901,-5.215223,-2.0010833999999997,1.4027212,-1.5468329,-1.0448761999999998
10.914256,-5.88649,-1.8216139999999998,1.6055283999999999,-1.8965794999999999,-1.0374237
12.337771,-6.64957,-1.3048016000000002,1.7721375,-2.1009924,-1.2083089
13.4308,-6.974434,-0.6893864000000001,1.8684971000000001,-2.1606127999999996,-1.4148512
14.442945499999999,-6.7819304,0.37294957,1.8562449,-2.1520957999999997,-1.5697491000000001
14.996811,-5.978886599999999,1.4933976999999998,1.7705493000000003,-2.1110978,-1.7289057
14.430264999999999,-5.118592700000001,1.8977879,1.6497201000000001,-2.062665,-1.8715688999999998
12.120675,-5.4577746,1.2647897,1.4809642,-1.970564,-1.9604759999999999
9.974043,-6.0377645,0.32123482,1.3026438999999999,-1.8960384,-1.9924155
8.64935,-6.215318700000001,0.176807,1.1051425,-1.7603042000000002,-1.9838983000000001
8.313817,-6.4162307,0.271196,0.9417273000000002,-1.5617379999999998,-1.939183
9.052457,-6.7218366,0.26982653,0.7953291,-1.2993103000000001,-1.8667866999999998
9.643336999999999,-6.7525682,0.30578744,0.65640086,-1.0161133,-1.7677741999999999
9.288191000000001,-6.555698,0.10732727,0.49722683,-0.7249225,-1.6655678
8.525427,-6.230163,-0.16539145,0.3247534,-0.39701006,-1.5772017
8.223239999999999,-6.046825,-0.24952370000000001,0.06391396,-0.079220496,-1.4989586000000001
7.6967550000000005,-6.040954,-0.24243686,-0.22884756,0.23483405,-1.2700586
7.4065204,-6.422341,-0.25591144,-0.4055796,0.50738466,-0.8212995999999999
7.0457716,-6.7490053,-0.13110650000000001,-0.33265975,0.6755995,-0.27193975
6.809444999999999,-6.9395647,0.11775642,-0.1984963,0.81454515,0.09534734
6.375127,-6.817690400000001,0.44665268,-0.18465583,0.8661719999999999,0.27101472
6.0586805,-6.687781299999999,0.5953901,-0.51523864,0.8895943000000001,0.31094787
5.6612334,-6.485509400000001,0.68885976,-0.9607863000000001,1.0636735000000002,0.6431189
5.4707317,-6.3933800000000005,0.5882075,-0.9501572,1.1829143999999998,1.0780201
5.278391,-6.4937935,0.38595490000000005,-0.46998227,1.2840562,1.4288312
4.9325730000000005,-7.0799710000000005,-0.2790873,0.16983798,1.2217653999999998,1.575212
4.297803,-7.931157000000001,-0.59263194,0.625526,0.97956604,1.4267018999999999
3.8298705,-8.717182000000001,-0.27106196,0.6021036999999999,0.6601708000000001,1.2419763000000001
4.469591,-9.371001,0.029534873,0.026651177999999998,0.45682248,1.1621275
5.7151318,-9.762779,-0.60580003,-0.6834534999999999,0.5441238,1.1440284
7.219284,-9.662433,-2.2058449,-1.3137268,0.8912,1.1158065000000001
7.4623914000000005,-10.217897,-3.8757050000000004,-1.6570679,1.1041301000000001,1.0758908
6.096375,-9.453458,-3.2263783999999998,-1.7119061999999998,1.1025245000000001,1.0439513
6.1236690000000005,-8.931992,-1.5035107,-1.5463443000000001,0.91036373,1.0407573
6.96299,-8.576614,-0.44031283,-1.3238497,0.6569768,1.0982485
8.260761,-7.887755,-1.0829453000000002,-1.1646756999999999,0.5371949,1.2973381000000002
8.8759575,-7.352622,-2.9708118,-1.0795035,0.65484756,1.5033393
8.015988,-6.570637700000001,-4.9747777,-0.9794264000000001,0.7660948000000001,1.5182619
6.817154400000001,-5.714002,-6.031607,-0.77766633,0.68252844,1.4607707
6.3295703,-5.1354666,-5.258308400000001,-0.6222273,0.5164429,1.4655528999999998
6.2560587,-5.095187,-3.667266,-0.52002084,0.36206856,1.4714173000000002
6.311192500000001,-5.025956,-2.1666472000000003,-0.3731165,0.21408209,1.3707991000000002
6.489407,-5.2979183,-0.75810003,-0.21448351,0.088453285,1.1956552
6.6020970000000005,-5.581823,-0.0053247046,-0.11651818,0.09855874,0.95558524
6.588125,-5.981712,0.16981593,-0.08405506,0.19331266,0.6979396999999999
6.374801000000001,-6.2165256,0.22409728,-0.026022859,0.45095816,0.37428585
7.1488943,-6.024616,0.118216105,0.105976395,0.5457121,0.03413864
8.177923,-5.857548,0.12550405,0.16292648,0.43392375,-0.21179570000000003
8.270396,-5.1839542000000005,0.078290395,0.19380136,0.16617279999999998,-0.40343285
8.167484,-4.744992,-0.44430637,0.3167598,-0.3714584,-0.5764299
8.966305,-4.980342,-0.5336196999999999,0.5690821,-0.8707796999999998,-0.6807656999999999
10.287664,-5.4115663,-0.28706479999999995,0.890083,-1.1715523,-0.76806706
11.219766,-5.766071,-0.3237248,1.298909,-1.5047879,-0.89317226
11.983688,-6.067069999999999,-0.3241079,1.6720604,-1.836418,-1.0251889
12.505939999999999,-6.537368,-0.3172317,1.8669089,-1.9982449,-1.1257898000000002
12.488078999999999,-6.3434854000000005,-0.049559973,1.8972427,-2.056277,-1.2024446000000002
11.841892999999999,-5.828828,-0.38651994,1.7838486,-2.0259259,-1.2599357
11.34528,-6.3587604,-1.0576721000000002,1.5831707,-1.8832626000000001,-1.3158212
10.941578,-6.820477499999999,-1.19712,1.3500121999999999,-1.6740674999999998,-1.3712004
10.243466999999999,-7.075613000000001,-0.62532717,1.1567693000000001,-1.5761195,-1.3706595
9.576788,-7.067051400000001,0.1932025,0.99016017,-1.5175638,-1.2966574
9.066612,-6.732303599999999,0.8400488000000002,0.890083,-1.5074409,-1.2178906999999999
8.747743,-6.691611999999999,1.1169908000000002,0.81342816,-1.3759652,-1.1289836000000002
8.565736,-7.0041795,0.85087055,0.7500901,-1.2194616000000003,-1.078945
8.306500999999999,-7.198867,0.29645005,0.6233966999999999,-1.0059903000000001,-1.0890505
7.945417,-7.0412326,-0.21673271,0.44292966,-0.74888587,-1.0549817
7.447039999999999,-6.70705,-0.55608684,0.26673868,-0.6147399,-1.01826
7.2081175,-6.463406,-0.5881883000000001,0.11395255,-0.65252626,-0.9698271
6.890139,-6.273871400000001,-0.5684505,-0.09203121,-0.6120694999999999,-0.92190033
6.573117999999999,-6.4917245,-0.43696097,-0.39706240000000004,-0.27563986,-0.8798554
6.3155019999999995,-6.67467,-0.20603542,-0.6882357,0.32107076,-0.767526
6.3156266,-6.765267,0.15922399,-0.87135565,1.0327985,-0.5796238
6.3347516,-6.6834907999999995,0.37874356,-0.9267349,1.4708936000000001,-0.30335566
6.4189987,-6.5569429999999995,0.45187205,-1.0331825000000001,1.3543231000000002,0.057019908
6.247478,-6.5093074,0.12883678,-1.1114431999999999,1.0881604,0.39503783
5.64366,-6.418740000000001,-0.08209238,-0.9772970999999999,0.8358382,0.70591587
5.462553,-6.618061999999999,-0.37148434,-0.6227684,0.6942396,0.9513265999999999
5.7488613,-7.4159436,-0.47409979999999996,-0.116535634,0.57180476,1.1200651000000001
6.057857,-8.200399,-0.6692464,0.27312657,0.46108109999999997,1.1621275
6.0663996,-8.680178999999999,-0.7245236999999999,0.3183655,0.5371949,1.0833433000000001
5.872163,-9.205744000000001,-0.50069463,0.00057595863,0.7277674,1.0003004999999998
5.486399700000001,-9.865557,-0.5839266,-0.5743355,0.98647755,0.93800974
4.7252827,-9.429486,-1.1191553,-1.2408069,1.2191125,0.8650899
4.9016876,-10.186208,-2.2402162999999997,-1.7044536,1.3596464,0.8027991
5.4583683,-9.922941,-2.0871692,-1.9189720000000001,1.3766809,0.78524107
5.9602885,-9.413829,-1.219185,-1.8875736,1.2835151000000002,0.8587020000000001
6.649263400000001,-9.014111999999999,-0.3885119,-1.6927424999999998,1.0546151000000001,0.99817127
6.979883,-8.169246000000001,-0.26094884,-1.5277216,0.9497558,1.2063018
7.502863400000001,-7.6527495,-1.3856107,-1.393052,0.9391093,1.3521589
7.5283755999999995,-7.1578393,-2.8946283,-1.1726693000000001,0.91940457,1.465012
6.906458,-6.368681400000001,-4.030179,-0.86657345,0.91195196,1.5150504999999999
6.2610865,-5.542491,-4.5209327,-0.6312856,0.9465619000000001,1.4959042
5.8169427,-4.9620885999999995,-4.0030093,-0.42261404,0.887465,1.4719408999999999
5.564794999999999,-5.060777,-2.5317533,-0.24642304,0.67614055,1.4011328
5.312062999999999,-5.4699173,-1.0388154,-0.1287704,0.4259476,1.2393234
5.313624,-5.8856564,0.030339322999999998,-0.15325736,0.30457740000000005,1.0407573
5.5308166,-6.381994000000001,0.5312925000000001,-0.2820801,0.29764846,0.816657
6.1457915000000005,-6.6804357,0.61221653,-0.3928038,0.45575783,0.5957332
7.049842,-6.917317999999999,0.6216401,-0.38641590000000003,0.6298195,0.35140458
7.626883,-6.6912575,0.89541227,-0.3816337,0.68305206,0.08735373
8.291791,-6.3220043,0.76348215,-0.31827825,0.56115824,-0.16814502
8.446045,-5.7131495,0.20754856,-0.16016887,0.10016444,-0.46783552
8.84421,-5.426717,-0.48733497,0.0042935097999999994,-0.46088909999999994,-0.7105759
10.025001,-5.968094000000001,-1.2083536,0.16824974,-0.8979370000000001,-0.8745321
10.935775,-6.2534730000000005,-1.9338925,0.40299650000000004,-1.2002978000000002,-0.9826029000000001
11.623438,-6.3295226,-2.4093522999999997,0.72345644,-1.4238745000000002,-1.0528699
12.126833,-6.5914674,-2.5282772000000002,1.0673561000000003,-1.5840957,-1.1476238
12.021449,-6.48165,-2.0079021,1.3031676,-1.6160352,-1.2343841
11.543998,-5.6234245000000005,-1.544624,1.3691759,-1.5659966,-1.3222091
11.391017999999999,-5.693507,-1.6262089,1.3351071,-1.5005294,-1.420698
11.168683,-5.810028599999999,-1.4726256000000002,1.2478056999999998,-1.4856243,-1.5346156000000002
11.016086,-5.9315104000000005,-1.2395453,1.0976899,-1.5116994,-1.6128588
10.313924,-6.2499199999999995,-0.9767385000000001,0.8698546,-1.4728484,-1.5921068
9.5150175,-6.386629,-0.2629408,0.66437703,-1.3935232,-1.5234281
8.94919,-6.4820523,0.46621809999999997,0.5137377000000001,-1.2545950000000001,-1.4036636
8.725946,-6.556454,1.0712329,0.44240606,-1.1161903999999998,-1.2668473
8.775352499999999,-6.7801203999999995,1.1562653999999999,0.41950732,-0.97459185,-1.1247251
8.520025,-6.872603999999999,0.7071706,0.41685444,-0.8340579,-1.0140014000000002
8.186628,-6.582762,0.0526054,0.44825292,-0.66104347,-0.93787014
7.9119077,-6.331935400000001,-0.3292985,0.41950732,-0.54127896,-0.8905019000000001
7.639227,-6.2396154,-0.58936626,0.21670008,-0.4880464,-0.8697325
7.2535405,-6.429964,-0.8703880999999999,-0.043598324,-0.29054496,-0.7653966999999999
6.874442599999999,-6.661646000000001,-0.95325625,-0.15803957,-0.07548549,-0.5306499
6.364545,-6.7481914000000005,-0.48164633,-0.13196434,0.087388635,-0.24958208
6.066571700000001,-6.7801394,0.012440273,-0.28527406,0.3700447,-0.014294246000000002
5.9225655,-6.750815400000001,0.48015237,-0.6142512,0.79751074,0.14857988
5.8309155,-6.631622999999999,0.66873884,-1.0443527,1.2467933999999998,0.27794367
5.891776,-6.4342833,0.7868879,-1.3499249,1.4288486999999999,0.3625747
5.873121,-6.1662955,0.7574966999999999,-1.4095453000000002,1.4762169,0.61224407
5.806696,-6.2362633,0.11663593,-1.0874796999999998,1.3665578,0.9513265999999999
5.813782700000001,-6.715103599999999,-0.76272565,-0.37948695,1.0918778999999998,1.1424402
5.493046,-7.6729474,-0.8501331,0.22308798,0.7442781999999999,1.1498926999999999
5.297717,-8.453974,-0.50807834,0.43975314,0.49621457,0.97103137
5.3254895,-8.623522,-0.6756054,0.060720004,0.41530108,0.8299564
5.9310026,-8.956823,-1.7366678,-0.64139104,0.49143237,0.83049744
6.2443843,-8.983571000000001,-2.6092869999999997,-1.3105153999999999,0.7964460999999999,0.8022755
6.82562,-9.311672999999999,-3.1985384999999997,-1.7933433,1.1520395,0.66547656
7.0178647,-9.84355,-3.1645696,-2.0179846,1.300567,0.5361128000000001
6.431123,-9.349347999999999,-2.3159304,-2.0621761999999997,1.318125,0.52227235
6.5753207,-8.730677,-1.1558823999999999,-1.9897801,1.1882375,0.654289
7.322197,-7.828618,-0.59813863,-1.8178302,0.99499476,0.90128803
7.917855,-6.901564,-1.7509276000000003,-1.5042993,0.75864226,1.1871555
8.1219845,-6.4972405,-3.880474,-1.1540117,0.6463303,1.4102086
7.0795107,-5.944439,-5.60088,-0.79204786,0.5531821,1.5076154
6.3480153,-5.3373555999999995,-5.674603,-0.57431805,0.5845806,1.5704298
6.42552,-4.8864126,-4.313901400000001,-0.48169342,0.63568383,1.5704298
6.4366007000000005,-4.6330004,-2.8314692999999997,-0.44549528,0.66442937,1.5502014
6.0437407,-4.813638,-1.4018339,-0.35978216,0.51804864,1.4511889
5.648343,-5.5332875,-0.5883031999999999,-0.23947662,0.22526965,1.264334
5.2832084,-6.2237844,0.025503036,-0.2091428,-0.0046774824,1.0279815
5.362351,-6.717833000000001,0.5920382,-0.27089256,-0.028640852999999997,0.76023054
5.922718499999999,-6.809158,1.0027587,-0.2613107,0.14648548,0.51377255
6.963995,-6.642741,0.9887,-0.18250908,0.25455627,0.24654521
7.6622114,-6.1666403,0.5958401999999999,-0.0861669,0.20078267,-0.03769911
8.168039,-5.577561,-0.33432633,0.16133824,-0.11007792,-0.44174284
8.633797999999999,-5.1017184,-1.0707253,0.41366049999999993,-0.5599016,-0.71642274
9.423616,-5.261392,-1.5268781,0.68888146,-0.92985904,-0.8931548
10.558496,-5.678778,-1.7810563000000001,1.0189058000000002,-1.2673708000000001,-1.032624
11.359788,-5.463147,-1.9547698,1.4027386,-1.5942011999999999,-1.1412010000000001
11.973680499999999,-5.402085,-2.0939498,1.7082758999999998,-1.8523878,-1.2556597
12.242923,-5.545823,-1.7926729,1.8578681000000001,-1.9652406999999998,-1.3812885
12.086419,-5.1239843,-1.0487561,1.8754259999999998,-1.8939091000000001,-1.4776481000000001
12.05107,-5.2454852999999995,-0.8780687,1.8317754000000002,-1.8284243000000002,-1.5660142
12.486901,-5.8748154999999995,-0.7943291,1.7343511999999999,-1.7789268,-1.6453394000000001
12.24003,-5.890464,-0.38208586,1.5821235,-1.7437933999999997,-1.7459401
11.038428,-5.9659004,-0.031680077,1.3872924,-1.726759,-1.8103428
10.004105000000001,-6.005836,0.44844353,1.1743622,-1.7049248,-1.794373
9.196502,-5.924615,0.9495404000000001,0.9864426,-1.6186881000000002,-1.7219768
8.902647,-6.2175603,1.1231488,0.8757364,-1.4824128,-1.6453218
8.962398,-6.749599000000001,0.8988025,0.8203571,-1.3115451,-1.5644083999999998
8.95962,-6.984451299999999,0.26222253,0.77991784,-1.1268194999999999,-1.4749777
8.53689,-6.974692299999999,-0.042300752999999996,0.68675214,-0.9325294,-1.3743595
7.9883112999999994,-6.569267999999999,-0.29116365,0.5339659999999999,-0.79358375,-1.2865345
7.7837224,-6.402871,-0.53965306,0.32316515,-0.63388616,-1.2114854
7.6993694,-6.578490700000001,-0.7443860999999999,0.10545279,-0.49548152,-1.1289662
7.286867599999999,-6.744629,-0.8308455,-0.1335526,-0.2767045,-1.0767983
6.8797,-6.8211759999999995,-0.6289568,-0.35604715,0.16084954,-0.9266825999999999
6.616769000000001,-6.946853,-0.25503036,-0.40608576,0.60215604,-0.6317743
6.473701,-6.817231,0.23709299999999997,-0.35604715,1.032275,-0.32941344
6.3894444,-6.842466,0.47681007,-0.43217844,1.2462698,-0.10477211
6.227022,-6.7537080000000005,0.4328525,-0.75742054,1.1717442,0.24654521
6.0126349999999995,-6.543075599999999,0.16163735,-0.9559866,1.0434451,0.7591659000000001
6.111209400000001,-6.631498,-0.15676275,-0.7121816,0.91622806,1.2105778
6.3592005,-6.997878,-0.28870243,-0.16388641,0.7448193000000001,1.4629176000000002
6.546628500000001,-7.646725999999999,-0.45386400000000005,0.38758525,0.55264103,1.515609
6.564000999999999,-7.969924000000001,-0.7148129,0.5297248999999999,0.4946263,1.3830687
5.7122684,-8.117713,-0.57397634,0.08044223,0.5201779000000001,1.2861855
5.600986,-9.093378999999999,-0.6911294,-0.6057165,0.629837,1.2888383999999997
5.4012709999999995,-8.815988,-1.5116512,-1.2492893,0.8816356,1.3261011999999999
5.103902,-8.725955,-3.243693,-1.7038951,1.2585045,1.3426120000000001
4.6036285999999995,-9.384342,-4.3354397,-1.9753811000000001,1.5614065000000001,1.2739333000000002
4.4329505,-9.254988,-3.3624551,-2.0488419999999996,1.5715119,1.2010134
5.5660685999999995,-8.951661,-1.5891562,-2.0318077000000003,1.4182197,1.2255003
6.737581,-8.614355999999999,-0.9486402,-1.9381183000000002,1.1839964,1.3681636000000001
7.781318,-7.8083344,-1.89593,-1.759798,0.9188984,1.582682
8.144815,-7.4802427,-3.9925230000000003,-1.5575143,0.7783645,1.8248988000000002
7.378269,-7.080526,-5.5724086999999995,-1.3062568,0.7075564999999999,2.0085423
6.740492,-6.5515704,-5.5322437,-1.0198656,0.69158673,2.0873265
6.337548,-6.049869999999999,-4.087228,-0.75742054,0.76452404,2.0537987
6.41624,-5.691314,-2.7124102000000003,-0.55887187,0.7059508000000001,1.9308227999999998
6.6471562,-5.555610700000001,-1.6401144,-0.38107517,0.48452085,1.6944703999999997
6.4510903,-5.6055636,-0.9474718000000001,-0.24158847,0.13850933,1.3458059
6.047121499999999,-5.9120026,-0.49007395,-0.19474384,-0.12711233,0.90397584
5.9463735,-6.240286,-0.086210415,-0.17825048,-0.1436057,0.43607049999999997
6.2933984,-6.786834,0.31644645,-0.089360856,0.12571606,-0.025987952999999998
6.851467599999999,-6.9629607,0.45630613,0.0027227136,0.35676274,-0.36027086
7.800367,-6.489072,0.47521073,0.11238175,0.36367425,-0.57480675
8.733281,-5.8773823,0.42740333,0.37374482,-0.12765338,-0.7361101
9.46697,-5.0301313,-0.05232767,0.69048715,-0.8111418,-0.8686504
10.497387,-4.540325599999999,-0.6253463,1.0098825,-1.3386850000000001,-1.0208955
11.9018345,-4.7390733,-1.1590042999999999,1.3063964,-1.6607331000000003,-1.1715348
13.1938715,-4.9024057,-1.5130780000000001,1.5938522,-1.9428656000000002,-1.3152627000000001
13.962285000000001,-5.0443052999999995,-1.5408125,1.7929418000000001,-2.122268,-1.476025
14.193995999999999,-5.3847127,-1.0168556999999998,1.8967365000000003,-2.1887999,-1.6548862000000002
13.56957,-5.247075,-0.45674664,1.941993,-2.179218,-1.815125
12.539288,-5.5757318,-0.7573339,1.8626677,-2.1270502000000002,-1.9540706
11.626895,-5.883396599999999,-0.8873773000000001,1.6944529,-2.0322961999999998,-2.0631886
10.84833,-6.008517299999999,-0.60627896,1.5022921999999999,-1.9444714,-2.1238737000000003
10.5514765,-6.343811,-0.27301559999999997,1.3377948999999998,-1.8704693,-2.1701772
10.302145,-6.4861417,0.23659502,1.2350647,-1.8033963,-2.1877527000000003
9.858775999999999,-6.520569999999999,0.6495565,1.1030481,-1.6905433999999997,-2.1025631000000002
9.639458,-6.6833563,0.7833445,0.9481501,-1.51807,-1.9700229
9.770526,-7.207399400000001,0.57826674,0.8044048,-1.3008811000000002,-1.7906380000000002
9.521328,-7.283114,0.4141969,0.6628062,-1.0927506999999999,-1.6309403
8.94128,-7.0971804,0.19435172,0.47383943,-0.81700605,-1.5510916000000001
8.277282000000001,-6.847149000000001,-0.19512744,0.19170697,-0.46567129999999995,-1.4994471999999999
7.743317599999999,-6.75276,-0.30680257,-0.13779375,-0.1388235,-1.3701008999999997
7.478442,-6.919051,-0.18447803,-0.37573448,0.14116223,-1.183246
7.3175135,-7.2962240000000005,0.08764693,-0.44226643,0.42010075,-0.8079478
6.8830423,-7.4269667,0.31910875,-0.3315602,0.562764,-0.33471924
6.3468275,-7.4498553,0.35738727,-0.32463124,0.9321978000000001,0.008604473
5.952646,-7.2322607,0.43708545,-0.52319735,1.3261186000000003,0.17523105
5.5890822,-6.9999948000000005,0.5167454,-1.0235833,1.4208726,0.36793286
5.604539,-6.869434,0.4371142,-1.5362038999999998,1.4150257,0.7485543
5.693382700000001,-6.6630635,0.21804474,-1.5330099,1.4480298999999999,1.2388172
5.368231,-6.884852400000001,-0.17340724,-0.99057907,1.4852927,1.5997337999999999
4.990857,-7.7199883,-0.44114602,-0.23839453,1.4112906,1.7929593000000001
4.735798,-8.454021000000001,-0.33663434,0.27209684,1.1430161,1.7163218
3.94619,-8.812453,0.05782476,0.26090926,0.7969871999999999,1.4820986999999999
4.0828705,-9.030727,-0.16129258,-0.23253022,0.5840569999999999,1.3969266000000002
5.022671,-9.417305,-1.2699133,-0.9415877,0.7176794,1.3931916000000002
5.552527400000001,-9.009007,-2.94415,-1.5580379999999998,1.0003355,1.3687046999999999
5.9460287,-9.905607,-4.6602945,-2.0514948,1.3160132,1.261716
5.618386699999999,-10.009171,-4.115633,-2.292106,1.487963,1.1009537
6.061687999999999,-9.380827,-1.9669994999999998,-2.3208516,1.4224782,1.0663438
7.0973524999999995,-8.7737055,-0.48737326,-2.2181215,1.1653563,1.2100716999999999
8.057369,-7.8198075,-0.7609635,-1.9961331000000002,0.88908815,1.3947973
8.968881,-7.195092999999999,-2.736831,-1.7709506999999998,0.7655887,1.635932
8.542617,-6.7259254,-5.09784,-1.6170999,0.8017868,1.795106
7.211278,-5.8356657,-6.123927,-1.4616784,0.8651421999999999,1.8371685000000002
6.7541009999999995,-5.3085485,-5.372799400000001,-1.3285795,0.82840306,1.8318452
6.5971365,-5.0234184,-3.8711464,-1.2082913999999998,0.7586771999999999,1.8919892
6.877584,-5.1019096,-2.6008022,-1.0331477,0.6692465,1.8871896000000001
6.8974175,-5.6761254999999995,-1.2478004999999999,-0.78189003,0.49888492,1.7280331000000002
6.2919526,-6.2220699999999995,-0.32253727,-0.5572486999999999,0.27426103,1.3857391000000001
5.92903,-6.8659577,0.3142725,-0.40341540000000004,0.22900465,0.9678723
6.254267700000001,-7.164888400000001,0.8987354,-0.12233013,0.49836132,0.43182936
6.34474,-7.1349506,0.92791593,0.17467254,0.6564707,-0.025970499999999997
7.3745246,-6.876032400000001,0.7089327,0.28646088,0.50848424,-0.24422392
8.235489,-6.3920207,0.4011054,0.36898005,0.010751228,-0.39166933
8.711265,-5.6570582,0.042482715,0.4706455,-0.7238404,-0.5109102
9.475379,-5.522293599999999,-0.13239935,0.72509706,-1.2742649,-0.69244194
10.891952,-5.450812,-0.116482705,1.0705850000000001,-1.6069596000000002,-0.95167565
12.466148,-5.2841949999999995,-0.027811047000000002,1.4575768999999998,-1.8273423,-1.201345
13.563248000000002,-5.0938077,-0.20446482,1.8861074,-1.9854517,-1.5132703
14.275591,-5.011629599999999,0.107231505,2.1655695,-2.0860698,-1.8326830000000003
13.855178,-4.3324419999999995,0.7856334,2.2220134999999996,-2.2015757999999996,-2.1579251
12.393642,-4.271706,-0.1398884,2.1096842000000002,-2.2122222999999996,-2.3532797999999997
11.67407,-5.36374,-1.3088716999999999,1.8839781999999998,-2.216481,-2.471997
11.586654,-6.138647,-1.7094983,1.6087573,-2.1898646,-2.5332232000000006
11.558057000000002,-6.431276,-1.2411444999999999,1.3825277,-2.114798,-2.5252297
11.633713,-6.080286,0.0576428,1.201537,-1.9646822,-2.4512277
11.241581,-5.8017635,0.8071524,1.0945483,-1.7725215,-2.2931356
11.17234,-6.0052133,1.3577996,1.0168114,-1.5563973,-2.0525246
11.374814,-6.7016672999999995,1.2478004999999999,0.94230324,-1.3466611000000002,-1.8049846
10.926227,-7.069723,0.37112042,0.80815727,-1.1305370000000001,-1.6128238000000001
10.028516,-6.8593016,-0.5288121,0.6090501,-0.8734151,-1.4850656999999998
8.935725,-6.739629700000001,-1.0206003000000001,0.32267648,-0.5481729999999999,-1.4323568000000002
8.020796,-6.8376775,-1.2196924999999998,-0.071750484,-0.085573494,-1.3317386
7.391715,-7.045934700000001,-0.89161026,-0.47633526,0.35836846,-1.0714402
6.933723,-7.3005724,-0.30506918,-0.6573259,0.7171558000000001,-0.7232993000000001
6.4062614,-7.479371,0.23222798,-0.6158045,0.9694780000000001,-0.40657446
5.705967,-7.338361999999999,0.6709894000000001,-0.54925513,1.3426294,-0.14945254
5.194489,-7.067472500000001,0.8010041999999999,-0.6078109,1.4389889999999999,0.1662077
5.1030207,-6.854197500000001,0.75974727,-0.8281936,1.2388347,0.49357912
5.2032514,-6.5927696,0.5154238,-0.9064542,1.1254407,0.8986700000000001
5.5165854,-6.661425599999999,0.26900294,-0.6461383,1.1355636,1.4006616000000003
5.8952045,-7.240842,-0.13065638,-0.18886207,1.219671,1.7195333
5.450601,-8.275519000000001,-0.6901526,0.25240952,1.1744146,1.8488796000000003
4.8158407,-8.819099000000001,-0.7395689000000001,0.35302776,0.92317444,1.7903238999999997
4.547958400000001,-8.962876,-0.23678654,0.049584802000000004,0.64634776,1.7700955000000003
4.7870245,-9.3340435,-0.14593138,-0.3959454,0.66818184,1.8435563999999998
4.718445,-9.5239525,-0.96937394,-0.9096481,0.9668251,1.8739077000000002
4.762326,-9.702531,-2.3862338,-1.3078276000000002,1.2739681999999999,1.770619
5.709568,-10.607386,-3.3911949999999997,-1.5553502000000001,1.3820215,1.5859108999999998
5.5046144,-9.774453,-2.48431,-1.680979,1.3804332000000001,1.4187607
6.1301622,-9.361127999999999,-1.3289543,-1.7544398,1.3687221,1.3649871
7.089653,-8.820008999999999,-1.024661,-1.7922262,1.2984551000000002,1.4198253
7.930238,-8.103454,-2.0665407,-1.7427287,1.2702507,1.561965
8.092785000000001,-7.633040400000001,-3.7972230000000002,-1.6469101000000002,1.2287291999999999,1.6151975
7.3808064,-7.074904400000001,-4.5484567,-1.5255398999999998,1.2351172,1.6396843999999997
6.894639999999999,-6.4988017,-4.238119999999999,-1.3898057,1.1760203000000002,1.5433248
7.045695299999999,-5.8446774,-3.3159502,-1.1247076,0.8651421999999999,1.4235428999999997
7.231849,-5.3612304,-2.2847962,-0.83245224,0.47495645,1.4091789
7.325835700000001,-5.067194000000001,-1.3310899999999999,-0.6317743,0.19334757,1.4602821000000001
7.272541,-5.3742456,-0.902049,-0.4411843,0.043231804000000006,1.4634761
6.968764999999999,-5.9329567,-0.55982184,-0.23518312,-0.11325441,1.4203663999999998
6.704789599999999,-6.3936005,-0.14514609,0.044802602000000004,-0.13507102,1.2489576
6.8475220000000006,-6.219207,0.25954103,0.43872342,-0.20162043,0.8199033000000001
7.502691,-6.1266665,0.54900956,0.7293731,-0.22451915,0.32588790000000006
8.079195,-6.194882,0.36693537,0.88374746,-0.17713347,-0.15104079
8.682917,-5.736669999999999,0.36330575,0.88640034,-0.43903756,-0.5769186
8.740599000000001,-5.2463093,0.392017,0.8613898000000001,-0.8883201999999999,-0.85371035
8.971131,-5.3707975999999995,-0.0367079,0.9210277,-1.3961587,-1.0660994
9.868899,-5.8640323,-0.37229836,1.1429987,-1.9353956,-1.2316614
11.279209,-6.305992,-0.09484869,1.4049028000000001,-2.2888596000000003,-1.412652
12.612893,-7.105483,0.14887147,1.5411781,-2.371379,-1.6404873
13.776658,-6.869347599999999,0.79249996,1.5534128,-2.1222506,-1.6889377
14.383263000000001,-6.290841599999999,0.99964625,1.5118915000000002,-1.9593589,-1.3823183
13.883985500000001,-6.5836143,0.3073772,1.4645232,-1.9545593,-0.97668624
12.662195,-6.245141,-0.36594895,1.5837466999999998,-2.2995236,-0.68551296
11.367764999999999,-6.686909700000001,-0.84748995,1.7972178,-2.6689575,-0.53698546
10.262238499999999,-7.409738000000001,-0.73174465,1.8552326000000001,-2.8057562999999996,-0.6067113000000001
9.381708,-7.874022,0.0018770541,1.7833773999999998,-2.6540348999999996,-0.7972838000000001
8.675092999999999,-7.987775,0.89323837,1.6327381,-2.361797,-0.96816903
7.946346000000001,-8.270407,1.2229966,1.4176786,-2.0211086,-1.0826102
6.865575,-8.572411,0.89918554,1.0690142,-1.5393455,-1.1837521
4.5988690000000005,-8.581336,0.6226457,0.67401123,-1.0070200999999999,-1.2518897
2.6642675,-7.8563336999999995,0.29677567,0.27796113,-0.61044633,-1.2966225
2.5878541,-7.2124752999999995,0.49579129999999993,-0.08346164,-0.33044317,-1.3248096999999999
3.4266388,-7.0145035,1.1316338,-0.43373176,-0.13294172,-1.3093808999999998
5.051737,-7.112953,1.2054614,-0.7015001999999999,0.09274679400000001,-1.2018511
6.5270343,-7.40722,0.9025853000000001,-0.9447641999999999,0.30194196,-0.95804614
7.0337434000000005,-7.454012,0.60385597,-1.1161729,0.5090253,-0.64823276
6.763131,-7.062090400000001,0.5118229000000001,-1.1113906999999998,0.7810348000000001,-0.38419932
6.392911,-6.5943594,0.26699179999999995,-0.9176243000000001,0.93434453,-0.20587903
6.266268,-6.507651,-0.16633955,-0.73024577,1.1355636,-0.16648696
5.912461799999999,-6.3145924,-0.4327759,-0.8606742000000001,1.5678118,0.030979594
5.7645288,-6.5462837,-0.4675014,-0.91017175,1.7157983,0.6277251
5.7868333,-7.0466050000000005,-0.48408845,-0.16598082,1.244699,1.1664385
5.8976274,-7.7327065,-0.41095993,1.2505285,0.41852996,1.195184
5.699148,-8.655086500000001,-0.05772899,2.376929,-0.33789575,0.8151210999999999
5.428440599999999,-9.091627,0.1416697,2.4317498,-0.66048497,0.3610388
5.9577312000000004,-9.980718,0.57071066,1.635391,-0.6301336999999999,0.24605651
6.196519400000001,-9.5593195,0.94791234,0.3477045,-0.35758305,0.48027970000000003
6.7146053,-8.72177,0.6724834,-0.8351226,0.03790855,0.6287898000000001
7.7397738,-9.801115,-0.8453351,-1.6277289,0.45205772,0.50211376
6.436534,-10.286755,-2.4618235,-2.1185505,1.0088701,0.26254988
5.0360885,-9.369239,-1.7182707,-2.3463857000000004,1.1994426,0.06558947
6.0767617,-8.7406845,0.58199215,-2.2452438,1.2037013,0.085817836
8.310073,-8.597761,0.8799745000000001,-2.0323138,1.1664385,0.25137976
8.868122999999999,-8.076074,-2.1426287,-1.8523878,1.3628752,0.5159368
7.552366,-7.7720866,-6.2812457,-1.6900197,1.5023445,0.86088365
5.010212,-6.9191947,-7.9942779999999996,-1.4536673,1.4379243999999998,1.2292528
3.6563196000000002,-5.627514,-7.934145,-1.1065911,1.3075133999999997,1.5034091
4.424216700000001,-5.0128837,-5.9103937,-0.6977651999999999,1.2425697,1.7094103999999999
5.4507356,-4.864051,-3.80951,-0.22347195,1.1057533000000002,1.8691080000000002
6.1866650000000005,-5.285162000000001,-2.6920307,0.08899434,0.8380023999999999,1.9548211
5.5097,-6.130181299999999,-1.1218176000000002,0.15126769,0.5303183000000001,2.0756502
4.907874,-6.512583,-0.0978175,0.059184115,0.2817136,2.1762686
4.5345507000000005,-7.0031357000000005,0.11883859,-0.05206317,0.15502015,2.0916200000000003
4.2840023,-7.3433323,0.026336217000000002,-0.0893085,0.14543828,1.6769471999999999
3.8978370000000004,-6.8564954,0.04721366,-0.06536258,0.31845278,1.0126051
4.082631,-6.513253,0.5230852,-0.07920304,0.57396895,0.44354049999999995
4.833720700000001,-6.509394,0.8468004000000001,-0.21814871,0.57609826,-0.11164871
5.845663500000001,-7.1296835000000005,1.0311636,-0.2628466,0.114039816,-0.56306064
7.2293496,-7.952350599999999,0.37470216,-0.20854940000000002,-0.51940995,-0.7940899
8.488153,-9.261576,-0.9704560999999999,-0.06642723,-1.0458885,-0.82337654
8.946644000000001,-9.613744,-1.9561585,0.13583897,-1.4334215,-0.74405134
9.91822,-10.173796000000001,-2.2953978,0.37484437,-1.6820087,-0.650362
11.244369,-9.512499,-1.7516459,0.5947034999999999,-1.7458878,-0.58861226
12.829819,-8.940218,-1.3912993999999999,0.7730238,-1.7182069,-0.60086447
13.023278999999999,-8.292078,-1.1169046,0.8933468000000001,-1.7373705000000002,-0.7461806
11.75124,-6.898988,-1.4575038,1.0019236999999999,-1.8140254,-1.0395006
10.596383,-6.5756654999999995,-1.8947042,0.97691315,-1.790603,-1.1161555
9.364211,-7.039231,-1.5954578000000001,0.7480131999999999,-1.7059721,-1.1140088
8.02298,-7.3829036,-1.1221815,0.51646036,-1.5766083,-1.1534008
7.16326,-7.781480999999999,-0.4229501,0.3881612,-1.4046758,-1.2699888000000001
6.7744800000000005,-7.8681225999999995,0.26278758,0.38177332,-1.2199502,-1.387624
6.687647,-7.6157546,0.72667855,0.44299948,-1.1156144,-1.4328803999999997
6.5099683,-7.117310499999999,0.8790838,0.39029053,-0.80314815,-1.3796479
6.621538,-6.659357000000001,0.6891853,0.24443336,-0.50237554,-1.2343143
6.8734082999999995,-6.277367,0.403988,0.018727383,-0.46245990000000003,-1.0677052
6.898011,-6.068114,0.39622122,-0.19418533,-0.4230678,-0.97720987
6.085083999999999,-6.605573700000001,-0.38323507,-0.30223867,-0.2942276,-0.9841213
5.996852400000001,-7.13905,-0.7773398,-0.37676424,0.06825983,-0.9245009
6.180105,-6.872211500000001,-0.45848003,-0.52581537,0.52712435,-0.6168168
6.486802,-6.871119500000001,0.24537694,-0.7903898,1.1211995000000001,-0.15688765
6.015278299999999,-6.867298,1.1165982,-0.94689345,1.6428784,0.38020253
6.002187,-6.84667,0.8273020000000001,-1.0900803,1.8318452,0.6357187
5.278496700000001,-7.4896183,0.59074533,-0.8883201999999999,1.7701129,0.79436916
4.711396700000001,-7.2971725,0.25648606,-0.2058965,1.51245,0.97960097
4.5159335,-7.545978,-0.13478398,0.7591833,1.1430161,1.0940421999999999
5.048930599999999,-8.101222,0.04025132,1.4538767,0.7341901999999999,1.0115404000000001
5.4601207,-8.706036,0.29732153,1.4618703000000002,0.49677306,0.6948156
5.537836599999999,-10.170732000000001,-0.18673816,0.7485368,0.40788344,0.348263
4.095923399999999,-10.990842,-1.0129291999999999,-0.36557665,0.63200116,0.20242329
3.2108448,-10.310505000000001,-1.7588571,-1.2939696000000003,0.9391441999999999,0.16514306
4.105912,-10.282503,-2.144879,-1.6825671999999998,0.9902474,0.07145378
5.909512,-11.172667,-2.275229,-1.7097069999999999,0.88325876,-0.017418386
5.929202,-10.197536999999999,-0.8892544,-1.6255996000000001,0.72460836,-0.066392325
6.3505910000000005,-9.512317,-0.005161899,-1.5484211,0.5931327,-0.09622
7.044478999999999,-9.288459,-0.52884084,-1.4967768999999997,0.570234,-0.052028265
7.376009,-8.058806,-2.568107,-1.4467383999999999,0.553217,0.08742354
7.607576,-7.328144,-5.1538157,-1.4153398000000001,0.5686456999999999,0.29344222
6.9296336,-6.603610499999999,-6.9052796,-1.3269738000000002,0.7022681,0.60644954
5.7940062999999995,-6.1358504,-6.665878999999999,-1.0655934,0.8097804,0.9817302
5.5109925,-5.803832,-4.4945393,-0.66209066,0.92956233,1.3123131000000001
5.3208165,-5.595086599999999,-2.2109878,-0.28628635,0.86301297,1.4491119
5.1069565,-5.5309606,-0.8281735,-0.0046774824,0.5798158,1.4634935
4.9677196,-5.781096499999999,-0.27773696,0.23273966,0.24340361,1.4587113
5.104706299999999,-6.1741962,-0.09131485,0.44778168,-0.082362086,1.5012974
5.1233716,-6.687858,0.014240711999999999,0.55691713,-0.24792401,1.583799
5.168803700000001,-7.067099000000001,-0.08259996,0.5563935,-0.36397097,1.4571055
5.298627,-7.549397,-0.15146679,0.53030086,-0.27186993,1.0403035
5.221533999999999,-7.746861,0.14145902,0.4898441,-0.13772394,0.38926077
5.50019,-7.498811999999999,0.47097778,0.33121112,0.0033161256,-0.25216517
6.193455,-6.993405999999999,0.306295,0.08955284,0.05921902,-0.7110297
6.9402256,-6.0167823,-0.5300092,-0.094631754,-0.272411,-0.9431236
7.8556633,-6.091941,-1.5034534,-0.18352138,-0.6487563000000001,-0.9979618
8.79987,-6.8839045,-2.1415176,-0.12604767,-0.9671044,-1.0091493
9.441984,-7.449826700000001,-2.5602732000000006,0.102852255,-1.3434496999999999,-1.0187138
10.462719,-7.842734299999999,-2.876978,0.45631632,-1.7224654,-0.9787981
11.866507,-7.6048946,-2.9153237,0.8060454,-1.9481713999999999,-0.96122265
12.847296,-6.5463605000000005,-2.645612,1.1238523999999999,-2.0386667000000003,-1.0197783999999999
12.956969,-5.440411599999999,-2.6266692000000003,1.3814978999999998,-2.0626125,-1.1438190000000001
12.4430485,-6.0694833,-3.0924659,1.5034091,-2.0120504,-1.2747536
10.992258999999999,-6.674488,-2.988117,1.4592174,-1.8874863000000002,-1.3849536
9.511053,-7.2494226,-2.4380922000000003,1.2947202,-1.7437584,-1.4946127
8.574986,-7.646228,-1.5187283,1.0844604,-1.6319702,-1.563815
8.042736,-7.567458599999999,-0.38414487,0.8465021,-1.5047356,-1.5840433999999999
7.6800630000000005,-7.639256,0.58048856,0.67244047,-1.3833654,-1.5680736000000002
7.515849,-7.682486,1.2454829,0.55213493,-1.2343143,-1.5073885
7.7406554000000005,-7.6868243000000005,1.471553,0.48719120000000005,-1.0586468999999998,-1.4323218999999998
7.6952705,-7.268614299999999,1.5119863000000002,0.43607049999999997,-0.87713265,-1.3769776000000002
7.4128027,-6.6891603,1.2449753000000001,0.37699112,-0.74031633,-1.3567492
7.06617,-6.485509400000001,0.75580156,0.23965116,-0.5486791999999999,-1.3716542999999999
6.872096000000001,-6.551532,0.17622283,0.016615533999999998,-0.2809282,-1.4435095
6.7895827,-6.83875,-0.15923357,-0.29691540000000005,0.14119713,-1.4312747
6.521709400000001,-7.1326046000000005,-0.23155762,-0.5795715,0.66235244,-1.246008
6.2948637000000005,-7.289654700000001,-0.13737929,-0.76323247,1.2468283000000002,-0.8994728999999999
5.993759,-7.2894917,0.1504229,-1.0027615,1.6498073,-0.5656960999999999
5.731422,-7.147860499999999,0.46463794,-1.2519072,2.0777970000000003,-0.17551029999999998
5.6250334,-6.951967,0.646061,-1.4328978,2.2311068,0.21413444
5.6053432999999995,-6.682696000000001,0.65997607,-1.6191943000000002,2.1863914,0.6868394
5.7092514,-6.641151400000001,0.46746309999999996,-1.4855893999999998,1.9101058000000002,1.2718563
6.077441,-6.9842787,0.088642925,-0.7983485,1.354899,1.7781066000000003
6.528490000000001,-7.769481699999999,-0.38898116,0.07995354,0.79915136,1.9649615000000002
6.2903337,-8.624221,-0.7043550000000001,0.6271840999999999,0.31473523,1.7291325000000002
5.5216804,-8.837094,-0.82538664,0.5851390999999999,-0.008360127,1.3591752000000001
5.1606727,-9.098302,-1.3723468,-0.09089675,0.059760075,1.1228226000000001
5.219130000000001,-9.365045,-2.5358713,-1.0725049,0.39671335,0.93703234
4.8070207,-8.547272,-3.0973403,-1.9433892,0.8300261999999998,0.7831991
4.9951186,-8.570169,-3.8443027,-2.4730442000000004,1.1196113,0.57985073
4.7085137,-8.934633999999999,-4.1590443,-2.6763926,1.1632619,0.36105627
4.770313,-8.611483999999999,-2.9421866000000003,-2.6423411,1.141969,0.22797489999999998
6.270098,-8.73739,-1.6103497,-2.5220182,1.1424925,0.1587726
8.362458,-8.292662,-1.9320345,-2.3266635,1.1510272,0.2125462
9.487321000000001,-7.227683,-3.3306217000000005,-2.0594360000000003,1.1440983,0.43238786
8.952705,-6.600861999999999,-4.9676046,-1.7693101000000002,1.1499625,0.7262314999999999
8.052514,-6.2308335,-6.0358019999999994,-1.3961587,1.1366457,1.0424328
7.4932194,-6.0729213,-5.4616527999999995,-0.964434,1.0663787,1.255363
7.013086,-5.6301190000000005,-3.7955759,-0.57585394,0.8199033000000001,1.5039676000000002
6.874778,-5.578921,-1.965745,-0.29583332,0.4169417,1.7919644000000001
6.456386,-5.7277059999999995,-0.3078656,-0.16594589999999998,0.053895768,1.9851898000000001
6.130621400000001,-6.1858699999999995,0.64407855,-0.20746729,-0.11058406,1.9958363999999997
5.815008,-6.770802000000001,1.1976467,-0.36184165,-0.04988151,1.8388091
5.3209599999999995,-7.189759,1.6225888000000002,-0.43690827,0.18804178,1.6120385
4.800863,-7.241934,1.8413422,-0.30489156,0.51223665,1.2425872
4.617381,-7.068421000000001,1.9367272,-0.028605945,0.70174456,0.7187964
5.295361499999999,-6.723828299999999,1.8851657,0.2944894,0.7241022,0.17367771
6.012731,-6.3778086,1.2150861000000002,0.5393591,0.49040259999999997,-0.26120597
6.1461644,-5.775418,0.32631055,0.71076787,-0.057334065,-0.5656960999999999
7.233094,-6.049621,-0.68099713,0.8262912,-0.7152883000000001,-0.72113514
9.21058,-6.875342999999999,-1.6351153,0.9221098,-1.3524905,-0.7174176
10.924828999999999,-7.03857,-2.1767507,1.0195166,-1.8709755000000001,-0.69238955
12.312804,-6.814655,-1.997109,1.1387575,-2.241474,-0.7956607
13.164739,-6.763792,-1.1681118000000001,1.2830264999999998,-2.3841372000000005,-1.0123084
13.883985500000001,-6.166381400000001,-0.31978872,1.42089,-2.3639088,-1.2295146000000001
14.160362,-5.900625,-0.16086161,1.4996916,-2.271284,-1.4243283000000002
13.477382999999998,-5.9317207000000005,-0.5228362,1.5018208999999998,-2.1477847000000003,-1.5781791
11.893945,-5.719221,-1.1217985000000001,1.4198428,-2.0599422,-1.7070018
10.4181385,-5.8309636,-1.5734788999999998,1.3138839,-1.9843695,-1.8102729
8.952227,-5.734093700000001,-1.5641606000000001,1.1797553,-1.9220787,-1.8400831000000002
7.987717599999999,-5.6360660000000005,-1.3036523000000002,1.0147344,-1.7943206000000003,-1.7953678
8.281257,-6.151269,-0.8319658999999999,0.9029461,-1.658569,-1.6857088
9.221325,-6.711455,-0.35868016,0.81086254,-1.4892893999999999,-1.535052
9.618992,-6.8665899999999995,0.1377911,0.75122464,-1.3402383,-1.4211344
9.140152,-6.698622,0.34551203,0.6916216,-1.2311203000000002,-1.3466088
8.481785,-6.4282207,0.31895554,0.5883505,-1.115597,-1.3109517
7.8546863,-6.3526316,0.13139379,0.3956487,-0.9899681999999999,-1.2912469
7.529535000000001,-6.5314684000000005,-0.12526463,0.13959143,-0.7232819,-1.2875292999999999
7.306481,-6.881031,-0.13673764,-0.2835811,-0.25270623,-1.2571781000000002
6.8350053,-7.183409700000001,-0.14385322,-0.68282515,0.36637953,-1.0852457
6.4893594000000006,-7.3513675,0.031153352999999998,-0.8851088,1.1457038999999998,-0.8329235
5.9721255,-7.233812299999999,0.33161609999999997,-0.9782745,1.7089043000000002,-0.6545857
5.7147393,-6.926646000000001,0.5256997,-1.2066333,1.992625,-0.5199161
5.6850796,-6.7312884,0.6374035,-1.5111235,1.9958189,-0.30270990000000003
5.8532867,-6.6263843,0.53566915,-1.5058002000000001,1.6657771000000001,0.2833542
6.185554,-6.8578553,0.267327,-0.9740158999999999,1.1377103000000002,0.9572782
6.700000999999999,-7.6715965,-0.14539509,0.047507863,0.6346715,1.4278538
6.979404400000001,-8.5298605,-0.6133753000000001,0.94074994,0.35412732,1.5114377
6.4829807,-9.055685,-1.1869973,1.1196113,0.2263692,1.3586515
6.029232,-9.702867,-1.0636959,0.595262,0.20668189,1.2607037
5.835282299999999,-10.2016735,-0.97818464,-0.32616714,0.47975612,1.2766734
5.573951,-10.068327,-1.9193165,-1.2673185,0.93329734,1.3506753
5.4049773000000005,-10.335175,-3.478526,-1.9896753,1.4182545,1.4028432
4.15914,-9.771177,-3.921846,-2.397454,1.7408438000000002,1.3852678999999999
2.7775326000000002,-8.882124000000001,-2.6316872000000004,-2.5661924,1.7924706000000001,1.3607808000000001
3.1473696,-8.439877000000001,-0.8655231,-2.4969902000000004,1.6386372999999999,1.4406297
4.928646,-8.114649,0.09198523,-2.2739372,1.3320178,1.5907453999999999
6.6772943,-7.9255070000000005,-1.5565568,-1.9854342,0.9945235,1.7067923999999999
7.1661806,-7.8718095,-4.3244553,-1.7139307000000001,0.8289790000000001,1.8292272
6.531899500000001,-7.1864743,-5.9747496,-1.4541559,0.81300926,2.0182113999999998
5.8388834,-6.4051695,-6.102121,-1.1257198999999998,0.8912524,2.2188895
5.4350963,-5.9269996,-4.8287983,-0.78929025,0.99345887,2.3354774
5.5517325,-5.8079023,-3.2822397000000003,-0.53642696,0.8646360999999999,2.29715
5.929212000000001,-6.237001,-1.9115113999999997,-0.3687357,0.51968926,2.1640687
5.9640427,-6.692416000000001,-0.8224562,-0.22821926,0.12470377,1.9090761000000003
5.9001555,-6.992792999999999,0.11024819999999999,-0.11323696400000001,-0.23460716,1.4363711000000001
6.183140799999999,-7.208003,0.6504949999999999,-0.04829326,-0.23671901,0.7294429
6.828943300000001,-7.464192,0.7945781,0.074124135,0.21678734,-0.0056723203
7.228554700000001,-7.509844999999999,0.70138615,0.23116885,0.5047841,-0.48795915
7.3753576,-7.199757000000001,0.6566241999999999,0.37489673,0.43877578,-0.7115358
7.803105400000001,-6.4732413,0.6898845,0.5335297,-0.01633628,-0.86645126
8.832975999999999,-5.851735,0.15279795,0.64051837,-0.65566784,-0.9995152
10.300861,-5.57758,-0.8492042,0.7432659,-1.2422905,-1.1719886
11.700675,-5.6591744,-1.5053303,0.94074994,-1.630347,-1.3556496
13.260497,-5.6134553,-1.5758731000000001,1.2660094,-1.9896753,-1.5233408000000002
14.875645,-5.4680214000000005,-1.3948141,1.6482191000000002,-2.2611613,-1.643629
15.540515,-5.5916677,-0.7564528,1.9010650000000002,-2.3915722,-1.7905682
14.094818,-5.501425299999999,-0.1697872,1.9516447000000001,-2.379861,-1.9662355
12.505596,-6.3807197,-0.6000444,1.9170346999999999,-2.375079,-2.1328447
11.166049000000001,-6.6055546000000005,-1.1262038,1.7738653000000002,-2.3739967,-2.2563267000000002
10.157726,-6.2684894,-1.4275188,1.5332369,-2.3420749,-2.3313932
9.661811,-6.156958,-1.5293012,1.3181773,-2.2781956,-2.3532273999999997
9.419172999999999,-6.2064505,-0.9275136999999999,1.099924,-2.0759119999999998,-2.272855
9.339188,-6.48979,-0.04837245,0.9168040000000001,-1.8193138,-2.103017
9.343631,-7.20671,0.6066524,0.73528975,-1.5292051000000002,-1.8991451000000001
9.477265,-7.919138,0.73498166,0.5314004,-1.2215209999999999,-1.6931438
9.456379,-7.962703,0.16756539,0.34136894,-0.90373147,-1.5270583999999998
9.0434265,-7.763897999999999,-0.20135236,0.19710003,-0.6125408,-1.3694899999999999
8.322705000000001,-7.367130800000001,-0.40167043,0.076270886,-0.41292745,-1.2470552
7.7199116,-7.3162875,-0.5884373,-0.10363765,-0.24150121,-1.1874173000000001
7.2723684,-7.515121499999999,-0.5582704,-0.349572,-0.0035604715999999997,-1.0511595
6.846938000000001,-7.688490400000001,-0.26461676,-0.5396209,0.3131644,-0.69821894
6.217071,-7.797666,0.016721105,-0.6221226,0.57505107,-0.31335640000000003
5.695863200000001,-7.6098647,0.23992774,-0.68865454,1.0477735000000001,-0.07698647
5.3365703,-7.2266582999999995,0.26162878,-0.77438515,1.5603942,0.023055799999999998
5.207676,-6.996451400000001,0.22897188,-1.0549118999999998,1.7605485,0.18542378
5.0735817,-6.63123,0.3793373,-1.4365805,1.7126392,0.60809016
4.9874578000000005,-6.469296,0.4836862,-1.3482145,1.5226078,1.2362342
5.3092666,-6.9098005,0.27387753,-0.71794116,1.2851907,1.7392903999999998
5.7037830000000005,-7.941012,-0.24586536,0.04272566,1.1132408,1.9522032
5.4146886,-9.040984,-0.71708256,0.5612281,0.8385609,1.8457555
4.7204943,-9.408868,-0.5622639,0.514366,0.53993505,1.6546419999999997
4.9606233,-9.673312,-0.6743796,0.026755897,0.45582765,1.6083383999999998
5.5635505,-9.831453999999999,-1.2587466999999999,-0.6615147,0.76030034,1.6722
5.7721615,-10.04519,-2.4112964,-1.3519495000000001,1.1654087,1.6466657999999998
5.7005844,-10.832861999999999,-4.16254,-1.7740748,1.4076254,1.5322071000000002
4.563291,-10.449838,-4.1960206,-1.9971279,1.4874568000000001,1.3033072
4.2602425,-9.408428,-2.399718,-2.0215973999999997,1.3895263999999998,1.1303101999999998
5.4468760000000005,-8.93724,-1.0879348999999998,-1.9731646,1.2702855,1.1627733
6.7262699999999995,-7.9934254000000005,-1.3855821000000001,-1.825178,1.0536203000000002,1.3336584999999999
7.7232924,-7.551207000000001,-3.0919967,-1.6287413,0.8816879999999999,1.5274249
7.449683,-7.246625999999999,-4.9883766,-1.4301926,0.7831991,1.5838513
6.4884014,-6.787332000000001,-5.444482,-1.1661591999999998,0.71399677,1.5322071000000002
6.235191,-6.261929,-4.9436436,-0.8888089,0.71347314,1.5013497
6.4220533,-5.918208,-3.6140665999999997,-0.68865454,0.74754196,1.6088794
6.8081135999999995,-5.772574,-2.2468147000000003,-0.6359630999999999,0.69802696,1.7382256999999999
7.221937,-5.994535,-1.1856661,-0.61467004,0.5489759,1.8021048
6.9392295,-6.591419,-0.5074367000000001,-0.49595276,0.32433453,1.7185384
6.2274145999999995,-6.873197599999999,0.0031028856,-0.29366909999999996,0.07201228,1.4784509
6.0475330000000005,-7.009399,0.50210243,-0.11054915,-0.011536626000000001,1.0211747
6.705527,-7.0104619999999995,0.5322406,0.11194542,0.2641905,0.35311502
7.7843539999999996,-6.8979344,0.41750088,0.33552209999999993,0.40153044,-0.19090411
8.363062,-6.491159400000001,0.33125216,0.46275659999999996,0.24715607,-0.45387286
8.174283,-5.822008599999999,0.0078050974,0.613937,-0.35009559999999995,-0.68968433
7.9896617,-5.5121417,-0.76101136,0.7289193,-1.1043919,-0.88983864
8.897649000000001,-5.757864,-1.5164011999999998,0.83484334,-1.6260709,-1.1480078000000002
10.265532499999999,-6.178553599999999,-1.6847327,1.0099871,-1.8991625,-1.4471921
11.823996000000001,-6.0805445,-1.2748166,1.2447339,-2.0721595,-1.7825571
13.069775,-5.8152094000000005,-0.95471185,1.4938622,-2.188224,-2.1189868
14.314434,-5.679554,-0.71655583,1.6604713,-2.0897349999999997,-2.3537334999999997
13.948216,-4.497948,-0.2117049,1.7637599999999998,-1.9587830000000002,-2.4948083999999997
12.37583,-4.5113273000000005,-0.75988126,1.7477901999999998,-1.8826518,-2.6007326
11.852199,-6.046001,-1.4728553999999998,1.6099092,-1.8906453999999997,-2.7146502
11.7317705,-6.776031,-1.6778758000000003,1.3767506,-1.8783932,-2.7758762999999997
11.573025999999999,-7.164189,-1.5750973999999998,1.0871656,-1.7820509999999998,-2.7226264
11.428166000000001,-6.979404400000001,-0.6986568,0.82313216,-1.5648623,-2.5485647
11.009067,-6.838299799999999,0.24000435,0.60062015,-1.2800593,-2.2552621
10.824416000000001,-7.1027154999999995,0.71547365,0.49309042,-1.0772521000000002,-1.9539659
10.641432,-7.9088144,0.78440756,0.42921138,-0.90849626,-1.6771566999999998
9.78652,-8.1808815,0.56915915,0.39514256,-0.8377056999999999,-1.4887135
8.704483999999999,-7.739908,0.23138522,0.36746162,-0.8286648999999999,-1.3529618
7.9091015,-7.251874000000001,-0.26541162,0.3089058,-0.78021455,-1.3332745000000001
7.404222,-7.189625,-0.7162301999999999,0.08213519,-0.53693306,-1.3550911
6.9797397,-7.5328293,-0.9021448000000001,-0.27183503,-0.10255554,-1.1496135
6.400314,-7.9096,-0.8167005,-0.5124460999999999,0.4260174,-0.7024600999999999
5.809051999999999,-8.089299,-0.4856303,-0.60559434,0.8204792999999999,-0.19462167
5.243675,-7.7972636,-0.023376986000000002,-0.6694909000000001,1.174467,0.289777
5.0392485,-7.492721,0.3460196,-0.6854606,1.5779697,0.59479076
5.1496406,-7.225078,0.4613148,-0.7754149,1.5348600000000001,0.763023
5.310052400000001,-6.955050999999999,0.53295887,-1.0708468,1.2974428999999998,1.0233214
5.477378,-6.875812,0.59836847,-1.1916933,1.1446568000000001,1.5082786
5.862566999999999,-7.1451306,0.3557784,-0.75251615,1.0525732,2.0672202
5.511529,-8.037,-0.47746128,0.025708699999999998,0.9636661,2.4377188999999997
4.547853,-8.894325,-0.7528710999999999,0.8055741999999999,0.6911155,2.3876803
3.7330585,-8.971294,-0.39738002,1.2223938,0.31583479999999997,2.0389984
3.3562303,-8.592886,-0.39172012,1.0802541,0.13643239999999998,1.7121506000000002
4.0724797,-8.807089999999999,-0.8489169,0.45636868,0.26473153,1.6019678999999998
4.7494836,-8.049689,-1.4537209,-0.35700709999999997,0.6016848000000001,1.598774
5.6214805,-8.015107,-2.8904622000000004,-1.03786,0.9019163,1.5370243000000001
5.9216169999999995,-9.250478,-3.8085620000000002,-1.4663733,1.1196462,1.3618978000000002
6.071073,-9.403371,-2.4552633999999998,-1.6548165000000001,1.2229173,1.1005174
6.924491400000001,-9.53577,-0.7435911999999999,-1.6654456000000002,1.2314345,0.8434129000000001
8.3689995,-8.806592,-0.25742456,-1.643629,1.2181176,0.7321482
9.6242695,-7.5072399999999995,-1.1270944,-1.6558811999999998,1.305419,0.80454445
9.849362,-6.735416000000001,-3.0488242999999997,-1.5951959999999998,1.256445,0.9935111999999999
8.729374,-6.020038,-4.914013,-1.4237872,1.1042,1.2468982
7.3327217000000005,-5.460772,-5.615964,-1.1725297,1.1297516,1.4087425
6.694953999999999,-5.066102,-5.0886555,-0.8462054,1.1931071000000002,1.3831735
6.605334299999999,-4.792579,-3.4342620000000004,-0.5134933,1.0728015,1.3560336000000002
6.814692999999999,-4.589914299999999,-1.8735394,-0.23668409999999998,0.8332550999999999,1.3672211
7.1625705,-4.895281,-0.7753287,-0.09297369,0.45956263,1.4486582000000001
7.204171700000001,-5.758562599999999,-0.083078794,-0.07113962,0.043284167000000005,1.5290481000000002
6.920861200000001,-6.6374645,0.041228153,-0.064751714,-0.15046483,1.4241712
6.613273599999999,-7.6330789999999995,0.14862247,-0.010454521999999999,-0.091909036,1.0717716999999998
6.405648,-7.8826504,0.47593856,0.07628834,0.018797196000000002,0.51389474
6.468252,-7.785589,0.8481699,0.23598596,0.17636552,-0.14030702
7.49072,-6.8285313,0.9641354,0.45319220000000005,-0.13449506,-0.80677843
8.197345,-6.2539324999999995,0.72124845,0.5447522,-0.66308546,-1.1474666999999998
8.709732,-6.1062007000000005,0.023386562000000003,0.59105575,-1.1831762,-1.2970414
9.427352,-6.580837,-0.9564453000000002,0.730525,-1.59839,-1.35455
10.082147,-7.0199428,-1.9515330000000002,1.016916,-1.9635652,-1.2997118
11.31586,-7.119762400000001,-2.2387414,1.2873374,-2.2781607999999998,-1.195376
12.602829,-6.8098087,-1.7178972,1.4906857,-2.445852,-1.1400142
13.763491,-6.2650223,-1.208526,1.6030151000000001,-2.5400647999999997,-1.2081518
14.405356,-6.5165477,-0.9836243,1.6557066000000003,-2.5906446,-1.3263280000000002
14.086514999999999,-6.238446700000001,-0.79199237,1.63389,-2.5927740000000004,-1.4455688999999998
12.014507,-5.93083,-0.98659307,1.5487178999999998,-2.586386,-1.5568336999999999
9.911296,-6.154324,-1.2514397,1.4129663000000001,-2.5805216,-1.6207128
8.686719,-6.4545183,-0.9070289,1.228258,-2.4516988,-1.5770620000000002
8.076562,-6.9413176,-0.17133865,1.0254333,-2.216952,-1.4892197
7.745597,-7.7007675,0.44158655,0.84604836,-1.9656945,-1.3715844
7.749140299999999,-7.890857700000001,0.56183296,0.68207467,-1.718172,-1.2672486
7.923667999999999,-7.595825,0.52394706,0.4851317,-1.4567914,-1.2246627
7.66361,-6.8926387,0.5031462999999999,0.24558528,-1.16773,-1.2784188
7.1962137,-6.332404599999999,0.48073655,-0.09827949,-0.811613,-1.5238295
6.958335400000001,-6.2023425,0.3645603,-0.7136650999999999,-0.27183503,-1.8017033
6.739678,-6.437807,0.24833618,-1.3716019,0.4121944,-1.8890046999999999
6.4044989999999995,-6.667153,0.11419385,-1.6271181000000001,0.98869413,-1.6254950000000001
6.242316000000001,-6.9521394,0.16235560000000002,-1.5653683,1.4449058000000001,-1.2305095
6.1371720000000005,-7.216823,0.26478913,-1.429093,1.8968413,-0.9116553
6.084174,-7.191511599999999,0.42931867,-1.3540438,2.0757027,-0.4437325
6.191616000000001,-7.0682964,0.488647,-1.36202,1.7717535,0.22591542
6.525713,-6.9943729999999995,0.37776673,-1.2720658,1.5236899,0.8119970000000001
6.994306,-6.997763000000001,0.28840554,-0.86376345,1.3198005,1.3182472
7.6008053,-7.4051795,-0.19642988,-0.30269244,1.2186587,1.6882220000000001
7.017500999999999,-8.392941,-1.2318742,0.27272514,1.2655033000000002,1.8010751
5.800624,-9.720085000000001,-1.1277553,0.7422361999999999,1.2085531999999999,1.68714
4.322597,-10.273088000000001,-0.08133582,0.8316843,1.0078578,1.5120311000000002
3.907567,-10.479785000000001,0.2716557,0.5037543999999999,0.8375136999999999,1.4481344999999999
3.4315995999999998,-10.488682,-0.39728424,-0.108926,0.84018403,1.4784858
2.3432627,-10.040774,-1.274989,-0.8951619000000001,1.0637608,1.5189426000000001
2.869221,-10.964132000000001,-1.9964386000000003,-1.6212713,1.4017786,1.4454817
4.4290814,-11.101799,-1.4964718000000001,-2.2158700000000002,1.8233804,1.2729908
5.499941000000001,-9.984098,-0.60056156,-2.6305602,1.8622488999999998,1.0478258
6.5798216,-9.12074,-0.36887947,-2.618849,1.5529591,1.0196038
7.558974,-8.1558,-0.76319486,-2.392602,1.2170705,1.0818946000000003
8.11867,-7.581862400000001,-2.4867997,-2.0269032,0.8481601999999999,1.1942241000000002
7.620246000000001,-6.855844,-4.4424987,-1.6510813999999998,0.6272539,1.3863848
6.719384700000001,-6.0302854,-5.732131,-1.2997292,0.59370863,1.5051021999999998
6.0723853,-5.2123113,-6.047016,-0.9601056,0.5356939000000001,1.4853973
6.1197996,-4.812259,-5.3675513,-0.6502922,0.5191831,1.4672983
6.668263400000001,-4.763073,-4.230286,-0.42406264,0.5223770000000001,1.5008435
7.201241499999999,-4.888175,-3.3221269999999996,-0.30908036,0.4542394,1.5428885
7.018553999999999,-6.028571,-2.1451377999999997,-0.24787165,0.28176597,1.4167186
6.659846000000001,-6.7962193,-0.25615084,-0.1690875,0.18755308,1.0776361
7.090744,-7.6143274000000005,0.31485668,-0.017366026,0.31744048,0.47452012
7.0027623,-7.609884,0.87504244,0.12899728,0.38823104,-0.114214346
7.038436,-7.0856012999999995,1.0733302,0.286042,0.33660419999999996,-0.45490262
7.7345934000000005,-6.346128500000001,0.83859307,0.49631926,-0.01844813,-0.6534687
8.468952,-5.823857299999999,0.5838021,0.7193549,-0.66149724,-0.79878485
9.249241,-6.0133343,-0.061684214,0.9200503000000001,-1.287512,-0.98722804
10.105035,-6.50021,-0.8714703000000001,1.1180754,-1.7745810000000002,-1.1730183
11.143285,-6.476967,-1.4305834,1.3645333,-2.1541376,-1.3731726
12.601564,-6.452728,-1.4424586000000001,1.6269784999999999,-2.403266,-1.5770446000000002
13.916554999999999,-6.1849127,-1.1661295,1.838844,-2.505996,-1.7575116000000002
14.074391,-5.000271,-0.7251271,1.9490266,-2.505996,-1.8948342
12.936838999999999,-4.965287,-0.8677162,1.9128284,-2.448505,-2.0098338
11.589190499999999,-5.8875527000000005,-0.9388718,1.7515425999999998,-2.3404517000000005,-2.102982
10.520572999999999,-6.1144753,-0.8367639000000001,1.4624986999999998,-2.1791482,-2.1508912999999996
10.077846000000001,-6.371009,-0.86277455,1.0584375,-1.933214,-2.1008527000000004
9.86075,-6.408215,-0.6767834,0.6602755,-1.5994546,-1.9704418000000001
9.516014,-6.431515,-0.14698483,0.39891246,-1.2789773000000002,-1.7904984
9.553631,-6.775657700000001,0.32077515,0.22748621,-0.9564055,-1.5680038
9.508562,-7.350822,0.52318096,0.11517428,-0.7093891,-1.3550562
9.007839,-7.4200716,0.47071922,0.04384267,-0.5651376,-1.1724771999999999
8.323806,-7.2818785,0.14595053,0.03478441,-0.54490924,-1.0500424
7.706035000000001,-6.899151,-0.30990547,0.04490732,-0.55342644,-0.9611354
7.314410700000001,-6.811485,-0.68813187,0.01829105,-0.5651376,-0.9744521999999999
6.918563000000001,-7.011812700000001,-1.0076908000000002,-0.22710223,-0.3681772,-1.0558892
6.5308175,-7.337653599999999,-1.1861545,-0.5145405,0.02146755,-0.9707171999999998
6.2178664,-7.568033,-0.8482944,-0.644969,0.61128414,-0.6784793
5.8369393,-7.460859299999999,-0.23790702,-0.6481629,1.2607211,-0.31862729999999995
5.5450478,-7.1945662,0.1782531,-0.69022536,1.7706889,0.031625368
5.479638,-7.028485300000001,0.33153948,-0.800408,1.8500140999999999,0.41437608
5.482616999999999,-6.7784257,0.49622226,-1.0484717,1.5513709,0.8253313
5.6346674000000005,-6.67468,0.6139882,-1.1277968999999999,1.2969191999999998,1.2336161
5.9991994,-6.790023,0.59427917,-0.76900953,1.0451206,1.6126319
6.389655,-7.2349133000000005,0.18356824,-0.1829105,0.8838347,1.832491
6.3578887,-7.962167,-0.56598926,0.4420221,0.70603806,1.7654179
5.6441965,-8.841203,-0.5732294,0.7065791,0.45956263,1.5407766
4.989143,-9.064534,-0.31530678,0.44469243,0.31798154,1.3965251
4.806494,-9.579096,-0.8857301,-0.13393657,0.37067303,1.3810791
4.125401,-8.983926,-1.8825224999999999,-0.7849793,0.6331182,1.3821437
3.8982966,-8.819445,-3.134537,-1.3343391000000002,1.0100046,1.3374283000000002
5.0996404,-9.919685000000001,-3.9499636,-1.7144195,1.2729733,1.1873126
5.785406,-9.609836999999999,-2.9484212000000003,-1.8874165,1.3144773,1.0169685
6.598314299999999,-9.0687,-1.4181431999999998,-1.9241381999999998,1.1909952,0.94670147
7.649532000000001,-8.371575,-0.75884706,-1.8874165,1.0179806999999998,0.9946108
8.368827,-7.2628202,-1.1735516000000001,-1.7373008,0.8300786,1.1053344999999999
8.201759,-6.8038235,-2.9423783,-1.5036011999999999,0.78536326,1.310271
7.353513,-6.5437555,-4.4342337,-1.2353265,0.96368355,1.5333241000000002
6.820822200000001,-6.301711599999999,-4.7270737,-0.92923075,1.0621724,1.7212261999999998
6.657729,-5.915746700000001,-3.9869108,-0.61941737,1.002011,1.8170449
6.5858645000000005,-5.3783064000000005,-2.8385177,-0.41659263,0.7193549,1.7340195
6.7746716000000005,-5.093539700000001,-1.8217098000000003,-0.27392942,0.25782004,1.5253305
6.7034197,-5.5196309999999995,-0.8873103000000001,-0.23240805,-0.13660692,1.3017713
6.404824700000001,-6.149574299999999,-0.38377140000000004,-0.2414663,-0.38308233,1.0180331
6.485432599999999,-6.907655,0.06314947,-0.21326178,-0.32292083,0.6517932
6.689275,-7.352613000000001,0.5574851,-0.033859387000000005,0.03317871,0.17856464
7.008325999999999,-7.554444,0.77910197,0.21099286,0.22588049999999998,-0.22652629
7.234884700000001,-6.8653827000000005,0.7243225999999999,0.5692566,-0.03174754,-0.62097067
7.4473270000000005,-5.589311599999999,0.45026314,0.8386133,-0.6369928,-0.90312064
8.221296,-4.6579194,-0.2838374,0.98340577,-1.3135872,-1.1128393
9.892352,-4.5943966,-1.2420161,1.1069052,-1.8166259999999999,-1.2597786
11.348057,-4.963917299999999,-1.9673539,1.3778502000000001,-2.2249284,-1.3965776
12.341439,-5.210281,-2.0930877,1.7063037,-2.5720046,-1.5232709999999998
13.231392999999999,-5.5797349999999994,-1.6493176,2.0315459,-2.871695,-1.6808393
13.842929999999999,-5.6848790000000005,-0.693945,2.1827261,-2.9494145,-1.8011448
13.42631,-5.405686,0.1294497,2.1816616,-2.8530722,-1.8549185000000001
13.184207999999998,-6.360954,-0.004520253,2.0938365,-2.7599065,-1.8735411
12.811106,-7.0913,-0.49080175,1.9277511000000003,-2.6752756,-1.9310323
11.751508,-7.2553982999999995,-1.0535444999999999,1.6759698,-2.5570993,-2.0002346
10.506418,-7.071820699999999,-1.1851299,1.3592275,-2.389949,-2.0369563000000004
9.532859,-6.6675167,-0.40925524,1.0504788,-2.0998229999999998,-1.9736183
9.079589,-6.6580257,0.501681,0.80082685,-1.8608177,-1.8410605
9.167733,-7.3274064,0.90426123,0.63526493,-1.6542754000000002,-1.6765807000000001
9.308608,-8.035554,0.81743795,0.49686033,-1.4775433999999998,-1.5392407
8.743721,-8.077270500000001,0.42553583,0.38507199999999997,-1.231609,-1.427976
7.831165299999999,-7.5502199999999995,0.13874878,0.24134412,-0.98354536,-1.3630323
7.1254315,-6.860633,0.041908108,-0.006178465699999999,-0.649245,-1.3784785
6.9766655,-6.649991,-0.17970878,-0.3867824,-0.12969542,-1.3715495
6.875687599999999,-6.7402234,-0.3498599,-0.81103706,0.3797313,-1.3050176000000002
6.641448,-7.006488,-0.36361220000000005,-1.1485488000000001,0.8556302,-1.1080571000000001
6.2558284,-7.249365299999999,-0.15048036,-1.3124876,1.4124426,-0.9068381999999999
5.958919,-7.3354793,0.19971472,-1.2571257,2.0400455,-0.6672916999999999
5.85548,-7.340928599999999,0.47222278,-1.0729412,2.3232427,-0.27656487
5.9122705,-7.181034599999999,0.6121781999999999,-0.8876919,2.0821080000000003,0.20570451
5.949256,-6.973505,0.76320446,-0.7152185000000001,1.5338128,0.55225706
6.3822904000000005,-7.2408032,0.41322964,-0.5736199000000001,0.9461255,0.93181384
7.1237364,-8.348706,-0.12811852,-0.34313172,0.75129443,1.3235879
7.022759,-9.296389,-0.6992505999999999,-0.018936822,0.86468846,1.5711278999999998
6.110932,-9.105945,-0.84187794,0.26104888,0.914186,1.5610225
5.578653,-9.444561,-0.5917509,0.31534609999999996,0.75342375,1.3869433
5.308376,-9.694526,-0.193327,0.1332908,0.59852576,1.2847369
4.0883102,-8.848107,-0.09767385,-0.30213395,0.6144955,1.2985773
2.9186661,-8.3070755,-0.8773408000000001,-0.8616166999999999,0.7305425,1.3539392
3.9036120000000003,-8.7039,-2.1529813,-1.3801017,0.7954687,1.3592625
5.1390867,-8.7485285,-3.1362605,-1.7042791000000002,0.8332725000000001,1.2788726000000001
5.62058,-8.291293,-3.2074547000000004,-1.8937868999999998,0.8763822,1.1878536
6.4495583,-8.031723,-2.372788,-1.91508,0.91844463,1.22564
7.338572999999999,-7.352574300000001,-2.0616088,-1.7905157999999999,0.9780651,1.3805553999999998
8.10602,-6.5632152999999995,-2.8775432,-1.5674801999999999,1.0563257,1.4843676000000001
8.049842,-6.0982709999999996,-4.1157956,-1.2422206,1.0456790999999999,1.5141778000000001
7.3555717000000005,-5.8018403,-5.1106153,-0.9042027,0.9125803,1.5125722
6.576460400000001,-5.2371345,-5.548965,-0.5571090999999999,0.69434434,1.4971434
6.147659,-4.665131,-5.0263395,-0.24890140000000002,0.38453093,1.4572103
6.4002852,-4.5605235,-3.830742,-0.06525786,0.22483331,1.3869433
6.954763400000001,-5.033158,-2.7137987999999997,-0.017872171,0.09920452,1.2501445
7.172175999999999,-5.757423,-1.6966462,-0.08494517,-0.04769985,0.9951518
7.039240400000001,-6.3508306,-0.8811428,-0.17011724,-0.050893802,0.6677804
7.3679547,-6.9556154999999995,-0.23632686,-0.12859586,0.14657275,0.29941124
7.851449000000001,-6.719815299999999,0.2999839,-0.015219271000000001,0.25249678,-0.026371923999999998
8.088629,-6.017357,0.36620749999999996,0.0816465,0.3062704,-0.2462136
8.145313,-5.5040207,0.059548582999999995,0.24666739,0.24239133,-0.43785074
8.550508,-5.113468599999999,-0.22554338,0.4409749,-0.10786135,-0.6092420999999999
9.4114065,-5.4628115,-0.8083878000000001,0.63739425,-0.56033796,-0.78492695
10.212027,-5.755296700000001,-1.4112383,0.84447753,-0.9239075000000001,-0.9371719999999999
10.934635,-5.4399805,-1.854903,1.0313325,-1.1991285,-1.0085036
11.937097,-5.712632,-2.0056705000000004,1.1963358999999998,-1.4525153999999998,-1.0319259
12.704811999999999,-6.428604,-1.5884475,1.3635036,-1.7479471999999998,-1.0420314
12.615135,-6.22163,-0.86332995,1.4209948000000001,-1.7857511000000001,-1.0074389000000001
12.006031,-6.3119106,-0.8778771000000001,1.4119363999999999,-1.6680984,-1.0979341999999999
11.380647,-6.629094,-1.0461129,1.3587038999999999,-1.5179826,-1.1905589
10.554762,-6.102820400000001,-1.0428472,1.2352045,-1.3391213,-1.2480501
9.9521885,-6.1830163,-1.0683694,1.102123,-1.1591953000000002,-1.3060646999999999
9.369756,-6.2098026,-0.9001241,1.0148216,-1.0122735999999999,-1.3167113000000001
8.503946000000001,-5.903479,-0.51046294,0.93071425,-0.8978323,-1.2821189
7.7165213,-5.915469,-0.27077463,0.8450186,-0.8137249,-1.1815007
7.4086084,-6.4065199999999995,-0.20119913,0.7470707,-0.715777,-1.0079626
7.331314,-6.8559017,-0.10756669999999999,0.66774553,-0.65242153,-0.83655375
7.5816803,-6.797024,-0.01070687,0.590026,-0.6050533,-0.7173129
7.778914500000001,-6.683308599999999,-0.037636854,0.41168827,-0.5385039,-0.6976256
7.368874000000001,-6.456798,-0.14803828,-0.0045553090000000004,-0.26808256,-0.75564027
6.948529,-6.288572,-0.22000799,-0.38676497,0.12740904,-0.6507809
6.6967545,-6.2335343,-0.06962338,-0.6039536999999999,0.38292524,-0.263248
6.312227,-6.394175499999999,-0.030731974,-0.634305,0.45160395,0.21210986
5.9561324,-6.4532833,-0.05661808,-0.7758861,0.54583424,0.39577085
5.658744,-6.6724777,-0.15544115,-1.0926459,0.7821693000000001,0.36700782
5.38703,-6.759262,-0.19474436,-1.463668,1.0137396,0.57035613
5.3076386,-6.498859400000001,-0.19760783,-1.6366651,1.2154996,0.92542595
5.420999500000001,-6.128103299999999,-0.2960095,-1.460474,1.3272705,1.1383561000000002
5.7967935,-6.255205999999999,-0.73894644,-1.0191675,1.0925236999999999,1.2198106000000002
6.009561,-7.185746000000001,-1.4474002000000001,-0.50335294,0.7507708000000001,1.2155346000000002
5.516948999999999,-8.637944000000001,-1.4105104,-0.06471681,0.3962421,1.0324146
4.581055999999999,-8.95443,-1.1442656999999998,0.15193091,-0.009896017,0.6943967
4.961629,-8.698346,-1.249371,0.092310466,-0.22710223,0.37713075
7.216507000000001,-9.409855,-2.3776722,-0.065240405,-0.21378538,0.20146336
7.650499000000001,-9.418579,-3.2787156000000004,-0.23664919,0.067788586,0.14981906
6.518271400000001,-8.904983999999999,-3.2736783,-0.4224395,0.48993137,0.11416198
6.7022614,-8.880966,-2.4302297000000004,-0.56243235,0.7071201,0.10937978
7.242508,-7.976379,-1.4179899,-0.6630505999999999,0.7688699000000001,0.17325884
7.5527105,-6.919894,-1.0221804,-0.7146774,0.7300014,0.2568252
8.421126,-6.665227400000001,-1.1305038,-0.6912550999999999,0.5601983,0.35477307
9.297327000000001,-6.279369,-1.6036458999999998,-0.60821235,0.43296382,0.48359582
9.642331,-6.02588,-2.4143226,-0.48045424,0.33501595,0.5820848000000001
9.267218,-6.247028,-2.8684645,-0.33831462,0.29777062,0.6209358
8.328939,-6.2849236,-2.5279992,-0.20683897,0.39995965,0.6315823
7.4139232999999995,-6.0278053,-2.2396417,-0.063111104,0.5633923000000001,0.586867
6.502987,-5.193741999999999,-1.8847346999999999,0.09763372,0.6533640000000001,0.49104840000000005
5.5631957000000005,-4.56489,-1.6867534,0.20463985,0.65069366,0.43729225
5.1605099999999995,-4.414850700000001,-1.6528706999999998,0.16203637,0.5223945,0.46816713
5.25171,-4.6599015999999995,-1.5493071000000003,-0.053529248,0.42764056,0.5235115
5.478125,-4.9404639999999995,-1.2791933000000002,-0.34524357,0.3941128,0.53044045
5.97767,-5.3810163,-0.9902322,-0.6449515,0.5133537,0.45697954
6.6517625,-5.498370599999999,-0.76662344,-0.83445936,0.9035395,0.26534240000000003
7.2507152999999995,-5.5594897,-0.8209716999999999,-0.83924156,1.1175518,0.03324852
7.6586110000000005,-5.5452775999999995,-0.9303101999999999,-0.68966687,1.1207283000000001,-0.19137534
7.9577327,-5.1191864,-1.1377343,-0.3606723,0.8620356,-0.32817426
8.029128,-4.926501,-1.8002194,0.08592256,0.022549653,-0.41228166
7.7376190000000005,-4.8607945,-2.6001317999999998,0.5139122,-0.8956854999999999,-0.3308446
7.728751700000001,-5.1010766,-3.4857278,0.8982511999999999,-1.5712152,-0.18126989999999998
8.459702,-5.7352433,-3.938682,1.1633492,-1.8235375,-0.10726794
9.776425,-6.684487,-3.7448473,1.2852603999999999,-1.8325957,-0.1296256
11.222677000000001,-7.9059987000000005,-3.108124,1.2086056,-1.5946375,-0.19350465
11.477716000000001,-7.665984599999999,-2.1185045,1.0451728999999998,-1.3332745000000001,-0.3164631
11.378232,-7.389263000000001,-1.5899702,0.88386965,-1.1506782,-0.42559853
10.82907,-7.742858,-1.2062563,0.76462877,-1.0090796,-0.5341929
9.810787,-7.5162416,-1.1819503,0.6587046999999999,-0.9239075000000001,-0.6379876999999999
8.671014,-7.5597496,-1.2734472,0.5612979,-0.80573124,-0.66141
7.2849526,-7.201911999999999,-0.8787199,0.5075242999999999,-0.6641326999999999,-0.5661324000000001
6.7248054,-6.4599676,-0.40863279,0.57512087,-0.63592815,-0.3872711
7.132346000000001,-6.1439047,-0.12018893,0.685321,-0.68490213,-0.21053907
7.634189999999999,-6.1802773,-0.37332308,0.75984657,-0.6960722,-0.18018779
7.864339999999999,-6.1009910000000005,-0.72944623,0.80510294,-0.75569266,-0.1865757
7.746823,-5.802558400000001,-0.82461095,0.76571083,-0.8408646999999999,-0.21903881
7.2543545,-5.4905267,-0.656787,0.5719444,-0.76899207,-0.22703242
6.904878,-5.3042483,-0.4309946,0.27649507,-0.54595643,-0.20095721
6.631891,-5.591399,-0.29149884,-0.035430185,-0.29682815,-0.19189896
6.016964,-6.017491000000001,-0.14209108,-0.39102358,0.08588765599999999,-0.19776326
5.5212684,-6.25354,0.04540364,-0.6869965,0.46650904,-0.16634732
5.212091,-6.4765744000000005,0.341145,-0.88502157,0.8588415999999999,-0.08756317
5.7977123,-6.863353,0.17684533,-0.9206960999999999,1.1611850000000001,-0.044453535
6.144728,-6.826778999999999,-0.012306198,-0.7545930999999999,1.2128294,0.11948524
6.181398000000001,-6.6596923,-0.21824585,-0.58798397,1.1808896999999998,0.26427776
6.1001863,-6.6468496,-0.600619,-0.30904546,1.0510024,0.3691546
6.033149,-6.9324202999999995,-1.095625,-0.014678219,0.7779107,0.42877504
6.3276069999999995,-7.573415799999999,-1.2901011999999998,0.33185690000000007,0.48354346,0.37128390000000006
6.935590299999999,-8.185307,-1.1635725000000001,0.5032657,0.40955895,0.22488567
7.2787942999999995,-8.8258705,-1.1326201999999999,0.39467129999999995,0.52293557,0.0029146996999999996
7.105885000000001,-9.041358,-0.8495011,0.05984734,0.7294778000000001,-0.20308651
7.122319,-9.516847,-0.54023725,-0.33194417,0.8268846,-0.36704275
6.8012757,-8.699448,-0.23222798,-0.5948955,0.81784385,-0.53791046
6.700517999999999,-8.683138,-0.52536446,-0.84617054,0.84126616,-0.6332055
6.9576649999999995,-8.300966,-0.8904132,-1.0936931,0.83061963,-0.57995546
6.9532022,-7.359795599999999,-1.0154862,-1.3215284,0.82901394,-0.28932324
7.357228299999999,-7.159754799999999,-1.2443241000000003,-1.3981832,0.73267174,0.070511304
8.008528,-6.9262915,-1.5541242,-1.2022876,0.53358203,0.34679693
8.386822,-6.627802,-2.4862444,-0.79292053,0.20673425,0.5033006
8.218604,-6.056315000000001,-3.4412532,-0.30639255,-0.010978121,0.66245717
7.532857400000001,-5.665495,-3.856178,0.04972443,0.011379546499999999,0.8413185
6.8283496,-5.561232599999999,-3.5794945,0.3148225,0.17851228,0.9398074000000001
6.0872197,-5.4687395,-3.0266252000000002,0.40264747,0.35685003,0.9791995000000001
5.053039,-5.3670154000000005,-2.7403457,0.34835026,0.45479790000000003,0.99623394
3.9188294000000004,-5.5663943,-2.2984335,0.19238764,0.48247883,0.9057386000000001
3.3222803999999995,-6.0017657,-1.7906331000000002,-0.14295992,0.5096187,0.6981316999999999
3.7427692,-6.1850944000000005,-0.7238821,-0.6497337,0.5468989000000001,0.37234855
4.983406,-6.3816489999999995,0.24642082,-1.1735419,0.9179209999999999,0.04017748
6.0728444999999995,-6.483738,0.8237585999999999,-1.3896661,1.1052996000000002,-0.1881814
6.509652,-6.3245325,0.89557505,-1.1942939,0.8604299000000001,-0.24087289
6.963478,-6.182882299999999,0.2738392,-0.74607587,0.43456954,-0.22544418
7.487789,-5.568836,-0.44988966,-0.15041247,-0.34634313,-0.24141394
7.7524733999999995,-5.163221,-1.6671785,0.46122070000000004,-1.2560786,-0.22064452
8.428728999999999,-5.294355400000001,-2.5704916,0.92806137,-1.8123499,-0.17114699
9.7789545,-5.466288,-3.6201575,1.1963534,-2.0082457,-0.18444639999999998
11.088851,-5.732973599999999,-4.4852685999999995,1.2607735,-2.0939589,-0.24832545
12.389055,-6.9093213,-4.8820643,1.1654785,-2.0620192999999998,-0.29197612
12.715548,-8.039183999999999,-4.4511943,0.98342323,-1.8608003,-0.35266122
11.753749000000001,-8.066449,-2.9177754,0.8210726999999999,-1.5749327,-0.42186353
10.927242,-8.494983,-1.4402462999999999,0.6911853,-1.298141,-0.48574257
10.3758,-8.327599000000001,-0.6808727,0.6033429,-1.1096978000000002,-0.549098
9.641584,-7.911687400000001,0.01226789,0.53361696,-0.9563706,-0.591143
8.523425,-7.115108,0.49076346,0.44683918,-0.97979295,-0.502777
8.037191,-6.183505,0.58846605,0.3792426,-1.0138618000000001,-0.41228166
8.065922,-6.1110373,0.20994276,0.43779838,-1.0303726,-0.32178634
8.0143795,-6.207571499999999,-0.26513392,0.62624156,-0.9478534,-0.26003662
7.990677000000001,-6.429293599999999,-0.47535437,0.8279841999999998,-0.90580845,-0.32656854
7.6525292,-6.1751059999999995,-0.29703423,0.7971093,-0.8594874,-0.5677207
7.0863104,-5.658437,0.041879375,0.46600290000000005,-0.65774477,-0.9520596
6.467141000000001,-5.1277669999999995,0.26137978,-0.005078908,-0.32025045,-1.3539741000000003
6.2512608,-5.082363,0.32150298,-0.46926668,-0.023736477000000002,-1.572751
5.657422,-4.9752183,0.27776572,-0.9845577,0.008185594000000001,-1.627572
5.4870790000000005,-5.459249,-0.035166036,-1.618025,0.5256059000000001,-1.6898627
5.873225700000001,-5.583278,0.09864111,-1.8703471,1.1931419,-1.4274175
6.1374497,-5.4592204,0.5656541,-1.8171146,1.8479023,-0.97281164
6.680703599999999,-5.261632,0.7951144,-1.4711031,2.2673748,-0.47031388
7.390268300000001,-4.7404523,0.36214694,-0.9968099,2.1390755,0.051888637
8.3022585,-4.6647096,-0.9291226,-0.62789965,1.7217324,0.5975135
8.857167,-5.227155000000001,-2.0094247,-0.42296308,1.1329805,1.1873475
8.480502,-5.945176,-2.2595134,-0.15732397,0.31000537,1.5727336
7.6259155,-7.144183,-2.2055001,0.08859291,-0.18823376,1.5562403
8.242739,-9.766686,-2.6125147,0.14608406,-0.23507840000000002,1.3012651000000002
7.6865177,-11.223596,-2.0875331999999998,-0.09717993400000001,-0.045570545,0.99462825
5.5693154,-10.42873,-0.56959975,-0.5948955,0.42711696,0.73167694
4.48569,-10.3796015,-0.009634268,-1.0244908000000001,0.9243089,0.5554685
3.9235315,-9.271068,0.023549369,-1.2294273,1.2373163,0.48413688
3.8058803,-8.51313,-1.1166652,-1.2810716999999998,1.3922317,0.55599207
3.7367263,-7.686403,-2.4675696,-1.2310331,1.3251587,0.71357787
4.120851999999999,-6.849667500000001,-2.9990822999999995,-1.1745892,1.0685779,0.7960795999999999
6.3150325,-6.7879257,-2.568988,-1.081982,0.75661767,0.7699869
8.724682000000001,-7.15941,-2.4282281,-0.94570667,0.38187805,0.76893973
9.425129,-6.5358453,-2.5859294,-0.8461530999999999,0.06620034,0.76040506
9.030632,-5.790348000000001,-2.838393,-0.7545930999999999,0.15882497,0.7305948
8.176811,-5.513999500000001,-2.7473273,-0.7476816,0.5415757,0.8929628000000001
7.1511455,-5.4474599999999995,-1.8603714,-0.69071406,0.7896393,1.1553905
5.923456,-5.106315,-1.1058339,-0.39847612,0.8173201999999999,1.3236228
4.896583000000001,-4.6387753,-0.6025919,-0.04181809,0.6847625,1.2980537
4.639714,-4.4003797,-0.36607343,0.17695893,0.44788638,1.1639252
5.337442,-4.545162,-0.27237397,0.12318534,0.22483331,0.9818699000000001
6.165175,-5.004053599999999,-0.012622231999999999,-0.09557423,0.15030776,0.7380648
6.887860000000001,-5.8887978,0.05670427,-0.21800907,0.28232446,0.5336519000000001
7.9785337,-6.8428005999999995,0.018703505,-0.16051793,0.47076765,0.36437237
8.075106,-6.771291000000001,0.033346443999999996,0.05878269,0.3270398,0.32391566
7.230633,-6.279129,-0.34073323,0.30417597,-0.16961110000000001,0.37873644
7.143742,-5.7874365,-0.20480959,0.5261644,-0.71842986,0.32604495
8.189098,-5.3565664,-0.04150588,0.664569,-1.1645186,0.14398967
9.68627,-5.3359957,-0.6995091,0.73216563,-1.5009482,-0.09234537
10.596995,-5.8680639999999995,-1.8499327,0.8476889999999999,-1.6531933999999997,-0.38938296
11.258409,-6.1929669999999994,-2.6741029999999997,1.0446494,-1.7261131999999997,-0.70825464
11.65301,-6.837639299999999,-2.6438498,1.2437391000000002,-1.7516648000000001,-0.94619536
11.674031,-7.517449000000001,-1.8036288,1.3762794,-1.6649044999999998,-1.0611951000000002
10.738242999999999,-6.865909599999999,-1.0035056999999998,1.4731627,-1.6063486,-1.0872703000000001
9.638577,-6.3215065,-0.9590598,1.5774983999999999,-1.6020901,-1.0728889
9.873277,-6.7468604999999995,-1.3455606000000002,1.6679936999999998,-1.6941737000000001,-1.1213391000000001
10.874933,-7.1272706999999995,-1.4174536,1.6658643,-1.8661234,-1.2879658
11.160993,-6.908421000000001,-1.3495828,1.5200073,-1.9784354,-1.4588335
11.022722,-6.5705323,-0.85427034,1.2341572,-1.8794229,-1.4960963
10.806086,-6.487616,-0.0048075570000000005,0.9876993000000001,-1.7516648000000001,-1.3938898000000002
10.160743,-6.573214,0.67606515,0.80988514,-1.5584394,-1.1745716
9.335423,-6.783128,0.80037206,0.7188661999999999,-1.3641318999999998,-0.9706823
8.299108,-6.963823,0.67141074,0.6289119000000001,-1.1953934,-0.8365363000000001
7.300495599999999,-6.6044244999999995,0.6256049,0.47239079999999994,-0.90687305,-0.7620281999999999
6.589839,-5.994813,0.6394721,0.3951949,-0.8387353999999999,-0.55655056
6.411347,-5.549434,0.48173255,0.39201840000000004,-0.89675015,-0.3963119
6.53595,-5.454901,0.10348698,0.22593287,-0.6620034,-0.52780503
6.2540569999999995,-5.6829634,-0.3536523,-0.3478965,-0.15629423,-0.6805737
5.7147584,-6.1715913,-0.46516466,-1.1431906,0.5170887,-0.6960024
5.2004933,-6.586841000000001,-0.05400361,-1.7782461999999999,1.3980786,-0.49106583
4.995579,-6.8630557,0.30110437,-1.9251854,1.9330744,-0.059341196
5.1147428,-6.925161999999999,0.53240347,-1.6638049,1.9506323,0.40641737
5.5055914,-7.038492999999999,0.30785602,-1.0894344999999999,1.5886511,0.8109847
5.379436,-7.424879600000001,-0.07508217,-0.36547193,1.1787604,0.8945685
5.2757,-7.8707848,-0.104042426,0.26319566,0.8088029999999999,0.7353945
6.469975499999999,-8.976217,-0.3412312,0.6826681,0.43137556,0.54323375
7.1939917,-9.267389,-1.3237542,0.8061676,0.16468927,0.45219734
6.7265,-9.910442999999999,-2.5365705000000003,0.59695494,0.22696261,0.47829002
6.2193604,-11.062256,-2.6286802000000002,0.1285086,0.5048365,0.48839548
5.151527400000001,-11.509109500000001,-1.6043546,-0.3771831,0.84925973,0.42451644
4.235247,-11.413313,-0.53937536,-0.8701164,1.217629,0.29729939
3.8674881,-9.827748,0.29059863,-1.2821363000000001,1.4007488000000001,0.17858209
4.620541,-8.35812,0.8520964,-1.5871501000000001,1.4161776000000001,0.21532127
6.483479,-7.352622,0.8600356,-1.7106496,1.3251587,0.41547564
7.3314667,-6.8560360000000005,0.036430172999999996,-1.6419883000000002,1.1601378,0.71783644
7.269753999999999,-6.7976556,-1.1888936,-1.4391636,0.99989915,0.99303997
6.861322400000001,-6.8317685,-2.2776806,-1.1655483,0.9131388,1.0995051000000002
6.4720445,-6.4080043,-3.4209695,-0.97551686,0.8641648999999999,1.1703131000000002
6.307486,-5.720035,-3.9860587,-0.82698935,0.78431606,1.2517501
6.211335,-5.063813,-3.6985339999999995,-0.6438694,0.6342003,1.3262757
5.9879365,-4.78147,-3.5659910000000004,-0.3862239,0.38720128,1.3890901000000002
5.4894447,-4.9705449999999995,-3.2049935,-0.10941469,0.075782195,1.4370167999999999
4.9119152999999995,-5.576843,-2.728576,0.04441863,-0.13339551,1.4375403999999998
4.7894855000000005,-6.3551593,-1.9607363000000002,-0.0056199604,-0.14404203,1.4327408000000001
5.2140154999999995,-6.8156314,-1.222872,-0.08492772,-0.01150172,1.395478
6.2553114999999995,-6.7927427,-0.8928649,-0.08438667,0.03906047,1.2128991000000002
7.3408809999999995,-6.441417700000001,-0.9377897,-0.025307272999999998,0.03160791,0.80992
7.501282700000001,-5.8634477,-1.3420746000000001,0.08700466,-0.1743933,0.08489282
7.4151110000000005,-5.479264700000001,-1.4263313,0.16896532,-0.56990236,-0.594337
7.7747583,-5.5935163,-1.3233039,0.23977333,-0.92230177,-1.0931346000000002
8.601935000000001,-6.3293405,-1.2871898000000002,0.34677947,-1.0042799,-1.3358575000000001
9.612921,-6.946336,-1.5302013,0.52509975,-0.94891804,-1.4471223
10.770077,-7.7316723,-2.1705832000000003,0.70450217,-0.9260368,-1.4700036
11.5040245,-8.224905999999999,-2.5278652000000004,0.8801521000000001,-0.9302954,-1.5030078000000002
11.951557000000001,-7.7695293,-2.152962,0.9930051,-0.99256873,-1.5376176000000001
12.599256500000001,-6.859196000000001,-1.7682425,1.0643367,-1.1362966,-1.5296239999999999
13.236631,-5.5945599999999995,-1.4968549,1.098423,-1.2645957,-1.4763913999999998
13.546795999999999,-5.1362239999999995,-1.3860416000000002,1.0973583,-1.3689315,-1.3528919
12.822224,-5.887294,-1.2371798,1.0552958000000001,-1.4115176,-1.2080995
11.195172,-6.780628,-0.7990983,0.97918206,-1.3529618,-1.0468136000000001
9.871102,-7.1021600000000005,-0.17153019,0.9222145,-1.3146343,-0.94619536
8.882469,-7.163222,0.2150089,0.8125555,-1.2039107,-0.8700641
8.3882675,-7.259353599999999,0.24199633,0.622524,-1.0596417,-0.8237605
7.856362299999999,-6.937123,0.015705964,0.3334626,-0.8722631999999999,-0.78119195
7.1005993,-6.475808,-0.263027,0.03536037,-0.69446653,-0.68268555
6.375357,-6.2490005,-0.41679220000000006,-0.11952015,-0.57789594,-0.5352401
5.799906,-6.0553669999999995,-0.42837057,-0.20310396,-0.43629742,-0.42132250000000004
5.248253,-5.9081144,-0.36999035,-0.35906658,-0.16800539,-0.39151224
5.057032599999999,-5.8488812,-0.38794687,-0.5778611,0.16629498,-0.41812852
5.1279297,-5.856303700000001,-0.341145,-0.8008967,0.5857498999999999,-0.41334632
5.353952,-6.041739499999999,-0.27439466,-0.9675233,1.0616488000000002,-0.3968355
5.436274500000001,-6.2214575,-0.47214615,-1.0404432,1.3177061,-0.23713788
5.302324,-6.093732,-0.74273884,-1.1096455,1.3677447,-0.04923574
5.1216574,-6.255417,-1.0032376,-0.98775166,1.3256823,0.23183209
5.2772613,-7.0233717,-0.87563616,-0.57838464,1.1308511,0.5474923
5.7362776,-7.750126400000001,-0.44588652,-0.011990411999999999,0.7635641,0.7343473
6.42598,-8.219054,-0.39695865,0.38510690000000003,0.34887385,0.78223914
7.134702000000001,-8.503264999999999,-0.66993594,0.49528953,0.06993534400000001,0.7428645
7.5412564,-8.833962,-0.8149767,0.34890878,-0.004049164,0.7125132
7.7860875,-9.937737,-1.0810011999999998,-0.014119713999999998,0.22270401,0.72794193
7.191789,-9.634592999999999,-1.2822673,-0.46020842,0.5165476,0.7162482
6.806485,-9.797801,-1.8256075,-0.86690503,0.7390597,0.658216
6.6950974,-9.6055565,-2.123657,-1.1532961000000002,0.82957244,0.54323375
5.9123564,-8.745175,-1.4773086000000002,-1.2815778,0.79070395,0.42399284
5.948039499999999,-7.8739357000000005,-0.7219859000000001,-1.272537,0.73375386,0.4266632000000001
6.367418,-7.2549386,-0.80445176,-1.1341324,0.65442866,0.54110444
6.978714999999999,-6.9922085,-1.742318,-0.90416783,0.5836380999999999,0.72848296
7.1092663,-6.825907000000001,-2.6849819999999998,-0.5933071999999999,0.5538104,0.9009564
6.643776,-6.0775375,-3.2744155,-0.25579545,0.54422855,0.9467363999999999
6.1405907,-5.1979938,-3.6307302000000004,0.07049385,0.41701153,0.9467363999999999
5.8146734,-4.430585,-3.3762362,0.27544788,0.14072590000000001,0.92437875
5.913745,-4.0783214999999995,-2.7169687999999996,0.28396508,-0.07749262,0.91107935
6.1142449999999995,-4.21322,-1.9623452000000001,0.09711012,-0.07909832,0.930243
6.281226599999999,-4.831221,-1.2028183000000001,-0.15465362,0.036390115,0.9355663000000001
6.016322,-5.399441700000001,-0.60186404,-0.36864844,0.20940460000000002,0.8312305
5.684658,-5.4996730000000005,-0.040892962000000005,-0.47031388,0.57192695,0.6268175
5.900424,-5.6120276,0.23893175,-0.47191957,0.7518529,0.36437237
6.7387395,-5.648649,0.34145147,-0.43359214,0.7156373,0.08065166
7.529898599999999,-5.5553617,0.009222465,-0.28347638,0.44629815,-0.13812536
7.8646080000000005,-5.3573135999999995,-0.6591429,-0.11952015,0.06674139,-0.30527553
8.368405000000001,-5.625828299999999,-1.620616,0.14714871,-0.30799824,-0.35957274
8.938455000000001,-6.1946235,-2.3996031,0.56555647,-0.7280116999999999,-0.3494498
9.393823,-6.683586599999999,-2.7909591000000002,1.0723478000000002,-1.1751477,-0.34838519
10.277465,-6.906678,-2.6693816000000004,1.4758329,-1.5280881000000002,-0.37021923
11.402376,-7.412869500000001,-2.0955875,1.6999506999999998,-1.7048202000000001,-0.39416516
11.671303,-7.0862050000000005,-1.3854862,1.7877932,-1.7873218999999998,-0.47933722
11.545042,-6.7458353,-1.1787133,1.7814052,-1.7830633000000002,-0.60123104
11.218176,-6.996077499999999,-0.93852705,1.6717461,-1.7851926,-0.76040506
10.772394,-7.227664,-0.6955922,1.4343116000000002,-1.8293843,-0.91690874
10.09111,-7.367628999999999,-0.4470262,1.0899056999999999,-1.8043563000000002,-0.9754645000000001
8.958624,-6.9050503,0.23043711,0.73431236,-1.6968265999999999,-0.9605594000000001
8.246177000000001,-6.507191000000001,0.88130563,0.46973792,-1.4828491000000001,-0.93928385
8.1068535,-6.370099,0.93857497,0.35103807,-1.2614018,-0.9275551999999999
7.971829400000001,-6.4705124000000005,0.36919546,0.32122785,-1.1022278,-0.8780576999999999
7.7772098,-6.104209,-0.26297912,0.32122785,-0.96221745,-0.8285427
7.5697856,-5.5676966,-0.70320576,0.2850297,-0.8743924999999999,-0.80246747
7.3939266,-5.08153,-1.044188,0.16952384,-0.7556752,-0.80245
7.2797523,-4.8851867,-1.5820693000000001,0.028972466000000002,-0.6039711999999999,-0.75136423
7.112838000000001,-5.072653,-2.0456154,-0.10088003,-0.38997635,-0.703455
6.680550599999999,-5.367963,-2.11974,-0.2589894,-0.18289305,-0.66191614
6.5776668,-5.638364299999999,-1.6347992,-0.42188100000000006,0.155631,-0.61348325
6.730216,-5.9133816,-0.8157810999999999,-0.5917015,0.766217,-0.5794144
6.7517924,-6.265281,-0.13736972,-0.70879567,1.2053941000000001,-0.4825312
6.6072783,-6.310867,0.19303969,-0.76043993,1.425777,-0.27225390000000005
6.6113963,-6.3414264000000005,0.2941229,-0.7077485,1.3400638,-0.039636426
6.766128999999999,-6.5636463,0.05670427,-0.46392596,1.1042523000000002,0.15624188
6.9377837,-7.2082424,-0.22070709,-0.03806563,0.81306165,0.18659315
7.112282799999999,-7.969991,-0.23488078,0.37871900000000003,0.49207813,0.19936895
7.321210400000001,-8.577103999999999,-0.25920585,0.5400223000000001,0.33503342,0.25686010000000004
7.377110000000001,-8.949776,-0.40286753,0.45537385,0.30415854,0.3308446
7.565092999999999,-9.642035,-0.55262005,0.198793,0.40317106,0.40324086
7.0349693,-8.985133,-0.8647568999999999,-0.20628047,0.5825735,0.47031388
6.2517877,-8.818353,-1.2910110000000001,-0.63746405,0.75717616,0.4825661
5.832879,-8.801057,-1.572119,-0.9685705,0.83009607,0.4415683
5.5391293,-8.160177000000001,-1.5940403,-1.1719187,0.79976225,0.42346925
6.3383427,-7.930544,-1.0603536,-1.2251513,0.7284305999999999,0.46179667
6.817231,-7.6388345,-0.8686834000000001,-1.1154921999999998,0.68690926,0.54164547
6.409546,-7.217139200000001,-1.3678937,-0.93076664,0.64378214,0.65130454
5.8807339999999995,-6.825955,-2.3071867999999998,-0.7971617,0.60864866,0.79344416
5.605899,-6.321113599999999,-3.0113887999999998,-0.6177593000000001,0.6267477,0.9845402
5.418864,-5.803707599999999,-3.4165642,-0.34787902,0.65603435,1.1612897
5.227615,-5.0764356,-3.6075449999999996,-0.13653710000000002,0.6246184,1.2704077
5.393868,-4.5646510000000005,-3.273228,-0.0630762,0.49953067,1.3843253999999998
5.657287999999999,-4.575578,-2.625089,-0.08703957,0.29031807,1.4316936000000002
5.8349470000000005,-4.9850917,-1.9261448,-0.17168804,0.086969756,1.367291
6.151307599999999,-5.5216613,-1.1740686000000002,-0.32923892,-0.0040317103000000005,1.1634016
6.342825,-5.811896,-0.5446905,-0.46553168,0.20833996,0.88020444
6.600565,-5.9959430000000005,-0.45597089999999996,-0.40749946,0.4106236,0.6167121
6.6553826,-6.3667474,-0.66754174,-0.28560567,0.30841714,0.40376446
6.768207,-6.333966,-0.5024472,-0.16634732,0.044924773,0.17221163
7.3927107,-6.0583167,-0.59576356,-0.09501573,-0.3516315,-0.068364546
7.901171700000001,-5.9483559999999995,-1.3477344999999998,0.05401794,-0.80199623,-0.30154052
8.497262,-5.9700565,-2.0642328,0.3148574,-1.1091393,-0.48251373
9.589066,-6.2762847,-2.4571403999999997,0.633188,-1.3492268,-0.71089005
10.827442,-6.5122860000000005,-2.3899686,0.91212654,-1.402983,-0.9073094
11.977635000000001,-7.199172999999999,-2.2218862,1.0680891000000001,-1.2864124,-1.017527
12.182263,-7.2352204,-1.4444602,1.1064166000000002,-1.1549193000000002,-1.0787356000000001
11.434697,-6.4552274,-0.7571711,1.0893822,-1.1128743,-1.193718
11.27693,-6.5819,-0.90508485,1.035085,-1.1362966,-1.3023124
11.357164,-6.747980999999999,-1.1374373,0.9387428,-1.1863351999999998,-1.3741676
11.197355,-6.915431,-1.1739249,0.8216312,-1.2278391000000002,-1.3608506999999999
10.7023115,-6.875514999999999,-0.33876038,0.7082371999999999,-1.1309733,-1.3055062
9.908327,-6.399711,0.43817723,0.55120987,-0.9611528,-1.1026815
9.411951,-6.0922856,0.8405466999999999,0.43675119999999995,-0.8775864,-0.77796304
8.927202000000001,-6.33524,0.70944023,0.40533528,-0.89301515,-0.445792
8.274505,-6.4299349999999995,0.18517713,0.44472733,-0.9244311,-0.32761574
7.7293735,-6.0712934,-0.3127402,0.4298397,-0.8387180000000001,-0.37604862
7.247660000000001,-5.550947,-0.5843096999999999,0.32389819999999997,-0.6907314999999999,-0.36222562
6.787399000000001,-5.501205000000001,-0.71774334,0.18496999,-0.55552083,-0.2706482
6.0620709999999995,-5.5688653,-0.7687973000000001,0.009285152,-0.35910149999999996,-0.2003987
5.5501904,-5.824317,-0.70480514,-0.2621659,-0.070581116,-0.13332570000000002
5.178668,-6.1657395,-0.5229607,-0.5975309,0.25520205,-0.0034208453999999998
4.4468559999999995,-6.5275707,-0.5935034,-0.81951934,0.7364242,0.16317083
4.093548999999999,-6.711091000000001,-0.40488824,-0.87859875,0.93603754,0.29518753
4.5431029999999994,-6.4735765,-0.069422275,-0.89828604,1.0073691999999999,0.33670890000000003
5.774508,-6.3757014000000005,0.08353848,-0.7588168000000001,0.87002915,0.43891540000000007
6.2414629999999995,-6.477714,-0.2197494,-0.36491343,0.62568307,0.49214795
6.1710744,-7.0773463,-0.6175125,0.16367698,0.42819908,0.45594979999999996
6.4802322,-7.6868525,-0.81558,0.61135393,0.25253168,0.39154717
6.980544,-8.299902000000001,-1.0636671999999998,0.74710566,0.24507913,0.26270697
7.296597500000001,-9.040467999999999,-1.6307962,0.5772851,0.3552792,0.10196213400000001
7.4105144,-9.976686500000001,-1.7503529999999998,0.21104520000000002,0.6507111,0.14348352
6.687819500000001,-8.806295,-1.1560833000000001,-0.20893337,0.882805,0.30904546
6.7956924,-8.232481,-1.0803978,-0.6496988,1.0148216,0.49747118
6.905414,-8.270004,-1.1858002,-0.82908374,0.98181754,0.6321583000000001
6.55814,-7.6499724,-0.5084135000000001,-0.8573056999999998,0.8359603000000001,0.7439465999999999
7.254450299999999,-7.5875125,0.1914691,-0.7769333,0.70820224,0.757246
7.592282000000001,-7.378872,0.18053238,-0.6177593000000001,0.5335995,0.76895714
7.578653999999999,-6.9614954,-0.6497863,-0.44315654,0.4276755,0.85946995
7.5655913,-6.7175270000000005,-2.0265481,-0.2579073,0.4101,0.9089674999999999
6.668444999999999,-6.3618727,-3.1123855,-0.11205014,0.48143163,0.8908684000000001
5.238523000000001,-5.808237999999999,-3.6861894,-0.01303761,0.47717303,0.785468
4.4208837,-5.2483487,-3.7789504999999997,0.046041787,0.39573595,0.7008194999999999
4.518203700000001,-5.0048010000000005,-3.2044187,0.08808677,0.27701867,0.6571688
4.9106703000000005,-5.116553,-2.1703918,0.092886426,0.23923229,0.6438694
5.628203,-5.1069474,-1.5558288,0.021013765,0.28075367,0.672615
6.462917299999999,-5.301759,-0.9544821,-0.048171088,0.45961499999999994,0.6486516
6.633231599999999,-5.667018,-0.6167847,-0.10405653,0.6065368,0.5272814
7.053692,-5.9808884,-0.45166138,-0.10459758,0.66455156,0.28560567
7.592368,-5.83194,-0.44856805,-0.13707817,0.5335995,-0.03536037
7.9904757,-5.6259146,-0.7436678000000001,-0.26694809999999997,0.25146705,-0.19186404
8.121831,-5.3247333,-1.1823238,-0.30421090000000006,-0.18395770000000003,-0.21848032
8.326449,-5.622629,-1.5853255,-0.14186037,-0.7759036,-0.21580996
8.932747,-6.2310824,-1.9779266,0.10831513,-1.3311102,-0.21422172
9.447836,-6.841575,-2.2958288,0.40002945,-1.6856389999999999,-0.29354692
10.106739,-7.332664,-2.5076103,0.7290066,-1.9177328000000002,-0.46335
10.648126,-7.35018,-2.4401894,0.97600555,-1.9182738999999998,-0.5767439999999999
11.182138,-7.219437599999999,-2.5155112999999996,1.1777482,-1.7692229,-0.6017545999999999
11.165168,-6.3466935,-2.5813900000000003,1.4024069,-1.6499819,-0.5389401999999999
10.572392,-5.841305999999999,-2.992436,1.6057552,-1.6286889,-0.49741882
9.977568,-6.629535000000001,-3.321275,1.7287138,-1.7101258999999998,-0.5676858
9.804053999999999,-7.6378960000000005,-2.5042869999999997,1.6680286,-1.8304314999999998,-0.69170886
9.696603999999999,-8.026311999999999,-1.3054048999999999,1.4157064,-1.9310497,-0.76944584
9.357986,-7.747138499999999,-0.35925475,1.0798178,-1.9379612000000002,-0.79712677
9.099729,-7.10013,0.5321066,0.8269544,-1.8714293000000002,-0.7348359999999999
8.643489,-6.5823789999999995,1.1211855,0.6997374,-1.7713346,-0.6672219
7.9482803,-6.533815,1.1957601,0.6023130999999999,-1.6627578,-0.6826681
7.136981,-6.3967805,1.2882721000000001,0.43303365,-1.4620624,-0.7438942
6.382194999999999,-5.804129,1.2517174,0.15196581,-1.1133978,-0.8711113000000001
6.2678285,-5.3712672999999995,0.88582593,-0.22225022,-0.6630505999999999,-1.0254855999999999
6.457525700000001,-5.1685357000000005,0.29798234,-0.6230825,-0.28403488,-1.1756014
6.388496,-5.2349606,-0.52388006,-0.8184372,0.03375467,-1.1511145
6.262437,-5.4058585,-1.0718267,-0.67099184,0.16629498,-0.9483072
6.3112593,-5.9589476999999995,-0.97148085,-0.45540875,0.39838886,-0.80510294
6.335153,-6.30898,-0.3677015,-0.43624505,0.7593055000000001,-0.7747691
6.5485153,-6.31554,0.26728866,-0.49693015,1.2133878,-0.58100265
6.9915956999999995,-6.381716,0.44600147,-0.59646624,1.3650918,-0.23870867
7.3167186,-6.5049887,0.2651722,-0.71783644,1.3411459,0.065764
7.5185595,-6.660315,0.15605406,-0.5213997,1.2032648000000001,0.3399203
7.673588799999999,-7.3459187,-0.10612060000000001,0.05721189,0.8982511999999999,0.54166293
7.6558337,-8.404653999999999,-0.2923033,0.70293134,0.56340975,0.5879665
6.6097875,-9.18523,0.48017150000000003,1.1085633,0.23230332,0.5656263000000001
6.644253999999999,-9.949383000000001,1.0500298000000001,1.0835353,0.025237462000000002,0.6103416
7.000108999999999,-10.336266499999999,0.5719269,0.7146425000000001,0.016720254,0.6502573
6.613838,-10.434247000000001,-0.5637579,0.08702212,0.23390903,0.6470634
5.335785400000001,-9.97232,-1.4816278,-0.6129595999999999,0.5708623,0.61938244
4.948642700000001,-9.582333,-2.3836288,-1.1782892,0.87376416,0.60393625
5.111774,-9.144319,-2.504785,-1.5487877,1.0739186,0.61299455
5.1940574999999995,-8.30675,-1.3062764,-1.6839983,1.0456966,0.70827204
5.946718,-7.787840400000001,-0.5767439999999999,-1.5695572,0.83543676,0.8296597
6.263567,-7.184855499999999,-0.98638237,-1.2379097,0.62995917,0.88128656
6.106105,-6.9157186,-2.3239462000000004,-0.77373934,0.5075242999999999,0.8919331
5.760746,-6.7165117,-3.8790185,-0.35000834,0.4681322,0.9190729
5.759367,-6.1895957,-4.914051000000001,-0.05401794,0.4101,0.9467713
5.637013400000001,-5.594818599999999,-5.080946400000001,0.18018779,0.2669132,1.0175619
5.431678,-5.015469599999999,-4.59115,0.33882076,0.020437805,1.1378675
5.4850683,-5.073494999999999,-3.5983032999999995,0.43781585,-0.29361674,1.1905589
5.7005944,-5.6692395,-2.7236437999999996,0.42079887,-0.5022883,1.1676776000000002
5.888539,-6.14628,-1.6084916999999999,0.20998056,-0.5230577000000001,1.1437143
6.665744999999999,-6.6548557,-0.67280895,-0.10353293,-0.408058,1.1080571000000001
7.442606,-6.9402447,0.02024537,-0.31113985,-0.051399945999999995,0.9451655999999999
7.623109299999999,-6.5436788,0.2637644,-0.28930578,0.074735,0.6859144
7.307764,-5.8057475,-0.2855612,-0.15570082,-0.03864159,0.39845866
7.089662,-5.236483,-1.0736846000000002,0.07956956,-0.3878296,0.05724680000000001
6.815191,-4.9918437,-1.7076116999999997,0.30527553,-0.9377305,-0.29887018
7.2454963,-5.4202237,-2.375029,0.5096885,-1.3886014,-0.689056
8.46832,-6.0149145,-2.9974449,0.6896145,-1.6340121,-1.0366732
9.336793,-6.5210586,-3.4951706,0.8115083000000001,-1.7447358,-1.4018483999999998
10.013002,-6.660640700000001,-3.7443974,0.83068943,-1.6435939999999998,-1.6972803
10.933036,-7.3075437999999995,-3.4244459000000003,0.8003382,-1.5073187,-1.8878528
11.549772,-6.8909245,-2.4487799999999997,0.81417865,-1.3524033000000002,-1.9219216000000001
11.959708000000001,-6.6858754000000005,-1.8637998,0.91851443,-1.2789598999999998,-1.9384325
12.285645,-6.906888499999999,-1.6252223999999997,1.031891,-1.280007,-1.9804775000000001
12.130894,-6.6603723,-1.3923911,1.0734124,-1.3476211,-2.0273220000000003
11.923326,-6.4657617,-1.2091198,1.0537076,-1.4077826,-1.9767598999999998
11.359060000000001,-6.1786970000000005,-0.70767814,1.0148565999999999,-1.4647326,-1.790446
10.833963,-6.059485,-0.24331793,0.9706823,-1.3982008,-1.6158433
10.482457,-6.4875584,-0.17357962,0.87325805,-1.1964407,-1.5296066000000001
9.843069999999999,-7.033657000000001,-0.17669210000000002,0.6731037,-0.92389005,-1.4673332000000001
8.842189999999999,-7.3285365,-0.11497914,0.43781585,-0.6795439,-1.3720382
7.8518419999999995,-7.1792436,0.25700320000000004,0.26907742,-0.60130084,-1.1697546
7.1390210000000005,-6.60045,0.54389554,0.1413193,-0.55977947,-0.97331774
6.5531025000000005,-6.193934,0.36562333,-0.058817595,-0.39901718,-0.81203187
5.900193700000001,-6.251021,0.027293900000000003,-0.32976252,-0.08175122,-0.60068995
5.208672,-6.483632,-0.050038815,-0.5815786000000001,0.3414213,-0.29675832
4.8513904000000005,-6.794753999999999,-0.019421763999999998,-0.74605846,0.78592175,0.03700098
5.0788107,-6.993405999999999,-0.0014939818,-0.84826493,1.214435,0.27443558
5.130822,-6.8747683,-0.21850443,-0.8663639999999999,1.3581629,0.40591124
4.886345400000001,-7.026216000000001,-0.6501215,-0.8881981,1.2895014999999999,0.6603628
4.592146,-7.3128020000000005,-0.8007072,-0.91373223,1.2868313,0.98134625
4.2220793,-7.6905589999999995,-0.83825785,-0.7668104,1.3640271000000002,1.2565671999999999
4.3968654,-8.11892,-0.9270636,-0.38940042,1.2969542,1.4130709
4.666222599999999,-8.831387,-1.2268943,0.047630034,1.0494316000000001,1.4263878
4.817019,-9.655959,-1.414207,0.30686378,0.5942845999999999,1.3023298
4.8534684,-9.991242999999999,-1.2407712,0.17058848,0.1918466,1.1075162
5.3676662,-10.524605000000001,-1.2817502,-0.23289673,0.097092666,0.9861459
6.0576944,-10.110407,-1.7794856,-0.79768527,0.35206783,0.9440835
6.267617700000001,-9.224753999999999,-2.4982345,-1.3944308,0.8098677,0.9222669
6.248799299999999,-9.208397,-3.0609677000000004,-1.7904810000000002,1.15375,0.8881981
6.335393,-8.780667999999999,-3.000538,-1.9315558999999998,1.2825726,0.8360302
6.794543300000001,-8.034491000000001,-2.2641103,-1.8548836,1.2708615,0.82803655
7.3729825,-7.4425006,-1.9810965,-1.582333,1.083483,0.8275129999999999
7.8839335,-6.918965299999999,-2.457696,-1.2858365,0.86896455,0.88020444
8.201098,-6.224915,-3.5481781999999997,-0.98347557,0.66081655,1.0020982
8.026743,-5.917624,-4.5815444,-0.71518356,0.6421939,1.1538197000000001
7.4391484,-5.80253,-4.6113567,-0.41866958,0.7358832,1.2980886999999999
7.0115633,-5.6746989999999995,-4.1397758,-0.14453071,0.76462877,1.3262931
6.669346000000001,-5.5443106,-3.2978117,0.07796386,0.66081655,1.3337457
6.4380180000000005,-5.3270125,-2.0470042,0.18762289,0.52401763,1.311388
6.2906785,-5.305081400000001,-0.8162887,0.18123499,0.33663909999999997,1.2166341999999999
6.3879980000000005,-5.5188746,-0.025752034,0.092327915,0.15723671,1.0862231000000002
6.6096344,-5.7957306,0.44739968,-0.02422517,0.08005825400000001,0.95314175
6.6169224,-6.1298747,0.498061,-0.14187782,0.12742649,0.8056789000000001
6.760057000000001,-6.167128599999999,0.40846038,-0.15624188,0.3371627,0.54005724
6.9348054,-6.0600879999999995,0.2855708,-0.070005156,0.27914795,0.28134707
7.3037233,-5.659107,0.045987825999999996,0.038030725,0.10773917,0.057770398
7.5238743,-4.828961,-0.48630065,0.17430604,-0.25209534,-0.21158627
7.772909599999999,-4.5926633,-1.2978872,0.2600017,-0.7445050999999999,-0.51075315
8.687562,-5.0798635,-2.0938346,0.4016177,-1.1032925,-0.79021525
9.652157,-5.734008,-2.8530746,0.63690555,-1.3811663,-1.0510547
10.323174,-6.1393557,-3.1144828999999996,0.8604822,-1.5504458,-1.3140235
10.873804,-6.3492503,-2.8960552,0.97385883,-1.5440578,-1.5743219
11.497502,-6.7294974000000005,-2.5449598,1.0164448,-1.4115001,-1.7116618000000001
11.670996,-6.239136,-2.0006716,1.0505136,-1.2549964,-1.7138087
11.501286,-6.202093,-1.9945903000000003,1.0957700000000001,-1.1815354999999998,-1.6712226000000003
11.595099000000001,-6.5430660000000005,-2.06973,1.1245157,-1.2699015,-1.6318305
11.48012,-6.1947193,-2.0855508,1.119175,-1.4578211,-1.6068198999999999
11.4598465,-6.4291787000000005,-1.8984679,1.0632895,-1.6712749,-1.5642163999999998
11.016699000000001,-6.4922322999999995,-1.1081036,0.97014123,-1.82352,-1.4928848999999997
10.677468,-6.5805783,-0.47088203,0.8775166,-1.8176731,-1.4433873
10.708871,-7.221361999999999,-0.36725137,0.80245,-1.7223781000000002,-1.3981309
10.106854,-7.5641356,-0.51467675,0.7199483,-1.5898378999999998,-1.3853551000000002
8.612882,-7.2186046,-0.48445237,0.5682268,-1.360938,-1.4497752
7.378355,-6.5300703,-0.39955395,0.26319566,-0.99469805,-1.5482466000000001
6.6355205,-5.9269896,-0.44664309999999996,-0.08970992,-0.6252641999999999,-1.5445291
6.335163,-5.798890599999999,-0.66444844,-0.38941786,-0.19940387,-1.4263529
6.2149363,-5.899830000000001,-0.829361,-0.5272814,0.25038493,-1.0452079
6.0772023,-6.0333114000000005,-0.8224849,-0.4415683,0.4457571,-0.45219734
6.2340803,-6.3271755999999995,-0.59574443,-0.28080603,0.5170887,0.016231561000000002
6.442318,-6.575608,-0.18862478,-0.14666001,0.8348957,0.32391566
6.386677,-6.4569225,0.16936582,-0.10355038,1.1079698999999998,0.46977282
6.554874000000001,-6.504548000000001,0.3061801,-0.1796642,1.2352045,0.65608674
6.642013499999999,-6.6446757,0.15673402,-0.35320228,1.2703379,0.90840894
6.160137000000001,-6.89215,-0.13380714,-0.33138567,1.260756,1.1703131000000002
5.497824700000001,-7.364402,-0.28634652,0.07955211,1.0781597,1.3204288
5.172969999999999,-8.585052000000001,-0.10100658,0.64807564,0.8199905999999999,1.2522912
4.271188700000001,-9.464989,0.21420443,0.9759880999999999,0.50059533,0.96644115
3.9368625,-9.581643,0.40221632,0.9003979,0.27541295,0.69336694
4.7529883,-9.87364,0.17515022,0.48996627,0.29084167,0.6491752
5.7830887,-9.549044,-0.5199153000000001,-0.062028999999999994,0.57192695,0.7598989
6.2538656999999995,-8.871715,-1.7398471999999998,-0.58529615,0.9631774,0.83442444
6.39633,-8.823495,-2.971597,-1.071318,1.2495684999999999,0.83868307
6.224302,-8.514758,-3.4821942000000004,-1.4540513000000002,1.3033421,0.78812087
6.6018963,-8.051164,-2.6542406,-1.674975,1.1835601,0.7157071999999999
7.349586500000001,-7.6455,-1.8916683,-1.7085028000000002,1.0275975,0.65982175
8.416269999999999,-6.964196,-2.1774595000000003,-1.6057727,0.9573130999999999,0.6875026
8.813842,-6.580328999999999,-3.4465013,-1.3885839,0.8902401,0.8083318
7.895426,-6.581938,-4.849206400000001,-1.0739709,0.7678227,0.98347557
6.498189,-6.413463,-5.396684,-0.7545930999999999,0.6469760999999999,1.124533
5.841919,-6.2928143,-5.1575226999999995,-0.46287876,0.5655216,1.1575372
5.9457889999999995,-5.963114,-4.613033000000001,-0.21640338,0.48780206,1.1697893999999998
6.0225573,-5.485892,-4.075889,-0.07853982,0.31745794,1.2645434
6.1962705,-5.0101643,-3.3942120000000005,-0.034348078,0.15030776,1.3284223999999998
6.44113,-5.129749299999999,-2.4577245999999997,-0.09344493,0.049706977,1.2299335
6.594023700000001,-5.467907,-1.4928422,-0.28134707,0.028955012999999998,1.0548072
6.581804300000001,-6.153089,-0.77409333,-0.5326046999999999,0.19130553,0.92757267
6.4209614,-6.4050736,-0.2641475,-0.6986901999999999,0.43085197,0.8322951999999999
6.491054,-6.3408422,-0.06372407,-0.73275906,0.5367935,0.70666635
7.1130580000000005,-6.0160160000000005,-0.30816248,-0.5986130000000001,0.4627915,0.41973424
7.834738000000001,-5.7110615,-0.7078984,-0.28188813,0.075782195,-0.07798131
7.7838080000000005,-5.402076,-1.3394409999999999,0.059306286,-0.43629742,-0.56292105
7.858814,-5.3979672999999995,-1.9466296000000003,0.3856305,-0.8568344999999999,-0.95097756
8.95646,-5.9952345000000005,-2.401576,0.6347588000000001,-1.0298315,-1.1782892
10.448852,-6.5882974,-2.8913147,0.85194755,-1.0724175,-1.3528919
11.186477,-7.1161995,-3.1340961,1.0345439,-1.0447366,-1.4662685
11.398258,-7.361921300000001,-2.7574022,1.1878362,-1.0112089,-1.5306886
11.25544,-6.791335000000001,-2.06294,1.2794136,-1.0942341999999998,-1.589768
11.6399765,-6.5966864,-1.5077437,1.2900601999999999,-1.2294623,-1.6744165000000002
12.498144,-6.2265239999999995,-1.041315,1.2426745000000001,-1.4088472,-1.7606533
12.919908,-6.2680489999999995,-0.7065577,1.1314271999999999,-1.5823853,-1.7734290000000001
12.403027999999999,-6.3929496,-0.3682282,0.99567544,-1.7287834999999998,-1.751595
11.120119,-6.4346757000000006,-0.10529699,0.8594001,-1.738889,-1.6765458999999998
10.021735000000001,-6.510802,-3.8307226e-05,0.7587993000000001,-1.6058077,-1.5519817
9.419929,-6.6501827,0.06429868,0.6842738,-1.4019357,-1.4093183999999999
8.70662,-6.8063803,-0.030827742,0.6022957,-1.2049754,-1.3044416
7.94897,-6.4605904,-0.38375223,0.47506118,-0.9611528,-1.2389743
7.4309983,-6.023323,-0.7471825,0.2807711,-0.6832964,-1.1990587
6.973725999999999,-5.66516,-1.0856364,0.04600688,-0.39104099999999997,-1.212358
6.55135,-5.560361,-1.1901767,-0.22759093,-0.10732029400000001,-1.2134227
6.1836004,-5.7946480000000005,-1.2007303999999999,-0.47724283,0.25891959999999997,-1.1426147
6.102322,-6.287097,-0.9142210999999999,-0.6912376,0.5692566,-0.97122335
6.015125299999999,-6.6670666,-0.49882716,-0.6587745,0.98659974,-0.63051766
5.9511905,-6.878608,-0.042348642,-0.47724283,1.2373163,-0.2003987
5.9698652999999995,-6.80072,0.13303141,-0.39526471,1.3326111999999999,0.22170918
6.1721272,-6.7846694,0.1462091,-0.47298422,1.1824955,0.6315997
6.2533,-6.78715,-0.025608381,-0.8025024000000001,0.9940523000000001,1.0308439
6.2725306,-6.562947299999999,-0.24898739,-1.0936756,1.0116103,1.2948772
6.47417,-6.705172500000001,-0.37859990000000004,-0.9542064,0.9541366,1.4886436
6.5439377,-7.40607,-0.5409076999999999,-0.5294107,0.7779282,1.5237771
6.476909,-8.275931,-0.61442876,-0.02370157,0.53997,1.3071294
5.9062753,-8.680513000000001,-0.8563006,0.18708184,0.30948177,0.950995
5.017873000000001,-8.885667999999999,-0.6016629,-0.09609783,0.26476645,0.7380648
4.913975,-8.932518,-1.451231,-0.58211964,0.38878953,0.78065085
4.8279266,-8.21668,-2.7446651,-1.0989989,0.6682691,0.9078679000000001
5.1744637,-8.017941,-4.1328325,-1.4844025,0.99618155,0.9664236999999999
6.328938,-8.631577,-5.10711,-1.706391,1.2053767,0.99836326
7.404528,-8.601198,-4.130515,-1.72449,1.1612023999999999,1.0042275
7.895349499999999,-7.922853999999999,-2.5177617000000003,-1.6382533000000001,0.9631774,1.0846174
8.8665905,-7.2451897,-1.7030723,-1.4535451000000001,0.6411118,1.1931943999999999
9.571339,-6.389579,-1.879027,-1.1772593999999998,0.35419709999999993,1.3401161
9.183324,-6.06888,-3.3622348,-0.8972563,0.25677285,1.5232362
7.671530000000001,-5.8594065,-4.442058,-0.5730614,0.24720843,1.6148136
6.4414940000000005,-5.698296,-4.3318959999999995,-0.29733428,0.3334277,1.6014966999999998
6.023706,-5.386149400000001,-3.4160373,-0.08279842,0.36536723,1.5386822
5.890071400000001,-5.087592,-2.3060186000000003,0.08752826,0.2637018,1.4652214
5.8055177,-5.098471599999999,-1.3928317,0.20676915,0.0731293,1.4008013000000001
5.87879,-5.422665599999999,-0.7224073000000001,0.26532495,-0.16320574,1.3044591
5.9098477,-5.846325,-0.37251863,0.22593287,-0.36603045,1.124533
6.3665752,-6.243293,-0.064365715,0.05400048599999999,-0.49165925,0.8711462
6.641458,-6.39158,0.21753716,-0.14880677,-0.26754153,0.5107706
7.0031548,-6.258022,0.30302933,-0.24249604,0.092816606,0.05030039
7.8711009999999995,-5.937515,0.21159954,-0.25633649999999997,0.18704693,-0.3105988
8.389312,-5.5390239999999995,-0.38540903,-0.11897910000000002,-0.01574287,-0.5666386
8.656139999999999,-4.9205727999999995,-1.0933362,0.115209185,-0.4432089,-0.76201075
9.049996,-4.871894,-1.8126788,0.37817794,-0.8344768,-0.98506385
9.726856,-5.289902,-2.4020736,0.6384938,-1.0687,-1.233651
10.54981,-5.5830293,-2.8136275,0.89933324,-1.2017813999999998,-1.483844
11.262172,-5.4702910000000005,-3.0453959,1.1330154,-1.2885417,-1.7500067
12.053331,-5.62715,-3.1184093999999996,1.3198703999999999,-1.3630673,-2.0001995999999997
12.756200999999999,-5.6188082999999995,-2.3999189999999997,1.5019082000000001,-1.375843,-2.1391454
12.479432000000001,-5.1810045,-1.7848294999999998,1.6919571,-1.4035239,-2.1934426
11.995621,-5.9353886,-1.4524376,1.7968339,-1.4865668,-2.2115242000000004
11.44437,-6.4959865,-0.9948290999999999,1.7712823,-1.5600276000000002,-2.1817314999999997
11.177493,-6.843336999999999,-0.5347976,1.6270133,-1.6068723,-2.100277
11.103148,-6.9258313,-0.118311875,1.426859,-1.5935728999999998,-1.9852946
10.580303,-6.683921300000001,0.28049508,1.1910301,-1.4737909,-1.8575363999999999
10.228575,-6.591514999999999,0.48760313,0.9962165000000001,-1.2864124,-1.7340368999999998
10.153589,-7.168766499999999,0.4495832,0.8551415000000001,-1.0665708,-1.5700808000000002
9.707578,-7.720725999999999,0.285408,0.7779456,-0.8743924999999999,-1.426894
8.847121000000001,-7.7718086,0.25746286,0.6384938,-0.5608615,-1.3039180000000001
7.877460000000001,-7.3982363,0.04771165,0.42715190000000003,-0.22975515,-1.1495436
7.130890400000001,-7.020842999999999,-0.46808556,0.20624556,-0.051417399999999995,-0.8626290000000001
6.506329,-6.81182,-0.8865728999999999,0.010873401999999999,-0.05461135,-0.60018384
6.0345187000000005,-6.776836,-1.1748444,-0.20043361,-0.058346357,-0.37821284
5.847761,-6.702386,-1.2286469,-0.38676497,0.2764776,-0.20839229999999997
5.816167,-6.7977133,-0.9829252,-0.4703313,0.68582714,-0.11417944
5.7363253,-6.836049000000001,-0.5676844,-0.5879665,1.0792243000000001,-0.025272367999999996
5.446847,-6.786527,-0.23123199,-0.80995494,1.302801,0.25471336
5.252783,-6.6565223,-0.1263947,-1.0920874,1.1787604,0.69493777
4.8938155,-6.557823700000001,-0.49055275,-1.3321575,1.11914,1.0036865
4.262474,-6.532321,-0.8607251,-1.2815952,1.2224111999999998,1.2677199
4.0465646,-7.098501700000001,-1.1040527,-0.8796983,1.2453098,1.5014193999999998
4.6797733,-7.768035,-1.2907141000000002,-0.24942501,1.055261,1.5440055
5.428977,-8.404691999999999,-1.2600589,0.2642603,0.67411596,1.4039952
5.8809543,-8.3905945,-1.0034386999999998,0.32707470000000005,0.22589797,1.191606
6.315253,-8.049469,-1.2261282,-0.065240405,0.027872908999999998,1.1224037
6.4856725,-8.670496,-2.3666587000000003,-0.6710093,0.12103858599999999,1.1862829
5.506147,-8.190076,-3.4565281999999997,-1.2150633,0.38613665,1.2389743
6.314515599999999,-8.848998,-4.0622034,-1.5823678999999997,0.6384588999999999,1.1500847
7.764175999999999,-9.563935,-3.7826567000000004,-1.8107268,0.8433955,0.9866521
8.011583,-8.815988,-2.4272606,-1.9182564999999998,0.9551838,0.9057386000000001
8.081331,-7.73964,-1.2968338,-1.9203857,0.9434726000000001,0.9382191999999999
8.539810000000001,-6.662871400000001,-1.1494944999999999,-1.8218968,0.87161744,1.0468136000000001
8.908776,-6.1330442000000005,-2.3760060000000003,-1.5961908,0.75024724,1.1623194
8.484898,-6.0069947,-4.185965,-1.2821189,0.656558,1.2453623
7.323623700000001,-5.6286244000000005,-5.040743,-0.9627411,0.6906268,1.331599
6.691382000000001,-5.264839599999999,-4.5800023,-0.66835636,0.80080944,1.4668096000000002
6.5809326,-4.9809546,-3.3030693999999996,-0.34203216,0.78751004,1.6164018
6.811006,-4.662957,-2.098518,-0.021589722000000002,0.52719414,1.7382956000000003
6.796918400000001,-4.847233999999999,-1.2403306,0.31536356,0.16362461,1.7553299999999998
