accx,accy,accz,gyrx,gyry,gyrz
10.366638,-3.1245422,3.1907654,2.2946167,-1.1630096,-1.7186127
11.546982,-3.0575104,4.0646515,2.554535,-1.4516907,-2.1319275
12.904494999999999,-2.9042816000000005,4.284912,2.8528137000000005,-1.886322,-2.6549682999999997
13.347412,-2.8611908,3.8348082999999997,3.0882263,-2.2879332999999997,-3.1524506000000003
13.814285,-3.7159119,3.5546875,3.1638641,-2.618164,-3.6424712999999995
14.271576000000001,-3.9601288,3.782135,3.066925,-2.6842040000000003,-4.004669
14.302704,-4.436569,4.0957794000000005,2.8187256,-2.3827362,-4.3146515
14.216507,-5.7414093,3.7749481,2.4874267999999997,-1.8032379,-4.547943
13.828659,-6.1172943,3.2817383,2.1508026,-1.1044159,-4.641693
13.325867,-5.6911316,2.8340302000000004,1.8216400000000001,-0.36087036,-4.567123400000001
14.036942000000002,-6.0598297,2.0583038,1.5574493,0.28681946,-4.3135986
15.008987,-6.349533,1.6896057,1.3987273999999998,0.6841583000000001,-3.9311675999999998
15.954711999999999,-6.888229400000001,1.6488953000000002,1.3284148999999998,0.8684540000000001,-3.491211
16.871689,-7.651977499999999,1.8308563000000002,1.2953948999999998,0.8780365,-3.0235596
17.07759,-8.566559,1.8141022,1.2613068,0.7502135999999999,-2.5665588
16.330597,-9.713394000000001,1.7925567999999998,1.2208252,0.45086670000000006,-2.1479034
15.262787,-10.23053,1.5890503,1.1760864,0.030090332,-1.7452393
14.568466,-10.714172,1.268219,1.0578461000000001,-0.39814758,-1.3074188
13.500641,-10.812332000000001,0.9857024999999999,0.82987976,-0.74435425,-0.8291168
11.906113000000001,-10.620789,0.8851471,0.5283966,-0.9094696,-0.32737732
10.069763,-10.101242,0.6672821,0.22053528,-0.86898804,0.19673157
8.228622,-9.485947,0.40151978,-0.06707764,-0.723053,0.7240448
6.6604156,-8.820358,0.24829102,-0.30889893,-0.5281066999999999,1.1991577
5.5423279999999995,-8.169128,0.2052002,-0.48040770000000005,-0.26712036,1.6870421999999998
4.7426605,-7.570572,0.114212036,-0.61250305,0.10572815,2.2303314
4.191986,-7.1180725,-0.06774902,-0.6849365,0.39334106,2.8258057
3.840042,-6.565017699999999,-0.23533629999999997,-0.6700134,0.49880979999999997,3.3094330000000003
3.6078032999999996,-6.1220856,-0.27365112,-0.62527466,0.49134827,3.5853424
3.5958405,-6.143631,-0.49391174,-0.5858612,0.35179138,3.7440643
3.8376464999999995,-6.4644623,-0.8243103,-0.5826720999999999,0.1770935,3.9102477999999996
4.199173,-6.7828827,-0.9224701,-0.5443115,0.10572815,4.144607499999999
4.5966187000000005,-7.175536999999999,-0.63038635,-0.38452148,0.08441162,4.3502045
4.924621599999999,-7.4484710000000005,-0.26646423,-0.15655518,0.08015442,4.3512726
5.568664599999999,-7.5370636,-0.048583984000000004,-0.013824463,0.19094849,4.165909
6.181579599999999,-7.8578796,0.21716309,-0.051101685,0.43701172,3.9059906000000004
6.641266000000001,-8.530655,0.29138184,-0.29397583,0.7704468000000001,3.6769562000000007
6.6053467,-8.480377,0.39193726,-0.7126312,1.07724,3.5160980000000004
7.5414734,-8.554596,0.42306520000000003,-1.2612457000000001,1.3904266,3.4266205000000003
9.20784,-8.750916,0.016052246000000003,-1.8109131,1.6674042000000002,3.3563080000000003
10.357056,-8.6671295,-0.41011047,-2.1773682,1.7909698,3.2252807999999997
11.070526,-8.777252,-0.79078674,-2.3265076000000002,1.7323761000000002,3.0356598
11.776825,-9.378204,-0.87698364,-2.3552703999999998,1.5353088,2.7789307
12.571701,-9.538605,-0.50827026,-2.2189178,1.2817688,2.4614868
13.725708,-9.1770935,-0.28800964,-1.7928162,0.9707184000000001,2.1408386000000004
14.451141,-8.549805000000001,-0.6902313,-1.0801392,0.5222473,1.7765198
14.302704,-7.742965700000001,-1.3151245,-0.20024109,0.0034637451,1.2811736999999999
13.258835000000001,-6.6631775,-1.9017028999999999,0.59124756,-0.37364197,0.67930603
12.140747,-5.870697,-2.368576,1.0674286,-0.59628296,0.08381653
11.408112,-5.5809937000000005,-2.6822052000000003,1.200592,-0.756073,-0.39341736
11.0849,-5.281723,-2.689392,1.0652924,-0.81999207,-0.7790375
11.455994,-5.1093445,-2.1291504,0.80111694,-0.7283783,-1.1646729
11.930054,-4.924988,-1.3821564,0.58166504,-0.56858826,-1.5662688999999999
12.281998,-4.486847,-0.8674011,0.46768188,-0.30973816,-1.9508362000000001
12.578888000000001,-3.9601288,-0.20181274,0.49751282,0.071640015,-2.3354034
12.605209,-3.325653,0.9066924999999999,0.6594238,0.26551820000000004,-2.677353
12.689011,-2.5906372,1.9050751,0.89378357,0.22715760000000002,-2.935135
13.486282000000001,-2.2075652999999997,2.3719482000000003,1.1526489,0.0002593994,-3.1194305
14.645081,-2.5164185000000003,1.8595886000000001,1.3497162,-0.49508667,-3.26857
14.946747,-2.949768,0.52841187,1.4019165,-1.0287780999999998,-3.4177093999999997
14.611557000000001,-3.6369019000000002,-0.7548828000000001,1.3262787,-1.3813933999999999,-3.5604553
14.376923000000001,-4.470093,-1.6024323,1.1750183,-1.5369110000000001,-3.6797638
14.355376999999999,-4.9632874000000005,-1.7484741000000001,0.9662323,-1.5273285,-3.7681732000000006
14.518188,-5.408615,-1.202591,0.73187256,-1.3185425,-3.8459472999999997
15.193344,-6.8379517000000005,-0.6902313,0.56781006,-0.9936370999999999,-3.892807
15.404036999999999,-7.9320984,-0.18745422,0.50497437,-0.6495514,-3.8949432
14.862945999999999,-8.118851,0.17167664,0.51135254,-0.26498413,-3.8310242
14.566070999999999,-8.978363,0.087875366,0.62960815,0.118499756,-3.6616516000000003
14.137512,-9.433273,-0.098861694,0.85543823,0.35179138,-3.3697662000000004
13.912445000000002,-9.610443,-0.45082092,1.106842,0.38801575,-2.98201
14.214127,-10.321518,-0.91290283,1.3060455,0.34434509999999996,-2.5612334999999997
14.271576000000001,-10.781203999999999,-0.9416199000000001,1.4445343000000002,0.18348694,-2.1148834
13.905273000000001,-10.876968,-0.52264404,1.5148315,-0.13076782,-1.6589508000000002
13.28038,-10.752472000000001,-0.13717651,1.5020599,-0.48976135,-1.2296448
12.562119000000001,-10.5729065,0.20040894,1.3901978000000002,-0.85621643,-0.8376312
11.460785000000001,-10.141952499999999,0.7678375,1.155838,-1.1811218,-0.46585083
10.120041,-9.505096,1.3975066999999999,0.83413696,-1.2876433999999999,-0.06744385
8.705063,-8.911331,1.7039642,0.5241394,-1.2120056000000001,0.3799591
7.290085,-8.463608,1.9697266,0.25250244,-1.0479584000000002,0.83909607
5.7386475,-7.848312400000001,2.173233,0.008560181,-0.8231963999999999,1.2162018
4.6085815000000006,-7.304825,1.9649352999999998,-0.18745422,-0.53131104,1.4857025
3.9693297999999997,-6.988785000000001,1.4645386,-0.37919617,-0.11158752400000001,1.7669373
3.4330292,-6.581772,1.0072478999999999,-0.6188812,0.41996765,2.1536255
3.1481169999999996,-6.2178497,0.58348083,-0.79145813,0.83862305,2.6244812
3.2726135,-6.0981445,0.1405487,-0.82128906,1.1038818000000001,3.0356598
3.5718994,-6.04068,-0.28082275,-0.6934509,1.1613921999999999,3.3445892
4.187209999999999,-6.2178497,-0.7237549,-0.4090271,0.96751404,3.5651093
4.927017,-6.8379517000000005,-1.0661316,-0.012756348,0.66604614,3.6950684000000003
5.448944,-7.3718566999999995,-0.8219146999999999,0.42080688,0.36564636,3.6961364999999997
5.867935,-7.5849457,-0.3550415,0.73931885,0.14939879999999997,3.5864105000000004
6.595764,-7.711838,-0.11802673,0.83732605,0.11105347,3.4394072999999996
7.5773926,-7.7860565,-0.0007019042999999999,0.7062988,0.29960632,3.2817383
8.286072,-8.281661999999999,-0.019851685,0.38032532,0.6735076999999999,3.1379395
8.214249,-8.765289,-0.21858215,-0.06814575,1.0761718999999998,3.0111694
7.912582400000001,-8.707825,-0.077316284,-0.628479,1.4170684999999998,2.891861
8.661972,-9.040619,0.063934326,-1.2218323,1.7472991999999998,2.705429
9.507126,-8.968796000000001,0.066329956,-1.6500702,1.9741973999999998,2.4188842999999998
10.141586,-8.489944,0.078308105,-1.8940125,2.0626067999999997,2.1387177000000004
11.051376,-8.353485000000001,0.0016937256,-2.0814972,2.0604858,1.9512328999999997
12.222137,-8.291229,-0.24491882,-2.1667175,1.9401093,1.8479004
12.9021,-7.972809,-0.85783386,-2.0239716,1.6631316999999999,1.7360381999999999
12.918854,-7.527481,-1.6335449,-1.6287537,1.2796478,1.5837097
12.660278,-7.103714,-2.24646,-1.0513916,0.88549805,1.3674621999999999
12.037796,-6.4644623,-2.6391144,-0.42181396,0.48814392,1.107544
11.2213745,-5.712676999999999,-2.7085418999999997,0.10549927,0.19094849,0.8316344999999999
10.59169,-5.1524353,-2.7707977,0.52627563,-0.03489685,0.48435974
10.476776,-4.874709999999999,-2.7875519,0.77767944,-0.28948975,0.075302124
10.603667999999999,-4.462905999999999,-2.1459045,0.76382446,-0.48550415,-0.34014893
10.462402,-4.2378540000000005,-1.2983704,0.48365784,-0.47485352,-0.73643494
9.966812,-4.3695374000000005,-0.9918976,0.11933899,-0.33103943,-1.0794525
9.564575,-4.594589,-0.5968628,-0.09051514,-0.060455322,-1.4075469999999999
9.634018,-4.723877,0.22195435,-0.039382935,0.30918884,-1.6972961
10.127213000000001,-4.594589,1.0455627,0.20988464,0.43063354,-1.8901215
10.795197,-4.304886,1.5267944,0.50283813,0.31558228,-2.0360565
11.278824,-3.9122314,1.6800232,0.7425232,-0.019973755,-2.1681519000000002
11.67627,-3.7590027000000004,1.05513,0.9151001,-0.53131104,-2.3630980999999998
12.66507,-4.048706,0.16688538,1.0525055,-1.0074768,-2.6549682999999997
13.723312,-4.5562744,-0.8793793,1.1281433,-1.361145,-2.9788208
14.367354999999998,-5.1979218000000005,-2.0908508,1.0972594999999998,-1.5635529,-3.26857
14.484665,-5.5714264,-2.8617706000000003,0.96728516,-1.5773926,-3.4858856
14.084839,-5.7629547,-2.7588196,0.8160248000000001,-1.4197388000000002,-3.635025
14.295517000000002,-6.691910000000001,-1.9471893,0.7467804,-1.1108093,-3.7287597999999997
14.235672000000001,-7.5442350000000005,-1.0110626,0.80111694,-0.7283783,-3.746872
13.452759,-7.5514220000000005,-0.37181090000000006,0.9726104999999999,-0.41944885,-3.6499328999999996
12.899704,-7.575363,-0.5322113,1.1931305,-0.23622131,-3.4400787000000004
12.382553,-7.2545470000000005,-0.9320526,1.4157715,-0.18403625,-3.142868
12.554932,-7.3120117,-1.1810455,1.6203003,-0.2543335,-2.792389
13.510223000000002,-8.032653999999999,-1.1786499,1.7342833999999998,-0.32357788,-2.473877
14.163848999999999,-8.774857,-1.0230255,1.7001953,-0.42051697,-2.1841277999999997
14.161453,-9.368622,-0.85783386,1.5137787,-0.59095764,-1.8847961
13.562897,-9.682266,-0.553772,1.2293396,-0.7773895000000001,-1.5513611
12.641129,-9.710999000000001,-0.074920654,0.9204254000000001,-0.89775085,-1.1966248
11.539795,-9.488327,0.5595398,0.5880585,-0.9808502,-0.8408356
10.09848,-9.078918,1.2514648000000002,0.17367554,-0.9808502,-0.48609924
8.2789,-8.408553999999999,1.7949523999999997,-0.3078308,-0.84342957,-0.100479126
6.6125336,-7.805206299999999,1.8739471,-0.7839965999999999,-0.56539917,0.32775879999999996
5.465713500000001,-7.3910065000000005,1.6297455,-1.186676,-0.18615723,0.79222107
4.922226,-7.2545470000000005,1.1557007,-1.4348755,0.16111755,1.267334
4.812088,-7.031875599999999,0.46855164,-1.4998627,0.43489075,1.6731873
4.529571499999999,-6.555435000000001,-0.285614,-1.4817505,0.66711426,2.0289917
4.168044999999999,-6.1580048,-1.0373993000000001,-1.4103851,0.7789611999999999,2.4604187
4.077072,-5.9832152999999995,-1.5329895,-1.2804108,0.8929596,2.848175
4.4601440000000006,-6.301651000000001,-1.6910095,-1.1291503999999999,0.9195861999999999,3.1208953999999998
4.9485626,-6.6272583,-1.7317200000000001,-0.96936035,0.8002776999999999,3.2646942
5.4944305,-7.0294952,-1.8993073,-0.8319397,0.6830901999999999,3.323288
5.8415985,-7.4460754,-1.9017028999999999,-0.69984436,0.6553955,3.3914642
6.1073455999999995,-7.8914029999999995,-1.4898987,-0.5102234,0.692688,3.4788208
6.2486115,-8.384613,-0.87698364,-0.29611206,0.7768401999999999,3.5256958
6.306076,-8.542618,-0.098861694,-0.11820984,0.89508057,3.4628447999999996
7.079391499999999,-8.920914,0.51405334,-0.06388855,1.0079956,3.3115692
7.630066,-9.023864999999999,0.7175598000000001,-0.23965454,1.094284,3.1208953999999998
7.333191,-8.676697,0.9042969000000001,-0.6540375,1.1773833999999999,2.954712
7.958069,-8.9640045,0.93063354,-1.2463226,1.3339691,2.8343353
8.88942,-8.952026,0.66249084,-1.8535308999999998,1.5342407,2.7363281
9.945250999999999,-8.686278999999999,0.29377747,-2.2412872000000004,1.6695251,2.6468506
11.051376,-8.679092,-0.09169006,-2.3062592,1.6503601000000003,2.545639
11.616408999999999,-8.832321,-0.33110046,-2.0878906,1.4649963,2.4146118
11.678664999999999,-8.612061,-0.13717651,-1.568039,1.1262511999999998,2.2612152
11.709778,-8.161942,-0.103652954,-0.7893219,0.6266326999999999,2.0566864
11.73851,-7.381439,-0.38137817,0.09057617,0.0471344,1.7339171999999998
11.398544000000001,-6.260956,-0.92007446,0.86502075,-0.40454102,1.2715912
10.716187,-5.245804,-1.7293243000000003,1.4189606000000001,-0.69429016,0.69314575
10.086517,-4.594589,-2.514618,1.6501312,-0.9744568000000001,0.124298096
9.763306,-4.467697,-3.0581055,1.4732971000000001,-1.1608733999999998,-0.41685486
9.564575,-4.5203705,-2.9647217,0.9289398000000001,-1.1651459,-0.91326904
9.540633999999999,-4.661621,-2.0190125,0.24929810000000002,-1.0149384,-1.3489685
9.947647,-4.9465330000000005,-0.7453003,-0.30464172,-0.7017517,-1.7558898999999997
10.673096000000001,-5.1260986,0.066329956,-0.5901184,-0.21492004,-2.106369
11.343475,-5.0231476,0.8085326999999999,-0.5858612,0.25805664,-2.348175
11.9133,-4.4892426,1.4214478000000002,-0.37600708,0.5808258000000001,-2.5303345
12.686615,-3.6105652000000004,1.4669341999999999,-0.043640137,0.63516235,-2.696518
13.87175,-3.2753754,0.49967957,0.3110962,0.37950134,-2.9212952000000003
14.774367999999999,-3.1844025,-0.80036926,0.6040344,-0.015716553,-3.2110442999999997
14.817459,-3.0072327000000003,-2.1938019,0.8234863000000001,-0.42477417,-3.4986725
14.918014999999999,-3.5914154000000003,-3.570465,0.94918823,-0.7273102,-3.731964
14.886887,-4.249817,-4.4587097,1.0024414000000001,-0.8860321,-3.889618
14.769576999999998,-4.9944153,-4.257599,1.0397339,-0.91586304,-3.9609832999999997
15.178985999999998,-6.4429016,-3.1251373,1.0876617,-0.802948,-3.9876251000000003
15.253204,-7.896194500000001,-1.7269287,1.1878052,-0.6165314000000001,-3.9822998
14.580429,-8.506714,-0.38137817,1.3145752,-0.40240479999999995,-3.9173126000000003
13.967514000000001,-8.880203,0.37278748,1.4466553,-0.17443848,-3.7458038
13.251648000000001,-8.595291,0.7103729,1.60112,-0.012527466000000001,-3.4720306000000005
13.256439000000002,-8.487564,0.61460876,1.7470703,0.06843567,-3.1311492999999997
13.898087,-9.131592,0.22674560000000002,1.8599854,0.09187317,-2.7806702000000003
14.281158,-9.979141,0.042388916,1.9270935000000002,-0.02104187,-2.424881
14.103989000000002,-10.596848,0.071121216,1.917511,-0.26286316,-2.091446
13.512619,-10.936829,0.24589539,1.8109741000000001,-0.5291748000000001,-1.787857
12.607605,-10.991897999999999,0.6888274999999999,1.5830078,-0.7187958000000001,-1.4522858
11.630783000000001,-10.76445,1.0862578999999999,1.2527771,-0.8253174000000001,-1.0634766000000002
10.543808,-10.283203,1.4789124,0.8405304,-0.835968,-0.64375305
9.215027000000001,-9.569733,1.7111511000000001,0.36009216,-0.7305145000000001,-0.19102478
7.871886999999999,-8.999924,1.6752319,-0.17893982,-0.47911072,0.33415222
6.5766144,-8.442062,1.6010132,-0.71902466,-0.14355469,0.8998108
5.626114,-7.9368896,1.3328705,-1.1973267,0.18348694,1.4782562
5.123337,-7.668747,0.916275,-1.5978698999999998,0.48495483,2.0407104
4.563095,-7.304825,0.37278748,-1.9121245999999998,0.7267760999999999,2.6074371
4.158478,-6.7972565000000005,-0.206604,-2.1166534,0.7853545999999999,3.1847992
4.120163,-6.5434722999999995,-0.74290466,-2.207199,0.7288971,3.7195739999999997
3.9573669999999996,-6.4692383,-1.2648468000000002,-2.1518097000000003,0.6138458000000001,4.172302200000001
3.8615875,-6.5003660000000005,-1.6359406,-1.8993378,0.44873047,4.4748383
4.0483400000000005,-6.6320496,-1.9567718999999997,-1.5392761000000001,0.23143005,4.533432
4.357193,-6.8858337,-2.1674652,-1.3177032,0.051391599999999996,4.439682
4.4314117,-7.2521515,-2.2081604,-1.3049164,0.05671692,4.340622
4.5247803,-7.613678,-2.0022583,-1.3816223,0.25273132,4.234084999999999
4.721115,-7.972809,-1.4922943000000002,-1.4806823999999998,0.5733795,4.0679016
5.420212,-8.662338,-1.0445709,-1.6596526999999999,0.9664611999999999,3.8463287000000004
6.234253,-9.615219,-0.6974182,-1.9078522,1.2796478,3.6034546
6.9094086,-10.244904,-0.24731445,-2.127304,1.4948273,3.3808135999999998
8.053833000000001,-10.955978,0.08547974,-2.219986,1.6173248,3.134735
9.356277,-11.224136,0.35603333,-2.2583313,1.6503601000000003,2.7949219
10.936461999999999,-11.025406,0.5954437,-2.3520659999999998,1.572586,2.3975677
13.036178999999999,-10.821899,0.51882935,-2.3936157000000002,1.3872375,2.0034332
14.412842000000001,-10.479538,-0.16590881,-2.2668457,1.1507416000000001,1.7008971999999998
14.487060999999999,-10.041397,-0.7764281999999999,-2.0186462,0.94195557,1.4953003
14.156661999999999,-9.361435,-0.76205444,-1.6703033,0.8013458000000001,1.3440246999999999
13.972304999999999,-8.624023,-0.52264404,-1.1898651000000002,0.6607208000000001,1.2151337
13.610779,-7.826751700000001,-0.6447449000000001,-0.5869293000000001,0.5307616999999999,1.060669
12.916458,-7.084549000000001,-0.7644501,0.083114624,0.36671448,0.7517395
12.066528,-6.301651000000001,-0.5681305,0.69351196,0.057785034000000006,0.32243347
11.535003999999999,-5.578598,-0.084503174,1.122818,-0.35020447,-0.15161133
11.487122,-4.7957,0.15492249,1.3220215,-0.7784424,-0.6522826999999999
11.269257000000001,-4.194748000000001,-0.029434204,1.296463,-0.98617554,-1.122055
11.072922,-4.06546,0.107040405,1.1494446000000003,-0.80615234,-1.5598907
10.646759,-4.055893,0.8444519,0.9896698,-0.37364197,-1.9348602
10.254105000000001,-4.127716,1.4693298000000001,0.914032,0.18135071,-2.2555084
10.151154,-4.2402496,1.8547973999999998,0.93959045,0.7214508000000001,-2.4557648
10.19426,-4.008011,2.3144836,1.0461273000000002,0.96751404,-2.4355316000000005
10.402557,-3.4309998,2.5970001,1.2751465,0.8748474,-2.2842712000000005
11.367416,-2.9473724,2.3839264,1.6522522000000002,0.45193479999999997,-2.1361847000000003
12.574097,-2.76062,1.4405975,2.1369476,-0.3054657,-2.106369
13.565292000000001,-3.3472137,0.1405487,2.6035310000000003,-1.1502228,-2.2949219
14.4272,-4.2330627,-0.92726135,2.8389587000000005,-1.8767395,-2.6358032000000002
14.877319,-5.140457,-1.5401764,2.7793121,-2.3699493,-2.9543152000000004
14.944351000000001,-5.8443604,-1.384552,2.5385590000000002,-2.5744781000000003,-3.1844177000000005
14.489456,-6.392624,-0.9416199000000001,2.2019347999999996,-2.4647675,-3.3399352999999996
14.412842000000001,-7.407775999999999,-0.6255951,1.8333588,-2.1174927,-3.4890747
14.053710999999998,-8.554596,-0.5609436,1.4977875,-1.6274567,-3.6467437999999994
12.78717,-9.06456,-0.72854614,1.2559813999999998,-1.0948334,-3.7521972999999997
11.922867,-9.335098,-0.5753174,1.1377411,-0.627182,-3.7511292000000003
11.40094,-9.016678,-0.23533629999999997,1.1164246000000002,-0.27883909999999995,-3.6424712999999995
11.465575999999999,-8.523468,0.025634766,1.1206969999999998,-0.060455322,-3.4251556000000005
12.602829,-8.588119500000001,-0.060562134000000004,1.1238861,0.03755188,-3.1322174
13.534164,-8.798798,-0.68066406,1.0972594999999998,0.043930054,-2.8030548
13.565292000000001,-9.186661,-1.3438568000000002,1.0450591999999999,-0.057266235,-2.4589689999999997
13.237289,-9.466782,-1.2887878000000001,0.96195984,-0.22984314,-2.1191406
12.7752075,-9.560165,-0.92726135,0.85543823,-0.48443604,-1.7516327
12.29158,-9.351868,-0.49870299999999995,0.71162415,-0.756073,-1.341507
11.707397,-9.04541,-0.08689880000000001,0.46342468,-0.89881897,-0.9239197
10.673096000000001,-8.683883999999999,0.3656006,0.087387085,-0.86579895,-0.5212555
9.351500999999999,-8.418121000000001,0.69122314,-0.37919617,-0.6229248000000001,-0.11752319
8.118484500000001,-8.147583000000001,0.8133239999999999,-0.8106384,-0.21705627,0.30433655
7.012359599999999,-7.879425,0.6098175,-1.1121063,0.23461914,0.76026917
6.1983337,-7.6639557,0.30336,-1.2633667,0.58828735,1.2960968000000002
5.6476593,-7.417342999999999,-0.027038574,-1.3113098,0.8183899,1.8947754
5.1927642999999994,-7.120467999999999,-0.28800964,-1.3400726,0.86524963,2.4945068
4.9126434,-6.926544,-0.5106659,-1.3635101,0.7864227,3.0495148
4.5104218000000005,-6.6464232999999995,-0.58488464,-1.3198242,0.6756439000000001,3.5832062000000007
4.3667755,-6.605713000000001,-0.6088256999999999,-1.1334076000000002,0.47644043,4.0625763
4.498443599999999,-6.708664,-0.85543823,-0.83833313,0.200531,4.364044
4.7498474,-6.8140106,-1.1379546999999999,-0.53260803,0.0077209473,4.410919
5.0634765999999996,-7.163558999999999,-1.2001953,-0.24604797,-0.005065918,4.2990723
5.1352997,-7.381439,-0.7596741,0.026657103999999997,0.16111755,4.110519399999999
4.9174347,-7.5011444,0.051971435999999996,0.20776367,0.43914795,3.832489
4.7043457,-7.738174400000001,0.6098175,0.23013306,0.7267760999999999,3.5075836000000002
4.915039,-8.437286,0.8731841999999999,0.11294556,0.96006775,3.2348784999999998
5.281357,-8.6719055,0.8085326999999999,-0.15762329,1.1305083999999999,3.0410004
6.2557983,-8.875411999999999,0.6313629,-0.63487244,1.3424988000000002,2.8886566000000005
7.464859,-9.232147,0.69122314,-1.2154388,1.6141357,2.7714844
8.973206,-9.459610000000001,0.9785155999999999,-1.7171783,1.8964386000000002,2.6415252999999996
10.989136,-9.382996,1.050354,-2.0857544,2.0722046,2.4444427
13.096024,-9.191452,0.7845916999999999,-2.2498016,2.1350555,2.210083
14.329041,-8.889786,0.48532104,-2.1709747000000004,1.9997558999999998,2.0321808
14.70015,-8.324753,0.39672852,-1.840744,1.6855164,1.8990326000000002
14.750426999999998,-7.683105499999999,0.071121216,-1.2356719999999999,1.2370299999999999,1.6785126
14.360168,-6.974426299999999,-0.63038635,-0.5102234,0.74061584,1.3908996999999999
13.35939,-6.186737,-1.2696381,0.13851929,0.32302856,1.060669
12.270035,-5.554657,-1.7317200000000001,0.6551666,-0.012527466000000001,0.61431885
11.582886,-5.1739807,-2.3613892000000005,1.0269469999999998,-0.29481506,0.14027405
11.135178,-5.020752,-2.617569,1.1483917,-0.56007385,-0.30073547
10.838303,-4.802887,-2.100418,0.9566344999999999,-0.7060088999999999,-0.7023468
10.720978,-4.570648,-1.3989258,0.56355286,-0.5707245,-1.1273803999999998
10.790405,-4.573044,-0.6064453000000001,0.16088867,-0.27670288,-1.5705414
10.546204,-4.685562,0.30815125,-0.13206482,0.08868408,-1.9806671000000002
10.57254,-4.7502135999999995,0.99528503,-0.20449829,0.51264954,-2.2842712000000005
11.3051605,-4.7023315000000006,1.7087555,-0.095840454,0.7512665,-2.3907928
11.700211,-4.008011,1.9840851000000002,0.06288147,0.73635864,-2.3769379
11.934845,-3.3903046000000003,1.4358215,0.24078369,0.44128418,-2.3822632
12.729721000000001,-3.1963654,0.47094727,0.43891907,-0.07749939,-2.5186157000000002
13.388123,-3.459732,-0.56333923,0.6700897,-0.5771179,-2.7710876
13.876541,-4.0941925,-1.7412872,0.9651642,-0.9936370999999999,-3.0672302000000005
14.374526999999999,-4.9944153,-2.8881072999999997,1.2431946000000003,-1.2578125,-3.3431396
14.721695,-5.616912999999999,-3.3262482,1.4296111999999999,-1.3824463,-3.5572510000000004
14.429595999999998,-5.595367400000001,-2.7253112999999995,1.5148315,-1.3771209999999998,-3.685089
14.336227,-6.4309387000000005,-2.0549316,1.5073853000000002,-1.2247925,-3.7223663
14.352982,-7.8937990000000005,-1.4396209999999998,1.4903412,-1.0096129999999999,-3.6595154
13.483887,-8.638397,-0.92726135,1.4807434,-0.7507477,-3.5178375
12.66507,-8.882599,-0.97514343,1.4605103000000002,-0.5110626,-3.3303528
12.0282135,-8.228989,-0.9416199000000001,1.4296111999999999,-0.27670288,-3.1226196
12.104828,-7.6759186,-0.68544006,1.4051208,-0.047683715999999994,-2.8914642
12.70578,-7.8890076,-0.16830444,1.3976593000000002,0.095062256,-2.6070404
13.222916,-8.487564,0.45658875,1.3880768,0.16218567,-2.2842712000000005
13.426422,-9.363831,0.85162354,1.3603668,0.153656,-1.9476471000000002
13.165466,-10.072525,0.86120605,1.2698212,-0.0008087158,-1.6110229999999999
12.4831085,-10.419678,0.82051086,1.0674286,-0.27670288,-1.2701263
11.40094,-10.295181,0.70558167,0.7329406999999999,-0.5291748000000001,-0.8685303
9.969208,-9.63678,0.86120605,0.2919159,-0.6261139,-0.38916016
8.606902999999999,-8.873016,0.9545745999999999,-0.19598389,-0.5845642,0.15092468
7.390640299999999,-8.0542145,0.86120605,-0.6870575,-0.500412,0.7378845
6.507187,-7.4604490000000006,0.6313629,-1.1472626,-0.36512756,1.2758483999999999
5.7745667,-7.017517,0.42785645,-1.5637816999999998,-0.20640564,1.7690735
4.9964447,-6.6344449999999995,0.26264954,-1.8993378,-0.05619812,2.2782592999999998
4.4864807,-6.452483999999999,-0.007888794000000001,-2.129425,0.14939879999999997,2.799179
4.084258999999999,-6.205887000000001,-0.3502655,-2.235962,0.25912476,3.3115692
3.6676636,-5.753372,-0.8051605,-2.2327576000000002,0.21864319,3.7131805
3.452179,-5.492416400000001,-1.384552,-2.1443480999999998,0.16111755,3.9699097
3.4234467000000004,-5.715072599999999,-1.9878997999999999,-1.9653778000000002,0.08229065,4.1435394
3.5623169999999997,-6.3231964000000005,-2.4164581000000003,-1.7374115,0.062042235999999994,4.234084999999999
3.7083587999999996,-6.8211975,-2.4284209999999997,-1.4860077,0.14086914,4.2223663
3.7538605000000005,-6.974426299999999,-2.0980225,-1.1738892,0.33155823,4.098800700000001
4.457748400000001,-7.2880554,-1.65271,-0.80104065,0.6234436,3.881485
5.3435974,-7.558609,-1.281601,-0.43778992,0.948349,3.6439362
6.2366333,-8.114059,-0.84106445,-0.2875824,1.188034,3.4202269999999997
7.223053,-9.028641,-0.35264587,-0.46336365,1.2679291000000001,3.1826782000000002
7.7521667,-9.339889999999999,0.25308228,-0.8266144,1.2519531000000002,2.9472504
8.877441000000001,-9.517059,0.67445374,-1.1131744,1.2753754,2.686264
10.582123,-10.050964,0.8851471,-1.1824188,1.3052063,2.3805237
11.87738,-10.213776,1.1125946000000002,-1.1078491000000001,1.266861,2.000229
12.801544,-10.103638,1.2634277,-1.0247498,1.1795044,1.6529541
13.383331,-9.775635000000001,1.3304749,-0.90011597,1.0484772,1.429245
13.819076999999998,-9.354263000000001,1.45018,-0.6412505999999999,0.82051086,1.2566681
14.032166,-8.638397,1.5196075,-0.32168579999999997,0.49348450000000005,1.0478821
13.878936999999999,-7.83873,1.2562561,-0.031921387,0.15153503,0.76345825
13.459945999999999,-7.1492004,0.16209412,0.25036620000000004,-0.102005005,0.43215942
12.9092865,-6.2489777,-1.2983704,0.5102997,-0.31079102,0.08595276
12.088074,-5.056671,-2.155487,0.69885254,-0.44502258,-0.29328918
11.432053,-3.9888458,-1.9017028999999999,0.79151917,-0.50361633,-0.71513367
11.010681,-3.2203063999999997,-0.9655761999999999,0.7286682,-0.44288635,-1.1838378999999999
11.025039999999999,-2.6744385,-0.43644714,0.5454406999999999,-0.26818848,-1.6387177
10.910126,-2.5810547,-0.59446716,0.35476685,-0.08282471,-2.0062256
10.546204,-2.901886,-0.69262695,0.28233337,0.18774414,-2.2714844
10.546204,-3.0527189999999997,-0.32870483,0.4026947,0.41145325,-2.3694916
10.924484,-3.0527189999999997,-0.24491882,0.6125641,0.39227295,-2.3545685
11.585281,-3.0144196,-0.47955322,0.78300476,0.28256226,-2.3556366
12.281998,-3.1676482999999998,-0.6447449000000001,0.9694214,0.030090332,-2.407837
12.8302765,-3.4309998,-0.7476959,1.1611633,-0.36299133,-2.5420532000000002
13.555710000000001,-3.9816742,-1.0709076000000002,1.296463,-0.7347716999999999,-2.7423248
14.314682000000001,-4.71669,-1.3175201,1.3870087,-1.042633,-2.9319458
14.839004500000001,-5.396637,-1.6862183000000002,1.4296111999999999,-1.2375793,-3.1034546
14.513397,-5.674377400000001,-1.7676238999999998,1.4178925,-1.328125,-3.2195587000000003
14.039337,-6.339966,-1.49469,1.3582458,-1.3195953,-3.2525939999999998
14.101593,-8.020691000000001,-1.1188049,1.2677002,-1.1832428,-3.2280884
13.301926000000002,-8.770081,-0.46278379999999997,1.1675568,-0.96487427,-3.1492615
12.588455,-8.954422000000001,-0.1443634,1.0983124,-0.74116516,-3.0107727000000004
12.700989,-9.483551,-0.5705260999999999,1.0588989,-0.5270385999999999,-2.8222197999999996
12.435226,-9.016678,-0.6447449000000001,1.0535736,-0.31825256,-2.5953217
12.435226,-8.604874,-0.52983093,1.0940552,-0.13395691,-2.332199
12.590850999999999,-8.657547000000001,-0.56573486,1.1824799,-0.07217407,-2.0328673999999998
12.382553,-8.700638,-0.33828735,1.2623749,-0.08709717,-1.7271271000000001
12.224533000000001,-9.059769000000001,-0.16830444,1.2698212,-0.15739441,-1.4299164
11.681061,-9.268066000000001,-0.0030975342,1.1824799,-0.34062195,-1.0932921999999998
10.86702,-9.313553,0.17886353,0.9800719999999999,-0.56539917,-0.6991576999999999
9.959625,-9.098083500000001,0.34165955,0.6636963,-0.7102661,-0.26771545
8.875046000000001,-8.5522,0.45419312,0.25357056,-0.7837677,0.17436218
7.694702,-7.8866119999999995,0.6600951999999999,-0.23858643,-0.71240234,0.59194946
6.679565400000001,-7.321578999999999,0.8229065000000001,-0.7307434,-0.5206604,0.9797058000000001
5.8176575,-6.8020325,0.8779601999999999,-1.1355438,-0.24475098,1.3781128
5.0515137,-6.438125599999999,0.8731841999999999,-1.4082489,0.022628784,1.7711945
4.455353,-6.150818,0.8779601999999999,-1.519043,0.26657104,2.1163483
4.297333,-6.11969,0.5595398,-1.489212,0.5254364,2.430603
4.1177673,-5.966461,0.056762695,-1.395462,0.6255646,2.7139587000000005
3.7418823,-5.6815489999999995,-0.4053192,-1.3635101,0.6756439000000001,2.971756
3.7466736000000003,-5.8252106,-0.94880676,-1.3805542,0.7161255,3.2955932999999997
4.0411529999999996,-6.1723633,-1.4396209999999998,-1.3240967,0.645813,3.6439362
4.508026,-6.478821,-1.7245331000000002,-1.2069092,0.58403015,3.8612518
5.2478333,-7.046249400000001,-1.8562164,-1.0364685,0.585083,3.9102477999999996
5.887085,-7.467621,-1.4707489,-0.7754821999999999,0.63516235,3.7632446
6.0953827,-7.673522999999999,-0.6758728,-0.5070342999999999,0.81625366,3.4916077000000003
6.306076,-7.778869599999999,0.104644775,-0.32168579999999997,1.0325011999999998,3.2082367
7.314025999999999,-8.513900999999999,0.6361541999999999,-0.35043335,1.1592712,2.9728088
8.113693,-9.093292,1.1485138000000001,-0.6796112,1.2530059999999998,2.8023682
8.499161,-9.0190735,1.4118805,-1.1845398,1.3531494,2.670288
9.389801,-9.442841,0.916275,-1.6415404999999998,1.5661926000000002,2.5030365000000003
9.851883,-9.9552,0.36082458,-1.8972015,1.8218689,2.2793273999999997
10.0961,-9.794785000000001,0.5379944000000001,-1.9707031000000004,1.9699402,2.0215302
11.013077000000001,-9.5529785,0.7175598000000001,-1.8524628,1.8889770000000001,1.7605438000000002
11.8701935,-9.14357,0.76304626,-1.5477905,1.5651398,1.5432281
12.662674,-8.430099499999999,0.93782043,-1.1504517,1.1209258999999998,1.3695983999999999
13.275589000000002,-7.7956389999999995,0.75346375,-0.6412505999999999,0.63516235,1.1586761
13.311507999999998,-7.230606,0.116607666,-0.029800415,0.153656,0.91685486
12.72493,-6.519516,-0.90571594,0.49963379999999996,-0.24688720000000003,0.6068573
11.791183,-5.724655,-2.1123962000000005,0.8479767,-0.547287,0.24467468
10.883789,-4.9632874000000005,-2.6247559,0.96728516,-0.7795105,-0.098342896
10.488739,-4.4054413,-2.2225189999999997,0.93107605,-0.92225647,-0.43922424
10.43367,-3.969696,-1.2385101,0.81069946,-0.9425049000000001,-0.8749237
10.397766,-3.7661896,-0.5465850999999999,0.55822754,-0.8860321,-1.3372498
10.41452,-3.7207031,-0.14196777,0.25569153,-0.7038727,-1.7931824
10.383392,-3.6321106,0.25787354,0.046905518,-0.28948975,-2.219284
10.428894,-3.6823883,0.34165955,0.050094604,0.153656,-2.507965
10.82872,-3.7518309999999997,0.48532104,0.24824524,0.43063354,-2.6784057999999997
11.168700999999999,-3.3232574,0.76304626,0.5411835,0.4316864,-2.8222197999999996
11.693024000000001,-2.992859,0.2554779,0.7936554,0.15791321,-2.9894714
12.296371,-3.0239868,-0.63516235,0.93000793,-0.20852661,-3.2472687000000002
12.686615,-3.4405822999999995,-1.6191864,0.98327637,-0.56858826,-3.5029296999999997
13.426422,-4.218689,-2.2967377,1.009903,-0.84661865,-3.6627197
14.587616,-5.03273,-2.3350525,1.0248108,-1.0213318,-3.7223663
14.872527999999999,-5.3918610000000005,-2.234497,1.0120392,-1.0564879999999999,-3.6861572
15.372910000000001,-6.4141846,-2.0070495999999998,1.0056458000000001,-0.97232056,-3.6115875
15.825424,-7.915344,-1.4970856000000001,1.0280151,-0.8263855,-3.5167693999999994
15.313065,-8.767685,-0.65193176,1.0780792,-0.6687316999999999,-3.3697662000000004
14.546921,-9.2608795,-0.09408569,1.1345367,-0.54196167,-3.1652374
13.778381,-9.071747,0.020843506,1.1931305,-0.40240479999999995,-2.9319458
13.26123,-8.681488,-0.29998779999999997,1.2666321000000003,-0.27137756,-2.6784057999999997
13.653870000000001,-8.980758999999999,-0.91290283,1.359314,-0.22984314,-2.379074
13.6610565,-9.368622,-1.0948486000000002,1.4157715,-0.24368286,-2.0680084
13.091232000000002,-9.701416,-0.7764281999999999,1.3699646,-0.29481506,-1.7580261000000001
12.46875,-10.149139,-0.29759216,1.1920624,-0.42584229999999995,-1.4331207000000001
11.645142,-10.256866,-0.005493164,0.88313293,-0.5898895000000001,-1.0911713
10.682678,-9.900131,0.3656006,0.4964447,-0.66659546,-0.7162018
9.557404,-9.201035000000001,0.73431396,0.106552124,-0.6772461,-0.29647827
8.214249,-8.389389,1.0599213,-0.29185486,-0.594162,0.12750244
6.9142,-7.5634003,1.1963959,-0.71902466,-0.37045288,0.5099182
6.0331269999999995,-7.015121499999999,1.1365356000000002,-1.1387329,-0.07749939,0.8944854999999999
5.3962708,-6.6631775,0.9617614999999999,-1.4966583,0.21971129999999997,1.319519
4.7785645,-6.332779,0.7486725000000001,-1.7246245999999998,0.44447327,1.7914429
4.613373,-6.2202454000000005,0.31054688,-1.8002625,0.5744324000000001,2.2814636000000004
4.531967,-6.0358887,-0.29040527,-1.7821503,0.5733795,2.7597656
4.244659400000001,-5.724655,-0.92726135,-1.7267609,0.5265045,3.2306060000000003
4.201568599999999,-5.614517,-1.5282135000000001,-1.5957336000000002,0.43807983,3.6865387000000003
4.342819,-5.834778,-1.8610077,-1.315567,0.23675537,4.0327606
4.421829,-6.016739,-1.7508698,-0.89160156,0.06417847,4.15419
4.740265,-6.3040465999999995,-1.5042572,-0.37068176,0.10784912,4.028487999999999
5.219101,-6.553039599999999,-1.2768097,0.17047119,0.26338196,3.7078552000000005
5.470489499999999,-6.8140106,-0.929657,0.5667572,0.44660950000000005,3.3339385999999998
5.638091999999999,-7.206664999999999,-0.5178528,0.70736694,0.5776366999999999,3.0495148
6.0187683,-7.8028107,-0.019851685,0.5987091,0.67137146,2.8524475
6.6053467,-8.427703999999999,0.48771667,0.21308899,0.8535309000000001,2.7033080000000003
7.3164215,-8.700638,0.7367096,-0.4132843,1.155014,2.5818634
8.415359500000001,-9.282425,0.6194,-1.0833435,1.5033417,2.4519043
9.689072,-9.787613,0.6098175,-1.5829468,1.7962952,2.2782592999999998
10.869415,-9.519455,0.9234619000000001,-1.7970734,1.9060211,2.0737305
12.406494,-8.846695,1.2011871,-1.7065276999999999,1.7483520000000001,1.874527
13.866959,-8.274475,1.2538605,-1.3464661,1.3765869,1.6817168999999998
14.748032,-7.472411999999999,1.1078033,-0.8127594,0.8503417999999999,1.4079437
14.810272,-6.811615,0.30096436,-0.20982361,0.3486023,1.0958252
14.008224499999999,-6.380661,-0.9942931999999999,0.32707214,-0.048736572,0.78157043
13.079269,-5.815628,-2.1243591,0.6743469,-0.34062195,0.45027159999999994
12.293975999999999,-5.1524353,-3.0197906000000003,0.8000488,-0.54515076,0.09767151
11.482330000000001,-4.5131836,-3.6973572,0.74464417,-0.6452941999999999,-0.26664734
10.874207,-3.9361725,-3.6422882000000003,0.56036377,-0.6261139,-0.6693268
10.618027,-3.5626830000000003,-2.8833313,0.24397278,-0.43756104,-1.1082153000000001
10.515075999999999,-3.3903046000000003,-1.8753662,-0.14164734,-0.092422485,-1.5023651000000002
10.397766,-3.3160858,-0.86979675,-0.41648865,0.28788757,-1.7942352
10.474380499999999,-3.2825623,-0.053375244,-0.42927550000000003,0.7384949000000001,-1.9987793000000003
11.053772,-3.1460876,0.37278748,-0.19277954,0.9270476999999999,-2.0499115000000003
11.365021,-2.719925,0.48771667,0.10017395,0.74061584,-1.9753418000000003
11.436844,-2.3009338,0.21476746,0.35583496,0.37950134,-1.9284668000000003
11.807953,-2.4158630000000003,-0.6543274,0.5933838,-0.16804504,-1.9721375
12.497482000000002,-2.8851318,-1.6072083000000001,0.8117675999999999,-0.7539520000000001,-2.1447144000000002
13.409668,-3.8045044000000003,-2.3470306,0.9971161000000001,-1.1757965,-2.4057007
14.518188,-4.869919,-2.7229156000000003,1.0908661,-1.3888397,-2.6794738999999996
15.030548000000001,-5.5881805,-2.7731934,1.056778,-1.4314575,-2.9319458
14.381714,-5.7270355,-2.514618,0.9438629000000001,-1.3494263000000002,-3.126892
13.543747,-6.1460266,-1.7724151999999997,0.79045105,-1.1331787,-3.2440643
13.301926000000002,-7.3120117,-0.9895171999999999,0.65304565,-0.7997588999999999,-3.3047942999999997
12.305939,-7.697464,-0.31434629999999997,0.57847595,-0.4503479,-3.2866821
11.525436000000001,-7.7860565,-0.41490173,0.57847595,-0.12330627400000001,-3.2025146
11.621201,-7.853088400000001,-0.88417053,0.6477050999999999,0.15898132,-3.0608367999999997
11.647537,-7.228210400000001,-0.9607849,0.7563629,0.3773651,-2.8701630000000002
12.100037,-6.833160400000001,-0.7524871999999999,0.88952637,0.49986267,-2.6656342
12.7512665,-7.084549000000001,-0.31913757,1.0439911,0.5062561,-2.4206237999999995
13.148697,-7.606491,-0.20181274,1.1760864,0.3805542,-2.1170197
13.270798000000001,-8.224197,-0.35743713,1.2112427,0.14300537,-1.7654724
13.007446,-8.703033,-0.30236816,1.1143036,-0.12863159,-1.3574829
12.425644,-8.978363,-0.11802673,0.8969879000000001,-0.35127258,-0.9015503
11.513458,-8.908936,0.12619019,0.6125641,-0.5014801,-0.44348145
10.132004,-8.3510895,0.5044708,0.29084778,-0.5568695,0.01777649
8.767319,-7.75972,0.7007904,-0.09690857,-0.52171326,0.53974915
7.598938,-7.16835,0.76304626,-0.5549774000000001,-0.43544006,1.0862273999999998
6.5454865,-6.6679688,0.6529083000000001,-1.0630951000000002,-0.27244568,1.5826416
5.7362519999999995,-6.227432299999999,0.43025208,-1.571228,-0.115859985,2.0364532
5.0203857,-5.9161835,0.18603516,-2.0271605999999998,-0.017852783,2.4732056
4.2207184,-5.564239499999999,-0.13238525,-2.4031982000000003,0.08868408,2.9323425
3.5024567,-5.257782,-0.69262695,-2.6535492,0.09187317,3.4447327000000003
2.8536377,-4.9608917,-1.2720337,-2.7771149,0.0087890625,3.9166412000000004
2.5280151,-4.9465330000000005,-1.6934052,-2.765396,0.0023956299,4.280959999999999
2.6788635,-5.1260986,-1.8753662,-2.5608673,-0.005065918,4.4812317
3.227127,-5.5259247,-1.9328308,-2.174179,0.03541565,4.4332886
3.6006165,-6.004776000000001,-2.0692901999999997,-1.6734924,0.25805664,4.1286316
4.1345367,-6.4069977,-2.1794279999999997,-1.1941223,0.56803894,3.6450042999999996
5.0012360000000005,-6.7589417,-2.1674652,-0.8734894,0.8556671,3.0889282000000002
5.7218933,-6.919357300000001,-1.8514252,-0.7595062,1.093216,2.5989075
6.9716644,-7.692688,-1.4898987,-0.82447815,1.2562103,2.2697449
8.477615,-9.157928,-1.190628,-1.0119629,1.3084106000000002,2.098236
9.370650999999999,-9.981537,-0.5968628,-1.2473907,1.3382263,2.017273
10.668304,-10.637558,-0.07014465,-1.3912048000000001,1.3701934999999998,1.9245911
12.29158,-11.295959,0.33926392,-1.3720245,1.3052063,1.7403107
13.4192505,-10.922455000000001,1.0407715,-1.2548523,1.0665893999999998,1.4953003
14.484665,-9.950409,1.6656647,-1.075882,0.7438201999999999,1.3205871999999999
15.380096,-8.894577,2.0487366000000002,-0.81596375,0.42849729999999997,1.2268523999999998
15.490234,-7.534667999999999,2.0559081999999997,-0.5262146,0.21971129999999997,1.1011505
15.138275,-6.3519287,1.3975066999999999,-0.25349426,0.13768005,0.8763733
14.276367,-5.5283203,0.28181458,0.0032348633000000003,0.15258789,0.56425476
12.729721000000001,-4.728668,-0.67108154,0.28871155,0.19734192,0.203125
11.053772,-4.0846252,-1.1331635,0.564621,0.19094849,-0.16970825
9.660355000000001,-3.521988,-1.2193604,0.7659607,0.12063599,-0.5393677
9.076157,-3.1101837000000003,-0.79078674,0.85543823,-0.023178099999999997,-0.8972931000000001
9.222214,-2.8204803,-0.21858215,0.81921387,-0.17231749999999998,-1.2168732
9.538239,-2.5523376,-0.07252502400000001,0.68074036,-0.18083191,-1.5258026000000002
9.555008,-2.6696472,-0.039016723999999996,0.57315063,-0.06472778,-1.8027648999999997
9.576553,-2.9378052,0.31054688,0.5475769,0.21118164,-1.9998322
10.151154,-3.1125792999999997,0.6074219,0.5710144,0.44660950000000005,-2.0605621
10.955612,-2.9785004,0.6529083000000001,0.6413269,0.5286255,-2.04245
11.575714,-2.6169738999999996,0.50686646,0.75743103,0.44235230000000003,-2.0168762
12.025818,-2.4781036,0.43025208,0.93533325,0.14086914,-2.0019683999999995
12.598038,-2.854004,-0.0030975342,1.1419983,-0.35980225,-2.0403137
13.153488000000001,-3.6823883,-0.7596741,1.3443909,-0.87965393,-2.1425781
13.625153,-4.5562744,-1.4731445,1.5361481000000001,-1.2631378,-2.2917175
13.914841000000001,-5.456497,-1.9112854,1.63414,-1.4932404,-2.4120939999999997
14.125534,-6.153213500000001,-2.0908508,1.6309508999999998,-1.5880432,-2.4600372000000004
14.362564,-6.7828827,-1.6958008000000002,1.5595856000000001,-1.520935,-2.4472504
14.324248999999998,-7.7549285999999995,-1.2983704,1.4839478000000002,-1.3494263000000002,-2.391861
13.416854999999998,-7.991958599999999,-1.2193604,1.425354,-1.1725922,-2.3023682
12.997864,-8.343903,-1.4276427999999999,1.3603668,-0.9989624,-2.1915894000000002
12.789566,-8.468399,-1.6479186999999997,1.3103027,-0.849823,-2.0712128
12.145522999999999,-7.8291473,-1.4970856000000001,1.279419,-0.74116516,-1.9476471000000002
11.702606,-7.170746,-1.2409058000000002,1.2346802,-0.6964264,-1.8016968
11.697815,-7.079772999999999,-1.0158539,1.1590424,-0.6953583000000001,-1.614212
11.784011999999999,-7.249756,-0.50587463,1.0493164,-0.71665955,-1.3798523
11.343475,-7.407775999999999,-0.24012756,0.89805603,-0.74967957,-1.122055
10.51268,-7.4508667,-0.11802673,0.68925476,-0.769928,-0.8227234
9.629227,-7.316787700000001,0.063934326,0.40164185,-0.7752533,-0.44454956
8.685913000000001,-6.890625,0.3249054,0.022399902000000003,-0.7198639,-0.016311646000000003
7.6683655,-6.239395,0.5906677,-0.41223145,-0.5621948,0.39167786
6.8495482999999995,-5.7030945,0.56910706,-0.84898376,-0.3012085,0.73043823
6.365921,-5.415801999999999,0.45419312,-1.2292786,0.016235351999999998,1.0287018
6.057068,-5.298477,0.37039185,-1.4806823999999998,0.33688354,1.2801056
5.6955566,-5.2481995,0.17167664,-1.5637816999999998,0.59254456,1.5027466
5.425003,-5.322418,-0.09408569,-1.5179749,0.77363586,1.7509613000000002
5.187973,-5.4948120000000005,-0.32632446,-1.4157104,0.87590027,2.1003722999999996
5.0706635,-5.5929720000000005,-0.55137634,-1.2900085,0.8769684000000001,2.4604187
4.958130000000001,-5.679153400000001,-0.78601074,-1.1834717,0.81944275,2.6947784
4.8025208,-5.8371735000000005,-1.0397949,-1.0886688,0.7523346,2.7565612999999995
4.941375700000001,-6.162781,-1.2911834999999998,-0.99386597,0.68522644,2.7448425
5.3124847,-6.332779,-1.2480774,-0.86709595,0.65859985,2.6979827999999997
5.982849,-6.428543,-0.8626251,-0.64338684,0.7565918,2.5829315
6.624496499999999,-6.768524,-0.3622284,-0.34617615,0.97283936,2.3805237
7.347549400000001,-7.2689056,0.17886353,-0.107559204,1.2327728,2.0811919999999997
7.9604645000000005,-7.6088867,0.7678375,-0.07347107,1.4447632,1.8020935000000002
8.494369500000001,-8.099701,1.1365356000000002,-0.23326111,1.5960236,1.6390991000000001
8.417755,-8.456436,1.1700591999999999,-0.4132843,1.6130676000000002,1.5805206
8.635635,-8.57135,1.110199,-0.54219055,1.5299835,1.5837097
9.686691,-8.6719055,0.7223358,-0.69558716,1.4277191,1.5379028000000001
10.94603,-8.329544,0.33688354,-0.93634033,1.3084106000000002,1.4377746999999999
11.393753,-7.4772034,0.24589539,-1.1547089,1.1645966,1.347229
11.489517,-6.7373962,0.35842896,-1.1589813,0.97817993,1.302475
11.788788,-6.294464,0.6864319000000001,-0.91716003,0.68629456,1.2683868
11.949203500000001,-5.7102814,0.88993835,-0.54325867,0.3539276,1.22258
12.085678,-5.154831,0.3751831,-0.11395264,0.06097412,1.126709
11.64035,-4.740631,-0.74050903,0.27912903,-0.16804504,0.9552002
10.601272999999999,-4.4389650000000005,-1.8418427,0.61361694,-0.32997129999999997,0.69207764
9.492752000000001,-3.9768830000000004,-2.1052093999999997,0.78619385,-0.45993042,0.40020752
8.657181,-3.4333953999999998,-1.9256438999999999,0.75531006,-0.55900574,0.12643433
8.525497,-3.1652527000000004,-2.021408,0.58699036,-0.6175995,-0.15266418
8.551834,-3.0479279,-2.3159027,0.3164215,-0.56433105,-0.47331238
8.599716,-3.1436919999999997,-2.2871704,-0.015945435,-0.40560913,-0.78756714
8.705063,-3.4309998,-1.5042572,-0.30889893,-0.1797638,-1.0943604
9.068985000000001,-3.7805633999999997,-0.4699707,-0.48680115,0.19839478,-1.374527
9.509506,-3.9577332000000003,0.102249146,-0.5208893,0.49667358,-1.4810486
10.048202499999999,-3.8404083,0.36082458,-0.39944458,0.5957489,-1.4640045
10.778442,-3.7015532999999996,0.104644775,-0.12780762,0.48602295,-1.4522858
11.669083,-3.617752,-0.33110046,0.27166748,0.081222534,-1.4949036
12.279602,-3.7853394000000002,-1.202591,0.71162415,-0.5227814000000001,-1.6664124
12.791962,-4.297699,-2.162674,1.0546417,-1.1150665000000002,-1.9060974
13.345032000000002,-4.874709999999999,-2.6127777,1.2687683,-1.5273285,-2.123413
13.998642000000002,-5.451706,-2.6702423,1.3486633,-1.7158813000000002,-2.315155
13.886107999999998,-5.609726,-2.3613892000000005,1.2953948999999998,-1.7638245,-2.46109
13.838226,-5.8970337,-1.7867737000000001,1.1451874,-1.6540985000000001,-2.5921326000000002
13.981888,-6.833160400000001,-1.2672424,0.98220825,-1.4176024999999999,-2.6975860000000003
12.880554,-7.1970825,-0.6902313,0.85118103,-1.1374358999999998,-2.7476501
12.013855,-7.508331299999999,-0.2760315,0.7787323,-0.84768677,-2.7369995
11.707397,-7.4939575,-0.017471313,0.76382446,-0.5898895000000001,-2.6709595
11.467972,-6.890625,0.17407227,0.7659607,-0.4077301,-2.5612334999999997
11.812729,-6.466858,0.25308228,0.7712859999999999,-0.277771,-2.4195557
12.080886999999999,-6.318405,0.020843506,0.78619385,-0.21492004,-2.2416534
12.092865,-6.471634,-0.036621094,0.80537415,-0.22770691,-2.012619
12.123978,-6.8307649999999995,-0.06295776,0.78193665,-0.31079102,-1.726059
11.7313385,-6.9983673,-0.12519836,0.6764679,-0.3949585,-1.3851776000000002
11.506271,-7.2090607,-0.1850586,0.4921875,-0.41944885,-1.0006256
11.046585,-7.1539917,-0.019851685,0.25036620000000004,-0.38642883,-0.5713196
10.117645,-6.7972565000000005,0.25787354,-0.034057617000000005,-0.34594727,-0.072769165
9.092926,-6.4069977,0.46855164,-0.35150146,-0.28630066,0.45985413
8.185516,-6.1987,0.62657166,-0.6455231,-0.21066284,0.9765166999999999
7.3403625,-5.94252,0.5595398,-0.8564453000000002,-0.09774780000000001,1.4590758999999998
6.751388499999999,-5.877884,0.38955688,-1.0034485,0.051391599999999996,1.9171448
6.0905914,-5.8371735000000005,0.29856873,-1.0961303999999998,0.21971129999999997,2.2846527
5.2981110000000005,-5.650421,0.22195435,-1.1440582000000001,0.3805542,2.5200806
4.4745026,-5.420578,0.09027099599999999,-1.1738892,0.44340515,2.718216
3.8807525999999997,-5.329605,-0.13478088,-1.1941223,0.46472168,2.9152985
3.579071,-5.427765,-0.38616943,-1.2239532,0.53289795,3.1081084999999997
3.5383758999999997,-5.743805,-0.5609436,-1.2101135,0.6000061,3.2913360000000003
3.5144347999999996,-6.1651764,-0.6686859,-1.0694885,0.69374084,3.3296813999999997
3.823288,-6.665572999999999,-0.7668457,-0.71902466,0.8556671,3.116623
4.390716599999999,-6.9792175,-0.52264404,-0.17466736,1.0367584,2.6766662999999995
5.226287999999999,-7.285675,0.087875366,0.27380370000000004,1.1816406000000002,2.1994324
5.875122,-7.4532623,0.51405334,0.36755370000000004,1.2828369,1.8393707
7.1296843999999995,-7.8818207,0.7391052,0.17260742,1.3744507,1.6327209999999999
8.580566000000001,-8.391785,0.83247375,-0.12567139,1.4309082,1.5389709999999999
9.310791,-8.401367,0.81092834,-0.38665770000000005,1.4479523,1.4665375
10.009903,-8.619232,0.7462920999999999,-0.614624,1.4575348,1.3642731000000001
10.876602,-8.959213,0.57629395,-0.89797974,1.4703217,1.2311096000000001
11.463181,-8.894577,0.6289673000000001,-1.2186278999999998,1.4639282,1.1394958
12.34903,-8.396576,0.9569701999999999,-1.425293,1.3883056999999999,1.1320343000000002
13.4982605,-7.695083599999999,1.457367,-1.3773499,1.1752472,1.1522827
14.422409,-6.6679688,1.8715668,-1.0449982,0.8013458000000001,1.1331023999999998
14.099197,-5.6623993,1.1916046,-0.53260803,0.37950134,1.0319061
12.700989,-5.0111694,-0.53460693,0.0032348633000000003,0.03967285,0.8763733
11.269257000000001,-4.594589,-1.8849487,0.47940063,-0.18936157,0.6718445
10.084122,-4.175598,-2.4380034999999998,0.87461853,-0.34275818,0.37356567
9.353897,-3.6129608,-2.3542023,1.122818,-0.45993042,0.04121399
8.918152000000001,-3.028778,-2.1722412,1.1792755,-0.59521484,-0.28263855
8.683517,-2.7007751,-2.349411,1.0162964,-0.7113341999999999,-0.6085968
8.408188,-2.7702026,-2.5098267000000005,0.60723877,-0.67085266,-0.9260559000000002
8.204680999999999,-3.1413116000000003,-2.1483002,0.108688354,-0.49827576,-1.2030181999999998
8.333953999999999,-3.5387419999999996,-1.2337189,-0.31422424,-0.19148254,-1.4320526000000002
8.997162,-3.8284453999999997,-0.11802673,-0.5549774000000001,0.22183228,-1.5801239
9.969208,-3.854782,0.54278564,-0.5954437,0.47430420000000006,-1.600357
10.541412,-3.5076141000000005,0.6720581,-0.48252870000000003,0.5446167,-1.5801239
11.048981,-3.2634125,0.43264769999999997,-0.2801361,0.39120483,-1.6120758
12.0282135,-3.3998718,-0.019851685,-0.052169799999999995,0.054595947,-1.7154082999999998
12.9140625,-3.9505462999999996,-0.98472595,0.18325806,-0.31292725,-1.8570862000000001
13.376144,-4.517975,-1.9615631000000002,0.41122437,-0.6218566999999999,-2.0030365000000003
13.869354000000001,-5.116516000000001,-2.7588196,0.58273315,-0.86473083,-2.1202087000000005
13.938782000000002,-5.4660797,-3.3334349999999997,0.7009734999999999,-1.0628662,-2.2043762000000005
13.512619,-5.4900208,-3.1131743999999997,0.7510376,-1.1704712,-2.2533722000000003
13.464737,-6.177154499999999,-2.4212493999999998,0.7648925999999999,-1.1811218,-2.2863922000000003
13.155884,-7.058212299999999,-1.5497589,0.773407,-1.08844,-2.3023682
12.164688,-7.189895599999999,-0.62080383,0.8181609999999999,-0.9329071,-2.2778777999999997
11.8941345,-7.539459,-0.16590881,0.92681885,-0.7795105,-2.1937103
11.81752,-7.367065400000001,-0.027038574,1.0674286,-0.67085266,-2.0616301999999997
11.822311000000001,-6.873871,-0.06535339,1.2133636,-0.6165314000000001,-1.9050293000000003
11.939621,-6.780487,0.080703735,1.3316193,-0.6080017,-1.7580261000000001
12.023422,-6.974426299999999,0.32250977,1.3987273999999998,-0.65701294,-1.6046295
11.843857,-7.1922913,0.3751831,1.4008483999999999,-0.78697205,-1.4299164
11.587677000000001,-7.441284,0.42306520000000003,1.3028563999999998,-0.91693115,-1.2264556999999998
11.154327,-7.539459,0.48292542,1.0866089,-1.0128021,-0.9761200000000001
10.582123,-7.4149475,0.66967773,0.7659607,-1.0543518,-0.69169617
9.753722999999999,-6.933716,0.9641571,0.36116028,-1.0021514999999999,-0.39981079999999997
8.805617999999999,-6.519516,1.3280792,-0.10116577,-0.8285216999999999,-0.12922668
7.7617493,-6.153213500000001,1.6512909,-0.5794678000000001,-0.53131104,0.13601685
6.868713400000001,-5.789291400000001,1.6872101000000002,-1.0226288000000001,-0.20426941,0.41085815
6.3084717,-5.6552124,1.5243988000000002,-1.3933411,0.18028260000000002,0.6739807
6.013977,-5.506775,1.165268,-1.6724396000000001,0.53715515,0.9999541999999999
5.6644287,-5.3200226,0.7295227,-1.8428802,0.8450165000000001,1.4015503
5.43219,-5.2122955,0.2842102,-1.8972015,1.0548706,1.8383026000000002
5.355575599999999,-5.257782,-0.22097778,-1.8609924,1.0761718999999998,2.2313994999999998
5.178406,-5.219467,-0.71177673,-1.8173065,1.0367584,2.5680084
5.365158,-5.4828339999999995,-1.1762542999999999,-1.7470093,0.98776245,2.925949
5.8248444,-5.88266,-1.4037018,-1.521164,0.887619,3.243393
6.476058999999999,-6.3040465999999995,-1.3103333000000001,-1.0950623,0.7512665,3.3829498
6.990814,-6.799652,-0.97753906,-0.48252870000000003,0.56378174,3.2891998
7.1727753,-7.091736,-0.5561676,0.20243835,0.3731079,2.9387207
7.428955,-7.4436800000000005,-0.08689880000000001,0.6455841,0.2601776,2.5030365000000003
7.184738,-7.6495820000000005,0.40631104,0.6679535,0.34541320000000003,2.1621552000000004
7.246994,-8.370239,0.7965698,0.3707428,0.631958,1.9245911
7.357132000000001,-8.853867,1.1197815,-0.12567139,0.96965027,1.7530823
7.694702,-8.772461,1.3424377,-0.6412505999999999,1.3009491000000002,1.6156768999999997
8.470428,-8.846695,1.0862578999999999,-1.026886,1.572586,1.5048828
8.729004,-8.698242,0.9617614999999999,-1.266571,1.7707366999999998,1.4207306
9.181503,-8.250534,1.4477844,-1.3752289,1.8261261000000002,1.3408356000000001
10.347488,-7.6352234,1.9290161,-1.2761536,1.6119995,1.2460175
11.693024000000001,-6.897811999999999,2.10141,-0.94059753,1.141159,1.1309813999999998
12.997864,-6.033493,1.9242401000000002,-0.5027771,0.5755005,1.0414886
13.368973,-5.315246599999999,0.78219604,-0.09051514,0.12277222,0.98609924
12.7512665,-5.0758209999999995,-0.9655761999999999,0.25675964,-0.13183594,0.8678589
11.75528,-4.6280975,-2.0716858,0.5241394,-0.25965879999999997,0.64733887
10.663513,-4.008011,-2.6199646,0.71055603,-0.29055786,0.35333252
9.78006,-3.5507202000000007,-2.610382,0.7563629,-0.31611633,0.02949524
9.080948,-3.2705994,-2.0932312,0.6434479000000001,-0.36512756,-0.28369140000000004
8.683517,-3.2131347999999997,-1.5713043,0.38992309999999997,-0.41305542,-0.5766449
8.561417,-3.3065032999999997,-1.2456969999999998,0.021331787,-0.37364197,-0.8695984
8.669144000000001,-3.3376312000000006,-0.72135925,-0.36428833,-0.2000122,-1.1273803999999998
9.116867,-3.49086,-0.13478088,-0.66363525,0.07696533,-1.3148803999999998
9.50473,-3.6871796000000003,0.073516846,-0.7861328000000001,0.49986267,-1.4224701000000002
9.823151,-3.8332367,-0.039016723999999996,-0.6870575,0.76831055,-1.4011536
10.330719,-3.6656342000000004,-0.15153503,-0.43992615,0.7981415,-1.3159332000000001
11.032227,-3.3280487,-0.37898254,-0.12460327,0.5733795,-1.2957001
11.721756,-3.2658080000000003,-0.8338928,0.25250244,0.062042235999999994,-1.4022217
12.255661,-3.4812775,-1.6024323,0.611496,-0.5526123000000001,-1.5982361
12.868576,-4.055893,-2.4691315,0.90657043,-1.0373077,-1.8027648999999997
13.366577,-4.891464,-2.9743042,1.0940552,-1.3366394,-1.9817352
13.701767000000002,-5.554657,-3.0078278,1.1515808,-1.4527588,-2.1319275
13.414458999999999,-5.7773285,-2.4068756000000002,1.1601105,-1.4559631000000002,-2.2640228
13.086456,-6.301651000000001,-1.6048278999999999,1.1899261,-1.361145,-2.3929138
12.8302765,-7.1492004,-0.76205444,1.2698212,-1.1757965,-2.489853
11.958786,-7.386230499999999,0.047180176,1.3934021,-0.9797821,-2.507965
11.520645,-7.6088867,0.36082458,1.5105743,-0.81147766,-2.46109
11.525436000000001,-7.3790436,0.24110413,1.598999,-0.6878966999999999,-2.3769379
11.760071,-6.7828827,0.24589539,1.6533203,-0.6527405,-2.2427216
12.174255,-6.557831,0.18603516,1.6778258999999998,-0.68045044,-2.0499115000000003
12.380157,-6.715851,0.22195435,1.6437378,-0.74967957,-1.8421783
12.253264999999999,-6.878647,0.40391540000000004,1.5308228000000002,-0.8285216999999999,-1.6323242
11.965958,-7.072586,0.37757874,1.3305511,-0.8764495999999999,-1.391571
11.477554,-7.065399,0.52601624,1.0503844999999998,-0.9105377,-1.1018219
10.965195,-6.9672394,0.91867065,0.67541504,-0.91586304,-0.7779845999999999
10.175094999999999,-6.7900696,1.3017426,0.22799683,-0.8210601999999999,-0.46052550000000003
8.992371,-6.4620667,1.5196075,-0.23751831,-0.6410216999999999,-0.17610168
7.9413146999999995,-6.04068,1.4070892,-0.7360687,-0.34062195,0.09660339
7.1895294000000005,-5.719864,1.0479584000000002,-1.2409973,0.011978148999999999,0.37356567
6.514374,-5.492416400000001,0.6098175,-1.6766968,0.32730103,0.66226196
5.934966999999999,-5.439743,0.30815125,-1.999466,0.6191864,0.9775696
5.630905,-5.3894652999999995,-0.058166504,-2.1805573,0.901474,1.3205871999999999
5.5327454000000005,-5.363128700000001,-0.43405150000000003,-2.2274323,1.0814972,1.7019501
5.324447599999999,-5.360733,-0.81951904,-2.1805573,1.1251831,2.0822601
5.01799,-5.300873,-1.0924683000000002,-2.0921478,1.0793761999999998,2.430603
5.0395355,-5.487625,-1.3270874,-1.9600525000000002,0.9792328000000001,2.7597656
5.365158,-5.743805,-1.4659576,-1.7342224,0.8279724,3.0101013
5.9613037,-5.949707,-1.2839966,-1.3901367,0.6745758000000001,3.1091766
6.5335236,-6.404602,-1.1499176000000002,-0.93634033,0.6031951999999999,3.0282134999999997
6.7394257,-6.7517548,-0.92726135,-0.46762085,0.5701752,2.8066406
6.777725,-6.988785000000001,-0.34307859999999996,-0.23539734,0.5957489,2.5957183999999995
6.9094086,-7.4652405,0.2052002,-0.32806396,0.711853,2.447647
7.208678999999999,-8.142792,0.7798004,-0.6689606,0.9206542999999999,2.3570862
7.0602417,-8.322357,1.3807526,-1.0449982,1.2157288,2.2867889999999997
7.2805176,-8.568954,1.6896057,-1.2346039,1.5001526,2.1504364
7.8575134,-8.693466,1.7039642,-1.3059844999999999,1.7046814,1.9480286
8.343536,-8.588119500000001,1.7542419999999999,-1.3858795,1.8016205,1.7743988000000002
9.138411999999999,-8.274475,2.015213,-1.4572448999999998,1.7632751,1.6561432
10.541412,-8.011108,2.1804047000000004,-1.3848114,1.522522,1.5187378
11.910903999999999,-7.6232452,2.1684417999999996,-1.1579131999999999,1.1347656000000002,1.3376312
12.885345,-6.9959717,1.9745177999999999,-0.8788147,0.7565918,1.1916962
12.789566,-6.416580000000001,0.85401917,-0.58374023,0.50520325,1.0841063999999998
12.097641000000001,-5.9329376,-0.44602966,-0.3035736,0.37950134,0.9264374
11.247711,-5.322418,-1.2768097,-0.05003357,0.26763916,0.69847107
10.460007000000001,-4.6951447,-1.329483,0.20137024,0.08868408,0.39167786
10.225388,-4.055893,-0.5322113,0.49858093,-0.12757874,0.012451172
10.0434265,-3.4142455999999997,-0.12280273400000001,0.7936554,-0.44288635,-0.36679077
9.564575,-3.0503235,-0.33349609999999996,0.8991089,-0.7305145000000001,-0.76945496
9.04744,-2.9665222,-0.5681305,0.75849915,-0.8444976999999999,-1.122055
9.138411999999999,-2.9234313999999997,-0.35264587,0.46235657,-0.6964264,-1.3660126
9.775269,-3.0455322,-0.036621094,0.09378052,-0.29055786,-1.4554901000000002
10.074539,-3.1365203999999998,0.032806396,-0.20663452,0.10998535,-1.4288635
10.290024,-3.1053925,0.15492249,-0.26202393,0.36778259999999996,-1.4235229999999999
10.998702999999999,-3.035965,0.20280457,-0.09690857,0.31877136,-1.4512329
11.843857,-3.1053925,-0.06774902,0.18965149,-0.008255005,-1.5353851
12.863785,-3.3519897000000003,-0.39335632,0.5454406999999999,-0.49615479999999995,-1.707962
13.957947,-3.8523864999999997,-0.70939636,0.8905945,-0.93078613,-1.9124908
14.580429,-4.460510299999999,-0.92007446,1.1835327,-1.2823181000000001,-2.0957183999999995
14.858154,-5.2553864,-1.4252625,1.3571777,-1.4943084999999998,-2.2565612999999995
14.443970000000002,-5.640854,-1.7987518,1.425354,-1.5816497999999999,-2.3993073
14.005829,-6.2298279999999995,-1.7700195,1.4487915,-1.5742035,-2.4834747000000004
13.316298999999999,-6.893020599999999,-1.6814422999999998,1.4700928,-1.4772644,-2.489853
12.530991,-7.132446300000001,-1.3103333000000001,1.5286865,-1.3483582,-2.4152985
12.693802,-7.558609,-0.56333923,1.6021881000000002,-1.2333221,-2.2736053
12.550156,-7.4436800000000005,0.028030396000000003,1.6543883999999998,-1.1757965,-2.0744019000000002
12.23172,-6.993575999999999,0.32011414,1.6756897000000002,-1.1598053,-1.8581543000000003
12.365799,-6.735000599999999,0.6170044,1.6639709999999999,-1.1896361999999998,-1.6749268
12.420867999999999,-6.804428,0.8947296,1.5968628,-1.2674103,-1.5183411
12.097641000000001,-6.9456940000000005,1.1628723,1.4445343000000002,-1.375,-1.3777161
11.616408999999999,-7.0989227,1.158081,1.216568,-1.5134735000000001,-1.2285919
11.017868,-7.0342712,1.1197815,0.93852234,-1.56781,-1.0549469
10.127213000000001,-6.902603,1.2730103000000002,0.6626281999999999,-1.4623413,-0.8770447
9.035461,-6.6248627,1.45018,0.43145752,-1.3153381000000002,-0.6693268
7.993988000000001,-6.3160095,1.6488953000000002,0.18751526,-1.0841827,-0.4701233
7.093765299999999,-6.071808,1.6752319,-0.09158325,-0.7049408,-0.322052
6.3707123,-5.774933,1.3879242,-0.41967773,-0.21598816,-0.17610168
6.0331269999999995,-5.6193085,0.98091125,-0.7626953000000001,0.32836914,0.024169922000000003
6.045105,-5.4660797,0.5906677,-0.9906616,0.81411743,0.30220032
6.088196,-5.300873,0.24110413,-1.046051,1.2114716,0.6356201
6.1384735,-5.145248400000001,-0.18026733,-0.96829224,1.4277191,0.9647979999999999
6.3204346,-5.2290497,-0.5609436,-0.8031769,1.4309082,1.2470856000000001
6.732239,-5.6001434,-0.6686859,-0.6306,1.3861694,1.5059508999999998
7.1871339999999995,-6.033493,-0.28321838,-0.48252870000000003,1.2860413,1.7605438000000002
7.246994,-6.2633514,0.40631104,-0.31954956,1.1273041000000001,1.9096832
7.661194,-6.713455000000001,0.6098175,-0.14378357,1.0133209,1.9363098
8.21904,-7.089339999999999,0.6576996,0.0074920654,0.98883057,1.9043578999999997
8.23819,-7.1492004,0.74150085,0.08099365,1.0229187,1.8681335
7.8647003,-7.2808839999999995,0.7558594,0.073532104,1.1251831,1.8532256999999999
7.414581299999999,-7.417342999999999,1.0862578999999999,0.002166748,1.2807007,1.9022217000000001
7.3068542,-7.8578796,1.426239,-0.12567139,1.4021454,1.9970398
7.139251700000001,-7.697464,1.5674896,-0.29824829999999997,1.3872375,2.048172
7.431350699999999,-7.297638,1.3927155,-0.41648865,1.3382263,2.000229
7.934128,-7.048645,0.9234619000000001,-0.45376587,1.1891022,1.9267273
8.089752,-6.565017699999999,0.42546082,-0.5262146,1.1177216,1.841507
8.815201,-6.2130585,0.16448975,-0.804245,1.1827087,1.7083435000000002
9.813583,-5.928161599999999,-0.010284424,-1.2580414,1.1560669,1.5826416
10.397766,-5.719864,-0.21858215,-1.5446014,1.0506133999999998,1.4910278000000001
10.357056,-5.370300299999999,-0.6184082,-1.4263611,0.91000366,1.3951569
10.024261,-5.0758209999999995,-1.0661316,-1.0886688,0.65859985,1.2822418
9.509506,-4.9010468000000005,-1.3677979,-0.77015686,0.34114075,1.0681305
8.934906,-4.5562744,-1.65271,-0.47508240000000007,0.036483765,0.8209839
9.114471,-4.40065,-2.143509,-0.20556639999999998,-0.23728943,0.6228484999999999
9.588516,-4.0750427,-2.258438,-0.03086853,-0.48762512,0.42790222
9.416138,-3.3735352,-1.9783172999999998,0.0181427,-0.6868286,0.23402405
9.492752000000001,-3.1053925,-2.059723,-0.097976685,-0.76353455,0.011383057
9.887802,-3.1844025,-2.8019257,-0.3621521,-0.69322205,-0.23362732
9.914139,-3.4214325,-3.5728607000000006,-0.61569214,-0.48762512,-0.47224426
10.048202499999999,-3.7063292999999997,-3.072464,-0.74990845,-0.24900818,-0.6469574
10.59169,-3.8069,-1.487503,-0.7009125,-0.059387207000000004,-0.76626587
10.953217,-3.6153564,-0.5465850999999999,-0.44737244,0.027954102,-0.9058075000000001
11.592467999999998,-3.5387419999999996,-0.7453003,-0.06707764,-0.08177185,-1.0975647
12.250869999999999,-3.6632385000000003,-0.953598,0.32600403,-0.37364197,-1.3308563
12.624374000000001,-4.0534973,-1.0541534,0.63705444,-0.7305145000000001,-1.5396423000000001
13.079269,-4.5419160000000005,-1.3701934999999998,0.8714142,-1.0085449,-1.7090148999999997
13.409668,-4.9273834,-1.6119995,1.0375976999999998,-1.1832428,-1.8911743000000003
13.598816000000001,-5.008789,-1.7221375,1.0876617,-1.2578125,-2.0722810000000003
13.488678,-4.9752655,-1.7173462,1.0514526000000002,-1.2386475000000001,-2.2235412999999995
13.51741,-5.432556,-1.3223114,1.0141601999999998,-1.1342468,-2.3513794
13.187012,-5.9353333,-0.6064453000000001,1.0301361,-1.0000305,-2.4387207
12.811111,-6.2753143,0.20040894,1.1015167,-0.8860321,-2.489853
12.684219,-6.4261475,0.9234619000000001,1.2016448999999998,-0.8018799,-2.5239409999999998
12.337067,-5.9544983,1.3496246,1.3017883,-0.80615234,-2.5718842
12.0354,-5.537903,1.2778015,1.3571777,-0.8402405000000001,-2.6038360000000003
11.963577,-5.80365,0.8636017,1.3422698999999998,-0.86579895,-2.553772
11.860626,-6.1005400000000005,0.63375854,1.2762146,-0.89775085,-2.3822632
11.922867,-6.27771,0.7151642,1.1643677,-0.9510193000000001,-2.1638947
11.7313385,-6.375869799999999,0.54278564,0.9800719999999999,-0.9797821,-1.9614868000000003
11.139969,-6.294464,0.4517975,0.6679535,-0.94036865,-1.7175446
10.481552,-6.11969,0.6098175,0.16195679,-0.7741852,-1.3660126
9.578949,-5.7414093,0.9521941999999999,-0.46762085,-0.41305542,-0.95054626
8.803223,-5.3846739999999995,1.21315,-1.0726928999999998,0.04925537,-0.51060486
8.2573395,-5.2242584,1.2203369,-1.5882721000000002,0.5478058000000001,-0.06637573
8.072998,-5.123703,1.0216216999999999,-1.9398193,0.96751404,0.38955688
7.9604645000000005,-5.250595,0.5906677,-2.060196,1.2807007,0.8497466999999999
7.563034,-5.427765,0.19801329999999998,-2.0069275,1.5150603999999999,1.2715912
6.990814,-5.674377400000001,-0.050979614000000006,-1.8162383999999998,1.4937592,1.6231232
6.753784,-5.839569,-0.21618652,-1.4732361,1.2114716,1.9096832
7.007568400000001,-5.9880066,-0.582489,-1.0790863000000002,0.9025421,2.1717377
7.079391499999999,-6.234619,-0.9942931999999999,-0.6465911999999999,0.5541991999999999,2.41568
6.875885,-6.6823273,-1.4898987,-0.08518982,0.19094849,2.5658875
6.677169999999999,-7.0270996,-1.65271,0.73399353,-0.09986877400000001,2.5136871
6.540710400000001,-7.1348267000000005,-1.1499176000000002,1.6256256000000002,-0.31079102,2.2399139999999997
6.478454599999999,-7.400589,-0.4699707,2.1326904,-0.3331604,1.9128723
6.215088,-7.5011444,0.35842896,2.0506592,-0.14567566,1.6902313000000002
6.2797394,-7.821975699999999,1.2562561,1.4445343000000002,0.20904541,1.6508179
6.610138,-8.324753,1.8524017,0.5188141,0.5733795,1.76268
6.8615265,-8.264892999999999,2.1109772,-0.5283356,1.014389,1.9480286
7.460083,-8.106873,2.3096924,-1.5701752,1.5150603999999999,2.098236
8.058624,-7.7501373,2.0487366000000002,-2.3659209999999997,1.9219971000000002,2.1653442000000003
8.448883,-7.031875599999999,1.8356476000000002,-2.7696533,2.160614,2.1866455
9.389801,-6.4692383,1.7159423999999999,-2.7824402000000004,2.0231934,2.1387177000000004
10.924484,-5.9927980000000005,1.8643798999999999,-2.3882904,1.5406342,2.0460358
12.21257,-5.281723,1.6800232,-1.5126495,0.81092834,1.9341887999999998
12.356216,-4.95372,-0.13478088,-0.37493896,-0.080703735,1.7786560000000002
11.451217999999999,-4.9082184,-2.6439056,0.5699463,-0.78590393,1.5304413000000001
9.938080000000001,-4.546707,-4.700531,1.1153563999999998,-1.1608733999999998,1.1970215
8.702667,-4.2522125,-5.885650599999999,1.2389374,-1.2705993999999998,0.84654236
8.161575,-4.1420746,-6.1897125,0.96302795,-1.1757965,0.53974915
7.9652557,-3.9720917,-5.885650599999999,0.42080688,-0.92225647,0.25
7.972442599999999,-3.8212585,-4.5760193,-0.29824829999999997,-0.6133270000000001,-0.047210693
8.104111,-3.9194183,-2.8043213,-1.01091,-0.33529663,-0.3263092
8.547042999999999,-4.06308,-1.5090485,-1.5009308000000001,-0.012527466000000001,-0.57025146
9.243758999999999,-4.1875763,-0.46757507,-1.6213073999999998,0.376297,-0.76838684
10.002716,-4.0151825,0.8851471,-1.3070526000000002,0.56803894,-0.89941406
10.924484,-3.5411377,1.7255096,-0.68600464,0.44979858,-1.0389709999999999
12.078491,-3.277771,0.89712524,0.0032348633000000003,-0.03276062,-1.3020935
13.06012,-3.4070587,-0.74050903,0.57847595,-0.6452941999999999,-1.6898499
13.469528,-3.5531006,-2.1698456000000004,0.9886017,-1.1033478,-2.1287384
13.481491,-3.6919708,-3.5297546000000004,1.235733,-1.40802,-2.5271453999999998
13.682602,-3.9625092000000004,-4.243225,1.3284148999999998,-1.5560913,-2.8786774
13.783157000000001,-4.122925,-4.4036406999999995,1.2975311,-1.5955048,-3.1822814999999998
13.694579999999998,-4.467697,-3.7141113,1.1963196000000003,-1.4676666,-3.4326171999999997
14.060898000000002,-5.628875700000001,-2.435608,1.0812683,-1.1928406,-3.6137085
14.123138,-6.723037700000001,-0.8889618,1.0045776,-0.835968,-3.7394104
13.682602,-6.993575999999999,0.79177856,1.0301361,-0.5249176,-3.8299559999999997
13.459945999999999,-6.7852783,1.7949523999999997,1.1377411,-0.36512756,-3.8171844
13.565292000000001,-6.0191345,1.8691711,1.2634277,-0.38536072,-3.7159730000000004
14.12793,-5.772537000000001,1.3017426,1.3603668,-0.46525574,-3.55513
14.396072,-5.88266,0.88275146,1.4626465,-0.5664673000000001,-3.2738953
14.075256,-6.071808,0.7151642,1.5638428,-0.723053,-2.9223632999999998
13.8741455,-6.59375,0.44940186,1.5478668,-0.8743286,-2.5718842
13.574875,-7.024703999999999,0.28181458,1.3518523999999998,-0.89242554,-2.1990355999999998
13.194182999999999,-7.4532623,0.26026917,1.0205536,-0.76779175,-1.7590941999999998
12.387344,-7.534667999999999,0.39193726,0.58592224,-0.54515076,-1.2605438
11.369812,-7.355102499999999,0.51882935,0.0884552,-0.29588318,-0.6980896
10.407333,-7.041458,0.76065063,-0.43460083,-0.07749939,-0.11752319
9.150391,-6.842743,0.82528687,-0.91929626,0.21757507,0.41297913
8.06102,-6.598526,0.6289673000000001,-1.268692,0.5222473,0.96691895
7.381073,-6.591354400000001,0.26983643,-1.4732361,0.74168396,1.5655975
6.5335236,-6.677536,0.18843079,-1.6063843,0.8769684000000001,2.1035614
5.7673798,-6.562622,0.2339325,-1.6724396000000001,0.92277527,2.5041046000000002
5.360367,-6.265732,-0.06774902,-1.6266327,0.88975525,2.7799987999999995
5.17601,-6.153213500000001,-0.6471405,-1.4945374,0.78323364,3.036728
5.0227814,-6.313629,-1.1235808999999999,-1.3177032,0.6415558000000001,3.3105010000000004
4.9054565000000006,-6.4860077,-1.4300385,-1.1014556999999998,0.56378174,3.5150300000000003
4.5535125999999995,-6.5099487,-1.5545349,-0.8063812,0.5936127,3.5864105000000004
4.3308563,-6.560226400000001,-1.4994812,-0.35682678,0.6766968000000001,3.453247
4.7929379999999995,-6.7278137000000005,-1.1331635,0.18112183,0.75553894,3.196518
5.0203857,-6.9169617,-0.36462402,0.61468506,0.7629852,2.9557648
5.444153,-7.436508,0.27702332,0.8224181999999999,0.7214508000000001,2.7927855999999998
6.160019,-7.917739999999999,0.6026305999999999,0.8309325999999999,0.6980133000000001,2.6819916
7.0626373,-7.8722534,0.83247375,0.61468506,0.7075958000000001,2.6170197
8.333953999999999,-8.099701,1.026413,0.16835022,0.7992096,2.5541687
9.262909,-8.252930000000001,1.1149902,-0.46336365,1.0133209,2.4913177
9.827942,-8.068572999999999,1.1030273000000002,-1.2548523,1.2839049999999999,2.433792
10.859848,-7.965622,1.0359802,-1.9547272,1.4692535,2.3570862
12.164688,-7.958435000000001,0.9282379000000001,-2.2050629,1.4586028999999998,2.260147
13.345032000000002,-7.4580535999999995,1.0934448,-1.9866791000000001,1.2551421999999999,2.1408386000000004
13.728104,-6.586563000000001,1.0982361,-1.4615173000000001,0.901474,1.8937073
13.155884,-5.913787999999999,0.3129425,-0.7531128,0.5062561,1.4846344
11.898926,-5.264969000000001,-0.85543823,-0.02659607,0.1259613,0.9850310999999999
10.855057,-4.640075700000001,-1.6958008000000002,0.6413269,-0.11691284,0.45452879999999996
10.132004,-4.1564483999999995,-2.471527,1.2144318,-0.37045288,-0.044006348
9.940475,-3.854782,-3.2975159,1.488205,-0.6399689000000001,-0.5063324
10.009903,-3.5435333,-3.9319916,1.3188323999999998,-0.8072052,-0.9537505999999999
10.045822,-3.4477692,-4.465896599999999,0.773407,-0.8221283000000001,-1.2988892
10.124817,-3.5842285000000005,-4.0947876,0.19177246,-0.5994873000000001,-1.5460358
10.596480999999999,-3.854782,-2.3589935,-0.19491577,-0.29801940000000005,-1.6696014
11.116028,-3.9026642,-0.47236633,-0.37387085,-0.102005005,-1.6994324
11.927658000000001,-3.5890197999999995,0.6217804,-0.39837646,-0.031692505,-1.7708130000000002
12.923645,-2.9689178,1.1820374,-0.38986206,-0.16271973,-1.8975677
13.737670999999999,-2.463745,1.1006316999999999,-0.40795898,-0.39068604,-2.0616301999999997
14.546921,-2.5116272,0.3751831,-0.41116333,-0.6229248000000001,-2.265091
15.147858,-2.9617462000000003,-0.47955322,-0.35150146,-0.8125305,-2.4760132
15.413620000000002,-3.8284453999999997,-1.9256438999999999,-0.23751831,-0.9254608,-2.6911926
15.432770000000001,-4.4509277,-3.5920105,-0.107559204,-0.9478302,-2.857376
14.965897,-4.898651,-4.736435,0.044769287000000005,-0.8764495999999999,-2.9575042999999996
14.709717000000001,-5.7414093,-4.5401154,0.27593994,-0.76672363,-2.9766846
13.974701000000001,-6.246582,-3.3382263,0.6200104000000001,-0.7006836,-2.8989257999999998
13.424026500000002,-6.723037700000001,-2.3901215000000002,1.009903,-0.7273102,-2.7423248
13.4767,-6.9911804,-1.7963561999999997,1.4168396,-0.835968,-2.5356598
13.167847,-6.5290985,-1.6143951,1.7630463,-0.99468994,-2.3172912999999995
13.0242,-6.3279877,-1.5305939,1.9505310000000002,-1.1459656,-2.138321
13.273193,-6.555435000000001,-1.1547089,1.9547881999999999,-1.2450409,-1.9721375
13.213348000000002,-6.792464999999999,-0.47236633,1.8184357,-1.3089447,-1.7953033
13.002655,-7.0031586,0.2052002,1.5968628,-1.328125,-1.5801239
12.423264,-7.2473600000000005,0.71995544,1.2815398999999998,-1.2705993999999998,-1.3287201000000002
11.580505,-7.407775999999999,1.1772461,0.85224915,-1.1534271,-1.0613403000000001
10.550995,-7.4652405,1.7087555,0.3153534,-0.9233245999999999,-0.8173981
9.224609,-7.3000336,2.2929382,-0.22579956,-0.5430298000000001,-0.60754395
7.88385,-6.799652,2.5251770000000002,-0.6732178000000001,-0.11053467,-0.3582611
7.021942,-6.490799,2.5227814,-1.0087738000000002,0.29747009999999996,-0.06958008
6.4593050000000005,-6.205887000000001,2.2163239,-1.2772217,0.66604614,0.24253845
6.337204,-5.9832152999999995,1.45018,-1.4295502,0.995224,0.62924194
6.191147,-5.7581635,0.63375854,-1.4135742,1.2572784,1.0830383
6.078628500000001,-5.6193085,-0.0030975342,-1.2388763,1.3329010000000001,1.5166016000000002
6.011581400000001,-5.561844000000001,-0.39814758,-0.99172974,1.2902985,1.8372498
6.0977783,-5.7342224,-0.8314971999999999,-0.77015686,1.2306366000000002,2.1248627
6.2007294,-5.750992,-1.2169647,-0.52301025,1.1827087,2.4071655
6.51915,-5.827605999999999,-1.3318787,-0.22047424,1.1219788,2.556305
6.9980009999999995,-6.047867,-0.9727478,0.17260742,1.0250397,2.5083618
7.0698240000000006,-6.3591156,-0.35983276,0.5891266,0.86312866,2.3176727
7.012359599999999,-6.735000599999999,0.22914124,0.88739014,0.69055176,2.1429749
6.945327799999999,-7.072586,0.5379944000000001,0.9971161000000001,0.61279297,2.0279236000000003
6.6628112999999995,-7.412567,0.96655273,0.8490448,0.66178894,1.9608153999999998
6.4952087,-7.7980347000000005,1.6417236000000002,0.46022034,0.84820557,1.907547
6.705902,-7.764511,2.1109772,-0.09051514,1.1006775,1.8521576000000002
7.72583,-7.7501373,2.1157684,-0.75523376,1.3829803,1.8702698
8.333953999999999,-7.503539999999999,1.6249542,-1.3997191999999998,1.6386414,1.9885101000000003
8.705063,-7.1180725,1.3663788000000001,-1.9004058999999998,1.7771148999999997,2.1227417
9.751327499999999,-6.641632,1.153305,-2.206131,1.7440948,2.1642761000000004
11.14476,-6.1460266,0.83247375,-2.2817688,1.5310516,2.1291199
12.133560000000001,-5.628875700000001,0.25068665,-2.126236,1.20401,2.1003722999999996
12.200592,-5.408615,-0.85783386,-1.7810974,0.83010864,2.0140839
11.685837,-5.140457,-1.9376221000000002,-1.3304901000000002,0.45939636,1.792511
10.809569999999999,-4.652054,-2.9551543999999996,-0.7754821999999999,0.19520569,1.4793091
9.978775,-4.043915,-3.8027038999999996,-0.11502075,-0.0029296875,1.1235198999999998
9.351500999999999,-3.459732,-4.2456207,0.41654968,-0.15953064,0.71232605
8.61647,-3.2873535000000005,-4.4970093,0.67541504,-0.27883909999999995,0.28089905
7.9077910000000005,-3.4166412000000004,-4.236053500000001,0.5710144,-0.3565979,-0.14521789999999998
7.802444500000001,-3.8116760000000003,-3.443573,0.11294556,-0.25860596,-0.5074005
8.393814,-4.0032196,-2.555313,-0.37068176,-0.028503418,-0.7236481
9.250946,-4.2641907,-1.6383362,-0.5752106,0.27189636,-0.8365630999999999
9.911743,-4.5299377,-0.62319946,-0.46655273,0.41891480000000003,-0.8781128
10.673096000000001,-4.517975,0.2889862,-0.13418579,0.27403259999999996,-0.92178345
11.693024000000001,-4.0534973,0.7869873000000001,0.2546234,-0.040222167999999996,-1.0538788000000001
12.56691,-3.6345062000000006,1.1173859,0.5752716,-0.4972229,-1.2275238000000002
13.194182999999999,-3.193985,1.457367,0.773407,-0.94569397,-1.4224701000000002
14.080048000000001,-3.3400269000000002,0.6983948,0.91615295,-1.2599486999999998,-1.6759949
14.90126,-3.7661896,-0.7668457,1.0397339,-1.4634094,-1.9519043000000003
15.370514000000002,-4.359955,-2.258438,1.0812683,-1.5582274999999999,-2.2001037999999995
14.867737,-4.7358400000000005,-3.3310394,1.0248108,-1.5273285,-2.4131622000000004
13.747253,-5.020752,-2.909668,0.947052,-1.4133453,-2.58786
13.311507999999998,-5.8371735000000005,-1.5138397,0.91722107,-1.2354431000000001,-2.7444610000000003
12.700989,-6.2178497,-0.35264587,0.9236145,-1.0437011999999999,-2.854187
12.542969,-6.268127400000001,0.30815125,0.93640137,-0.87112427,-2.8989257999999998
12.823089999999999,-6.0813904,0.18365479,0.9704895,-0.74967957,-2.8776092999999996
12.581268,-5.5019836,-0.15872192,1.0237578999999999,-0.7038727,-2.7849426
12.432831,-5.322418,-0.47955322,1.0770111,-0.6964264,-2.6432648
12.897308,-5.5809937000000005,-0.3550415,1.0706177,-0.7017517,-2.4845276000000003
13.20137,-5.846756,0.0040893555,0.98220825,-0.7305145000000001,-2.3045044
13.06012,-6.189117400000001,0.08547974,0.80963135,-0.7752533,-2.0786743000000003
12.72493,-6.43573,0.097457886,0.55503845,-0.7773895000000001,-1.8027648999999997
12.272414999999999,-6.6296539999999995,0.25068665,0.27593994,-0.7145385999999999,-1.5162048000000001
11.788788,-6.7254179999999995,0.60502625,0.022399902000000003,-0.6356963999999999,-1.2307128999999999
10.82872,-6.5482483,0.89712524,-0.23432922,-0.5195923,-0.9239197
9.679504,-6.2753143,0.9426117,-0.48146057,-0.3203888,-0.5958251999999999
8.654785,-5.9784393,0.94740295,-0.6977234,-0.10093689,-0.275177
7.8503264999999995,-5.8563232,0.8588104,-0.9118347,0.12277222,0.047607422
7.4050139999999995,-5.930557299999999,0.70318604,-1.0790863000000002,0.33474729999999997,0.39913940000000003
7.134460400000001,-5.990402,0.37278748,-1.1238251,0.5158539000000001,0.7943573
6.713089,-5.865906,0.037597656,-1.0066376,0.63516235,1.1916962
6.260589599999999,-5.7653503,-0.29519653,-0.7989196999999999,0.6266326999999999,1.5272522
6.011581400000001,-5.8970337,-0.53700256,-0.7115630999999999,0.59680176,1.7403107
5.9397583,-6.086166400000001,-0.5274353,-0.79785156,0.58935547,1.9373778999999998
6.0714417,-6.1939087,-0.23773193,-0.9299469000000001,0.6053314000000001,2.1696014
6.361145,-6.608108500000001,-0.12998962,-1.0002594,0.6639252,2.3624267999999997
6.590988,-7.005539,-0.027038574,-0.9576415999999999,0.78749084,2.4795990000000003
6.808853,-7.173141499999999,0.21237183,-0.82022095,0.91744995,2.5509644000000002
6.768158000000001,-7.2138367,0.32730103,-0.6593628,0.981369,2.5935822
6.4521180000000005,-7.189895599999999,0.5092621,-0.5496521,0.9664611999999999,2.6212769000000002
6.5502777000000005,-7.5490265,0.7869873000000001,-0.51982117,0.8972167999999999,2.6830597000000003
6.808853,-7.6424103,1.1700591999999999,-0.6274109,0.8002776999999999,2.8215485
7.223053,-7.1108856,1.2849883999999998,-0.86602783,0.70866394,2.8801422000000003
8.266922000000001,-6.9313199999999995,0.42546082,-1.1845398,0.727829,2.8343353
8.714644999999999,-6.794861,-0.6184082,-1.4987946,0.87057495,2.7384644000000002
8.784073,-6.67276,-0.9368439000000001,-1.7629852,1.0740508999999998,2.6095580000000003
9.234177,-6.562622,-0.5896759,-1.8897552,1.2402343999999998,2.4689484
9.938080000000001,-6.438125599999999,-0.07014465,-1.7853546000000002,1.2306366000000002,2.3262023999999997
10.357056,-6.260956,0.16688538,-1.4487305,1.0420837,2.1525574
10.400162,-5.997589,0.016052246000000003,-0.9842681999999999,0.758728,1.8670653999999998
10.311569,-5.750992,-0.56573486,-0.534729,0.46258545,1.556015
10.199050999999999,-5.748596,-1.032608,-0.09477234,0.19520569,1.3141937
9.784851,-5.6360626,-1.5473633,0.27380370000000004,-0.001876831,1.0564117
9.904556,-5.329605,-1.8969116000000001,0.48258972,-0.14887999999999998,0.74002075
10.110458,-4.7382355,-1.9040985000000001,0.45703125,-0.26605225,0.41511536
10.148773,-4.158844,-1.5353851,0.24824524,-0.26605225,0.049728394
10.196655,-3.8595580000000003,-1.0733032,-0.0031585693,-0.22557068,-0.35293579999999997
10.155945,-3.7590027000000004,-0.5202484,-0.2875824,-0.16271973,-0.6842345999999999
10.306778,-3.8045044000000003,0.15969849,-0.5560303000000001,-0.0072021483999999995,-0.8887634
10.838303,-3.9074553999999995,0.66967773,-0.61250305,0.23461914,-1.0464325
11.863007000000001,-3.6847839999999996,0.892334,-0.39305115,0.39227295,-1.1636046999999998
12.38974,-3.4046629999999998,0.5906677,3.0517577999999997e-05,0.32197570000000003,-1.2594756999999999
12.281998,-3.0000457999999997,0.3129425,0.49005127,0.07908630000000001,-1.421402
12.5381775,-2.7510529,-0.14196777,0.9928589,-0.34701538,-1.6248627
13.110397,-2.7247162,-1.0780945,1.4935303,-0.8775177,-1.8325957999999998
13.747253,-3.0934142999999996,-2.1818237000000003,1.8663788000000001,-1.34198,-1.993454
14.616348,-3.6895752,-3.0461272999999998,2.046402,-1.6732634999999998,-2.1319275
15.128708,-4.1564483999999995,-3.0126037999999995,2.0389404,-1.8330536,-2.344986
14.357773000000002,-4.3503723,-2.3805389999999997,1.9015349999999998,-1.8277283,-2.5314026000000003
13.392914000000001,-4.948929,-1.6551056,1.7044525000000001,-1.6711426,-2.6592407000000002
13.347412,-6.102936,-0.6758728,1.647995,-1.7148131999999998,-2.792389
13.014617999999999,-6.3974150000000005,0.54756165,1.9377441000000002,-1.9310608,-2.6762848
12.768021000000001,-6.478821,1.1221771,2.396881,-2.1813965,-2.2746735
13.062515,-6.6440277000000005,1.2778015,2.6440125,-2.3209534,-1.8112793000000003
12.681824,-6.3303833,1.0096436,2.8517456,-2.3880615,-1.5215302
12.246094,-6.162781,0.98809814,3.0488129,-2.2730102999999997,-1.4150085
12.025818,-6.5410767,0.679245,2.8943480999999998,-1.9640808,-1.3851776000000002
11.855835,-6.665572999999999,0.20280457,2.5673217999999998,-1.8245392,-1.215805
12.159897,-6.8140106,-0.13717651,2.269043,-1.9140167000000001,-0.9207306000000001
11.879776,-7.084549000000001,-0.19703674,1.870636,-1.8170776000000002,-0.62138367
11.053772,-7.273697,-0.015075683999999999,1.2091063999999998,-1.5007019,-0.42004395
9.933289,-8.099701,0.3177185,0.36860657,-0.99575806,-0.36891174
7.632461500000001,-8.975967,1.9338074,-0.54325867,-0.30760193,-0.44136047
5.7985077,-8.813171,3.2530212000000005,-1.4678955,0.46151733,-0.3497467
4.7666015999999996,-7.9991455,2.580246,-2.2796326000000002,1.1837616000000002,-0.02909851
5.152069,-7.520294,2.3336487,-2.8016205000000003,1.6780548,0.32563782
5.8056792999999995,-6.7517548,2.3839264,-3.0604706000000004,1.9432983,0.5770416
6.2773438,-6.339966,0.5954437,-3.1105347,2.0200043,0.7432251
5.568664599999999,-6.318405,-0.6471405,-2.9337006000000003,1.9038848999999998,0.9530791999999999
4.8384247,-6.35672,-0.9033203000000002,-2.5470123,1.5843048,1.2641296
5.140091,-6.1484222,-1.384552,-2.0505980999999998,1.2104034,1.5496216
6.088196,-5.928161599999999,-2.4332123,-1.5584563999999999,0.88868713,1.7488251
7.321213,-5.9880066,-3.0341644,-1.1451263,0.7022705,1.8905028999999998
8.367477000000001,-6.550644,-3.2137298999999997,-0.77867126,0.5797576999999999,2.0194092
7.993988000000001,-7.625641000000001,-3.1347197999999996,-0.3855896,0.549942,2.0897064
6.8136444,-8.482773,-2.6558685,0.044769287000000005,0.6522064000000001,1.9767914
6.1552430000000005,-8.92569,-1.4156799,0.39311218,0.8311615,1.6785126
6.227066000000001,-9.033432000000001,-0.28321838,0.46981812,0.9707184000000001,1.4026184
6.9812316999999995,-9.493117999999999,0.28181458,0.23757935,1.1166534,1.2620087
7.179962,-9.780426,0.94021606,-0.19703674,1.2988129,1.2651978000000002
6.859131,-9.574524,1.7997284,-0.7360687,1.4852448,1.3131409
7.4816284,-9.517059,2.2283020000000002,-1.3272858,1.6801758000000002,1.3738556
8.286072,-8.858658,2.233078,-1.7555237000000001,1.8495636000000002,1.4367065
8.77449,-8.032653999999999,1.9529572,-1.8844147,1.9198608,1.5016937
8.733794999999999,-6.9911804,1.8045197,-1.8641815,1.8367767,1.5432281
8.985184,-6.150818,1.7973328000000002,-1.8364868000000003,1.635437,1.5858459999999999
10.0434265,-5.415801999999999,1.6848145,-1.6308899,1.3190613000000002,1.6934357
11.111237,-4.632889,0.94740295,-1.186676,0.9472809000000001,1.7637482
10.943634,-4.204330400000001,-0.5585479999999999,-0.661499,0.53608704,1.6934357
10.081726,-4.139694,-2.076477,-0.15443420000000002,0.1259613,1.5368347
8.961243,-3.9361725,-2.95755,0.34304809999999997,-0.23410034,1.3621368
8.305237,-3.6680297999999993,-3.2759705,0.7755432,-0.56858826,1.1203156
7.917373700000001,-3.5100097999999997,-3.3238525,0.98539734,-0.81785583,0.83695984
7.524719,-3.4309998,-2.5888367000000003,0.90231323,-0.90841675,0.5269623000000001
7.452896000000001,-3.4956512,-1.2792052999999999,0.56036377,-0.8732605,0.077423096
7.776108,-3.593811,-0.75727844,0.14277649,-0.8221283000000001,-0.46905518
8.130447,-3.8643494,-0.99668884,-0.14378357,-0.7613983,-0.9058075000000001
8.3172,-4.0702515,-0.4915161,-0.23751831,-0.533432,-1.2168732
9.310791,-4.1420746,0.27702332,-0.14057922,-0.24688720000000003,-1.3713378999999999
10.622817999999999,-3.8451996,0.33209229999999995,0.12147522,-0.12330627400000001,-1.4107513
11.422485,-3.3376312000000006,-0.0007019042999999999,0.35688782,-0.092422485,-1.4586792
11.970749,-2.9378052,-0.29998779999999997,0.49858093,-0.21598816,-1.6237946
12.892517,-2.9665222,-0.8027649,0.6306609999999999,-0.49189758,-1.8677521000000001
13.809494,-3.3855133,-1.8873291,0.8256073,-0.8732605,-2.0839996
14.484665,-3.8499907999999996,-2.8498077,1.0588989,-1.2247925,-2.2959747000000004
15.329819,-4.0463104,-3.4842682000000003,1.155838,-1.454895,-2.4845276000000003
15.605148000000002,-4.1085663,-3.3070983999999997,1.1441193,-1.6391754,-2.6091766
14.992232999999999,-4.654433999999999,-2.2033691,1.5446625,-2.042923,-2.5441895
14.578033,-6.153213500000001,-1.0517578,2.2999419999999997,-2.4945831000000003,-2.3641509999999997
13.670639000000001,-7.1372222999999995,-0.048583984000000004,2.763321,-2.6735535,-2.1585693
13.04335,-7.556213400000001,0.7103729,2.8560027999999997,-2.8674316,-1.6781311
12.686615,-7.4748077,0.55714417,2.9465485,-3.6876830000000003,-0.76945496
12.490295,-6.799652,0.037597656,2.8123322,-4.303406,0.16903687
12.380157,-6.4452972,-0.23054504,2.4022064,-4.1233826,0.7197876
12.157501,-6.6943054,-0.039016723999999996,1.9377441000000002,-3.1838226,0.68037415
12.222137,-7.230606,0.24349976,1.3316193,-1.8820648000000002,0.38635254
11.989914,-7.6112823,0.15731812,0.44317627,-0.7550049,0.18182373
10.826324000000001,-8.087723,-0.22575378,-0.5166168,-0.07005310000000001,0.16584778
9.078552,-8.851471,1.3735657,-1.249527,0.40187073,0.15945435
7.388244599999999,-8.628815,3.3583527,-1.6894836,0.7352905,0.13601685
6.0714417,-8.257721,2.7095337,-1.9025269,0.95047,0.102996826
4.045944,-8.300811999999999,0.42785645,-1.9696349999999998,1.1486206,0.12750244
0.87602234,-8.379822,-0.6184082,-1.8418120999999998,1.3467559999999998,0.15838623
-0.25404358,-7.613678,-2.0166168,-1.6468658,1.6226653999999998,0.14134216
1.3740233999999998,-7.1468050000000005,-3.1011963,-1.4412688999999999,1.7771148999999997,0.21058655
4.3595885999999995,-6.349533,-2.265625,-1.2569733,1.7068176,0.5269623000000001
6.167206,-5.54747,-1.9017028999999999,-1.1046448,1.5704651,0.99035645
6.3467712,-5.377487,-3.1347197999999996,-0.9203644,1.4181213,1.4516143999999997
5.551895,-5.415801999999999,-4.130707,-0.76483154,1.3563385000000001,1.7765198
5.688369799999999,-6.189117400000001,-3.6805877999999996,-0.6338043000000001,1.3488921999999999,1.9554901000000002
5.918213,-6.9648438,-2.5529175,-0.46229553,1.3861694,1.9885101000000003
6.2773438,-7.8937990000000005,-1.2768097,-0.20982361,1.3925629,1.9565582
6.4138184,-8.959213,-0.5202484,0.08418274,1.3680573,1.8926392
6.9142,-9.6870575,0.40870667,0.26315308,1.3819122,1.7317810000000002
7.522323599999999,-9.904922500000001,0.9737396,0.19177246,1.4554138,1.522995
7.416977,-9.976746,1.1413269,-0.06175232,1.569397,1.3248596000000001
6.732239,-10.699799,0.7079773,-0.3312683,1.7259827,1.1842346000000001
6.2414246,-10.994292999999999,0.24829102,-0.5517731,1.874054,1.1565398999999998
6.4593050000000005,-10.819504,0.21476746,-0.77867126,1.9976348999999998,1.1810455
7.3547363,-10.505875,0.12139892599999999,-0.9544524999999999,2.0924377,1.1448212
7.986801,-9.330322,0.092666626,-1.1046448,2.2799225,1.0489502
8.827164,-8.377426,0.13575745,-1.1856079,2.3726043999999997,0.91259766
9.588516,-8.023087,0.063934326,-1.0236816,2.0231934,0.8678589
9.856674,-7.4532623,-0.28800964,-0.6561737,1.2146606000000002,0.9807739
10.251709,-6.735000599999999,-1.166687,-0.20556639999999998,0.38694763,1.0713196000000003
10.189468,-6.105331400000001,-2.3302612000000003,0.12680054,-0.22984314,1.0819702
9.813583,-5.5570526,-2.9192352,0.31214905,-0.59202576,1.0574646
9.576553,-5.3463593000000005,-2.9743042,0.47621155,-0.78590393,1.0116577
8.836746,-4.95372,-2.8354340000000002,0.60723877,-0.9520874,0.9104614
7.9461059999999994,-4.3862915000000005,-3.0030365000000003,0.65730286,-1.1427611999999998,0.6910248000000001
7.649215700000001,-3.8260498,-2.7779846,0.57847595,-1.3504943999999999,0.36611938
7.8383636,-3.5100097999999997,-2.6678467,0.35583496,-1.4154816000000001,-0.016311646000000003
7.9197693,-3.4381866000000003,-2.5601043999999997,0.034118652,-1.2887115,-0.31140137
7.627670299999999,-3.775772,-1.9543761999999998,-0.2598877,-0.9829711999999999,-0.5553435999999999
7.07222,-4.1732025,-1.7939606,-0.31848145,-0.61013794,-0.7470856
7.5941467000000005,-4.443756,-1.7484741000000001,-0.15122986,-0.35980225,-0.8035431
8.515915,-4.6161346,-2.155487,0.07141113,-0.21279907,-0.94522095
9.215027000000001,-4.613739,-2.593628,0.28233337,-0.26712036,-1.1177979
9.928497,-4.596985,-2.5457457999999997,0.47621155,-0.5771179,-1.2690735
10.59169,-4.608947799999999,-2.732483,0.6455841,-1.0628662,-1.405426
11.824707,-5.0159607,-3.206543,0.7212219,-1.4953766000000002,-1.5694733
13.20137,-5.794082599999999,-3.6135559999999995,0.67967224,-1.7808685000000002,-1.7644196
14.082443,-6.6344449999999995,-3.6398926,0.60935974,-1.9044342,-1.8837279999999998
13.699371,-7.005539,-3.0126037999999995,0.73399353,-2.0077667000000003,-1.8933105
13.380935999999998,-7.467621,-2.0716858,1.0684966999999999,-2.1291962000000004,-1.8911743000000003
12.978714,-7.965622,-0.73573303,1.4402618,-2.1451874,-1.9572296000000002
11.769638,-7.6352234,0.3249054,1.6234893999999997,-2.0482483,-2.0030365000000003
11.863007000000001,-7.678314,0.24110413,1.5563812,-1.8788605,-1.9561615
11.57811,-7.355102499999999,-0.1443634,1.4061736999999999,-1.7691497999999999,-1.9124908
10.902939,-6.907379,-0.5992584,1.3507843000000002,-1.7286682,-1.9007721000000002
10.699432,-6.792464999999999,-0.85783386,1.4924621999999999,-1.7744751,-1.8709412
11.0082855,-7.10849,-1.2528687,1.8557281000000003,-1.9438476999999998,-1.7889099
11.187851,-7.42453,-1.2097778000000001,2.061325,-1.9672851999999998,-1.6237946
10.510284,-7.75972,-0.54418945,1.8983307,-1.8149567,-1.3564148
9.461624,-7.8339386,0.9066924999999999,1.2730255,-1.3717957,-0.96333313
8.642807000000001,-7.355102499999999,2.2666016,0.34411620000000004,-0.7241211,-0.69381714
8.348328,-7.0031586,2.8052979,-0.51875305,-0.115859985,-0.5553435999999999
7.7162630000000005,-6.7589417,2.343216,-1.2772217,0.5669860999999999,-0.4754486
6.7035065000000005,-6.4261475,1.2849883999999998,-1.9749756,1.2743225,-0.42750550000000004
6.2557983,-6.04068,0.6529083000000001,-2.5534057999999997,1.9081421000000003,-0.37104797
6.1767883,-6.069412000000001,0.8779601999999999,-2.9454192999999997,2.4397125,-0.23576355
5.7793427,-6.519516,1.560318,-3.0881653,2.8327942000000004,-0.05039978
5.3795166,-7.046249400000001,2.4629211,-2.9156036,2.9169617000000003,0.25
4.9988402999999995,-7.3790436,1.8308563000000002,-2.5811005000000002,2.6921844,0.59620667
4.812088,-7.5538177,0.21716309,-2.1560669999999997,2.0583496,0.9477539
4.812088,-7.221023599999999,-1.6383362,-1.6234283,1.3115997,1.2108765
5.903839,-7.0989227,-3.2807617,-1.1323395,0.79174805,1.3610687
6.8447723,-7.0869446,-3.0916137999999997,-0.8564453000000002,0.51264954,1.4143371999999999
7.4983826,-7.4460754,-2.471527,-0.7350005999999999,0.43701172,1.4154053
7.845550500000001,-8.037445,-2.186615,-0.6327362,0.53608704,1.4239197000000001
7.792877000000001,-8.743744,-1.9232483,-0.5123595999999999,0.6735076999999999,1.3845062
7.419372599999999,-9.411713,-1.329483,-0.44099426,0.81518555,1.2801056
6.969269000000001,-9.778030000000001,-0.7476959,-0.5102234,0.9206542999999999,1.173584
6.4664764,-9.9552,-0.17070007,-0.72753906,1.0133209,1.1192627
6.4377594,-9.900131,-0.23773193,-0.94699097,1.0708466,1.0841063999999998
6.521545400000001,-9.382996,-0.4819335999999999,-1.0918579,1.1656647,0.997818
7.326003999999999,-8.679092,-0.3215332,-1.2463226,1.2370299999999999,0.90727234
8.240585000000001,-7.6208496,-0.38616943,-1.4359436,1.2242431999999999,0.89234924
8.697875999999999,-6.3974150000000005,-0.9416199000000001,-1.5648346000000002,1.1326294,0.9371033000000001
9.246155,-5.7845,-1.3725891000000001,-1.5275573999999998,0.93130493,0.9999541999999999
9.540633999999999,-5.561844000000001,-1.3246917999999999,-1.4572448999999998,0.70866394,1.0297699
9.808792,-5.322418,-1.2145691,-1.4615173000000001,0.4828186,1.1064758
10.026657,-5.0710296999999995,-1.4755402,-1.3997191999999998,0.27189636,1.239624
9.775269,-4.7789459999999995,-2.028595,-1.2218323,0.15791321,1.3120728000000002
8.970825,-4.448532,-2.4619446,-1.1461945,0.32302856,1.3067474
8.175949000000001,-3.921814,-2.2704162999999995,-1.5318146000000001,0.8364868000000001,1.2566681
7.934128,-3.2801666,-1.8083343999999997,-2.3382263,1.3755188,1.1224518
7.6683655,-2.8276672,-1.7460785,-2.9954987,1.5544738999999999,0.7794342
7.1536255,-2.8085175,-1.8442383000000002,-3.1488953,1.4745788999999998,0.20739746
6.837585400000001,-3.119751,-1.6072083000000001,-2.9805756000000003,1.5299835,-0.39128113
6.8735046,-3.2897491000000003,-1.0110626,-2.7291717999999996,1.7994994999999998,-0.83018494
7.558242999999999,-3.577057,-0.91767883,-2.3542023,2.0839233,-1.071991
8.06102,-4.0032196,-1.2217559999999998,-1.8375549,2.0572814999999998,-1.1369781
8.539856,-4.364746,-1.032608,-1.2228851,1.6375732,-1.1231232
9.502335,-4.1492615,-0.6471405,-0.6817321999999999,1.030365,-1.1390991000000001
10.747314,-3.8260498,-0.97753906,-0.30036926,0.4476776,-1.1870421999999998
11.9133,-3.6919708,-2.5960236,0.045837402,-0.09881592,-1.2893066
12.952377,-3.9433594,-4.5449066,0.41868590000000006,-0.49827576,-1.5513611
14.422409,-4.4030457,-4.36055,0.820282,-0.8317108,-1.9433745999999998
15.842178,-4.8100586,-2.301529,1.2666321000000003,-1.1907043,-2.3961182
15.7751465,-4.515579,-0.39335632,1.8216400000000001,-1.2759247,-2.8637695
15.147858,-5.1476440000000006,0.35603333,2.348938,-0.81147766,-3.2259521
14.539734,-6.404602,0.85401917,2.541748,-0.008255005,-3.3527222
13.194182999999999,-6.112503,1.2562561,2.265854,0.94195557,-3.3420715
12.7512665,-5.578598,1.2778015,1.9601134999999998,2.0690002,-3.4485931000000005
13.112793,-5.3918610000000005,0.9497985999999999,1.9633179,3.1704865,-3.492279
12.942795,-4.783722,0.64094543,2.236023,3.9097748,-3.3228912000000004
12.693802,-4.0582886,1.2299194,2.587555,4.281555,-3.1332855
13.335448999999999,-3.8212585,2.2259064,2.843216,4.5393524,-3.0395355
13.934006,-3.8380127,3.1596375,2.825119,4.867447,-2.919159
14.144684,-4.0582886,4.119720500000001,2.427765,5.5460205,-2.5644226000000003
14.465515,-4.455719,5.6376343,1.8674468999999998,6.5036926,-2.186264
14.247635,-5.061447,6.5785675,1.4157715,7.440063499999999,-1.9039612000000001
13.347412,-5.6001434,6.0302887,1.1079101999999998,7.9588470000000004,-1.5726624
13.076874,-5.9784393,4.4357452,1.2261505,7.838470500000001,-1.1721344
14.080048000000001,-5.980835,4.4333496,1.8354796999999998,6.9447174,-0.8504181000000001
14.410445999999999,-5.719864,5.493988,2.4235077,5.516205,-0.6096649000000001
14.178207,-5.660003700000001,6.281677200000001,2.6567993,4.057846,-0.33270264
15.114334,-6.112503,6.315201,2.5939484,2.8040314,0.047607422
16.32341,-6.483612,5.8746643,2.2956696,1.8484955,0.38528442
16.63945,-6.5889587,5.197113,1.8770293999999998,1.1486206,0.49501038
15.629089000000002,-6.416580000000001,4.0502777000000005,1.5329437,0.58935547,0.46945190000000003
15.143066000000001,-6.2130585,3.1668243,1.2389374,0.28681946,0.4033966
15.272354,-6.210678,3.3775177000000003,0.8767395,0.34434509999999996,0.30859375
14.144684,-5.930557299999999,3.4876404,0.48898315,0.48069763,0.26278687
12.274811,-5.166794,4.4453278,0.22799683,0.39120483,0.29367065
10.914916999999999,-4.740631,5.7573547,0.08950806,0.07801819,0.35865784
9.399384,-3.641693,5.146835299999999,0.10336304,-0.21279907,0.35758972
7.3164215,-2.3488312000000002,3.3152617999999996,0.18858337,-0.3331604,0.21377563
5.204742400000001,-1.0176544,1.9625397,0.16195679,-0.3438263,0.09660339
4.1488953,0.15551758,1.0359802,0.034118652,-0.31185913,0.08169556
4.376343,1.3214874,0.6983948,-0.031921387,-0.28416443,0.13282776
4.462539700000001,2.3892975,1.5531311,0.014938354499999999,-0.32997129999999997,0.20739746
4.4098663,3.0285492,2.4677124,0.08099365,-0.36938477,0.24467468
4.424225,3.6031647000000007,2.7813567999999997,0.06713867,-0.31399536,0.19354248
3.9693297999999997,4.026932,2.7598114,-0.047912598,-0.13928223,0.09020996
3.4857025,4.225647,3.09021,-0.22047424,0.013046265,0.034820557
3.155304,4.335785,3.4325867,-0.36109924,0.050323485999999994,0.044403076
3.2774047999999993,4.4674683,4.189148,-0.38879395,0.024765015,0.08062744
3.9837036,4.572815,4.979233,-0.3067627,-0.0466156,0.14347839999999998
3.8041382000000006,4.637451,4.6416473,-0.22900389999999998,-0.059387207000000004,0.20739746
2.9565887,4.7499847,4.0502777000000005,-0.26521300000000003,0.021560668999999998,0.21484375
2.2287445,4.7571715999999995,4.0287323,-0.36535645,0.09187317,0.20739746
1.7666626,4.754776000000001,4.3184357,-0.45164490000000007,0.06843567,0.26171875
1.709198,4.8361816,4.3759003,-0.51768494,-0.039154053,0.33415222
1.9797516,5.113907,4.2226715,-0.51449585,-0.16592407,0.40020752
2.0635529,5.324585,3.9664917,-0.39518738,-0.15739441,0.5141907
1.546402,5.494583,3.7390442000000004,-0.19703674,-0.026367188,0.6313629
0.9454498,5.657379,3.8467712,-0.13845825,0.026885986,0.6004791
0.7658844,5.662170400000001,4.4357452,-0.23539734,-0.15527344,0.5482788000000001
0.55281067,6.0428467,5.1683807,-0.33552550000000003,-0.4269104,0.53230286
0.47619629999999996,6.5432434,5.625671400000001,-0.501709,-0.580307,0.4534607
0.82095337,6.8377229999999996,5.608902,-0.6188812,-0.47804259999999993,0.43109129999999996
1.1010742,7.0843353,5.745376599999999,-0.48573303,-0.3012085,0.5461425999999999
0.7730713,7.3836059999999994,6.336746,-0.24179077,-0.35020447,0.6633300999999999
0.62942505,7.651748700000001,6.932907000000001,-0.0074310303000000005,-0.63464355,0.58343506
0.8544769,7.8959656,7.859451299999999,0.27166748,-1.0223999,0.43748474
0.9430542,8.166504,9.082901,0.611496,-1.4900513000000002,0.47050476
1.388382,8.207214,9.837067,1.0024414000000001,-2.0802002,0.5503998000000001
2.5806885,8.188065,9.422867,1.6160431,-3.0911407000000004,0.59088135
2.7411041000000003,8.537613,8.651947,2.50766,-4.434433,0.8209839
2.5399933,8.616622999999999,9.0182495,3.4696045,-5.316467299999999,1.2193909
3.2558594,8.034836,9.3941345,4.200362999999999,-5.278122,1.7051543999999998
3.4785156,7.065170299999999,9.892136,4.2514954000000005,-4.468521,2.2132874
3.0499572999999995,6.009338400000001,10.653488000000001,3.5324553999999995,-3.2594452,2.6021118
2.9254607999999998,5.0971375,10.433228,2.6088715000000002,-2.3252106,2.7373962000000005
3.6221771,4.5512695,9.226547,1.8887482,-1.8703461,2.831131
3.8256836000000005,4.079605,7.904953,1.103653,-1.4239959999999998,3.0814667
2.8608092999999997,3.102768,6.5115204,0.20669556,-0.86686707,3.277481
2.3508452999999996,2.1762238,5.347946,-0.42288208,-0.50894165,3.3733519999999997
2.4561919999999997,1.6782226999999998,4.7254486,-0.69984436,-0.46418762,3.4564513999999997
1.7187805,1.0748901000000002,4.713470500000001,-0.9118347,-0.5387573,3.4671019999999997
1.139389,0.026229857999999998,4.4596862999999995,-1.1845398,-0.5462189000000001,3.4681702000000003
1.2423401,-1.1780548,3.7007294,-1.4210358,-0.5153350999999999,3.5150300000000003
1.6900482,-1.7359161,1.6249542,-1.5424652,-0.48976135,3.6450042999999996
2.779419,-1.8364716,-1.6335449,-1.4956055,-0.47164917,3.8090515
4.689987,-1.9729308999999997,-3.4962462999999997,-1.475357,-0.41519165,3.7781525
5.786529499999999,-2.051941,-3.2400665,-1.7704315,-0.2735138,3.5608367999999997
5.9062347,-2.0279999,-3.2520293999999996,-2.2774963,-0.10626221,3.5075836000000002
7.2517853,-2.4589539,-3.649475,-2.6482086,0.07482910000000001,3.6748199999999995
9.061798,-2.9282227,-2.6247559,-2.7877655,0.29640198,3.7398071
10.673096000000001,-3.5554962,-1.250473,-2.7888336,0.50413513,3.5906677000000005
12.4496,-4.3815002,-0.9033203000000002,-2.7078705000000003,0.79174805,3.323288
13.481491,-4.6496580000000005,-0.9105072,-2.6087952000000003,1.1816406000000002,3.1027832
13.929214499999999,-5.0303345,-0.29519653,-2.4980164,1.4202576,2.798111
14.501419,-6.0502625,0.33688354,-2.2455444,1.5523528999999998,2.4987793
15.619522,-7.2090607,0.9737396,-1.854599,1.5310516,2.289978
17.252365,-8.0781555,0.9450073,-1.4071808000000001,1.3361053,2.111023
17.965836,-7.9823759999999995,-0.096466064,-0.9821472,1.140091,1.8393707
17.103928,-7.9680176,-0.79078674,-0.69877625,1.0910950000000001,1.5006256000000002
16.12709,-8.501923,-0.32392883,-0.6806793000000001,1.2221222,1.1778412
15.782318,-8.102097,0.54756165,-0.94059753,1.4213257,1.0233765
15.550079,-7.048645,1.1940002,-1.2814789,1.5960236,1.0894318
15.399246,-6.368683,1.5722809,-1.4796143,1.6418304,1.2779846000000001
14.690567000000001,-5.8443604,1.7159423999999999,-1.4444733,1.5853728999999999,1.4633331
14.123138,-5.293686,1.5291901,-1.2133026000000002,1.2572784,1.462265
13.608382999999998,-5.2122955,1.9721221999999998,-0.95018005,0.77363586,1.3504181
12.384949,-4.968078599999999,2.3934937,-0.7392578000000001,0.4540558,1.2183228000000002
11.252487,-4.486847,2.604187,-0.51556396,0.28042603,1.0553436
10.876602,-3.9888458,2.604187,-0.21408081,0.13554382,0.8252411000000001
10.641967999999999,-3.3879089999999996,2.1205597000000003,0.10336304,0.06843567,0.5493469
10.151154,-2.822876,1.0838623,0.32814026,-0.10839844,0.19993591
8.963638000000001,-2.8611908,-0.098861694,0.46661377,-0.33636475,-0.19847107
7.7234343999999995,-3.1029967999999997,-0.632782,0.5454406999999999,-0.47804259999999993,-0.6458893
7.3283997,-3.3615722999999997,-0.37181090000000006,0.6253357,-0.50361633,-1.1561431999999998
7.9197693,-3.7230988,0.15731812,0.6956482,-0.34275818,-1.6568298
9.076157,-3.5866241000000003,0.6672821,0.738266,-0.07537842,-2.0339203
9.983566,-3.1532744999999998,0.7558594,0.8032379,0.13449097,-2.2416534
10.570145,-2.731903,0.54278564,0.93640137,0.23143005,-2.3417816000000005
11.42009,-2.7031707999999997,0.43025208,1.185669,0.14939879999999997,-2.4195557
12.490295,-2.6073914,0.54278564,1.5894012,-0.14141846,-2.5814667
13.450363000000001,-2.6265563999999997,0.37757874,2.0815582,-0.5717926,-2.7764130000000002
14.345795,-2.894699,-0.12998962,2.5832977,-1.0618134,-2.9457855
14.941956,-3.3615722999999997,-0.35743713,2.9593353,-1.4879149999999999,-3.0672302000000005
15.425583,-3.873932,-0.285614,3.063736,-1.7563629,-3.0352783
16.124695000000003,-4.8651276,-0.082107544,2.9444275,-1.8511658,-2.906372
16.641845999999997,-6.1963042999999995,0.0064697266000000005,2.7121887000000005,-1.7904509999999998,-2.7785492
16.18216,-7.2952423,-0.106048584,2.3777008,-1.5763245000000001,-2.6421967
15.174194,-8.025482,-0.13717651,1.9270935000000002,-1.295105,-2.5228882
13.981888,-8.126038000000001,0.07591247599999999,1.4402618,-0.9467620999999999,-2.4291382
12.976318,-7.855484,0.44461059999999997,1.0280151,-0.61439514,-2.3524475
12.600433,-7.726196300000001,1.1700591999999999,0.7371979000000001,-0.3565979,-2.267212
12.413681,-8.042236,1.7255096,0.5486449999999999,-0.17231749999999998,-2.1415252999999996
12.05455,-8.734161,1.912262,0.43252563,-0.09135437,-1.963623
11.515854,-9.220184,1.7686157,0.32600403,-0.08921814,-1.7633514
10.450439,-9.478760000000001,1.0934448,0.20562744,-0.092422485,-1.5577545
9.387405000000001,-9.186661,0.5332031,0.07778931,-0.08282471,-1.3479003999999999
8.875046000000001,-8.583328,0.36082458,-0.051101685,-0.057266235,-1.10289
8.3315735,-7.8578796,0.19082642,-0.19064331,0.010910033999999999,-0.7939606
7.8886414,-7.10849,-0.20899963,-0.34191895,0.09187317,-0.41792297
7.5965424,-6.495575,-0.48672485,-0.52726746,0.16111755,0.013519287
7.3236084,-6.136444,-0.4699707,-0.7563019,0.24847412,0.49819946
7.0147552,-5.94252,-0.23773193,-1.0002594,0.3773651,1.0169983
6.5,-5.7773285,-0.043807982999999995,-1.1429901000000002,0.5254364,1.5059508999999998
5.9804535,-5.576202400000001,0.1405487,-1.122757,0.5797576999999999,1.9629517
5.7745667,-5.5283203,0.080703735,-0.97787476,0.40505979999999997,2.386917
5.7099150000000005,-5.569031,-0.027038574,-0.84898376,0.12809753,2.699051
5.487259,-5.578598,-0.053375244,-0.8319397,-0.047683715999999994,2.9174194
5.35318,-5.712676999999999,0.013656616000000002,-0.7893219,-0.15100098,3.1070404
5.207138,-5.9544983,-0.0030975342,-0.66682434,-0.18190002,3.2508545
5.1376953,-6.2872925,-0.082107544,-0.53686523,-0.13395691,3.340332
5.1808014,-6.531494,-0.34068298,-0.5304718,-0.0029296875,3.4223633
5.341202,-6.658386,-0.58010864,-0.92781067,0.2548523,3.3105010000000004
5.630905,-6.756546000000001,-0.71177673,-1.536087,0.5755005,3.1272736
6.679565400000001,-7.201874,-0.553772,-2.0516663,0.8023986999999999,3.0623016
7.685135000000001,-7.716628999999999,-0.24731445,-2.3115997000000004,0.93663025,3.0718842
8.408188,-7.814789,-0.06535339,-2.284958,1.0665893999999998,3.0196838
9.511902000000001,-7.9847717000000005,-0.33110046,-1.9930724999999998,1.1251831,2.8268737999999995
10.11525,-7.771698,-0.8937378,-1.5233002,1.1049347,2.449768
10.184677,-7.1348267000000005,-0.76924133,-1.0833435,1.1177216,1.9821167000000002
10.776047,-6.8499300000000005,-0.46038818,-0.89904785,1.173111,1.5624083999999998
11.872589,-7.048645,-0.57292175,-0.9810790999999999,1.2061462,1.3419037
12.380157,-6.833160400000001,-0.89134216,-1.1291503999999999,1.1773833999999999,1.3408356000000001
13.098419,-6.720642,-2.2799834999999997,-1.1973267,1.1891022,1.3983611999999999
13.182220000000001,-6.4812164,-2.7827606,-1.1248931999999998,1.2402343999999998,1.3940887
12.068909,-6.256164599999999,-1.8825531000000002,-0.92355347,1.014389,1.3141937
10.802383,-5.966461,-0.30955505,-0.6593628,0.64367676,1.173584
10.201431,-5.6240997,1.1269684,-0.34617615,0.2836151,0.94348145
9.983566,-5.0494843000000005,2.2546387,0.09378052,-0.09986877400000001,0.65586853
10.357056,-4.276153599999999,2.8890991,0.49858093,-0.36405945,0.27130127
10.675491000000001,-3.6560516000000005,2.6616516,0.6477050999999999,-0.42372129999999997,-0.24855042
10.531845,-3.4717102,1.5794678,0.52734375,-0.26286316,-0.7715911999999999
9.586121,-3.7254943999999997,0.37757874,0.36755370000000004,0.09613037,-1.2179413000000001
8.721817,-4.0941925,-0.024642944,0.36328125,0.35818479999999997,-1.5151367
8.977997,-4.517975,0.008865356,0.5283966,0.30065918,-1.7196808000000001
9.952438,-4.582611,0.08547974,0.73080444,0.11210632,-1.9423065
10.823929,-4.1684113,0.059143065999999994,0.93426514,-0.22877502,-2.1617584
11.760071,-3.8691406,-0.11323547,1.1909943,-0.7060088999999999,-2.3854675
12.887725999999999,-4.0343475,-0.40293884,1.4828796,-1.1800537,-2.600647
13.9531555,-4.043915,-0.024642944,1.7694397000000002,-1.5646057,-2.7657623
14.906051999999999,-4.0343475,0.016052246000000003,1.9462738000000002,-1.8458404999999998,-2.8147583
15.779922500000001,-3.9720917,-0.6543274,1.9260254,-1.9587555,-2.727417
15.92598,-4.22348,-1.5210266000000001,1.7342833999999998,-1.8682098000000003,-2.5910645
15.880478,-5.348755000000001,-1.7125549,1.4498596000000001,-1.5997620000000001,-2.4855957
14.815063,-5.748596,-1.1834412,1.153717,-1.2173308999999999,-2.4014435
14.094406,-6.241791,-0.6112213000000001,0.8682251,-0.8508911,-2.2927855999999998
13.87175,-6.708664,-0.6088256999999999,0.66049194,-0.53982544,-2.155365
13.069687,-6.565017699999999,-0.5681305,0.55822754,-0.29588318,-1.9977112000000001
12.559723,-6.713455000000001,-0.11323547,0.5337219,-0.20852661,-1.8272705000000002
12.437622,-7.381439,0.37278748,0.54011536,-0.21385193,-1.6664124
12.188628999999999,-8.118851,0.8420563,0.51242065,-0.21917725,-1.5311278999999998
11.42009,-8.612061,1.0886536,0.45382690000000003,-0.23622131,-1.4224701000000002
10.208618,-8.631210000000001,0.9426117,0.38885498,-0.33850098,-1.3500214
9.363464,-8.363052,0.80374146,0.2919159,-0.39601135,-1.3564148
8.877441000000001,-7.8578796,0.77500916,0.15556335,-0.30014038,-1.3606719999999999
8.360291,-7.158783000000001,0.9330291999999999,0.01600647,-0.11479187,-1.245636
7.5773926,-6.5889587,0.9569701999999999,-0.13951111,0.15898132,-1.0112762
7.0434875,-6.2202454000000005,1.0934448,-0.28865050000000003,0.48495483,-0.71725464
6.768158000000001,-6.1148987,1.244278,-0.3855896,0.7960205,-0.37957764
6.5550690000000005,-6.043075599999999,1.244278,-0.36535645,0.9845581,0.018844603999999997
6.540710400000001,-6.0143433,1.1940002,-0.29611206,1.0601958999999999,0.49075317
6.6867523,-6.076599,1.031189,-0.27481079999999997,1.0367584,0.9999541999999999
6.880676299999999,-6.234619,0.9210663,-0.2556305,0.84288025,1.4931641000000002
7.0051727,-6.270523000000001,0.9737396,-0.17041016,0.54034424,1.8159332
7.5534514999999995,-6.5769806,0.88035583,-0.01914978,0.24633789,1.9448395
7.9077910000000005,-7.079772999999999,0.7558594,0.0884552,0.030090332,2.0289917
7.6396484,-7.599303999999999,0.74150085,0.12359619,-0.08815002400000001,2.111023
7.177566499999999,-8.114059,0.59306335,0.06288147,-0.026367188,2.1493683
6.6604156,-8.233765,0.48292542,-0.12034607,0.16004944,2.1664124
6.377899,-8.370239,0.46855164,-0.36961365,0.3965454,2.2196808
6.337204,-8.327148,0.5379944000000001,-0.6029053000000001,0.5541991999999999,2.2218017999999997
6.6963196,-8.576141,0.32011414,-0.71902466,0.6000061,2.1355133
6.911803999999999,-8.533050999999999,-0.2640686,-0.7350005999999999,0.54141235,2.0609436000000003
7.117706299999999,-8.0542145,-0.5585479999999999,-0.8457947,0.5573883000000001,2.002365
8.070602000000001,-7.498749,-0.6830596999999999,-0.9565735000000001,0.7246399,1.9565582
8.989975,-6.4884033,-0.60165405,-0.96510315,0.9153290000000001,1.8766631999999999
9.095322,-5.5402985000000005,-0.6734772,-0.95124817,1.0697784,1.6678619
9.339523,-5.281723,-0.87698364,-1.0194244000000001,1.0655212,1.4175262
9.947647,-5.4062195,-1.1858368000000001,-1.1163635,0.9057312,1.3280486999999999
10.299605999999999,-5.3918610000000005,-1.4994812,-1.0833435,0.6607208000000001,1.3781128
10.225388,-5.4110107,-1.6862183000000002,-0.90437317,0.43595886,1.4143371999999999
10.249329,-5.245804,-1.4994812,-0.6689606,0.27403259999999996,1.3248596000000001
10.316360000000001,-4.8962555,-1.147522,-0.36428833,0.14726257,1.1480255
9.945250999999999,-4.3791046,-0.50109863,-0.035125732,-0.10733032,1.0020752
9.569366,-4.122925,-0.6734772,0.23439026,-0.40879822,0.9381560999999999
9.040253,-3.8069,-0.39814758,0.42294312,-0.71665955,0.81884766
8.846313,-3.3759308,0.22914124,0.47407532,-0.9243927,0.59088135
9.440078999999999,-3.2059479,0.15013123,0.30789185,-0.8817749,0.19247437
9.732178,-3.1580658,-0.5417938,0.033050537000000005,-0.61227417,-0.28901672
9.222214,-3.4453735,-1.0230255,-0.12886047,-0.12223816,-0.6799774000000001
8.934906,-3.8045044000000003,-0.62080383,-0.14485168,0.2836151,-0.8227234
9.255722,-3.8332367,0.07591247599999999,-0.04045105,0.3304901,-0.8770447
10.177489999999999,-3.7063292999999997,0.37757874,0.17579651,0.18348694,-1.0911713
11.108841,-3.545929,0.48771667,0.47193909999999994,-0.13076782,-1.4267273
11.697815,-3.6632385000000003,0.31532288,0.8000488,-0.5494232,-1.8006287
12.159897,-4.2378540000000005,-0.22575378,1.1089783000000002,-0.98617554,-2.0850525
13.232498000000001,-4.7502135999999995,-0.59446716,1.3976593000000002,-1.3164062,-2.2714844
14.352982,-5.073425299999999,-0.6591034,1.6437378,-1.5891113000000001,-2.4824066000000005
15.071242999999999,-4.924988,-0.9368439000000001,1.8216400000000001,-1.7755279999999998,-2.6741486
15.257995999999999,-4.8842773,-1.0469666,1.8908691000000002,-1.7691497999999999,-2.7828063999999997
15.047301999999998,-5.616912999999999,-0.55137634,1.8418732,-1.5273285,-2.8307495
13.486282000000001,-5.8491516,0.039993286,1.7406769,-1.1970978,-2.810501
12.796753,-6.0191345,0.21237183,1.5830078,-0.81892395,-2.7061157000000002
13.565292000000001,-6.225036599999999,0.21237183,1.3912659,-0.44927979999999995,-2.5377959999999997
13.589232999999998,-5.7701416,0.42785645,1.2154999,-0.14674377,-2.346054
13.356995000000001,-5.753372,0.56433105,1.0748901000000002,0.10572815,-2.155365
12.940399000000001,-6.3040465999999995,0.758255,0.92575073,0.25912476,-1.9742737000000001
12.396927,-6.8642883,1.1221771,0.73399353,0.24526978,-1.8091582999999998
12.116806,-7.2090607,1.4214478000000002,0.51242065,0.13768005,-1.6781311
11.618805,-7.4269257,1.7111511000000001,0.2695465,0.010910033999999999,-1.5662688999999999
10.82872,-7.6088867,1.7710113999999997,0.05116272,-0.10733032,-1.3947753999999999
10.041031,-7.673522999999999,1.5890503,-0.10542297,-0.1765747,-1.1465607
9.140808,-7.529876700000001,1.4860992,-0.23007202,-0.15420532,-0.86320496
8.087357,-7.173141499999999,1.2634277,-0.3493805,-0.07749939,-0.5478821
7.1823425,-6.749374400000001,0.88035583,-0.46868896,-0.04447937,-0.21339417
6.511978,-6.2896730000000005,0.69122314,-0.6039734,0.04499817,0.08595276
6.1696014,-5.997589,0.5619354,-0.74671936,0.20585632,0.44494629999999996
5.908630400000001,-5.789291400000001,0.3536377,-0.89372253,0.38908386,0.83909607
5.934966999999999,-5.715072599999999,-0.012680054,-0.99812317,0.49986267,1.1895599
6.133682299999999,-5.7078857,-0.30236816,-1.0173035,0.47962952,1.4665375
6.171997,-5.6983185,-0.47236633,-0.9842681999999999,0.40505979999999997,1.6678619
5.942154,-5.870697,-0.35743713,-0.9576415999999999,0.25379944,1.8500214
5.7554016,-6.1292725,-0.007888794000000001,-0.9895934999999999,0.12063599,2.0225983
5.982849,-6.476425,0.26026917,-1.0673676,0.06736755,2.1706696
6.322830000000001,-6.9504850000000005,0.22434998,-1.122757,0.104660034,2.2612152
6.557464599999999,-7.1252594,0.1477356,-1.0513916,0.20372010000000002,2.2356567000000003
7.0554504,-7.058212299999999,-0.036621094,-0.84684753,0.28042603,2.0577544999999997
7.246994,-6.9648438,-0.17070007,-0.6572418000000001,0.31770325,1.8127441000000002
7.819214,-7.328766000000001,-0.59207153,-0.58906555,0.32090759999999996,1.6273803999999998
8.333953999999999,-7.321578999999999,-0.8626251,-0.62527466,0.30918884,1.5315094
8.740982,-6.8499300000000005,-0.7596741,-0.6689606,0.32197570000000003,1.5187378
9.277283,-6.557831,-0.79078674,-0.6519165,0.36138916,1.4931641000000002
9.358673,-6.1005400000000005,-1.0158539,-0.6220856,0.39759827,1.4090118
9.509506,-5.7270355,-1.2863921999999999,-0.67214966,0.40612793,1.3078156
9.8423,-5.573807,-1.3725891000000001,-0.8372649999999999,0.38908386,1.239624
10.412125,-5.554657,-1.1331635,-0.9853363000000002,0.3027954,1.206604
11.149536,-5.427765,-0.50109863,-1.0140991,0.14086914,1.2087402
11.81752,-4.968078599999999,0.13098145,-0.89372253,0.015167236,1.1703948999999998
11.769638,-4.4030457,0.097457886,-0.6593628,-0.05833435,1.0862273999999998
10.728164999999999,-3.854782,-0.38616943,-0.37919617,-0.11053467,0.99568176
9.50473,-3.3735352,-0.80755615,-0.08944702,-0.13183594,0.8582610999999999
8.47522,-2.9832916000000003,-0.795578,0.13638306,-0.17764282,0.70700073
8.154388,-2.6313477,-0.5274353,0.292984,-0.24900818,0.5248413000000001
8.312408,-2.384735,-0.50109863,0.31961059999999997,-0.26179504,0.2542572
8.530289,-2.2674255000000003,-0.90571594,0.18644714,-0.15100098,-0.04081726
8.582962,-2.2937622,-1.5090485,0.055419922,0.0045166016,-0.2506714
8.781677,-2.5738830000000004,-1.4731445,-0.01914978,0.3251648,-0.44029236
8.987579,-2.949768,-0.88656616,0.002166748,0.65327454,-0.6181946
9.495148,-3.1365203999999998,-0.024642944,0.18005371,0.74168396,-0.76094055
9.928497,-2.8372345,0.6026305999999999,0.41654968,0.6277008000000001,-0.90901184
10.596480999999999,-3.0144196,0.78938293,0.6924591,0.34327698,-1.0762482
11.544586,-3.3400269000000002,0.7151642,1.0269469999999998,-0.08602905,-1.2424316
12.066528,-3.459732,0.38955688,1.3752898999999998,-0.5760498000000001,-1.3873138
12.808731,-3.8858947999999995,0.030426025,1.6767578,-0.99468994,-1.5332489
13.713729999999998,-4.3288269999999995,-0.29519653,1.8003235,-1.2833861999999998,-1.6248627
14.001038000000001,-4.5203705,-0.6878357,1.7705078,-1.3686066000000001,-1.6269989
14.0920105,-5.035125700000001,-0.45321655,1.7119141,-1.3334503,-1.600357
14.431992000000001,-5.877884,-0.08689880000000001,1.6437378,-1.1853790000000002,-1.5854492
13.967514000000001,-5.7916870000000005,0.24110413,1.5840758999999998,-0.98724365,-1.6120758
13.639510999999999,-5.956878700000001,0.50686646,1.5531921,-0.756073,-1.6674805
13.505432,-6.268127400000001,0.27223206,1.5510559,-0.54515076,-1.726059
12.863785,-5.846756,0.10942078,1.5254974,-0.41412354,-1.739914
12.006668,-5.281723,0.27223206,1.4296111999999999,-0.38536072,-1.7345886000000001
11.42009,-5.233841,0.42546082,1.2772827,-0.40028379999999997,-1.726059
11.218979,-5.6552124,0.5164489999999999,1.0450591999999999,-0.43862915,-1.6919707999999998
10.814346,-6.1604004,0.40391540000000004,0.7254791,-0.45886229999999995,-1.5907745
9.988358,-6.3351746,0.37039185,0.36967468,-0.43223572,-1.4107513
9.351500999999999,-6.090957599999999,0.7103729,0.031982422,-0.37364197,-1.1795806999999998
8.846313,-5.676758,0.89712524,-0.25776672,-0.28523254,-0.9335022
8.441696,-5.1691895,1.1030273000000002,-0.5251465,-0.15953064,-0.6767731
8.087357,-4.7933044,1.2203369,-0.8095703000000001,0.024765015,-0.41259766
7.7234343999999995,-4.570648,1.2107544,-1.1195678999999998,0.18667603,-0.13243103
7.2733307,-4.4964294,0.82051086,-1.3922729999999999,0.3262329,0.12004089
7.0315094,-4.601761,0.23631287,-1.5829468,0.39120483,0.42790222
6.883072,-4.6735992,-0.16111755,-1.6681671000000002,0.4476776,0.822052
6.6436615,-4.783722,-0.49870299999999995,-1.5829468,0.45939636,1.2119293
6.4545135,-5.102157599999999,-0.87698364,-1.3560486,0.3304901,1.5645294
6.26297,-5.4684753,-0.9703521999999999,-1.1355438,0.1770935,1.8670653999999998
6.1289062,-5.6983185,-0.8506469999999999,-0.9991913,0.09826660000000001,2.145111
6.2366333,-5.8515472,-0.5705260999999999,-0.87242126,0.09187317,2.3453827
6.540710400000001,-6.1484222,-0.3550415,-0.64445496,0.09400939999999999,2.3251342999999998
7.021942,-6.67276,-0.37660217,-0.29718018,0.02583313,2.0417786
7.4098053,-7.1970825,-0.51545715,-0.03831482,-0.033828735,1.6497650000000001
7.9532776,-7.527481,-0.45799255,-0.07879639,0.054595947,1.3419037
8.077774,-7.6400146,-0.11563110000000001,-0.38879395,0.3017273,1.1661224
8.355514999999999,-8.310379,0.10942078,-0.7637634,0.6245116999999999,1.0457458
8.96843,-8.688675,0.5786896,-0.8585663,0.8002776999999999,0.95840454
9.564575,-8.535446,0.91867065,-0.7126312,0.78323364,0.90301514
10.0434265,-8.291229,0.7774048000000001,-0.59651184,0.7161255,0.85720825
9.880614999999999,-7.5897369999999995,0.4517975,-0.6785431,0.711853,0.8635864
9.8423,-6.4860077,0.49249268,-0.8969269,0.7384949000000001,0.950943
10.831116,-5.7174683,0.6720581,-0.99386597,0.68522644,1.0510864
12.181442,-4.917801,0.8300780999999999,-0.92141724,0.47537229999999997,1.0841063999999998
12.605209,-4.166030999999999,0.42066956,-0.8074340999999999,0.21331787,1.1011505
11.681061,-3.6847839999999996,-0.4819335999999999,-0.6604309,0.040740967,1.1256409
10.479172,-3.4860687000000006,-1.2696381,-0.45697020000000005,-0.0146484375,1.159729
9.758514,-3.4884644000000002,-1.5808716,-0.16722107,-0.060455322,1.1363068
9.037857,-3.4094542999999997,-0.577713,0.14384460000000002,-0.16271973,0.9828949
