accx,accy,accz,gyrx,gyry,gyrz
4.6157684,-6.1148987,-0.45559692,-0.22474670000000002,-0.09135437,0.13494873
4.9820709999999995,-5.9832152999999995,0.30336,-0.372818,-0.030639648,0.45240784
4.922226,-6.1843414,0.32011414,-0.34617615,-0.19787598,0.85614014
5.1113586,-7.2521515,-0.2640686,-0.3078308,-0.43544006,1.1799773999999998
6.047500599999999,-8.451645,-0.26885986,-0.39198303,-0.54408264,1.3035431
6.365921,-8.540237,0.48052979999999995,-0.7531128,-0.42158508,1.4143371999999999
6.7394257,-8.975967,1.0000763000000001,-1.2505951000000002,-0.29055786,1.7413634999999998
8.04187,-9.756485000000001,1.0000763000000001,-1.4380798000000001,-0.33955383,2.2164764
9.729782,-10.484328999999999,0.6720581,-1.1920013,-0.48869324,2.6095580000000003
10.390578999999999,-11.322296000000001,-0.25448608,-0.6689606,-0.5504760999999999,2.6979827999999997
9.471207000000001,-11.401306,-0.8626251,-0.052169799999999995,-0.5046692,2.4092865000000003
8.719421,-10.702194,0.48532104,0.37287903,-0.38963318,1.8170012999999998
9.538239,-9.869019,2.252243,0.32493590000000006,-0.15846252,1.1671906
11.511063,-8.952026,3.0495148,-0.12780762,0.17283629999999997,0.84228516
13.289963,-7.7190247,3.09021,-0.7360687,0.51371765,0.91578674
13.967514000000001,-6.270523000000001,2.288147,-1.296402,0.8833618000000001,1.0947571000000003
13.151093,-5.1572265999999996,0.37757874,-1.651123,1.17099,1.1384277
10.694641,-4.623321499999999,-1.2385101,-1.6234283,1.2412872,1.0116577
7.982010000000001,-4.2713623,-1.6742554,-1.3720245,1.061264,0.8806305
6.7633667,-3.8835144,-1.1954193000000002,-1.122757,0.7352905,0.8987427
6.8902589999999995,-3.8763275,-0.2640686,-0.89797974,0.48388672,0.9253844999999999
7.5079649999999996,-3.8691406,1.2083588,-0.7009125,0.29107666,0.86997986
7.644424400000001,-3.229889,2.149292,-0.53260803,0.1259613,0.8497466999999999
7.0554504,-2.7797852,2.1157684,-0.31529236,-0.02104187,0.89234924
7.3666990000000006,-2.7390747,2.0822449,-0.055358887,-0.19255066,0.9104614
8.262131,-2.8635712000000004,2.0128174,0.15235901,-0.33850098,0.7805023
8.88942,-3.1891937,1.9098663,0.2642212,-0.40240479999999995,0.48435974
9.418533,-3.3232574,2.1253509999999998,0.26315308,-0.43862915,0.18608093
10.03624,-3.1173706,2.410263,0.14810179999999998,-0.5057373,0.0028533936
11.106444999999999,-2.9952544999999997,2.2809752999999997,-0.0042266846,-0.5494232,-0.09194946
12.473541,-3.2155304,1.9840851000000002,0.00642395,-0.5558014,-0.19741821
13.191803,-3.933792,1.5794678,0.3004303,-0.547287,-0.36891174
13.383331,-5.2697449999999995,1.21315,0.83413696,-0.59628296,-0.58729553
13.392914000000001,-6.375869799999999,1.2634277,1.359314,-0.67085266,-0.9431
13.689789000000001,-7.2401732999999995,2.1947784,1.5808868,-0.66659546,-1.3809204
13.689789000000001,-7.6280365,3.5594788,1.4274902,-0.6836395000000001,-1.7441711
12.823089999999999,-7.0869446,4.71109,0.95344543,-0.6250458000000001,-1.9487
12.377761999999999,-6.842743,4.821212999999999,0.50923157,-0.42158508,-1.8773346000000002
12.095245,-7.83873,3.5163727,0.3110962,-0.16699219,-1.6365813999999999
10.723372999999999,-8.659943,2.1277466,0.32067870000000004,-0.038085938,-1.3063506999999999
9.097717,-9.033432000000001,1.0096436,0.54971313,-0.115859985,-1.0794525
7.649215700000001,-9.4739685,0.9617614999999999,0.8820648000000001,-0.20426941,-1.0943604
6.8064575,-9.833099,1.8619843,1.3518523999999998,-0.4460907,-1.1678619
5.4776764,-8.724578999999999,2.6353150000000003,1.5425415,-0.6314392,-1.0783844
4.8719482,-7.221023599999999,3.4660949999999997,1.6288147,-0.79548645,-0.9590759
5.8511809999999995,-6.718246499999999,3.873108,1.5201569,-0.84661865,-0.8930359
5.8583527,-6.366287000000001,3.2985077000000005,1.2687683,-0.81892395,-0.802475
5.120941,-5.674377400000001,2.908249,1.0077667,-0.7486267,-0.68955994
4.5606995,-5.202713,2.6831970000000003,0.70843506,-0.5973510999999999,-0.67251587
4.962921,-5.7390137,2.130127,0.36434937,-0.36938477,-0.7162018
5.566269,-6.0813904,1.2538605,0.12466431,-0.18936157,-0.6693268
5.345993,-5.6049347,0.69122314,0.085250854,-0.09986877400000001,-0.48609924
5.501617400000001,-5.4660797,0.73191833,0.16300964,-0.057266235,-0.30500793
6.720275999999999,-6.1172943,0.6576996,0.20137024,0.07269287,-0.2474823
7.582184,-6.806823700000001,0.40391540000000004,0.17047119,0.22608948,-0.21871948
7.457687400000001,-7.194686999999999,0.7295227,0.045837402,0.22076416,-0.06851196
7.0434875,-7.541855,1.4525757,-0.16401672,0.15472412,0.14559937
7.3643035999999995,-8.0589905,1.7973328000000002,-0.41009520000000005,0.15472412,0.29473877
8.135239,-8.877808,1.505249,-0.56030273,0.28149414,0.5045929
8.017928999999999,-9.251311999999999,1.0479584000000002,-0.41648865,0.20904541,1.0084686
7.7042847000000005,-10.005478,0.3656006,0.07141113,-0.03489685,1.5176697000000001
8.051437,-10.92485,-0.33828735,0.68925476,-0.22770691,1.6316528000000001
8.226227,-11.030197,-0.5465850999999999,1.0269469999999998,-0.24900818,1.3685303
7.292480499999999,-10.446014,-0.206604,0.7478484999999999,-0.17231749999999998,1.1022186
5.9613037,-9.816345,0.8875427,-0.052169799999999995,-0.041290283,1.1181946000000003
6.57901,-9.950409,1.9936676,-0.89585876,0.14193726,1.4260559
8.910965,-10.007874000000001,2.2091369999999997,-1.2101135,0.23780823,1.8244629
10.428894,-9.397354,1.0527496,-0.84472656,0.12702942,2.1728058
9.827942,-8.492339999999999,-1.2720337,-0.19491577,-0.008255005,2.3602905
7.950882000000001,-7.8985899999999996,-3.2448425,0.32919312,-0.08815002400000001,2.320877
6.1743927,-7.527481,-3.1921692000000004,0.773407,-0.26393127,2.225006
5.475281,-7.120467999999999,-0.84106445,0.91722107,-0.28416443,2.0886536
5.712311,-6.560226400000001,2.173233,0.7137604000000001,-0.16699219,1.8628082
6.5335236,-5.956878700000001,3.6265106,0.52627563,-0.061523438,1.6380463
7.9604645000000005,-5.3080597,3.0399323,0.3622284,0.08015442,1.4516143999999997
8.302841,-4.6783752,2.6257324,0.19816589999999998,0.30386353,1.1512146
8.970825,-4.072647,1.5459441999999999,0.09271239999999999,0.503067,0.7378845
9.748932,-3.8021087999999996,-0.18266296,0.008560181,0.56166077,0.32882690000000003
9.933289,-3.629715,-0.14675903,-0.14697266,0.5296936,0.0018005370999999999
10.091308999999999,-3.6584472999999997,0.13575745,-0.31741333,0.46044922,-0.30073547
11.101654,-3.8763275,0.119003296,-0.4644165,0.40931702,-0.6309661999999999
11.918076,-3.8571777000000003,0.26264954,-0.63487244,0.3528595,-0.9356384
12.159897,-3.9050597999999996,0.27223206,-0.8340759,0.34541320000000003,-1.1774597
12.030609,-4.103775,-0.13717651,-0.91716003,0.35499573,-1.3329773
12.140747,-4.443756,-0.37181090000000006,-0.7531128,0.3262329,-1.4107513
12.418472,-4.936950700000001,-0.15393066,-0.4090271,0.29853820000000003,-1.5183411
12.509445,-5.492416400000001,0.030426025,-0.12886047,0.17390442,-1.7793273999999997
12.530991,-6.4692383,0.17646789999999998,-0.11714172,-0.092422485,-2.0030365000000003
11.91568,-6.952881,0.8659973,-0.17573547,0.026885986,-2.1798706
10.969971000000001,-6.854706,2.1373138,-0.19703674,0.31344604,-2.4057007
10.383392,-6.438125599999999,3.1165466,-0.16189575,0.24101257,-2.3737487999999995
10.900542999999999,-6.648803699999999,2.8699493,-0.11820984,0.011978148999999999,-2.2384644000000002
11.290802000000001,-7.656769000000001,1.7997284,-0.22261047,-0.14567566,-2.2128906
10.953217,-7.7621155,2.1588592999999996,-0.3302002,-0.23622131,-2.218216
10.685074,-7.826751700000001,2.3216705,-0.24711609,-0.17443848,-2.1937103
9.064194,-7.625641000000001,2.1828003,0.012817383,0.06524658,-2.1159515
9.325165,-8.595291,2.1373138,0.33772278,0.24526978,-1.9519043000000003
9.966812,-9.014282000000001,1.5243988000000002,0.5955199999999999,0.27616882,-1.7324523999999997
9.179108,-7.869858,1.8356476000000002,0.75956726,0.21438599,-1.5066223
8.269318,-6.9432982999999995,3.0231779999999997,0.8458556999999999,0.10998535,-1.3755951000000002
7.5007779999999995,-6.4884033,3.8563538,0.80430603,0.052459717,-1.3383026000000002
6.531128,-6.186737,3.9186096,0.66474915,0.034347534,-1.2733306999999998
6.2126923,-6.215454,3.3200529999999997,0.50283813,-0.005065918,-1.10289
6.4497222999999995,-6.531494,2.446167,0.38246155,-0.05619812,-0.8610687
6.741821300000001,-6.404602,1.8619843,0.3238678,-0.055130005,-0.5947571
6.945327799999999,-6.086166400000001,1.1963959,0.23120117,0.0077209473,-0.32310486
6.6484375,-5.894638,0.6505126999999999,0.08418274,0.038604736,-0.072769165
6.0905914,-5.798874,0.4517975,-0.039382935,-0.013595581,0.15519714
5.800888,-5.834778,0.48771667,-0.097976685,-0.11265564,0.37677002
5.645279,-5.6073303,0.73431396,-0.16082764,-0.19575499999999998,0.61538696
5.527954,-5.3463593000000005,0.63375854,-0.32806396,-0.27030945,0.88383484
5.8056792999999995,-5.281723,0.26264954,-0.58906555,-0.34275818,1.1767731000000001
6.586197,-5.679153400000001,0.107040405,-0.8820038,-0.36299133,1.4516143999999997
7.2565764999999995,-6.004776000000001,0.26504517,-1.0780181999999998,-0.21492004,1.6348419
7.615707400000001,-6.3303833,0.33209229999999995,-1.0513916,0.05885315,1.7807921999999998
8.113693,-7.0989227,-0.015075683999999999,-0.7339325,0.15153503,1.985321
8.973206,-8.353485000000001,-0.35983276,-0.21195984,-0.029571532999999997,2.1951752
9.46402,-9.028641,-0.26885986,0.30682373,-0.30973816,2.2516327
9.717804,-8.901749,0.54278564,0.70310974,-0.53237915,2.0716095
9.2677,-8.202652,1.6010132,0.80856323,-0.5536804,1.7520293999999998
8.559021000000001,-7.5514220000000005,2.5610962,0.5529022,-0.36087036,1.5432281
8.819977,-7.513122599999999,3.0016173999999998,0.07141113,0.0045166016,1.5602722
10.002716,-7.697464,2.5706634999999998,-0.40795898,0.39866638,1.6454925999999999
11.048981,-7.201874,1.8883208999999999,-0.70944214,0.6692505,1.6412354
11.412903,-6.59375,0.81092834,-0.96936035,0.8833618000000001,1.4548187
10.759293,-6.3112335,-0.5561676,-0.99279785,0.727829,1.2311096000000001
9.804001,-6.2920685,-1.4013062,-0.41967773,0.37097168,1.2247162
9.121658,-5.5881805,-1.3366699,-0.09690857,0.24420166,1.3110046
8.930114999999999,-4.5682526,-0.37660217,-0.0287323,0.20372010000000002,1.2960968000000002
9.447266,-3.577057,-0.041412354,0.038375854,0.13235474,1.1586761
9.037857,-3.6440887,0.26264954,-0.043640137,0.062042235999999994,1.0393677
8.013138,-3.8835144,3.1859741,-0.14378357,-0.012527466000000001,0.9850310999999999
7.713867,-3.7015532999999996,2.5060272,-0.18426514,-0.07005310000000001,0.8912964
8.247772,-3.5052185,1.1413269,-0.22047424,-0.05619812,0.7251129
8.975601,-3.1317291000000003,1.2323151,-0.2843933,0.030090332,0.5014038
9.322769000000001,-3.1365203999999998,0.46855164,-0.3770752,0.14726257,0.25
9.495148,-3.301712,0.26264954,-0.43032837,0.21438599,0.004989624000000001
10.005111999999999,-3.1293335,0.5715026999999999,-0.39091492,0.22290039,-0.24534607
10.780838000000001,-2.9449767999999996,0.71995544,-0.33978270000000005,0.22715760000000002,-0.49568176
11.546982,-3.1101837000000003,0.7654419,-0.34085083,0.26338196,-0.7289734
12.109619,-3.4094542999999997,0.7079773,-0.32061768,0.2836151,-0.8972931000000001
12.380157,-3.660843,0.8995209000000001,-0.17359924,0.2239685,-1.0357665999999999
12.8302765,-4.2330627,1.3831482,0.028793335,0.08015442,-1.2221985
13.443192000000002,-5.2075043,1.5339813,0.11721802,-0.0061340330000000005,-1.4970398
13.799926999999999,-6.272918700000001,1.347229,0.046905518,-0.010391235,-1.7740021000000001
13.445587,-6.842743,1.4214478000000002,-0.08200073,0.013046265,-1.8975677
12.578888000000001,-6.5410767,2.094223,-0.16722107,0.0023956299,-1.8538971000000002
12.174255,-6.225036599999999,2.5251770000000002,-0.18959045,0.010910033999999999,-1.7857207999999998
12.530991,-6.909775,2.1875916,-0.13739014,0.09400939999999999,-1.7921143
12.447205,-7.6495820000000005,1.6177673000000001,0.031982422,0.19520569,-1.805954
11.386566,-8.140396,1.4046936,0.34091187,0.3027954,-1.7750702
10.230164,-8.398972,1.6488953000000002,0.74998474,0.36032104,-1.6738738999999998
10.045822,-8.82753,1.9745177999999999,1.1515808,0.26551820000000004,-1.503418
9.887802,-8.614456,2.3934937,1.5148315,-0.0061340330000000005,-1.3404388
8.88942,-7.716628999999999,2.9633179,1.7854156000000003,-0.33103943,-1.2328491000000001
7.622878999999999,-6.7852783,3.4924315999999997,1.9047241000000001,-0.55900574,-1.1604156
6.701111,-6.6152954,3.7701568999999995,1.840805,-0.6442260999999999,-1.0922393999999997
5.843994,-6.7038727,3.4517365,1.6064453,-0.59628296,-0.9846344000000001
5.3268433,-6.450088500000001,3.0758362,1.2772827,-0.5611267,-0.8184661999999999
5.1927642999999994,-6.2130585,2.5395355,0.914032,-0.51638794,-0.626709
5.288543700000001,-6.1699677,1.8931122,0.5795288000000001,-0.47697449999999997,-0.4562683
5.487259,-6.2441864,1.1604767,0.28977966,-0.46313477,-0.31565857
5.4273987,-6.17955,0.45419312,0.024536132999999998,-0.39068604,-0.18782043
5.27417,-5.973648000000001,-0.015075683999999999,-0.17893982,-0.17124939,-0.058929443
5.599777,-6.189117400000001,-0.24731445,-0.29930115,0.069503784,0.11790466
5.949341,-6.225036599999999,-0.19703674,-0.40795898,0.20372010000000002,0.37251282
6.4952087,-6.416580000000001,0.042388916,-0.5166168,0.31025696,0.5940857
7.419372599999999,-7.1300507,0.15731812,-0.6082306,0.49560547,0.7240448
8.168762,-7.8459167,0.41110230000000003,-0.74246216,0.6468811,0.95947266
8.005951,-8.073364,0.7438965,-0.8415222,0.60746765,1.3205871999999999
7.756958,-8.6719055,0.54756165,-0.7808075,0.36457825,1.7381744
7.989197,-9.406937,0.23631287,-0.42074585,0.01411438,2.0886536
8.283676,-9.9839325,0.22195435,0.17472839999999998,-0.21385193,2.2622833
7.2733307,-9.959991,-0.09408569,0.7478484999999999,-0.24368286,2.320877
6.322830000000001,-9.816345,-0.18984985,0.8948517,-0.092422485,2.2058258
6.088196,-9.907318,0.17407227,0.43678284,0.23887634,1.9245911
6.9237823,-10.438827499999999,1.1700591999999999,-0.33978270000000005,0.5392914000000001,1.8159332
8.439300999999999,-11.003860000000001,1.9816895,-0.9320679000000001,0.51904297,2.0300598
9.236572,-10.644730000000001,1.9218445,-1.0322113000000002,0.26763916,2.3187408
9.765686,-9.81395,0.44940186,-0.79785156,0.042877197,2.4210052
10.222992,-9.292007,-1.9256438999999999,-0.5102234,-0.045547485,2.3379211
9.265305,-8.770081,-3.2640076000000002,-0.22261047,-0.11691284,2.2196808
7.735412599999999,-8.1380005,-2.6223602,0.1161499,-0.16271973,2.0726624
7.333191,-7.491561999999999,-0.42687988,0.33132935,-0.09561157,1.8116759999999998
8.355514999999999,-6.471634,1.6345367,0.29084778,0.06417847,1.4580078
9.590912,-5.839569,2.161255,0.18325806,0.20585632,1.1586761
10.2565,-5.051880000000001,2.3863068,0.18751526,0.2782898,0.8774414
10.409728999999999,-4.359955,2.8172759999999997,0.26101685,0.2559204,0.5536041
10.7114105,-3.5578917999999997,2.6712189,0.24929810000000002,0.10572815,0.23402405
11.025039999999999,-2.8731537,1.6010132,0.122543335,-0.09881592,-0.08555603
10.773651,-2.2961577999999996,1.1437225,-0.06600952,-0.17231749999999998,-0.4424286
10.553390499999999,-1.960968,1.3759613000000002,-0.2609558,-0.12011719,-0.7588043000000001
10.632400500000001,-1.8388519,1.5004578000000002,-0.43778992,-0.06791687,-1.0261841
10.639572,-2.020813,0.9904938,-0.6050415,-0.005065918,-1.2552185
10.720978,-2.233902,0.48532104,-0.710495,0.1259613,-1.4139403999999998
11.10405,-2.6361237,0.49011229999999995,-0.71795654,0.23461914,-1.5108795
11.314743,-3.5411377,0.8061371,-0.6540375,0.3059845,-1.6174011000000001
11.463181,-4.692749,1.1916046,-0.44950867,0.36457825,-1.7005005000000002
11.709778,-5.966461,1.4741211,-0.046844482,0.33901978,-1.7463074
11.793579,-7.036667,1.9050751,0.41654968,0.27189636,-1.8475037
11.812729,-7.8602753,2.4437714,0.66581726,0.2505951,-2.2459105999999998
12.088074,-8.5522,2.6688232000000003,0.5422516,0.25273132,-2.6464539
11.523041000000001,-8.255325,3.2075195,0.24824524,0.200531,-2.6539154
10.57254,-7.2042694,4.0718384,0.058624268,0.062042235999999994,-2.39505
11.139969,-7.1348267000000005,4.225067,-0.025527954,0.081222534,-2.346054
13.031386999999999,-8.145187,3.1093597,-0.11502075,0.42742920000000006,-2.456833
12.870972,-9.057373,1.2778015,-0.06600952,0.84288025,-2.346054
10.543808,-9.289612,0.38955688,0.23971558,1.0559386999999998,-2.0041046000000002
9.583739999999999,-9.916901,0.79896545,0.7020416,0.88124084,-1.6323242
10.807175,-10.740494,1.5866547,1.0535736,0.4551239,-1.3521576000000002
10.61084,-10.357422,1.8931122,1.1526489,0.07057189999999999,-1.1912994
7.929336500000001,-9.016678,2.453354,1.056778,-0.092422485,-1.1284485
5.4537354,-7.8842163,3.0399323,0.95770264,-0.08282471,-1.0783844
4.8025208,-7.556213400000001,3.1356964,0.9331969999999999,-0.07217407,-0.98890686
5.0395355,-7.522689999999999,2.4174347000000003,0.8756714,-0.11053467,-0.8781128
5.19516,-6.936111500000001,1.5148315,0.68818665,-0.15420532,-0.76838684
5.547104,-6.4429016,0.9713440000000001,0.37927246,-0.14355469,-0.64907837
5.879898000000001,-6.404602,0.96894836,0.09057617,-0.11158752400000001,-0.48822020000000005
5.848785400000001,-6.2968597,1.1987915,-0.06175232,-0.07324219,-0.27729797
5.6716156,-6.131668,0.96655273,-0.12886047,-0.0146484375,-0.045074462999999995
5.606964,-5.88266,0.43025208,-0.17466736,0.016235351999999998,0.19033813
5.693161,-5.976043700000001,-0.084503174,-0.22047424,-0.025299072000000002,0.41085815
5.717102,-6.124480999999999,-0.13238525,-0.25776672,-0.13609314,0.6739807
5.666824299999999,-6.095749,0.49249268,-0.21408081,-0.32571409999999995,0.9797058000000001
5.865539599999999,-6.1340637000000005,0.9928894,-0.17893982,-0.56007385,1.2801056
6.34198,-6.368683,1.1006316999999999,-0.31315613,-0.68896484,1.4889069
7.0746155,-6.723037700000001,0.9521941999999999,-0.6103668000000001,-0.6793823,1.6199341
7.416977,-7.1563873,0.78219604,-0.92355347,-0.5238495,1.7829131999999999
7.654007000000001,-7.570572,1.0120392,-0.9523163,-0.3565979,2.0204773
8.657181,-8.466003,1.0120392,-0.45697020000000005,-0.31718445,2.2910461
10.00032,-9.280045,0.38955688,0.36328125,-0.40986633,2.4146118
10.359451,-9.126816,-0.017471313,0.95344543,-0.55900574,2.2782592999999998
9.583739999999999,-8.595291,0.26504517,1.0269469999999998,-0.6676635999999999,1.9885101000000003
8.676331,-8.056595,1.6273499,0.68818665,-0.71347046,1.6614685000000002
8.135239,-7.206664999999999,3.7007294,0.22267151,-0.56752014,1.4431
8.831955,-6.565017699999999,4.770935,-0.111816406,-0.20108032,1.366394
10.752106,-6.591354400000001,3.5115814,-0.47294617,0.6191864,1.3248596000000001
12.114410000000001,-6.7254179999999995,1.0982361,-1.5840149,1.9102782999999999,1.2758483999999999
12.4040985,-6.354324299999999,-0.53700256,-2.5896301,2.8849945,0.6995392
11.784011999999999,-5.712676999999999,-0.91290283,-1.9355468999999996,1.3797760000000001,0.2926178
10.90773,-4.977661,-0.036621094,-0.22900389999999998,-0.29588318,0.59513855
10.630005,-4.2833404999999996,0.53559875,0.35688782,-0.4695282,0.681427
12.059341,-2.063919,-1.4300385,0.44317627,-0.10307312,0.48968506
12.779999,-3.5890197999999995,-3.9319916,0.48898315,0.18455505,0.32350159999999994
9.332336,-4.4413605,1.4789124,0.27273559999999997,0.34007263,0.32775879999999996
6.0858,-2.3799438,7.9384613,-0.086257935,0.4316864,0.34587097
7.802444500000001,-3.363968,4.0023956,-0.30036926,0.38694763,0.26490784
8.982788000000001,-2.8683624,2.149292,-0.34831238,0.23036194,0.12750244
8.740982,-2.6720428,2.118164,-0.41435242,0.12170410000000002,-0.086624146
7.970047,-2.4517822,0.88275146,-0.58374023,0.13449097,-0.2709198
8.051437,-2.4445952999999996,-0.06295776,-0.8287505999999999,0.23675537,-0.3348236
8.946869,-2.6433105,0.18603516,-1.0641631999999999,0.32836914,-0.3348236
9.866257000000001,-2.8659668,0.91148376,-1.2122344999999999,0.3720398,-0.35507202
10.807175,-3.17482,1.1006316999999999,-1.1994628999999999,0.37950134,-0.44136047
11.252487,-3.64888,0.9857024999999999,-0.9352722,0.35179138,-0.6224518
11.376984,-4.3815002,0.9066924999999999,-0.49105835,0.3059845,-0.8035431
11.769638,-5.1739807,1.074295,0.0650177,0.26445007,-0.8791809000000002
12.451981,-5.832382,1.5818633999999998,0.6306609999999999,0.13235474,-0.93777466
13.165466,-6.35672,2.2953339,0.94918823,-0.09347534,-1.1146088
13.459945999999999,-6.3830566,3.4277954,0.9278716999999999,-0.25221252,-1.3702698
12.571701,-5.7174683,4.2705535999999995,0.7009734999999999,-0.28842163,-1.520462
11.135178,-5.217071499999999,4.6057434,0.46661377,-0.27030945,-1.520462
10.536621,-5.2075043,4.514755200000001,0.31002808,-0.115859985,-1.5130157
11.14476,-6.016739,3.3344116,0.19604492,0.16323853,-1.5130157
11.75528,-7.015121499999999,1.8667755000000001,0.21627808,0.40505979999999997,-1.4459076000000002
11.161514,-7.692688,1.0671082,0.48898315,0.4774933,-1.2914428999999998
10.316360000000001,-7.83873,1.1006316999999999,0.90338135,0.36883545,-1.1092833999999998
10.067368,-7.807602,1.5890503,1.2485198999999998,0.13661194,-0.93989563
9.353897,-7.3910065000000005,1.7901611000000002,1.4530486999999999,-0.04234314,-0.8227234
7.828780999999999,-6.4931946,2.1564636000000004,1.5617065,-0.12011719,-0.7524109
6.5023956,-5.7390137,2.908249,1.5894012,-0.21173096,-0.6927643
5.894272,-5.597763,3.2697754,1.4818115,-0.34701538,-0.6224518
5.4776764,-5.375091599999999,2.8843078999999996,1.2240143,-0.49189758,-0.55107117
5.470489499999999,-5.150039700000001,2.307312,0.8756714,-0.6090698,-0.44454956
5.583023000000001,-5.068633999999999,1.833252,0.5252074999999999,-0.6282501,-0.2559967
5.551895,-5.0662384000000005,1.3065338,0.20349121,-0.53663635,-0.0045928955
5.518387000000001,-5.300873,0.5715026999999999,-0.07347107,-0.43649292,0.23614502
5.5159910000000005,-5.432556,-0.08689880000000001,-0.23965454,-0.41732788,0.40126038
5.547104,-5.4948120000000005,-0.3837738,-0.33552550000000003,-0.45141602,0.5333557
5.717102,-5.7964782999999995,-0.29998779999999997,-0.43778992,-0.43544006,0.6228484999999999
6.318039,-6.5099487,-0.07252502400000001,-0.51342773,-0.38323975,0.6718445
7.139251700000001,-7.228210400000001,0.169281,-0.54325867,-0.35873413,0.81352234
8.087357,-7.412567,0.5523529,-0.6263428000000001,-0.32571409999999995,1.0649261
9.092926,-7.788452,0.79896545,-0.7765503,-0.27244568,1.2140656
9.825546000000001,-8.300811999999999,0.79896545,-0.83940125,-0.12330627400000001,1.237503
10.136795,-8.638397,0.84684753,-0.6519165,0.017303467,1.3450928
10.117645,-9.136383,0.87557983,-0.12034607,0.01411438,1.4569397
10.033844,-9.634383999999999,0.5164489999999999,0.5017699999999999,-0.022109985,1.2950287
9.981171,-9.210602,0.32969666,0.7254791,-0.013595581,0.86253357
9.957230000000001,-8.442062,0.79177856,0.37287903,0.07801819,0.48329163
9.507126,-7.853088400000001,1.6608734,-0.35150146,0.35073853,0.37356567
9.447266,-7.0223083,2.7765656,-1.0098419,0.7022705,0.43748474
10.704224,-6.421355999999999,2.9513397,-1.2889403999999998,1.0026703000000001,0.42257690000000003
11.8701935,-6.083786,1.1748505,-1.2346039,1.0836333999999999,0.3245697
11.283615,-5.7174683,-1.2169647,-0.9832001,0.85780334,0.28727722
9.284454,-4.8723145,-2.6702423,-0.661499,0.51052856,0.34375
7.5606384,-3.9290008999999997,-2.2440796,-0.39837646,0.26657104,0.40126038
7.1823425,-3.2729797,-0.47955322,-0.2843933,0.19413757,0.37356567
7.120102,-2.9641266,0.8276825000000001,-0.27481079999999997,0.18988037,0.33522034
6.772933999999999,-2.8396301,1.4477844,-0.279068,0.17390442,0.33735657
6.380294999999999,-2.6552887000000003,1.7087555,-0.2556305,0.10040283,0.34161377
6.4066315000000005,-2.305725,1.7494506999999997,-0.21621704,0.013046265,0.30966187
7.045883,-2.0974274,1.3783569,-0.14910889,0.015167236,0.25106812
7.440917999999999,-2.020813,1.050354,-0.07347107,0.042877197,0.18075562
7.6085205,-2.0710907,1.0216216999999999,-0.060684204000000005,0.030090332,0.06890869
8.082564999999999,-2.0782776000000003,1.2849883999999998,-0.12886047,0.029022217000000003,-0.086624146
9.028275,-2.171646,1.505249,-0.21621704,0.08654785,-0.21765137
9.976379,-2.3799438,1.8212891,-0.31529236,0.18988037,-0.35081482
10.771255499999999,-2.5690918,1.9792938000000002,-0.36642456,0.3070526,-0.5159302
11.705002,-2.8587952000000003,1.7662201000000002,-0.25137329999999997,0.3251648,-0.6842345999999999
12.660278,-3.2107391,1.4860992,0.07034302,0.20159912,-0.8365630999999999
13.37854,-3.7661896,1.5507355,0.45382690000000003,0.08229065,-1.0549469
14.211731,-4.558669999999999,1.6273499,0.6434479000000001,0.03327942,-1.327652
15.008987,-5.4780426,1.7566376,0.54011536,0.05885315,-1.4895782
14.630707000000001,-5.4229736,2.4509583,0.33132935,0.21224976,-1.4895782
13.440795999999999,-4.515579,3.4924315999999997,0.21734619,0.3805542,-1.3787842
13.110397,-4.3791046,3.9712677000000003,0.26101685,0.41252136,-1.1955566
13.318695000000002,-5.257782,3.2242889999999997,0.44850159999999994,0.23568726,-1.0166016
12.9021,-6.653595,1.8931122,0.75743103,-0.028503418,-0.9750519
11.829498,-7.606491,1.3520203000000002,1.1185608,-0.22344970000000003,-1.0325775
10.419312,-7.568191499999999,1.5986176,1.3742218000000002,-0.28735352,-1.0304413000000001
9.076157,-7.0773773,2.0415497,1.4221648999999998,-0.23942566,-0.9548187
8.180725,-6.4261475,2.4748992999999997,1.3049773999999998,-0.14141846,-0.86213684
8.046661,-5.7773285,2.9178314,1.106842,-0.053009033,-0.75987244
7.776108,-5.0949707,3.279358,0.947052,0.011978148999999999,-0.66612244
6.883072,-4.7358400000000005,3.0279540000000003,0.87461853,-0.0146484375,-0.62031555
5.985244799999999,-4.5802154999999996,2.1780242999999997,0.81388855,-0.16592407,-0.5766449
5.539932299999999,-4.455719,1.3448334,0.7222748000000001,-0.37364197,-0.5010071
5.2526245000000005,-4.30249,0.80374146,0.60935974,-0.49508667,-0.39874268
5.2454376,-4.278549,0.70558167,0.44744873,-0.48869324,-0.26664734
5.4537354,-4.280945,0.84924316,0.20137024,-0.46632385,-0.06744385
5.5638733,-4.276153599999999,0.73431396,-0.10437012,-0.35873413,0.14880371
5.7697754,-4.458114599999999,0.52841187,-0.38240050000000003,-0.19894409,0.35333252
6.349167,-4.922592,0.53559875,-0.59332275,-0.055130005,0.5344238
6.9022217,-5.5450897,0.5499573,-0.75523376,0.020507812,0.7037964
7.416977,-6.3591156,0.35603333,-0.99386597,0.10891724,0.8721161000000001
8.398605,-7.333557000000001,0.16448975,-1.3038483,0.20904541,1.0574646
9.076157,-7.788452,0.39433290000000004,-1.4274292,0.25166320000000003,1.3365631000000002
9.480789,-8.097305,0.62657166,-1.0993195,0.11956787,1.7371063000000002
10.002716,-8.832321,0.7103729,-0.2875824,-0.12330627400000001,1.9522858
10.539017,-9.919296000000001,0.3656006,0.59124756,-0.26393127,1.7243195
9.930893,-9.919296000000001,-0.024642944,0.9736786000000001,-0.34701538,1.2417603000000002
8.884628,-9.253708,0.62657166,0.6221466,-0.40560913,0.93922424
8.233398,-8.386992999999999,2.2953339,-0.21514893,-0.24900818,0.9967499
9.461624,-7.546631,4.1053467,-0.9480591,0.09826660000000001,1.1746521
11.891739,-7.115677000000001,4.119720500000001,-1.2580414,0.37950134,1.237503
12.918854,-6.7373962,1.9721221999999998,-1.2047881999999999,0.5254364,1.1352386
11.384171,-6.387848,-1.063736,-0.8883972,0.51371765,0.9275055
8.851105,-5.9209747,-2.933609,-0.5443115,0.33369446,0.86465454
7.539092999999999,-5.178772,-2.2871704,-0.38665770000000005,0.17283629999999997,0.9647979999999999
7.637253,-4.460510299999999,-0.15153503,-0.36109924,0.14407349,0.94880676
7.9461059999999994,-3.8571777000000003,1.3735657,-0.35150146,0.20372010000000002,0.81352234
8.228622,-3.325653,2.4605408,-0.34831238,0.22290039,0.6974182
7.563034,-2.9066772000000003,2.5515137,-0.38665770000000005,0.23355103,0.59088135
6.622101,-2.5331726000000003,1.7422790000000001,-0.36747742,0.23143005,0.48329163
7.079391499999999,-1.8628082,1.2370911,-0.27799988,0.15153503,0.36611938
8.132843,-1.5132446000000002,1.1724548000000001,-0.23219299999999998,0.057785034000000006,0.15412903
8.585358,-1.3265076,1.1604767,-0.34617615,0.030090332,-0.09088135
9.085739,-1.2810059,1.0048523,-0.53793335,0.054595947,-0.23788452
9.727386,-1.4438171,1.1916046,-0.628479,0.081222534,-0.34335327
10.553390499999999,-1.6569061,1.4070892,-0.62101746,0.08229065,-0.45733643
11.733734,-1.8556213,1.3017426,-0.49105835,0.011978148999999999,-0.56385803
12.521423,-2.0615234,0.8707886,-0.15443420000000002,-0.11691284,-0.7342987
12.605209,-2.3895264,0.7295227,0.2546234,-0.25326538,-1.0155334
13.282776,-3.2873535000000005,1.3783569,0.41122437,-0.20533752,-1.4544219999999999
14.393692000000001,-4.7430267,1.8883208999999999,0.23332214,0.083343506,-1.8688049
15.332214000000002,-6.057449299999999,2.307312,-0.009552001999999999,0.44447327,-2.0051575
15.633881,-6.1604004,3.2577972,-0.10862732,0.68629456,-1.8837279999999998
15.334610000000001,-5.3272095,4.011978,-0.062820435,0.76086426,-1.7218018
15.2939,-5.336792,3.4325867,0.07034302,0.6820221,-1.6600188999999999
14.333832000000001,-5.937729,2.149292,0.26101685,0.5797576999999999,-1.7005005000000002
12.368195,-6.833160400000001,1.5986176,0.41654968,0.6468811,-1.7292633000000002
10.663513,-7.539459,1.7350922,0.35688782,0.9515380999999999,-1.6429749
9.619644000000001,-7.5370636,2.0439453000000003,0.08631897,1.4447632,-1.5247344999999999
9.009125,-6.8355559999999995,2.3647614,-0.074539185,1.891098,-1.3766631999999999
8.661972,-6.225036599999999,2.7095337,0.108688354,1.998703,-1.2030181999999998
7.912582400000001,-5.628875700000001,2.9321900000000003,0.52627563,1.6748505,-1.1199341
6.8447723,-5.087784,2.5922089,0.9449158000000001,0.9771118000000001,-1.0506897
6.511978,-5.2003174,1.8069153000000002,1.2112427,0.1685791,-0.91326904
6.112137000000001,-5.3439635999999995,1.8404387999999998,1.2144318,-0.3203888,-0.7545470999999999
5.6835785,-5.4445343,2.8124847,1.0386658000000002,-0.40133667,-0.58836365
6.030730999999999,-5.7222595,3.121338,0.84158325,-0.39068604,-0.33377075
6.045105,-5.719864,2.5227814,0.7052307,-0.54196167,0.015640259
5.7194977,-5.315246599999999,1.8595886000000001,0.5987091,-0.79016113,0.35758972
5.7099150000000005,-5.008789,1.1963959,0.49858093,-0.96380615,0.5461425999999999
5.875122,-5.13089,0.6648864999999999,0.35050964,-1.0202636999999999,0.64094543
5.693161,-5.2673492,0.44461059999999997,0.12786865,-1.0287780999999998,0.7986145
5.693161,-5.5163574,0.42066956,-0.121414185,-0.9243927,1.0180511
6.298889,-5.8299866,0.41110230000000003,-0.42927550000000003,-0.77311707,1.2279205
7.6827393,-6.1101227,0.41827393,-0.89479065,-0.8530120999999999,1.5773163000000001
9.004333500000001,-6.622466999999999,0.38237,-1.1547089,-0.96913147,2.0076904
9.605286,-7.481994599999999,0.20040894,-0.7818755999999999,-0.90309143,2.369873
10.41452,-8.865845,-0.039016723999999996,0.08206177,-0.68470764,2.5499115000000003
10.881393,-9.639175,-0.53460693,0.8927306999999999,-0.547287,2.3315277
9.835129,-9.330322,-1.1379546999999999,1.1089783000000002,-0.46739197,1.8468323
8.843933,-8.0781555,-0.017471313,0.6817932,-0.29269409999999996,1.5187378
9.181503,-6.845138499999999,2.9034576000000003,-0.0052948,-0.06578064,1.4782562
10.831116,-6.823592999999999,4.778122,-0.5389862,0.1302185,1.4920959999999999
13.213348000000002,-7.2808839999999995,4.1532288,-0.74671936,0.26124573,1.3557434
14.060898000000002,-7.4891815,1.6153870000000001,-0.6561737,0.25379944,1.187439
11.980331,-6.9839934999999995,-0.9009246999999999,-0.36322020000000005,0.069503784,1.1331023999999998
9.210236,-5.9640656,-1.8131104,-0.0031585693,-0.13395691,1.1959534
7.934128,-5.0159607,-1.0613403000000001,0.3238678,-0.25326538,1.2087402
8.187911999999999,-4.2210846,0.30336,0.4410553,-0.17550659,1.0787811
8.080169999999999,-3.5507202000000007,1.4669341999999999,0.29617309999999997,0.048202515,0.9019469999999999
7.292480499999999,-3.107788,2.2977295,0.06713867,0.18135071,0.75920105
6.6963196,-2.7941437000000002,2.532364,-0.035125732,0.12702942,0.63456726
6.930953999999999,-2.3033295,2.4294127999999997,-0.0010375977,-0.06472778,0.49182129999999996
7.8742676,-1.7598572000000001,1.6943816999999999,0.022399902000000003,-0.19148254,0.30006409999999994
8.420150999999999,-1.4916992,0.56433105,-0.09158325,-0.15206909,0.05079651
8.690704,-1.5012816999999998,-0.048583984000000004,-0.34085083,0.017303467,-0.21871948
9.236572,-1.69281,0.17646789999999998,-0.62527466,0.21331787,-0.45520020000000005
10.127213000000001,-1.9441986,0.6864319000000001,-0.8607024999999999,0.39334106,-0.67251587
11.187851,-2.178833,0.83247375,-1.0354004,0.61279297,-0.9004822
12.140747,-2.4014892999999997,0.5715026999999999,-1.0247498,0.86099243,-1.0347137
13.091232000000002,-3.0958099999999997,0.23153687,-0.61994934,0.9036101999999999,-0.989975
13.740067000000002,-3.921814,0.17407227,0.13745117,0.5233002,-0.8972931000000001
14.125534,-4.5850067,0.5715026999999999,0.7947234999999999,-0.15527344,-1.0208588
14.156661999999999,-5.123703,1.1078033,0.9960479999999999,-0.71559143,-1.4618835
13.426422,-5.7342224,1.7805786,0.80430603,-0.86047363,-1.9806671000000002
11.992294000000001,-5.755768,3.0638732999999996,0.50390625,-0.6037445,-2.2597656
11.75528,-5.317627,4.220276,0.30682373,-0.15846252,-2.2746735
13.653870000000001,-5.456497,3.7797394,0.27593994,0.25166320000000003,-2.1596222000000003
15.538116,-5.5570526,2.3863068,0.3515625,0.44128418,-1.9923859
15.995407,-5.944916,1.4597626,0.44850159999999994,0.47962952,-1.8379211
14.862945999999999,-6.904983500000001,1.3831482,0.5923156999999999,0.46044922,-1.7622832999999998
13.0242,-7.632827799999999,1.8452301,0.8352050999999999,0.39334106,-1.7963715
11.513458,-7.912948599999999,2.3384247000000005,1.0834045,0.28256226,-1.8016968
9.883011,-7.3622894,2.6377106,1.218689,0.12277222,-1.6557616999999998
8.350723,-6.43573,2.7047423999999998,1.2250823999999998,-0.092422485,-1.4309844999999999
7.2374115,-5.542694,2.8364257999999998,1.1121674,-0.26393127,-1.2296448
6.7394257,-4.9273834,3.1428833,0.93000793,-0.22770691,-1.1433716
6.133682299999999,-4.7861176,3.0088043,0.691391,-0.10519409,-1.0932921999999998
5.073059,-4.905838,2.3216705,0.41654968,-0.038085938,-0.95054626
4.223114,-4.661621,1.7542419999999999,0.17686462,0.0045166016,-0.7481536999999999
3.9334105999999998,-4.249817,1.4070892,-0.012756348,0.062042235999999994,-0.5393677
4.5367584,-4.3000945999999995,1.3041382,-0.23219299999999998,0.09187317,-0.31245422
5.0227814,-4.553879,1.0431671,-0.5443115,0.08229065,-0.051467896
4.9365845,-4.9920197,0.6648864999999999,-0.9310149999999999,0.048202515,0.26278687
5.183197,-5.4301605,0.6385498000000001,-1.2836151000000002,0.14300537,0.56318665
5.832016,-5.832382,0.758255,-1.3965302,0.29214478,0.8966216999999999
6.4856415,-6.284897,0.52841187,-1.1856079,0.31983948,1.2971496999999999
7.017150999999999,-6.679931599999999,0.056762695,-0.96403503,0.21757507,1.6337738000000002
7.5845795,-7.2521515,-0.22575378,-1.0119629,-0.04447937,1.8958282
8.415359500000001,-8.260100999999999,-0.13238525,-1.1621704,-0.39282227,2.2463074
8.626053,-8.734161,0.6217804,-0.98854065,-0.6602020000000001,2.6031647
8.803223,-9.122025,1.723114,-0.3547058,-0.79548645,2.8076935
9.272491,-9.224976,1.5076447,0.53692627,-0.85728455,2.7427216
9.2677,-8.590515,0.26026917,1.2122955,-0.86898804,2.3805237
9.104889,-8.386992999999999,-0.2137909,1.2261505,-0.7582091999999999,1.9608153999999998
9.940475,-8.624023,1.1461181999999999,0.71269226,-0.47804259999999993,1.747757
11.467972,-8.564178,3.1404877,0.055419922,-0.12863159,1.6849060000000002
13.179825,-8.293625,4.1699980000000005,-0.48680115,0.23036194,1.5634766000000002
14.276367,-7.381439,3.3679352,-0.9107665999999999,0.56484985,1.4122008999999998
13.684998,-6.1460266,0.73191833,-1.219696,0.88442993,1.2822418
11.716965,-5.1213074,-1.4468079,-1.3177032,1.1092072,1.1256409
9.954834,-3.9122314,-1.9423981,-1.2729645,1.124115,1.0361633
9.507126,-2.8827362,-1.2049866000000002,-1.2633667,0.82476807,1.0872955
9.396988,-2.26503,-0.32632446,-1.2889403999999998,0.3017273,1.1043396
9.171936,-2.0854645,0.32730103,-1.1707001,0.0013275146,0.9456177
9.234177,-2.1524963,1.1604767,-0.9011841,-0.0039978027,0.7048645
8.980392,-2.2482604999999998,1.6464995999999998,-0.66256714,0.118499756,0.46731567
8.262131,-2.6026154,1.1006316999999999,-0.5123595999999999,0.19734192,0.29794312
8.2573395,-2.597824,0.6098175,-0.3813324,0.14300537,0.18289185
9.473602,-2.4086761,1.3256836,-0.23219299999999998,0.071640015,0.0071258545
10.335510000000001,-2.1213683999999997,2.446167,-0.06921387,0.062042235999999994,-0.21125793
10.57254,-1.8699799,2.6999512,0.087387085,0.07057189999999999,-0.42538452
10.6922455,-2.0591278,2.4270172000000003,0.21948242,0.055648804,-0.6022185999999999
11.025039999999999,-2.506836,2.288147,0.30895996,0.022628784,-0.74601746
11.946808,-2.8204803,2.4892578,0.35583496,-0.0061340330000000005,-0.896225
12.643524000000001,-3.138916,2.7406616,0.49325562,-0.043411255,-1.1369781
13.246857,-3.8332367,2.7765656,0.7510376,-0.07749939,-1.5151367
14.161453,-5.1572265999999996,2.5299682999999997,1.0823364,-0.17018127,-1.7899779999999998
14.884491,-6.27771,2.312088,1.488205,-0.42158508,-1.8624115
14.719299,-6.3064423,2.142105,1.8269653000000001,-0.8072052,-1.8123474
14.113570999999999,-5.28891,2.5275726,1.8589171999999998,-1.1608733999999998,-1.7484283
14.147079000000002,-5.219467,3.0016173999999998,1.4466553,-1.1566162,-1.8496398999999997
12.988281,-5.748596,2.9920502,0.7095031999999999,-0.66127014,-2.1074371
11.398544000000001,-6.1963042999999995,3.1356964,0.02986145,0.1174469,-2.2927855999999998
10.910126,-7.173141499999999,2.8124847,-0.18852234,0.854599,-2.2927855999999998
11.788788,-8.501923,1.6920012999999998,0.13638306,1.1752472,-2.059494
12.842239,-8.858658,0.29856873,0.6626281999999999,0.89401245,-1.6855927
12.155106,-7.704650999999999,-0.45082092,1.0152283000000002,0.28575134,-1.3521576000000002
9.973984,-6.5434722999999995,0.12858582,1.155838,-0.31506348,-1.1742553999999998
7.699493400000001,-6.27771,1.5196075,1.2091063999999998,-0.6602020000000001,-1.1625366000000001
5.6596375,-6.373474,2.8867035,1.1835327,-0.7251892,-1.1604156
4.527176,-6.284897,3.145279,1.0610351999999998,-0.65701294,-1.0347137
4.491272,-6.2968597,2.3144836,0.8256073,-0.5611267,-0.79182434
5.0515137,-5.990402,1.5627136000000001,0.53266907,-0.43223572,-0.530838
5.832016,-5.6552124,1.5196075,0.23864746,-0.2820282,-0.29647827
5.903839,-5.4732513,1.481308,-0.048965454000000005,-0.19894409,-0.051467896
5.3507843,-5.377487,1.1868134,-0.32168579999999997,-0.14781189,0.18075562
4.768997,-5.2697449999999995,0.67684937,-0.54644775,-0.04447937,0.35119629999999996
4.93898,-5.3415833,0.32730103,-0.7126312,0.069503784,0.51631165
5.4824677,-5.569031,0.27223206,-0.82980347,0.14086914,0.76026917
6.1384735,-6.016739,0.2674408,-0.8745575000000001,0.16644287,1.0585327
7.215866,-6.866683999999999,0.19801329999999998,-0.83833313,0.17602539,1.3291168
8.482407,-7.5610046,0.34884644,-0.75523376,0.11317444,1.5485535
9.013916,-7.972809,0.6217804,-0.74990845,0.06629944,1.7232666
8.956451,-8.41333,0.80374146,-0.75097656,0.10572815,1.8617401000000002
9.205444,-9.198639,0.9330291999999999,-0.5389862,0.10891724,1.8968964
9.358673,-9.3806,1.0383759,-0.19384766,0.10040283,1.8063506999999999
9.107285000000001,-8.437286,1.153305,0.0415802,0.08973694,1.6114044
9.195877000000001,-7.661560000000001,0.8157196,0.06713867,-0.016784668,1.4654694
9.588516,-6.948089599999999,0.8300780999999999,-0.052169799999999995,-0.14035034,1.4644012
10.440857000000001,-6.438125599999999,1.6680602999999998,-0.22686768,-0.102005005,1.4953003
11.460785000000001,-6.363907,2.094223,-0.4005127,0.10359192,1.4750518999999997
11.997086,-6.27771,1.481308,-0.49957275,0.35925293,1.3834381000000002
11.2812195,-5.8012695,0.5020752,-0.53686523,0.47109985,1.22258
9.85907,-5.1883545,-0.031829834,-0.6582946999999999,0.36990356,1.1064758
9.023483,-4.410232499999999,0.06872558599999999,-0.8415222,0.17283629999999997,1.0841063999999998
8.721817,-3.5507202000000007,0.38237,-0.9107665999999999,0.06736755,1.0766448999999998
8.681122,-2.8563994999999998,0.7486725000000001,-0.82980347,0.07696533,1.0148621
8.908569,-2.530777,0.82051086,-0.7030487,0.10998535,0.93922424
8.750549000000001,-2.5499419999999997,0.29138184,-0.5954437,0.09080505,0.8635864
8.460846,-2.6911926,-0.031829834,-0.46868896,0.0002593994,0.7506714
8.702667,-2.7271118,0.5786896,-0.22793579,-0.11053467,0.59620667
9.356277,-2.585846,1.481308,0.10122681,-0.23303223,0.41085815
9.684296,-2.470932,1.8188933999999997,0.37287903,-0.33103943,0.18821716
9.665131,-2.1740417,1.7662201000000002,0.48791504,-0.36831665,-0.065322876
10.026657,-1.941803,1.7733917000000001,0.47726440000000003,-0.39389038,-0.26239014
10.74971,-1.9657593,2.2450562,0.68818665,-0.7070770000000001,-0.4797058
11.233336999999999,-2.0232086,2.6544647,1.378479,-1.28125,-0.79289246
11.633163,-2.0902557,2.5850372000000004,1.8322906000000003,-1.5049591,-1.0474854
12.248474,-2.470932,2.0367584,1.6703644,-1.2407683999999999,-1.1476288000000001
12.808731,-3.284958,1.5028534,1.1867371000000002,-0.89456177,-1.2797241000000001
13.596420000000002,-4.175598,1.8141022,0.564621,-0.58351135,-1.6685332999999998
14.671417000000002,-4.625717,3.7940980000000004,-0.16294861,-0.18403625,-2.219284
15.389679000000001,-5.5283203,3.5068053999999997,-0.7126312,0.31132507,-2.5399323
15.799088000000001,-6.550644,1.05513,-0.7584380999999999,0.6745758000000001,-2.5005188
16.536499,-6.711059599999999,-0.44842529999999997,-0.31422424,0.7800293,-2.2736053
17.652191000000002,-6.8642883,-1.0948486000000002,0.18751526,0.62983704,-2.1298065
17.487000000000002,-6.766128500000001,-1.4468079,0.25036620000000004,0.45939636,-2.1244812
15.212508999999999,-7.000763,-0.7668457,0.037322997999999996,0.6053314000000001,-2.2448425
12.270035,-7.10849,0.9928894,-0.021270752,0.93663025,-2.3737487999999995
10.227768,-6.6631775,2.6760101,0.07673645,1.0751190000000002,-2.3364563
9.317978,-5.621704,3.0710602000000002,0.096969604,0.98776245,-2.1585693
8.922928,-4.6496580000000005,1.7422790000000001,0.034118652,0.80667114,-1.993454
9.068985000000001,-4.5251465,0.80374146,0.012817383,0.5904235999999999,-1.8507080000000002
8.855896000000001,-4.7142944,1.3568115,0.10443115,0.34541320000000003,-1.690918
7.7665405,-4.874709999999999,1.8524017,0.26208496,0.118499756,-1.503418
6.655624400000001,-5.0303345,1.3496246,0.40589905,-0.03276062,-1.280777
6.3683167,-5.298477,0.9042969000000001,0.48153687,-0.13290405,-1.0336456
6.2486115,-5.5283203,1.0575256000000002,0.45703125,-0.19894409,-0.81207275
5.9445496,-5.542694,1.6728363000000002,0.32814026,-0.22984314,-0.62031555
5.7194977,-5.5331116,2.1780242999999997,0.15556335,-0.19680786,-0.43496704
5.518387000000001,-5.6623993,2.2259064,0.019210815,-0.026367188,-0.26132202
5.403457599999999,-5.7390137,1.9649352999999998,-0.0052948,0.31665040000000005,-0.053604125999999995
5.489654499999999,-5.6983185,1.5004578000000002,0.0074920654,0.7384949000000001,0.15625
5.6356964000000005,-5.5331116,0.9857024999999999,-0.26309204,0.948349,0.49394226
5.970886,-5.576202400000001,0.71276855,-0.86816406,0.6447449000000001,1.1128693
6.5766144,-5.753372,0.7941741999999999,-1.3901367,0.0055847169999999995,1.6902313000000002
6.7873077,-5.997589,0.99768066,-1.4029236,-0.4695282,2.1120758
6.9836273,-6.4405212,0.6720581,-0.8798828000000002,-0.73158264,2.5168762000000005
7.165588400000001,-7.7022552,-1.1092224,-0.03086853,-0.91586304,2.799179
6.57901,-8.461227000000001,-2.9288177,0.6434479000000001,-1.1214600000000001,2.8332672000000003
6.8016663,-8.257721,-2.7157287999999995,0.78512573,-1.2226562,2.6244812
7.788086,-7.9249268,-0.26885986,0.4921875,-1.0969696000000002,2.4359283
8.903777999999999,-8.001541,2.4294127999999997,0.18112183,-0.7848358,2.5413818
10.740128,-8.267288,4.007187,0.24290466,-0.56433105,2.8076935
12.621979,-8.348694,3.434967,0.6029663000000001,-0.51852417,2.9536438
13.462341,-7.7956389999999995,1.4717255,0.7467804,-0.45353699999999997,2.782135
12.789566,-7.1539917,0.13098145,0.36434937,-0.19148254,2.3581543
11.293198,-7.3957977,0.13815308,-0.34724426,0.17816162,2.0556183
10.057785,-6.986389,1.5004578000000002,-0.9065094000000001,0.44021606,2.002365
10.084122,-5.748596,2.6927642999999994,-1.0865326000000002,0.4540558,1.9810486
10.902939,-4.501205400000001,1.8763428,-1.0513916,0.34114075,1.8340453999999997
11.475159,-3.49086,-0.1563263,-0.9576415999999999,0.21011353,1.6763916
10.704224,-3.0503235,-1.6598816000000003,-0.79252625,0.09187317,1.5368347
9.545425,-3.0862427,-1.3366699,-0.6029053000000001,0.013046265,1.3078156
9.341919,-3.0670776,0.18125916,-0.52407837,0.023696900000000003,0.9828949
10.005111999999999,-2.9066772000000003,1.1149902,-0.6188812,0.16004944,0.66651917
10.402557,-2.8444214,1.4094848999999998,-0.76802063,0.3251648,0.43322754
10.737732000000001,-2.7582397000000003,1.7135468,-0.8276825000000001,0.37522888,0.18608093
11.609222,-2.5283966,1.9433898999999997,-0.82022095,0.34646606,-0.1260376
12.471146000000001,-2.336853,1.6872101000000002,-0.83940125,0.35073853,-0.46479797
12.973923,-2.526001,1.0934448,-0.89797974,0.51904297,-0.79289246
12.966736000000001,-2.7654113999999996,0.8276825000000001,-0.84046936,0.8098602,-1.0474854
13.301926000000002,-2.9162445,1.1604767,-0.61676025,1.0250397,-1.198761
13.907669,-3.246643,1.5196075,-0.30889893,1.0964203000000001,-1.2924957000000001
14.2500305,-3.6847839999999996,1.6225586,0.044769287000000005,0.96751404,-1.3723907
14.290741,-4.312072799999999,1.5770721,0.39950562,0.6170502,-1.520462
13.723312,-4.862732,2.0678864,0.6764679,0.19413757,-1.7527008000000002
12.461563,-4.81485,2.7717742999999997,0.773407,-0.15420532,-2.011551
11.649933,-4.8172455,2.8603668,0.6956482,-0.2969513,-2.1788025
11.417694000000001,-5.0470885999999995,2.7238922000000003,0.6189574999999999,-0.26605225,-2.1681519000000002
11.848647999999999,-5.456497,2.3934937,0.68818665,-0.18615723,-2.1212769000000002
12.447205,-5.9401245000000005,2.0032349,0.8000488,-0.047683715999999994,-2.1969147
12.530991,-6.392624,1.5674896,0.75743103,0.22503662,-2.3812103
12.157501,-6.907379,1.2849883999999998,0.59124756,0.5541991999999999,-2.506897
11.611618,-7.565796000000001,1.4980621,0.56036377,0.758728,-2.5090332
11.604446000000001,-7.7549285999999995,2.1828003,0.7510376,0.74061584,-2.3652189999999997
12.001877,-7.4221344,2.4916534,1.0290833000000001,0.552063,-2.139389
11.772034,-6.715851,2.0032349,1.2517242,0.3496704,-1.9337921000000002
10.369034,-6.1005400000000005,1.4070892,1.3401337,0.21438599,-1.8176727
8.908569,-5.858719000000001,1.5986176,1.2613068,0.1259613,-1.7367249
7.7114716,-5.808441,2.2067412999999996,1.0333405,0.050323485999999994,-1.5929108
7.0865784,-5.9521027,2.319275,0.7478484999999999,-0.03276062,-1.3649445
7.1536255,-6.112503,1.9505615,0.48153687,-0.037017822,-1.13591
7.1464386,-5.937729,1.426239,0.25250244,0.09080505,-0.9196625
6.8615265,-5.748596,0.7941741999999999,0.057556152,0.26231384,-0.6331024000000001
6.478454599999999,-5.8515472,0.13098145,-0.04045105,0.26231384,-0.29968262
6.1696014,-5.9832152999999995,-0.12280273400000001,-0.074539185,0.15898132,-0.008865356
6.1289062,-5.9233704000000005,0.1405487,-0.16082764,0.095062256,0.25213623
6.476058999999999,-6.086166400000001,0.5499573,-0.33766174,0.069503784,0.56318665
6.602950999999999,-6.6033173,0.59783936,-0.56030273,0.0013275146,0.95947266
6.634078999999999,-6.871475,0.73191833,-0.8180847,-0.039154053,1.3876953
7.041092,-7.0390625,0.8636017,-1.0471191,0.053527832000000004,1.7797241000000001
7.4935913,-7.522689999999999,0.5715026999999999,-0.9768219000000001,0.08868408,2.145111
7.8311768,-8.257721,0.063934326,-0.48573303,-0.10733032,2.4646912
7.661194,-8.446854,-0.1443634,0.2450409,-0.43009949999999997,2.605301
7.419372599999999,-8.228989,-0.16351318,0.8767395,-0.6676635999999999,2.449768
7.3164215,-7.807602,0.04957580599999999,1.0162964,-0.756073,2.210083
7.462478599999999,-7.304825,1.2083588,0.63812256,-0.6719208000000001,2.1387177000000004
8.336349499999999,-7.065399,2.7717742999999997,0.08418274,-0.44502258,2.2537689999999997
10.060181,-6.993575999999999,3.4469452000000005,-0.26416016,-0.1765747,2.3997040000000003
12.0354,-6.921753,2.9058533,-0.30143738,0.059921265,2.3805237
12.461563,-6.689514,0.93782043,-0.150177,0.17602539,2.1365814
11.444030999999999,-6.5123444,-1.2313232,-0.09477234,0.18562317,1.8542938000000002
10.153549,-5.832382,-1.8753662,-0.32061768,0.2239685,1.7541504
9.56218,-4.920196499999999,-0.7668457,-0.62101746,0.2836151,1.7147369
10.084122,-4.0271606,0.6816406,-0.7286071999999999,0.31237793,1.6114044
10.917297,-3.2346802,1.3951111,-0.661499,0.27296448,1.4920959999999999
10.912521,-2.6457062000000002,1.0718994,-0.51875305,0.12382507,1.4068756000000002
9.871033,-2.5427551,-0.06774902,-0.34831238,-0.07110596,1.3078156
9.447266,-2.5906372,-0.43884277,-0.20556639999999998,-0.22024536,1.157608
9.818359,-2.5427551,0.3536377,-0.13418579,-0.2735138,0.99142456
10.086517,-2.4445952999999996,1.1509094,-0.10862732,-0.26498413,0.8294983
10.01709,-2.34404,1.4214478000000002,-0.07347107,-0.2735138,0.61431885
10.261291499999999,-2.1333466,1.5579223999999998,-0.08093262,-0.24900818,0.27876282
10.859848,-2.0615234,1.5291901,-0.20343018,-0.13822937,-0.09408569
11.501495,-2.1094055,1.4046936,-0.39944458,0.022628784,-0.40194702
12.109619,-2.2745972,1.2897644,-0.56030273,0.17070007,-0.70980835
12.897308,-2.4589539,1.4238434,-0.55070496,0.23143005,-0.99742126
14.029770000000001,-2.7797852,1.4765167,-0.28971863,0.15898132,-1.2871704
14.95871,-3.4286041,1.2466736,0.061813354,0.032211303999999996,-1.6557616999999998
15.435165,-4.412628,0.97613525,0.31961059999999997,-0.049804688,-2.0254060000000003
15.662613,-5.0542755,1.2251282,0.40803528,0.0055847169999999995,-2.266159
14.961104999999998,-4.95372,1.9409942999999998,0.3622284,0.18988037,-2.3588257
14.159057999999998,-4.596985,3.083023,0.2919159,0.35073853,-2.3694916
14.118347,-4.757385299999999,3.5451050000000004,0.27061462,0.41996765,-2.3748169999999997
14.082443,-5.3583374,3.1764069,0.375,0.43063354,-2.425949
13.565292000000001,-6.2801056,2.5131989,0.65197754,0.41358948,-2.489853
12.851822,-7.173141499999999,1.8308563000000002,1.0045776,0.36351013,-2.4983826000000002
12.210175,-7.7022552,1.5698853000000002,1.2506561,0.22076416,-2.4057007
11.530211999999999,-7.874649000000001,1.6967773000000002,1.2666321000000003,0.030090332,-2.2448425
10.570145,-7.613678,2.1828003,1.0397339,-0.11053467,-2.027542
9.526276,-7.3622894,2.845993,0.75849915,-0.15953064,-1.8517609
8.515915,-7.355102499999999,3.0135956000000004,0.5965729000000001,-0.11053467,-1.7697449
7.4911957,-7.278488,2.3336487,0.46554565,-0.050872803,-1.6514893
6.8447723,-7.0869446,1.3089294,0.27061462,-0.019973755,-1.4203339
6.380294999999999,-6.773315400000001,0.40391540000000004,0.06074524,0.020507812,-1.1433716
6.483246,-6.51474,0.22434998,-0.07133484,0.06417847,-0.8834380999999999
6.8639220000000005,-6.2633514,0.84684753,-0.11608887,0.08015442,-0.63842773
6.4066315000000005,-6.011947599999999,1.1006316999999999,-0.14697266,0.027954102,-0.35081482
5.5327454000000005,-5.822815,0.77023315,-0.19277954,-0.08177185,-0.018447876000000002
5.204742400000001,-5.794082599999999,0.6648864999999999,-0.20449829,-0.15100098,0.2926178
5.2645874,-5.7030945,0.9785155999999999,-0.21940613,-0.13928223,0.5759734999999999
5.336426,-5.6552124,1.3568115,-0.31315613,-0.12437439,0.91259766
5.4273987,-5.968857,1.3544159,-0.43778992,-0.08921814,1.2992858999999999
5.8415985,-6.5721893,1.1987915,-0.5336609,-0.0146484375,1.5741272
6.768158000000001,-7.223419,1.2634277,-0.61143494,-0.0039978027,1.7743988000000002
7.4672546,-7.6878967000000005,1.3304749,-0.6785431,-0.018920898000000002,2.0321808
7.642028999999999,-8.178711,1.0144348,-0.6838684,-0.057266235,2.2931824
7.984405499999999,-8.892180999999999,0.6816406,-0.58906555,-0.115859985,2.4998322
8.417755,-8.798798,0.69122314,-0.42820740000000007,-0.14887999999999998,2.6479034
8.163971,-7.733383,0.81092834,-0.21195984,-0.22770691,2.6628265
8.046661,-7.558609,0.8085326999999999,-0.046844482,-0.30441284,2.4838562
9.040253,-8.106873,0.88993835,-0.037246704,-0.3054657,2.2644196
10.421707000000001,-8.418121000000001,1.1940002,-0.0756073,-0.19575499999999998,2.0854492
11.484726,-8.291229,1.347229,-0.097976685,-0.061523438,1.8702698
12.250869999999999,-7.695083599999999,1.4741211,-0.20556639999999998,0.036483765,1.5506897
12.677048,-6.679931599999999,1.2849883999999998,-0.40583800000000003,0.13342285,1.2140656
12.0737,-5.463684,0.6576996,-0.5539093,0.23036194,0.96372986
11.218979,-4.5131836,0.46138,-0.58374023,0.29214478,0.9882354999999999
10.687453999999999,-3.5387419999999996,0.6864319000000001,-0.54644775,0.28575134,1.204483
10.536621,-2.7582397000000003,0.52601624,-0.48892212,0.16004944,1.2992858999999999
10.328323,-2.518814,0.21955872,-0.44418335,-0.03276062,1.2140656
10.072144,-2.6648560000000003,0.48292542,-0.37174988,-0.2000122,1.0862273999999998
9.205444,-2.9210358,1.105423,-0.17787170000000002,-0.29907227,0.9328308000000001
8.525497,-3.0670776,1.4358215,0.07460022,-0.30441284,0.70274353
9.131226,-2.774994,1.5291901,0.20988464,-0.22238159,0.46199036
10.127213000000001,-2.312912,1.4621582,0.21734619,-0.11691284,0.24041748
10.539017,-1.9226531999999998,1.6153870000000001,0.20562744,-0.055130005,0.016708373999999998
10.874207,-1.668869,2.2498473999999997,0.20669556,-0.09986877400000001,-0.21018982
11.556549,-1.5060577,2.7430573,0.12680054,-0.17550659,-0.5159302
11.953994999999999,-1.644928,2.3384247000000005,-0.11714172,-0.115859985,-0.8983612
12.181442,-1.8747711,1.7494506999999997,-0.38879395,0.095062256,-1.2072753999999999
12.607605,-2.2482604999999998,1.4980621,-0.42607117,0.28894043,-1.4469604
13.313904,-2.9138488999999996,1.3831482,-0.20236206,0.25805664,-1.7154082999999998
14.463119500000001,-3.8260498,1.0886536,0.019210815,0.08441162,-2.0413818
15.325026999999999,-4.505996700000001,0.6217804,0.047973632999999995,0.011978148999999999,-2.3087616
14.946747,-4.886673,0.6576996,0.036254882999999995,0.09719849,-2.4291382
14.257217,-5.035125700000001,1.6273499,0.07460022,0.21757507,-2.4238129
13.931610000000001,-5.1811676,2.659256,0.10122681,0.25273132,-2.3098297000000003
13.929214499999999,-5.7629547,2.7646027,0.122543335,0.20478821,-2.171341
13.445587,-6.732605,2.1085814999999997,0.20030212,0.13981628,-2.1202087000000005
12.657883,-7.6352234,1.9050751,0.292984,0.08761597,-2.1287384
11.669083,-8.114059,2.0583038,0.37287903,0.1174469,-2.1180877999999996
10.49353,-8.171524,2.0128174,0.46342468,0.21864319,-2.0381926999999997
9.691467,-7.826751700000001,1.9768982,0.5752716,0.32302856,-1.8869171000000002
9.40657,-7.2928467,2.3839264,0.6903229000000001,0.32197570000000003,-1.6983643
9.068985000000001,-6.828369,2.6185455,0.80537415,0.26551820000000004,-1.5258026000000002
8.542252000000001,-6.6464232999999995,2.6927642999999994,0.9055023000000001,0.22076416,-1.4160767
7.709076,-6.428543,2.7430573,0.91296387,0.19200134,-1.3329773
6.8974457,-6.1939087,2.7214966,0.7744751,0.19839478,-1.2008972
6.428177,-6.064621,2.5706634999999998,0.5145569000000001,0.19734192,-1.0048828
6.5023956,-6.150818,2.3480072,0.20562744,0.21650696,-0.8046112
6.679565400000001,-6.107727,2.2019653,0.0032348633000000003,0.247406,-0.624588
6.5,-5.9640656,1.802124,-0.0287323,0.2505951,-0.36465454
6.092987,-5.9544983,1.0718994,0.044769287000000005,0.21224976,-0.008865356
5.923004,-6.2130585,0.5308075,0.15768433,0.081222534,0.31071472
6.013977,-6.4620667,0.31054688,0.23439026,-0.1797638,0.59513855
6.0738373,-6.318405,0.76065063,0.33558655,-0.46206665,0.9200591999999999
6.00441,-6.4141846,1.4932709,0.56248474,-0.5558014,0.9988860999999999
6.0067900000000005,-6.780487,1.747055,0.6391906999999999,-0.44502258,0.70274353
6.4449309999999995,-6.9504850000000005,1.7566376,0.27273559999999997,-0.31399536,0.8028717
7.1464386,-7.0749816999999995,1.4884948999999998,-0.22261047,-0.14781189,1.4228516000000002
8.602112,-7.9560394,1.268219,-0.49745178,0.024765015,2.004486
11.965958,-8.954422000000001,1.2203369,-0.38986206,0.057785034000000006,2.2686767999999997
14.130325,-8.090117999999999,0.24349976,-0.04257202,-0.039154053,2.210083
10.766464,-5.530716,-1.6551056,0.17472839999999998,-0.15527344,1.9459076000000002
7.579788000000001,-4.4844513,-2.0860596,-0.015945435,-0.21812439,1.8564148
7.912582400000001,-4.862732,-1.281601,-0.4090271,-0.066848755,2.0204773
10.213409,-5.753372,0.17167664,-0.5826720999999999,0.19306946,2.180252
12.004272,-6.320801,1.1820374,-0.48466492,0.36138916,2.1376494999999998
12.361008,-5.9880066,1.0144348,-0.3078308,0.32302856,2.0076904
10.49353,-5.4732513,-0.1443634,-0.24284363,0.17390442,1.9767914
8.489578,-5.3942413,-0.6088256999999999,-0.32806396,0.07801819,2.0407104
7.788086,-5.003998,0.58587646,-0.43566895,0.027954102,2.093979
8.099335,-4.448532,1.7805786,-0.42074585,-0.041290283,2.0588226
8.286072,-4.139694,1.9314116999999997,-0.29930115,-0.10839844,1.9757233
7.847931,-3.8858947999999995,1.3256836,-0.17787170000000002,-0.20640564,1.8638762999999998
7.5917509999999995,-3.7063292999999997,0.7438965,-0.10437012,-0.29907227,1.6966248
7.891037,-3.6273345999999997,0.6289673000000001,-0.074539185,-0.32783508,1.4484253
8.642807000000001,-3.325653,1.1940002,-0.06600952,-0.25753784,1.1277771
9.349105999999999,-3.0335693,1.7614288,-0.11502075,-0.06259155,0.8199158000000001
10.055389,-2.8180847,1.7853699,-0.19491577,0.1259613,0.6026001
10.888580000000001,-2.470932,1.6129913,-0.23751831,0.16644287,0.38848877
11.757675,-2.0184173999999997,1.4908752,-0.42500305,0.3720398,-0.08981323
12.516632000000001,-1.7909698,1.5890503,-0.9160919,0.995224,-0.659729
13.134338,-2.18602,1.5435486,-1.2442017,1.8282471000000002,-0.89408875
13.510223000000002,-2.956955,1.3759613000000002,-0.9618988000000002,2.2138824,-0.7545470999999999
14.494247,-3.7590027000000004,1.5315857,-0.30889893,1.7760619999999998,-0.55107117
16.433548000000002,-4.65683,1.4358215,0.22692871,0.8034668,-0.626709
16.459885,-5.7390137,0.55714417,0.43466187,-0.016784668,-1.0528107
13.838226,-7.1372222999999995,0.6936188,0.49005127,-0.30973816,-1.5417786
10.752106,-7.7190247,2.1468964,0.5209503,-0.24049377,-1.726059
9.092926,-7.010330000000001,2.8436127,0.54971313,-0.12863159,-1.6376495
9.626831,-6.124480999999999,2.2570342999999995,0.36860657,0.041809082000000004,-1.6397858
10.974762,-5.6240997,1.3256836,-0.09051514,0.35818479999999997,-1.8965148999999997
11.163910000000001,-5.2290497,1.3424377,-0.3781433,0.585083,-2.106369
9.832733000000001,-5.305664,1.6848145,-0.16508484,0.59680176,-2.0626830000000003
8.647598,-5.135681,1.7901611000000002,0.40589905,0.552063,-1.9263306
9.545425,-5.1524353,1.2610321000000002,0.91296387,0.45832825,-1.8837279999999998
10.838303,-5.1260986,0.19322205,1.0301361,0.34646606,-1.9604186999999997
10.421707000000001,-5.013565,0.6983948,0.8181609999999999,0.20266724,-2.0445862
8.949264999999999,-4.996811,2.5610962,0.51242065,0.10784912,-2.0041046000000002
8.307617,-4.941742,3.9090269999999996,0.41229248,0.1174469,-1.8645477
8.480011,-4.5754395,3.6672057999999996,0.4921875,0.24101257,-1.7132874
8.824767999999999,-4.419815,1.8835297,0.50709534,0.32090759999999996,-1.5076903999999998
8.949264999999999,-4.608947799999999,0.47573853,0.4261322,0.25698853,-1.2839813
9.059402,-5.6240997,0.0016937256,0.31747437,0.07801819,-1.0858459999999999
8.714644999999999,-6.1005400000000005,0.9138794,0.25143433,-0.15953064,-0.88131714
8.274109,-6.1580048,1.9218445,0.32279968,-0.41944885,-0.58943176
7.2326355,-5.861114499999999,1.541153,0.47940063,-0.580307,-0.19953918
6.705902,-5.6384583,0.8133239999999999,0.5688781999999999,-0.5717926,0.13494873
6.7178802,-5.772537000000001,0.5619354,0.41654968,-0.49189758,0.40126038
6.646042,-6.102936,0.6361541999999999,-0.037246704,-0.42904663,0.76026917
6.2510069999999995,-6.282501,1.3113098,-0.71369934,-0.30653379999999997,1.0894318
6.2581940000000005,-6.780487,1.8284607,-1.4359436,0.28681946,1.159729
6.871109,-7.515517999999999,1.5555267,-2.3190459999999997,1.0388947,1.4580078
7.0674285999999995,-7.946472,0.46855164,-2.924118,0.91212463,2.3283386000000004
6.978836,-8.715012,-0.8243103,-2.2103882,-0.37471008,3.2082367
7.333191,-9.569733,-1.6096039,-0.6540375,-1.4538269,3.4958649
7.9532776,-10.19223,-1.5353851,0.5145569000000001,-1.7318573,3.0985107000000003
7.4816284,-11.465942,-1.9974669999999999,0.5848541,-1.5773926,2.5658875
5.788925,-12.811492999999999,-1.9543761999999998,-0.08944702,-1.218399,2.3187408
6.672378500000001,-12.10759,2.9106445,-0.7776184,-0.74967957,2.2825317000000003
10.620422,-11.480316,6.3032227,-1.0780181999999998,-0.25326538,2.1546936000000003
14.453536999999999,-10.639938,5.3072357000000006,-1.0556488000000002,0.16004944,1.8255310000000002
14.92041,-9.043014999999999,1.5555267,-0.94166565,0.41358948,1.4675903000000001
12.959564,-7.2473600000000005,-1.3582153000000001,-0.8862610000000001,0.44660950000000005,1.267334
10.912521,-5.7078857,-1.4563751,-0.8862610000000001,0.33581543,1.1991577
10.09848,-4.467697,0.30575562,-0.88093567,0.22076416,1.1160583
9.952438,-3.6632385000000003,1.7446747,-0.8340759,0.16323853,0.98716736
9.497542999999999,-3.222702,2.130127,-0.7435303000000001,0.14833069,0.8987427
8.815201,-3.320877,1.7039642,-0.5954437,0.16004944,0.81884766
8.465637,-3.641693,1.3137054,-0.36109924,0.12702942,0.71232605
8.815201,-3.866745,1.2706146,-0.03831482,0.03541565,0.58555603
9.289246,-3.8930817,1.5004578000000002,0.27487183,-0.07963562,0.44068909999999994
9.136016999999999,-3.6680297999999993,1.778183,0.44744873,-0.102005005,0.26278687
9.037857,-3.3735352,2.1349182,0.49537659999999994,-0.06578064,0.07209778
9.126434,-3.1053925,2.470108,0.46022034,-0.018920898000000002,-0.14733887
9.356277,-2.8827362,2.7717742999999997,0.34518433,0.023696900000000003,-0.41152954
9.713028,-2.7965392999999996,2.707138,0.13212585,0.10359192,-0.6544036999999999
10.254105000000001,-2.9186401,2.0224,-0.16934204,0.27296448,-0.9249878
10.814346,-3.0886383,1.3999023000000002,-0.41435242,0.58828735,-1.2232666
11.515854,-3.5339508,1.0288085999999999,-0.33766174,0.74061584,-1.4618835
12.638733,-4.2593994,0.6289673000000001,-0.002105713,0.664978,-1.7026366999999998
13.651489000000002,-5.3655243,0.33688354,0.20562744,0.63516235,-2.0989075
14.673813,-6.5123444,0.24349976,0.055419922,0.78749084,-2.5260773
14.867737,-7.024703999999999,0.5906677,-0.27693176,1.0261078000000001,-2.7082367
13.823868,-6.519516,1.881134,-0.34085083,1.2434235,-2.6571045
13.467132999999999,-6.421355999999999,3.035141,0.03944397,1.3148041000000001,-2.5559082
14.228485000000001,-6.9959717,2.580246,0.5848541,1.1613921999999999,-2.4461823
14.238068,-7.673522999999999,1.268219,1.0162964,0.8226471,-2.3535004
12.715347,-8.628815,0.47094727,1.3518523999999998,0.47004700000000005,-2.2097015
11.479935000000001,-9.488327,1.2897644,1.7172394,0.27510070000000003,-2.0349884
10.764069000000001,-9.536224,2.8938904,1.9377441000000002,0.14726257,-2.0957183999999995
9.614853,-8.882599,3.537918,1.6661072000000001,0.08229065,-2.2565612999999995
8.420150999999999,-8.140396,3.1141509999999997,1.0375976999999998,0.13554382,-2.2214202999999997
7.397827,-7.359894000000001,2.690384,0.5294647,0.23143005,-1.9870605
7.124892999999999,-6.598526,2.6017914,0.43145752,0.23568726,-1.6823883000000002
7.989197,-6.1148987,1.9074706999999997,0.55503845,0.16323853,-1.3542938
7.9915924,-6.0622253,0.008865356,0.61042786,0.081222534,-1.0166016
6.6436615,-6.112503,-1.3701934999999998,0.5454406999999999,0.030090332,-0.69062805
5.3962708,-6.282501,-0.9895171999999999,0.45703125,-0.11053467,-0.37211609999999995
4.673233,-6.339966,0.67445374,0.41654968,-0.35020447,-0.012054443
4.223114,-6.320801,1.7255096,0.50709534,-0.61972046,0.39700317
3.9429932,-6.308838,1.6249542,0.7020416,-0.882843,0.86891174
3.8663788,-6.3351746,1.074295,0.81388855,-1.0511627000000001,1.3152618
3.9094696000000004,-6.51474,0.88993835,0.6903229000000001,-1.0479584000000002,1.7040863000000002
4.180023,-7.163558999999999,0.91867065,0.38671875,-0.8743286,2.0705414
4.6756134000000005,-7.900970500000001,1.3903198,-0.046844482,-0.6868286,2.4220734
4.910248,-8.149979,1.936203,-0.46655273,-0.5504760999999999,2.8737487999999995
5.6404877,-8.533050999999999,1.7638245,-0.7903899999999999,-0.33210754,3.130478
6.9764557,-9.189055999999999,0.82528687,-1.2740173000000001,-0.0039978027,2.9866638
8.305237,-9.9552,0.013656616000000002,-1.6276855,0.26763916,2.8354034
9.102492999999999,-10.331085,-0.5609436,-1.2889403999999998,0.23675537,2.766159
9.392197,-9.924072,-0.77163696,-0.48999023,-0.027435302999999998,2.5168762000000005
10.68985,-8.700638,-0.17070007,-0.006362915,-0.28630066,2.002365
12.677048,-7.953644000000001,-0.5178528,0.06927489999999999,-0.4077301,1.6135406
13.127151500000002,-7.6471862999999995,-0.23773193,0.18858337,-0.45780945,1.6199341
12.892517,-7.249756,2.1157684,0.39524840000000006,-0.45248413,1.7701262999999998
13.179825,-6.639236500000001,3.9377593999999996,0.56355286,-0.40454102,1.7658691000000002
13.3402405,-6.0933532999999995,2.7957153,0.6700897,-0.33103943,1.6774596999999998
11.992294000000001,-5.798874,1.1030273000000002,0.7435913000000001,-0.22131348,1.6444244
9.732178,-5.3391876,1.3639832,0.8969879000000001,-0.04447937,1.6508179
8.681122,-5.001602,1.8667755000000001,1.0652924,0.10784912,1.5038147
8.803223,-4.7358400000000005,1.7662201000000002,0.95983887,0.20585632,1.1778412
8.606902999999999,-4.5610657,1.584259,0.52201843,0.27722168,0.8486786000000001
8.049057000000001,-4.505996700000001,1.4645386,-0.044708252000000004,0.31025696,0.68782043
8.125671,-4.3743134,1.4980621,-0.39305115,0.28256226,0.57276917
8.980392,-3.8643494,1.29216,-0.40156555,0.24952698,0.37783813
9.619644000000001,-3.2610167999999997,0.023239136,-0.30036926,0.19306946,0.122161865
9.6723175,-2.980896,-1.4468079,-0.29611206,0.06843567,-0.05467224
8.970825,-2.8683624,-2.1052093999999997,-0.37600708,-0.061523438,-0.13775635
8.8654785,-2.894699,-1.2289276000000002,-0.42500305,-0.17871094,-0.2474823
9.574158,-3.091034,0.42785645,-0.5166168,-0.31718445,-0.5244446
10.304382,-3.3065032999999997,1.1628723,-0.74246216,-0.47804259999999993,-0.9494934000000002
10.713791,-3.969696,0.9234619000000001,-0.9118347,-0.53770447,-1.4352417
11.26207,-4.7980957,0.6170044,-0.8734894,-0.39814758,-1.7580261000000001
12.442413,-5.332000700000001,0.83247375,-0.6029053000000001,-0.050872803,-1.9178162
14.276367,-5.7629547,1.0240173000000001,-0.10437012,0.42103577,-2.0381926999999997
15.887665,-6.490799,0.6648864999999999,0.41548157,0.7384949000000001,-2.1990355999999998
16.294678,-6.7852783,1.1772461,0.66049194,0.60639954,-2.2832031
14.415237,-6.167572,2.5515137,0.7489166,0.08441162,-2.2459105999999998
12.380157,-5.8683014,3.7940980000000004,0.85224915,-0.4812317,-2.1532287999999995
11.649933,-6.3112335,4.4836273,0.9204254000000001,-0.81785583,-2.0957183999999995
11.884567,-7.2353973,4.1532288,0.86608887,-0.94143677,-2.0829315
11.204605,-7.568191499999999,2.5778502999999997,0.6999054,-0.76353455,-2.105301
10.416916,-7.7070465,1.5914458999999999,0.47407532,-0.27030945,-2.1180877999999996
10.448044,-8.243347,1.5986176,0.17686462,0.30065918,-2.185196
10.723372999999999,-8.530655,1.7326965,-0.22579956,0.7022705,-2.2746735
10.014694,-7.5442350000000005,1.6560822,-0.43885803,0.8588562,-2.171341
9.262909,-6.4644623,1.7542419999999999,-0.13739014,0.8567351999999999,-1.7953033
8.827164,-6.0981445,1.6177673000000001,0.37713623,0.6830901999999999,-1.4501648
8.729004,-6.2513733,1.1628723,0.6157531999999999,0.35606384,-1.2765198
7.572601299999999,-6.0311127,0.54278564,0.5656891,0.0087890625,-1.1881104
5.786529499999999,-5.7030945,0.9928894,0.39524840000000006,-0.21066284,-1.1241913000000001
4.891098,-6.011947599999999,2.4916534,0.19071960000000002,-0.2511444,-1.00914
5.2334747,-6.2896730000000005,3.0542908,0.06288147,-0.21173096,-0.76626587
5.585418700000001,-5.9880066,1.8284607,0.054367065,-0.17231749999999998,-0.4285736
5.9206085,-5.808441,0.5882721,0.07992554,-0.13502502,-0.047210693
6.5478819999999995,-6.4931946,0.21237183,0.05329895,-0.13716125,0.36611938
6.3874817,-6.938507,0.22914124,-0.006362915,-0.1296997,0.72084045
5.5064087,-6.955261,0.6600951999999999,-0.06388855,-0.113723755,1.0297699
5.140091,-7.271301299999999,1.2466736,-0.22261047,-0.12651062,1.3706512
5.3962708,-8.037445,1.3352661,-0.53793335,-0.17871094,1.7754517
5.5423279999999995,-8.458832000000001,1.0766907,-0.87667847,-0.24475098,2.2931824
6.1025696,-8.870636,0.85401917,-0.9810790999999999,-0.21705627,2.9184875
7.048278999999999,-9.562561,0.7654419,-0.710495,0.03755188,3.2955932999999997
8.025116,-10.927246,0.31054688,-0.2364502,0.45939636,3.2881317
8.034683,-11.123581,-0.2568817,0.11401367,0.6543274,3.0942534999999998
7.424164,-10.661499000000001,-0.16111755,0.10229492,0.2836151,2.8567047000000003
7.373886,-10.271239999999999,0.8875427,-0.3344574,-0.33636475,2.5967712000000005
8.453674000000001,-9.612839,2.2737884999999998,-0.8873290999999999,-0.68577576,2.4327240000000003
10.170319000000001,-9.052582000000001,2.611374,-1.029007,-0.54089355,2.4178162
11.791183,-9.078918,1.3687744,-0.65296936,-0.057266235,2.4934540000000003
12.554932,-8.849075,-0.5968628,-0.14485168,0.34327698,2.368805
12.480713,-8.219406,-2.2392882999999997,0.073532104,0.46897888,2.0098114
11.211791999999999,-7.0342712,-2.1315459999999997,0.073532104,0.32302856,1.7637482
10.234955000000001,-6.4309387000000005,0.22434998,0.09057617,0.0055847169999999995,1.6859741000000001
9.6819,-6.0382843,2.6305237,0.12573242,-0.17018127,1.5762482
9.815978999999999,-5.195526,3.3487854,0.08099365,-0.08815002400000001,1.3323059
10.258896,-4.4221954000000006,1.936203,-0.07347107,0.12489319,1.0052795
9.667525999999999,-4.055893,0.46377563,-0.28652954,0.29321290000000005,0.67077637
8.946869,-3.7015532999999996,0.30575562,-0.42713928,0.28468323,0.4300232
9.215027000000001,-3.3855133,0.44700623,-0.46336365,0.1770935,0.27236938
10.005111999999999,-3.0623016,0.3177185,-0.5294036999999999,0.11317444,0.07849121
10.51268,-2.719925,0.030426025,-0.6369934,0.18562317,-0.17930603
10.641967999999999,-2.6002197,-0.22337341,-0.7168884,0.24101257,-0.42750550000000004
10.555786,-2.7151337000000004,-0.055770874000000005,-0.81170654,0.21118164,-0.6512146
10.665909,-3.138916,0.49249268,-0.98747253,0.28468323,-0.89089966
11.276428,-3.6440887,0.63375854,-1.1451263,0.45619202,-1.1529541
12.188628999999999,-4.415024,0.6529083000000001,-0.9906616,0.6031951999999999,-1.3329773
12.78717,-5.250595,0.9785155999999999,-0.39837646,0.65859985,-1.5162048000000001
13.524597,-6.27771,1.0910492,0.28552246,0.5755005,-1.869873
14.518188,-7.599303999999999,0.98091125,0.58592224,0.45193479999999997,-2.2842712000000005
14.472686999999999,-8.006317,1.3807526,0.51667786,0.3954773,-2.5857391
13.014617999999999,-7.1803284,2.8436127,0.43891907,0.3954773,-2.7061157000000002
12.116806,-6.452483999999999,4.7039029999999995,0.5518341,0.38801575,-2.6730804
12.904494999999999,-6.9959717,5.031905999999999,0.7457123000000001,0.36245728,-2.5324707
13.495865,-8.267288,3.3176574999999997,0.86608887,0.26763916,-2.3524475
12.684219,-8.935272,1.6584778000000002,0.9182892,0.15153503,-2.2064972000000003
11.331497,-9.2608795,1.4310303,1.0013733,0.095062256,-2.1468506
10.510284,-9.651138000000001,1.9768982,1.1132355,0.11424255,-2.1564330000000003
9.8423,-9.682266,2.1923828,1.1782073999999998,0.09613037,-2.1511077999999997
8.752945,-8.851471,1.9816895,1.1473236,0.050323485999999994,-2.07547
7.737808,-7.678314,1.8691711,1.0674286,0.034347534,-1.9210052
7.402618400000001,-6.904983500000001,2.1205597000000003,1.0056458000000001,0.053527832000000004,-1.7058258000000002
7.4552917,-6.890625,2.2139282000000002,1.0003203999999999,-0.0061340330000000005,-1.4075469999999999
6.9812316999999995,-6.775696000000001,1.8643798999999999,0.9917908000000001,-0.066848755,-1.1295166
6.0666504,-6.402206400000001,1.3328705,0.8916626,-0.09561157,-0.91645813
5.1257324,-5.944916,1.1078033,0.6860656999999999,-0.18722534,-0.68743896
4.491272,-5.8012695,1.110199,0.46022034,-0.31292725,-0.39874268
4.280578599999999,-6.1172943,1.1820374,0.30470276,-0.38217163,-0.10685730000000002
4.965317,-7.103714,1.0790863000000002,0.20562744,-0.37258909999999995,0.14027405
5.250229,-7.316787700000001,0.64094543,0.087387085,-0.29269409999999996,0.35440063
5.219101,-7.34552,0.15492249,-0.06921387,-0.18722534,0.6026001
5.5135955999999995,-7.855484,-0.041412354,-0.21621704,-0.09454346,0.8433533000000001
6.1935425,-8.406158,0.1477356,-0.48146057,0.0013275146,1.1512146
6.681961,-8.636002000000001,0.39193726,-0.9288788,0.029022217000000003,1.5986328
6.9046173,-8.834717,0.34884644,-1.331543,0.03327942,2.0268555
6.672378500000001,-9.110046,0.12619019,-1.4221039,0.18774414,2.3592223999999997
7.191925,-9.957596,0.097457886,-1.1802826000000002,0.46791077,2.7618866
7.9963837,-11.190613,-0.46038818,-0.6316681,0.38162229999999997,3.246582
7.8934326,-11.643112,-1.2145691,0.06288147,-0.12437439,3.3627013999999997
7.5941467000000005,-11.329467999999999,-1.0493622,0.52734375,-0.676178,2.9611053
7.859909,-10.797958,0.2339325,0.5390625,-1.0820465,2.4178162
7.9413146999999995,-10.46756,1.3831482,0.23013306,-1.1289215,2.0779877
8.197494500000001,-10.187439,2.130127,-0.09158325,-0.756073,1.9363098
10.359451,-9.617614999999999,2.2283020000000002,-0.34405518,-0.12223816,1.8425751
12.440017999999998,-8.425308,1.2059784,-0.5070342999999999,0.46897888,1.6497650000000001
12.372986000000001,-6.8403472999999995,-0.21858215,-0.49212646,0.7960205,1.2769165
10.752106,-5.420578,-0.8937378,-0.30889893,0.93130493,0.85614014
9.408951,-4.630493,-0.206604,-0.16508484,0.9238434000000001,0.70806885
8.829559,-4.213913,0.55474854,-0.19917297,0.7438201999999999,0.78263855
9.030669999999999,-4.0271606,0.9450073,-0.29397583,0.41571045,0.7847595
9.959625,-3.6512756,1.4908752,-0.29078674,0.06311035,0.6675873000000001
10.35228,-3.1796112,1.9768982,-0.17466736,-0.17764282,0.5152588
9.303619,-3.2418669999999996,1.778183,-0.09158325,-0.18829346,0.36398315
8.310013,-3.5124053999999996,0.8947296,-0.19491577,-0.038085938,0.21804810000000002
8.673935,-3.3304443,0.42306520000000003,-0.49957275,0.20799255,0.08595276
9.514297500000001,-2.956955,0.7798004,-0.7637634,0.45193479999999997,-0.01524353
10.3953705,-2.7295074,1.5172119,-0.7062378,0.5115814000000001,-0.12284851
11.408112,-2.8970947,1.7757874,-0.38346863,0.3496704,-0.31884766
12.234116,-3.2897491000000003,1.3568115,0.06288147,0.050323485999999994,-0.59687805
12.899704,-3.8523864999999997,0.6648864999999999,0.58273315,-0.33103943,-0.896225
13.232498000000001,-4.1971435999999995,0.679245,0.98753357,-0.63357544,-1.247757
13.515015,-4.245025599999999,1.8931122,0.89805603,-0.64741516,-1.7548218
14.130325,-4.419815,2.8890991,0.3004303,-0.28948975,-2.2938537999999995
14.609160999999999,-4.625717,3.3128662,-0.3770752,0.29533386,-2.6155548
14.228485000000001,-4.257004,3.6743927000000003,-0.6700134,0.79281616,-2.6698914
14.233276000000002,-4.2665863,3.6145324999999997,-0.47720337,1.0463562,-2.5985107000000003
14.712112,-4.644867,2.1875916,0.037322997999999996,0.9771118000000001,-2.4515076000000002
14.78154,-5.5283203,0.4517975,0.5699463,0.6511383000000001,-2.3268737999999995
13.943573,-7.1515960000000005,0.0016937256,0.96195984,0.36245728,-2.331131
12.636337,-8.624023,1.1557007,1.2581023999999998,0.21650696,-2.3897247000000004
11.139969,-8.813171,2.7526245,1.3603668,0.29533386,-2.3875884999999997
9.552612,-8.047028,3.8850860000000003,1.1846008,0.6053314000000001,-2.2469787999999995
8.887024,-7.5801544000000005,4.0574646,0.83200073,0.9036101999999999,-1.9732056
9.20784,-7.6112823,3.624115,0.60510254,0.88124084,-1.7196808000000001
8.946869,-7.163558999999999,3.4732818999999995,0.644516,0.56484985,-1.6184691999999998
8.168762,-6.866683999999999,2.8938904,0.7925873000000001,0.23675537,-1.6216736
7.347549400000001,-6.6200867,1.7757874,0.85757446,0.06524658,-1.583313
6.8016663,-6.660782000000001,0.61460876,0.86076355,0.0077209473,-1.4299164
6.811249,-6.536285400000001,0.5786896,0.78726196,-0.035964966,-1.2094116000000001
7.177566499999999,-6.1651764,1.4405975,0.61361694,-0.08282471,-0.9771880999999999
7.2805176,-5.822815,2.0343628000000002,0.44212340000000006,-0.18403625,-0.73324585
6.7873077,-5.7102814,1.8524017,0.31747437,-0.2543335,-0.42750550000000004
6.131302,-5.7629547,1.6417236000000002,0.23971558,-0.22344970000000003,-0.028030396000000003
5.875122,-6.0191345,1.3639832,0.14277649,-0.16271973,0.49182129999999996
6.16481,-6.7038727,0.7869873000000001,-0.06175232,-0.27137756,1.1373596000000001
6.4976044,-7.259338400000001,0.73191833,-0.37068176,-0.46632385,1.6806488000000002
6.6053467,-7.9440764999999995,1.0024719000000002,-0.6582946999999999,-0.594162,1.9395142
6.4712677,-8.568954,1.2227325,-0.8234253,-0.5558014,1.9672089
6.1193237,-8.973587,1.0240173000000001,-0.9800110000000001,-0.31185913,1.9927673
6.009186,-9.196242999999999,0.34405518,-1.1643066,0.020507812,2.0705414
7.07222,-9.014282000000001,-0.22097778,-1.1664276000000002,0.24208069,2.0055542
8.432129,-7.8985899999999996,-0.096466064,-0.9075774999999999,0.21864319,1.8479004
9.516693,-6.6320496,0.6361541999999999,-0.61994934,-0.055130005,1.8052826000000002
10.41452,-6.421355999999999,0.8851471,-0.44525146,-0.46739197,1.8830566000000002
11.187851,-7.259338400000001,0.5020752,-0.34831238,-0.6783142,1.9703979999999999
11.903717,-7.821975699999999,0.6864319000000001,-0.26841736,-0.6314392,2.0396422999999997
11.920471000000001,-7.812392999999999,1.3855438,-0.17573547,-0.46418762,2.080124
10.917297,-7.673522999999999,1.2251282,-0.086257935,-0.37684629999999997,2.1131439999999997
9.746536,-7.2808839999999995,0.6816406,-0.11288452,-0.48443604,2.194107
8.810410000000001,-6.521911599999999,0.6026305999999999,-0.33338928,-0.56752014,2.2814636000000004
7.9077910000000005,-5.664795,0.8588104,-0.5336609,-0.42584229999999995,2.4199371
7.397827,-5.1213074,1.0455627,-0.501709,-0.24475098,2.6244812
7.357132000000001,-4.8004913,1.0958405,-0.44204712,-0.07537842,2.5072937
7.622878999999999,-4.8507690000000006,0.76304626,-0.677475,0.24420166,1.8383026000000002
8.429733,-5.1883545,0.32969666,-1.1653748,0.60639954,1.0564117
8.944489,-5.068633999999999,0.6098175,-1.4593811,0.7779083000000001,0.61857605
8.980392,-3.5842285000000005,1.6536865,-1.3390045,0.71717834,0.43109129999999996
10.481552,-1.5994415000000002,1.9314116999999997,-0.99172974,0.50413513,0.2691803
13.266022,-0.3903656,0.97613525,-0.6007843,0.21971129999999997,0.051864624000000005
14.12793,-0.10305786,-0.060562134000000004,-0.3536377,0.041809082000000004,-0.21978760000000003
12.818298,-0.51486206,0.42546082,-0.27267456,-0.07110596,-0.49993896
11.874985,-1.4988861,2.094223,-0.08200073,-0.20426941,-0.6458893
11.898926,-2.2745972,3.083023,0.44424438,-0.3012085,-0.5809021
12.650711,-2.9761047,3.387085,0.8458556999999999,-0.17124939,-0.7119293000000001
13.905273000000001,-4.424591,2.987259,0.6040344,0.3070526,-1.089035
14.458328,-5.901825,2.4653167999999996,0.18325806,0.725708,-1.440567
14.362564,-7.6855009999999995,2.8699493,0.14384460000000002,0.6980133000000001,-1.7676086
13.601212,-8.343903,4.1987305,0.47940063,0.3017273,-2.1180877999999996
13.785553,-7.158783000000001,4.39505,0.9417267,-0.14887999999999998,-2.379074
14.144684,-6.4141846,1.9314116999999997,1.3561096000000001,-0.5238495,-2.4792023
13.639510999999999,-6.325591999999999,0.6026305999999999,1.6203003,-0.79548645,-2.489853
12.997864,-6.490799,1.4837036,1.7183075,-0.9254608,-2.4813384999999997
12.365799,-6.718246499999999,2.7909393,1.7119141,-0.9062805,-2.4845276000000003
11.439239500000001,-7.101318400000001,3.339203,1.6692963,-0.7837677,-2.5122375
10.335510000000001,-7.515517999999999,3.279358,1.5915375,-0.61120605,-2.5463257
9.713028,-7.771698,2.829239,1.4775543,-0.46313477,-2.5250092
9.40657,-7.6088867,2.2785797000000003,1.3646393,-0.33850098,-2.4227448
9.102492999999999,-7.211441000000001,1.9098663,1.2144318,-0.15739441,-2.3300629
8.791260000000001,-6.794861,1.8380432,0.91296387,-0.013595581,-2.2885284
8.269318,-6.4309387000000005,1.6153870000000001,0.43252563,0.092941284,-2.2427216
7.677948,-6.284897,1.2849883999999998,-0.103302,0.22929382,-2.1937103
7.5702057,-6.7038727,1.0383759,-0.36535645,0.39440918,-2.0041046000000002
7.823989999999999,-7.304825,0.7175598000000001,-0.0756073,0.43063354,-1.5300598
7.677948,-7.470016499999999,0.107040405,0.55397034,0.26870728,-0.9026184000000002
7.582184,-8.135605,-0.50827026,0.94918823,0.0002593994,-0.34761047
7.4433136,-9.335098,-0.72854614,0.867157,-0.19255066,-0.02696228
6.1696014,-9.459610000000001,0.13815308,0.5710144,-0.14781189,0.08381653
4.20636,-8.992737,2.0774689,0.009613037,0.07482910000000001,0.19673157
3.4330292,-8.693466,3.241043,-1.1142426,0.41358948,0.59620667
3.7658233999999995,-8.442062,2.3001251,-2.42984,0.692688,1.3759918
5.1975555,-8.398972,0.24349976,-3.130783,0.61491394,2.3123473999999997
7.132064999999999,-8.583328,-0.8602295,-2.8697967999999996,0.3070526,2.7949219
8.499161,-8.837112,-1.839447,-1.8513947,0.029022217000000003,2.4529723999999997
8.037078999999999,-8.92569,-3.9152222,-0.61782837,-0.21705627,1.7104796999999998
6.227066000000001,-8.533050999999999,-4.6526337,0.2418518,-0.64741516,1.4122008999999998
5.3627625,-7.917739999999999,-2.1219634999999997,0.58380127,-1.1672668,1.6114044
8.159180000000001,-7.5634003,1.4860992,0.53160095,-1.40802,1.874527
12.693802,-7.000763,4.146057,0.21627808,-1.171524,1.8606873
14.891678,-6.354324299999999,4.8116455,-0.15122986,-0.6729889,1.6614685000000002
12.870972,-6.167572,3.1787872000000004,-0.3344574,-0.25646973,1.6582793999999998
10.019485000000001,-6.0622253,1.0096436,-0.26841736,-0.11265564,1.841507
8.997162,-5.432556,-0.22337341,-0.23326111,-0.10946655,2.0375214
9.906952,-4.7861176,-0.9607849,-0.17893982,-0.31185913,2.1259308
10.65155,-4.1492615,-1.0278167999999999,0.09271239999999999,-0.44181824,2.1419067000000003
9.447266,-3.7470398,-0.26885986,0.12680054,-0.31825256,1.9991608
8.235794,-3.5626830000000003,0.67684937,0.09057617,-0.21917725,1.7850494
8.3315735,-3.33284,0.5164489999999999,0.09271239999999999,-0.20533752,1.6646729
8.877441000000001,-3.4166412000000004,0.16209412,0.044769287000000005,-0.16699219,1.5805206
9.677109,-3.3400269000000002,1.5243988000000002,-0.05429077,-0.07324219,1.4377746999999999
10.914916999999999,-2.9186401,0.6194,-0.1267395,0.054595947,1.2470856000000001
11.657119999999999,-2.640915,0.19801329999999998,-0.119277954,0.16537476,0.9935608
11.415298,-2.4996642999999996,0.42546082,-0.035125732,0.22608948,0.6718445
11.417694000000001,-2.3272705,0.31532288,0.07673645,0.24101257,0.35865784
12.009064,-2.1453247,0.19082642,0.12680054,0.19627379999999997,0.102996826
12.677048,-2.0471497,0.29856873,0.085250854,0.092941284,-0.14414978
13.285171499999999,-2.0256042,0.6098175,-0.02659607,0.040740967,-0.4754486
13.907669,-2.0591278,0.9426117,-0.0756073,0.21331787,-0.94096375
14.400864000000002,-2.5690918,1.1245728000000002,0.002166748,0.5584564000000001,-1.5321808000000001
14.843796,-3.5435333,0.83247375,0.15875244,0.7960205,-2.0829315
15.296295,-4.2665863,0.51405334,0.29510498,0.7629852,-2.3545685
15.650635000000001,-4.345581,0.6194,0.25569153,0.6213074000000001,-2.346054
15.538116,-3.854782,1.6776276,0.00642395,0.5211792000000001,-2.2586975
15.310669,-4.0822296,2.750229,-0.28120422,0.5158539000000001,-2.2246094
14.477478,-5.1739807,2.7813567999999997,-0.38772583,0.5211792000000001,-2.2331237999999995
12.521423,-6.150818,2.1660461,-0.34298706,0.44128418,-2.1745452999999997
10.608459,-6.557831,1.165268,-0.23432922,0.35818479999999997,-2.012619
9.945250999999999,-6.825989,0.22434998,-0.027664185,0.3070526,-1.8443146000000001
10.091308999999999,-6.9409027000000005,-0.07252502400000001,0.27380370000000004,0.24952698,-1.7335205000000002
9.686691,-6.4572754,0.6864319000000001,0.6668854000000001,0.10359192,-1.6088867
8.55423,-5.8730927,1.4956665,1.0471802,-0.053009033,-1.4767914
7.4935913,-5.6959230000000005,1.8500061,1.2101746000000002,-0.1563263,-1.4448395
7.007568400000001,-5.585785,2.3695526,1.1334686,-0.230896,-1.4672089
6.7178802,-5.245804,2.762207,0.96728516,-0.2735138,-1.3819885
6.2510069999999995,-4.8555603,3.1309052000000004,0.75424194,-0.29055786,-1.2424316
6.5646515,-5.2122955,3.0686646,0.41973877,-0.24581909,-1.151886
7.3236084,-5.585785,2.1085814999999997,0.063949585,-0.13076782,-0.96759033
7.4074097000000005,-5.4373474,1.0000763000000001,-0.14271545,-0.07217407,-0.6139220999999999
7.088974,-5.506775,0.46138,-0.23007202,-0.03276062,-0.26878357
7.2517853,-6.04068,0.21716309,-0.23858643,0.06524658,-0.058929443
7.728225699999999,-6.569808999999999,-0.21618652,-0.19277954,0.12915039,0.17756653
7.361908000000001,-6.823592999999999,-0.41729736,-0.13739014,-0.03489685,0.64201355
7.017150999999999,-7.338333,0.13815308,-0.12246704,-0.27565002,1.0979462
7.5893707,-8.066177,0.545166,-0.25456238,-0.27670288,1.2683868
8.250167999999999,-8.482773,0.7510680999999999,-0.51982117,-0.14674377,1.50914
7.661194,-8.619232,0.76065063,-0.7296753,-0.12651062,1.8660126
6.713089,-9.040619,0.51882935,-0.9203644,0.17602539,1.794632
7.117706299999999,-9.483551,0.31054688,-1.233551,0.8492736999999999,1.4431
8.231003,-9.519455,-0.07252502400000001,-1.6468658,1.2146606000000002,1.4260559
8.515915,-9.821121,-0.5705260999999999,-2.0016022,1.1582031000000002,1.7147369
9.20784,-10.194626,-0.3550415,-2.1539307,1.0122681,2.0343169999999997
11.932449,-10.678253,-0.21139526,-1.9579315,0.7629852,2.3049011000000004
13.294754000000001,-11.159485,-0.8674011,-1.4295502,0.36990356,2.465744
10.962799,-10.479538,-1.5904541,-0.804245,-0.07324219,2.50943
8.281296000000001,-9.057373,-1.5210266000000001,-0.33978270000000005,-0.4460907,2.4508362
7.041092,-8.006317,-0.8027649,-0.02659607,-0.7550049,2.3102264
6.689147999999999,-6.9409027000000005,0.65530396,0.22799683,-0.9701995999999999,2.3325958
7.093765299999999,-5.750992,2.173233,0.34304809999999997,-0.91693115,2.5009002999999996
7.721039,-4.7262726,3.0255585,0.4495697,-0.6815033,2.6074371
8.360291,-4.127716,2.7286835,0.60084534,-0.6964264,2.2825317000000003
9.133621,-4.024765,2.2498473999999997,0.60723877,-1.0404968,1.6838531000000003
8.673935,-3.969696,2.43898,0.4176178,-1.3270568999999999,1.4345703
8.161575,-3.7829437000000006,2.2354736,0.27380370000000004,-1.2386475000000001,1.3589478000000002
8.784073,-3.8571777000000003,2.2953339,0.11187744,-0.7741852,1.206604
10.883789,-3.5171967000000004,2.0990142999999994,-0.1586914,-0.25860596,0.9828949
12.734497,-2.561905,0.5810852,-0.2843933,0.017303467,0.65586853
12.037796,-2.482895,-0.9823303,-0.16401672,0.09400939999999999,0.16477966
12.255661,-2.8803406000000003,-0.7022095,-0.056427002000000004,0.20159912,-0.5542755
12.995467999999999,-2.6552887000000003,-0.007888794000000001,-0.15122986,0.42530823,-1.2307128999999999
13.931610000000001,-2.6816254,-0.3047638,-0.32168579999999997,0.6234436,-1.5566864
15.291504000000002,-2.9186401,-0.10125732400000001,-0.34191895,0.6404877,-1.5854492
16.179764000000002,-2.5786743,0.8085326999999999,-0.1352539,0.41784668,-1.6578827
16.83577,-2.5427551,1.0695038000000001,-0.009552001999999999,0.21971129999999997,-1.9295349
16.213272,-3.5602875,0.30815125,-0.048965454000000005,0.16963196,-2.2086334
13.991454999999998,-4.9273834,0.008865356,0.14064026,0.03541565,-2.3076935
11.542191,-5.257782,0.59783936,0.6540984999999999,-0.29481506,-2.1436462000000005
10.682678,-4.623321499999999,1.8452301,1.1260223,-0.674057,-1.9284668000000003
11.831894,-5.9329376,2.1756287,1.0887299,-0.69003296,-2.0488433999999995
12.377761999999999,-8.164337,1.7757874,0.76168823,-0.44288635,-2.2799987999999995
11.187851,-8.92569,2.7693787,0.6157531999999999,-0.035964966,-2.3971862999999995
9.6723175,-8.722183,3.9808502,0.85757446,0.43914795,-2.378006
10.239746,-9.65593,3.9784546,1.3081818,0.75553894,-2.3300629
12.135956,-10.601639,2.2259064,1.6405333999999998,0.7299651999999999,-2.2544402999999997
11.068146,-9.071747,1.4070892,1.8280182,0.25912476,-2.1329956
9.028275,-7.68071,2.2259064,1.9100494,-0.3438263,-1.9785308999999998
7.574997,-7.036667,3.4325867,1.7491913000000001,-0.58351135,-1.8123474
7.4050139999999995,-7.412567,3.8874817000000004,1.329483,-0.46099854,-1.6802521000000001
7.314025999999999,-8.025482,2.8795166,0.85118103,-0.23516846,-1.550293
6.7657623,-7.8602753,1.7710113999999997,0.57740784,-0.12863159,-1.3755951000000002
6.1696014,-7.1372222999999995,1.3568115,0.5017699999999999,-0.17124939,-1.1103363000000002
5.764983999999999,-6.6511993,0.7079773,0.37606812,-0.2554016,-0.7247161999999999
6.0187683,-6.6703644,-0.16830444,0.07778931,-0.26498413,-0.36997986
6.215088,-6.9672394,-0.5896759,-0.22793579,-0.12544249999999998,-0.12284851
5.5973816,-6.7302094,-0.077316284,-0.35896300000000003,-0.028503418,0.14666748
4.9509583,-6.579376,0.5810852,-0.34405518,-0.07324219,0.51737976
4.874344000000001,-7.103714,0.4158782999999999,-0.29718018,-0.19894409,0.9381560999999999
5.815262000000001,-8.0781555,-0.17787170000000002,-0.39837646,-0.21705627,1.3482819
6.808853,-8.674301,-0.24012756,-0.7168884,-0.21173096,1.7520293999999998
6.9716644,-8.973587,0.45658875,-0.8883972,-0.19148254,2.1717377
7.0746155,-9.612839,0.83966064,-0.59332275,-0.18508911,2.5680084
7.814422599999999,-10.630371,0.88275146,-0.018081665,-0.20213318,2.7597656
8.319595,-11.111603,0.37278748,0.5102997,-0.23303223,2.6969147
8.010742,-10.76445,-0.36701965,0.75531006,-0.26393127,2.5072937
7.6564026,-10.137161,0.26504517,0.6082916,-0.13502502,2.3485717999999998
7.9053955,-9.457214,2.2354736,0.17579651,0.17176819,2.2857208
9.50473,-9.268066000000001,3.1740112000000003,-0.35896300000000003,0.60746765,2.320877
11.252487,-8.786835,2.5443267999999994,-0.81703186,1.0570068000000001,2.3262023999999997
12.088074,-8.238555999999999,1.2035828000000002,-1.3038483,1.3563385000000001,2.0854492
11.477554,-7.5370636,-0.34547424,-1.5233002,1.1464843999999998,1.7030182
10.110458,-6.622466999999999,-1.3175201,-1.0694885,0.59147644,1.5016937
9.025879,-6.1604004,-1.5305939,-0.7903899999999999,0.2782898,1.4409637
8.532684,-5.660003700000001,-1.1379546999999999,-0.8266144,0.21650696,1.4154053
9.691467,-4.4413605,-1.1547089,-0.6923828000000001,0.17495728,1.3908996999999999
9.724991000000001,-4.6592255,-0.9895171999999999,-0.47508240000000007,0.18988037,1.3291168
8.590133999999999,-4.359955,2.2977295,-0.29718018,0.23568726,1.2513428
8.137634,-3.9912415,2.1564636000000004,-0.12246704,0.19839478,1.1714478000000002
8.04187,-4.06546,0.73431396,0.014938354499999999,0.055648804,1.063858
7.9772186000000005,-3.8475952000000007,1.644104,0.0884552,-0.12544249999999998,0.9243164
8.286072,-3.7207031,2.130127,0.047973632999999995,-0.17871094,0.73576355
8.776886,-3.708725,1.8643798999999999,-0.1309967,-0.11798096,0.48222349999999997
9.215027000000001,-3.708725,1.6512909,-0.34724426,-0.019973755,0.17756653
9.784851,-3.7230988,1.2658234,-0.54219055,0.10572815,-0.15480042
10.627609,-3.873932,0.8851471,-0.6838684,0.26657104,-0.47438050000000004
11.769638,-4.3240356,0.55474854,-0.64019775,0.3496704,-0.6607970999999999
12.729721000000001,-4.7358400000000005,0.15969849,-0.23539734,0.21224976,-0.7801056
13.764007999999999,-5.401428,0.102249146,0.3707428,-0.08602905,-1.0805206
14.539734,-6.090957599999999,0.3751831,0.8266754000000001,-0.31932068,-1.5449677
14.688170999999999,-6.622466999999999,0.7438965,1.0344086,-0.45353699999999997,-1.8965148999999997
13.481491,-6.450088500000001,1.505249,1.0887299,-0.5760498000000001,-2.1298065
12.248474,-5.5498657,2.9537354,0.99072266,-0.6527405,-2.3215485
12.279602,-4.788513,3.916214,0.7798004,-0.6676635999999999,-2.4355316000000005
12.935623,-4.922592,3.3655396,0.5933838,-0.674057,-2.4813384999999997
12.976318,-5.94252,2.1684417999999996,0.5017699999999999,-0.5973510999999999,-2.507965
12.689011,-6.914566000000001,1.4166565,0.46875,-0.45993042,-2.52182
12.58606,-7.81958,0.8276825000000001,0.41654968,-0.3331604,-2.5441895
12.078491,-8.396576,0.33448792,0.35795593,-0.20426941,-2.5708159999999998
11.455994,-8.540237,0.5116577,0.36009216,-0.10519409,-2.5644226000000003
11.264465,-8.798798,0.97613525,0.4176178,-0.07537842,-2.5292816000000005
10.68985,-8.638397,1.3208923000000001,0.46342468,-0.090286255,-2.4397888
9.665131,-7.853088400000001,1.3735657,0.46342468,-0.15739441,-2.2427216
8.779282,-7.223419,1.4214478000000002,0.4261322,-0.28735352,-1.9785308999999998
7.903,-6.876266499999999,1.6488953000000002,0.32814026,-0.3438263,-1.7612151999999999
7.213470500000001,-6.7589417,1.8284607,0.15235901,-0.29162598,-1.6195374
6.641266000000001,-6.8164062,1.6584778000000002,-0.048965454000000005,-0.22131348,-1.4331207000000001
6.045105,-7.0294952,1.3663788000000001,-0.16827393,-0.22984314,-1.1263275
5.6979370000000005,-7.072586,1.1604767,-0.1821289,-0.21279907,-0.753479
5.741043,-7.024703999999999,1.026413,-0.21089172,-0.07643127400000001,-0.41471863
5.762588500000001,-6.823592999999999,0.8300780999999999,-0.35256958,0.1259613,-0.13989258
5.5614777,-7.115677000000001,0.70558167,-0.56669617,0.29107666,0.1285553
5.585418700000001,-7.7573240000000006,0.9354248,-0.7339325,0.33155823,0.46838379999999996
6.009186,-8.470794999999999,1.3783569,-0.6828003,0.18881226,0.9328308000000001
6.2510069999999995,-8.636002000000001,1.4334258999999998,-0.36747742,-0.07749939,1.5080719
6.3826904,-8.655151,0.95936584,0.035186768,-0.16804504,1.8798523
6.6053467,-9.292007,0.4517975,0.24290466,-0.0029296875,1.8990326000000002
6.42099,-9.900131,0.28181458,0.21202087,0.25698853,1.8873137999999998
5.8224487,-9.864227,0.79896545,0.14703369,0.46577454,1.9917145
5.3627625,-9.517059,1.7901611000000002,0.12359619,0.6053314000000001,2.1696014
6.330017,-9.119629,2.4677124,0.11187744,0.53822327,2.3901215000000002
8.214249,-8.80838,1.936203,0.06288147,0.49348450000000005,2.4934540000000003
8.87265,-8.547409,0.9042969000000001,-0.09158325,0.503067,2.4593658
8.977997,-8.719788000000001,0.64572144,-0.34085083,0.43275452,2.3901215000000002
9.238968,-9.131592,0.38237,-0.6103668000000001,0.2793579,2.3347168
9.62204,-9.172302,-0.036621094,-0.771225,0.20372010000000002,2.2985077
10.347488,-8.825134,-0.37420654,-0.74671936,0.23887634,2.2654877
10.594086,-7.862671000000001,-0.80036926,-0.5560303000000001,0.2239685,2.2313994999999998
10.203827,-6.8690796,-1.2313232,-0.28225708,0.14407349,2.1653442000000003
9.770477,-6.318405,-1.2911834999999998,-0.020202637,0.03327942,2.0119476
9.724991000000001,-6.155608999999999,-0.59446716,0.09803772,-0.018920898000000002,1.7999573
9.648375999999999,-5.827605999999999,0.46617126,0.052230835,0.0013275146,1.5773163000000001
9.408951,-5.190735,1.2778015,-0.03086853,0.10040283,1.3685303
9.514297500000001,-4.7454224,1.5579223999999998,-0.05961609,0.24208069,1.2162018
10.050597999999999,-4.213913,1.37117,-0.032989502000000004,0.3262329,1.1139374
10.486343,-3.6847839999999996,0.7774048000000001,0.046905518,0.26657104,0.94348145
10.546204,-3.162857,0.15492249,0.044769287000000005,0.08229065,0.6718445
10.625214,-2.8994904,0.107040405,-0.103302,-0.12544249999999998,0.34693909999999994
10.68985,-2.8611908,0.42785645,-0.4047699,-0.20852661,-0.025909424
11.003494,-2.956955,0.545166,-0.84365845,-0.0039978027,-0.43815613
12.088074,-2.949768,0.65530396,-1.2015839,0.38694763,-0.8216553
13.407272,-3.3759308,0.35842896,-1.1781464,0.58296204,-1.1167296999999998
14.484665,-4.043915,-0.048583984000000004,-0.7168884,0.45726013,-1.3905028999999998
15.229263000000001,-4.4054413,-0.11323547,-0.084121704,0.18455505,-1.6898499
15.576416,-4.9704742,-0.027038574,0.39524840000000006,-0.07110596,-1.995575
15.219681,-5.439743,0.7438965,0.5518341,-0.20108032,-2.2427216
13.907669,-5.2481995,2.4126434,0.53160095,-0.16699219,-2.3439178
12.796753,-4.9345550000000005,4.2873077,0.5475769,-0.104141235,-2.3236847000000003
12.715347,-5.595367400000001,4.976837000000001,0.6487732,-0.013595581,-2.285324
12.899704,-6.6679688,4.3759003,0.8969879000000001,0.038604736,-2.2310027999999997
12.229324,-7.216232300000001,3.2506256000000002,1.1739502,-0.039154053,-2.125534
11.156723,-7.74057,2.628128,1.2517242,-0.23942566,-2.0701447
10.524658,-8.518677,2.7238922000000003,1.2453308,-0.39175415,-2.0967712
10.160736,-8.932877000000001,2.9513397,1.2900696000000003,-0.40240479999999995,-2.1575012000000005
9.04982,-7.989563,3.387085,1.2890015,-0.28309629999999997,-2.1276702999999997
8.02272,-7.26651,3.411026,1.185669,-0.1765747,-1.9646912
8.039474499999999,-7.568191499999999,2.446167,0.95983887,-0.043411255,-1.8134154999999998
8.398605,-7.953644000000001,2.0247955,0.68818665,0.024765015,-1.7132874
8.049057000000001,-7.668747,2.3839264,0.42294312,-0.0039978027,-1.5652161
6.945327799999999,-7.2377777000000005,2.2115326,0.2418518,0.0045166016,-1.3361816
6.353958,-7.4604490000000006,1.5339813,0.21627808,0.0471344,-1.0826416
6.3563538,-7.8937990000000005,0.6720581,0.17686462,0.06524658,-0.8461609
5.729065,-7.1300507,0.35842896,-0.08944702,0.14726257,-0.6011505
5.25502,-7.0270996,0.36799622,-0.46762085,0.33262634,-0.37850952
5.5303497,-8.0159,0.48532104,-0.7520446999999999,0.5158539000000001,-0.181427
5.66922,-8.33194,0.96655273,-0.80210876,0.53822327,0.20100403
5.5255585,-8.0589905,0.94740295,-0.6551056,0.19520569,0.822052
5.585418700000001,-8.276871,-0.015075683999999999,-0.57095337,-0.34594727,1.3749236999999999
5.8607483,-8.681488,-0.63038635,-0.55070496,-0.7986908,1.5932921999999998
6.1073455999999995,-9.299194,-0.47236633,-0.5027771,-0.9510193000000001,1.5016937
5.5734406,-9.718169999999999,0.071121216,-0.5592345999999999,-0.6207885999999999,1.4068756000000002
4.9174347,-9.81395,0.7438965,-0.74990845,-0.057266235,1.4164581
5.35318,-9.584106,0.5786896,-0.8734894,0.44340515,1.429245
7.1943207,-9.076538000000001,0.5164489999999999,-0.86816406,0.7054596,1.4697266000000002
9.868637,-8.880203,1.031189,-0.6796112,0.6447449000000001,1.6486968999999998
11.044189,-8.844299000000001,1.2514648000000002,-0.3035736,0.26338196,1.9703979999999999
11.197433,-8.9640045,0.7295227,0.15875244,-0.22024536,2.190918
11.465575999999999,-9.232147,0.6241760000000001,0.48365784,-0.45460509999999993,2.144043
10.625214,-8.791625999999999,0.76065063,0.4921875,-0.41732788,1.9554901000000002
9.176727,-8.027878,1.0718994,0.2695465,-0.27137756,1.7957001
7.790481599999999,-7.065399,1.5651093,-0.035125732,-0.09347534,1.7413634999999998
7.601333599999999,-5.8443604,1.8547973999999998,-0.34831238,0.08868408,1.7424316000000002
8.6284485,-4.891464,1.4956665,-0.5549774000000001,0.16323853,1.7211304
9.068985000000001,-4.0151825,0.37997437,-0.56562805,0.08868408,1.6433716
8.918152000000001,-3.5148010000000003,-0.5130615,-0.43032837,-0.102005005,1.5261841
8.609299,-3.2945404000000003,-0.8338928,-0.2843933,-0.27458190000000005,1.4249878
8.403397,-3.1245422,-0.82670593,-0.15122986,-0.40240479999999995,1.3419037
8.532684,-3.0814513999999997,-0.41490173,-0.0052948,-0.49615479999999995,1.1767731000000001
9.035461,-3.0958099999999997,0.30336,0.09590149,-0.51745605,0.8518677
9.475997999999999,-2.9545592999999997,0.89712524,0.034118652,-0.44181824,0.38209534
9.906952,-2.9378052,1.0216216999999999,-0.24284363,-0.25965879999999997,-0.02909851
10.366638,-2.9234313999999997,0.96894836,-0.5869293000000001,-0.06578064,-0.24960327
11.259674,-2.8061217999999997,1.0647125,-0.8234253,0.12702942,-0.4477539000000001
12.624374000000001,-2.8013306,0.9928894,-0.87028503,0.4039917,-0.70980835
14.032166,-2.9665222,0.52841187,-0.7019806,0.6724396,-0.96014404
14.542129500000001,-3.5028229,-0.1443634,-0.32168579999999997,0.7246399,-1.1423035
14.197357,-4.1875763,-0.22575378,0.18965149,0.54034424,-1.2914428999999998
14.242844,-4.7142944,0.47573853,0.6594238,0.18135071,-1.4970398
14.664229999999998,-5.2673492,1.5387726000000002,0.9055023000000001,-0.10839844,-1.7686768
14.271576000000001,-5.475647,2.501236,0.9736786000000001,-0.26072693,-1.9114227
13.098419,-5.0901794,3.1907654,1.2272186,-0.54408264,-1.8645477
12.100037,-4.680771,3.5139769999999997,1.7268218999999998,-1.1299896,-1.9103546000000002
11.683456,-4.4030457,3.24823,2.157196,-1.8160095,-2.1937103
11.848647999999999,-4.845978,2.4605408,2.2115172999999997,-2.2900543,-2.4355316000000005
11.544586,-5.7629547,1.6249542,1.8365479,-2.2229462000000004,-2.52182
11.096863,-6.7517548,1.9481811999999998,1.1409302,-1.4389191000000001,-2.6219482000000003
11.743300999999999,-7.216232300000001,2.7598114,0.4453125,-0.29269409999999996,-2.7551117
13.225310999999998,-7.470016499999999,2.8005066000000003,0.17260742,0.54248047,-2.7913360000000003
13.531769,-7.7309875,2.130127,0.33132935,0.7246399,-2.7082367
12.610000999999999,-7.4436800000000005,1.4094848999999998,0.65623474,0.4316864,-2.6176909999999998
11.764847,-6.6296539999999995,0.8588104,0.85969543,0.029022217000000003,-2.4632263
10.898147999999999,-6.17955,0.64572144,0.8245392,-0.16271973,-2.2363281
9.818359,-6.1939087,1.5076447,0.6221466,-0.017852783,-2.012619
8.599716,-6.459671,2.3408203,0.37713623,0.37950134,-1.8240662
7.8000490000000005,-6.4189606,2.5275726,0.09590149,0.7938843000000001,-1.6557616999999998
6.883072,-6.375869799999999,2.1085814999999997,-0.2524414,0.96006775,-1.391571
6.0642548,-6.2010955999999995,1.4477844,-0.6082306,0.7299651999999999,-0.84935
6.037918,-6.17955,0.9857024999999999,-0.7584380999999999,0.29214478,-0.1537323
6.2773438,-6.4309387000000005,0.67445374,-0.5858612,-0.030639648,0.42364502
5.8032837,-6.550644,0.07591247599999999,-0.3035736,-0.22770691,0.8497466999999999
4.848007,-6.9792175,-0.78601074,-0.1267395,-0.5749816999999999,1.2470856000000001
3.775406,-7.613678,-1.2839966,-0.047912598,-0.90841675,1.5357819
3.4450073,-8.039841000000001,-0.65193176,-0.1267395,-0.7379608,1.5794525
4.424225,-8.193069,0.7367096,-0.38772583,-0.33636475,1.6774596999999998
5.832016,-8.286438,1.4046936,-0.6029053000000001,-0.18829346,2.0929108
6.907013,-8.616852,0.93782043,-0.43353270000000005,-0.20426941,2.5062256
8.35791,-9.043014999999999,0.7007904,0.025604248,-0.18083191,2.8034362999999995
9.945250999999999,-9.282425,0.41827393,0.51135254,0.018371582,2.9845276000000003
9.971588,-9.497910000000001,-0.18266296,0.70736694,0.26763916,2.8503112999999995
8.661972,-9.701416,-0.2568817,0.35476685,0.48069763,2.480667
8.645203,-9.397354,1.1628723,-0.487854,0.5733795,2.2015686000000003
9.612457000000001,-9.002303999999999,2.2905425999999998,-1.4242249,0.49560547,2.1930389999999997
10.450439,-8.339111,2.1923828,-2.060196,0.28788757,2.2803955
11.508666999999999,-7.2473600000000005,0.7941741999999999,-2.2966766,0.1685791,2.302765
12.188628999999999,-6.301651000000001,-1.597641,-2.3339689999999997,0.34541320000000003,2.2292633
11.372208,-5.6911316,-3.9200133999999998,-2.284958,0.7150574000000001,2.1056976
10.067368,-5.748596,-4.4060364000000005,-2.1006775,1.0101318000000001,1.9991608
9.499939,-5.554657,-2.8857117000000003,-1.760849,1.1177216,1.8926392
9.511902000000001,-5.2290497,-0.6184082,-1.378418,1.1123962,1.6881104
9.478394,-4.7190857,0.88035583,-1.2015839,1.155014,1.2545471000000001
9.217422500000001,-4.316864,1.5938263000000001,-1.3113098,1.3020171999999999,0.62924194
8.9253235,-4.127716,2.1899872000000005,-1.3677673000000001,1.2434235,0.16371155
9.068985000000001,-4.012787,2.6640472,-1.1547089,0.7864227,0.17756653
9.792023,-3.6153564,2.8172759999999997,-0.83940125,0.31237793,0.34161377
11.278824,-3.0670776,2.1349182,-0.56988525,0.18562317,0.26385498
13.119964999999999,-2.8516082999999997,0.86839294,-0.29718018,0.2708435,0.089141846
13.608382999999998,-2.9425812000000002,0.6194,-0.032989502000000004,0.38375854,-0.07383728
11.745697,-2.8587952000000003,1.6656647,0.14064026,0.50946045,-0.26664734
10.90773,-2.6121826,2.4629211,0.22480774,0.6468811,-0.5265808000000001
12.31073,-2.5643005000000003,2.7047423999999998,0.36541748,0.63623047,-0.7545470999999999
13.426422,-2.6265563999999997,3.1141509999999997,0.6690216,0.37950134,-0.97291565
13.991454999999998,-2.9210358,3.2817383,0.9651642,0.059921265,-1.2669373
14.451141,-3.4022675000000002,2.9345856,1.0557098,-0.08389282,-1.5801239
14.779144,-3.9768830000000004,2.398285,1.0258789000000001,-0.07963562,-1.8645477
14.214127,-4.1420746,2.1445007,1.0056458000000001,0.0034637451,-2.0637512
13.131943,-3.6871796000000003,2.5443267999999994,1.0173645,0.034347534,-2.1873322
12.806335,-3.5531006,2.7358703999999996,1.0823364,0.0077209473,-2.3172912999999995
13.309113,-4.5874023,2.1708374,1.1196289,0.15686035,-2.6038360000000003
13.737670999999999,-5.894638,1.7326965,1.075943,0.47644043,-2.8147583
13.462341,-6.763733,1.8380432,1.0439911,0.8013458000000001,-2.8041077000000003
12.758438,-7.206664999999999,1.9936676,1.0834045,0.94088745,-2.6049042
12.78717,-7.6759186,2.3216705,1.1760864,0.78430176,-2.2970428
13.309113,-7.733383,2.501236,1.2634277,0.5765686,-2.1031647
12.114410000000001,-7.4508667,2.3168792999999996,1.296463,0.47430420000000006,-2.0264740000000003
9.892593,-7.0773773,2.142105,1.2133636,0.34114075,-1.9220734
7.9197693,-6.636841,1.912262,0.9886017,0.19946289,-1.7313843
6.828003,-6.4309387000000005,1.7614288,0.7744751,0.18348694,-1.5790558000000001
7.096161,-6.5458527,1.5315857,0.60935974,0.23568726,-1.4267273
7.330795299999999,-6.4931946,1.1221771,0.36116028,0.16963196,-1.0879669
6.871109,-6.555435000000001,0.521225,0.012817383,0.03541565,-0.6469574
6.4138184,-6.955261,-0.10125732400000001,-0.35043335,0.11210632,-0.3582611
6.246216,-6.9911804,-0.13238525,-0.64871216,0.31025696,-0.11325073
5.8583527,-7.000763,-0.041412354,-0.8969269,0.3262329,0.32350159999999994
4.886307,-7.120467999999999,-0.5585479999999999,-1.1270142,0.106781006,0.93603516
4.907852,-7.6280365,-1.0278167999999999,-1.1611023,-0.32783508,1.63591
6.0355225,-8.092514,-1.0469666,-0.91290283,-0.9574127,2.2015686000000003
6.0546875,-7.977585,-0.79797363,-0.38346863,-1.9672851999999998,2.3879852
5.4609222,-8.5522,-0.7764281999999999,0.32279968,-3.3404083,2.2718658
5.4513397,-9.782822,-1.0613403000000001,0.39097595,-3.7185822,2.2175446
5.855957,-10.223358000000001,-0.38137817,-0.15122986,-2.5510406000000003,2.4540252999999996
7.1871339999999995,-9.806763,0.916275,-0.677475,-0.98724365,2.7885284
9.377838,-9.339889999999999,1.457367,-0.86177063,0.0002593994,2.973877
10.958008,-8.961609,2.0295715,-0.6817321999999999,0.17495728,2.9131622000000004
10.3403015,-7.910553,0.37997437,-0.25883484,-0.049804688,2.6457825
9.691467,-7.879425,-0.9871216,0.09378052,-0.12544249999999998,2.4220734
9.952438,-8.353485000000001,-0.5202484,0.05329895,0.1259613,2.3379211
10.65155,-8.590515,0.5499573,-0.33552550000000003,0.56910706,2.3645477
11.760071,-8.446854,1.3735657,-0.7797394,0.94088745,2.3304596
12.957169,-8.006317,1.8164977999999998,-0.96829224,1.0293120999999998,2.209015
12.605209,-7.2090607,1.6848145,-0.8734894,0.86206055,2.0534973
11.307556,-6.083786,0.49249268,-0.7009125,0.51797485,1.8755951000000002
10.093703999999999,-5.159622,-0.69262695,-0.5336609,0.16218567,1.6912994
9.777664,-4.5395203,-1.1068268,-0.32061768,-0.045547485,1.5144653000000001
9.801605,-3.9529419999999997,-0.41490173,-0.05003357,-0.13822937,1.2992858999999999
9.825546000000001,-3.3783263999999997,0.5116577,0.18325806,-0.19255066,0.99142456
9.634018,-2.736679,0.7678375,0.27061462,-0.14994812,0.6281738
9.657959,-2.4326172,0.7845916999999999,0.21627808,-0.038085938,0.28089905
9.950042999999999,-2.3799438,1.0455627,0.09271239999999999,0.0471344,-0.051467896
10.321152,-1.9585723999999998,1.3496246,-0.084121704,0.12382507,-0.36572266
10.936461999999999,-1.530014,1.3137054,-0.34831238,0.28681946,-0.7108612
11.702606,-1.6545105,0.758255,-0.67533875,0.552063,-1.0517578
12.214966,-2.1285553,0.20759583,-0.9150238000000002,0.83010864,-1.2658691
12.741684,-2.8731537,-0.055770874000000005,-0.89797974,0.96539307,-1.358551
13.081665,-3.5171967000000004,-0.1850586,-0.54751587,0.88868713,-1.4895782
13.653870000000001,-4.3982544,-0.24971008,-0.0031585693,0.6830901999999999,-1.7622832999999998
14.321854,-5.753372,-0.24491882,0.42401123,0.51904297,-2.1148834
14.096801999999999,-6.976822,0.19561768,0.6264038000000001,0.44554138,-2.4035797000000003
13.033783,-7.2641144,1.3089294,0.76808167,0.41784668,-2.5516509999999997
12.164688,-6.6296539999999995,2.7813567999999997,0.93107605,0.35073853,-2.5143584999999997
12.361008,-6.591354400000001,3.7438202000000005,1.0035094999999998,0.16430664,-2.2927855999999998
13.108001999999999,-7.99675,3.3535767,0.98646545,0.018371582,-2.0083618000000003
12.758438,-9.212997,2.4006805,1.0194855,0.041809082000000004,-1.8389893
11.405716,-9.696625,2.1085814999999997,1.1750183,0.13981628,-1.7281952
9.997925,-10.036605999999999,2.0343628000000002,1.4338837,0.14939879999999997,-1.5513611
8.796036,-10.352646,1.6082001,1.69487,0.032211303999999996,-1.3979645
7.938919,-10.084488,1.3616028,1.8525238000000002,-0.13395691,-1.3340454
7.1967163,-8.762894000000001,1.7135468,1.8834229,-0.34594727,-1.2978363000000002
6.2055206,-7.34552,2.2283020000000002,1.8163147000000002,-0.5206604,-1.26268
5.329239,-6.622466999999999,2.3719482000000003,1.6245575,-0.533432,-1.3084869
5.3005066,-6.476425,1.9984589,1.2687683,-0.42904663,-1.311676
5.324447599999999,-6.033493,1.3208923000000001,0.8927306999999999,-0.33743286,-1.0879669
5.2358704000000005,-5.5881805,0.6816406,0.6466522,-0.33422852,-0.68955994
5.8966675,-6.090957599999999,0.18125916,0.4410553,-0.34169006,-0.32524109999999995
6.868713400000001,-6.933716,-0.32632446,0.19604492,-0.2543335,-0.07064819
6.540710400000001,-6.9432982999999995,-0.9871216,0.002166748,-0.18936157,0.18075562
5.501617400000001,-6.888229400000001,-1.1642914,-0.14590454,-0.22984314,0.47050476
5.2095337,-7.278488,-0.74290466,-0.3493805,-0.32997129999999997,0.8199158000000001
6.1360779999999995,-8.068572999999999,-0.56333923,-0.5997161999999999,-0.49082947,1.2705231000000001
7.009964,-8.556992,-0.82670593,-0.76908875,-0.68470764,1.7381744
7.0985565,-8.554596,-0.7189635999999999,-0.7797394,-0.87112427,2.097168
7.1464386,-8.750916,-0.5896759,-0.75737,-0.8785858,2.2399139999999997
7.357132000000001,-9.385375999999999,-0.8745879999999999,-0.72435,-0.61013794,2.177063
7.699493400000001,-10.165894,-1.0230255,-0.5357970999999999,-0.21492004,2.0289917
8.135239,-10.189835,-0.58488464,-0.1352539,0.153656,1.7669373
8.855896000000001,-9.493117999999999,0.40870667,0.23439026,0.43382263,1.2854309
9.873428,-8.650360000000001,0.9521941999999999,0.2450409,0.66285706,0.78582764
10.871811,-7.769302400000001,1.3184966999999999,-0.07028198,0.8290405000000001,0.58343506
11.40094,-6.8810425,1.9505615,-0.48892212,0.92277527,0.66438293
11.937241,-6.2801056,2.5155945,-0.86602783,0.98883057,0.8358916999999999
12.70578,-5.8515472,2.0343628000000002,-1.029007,0.9707184000000001,0.8582610999999999
12.052155,-5.420578,0.16688538,-0.96936035,0.8641968000000001,0.78689575
9.516693,-4.783722,-1.3965302,-0.83833313,0.65753174,0.7996826
7.167984,-4.036743,-1.8490294999999999,-0.7328644,0.41677856,0.8678589
6.028351,-3.5602875,-1.6383362,-0.6966553000000001,0.23994446,0.9253844999999999
6.2964934999999995,-3.1580658,-0.8219146999999999,-0.6934509,0.13235474,0.9786377
6.768158000000001,-3.0479279,0.19322205,-0.6497803000000001,0.07269287,1.013794
6.51915,-3.186798,0.5523529,-0.5315399000000001,0.03755188,0.98716736
6.521545400000001,-3.380722,0.54278564,-0.41223145,-0.001876831,0.9530791999999999
6.8615265,-3.5195922999999993,0.45419312,-0.34191895,-0.057266235,0.9296416999999999
7.208678999999999,-3.624939,0.5044708,-0.29504395,-0.08496094,0.8241729999999999
7.840759299999999,-3.8380127,0.8300780999999999,-0.21302795,-0.05406189,0.56744385
8.930114999999999,-4.087021,1.2801971,-0.062820435,0.046066284000000006,0.19886779999999998
9.825546000000001,-4.415024,1.2873688,-0.013824463,0.19200134,-0.11431885
10.409728999999999,-4.625717,1.0671082,-0.22261047,0.4316864,-0.31777954
11.365021,-4.654433999999999,1.05513,-0.48252870000000003,0.7938843000000001,-0.4562683
12.911667,-4.740631,1.3256836,-0.4324646,0.9334259,-0.5542755
14.645081,-5.13089,1.8236694,-0.043640137,0.68629456,-0.69169617
15.212508999999999,-5.401428,1.7877655,0.375,0.18348694,-0.9431
14.791122,-5.5283203,0.88993835,0.6168213,-0.31611633,-1.2520294
14.10878,-5.712676999999999,0.41349792,0.6487732,-0.6580658,-1.503418
13.0242,-5.178772,1.3184966999999999,0.54011536,-0.7049408,-1.6514893
12.473541,-4.5299377,2.5443267999999994,0.43466187,-0.53556824,-1.7250061
12.621979,-4.412628,2.6401062,0.44638062,-0.29801940000000005,-1.787857
13.0242,-4.982452400000001,2.0128174,0.5145569000000001,0.0034637451,-1.8730773999999997
12.887725999999999,-5.612121599999999,1.560318,0.47514343,0.29000854,-2.0509644000000002
12.138351,-5.925766,1.5651093,0.36860657,0.5265045,-2.2097015
11.295592999999998,-5.8563232,1.9649352999999998,0.4026947,0.692688,-2.2555084
11.072922,-5.7581635,2.5060272,0.6455841,0.6884155,-2.1532287999999995
11.022644,-5.62648,2.6855927000000004,0.96302795,0.5286255,-1.9497681
10.565353,-5.104553,2.221115,1.200592,0.30493164,-1.7612151999999999
9.428116000000001,-4.728668,1.6752319,1.2772827,0.06097412,-1.6163483
8.096939,-4.776550299999999,1.8308563000000002,1.1824799,-0.18615723,-1.4640045
6.9333496,-5.027939,2.3384247000000005,0.94918823,-0.24900818,-1.3479003999999999
6.3204346,-5.4445343,2.3839264,0.6178894,-0.10839844,-1.294632
6.1025696,-5.5809937000000005,1.9218445,0.23652649,0.023696900000000003,-1.1167296999999998
6.002014,-5.5259247,1.2634277,-0.060684204000000005,0.02583313,-0.73217773
6.052292,-5.628875700000001,0.56910706,-0.21089172,0.026885986,-0.37957764
6.7633667,-6.3854523,0.080703735,-0.30143738,0.071640015,-0.13989258
7.048278999999999,-6.768524,-0.2712555,-0.40156555,0.07057189999999999,0.15412903
6.34198,-6.888229400000001,-0.5489807,-0.44204712,0.020507812,0.50354004
5.820053,-7.402984599999999,-0.39335632,-0.39518738,-0.041290283,0.86997986
6.602950999999999,-8.382217,0.15492249,-0.5048981,-0.10626221,1.2247162
7.191925,-8.856262,0.44940186,-0.98747253,-0.050872803,1.3536072000000001
6.868713400000001,-9.258484,0.3177185,-1.5499268,0.09719849,1.4580078
6.7705535999999995,-9.756485000000001,0.33688354,-1.5904083,0.26445007,1.8841095
7.1703796,-10.438827499999999,0.5786896,-1.0673676,0.39866638,2.2377777
7.862304700000001,-11.037384,-0.034225464,-0.5826720999999999,0.37416077,2.0247345
9.389801,-10.690216,-1.4396209999999998,-0.64019775,0.1770935,1.6476288000000001
9.669922,-10.149139,-1.9280396,-0.95018005,-0.11265564,1.6955718999999998
8.822372,-9.445236,0.18125916,-0.9629669,-0.30760193,2.0108794999999997
9.28685,-8.782043,2.4078673999999998,-0.6966553000000001,-0.33210754,2.2281952
11.269257000000001,-7.83873,2.1947784,-0.46122742,-0.34594727,2.2388458
11.920471000000001,-7.4484710000000005,-0.21618652,-0.34831238,-0.42797852,2.147232
9.92131,-7.1348267000000005,-1.5329895,-0.26309204,-0.47271729999999995,2.0769348
8.29805,-6.5386809999999995,-0.10125732400000001,-0.17041016,-0.41944885,1.9991608
8.10173,-5.712676999999999,1.5028534,-0.15122986,-0.29588318,1.8510895
8.412964,-4.754989599999999,1.6464995999999998,-0.22367859,-0.19255066,1.618866
8.740982,-4.005615,1.153305,-0.25349426,-0.2000122,1.4175262
8.798430999999999,-3.5531006,1.0718994,-0.17787170000000002,-0.32357788,1.3269806
8.906174,-3.1772156000000003,1.158081,-0.10862732,-0.43330383,1.2737121999999999
9.176727,-2.8899077999999996,0.9904938,-0.086257935,-0.43969727,1.1682587
9.437683,-2.7151337000000004,0.6217804,-0.05429077,-0.44502258,1.0148621
9.598099000000001,-2.7031707999999997,0.65530396,-0.06388855,-0.49082947,0.86891174
9.521484,-2.8659668,1.0599213,-0.15550232,-0.5227814000000001,0.70913696
10.074539,-3.2586212000000003,1.1006316999999999,-0.32913208,-0.44502258,0.44706726
10.989136,-3.4525452000000003,0.9426117,-0.52726746,-0.19787598,0.08274841
11.776825,-3.3424225,1.0934448,-0.5805359,0.14407349,-0.24641418
12.454376,-3.4932556000000003,1.0168304,-0.34510803,0.42849729999999997,-0.51805115
13.184616,-3.8404083,0.81811523,0.10336304,0.43382263,-0.7715911999999999
13.991454999999998,-4.000824,0.86120605,0.60617065,0.071640015,-1.0219269
14.623535,-4.120529,1.2490691999999999,1.0397339,-0.37045288,-1.3787842
14.561279,-4.3743134,2.0104218,1.2975311,-0.59628296,-1.8847961
14.099197,-4.510788,3.042328,1.3390656,-0.51638794,-2.3236847000000003
13.342635999999999,-4.3072815,3.4996185,1.2900696000000003,-0.28948975,-2.4855957
12.842239,-4.060683999999999,3.339203,1.1995239,-0.23410034,-2.4057007
13.194182999999999,-4.122925,3.059082,1.0375976999999998,-0.31506348,-2.2704162999999995
13.895691000000001,-4.582611,2.7574158,0.867157,-0.102005005,-2.3929138
13.687393,-5.798874,2.3384247000000005,0.66581726,0.38908386,-2.6794738999999996
12.40889,-7.4604490000000006,2.10141,0.4730072,0.9994812,-2.7849426
11.422485,-8.975967,1.8739471,0.53160095,1.2519531000000002,-2.6038360000000003
11.645142,-10.151535,1.5722809,0.88101196,0.9334259,-2.2789307
12.17186,-9.737335,1.8093109,1.3199005,0.37843323,-2.028595
10.754501,-7.8866119999999995,2.1037903,1.5840758999999998,0.042877197,-1.9732056
8.420150999999999,-7.2689056,1.8260651,1.4903412,-0.026367188,-1.9284668000000003
6.2773438,-7.3407288,2.070282,1.1547851999999998,-0.028503418,-1.7622832999999998
5.4848633,-7.678314,2.6424866000000002,0.7457123000000001,-0.029571532999999997,-1.5140839
5.6596375,-7.6471862999999995,2.7765656,0.41441345,0.017303467,-1.2413635
6.301285,-7.34552,2.3288574,0.34623718,0.0471344,-0.8972931000000001
6.2510069999999995,-7.230606,0.9737396,0.46875,-0.11479187,-0.44029236
5.776947,-7.42453,-0.1443634,0.44424438,-0.44288635,-0.046142578
5.527954,-7.6855009999999995,-0.46517944,0.16407776,-0.533432,0.14241028
5.33403,-7.697464,-0.21139526,-0.14378357,-0.34487915,0.33947754
5.1616364,-7.831542999999999,0.62657166,-0.3270111,-0.28523254,0.7794342
5.1185455,-8.116455,1.1963959,-0.4367218,-0.39601135,1.2897034
6.1193237,-8.592895500000001,0.5332031,-0.7115630999999999,-0.38856506,1.6252594
7.6516113,-8.997527999999999,-0.38616943,-1.1600342,-0.19680786,1.7754517
7.7832947,-9.119629,-0.38856506,-1.4529877,0.06417847,2.0534973
6.954895,-9.371017,-0.108444214,-1.2111816,0.29853820000000003,2.396515
7.440917999999999,-9.993514999999999,0.030426025,-0.628479,0.4316864,2.2761383
8.95166,-10.460372999999999,-0.582489,-0.25456238,0.42849729999999997,1.8116759999999998
9.928497,-10.273636,-1.1834412,-0.1821289,0.24420166,1.5166016000000002
9.502335,-9.447632,-0.5393982,-0.27693176,-0.04447937,1.4782562
9.380234,-8.367844,1.2969513000000001,-0.5443115,-0.2554016,1.5272522
11.333893,-7.5370636,2.4892578,-0.8372649999999999,-0.29162598,1.6252594
12.657883,-7.012726,1.3639832,-0.9395294,-0.21917725,1.7381744
11.630783000000001,-6.7421875,-0.33349609999999996,-0.87561035,-0.090286255,1.712616
9.985961999999999,-6.550644,-1.1977997,-0.7765503,0.010910033999999999,1.5059508999999998
9.068985000000001,-6.447693,-1.6143951,-0.7115630999999999,0.019439697,1.3419037
8.381851,-6.076599,-1.2983704,-0.6455231,-0.061523438,1.3237915
7.989197,-5.2960815000000006,0.025634766,-0.5986481,-0.11798096,1.2992858999999999
8.233398,-4.3982544,1.0359802,-0.6465911999999999,-0.102005005,1.1863708
8.79364,-3.6680297999999993,1.2897644,-0.76589966,-0.0466156,1.0990143
8.645203,-3.3831177,1.0359802,-0.82447815,0.0013275146,1.0542755
7.9532776,-3.1101837000000003,0.9234619000000001,-0.76589966,0.015167236,0.9999541999999999
7.929336500000001,-2.8300629,0.9713440000000001,-0.6540375,-0.03276062,0.90301514
8.482407,-2.6816254,0.74150085,-0.534729,-0.09454346,0.7762451
8.721817,-2.7725983,0.5020752,-0.41755676,-0.10519409,0.67077637
9.064194,-2.9761047,0.7151642,-0.27267456,-0.16059875,0.5759734999999999
9.825546000000001,-3.114975,1.2251282,-0.14485168,-0.27458190000000005,0.42150879999999996
10.464798,-3.040741,1.541153,-0.056427002000000004,-0.33850098,0.19033813
11.245316,-3.0479279,1.6896057,0.052230835,-0.16699219,-0.07809448
11.973145,-3.4741058,1.7159423999999999,0.19923401,0.17602539,-0.3582611
12.808731,-3.9361725,1.8236694,0.49005127,0.3805542,-0.6458893
14.039337,-4.728668,1.8356476000000002,0.9513091999999999,0.17495728,-0.94096375
