accx,accy,accz,gyrx,gyry,gyrz
15.880478,-10.228149,-1.3869476,-0.49531555,-0.26925659999999996,-4.290161
17.491776,-12.157867,-1.7101593000000002,-0.30143738,0.46258545,-4.3636627
17.776688,-14.200119,-0.88656616,0.005355835,0.8588562,-4.4052124
16.076813,-15.557632,0.41110230000000003,0.31321716,0.89082336,-4.389221
12.976318,-14.825012,1.5291901,0.62854004,0.5797576999999999,-4.3253174
10.780838000000001,-13.232864000000001,2.3216705,0.89805603,0.040740967,-4.166580000000001
9.617249000000001,-12.32547,2.6233367999999997,0.9502411000000001,-0.40028379999999997,-3.8810883
8.633239999999999,-11.856200999999999,2.4605408,0.83625793,-0.7294463999999999,-3.5732269999999997
7.6827393,-11.554535000000001,1.857193,0.6626281999999999,-0.9265136999999999,-3.2579192999999997
6.748993,-11.173859,1.4669341999999999,0.42080688,-0.86260986,-2.9116974
5.8248444,-10.747681,1.347229,0.11294556,-0.5739135999999999,-2.5750884999999997
4.6516724,-10.177856,0.59306335,-0.22579956,-0.20640564,-2.2363281
3.8663788,-9.567337,-0.031829834,-0.5496521,0.053527832000000004,-1.8176727
3.3779602,-9.095688,-0.082107544,-0.7999878,0.17816162,-1.3287201000000002
2.9398193,-8.679092,-0.039016723999999996,-0.9203644,0.19413757,-0.7907562
2.8009644000000002,-8.396576,-0.058166504,-0.8862610000000001,0.09719849,-0.14201355
2.693222,-8.281661999999999,-0.082107544,-0.62101746,0.020507812,0.63668823
2.207199,-8.193069,-0.10125732400000001,-0.051101685,0.024765015,1.4324493
1.6948395,-8.202652,0.116607666,0.6082916,-0.001876831,2.1206055
1.4697876,-8.365447999999999,0.6289673000000001,0.9289398000000001,-0.16271973,2.7778777999999997
1.3165588,-8.844299000000001,1.189209,1.0024414000000001,-0.33955383,3.4564513999999997
1.1274108999999999,-9.052582000000001,1.9481811999999998,0.9481200999999999,-0.4226532,3.9858856
1.2136078000000001,-8.837112,2.8723297000000003,0.7425232,-0.41305542,4.267105
2.0300293000000003,-8.999924,2.8627625,0.32814026,-0.33955383,4.420517
2.7985687,-9.541,0.88035583,-0.17359924,-0.1765747,4.6016083
3.4665527000000003,-10.237717,-0.71417236,-0.5528411999999999,0.13981628,4.9211884
5.061081,-11.106812,-1.676651,-0.7754821999999999,0.7810974,5.2226562
7.843155,-13.168228,-2.6295319,-1.122757,1.8730011000000002,5.235443
10.146378,-15.143432999999998,-3.4962462999999997,-1.4924011000000001,2.8029785,4.671921
11.472763,-16.386032,-3.5896149,-1.3869476,3.1385345,3.9187775
11.740905999999999,-16.71164,-2.459549,-1.0215607,2.9371948,3.4543152000000004
11.760071,-14.925568,-0.5968628,-0.69026184,2.4013672,3.1081084999999997
12.475937,-12.538544,0.17407227,-0.39518738,1.7025603999999999,2.7874603
13.333054,-10.762054,0.5499573,-0.17147827,0.9994812,2.4881287
13.033783,-8.980758999999999,2.1588592999999996,0.00642395,0.42103577,2.144043
11.278824,-8.305603,3.0782317999999997,0.087387085,-0.06365967,1.8255310000000002
10.43367,-7.912948599999999,2.6855927000000004,0.18539429,-0.43649292,1.6998291
10.052994,-7.4484710000000005,2.2977295,0.20349121,-0.59521484,1.7147369
9.6723175,-6.878647,1.8164977999999998,0.06927489999999999,-0.39601135,1.7232666
9.590912,-6.2082825,1.5124358999999998,-0.04257202,0.0055847169999999995,1.5464325
9.411346,-6.1340637000000005,0.90908813,-0.150177,0.40292358,1.1714478000000002
8.55423,-6.5051575,0.8851471,-0.37387085,0.7779083000000001,0.71551514
8.283676,-6.9409027000000005,0.84684753,-0.70944214,1.1305083999999999,0.20526123
8.906174,-7.4580535999999995,0.42785645,-1.0577698,1.4543457,-0.30180359999999995
10.402557,-7.721420299999999,0.7007904,-1.202652,1.7291869999999998,-0.739624
12.0354,-7.8937990000000005,0.8348694,-0.8372649999999999,1.8080139,-1.0709229
13.033783,-8.116455,0.3656006,0.14596558,1.3989563,-1.1582794
13.615570000000002,-8.190674000000001,-0.050979614000000006,1.2378693,0.32409668,-1.1167296999999998
13.455154,-8.023087,0.16209412,1.7332153000000001,-1.1097412,-1.3905028999999998
12.516632000000001,-7.783661,1.1413269,1.7342833999999998,-2.301773,-2.0520325
11.884567,-8.142792,2.8148804,1.5510559,-2.9814147999999996,-2.9021149
11.508666999999999,-9.282425,4.280121,1.1515808,-3.3308258,-3.6765594
10.862244,-9.349472,3.9353637999999997,0.39631653,-2.955841,-4.111191000000001
11.855835,-9.426086,0.8995209000000001,-0.06814575,-2.175003,-4.4062653
14.269179999999999,-10.529816,-1.1259766000000002,-0.076660156,-1.6104126,-4.6182555999999995
16.328201,-12.754028,-1.7221375,0.037322997999999996,-1.1789856,-4.700287
16.670578,-14.750793,-1.5018768,0.058624268,-0.7486267,-4.6960296999999995
15.497406,-16.505737,-1.834671,-0.0052948,-0.2820282,-4.627838
14.032166,-16.268707,-0.40771484,-0.044708252000000004,0.15686035,-4.4531403
12.056946,-15.030914000000001,1.4956665,0.10017395,0.41145325,-4.1463470000000004
10.07933,-14.020554,2.0128174,0.29510498,0.35818479999999997,-3.7255707
8.743362,-13.386092999999999,1.5196075,0.39204407,0.10145569,-3.3228912000000004
7.9796143,-12.976685,1.0407715,0.43359375,-0.23303223,-3.0853424
7.07222,-12.591217,0.71995544,0.45703125,-0.52171326,-2.9809417999999996
6.025955000000001,-11.619171000000001,1.0838623,0.36541748,-0.62397766,-2.9149017
5.03714,-10.8697815,1.1676636,0.12573242,-0.5771179,-2.7774810000000003
4.314102,-10.120407,0.66967773,-0.1821289,-0.43756104,-2.4962463
4.278183,-9.263275,0.46138,-0.5123595999999999,-0.26286316,-2.027542
4.316498,-8.576141,0.6217804,-0.81596375,-0.12118530000000001,-1.421402
4.0674896,-8.070969,0.48052979999999995,-0.97254944,-0.005065918,-0.78970337
3.4186707000000003,-7.8985899999999996,0.044784545999999995,-0.86177063,0.08761597,-0.110061646
2.6118164,-7.915344,-0.17070007,-0.42820740000000007,0.14193726,0.7336273
1.6972351000000003,-7.963226299999999,-0.23054504,0.14384460000000002,0.10252380000000001,1.5847778000000001
0.9215088,-8.176314999999999,-0.12042236,0.41973877,-0.047683715999999994,2.28891
0.7443390000000001,-8.303207,0.5332031,0.29830933,-0.21917725,2.831131
0.72998047,-8.346297999999999,1.5914458999999999,0.10122681,-0.28309629999999997,3.2348784999999998
0.36845398,-8.262497,2.5467223999999997,0.14596558,-0.26605225,3.5736237
0.6078644,-8.102097,2.7430573,0.44850159999999994,-0.277771,3.9656372
1.9366608,-8.645569,1.2586517,0.61468506,-0.2820282,4.5142517
3.2223357999999998,-8.954422000000001,-0.5178528,0.49430847,-0.14355469,4.9840393
4.4864807,-9.433273,-0.95599365,0.37713623,0.05671692,5.198150599999999
6.0546875,-10.434036,-0.1850586,0.46768188,0.31983948,5.1342316
7.630066,-12.291946000000001,0.42066956,0.6125641,0.68629456,4.788025
8.329178,-14.06604,-0.285614,0.49325562,1.1528778,4.2703094
9.693863,-15.188934,-1.3582153000000001,0.19071960000000002,1.412796,3.6172942999999997
11.290802000000001,-15.085982999999999,-0.9440155000000001,-0.20343018,1.4735260000000001,3.0431213
12.3203125,-13.673401,0.37997437,-0.7009125,1.5630035,2.60849
13.328261999999999,-11.588042999999999,0.8875427,-0.93634033,1.619461,2.2484436000000003
14.044128,-10.187439,-0.11563110000000001,-0.8138274999999999,1.4873657,1.9309845
14.226089499999999,-9.263275,-0.89852905,-0.41862488,1.1507416000000001,1.6731873
13.596420000000002,-8.475586,-0.9416199000000001,0.056488037000000005,0.9036101999999999,1.5283203
12.698592999999999,-8.013504,-1.0493622,0.31961059999999997,0.854599,1.4580078
11.975539999999999,-7.5610046,0.087875366,0.2450409,0.92277527,1.3717194
11.264465,-7.015121499999999,1.7279053,0.034118652,1.0197144,1.2417603000000002
10.457611,-6.107727,2.798111,-0.17893982,1.0356903,0.9882354999999999
10.041031,-5.377487,2.6305237,-0.38772583,1.0964203000000001,0.6579895
9.746536,-5.214691,1.426239,-0.6295470999999999,0.9536743000000001,0.38102722
9.873428,-5.2290497,-0.12280273400000001,-0.7999878,0.51371765,0.13388062
10.378616000000001,-5.573807,-0.9607849,-0.8638915999999999,0.24952698,-0.25706482
11.290802000000001,-6.069412000000001,-1.0350037,-0.7115630999999999,0.19946289,-0.8269806000000001
12.466353999999999,-6.6296539999999995,-0.80755615,-0.11608887,0.08015442,-1.2669373
12.942795,-7.539459,-0.81951904,0.6786041,-0.3438263,-1.487442
12.533386,-7.752533000000001,-0.18266296,1.1590424,-1.0532837,-1.7367249
12.703384,-7.089339999999999,0.88275146,1.2261505,-1.7829895,-2.155365
13.577255,-7.3790436,2.1109772,0.9246825999999999,-2.3092346,-2.7551117
13.708939,-8.937667999999999,3.5498962,0.48898315,-2.4200133999999998,-3.3271637000000003
12.545364,-9.483551,3.9904327000000004,0.16940308,-2.1931152000000003,-3.6733703999999996
12.420867999999999,-10.036605999999999,2.3839264,-0.009552001999999999,-1.7350616,-3.7010650000000003
13.507828,-11.264832,0.49728394,-0.043640137,-1.1342468,-3.5742949999999998
14.635498000000002,-12.58403,-0.62080383,0.024536132999999998,-0.49189758,-3.492279
14.625916,-13.649460000000001,-0.5561676,0.18751526,0.07589722,-3.478424
13.342635999999999,-14.262375,0.45419312,0.4644928,0.32409668,-3.46138
10.821533,-13.738037,1.4142609,0.7766113,0.3017273,-3.349533
8.539856,-12.143509,2.1947784,1.0503844999999998,0.08761597,-3.0874786
7.6037292,-10.793167,2.628128,1.2229614,-0.31825256,-2.728485
7.1871339999999995,-10.043792999999999,2.6855927000000004,1.2485198999999998,-0.76672363,-2.3843994
6.710693400000001,-9.627197,2.6448822,1.1356049,-1.1022949,-2.1788025
6.059463500000001,-9.481155000000001,2.3336487,0.90231323,-1.1938933999999999,-2.076538
5.19516,-9.2561035,1.8883208999999999,0.55929565,-1.0500946000000002,-2.011551
4.3667755,-8.774857,1.3999023000000002,0.15130615,-0.7326355,-1.8911743000000003
3.8639832000000003,-8.183487,0.7678375,-0.25883484,-0.37258909999999995,-1.6408386000000001
3.9932709,-7.5514220000000005,0.34884644,-0.61994934,-0.102005005,-1.3020935
4.1704407,-7.0342712,0.17407227,-0.9075774999999999,0.1174469,-0.9537505999999999
4.2087555,-6.857101400000001,-0.019851685,-1.0673676,0.31451416,-0.5244446
4.005249,-7.103714,-0.15872192,-1.0386046999999998,0.4008026,0.087020874
3.4378203999999997,-7.4891815,-0.12280273400000001,-0.67108154,0.376297,0.81565857
3.021225,-7.9440764999999995,0.111816406,-0.060684204000000005,0.25805664,1.4889069
3.0547485,-8.595291,0.48292542,0.39950562,0.062042235999999994,2.0960999
3.131363,-9.651138000000001,1.05513,0.68499756,-0.040222167999999996,2.5445862
2.4561919999999997,-10.012665,1.7398833999999999,1.0695496000000002,-0.038085938,2.8684235
2.0036926,-9.837891,2.7191009999999998,1.456253,-0.21917725,3.0665588
2.9278564,-10.615997,3.4253998,1.3699646,-0.42797852,3.2369995
3.5814667,-11.085266,2.7167206000000004,0.69885254,-0.41944885,3.4958649
4.2925415000000005,-10.290389999999999,1.7662201000000002,-0.086257935,-0.14035034,3.6982574
5.7099150000000005,-10.410095,1.4094848999999998,-0.43139648,0.29107666,3.7568512000000003
7.613312,-11.887329,0.521225,-0.42395020000000005,0.84394836,3.7344817999999997
9.174332000000001,-13.362151999999998,-1.9376221000000002,-0.46975708,1.5576782,3.6822815
9.811188000000001,-14.030135999999999,-4.2480164,-0.48146057,1.9688721000000002,3.5150300000000003
10.306778,-13.433975,-4.336608999999999,-0.3621521,1.9369048999999998,3.4149017
10.342697,-11.501862,-1.9112854,-0.20982361,1.6620789,3.3158263999999997
10.148773,-9.167511,0.31532288,-0.031921387,1.2785796999999999,3.0047759999999997
10.074539,-8.116455,0.43983459999999996,0.19497679999999998,0.8641968000000001,2.5829315
9.689072,-7.4269257,0.5667267,0.48791504,0.36032104,2.1877136000000004
9.097717,-6.993575999999999,1.0048523,0.7095031999999999,-0.05406189,1.809555
8.882233,-7.012726,0.8133239999999999,0.7201538000000001,-0.25326538,1.4793091
9.514297500000001,-6.4237519999999995,0.8300780999999999,0.60510254,-0.30014038,1.2822418
9.856674,-5.9473114,0.84924316,0.33026123,-0.11904907,1.2897034
9.416138,-5.760559,0.9569701999999999,-0.14164734,0.1259613,1.2342986999999999
9.1623535,-5.5881805,0.63375854,-0.6785431,0.59254456,0.8955536000000001
9.262909,-5.8898470000000005,-0.2425232,-1.059906,1.1539458999999999,0.43748474
9.52388,-6.677536,-0.80755615,-1.1898651000000002,1.539566,0.025222777999999998
9.7202,-7.7621155,-1.7293243000000003,-1.073761,1.5576782,-0.39874268
10.474380499999999,-8.406158,-2.2871704,-0.6061095999999999,1.0910950000000001,-0.8546753
12.236511,-8.458832000000001,-2.1339417000000003,0.2695465,0.26870728,-0.9590759
13.294754000000001,-8.530655,-1.2863921999999999,0.9704895,-0.69429016,-0.96546936
13.170242000000002,-8.470794999999999,-0.12998962,1.1313476999999998,-1.3824463,-1.4799957000000001
12.629166,-8.142792,0.8707886,1.0205536,-1.759552,-2.4110259999999997
13.098419,-9.1770935,1.8595886000000001,0.564621,-1.8714142,-3.1801453
12.741684,-10.910492,2.8507842999999995,-0.056427002000000004,-1.6050872999999999,-3.6073150000000003
11.8103485,-10.242508,2.0224,-0.46975708,-1.2450409,-3.7532654
13.191803,-9.337494,-0.012680054,-0.56881714,-0.95848083,-3.6467437999999994
14.92041,-9.830703999999999,-0.6255951,-0.41223145,-0.81147766,-3.5284882000000004
14.827042,-12.133925999999999,-1.4180756,-0.14164734,-0.74116516,-3.4890747
13.991454999999998,-14.662201000000001,-1.6503143,0.058624268,-0.55474854,-3.475235
12.315521,-15.346939,-0.5609436,0.19177246,-0.32678223,-3.4347534
9.475997999999999,-14.042098999999999,0.9210663,0.30470276,-0.26818848,-3.302658
7.428955,-11.741272,2.0966186999999996,0.39204407,-0.37364197,-3.0682982999999995
6.674774,-10.089279,2.6927642999999994,0.4026947,-0.5281066999999999,-2.7849426
6.322830000000001,-9.280045,2.5155945,0.36434937,-0.7070770000000001,-2.5590973
6.030730999999999,-8.918517999999999,2.0343628000000002,0.26208496,-0.7837677,-2.4238129
5.470489499999999,-8.762894000000001,1.6297455,0.037322997999999996,-0.64741516,-2.2906494
4.7905426,-8.705428999999999,1.2706146,-0.29185486,-0.36512756,-2.0733337
4.2135468000000005,-8.427703999999999,0.8061371,-0.628479,-0.10626221,-1.7665404999999998
4.1345367,-8.09491,0.5786896,-0.8798828000000002,0.042877197,-1.5002289
4.350006,-7.927307000000001,0.49967957,-1.0215607,0.11424255,-1.3159332000000001
4.381133999999999,-8.049422999999999,0.16209412,-1.0662994,0.18028260000000002,-1.0794525
4.1608734,-8.420517,-0.19703674,-0.97254944,0.24526978,-0.6331024000000001
3.7586364999999997,-8.772461,-0.17547607,-0.64338684,0.26657104,0.05293274
3.7083587999999996,-9.062164,0.18365479,0.057556152,0.12170410000000002,0.86146545
3.9932709,-9.543396000000001,0.7151642,0.74998474,-0.11479187,1.622055
3.9046936000000003,-10.204193,1.3113098,0.9843291999999999,-0.2554016,2.2580261000000004
2.9278564,-10.374191,1.8979034,1.0035094999999998,-0.20213318,2.7736053
1.6182251,-10.036605999999999,2.61615,1.1249542,-0.12437439,3.1880034999999998
1.606247,-10.35025,3.5044098,1.2229614,-0.09667969,3.4852142
2.8177185000000002,-11.477921,3.0710602000000002,0.9513091999999999,0.055648804,3.7195739999999997
3.2654419999999997,-11.097244,0.9354248,0.31428528,0.31451416,3.8623046999999997
3.9813080000000003,-10.529816,-0.11323547,-0.27374268,0.6277008000000001,3.9198303
5.559082,-11.283980999999999,-0.21139526,-0.48146057,1.0889587,3.9208983999999996
7.5103607000000006,-12.888107000000002,-0.80036926,-0.60183716,1.7877808000000002,3.8729706
8.877441000000001,-13.979857999999998,-2.3637848,-0.61143494,2.0040283,3.4298095999999996
9.777664,-14.104354999999998,-3.4291992,-0.41967773,1.8378448,2.973877
9.863861,-12.765991,-2.6989746,-0.3855896,1.5459595,2.7299347000000003
9.796814,-10.410095,-0.45321655,-0.54325867,1.2839049999999999,2.5317993
9.772872999999999,-9.14357,0.44221497,-0.6966553000000001,1.1198578000000001,2.3091583
10.23735,-7.668747,0.77023315,-0.6891937,1.0271759,2.0929108
9.756119,-6.8140106,1.3424377,-0.5720215,0.9057312,1.9320526000000002
8.673935,-6.555435000000001,0.57629395,-0.5102234,0.8023986999999999,1.8265991000000001
8.511139,-6.354324299999999,-0.285614,-0.51982117,0.7395477,1.7711945
8.547042999999999,-6.057449299999999,-0.25209045,-0.49638367,0.6799010999999999,1.7594756999999999
8.61647,-6.045471,0.48052979999999995,-0.41862488,0.74487305,1.6540221999999998
8.566193,-6.253769,1.1437225,-0.5443115,1.0282440000000002,1.2801056
8.55423,-6.7278137000000005,0.9785155999999999,-0.96403503,1.539566,0.7741089
8.664368,-7.271301299999999,0.70318604,-1.3688354,1.9656677,0.37570190000000003
9.145599,-7.9991455,0.6505126999999999,-1.4455261000000001,2.0871124,0.09660339
10.220596,-8.276871,0.99768066,-1.1877441,1.904953,-0.24960327
12.097641000000001,-8.126038000000001,0.47813416,-0.4047699,1.2380981000000002,-0.6458893
13.390518,-8.149979,-0.48432922,0.9044341999999999,0.054595947,-0.7353668000000001
13.239685,-8.300811999999999,-0.5274353,1.776886,-1.2769928,-0.8823700000000001
12.4831085,-8.142792,0.8300780999999999,1.8045959999999999,-2.157959,-1.5843811
11.961182,-7.4532623,2.331253,1.5009918,-2.504181,-2.6922607000000003
12.8302765,-8.533050999999999,3.7318572999999997,1.0450591999999999,-2.6085662999999997,-3.6733703999999996
12.806335,-10.146744,4.952896,0.38352966,-2.2570342999999995,-4.211334
12.5381775,-9.414108,3.0542908,0.011749268,-1.5891113000000001,-4.419052
14.434387,-9.002303999999999,-0.036621094,0.118270874,-0.94888306,-4.452072
17.027313,-10.611221,-1.1618958000000001,0.43891907,-0.5430298000000001,-4.4286346
17.510939999999998,-13.407639000000001,-1.0565491000000002,0.66474915,-0.24049377,-4.360458400000001
15.935547,-16.05803,-1.1738586000000002,0.75743103,-0.0039978027,-4.294418299999999
13.680206,-16.445877,0.2554779,0.7989807,0.01411438,-4.159134
11.142364500000001,-15.004578,2.1253509999999998,0.7606354000000001,-0.08921814,-3.8533936
9.104889,-13.364548000000001,2.7957153,0.7521057,-0.26286316,-3.4635162000000004
7.675552400000001,-12.289551,2.307312,0.75424194,-0.43544006,-3.0693665
6.9022217,-11.590439,1.4789124,0.738266,-0.5707245,-2.7561798
6.069046,-11.085266,0.8875427,0.6786041,-0.67085266,-2.5047759999999997
4.922226,-10.627975,0.30815125,0.5145569000000001,-0.7017517,-2.219284
3.9477843999999997,-9.924072,0.24349976,0.23439026,-0.61865234,-1.8538971000000002
3.2127686,-9.021469,0.33926392,-0.062820435,-0.49082947,-1.4661407
2.9087067,-8.090117999999999,0.40151978,-0.3078308,-0.32571409999999995,-1.0911713
2.7051849999999997,-7.484390299999999,0.2889862,-0.52407837,-0.20852661,-0.69488525
2.3293,-7.199478,-0.005493164,-0.7062378,-0.17337036,-0.21125793
1.867218,-7.1779327,-0.48432922,-0.76908875,-0.14887999999999998,0.36717224
1.6732941000000003,-7.2138367,-0.55137634,-0.5443115,-0.09667969,0.9189911000000001
1.8696136000000003,-7.5969086,-0.23533629999999997,-0.109695435,-0.09986877400000001,1.347229
2.2263488999999996,-8.396576,-0.12280273400000001,0.13531494,-0.12757874,1.8010254
2.5447845,-9.507492,0.020843506,0.16940308,-0.16271973,2.3262023999999997
2.4657744999999998,-9.852249,0.5954437,0.30470276,-0.17764282,2.832199
2.4729614,-9.416504,1.7638245,0.5997772,-0.23410034,3.3200989
3.6245727999999997,-9.89296,2.5706634999999998,0.8490448,-0.24900818,3.8218384
4.400284,-11.099625,1.7518463,0.9044341999999999,-0.06578064,4.1786957000000005
4.215927,-11.063721000000001,0.7941741999999999,0.75424194,0.25912476,4.306534
5.008407599999999,-11.702972,0.8707886,0.55397034,0.6703186,4.215973
6.4712677,-13.625519,1.0982361,0.20455933,1.316925,3.9965363
7.630066,-14.93515,0.6385498000000001,-0.28225708,1.8857727,3.5342102
9.143203999999999,-15.083588,-0.19941711,-0.5869293000000001,1.9816589,3.0516509999999997
10.455231,-14.250397,-0.8817749,-0.7669524999999999,2.0658112,2.8577728
10.943634,-11.961547999999999,-1.0278167999999999,-0.87135315,2.0530243,2.7618866
11.384171,-9.773239,-1.3797607,-0.9895934999999999,1.9933777,2.6447144000000002
11.463181,-8.746124,-1.7796020000000001,-1.122757,2.0327911,2.5712127999999996
10.51268,-7.3742523,-1.1044312,-1.1621704,1.8730011000000002,2.4423217999999998
9.270096,-7.206664999999999,-0.6543274,-1.0662994,1.4394379,2.2697449
8.810410000000001,-7.163558999999999,-0.40771484,-0.8841399999999999,0.8833618000000001,2.1461639999999997
8.664368,-6.7780914,-0.2760315,-0.61676025,0.37522888,2.0811919999999997
8.458466,-6.6990814,-0.08689880000000001,-0.36854553,0.05671692,1.9267273
8.666748,-6.739792,0.43504333,-0.38026428,0.071640015,1.618866
8.906174,-6.866683999999999,1.0359802,-0.51342773,0.35818479999999997,1.1927643
9.061798,-7.400589,1.2778015,-0.5208893,0.7107849,0.76239014
9.559799,-8.140396,1.5243988000000002,-0.3781433,0.9568634,0.40872192
10.57254,-8.207443,1.6417236000000002,-0.23326111,1.0112,0.013519287
11.693024000000001,-7.946472,1.0479584000000002,-0.0990448,0.83010864,-0.5393677
12.621979,-7.915344,0.8061371,0.30575562,0.40612793,-0.8365630999999999
13.151093,-8.212219000000001,1.3352661,0.73931885,-0.16911316,-1.0879669
13.124756,-8.437286,1.8284607,0.83413696,-0.68470764,-1.7953033
12.791962,-7.821975699999999,1.8476256999999998,0.7936554,-1.1278534,-2.7018432999999997
13.764007999999999,-8.442062,1.4334258999999998,0.7244109999999999,-1.6306610000000001,-3.475235
13.577255,-9.670288000000001,1.7805786,0.34837340000000006,-1.7872467,-3.955658
12.5381775,-8.674301,1.584259,-0.04045105,-1.4452972,-4.1900177
14.281158,-8.578536999999999,0.17407227,-0.0756073,-0.89456177,-4.3082733
16.151031,-10.94162,-0.577713,0.18751526,-0.42584229999999995,-4.414795
16.457489000000002,-13.994217,-0.34307859999999996,0.5209503,-0.14994812,-4.448883
15.633881,-16.316589999999998,-0.7524871999999999,0.7180175999999999,0.026885986,-4.348739599999999
14.118347,-16.891205,-0.15393066,0.7371979000000001,0.14193726,-4.1271667
11.961182,-15.279907000000001,1.584259,0.7936554,0.03541565,-3.8054657
9.981171,-13.340607,2.707138,0.93533325,-0.33955383,-3.4581910000000002
8.271713,-12.339828500000001,2.7957153,1.0493164,-0.7464905,-3.1013184
6.839981,-11.882538,2.0583038,1.0535736,-1.0106812,-2.7806702000000003
5.7027282999999995,-11.561707,0.97613525,0.9278716999999999,-1.0756531,-2.5601654
4.759414700000001,-10.922455000000001,0.66249084,0.63705444,-0.978714,-2.3247375
4.0148163,-10.338272,0.7462920999999999,0.24397278,-0.7805786,-2.012619
3.3444519999999995,-9.62001,0.6864319000000001,-0.100097656,-0.5856323,-1.6536255000000002
2.930252,-8.597686999999999,0.39433290000000004,-0.35682678,-0.45248413,-1.2871704
2.8416595,-7.776474,0.169281,-0.61569214,-0.324646,-0.9196625
2.463379,-7.486786,-0.36941528,-0.83833313,-0.26712036,-0.51379395
2.0204468,-7.5370636,-0.85783386,-0.9533844000000001,-0.28416443,-0.03868103
1.9151001,-7.915344,-0.7453003,-0.8692169,-0.2500763,0.5780945
2.032425,-8.403763,-0.28082275,-0.43460083,-0.16166687,1.2162018
2.2670592999999997,-9.016678,-0.11802673,0.028793335,-0.030639648,1.7701262999999998
2.353241,-9.825911999999999,0.056762695,0.13212585,0.054595947,2.3847961
2.3316956,-10.46756,0.55714417,0.15023804,0.092941284,2.9451141
1.9558105,-10.680649,1.4190521,0.39524840000000006,0.13768005,3.3552399
2.0204468,-10.44841,2.7334747000000004,0.74998474,0.026885986,3.6023864999999997
3.270218,-11.183425999999999,2.9513397,0.8724823,-0.08177185,3.8090515
3.3276825,-11.300751,1.3927155,0.58592224,-0.033828735,4.008255
3.7322998,-10.888947,0.6385498000000001,0.12359619,0.23355103,4.139282
5.472885,-11.765213000000001,0.9928894,-0.0990448,0.80667114,4.163787999999999
7.721039,-13.587204000000002,0.7678375,-0.36642456,1.7089386000000002,3.9805602999999996
9.344315,-14.887253,-0.5872803000000001,-0.5283356,2.1648712000000003,3.5235595999999996
10.325942999999999,-15.452285999999999,-2.24646,-0.57414246,2.2639465,3.2178345
10.500717,-14.271942000000001,-2.7109375,-0.64338684,2.030655,3.0473784999999998
10.373825,-11.1978,-1.0541534,-0.7520446999999999,1.7579498,2.8684235
10.76886,-9.543396000000001,-0.5753174,-0.90011597,1.7057494999999998,2.7097015
10.742523,-8.102097,0.061538696,-0.9672241,1.5736542,2.6298065
9.923706,-7.5897369999999995,0.17167664,-0.9075774999999999,1.2615356000000002,2.6031647
9.198273,-7.668747,-0.37660217,-0.77867126,0.934494,2.4987793
9.040253,-7.163558999999999,-0.59207153,-0.64338684,0.6543274,2.2985077
8.956451,-6.8954163,-0.5705260999999999,-0.4601593,0.41891480000000003,2.0811919999999997
8.372269000000001,-6.9313199999999995,0.018447876000000002,-0.36109924,0.39015198,1.7498932
8.144821,-7.1348267000000005,0.6648864999999999,-0.43778992,0.43595886,1.2151337
8.748154,-7.230606,1.0431671,-0.5496521,0.49453735,0.62924194
9.830338000000001,-7.4939575,0.93782043,-0.54112244,0.6873627,0.16371155
10.823929,-8.121246000000001,1.026413,-0.34724426,0.93769836,-0.16970825
11.860626,-8.027878,0.86120605,-0.047912598,0.9536743000000001,-0.59687805
12.878159,-7.7238007,0.41110230000000003,0.5763397,0.678833,-0.91326904
13.526978,-8.0159,0.5738983,1.2272186,0.3070526,-1.0986176
13.560501,-8.731766,1.2155457,1.4040527,-0.10307312,-1.7473755000000002
13.007446,-8.72937,2.1804047000000004,1.2474518,-0.76034546,-2.8467255000000002
13.129547,-8.815567,2.4892578,0.88420105,-1.5060272,-3.8576660000000005
13.752045,-10.338272,3.0112,0.375,-1.7584839,-4.4680634
12.760834,-9.739730999999999,2.5515137,-0.008483886999999999,-1.6210785,-4.730118
13.749649,-8.415726,0.2339325,0.002166748,-1.3387756000000002,-4.65448
16.04808,-9.828308,-1.4204712,0.2684784,-0.99150085,-4.449951
16.991394,-13.663818,-2.0190125,0.5752716,-0.58883667,-4.272049
16.208496,-17.257523000000003,-1.7796020000000001,0.78726196,-0.25221252,-4.1218414
14.688170999999999,-19.043594,-0.45799255,0.83413696,0.0087890625,-3.9801636
11.853439,-18.157745000000002,1.5148315,0.85224915,0.1259613,-3.793747
9.057007,-15.569610999999998,2.8364257999999998,0.98646545,-0.035964966,-3.5625763
7.321213,-13.21611,3.0399323,1.0621033000000002,-0.26605225,-3.2451324
6.358749400000001,-11.777191,2.5084229,1.0269469999999998,-0.38110352,-2.8797455000000003
5.729065,-11.025406,1.4142609,0.87461853,-0.5259857,-2.5910645
5.073059,-10.472351,0.8300780999999999,0.6775359999999999,-0.6367645000000001,-2.3897247000000004
4.297333,-9.885773,0.9066924999999999,0.38778687,-0.6069336,-2.1926575
3.4737244,-9.3159485,0.7391052,0.040512085,-0.4972229,-1.9476471000000002
2.7339172,-8.501923,0.30096436,-0.26202393,-0.4695282,-1.630188
2.384369,-7.843521000000001,-0.19464111,-0.49957275,-0.48762512,-1.2765198
2.3029632999999996,-7.364669999999999,-0.35983276,-0.69451904,-0.53556824,-0.9068755999999999
2.1856537,-7.216232300000001,-0.66389465,-0.84259033,-0.5621948,-0.44029236
2.104248,-7.618469,-0.9416199000000001,-0.8638915999999999,-0.5621948,0.24360657
1.9055328,-8.377426,-0.8123474,-0.5826720999999999,-0.56007385,1.0841063999999998
1.7523041000000001,-8.90654,-0.4125061,0.12466431,-0.547287,1.841507
1.7666626,-9.387772,-0.08929443,0.8991089,-0.5014801,2.3485717999999998
1.7235718,-10.039000999999999,0.23631287,1.1846008,-0.42584229999999995,2.8162230999999998
1.2136078000000001,-10.496292,0.8372649999999999,0.97795105,-0.35127258,3.3179626000000004
0.5887146,-10.228149,1.9481811999999998,0.6434479000000001,-0.26179504,3.7621765
0.9885559000000002,-9.615219,3.4852448,0.43678284,-0.11691284,4.1776276
3.1098175,-10.247299,3.576233,0.34091187,0.14726257,4.6420900000000005
4.7737885,-12.145905,1.2346953999999999,0.36541748,0.5307616999999999,5.011734
5.5926056,-13.503403,-0.97753906,0.45809937,1.0857697,5.2737885
6.9142,-14.753189,-1.8322754,0.19284058,2.1148071,5.158737
8.762527,-16.4794,-1.5162354,-0.036193848,2.555832,4.340622
9.861464999999999,-17.516098,-1.0685120000000001,-0.08518982,2.4450377999999997,3.4564513999999997
10.864639,-17.197662,-0.40771484,-0.20449829,2.416275,2.8971862999999995
11.501495,-15.121887,0.52841187,-0.52726746,2.380066,2.511551
12.655502,-12.737259,-0.14196777,-1.0194244000000001,2.273529,2.1099547999999997
13.9531555,-10.046188,-0.26885986,-1.4338073999999998,1.9741973999999998,1.6465607
12.959564,-7.4652405,0.24589539,-1.536087,1.4841766,1.366394
11.465575999999999,-6.5889587,-0.31195068,-1.4359436,1.0250397,1.3259125
10.560562,-6.5051575,-1.111618,-1.1131744,0.5957489,1.4889069
9.880614999999999,-6.090957599999999,-1.5210266000000001,-0.69451904,0.33155823,1.6806488000000002
9.519089,-5.9329376,-1.1188049,-0.3302002,0.29214478,1.792511
8.321991,-6.205887000000001,0.33448792,-0.1352539,0.44873047,1.7903748
7.3283997,-7.0749816999999995,1.3184966999999999,-0.097976685,0.79174805,1.6124725
6.655624400000001,-7.637619,2.4796906,-0.16189575,1.1901549999999999,1.1810455
6.8902589999999995,-8.1380005,3.1644287,-0.41435242,1.5491486,0.58555603
7.768936,-8.408553999999999,3.1404877,-0.6700134,1.8005523999999997,-0.05039978
9.059402,-8.602478,2.5084229,-0.67108154,1.7664642,-0.7630615
10.890961,-8.798798,1.5938263000000001,-0.1821289,1.3691254,-1.2221985
13.000259,-8.777252,1.0216216999999999,0.6786041,0.61491394,-1.1497498
14.063278,-8.329544,0.29138184,1.2900696000000003,-0.33743286,-1.1806488000000002
13.807098000000002,-7.5011444,0.32250977,1.60112,-1.1630096,-1.6504363999999998
13.524597,-7.4053802,1.3161011,1.6384125,-1.7744751,-2.3236847000000003
13.172638000000001,-9.404541,2.6448822,1.2890015,-2.0173492,-3.0193024
10.969971000000001,-10.108429,3.6767883,0.7286682,-1.9651488999999998,-3.6755066
10.230164,-9.248917,2.4318085,0.19604492,-1.6615448,-4.1037292
12.226929,-9.811554,1.2011871,-0.039382935,-1.0607452,-4.29335
14.300308,-12.076462,0.33209229999999995,0.16940308,-0.6815033,-4.3796387
15.219681,-14.231247,-0.72135925,0.6029663000000001,-0.61013794,-4.2997437000000005
15.035324,-15.564819,-0.9918976,0.9417267,-0.68470764,-3.9609832999999997
13.325867,-15.734801999999998,-0.060562134000000004,1.0684966999999999,-0.63890076,-3.5657806000000005
10.902939,-14.846557999999998,1.3256836,1.2346802,-0.8530120999999999,-3.2302246
8.841536999999999,-13.647064000000002,2.8795166,1.3507843000000002,-1.18219,-2.919159
6.820831299999999,-12.938385,3.537918,1.362503,-1.4868469,-2.6613617
5.049118,-12.368561,3.1979523,1.2261505,-1.6956482,-2.4674834999999997
4.115371700000001,-11.602416999999999,1.9984589,0.9374695,-1.7765961,-2.3343353
3.8113097999999996,-10.733322,1.8093109,0.4964447,-1.6114807,-2.2299347000000003
3.4976807,-9.981537,1.3376465,-0.0074310303000000005,-1.2258606,-2.0605621
3.4593657999999996,-9.035828,0.9042969000000001,-0.47080994,-0.76034546,-1.786789
3.5024567,-8.401367,0.39912415,-0.8340759,-0.35873413,-1.4181976
3.4904937999999994,-7.9943542,-0.043807982999999995,-1.1110381999999999,-0.11479187,-1.0155334
3.3612059999999997,-7.6902924,-0.48672485,-1.2378082000000001,0.0023956299,-0.5766449
3.0810852000000004,-7.83873,-0.6734772,-1.1163635,0.04925537,-0.10685730000000002
2.72435,-8.408553999999999,-0.46517944,-0.74671936,0.09826660000000001,0.28727722
2.5016785,-9.201035000000001,-0.034225464,-0.31208800000000003,0.17390442,0.6505432
2.5543517999999996,-10.146744,0.31054688,-0.05961609,0.18455505,1.2907562
2.6573029,-10.900909,0.9737396,0.12892151,0.14086914,2.1067505
2.3628235,-10.429260000000001,2.0846405,0.44424438,0.021560668999999998,2.8236847000000003
2.4537964,-9.648743,3.1428833,0.8405304,-0.18083191,3.3637695
3.186432,-10.539383,3.32724,1.0578461000000001,-0.23196411,3.7238312000000007
2.4178925,-11.384537,2.3527985,0.94918823,-0.03489685,3.8623046999999997
1.6661072000000001,-11.216949000000001,1.7518463,0.69351196,0.24633789,3.92836
2.748291,-11.942397999999999,1.6488953000000002,0.6029663000000001,0.6287689000000001,4.028487999999999
4.646896400000001,-13.354965,1.347229,0.35476685,1.4607391,4.098800700000001
6.5478819999999995,-14.384476000000001,0.22674560000000002,0.0042877196999999995,2.0253296,3.6151733
8.427338,-14.487426999999999,-1.2456969999999998,-0.074539185,2.1052246,3.0463257
9.073775999999999,-13.659026999999998,-1.8322754,-0.24711609,2.1222687000000002,2.8385925
8.851105,-11.446793,-1.1235808999999999,-0.49850464,2.1670074,2.7395172000000003
9.325165,-9.828308,-1.0182343,-0.6785431,2.1265259,2.5499115000000003
10.505508,-8.181107,-1.305542,-0.7989196999999999,1.9113464,2.353897
10.007507,-6.598526,-0.33110046,-0.85217285,1.572586,2.2132874
8.3172,-6.4931946,-0.83628845,-0.82128906,1.07724,2.126999
7.790481599999999,-6.4931946,-1.4779205,-0.71369934,0.45193479999999997,2.1227417
8.092148,-6.234619,-1.1355591,-0.5954437,-0.0072021483999999995,2.1525574
8.025116,-6.342346,-0.78601074,-0.5805359,-0.14248657,2.0438994999999998
7.823989999999999,-6.763733,-0.46517944,-0.63487244,-0.013595581,1.66893
7.998779300000001,-7.673522999999999,-0.16830444,-0.6923828000000001,0.30812073,1.126709
8.147217,-8.841904,0.047180176,-0.6572418000000001,0.6181183000000001,0.6121979000000001
8.410568,-9.368622,0.37997437,-0.54751587,0.8332976999999999,0.21697998
9.581344999999999,-9.596069,0.39912415,-0.36854553,1.1166534,-0.1963501
11.396149000000001,-9.648743,0.6241760000000001,0.028793335,1.2157288,-0.8035431
12.890121,-9.912109,0.99528503,0.6636963,0.84820557,-1.1859741000000001
13.35939,-10.383759,1.5339813,1.1292114,0.07801819,-1.1817169
12.772812,-9.943237,2.0487366000000002,1.1782073999999998,-0.8998870999999999,-1.3670653999999998
11.822311000000001,-8.418121000000001,2.5658722000000003,1.0375976999999998,-1.8245392,-1.9987793000000003
12.145522999999999,-8.047028,3.0782317999999997,0.8479767,-2.5627593999999996,-2.8243560000000003
12.530991,-10.580093,2.8603668,0.46554565,-2.8578491,-3.4656372
10.816742,-11.372574,1.0455627,0.06288147,-2.6330720000000003,-3.8480682
10.859848,-10.814728,-1.2241364,-0.084121704,-2.1813965,-4.036621
12.957169,-11.315109,-1.9687346999999997,-0.044708252000000004,-1.5049591,-4.119720500000001
14.604370000000001,-13.194564999999999,-1.6646729,0.11401367,-0.9329071,-4.195343
14.374526999999999,-15.222443,-1.4420166,0.2546234,-0.5291748000000001,-4.166580000000001
13.117569,-16.151398,-0.90571594,0.19816589999999998,-0.04234314,-4.0281067
11.355438000000001,-15.358917000000002,0.7869873000000001,0.15342712,0.26870728,-3.7745667000000003
9.306000000000001,-13.656630999999999,1.8141022,0.292984,0.17070007,-3.4667053
7.7665405,-12.188995,2.2450562,0.43998718,-0.06259155,-3.1396637000000003
6.523941000000001,-11.477921,2.0535126,0.45063782,-0.13609314,-2.857376
5.384308,-10.996674,0.8276825000000001,0.37927246,-0.31185913,-2.6847992
4.2207184,-10.376586999999999,0.17407227,0.2216034,-0.48229979999999995,-2.5196838
3.2893830000000004,-9.706207000000001,0.34405518,-0.07028198,-0.50894165,-2.2310027999999997
2.7889862,-9.011887,0.5379944000000001,-0.46122742,-0.41519165,-1.7995758000000002
2.681244,-8.264892999999999,0.0016937256,-0.75523376,-0.28842163,-1.341507
2.6644897000000003,-7.704650999999999,-0.2928009,-0.89585876,-0.17443848,-0.94522095
2.4131012000000003,-7.6591644,-0.57292175,-0.9629669,-0.031692505,-0.54255676
1.9558105,-7.9847717000000005,-1.0469666,-1.0002594,0.116378784,-0.063186646
1.3620453000000001,-8.360672000000001,-1.3701934999999998,-0.9107665999999999,0.2601776,0.45878599999999997
1.218399,-8.645569,-0.88417053,-0.5997161999999999,0.29640198,0.9413604999999999
1.6397705000000002,-8.908936,0.0064697266000000005,-0.33659363,0.1770935,1.5666656
2.0228424,-9.488327,0.4948883,-0.23326111,-0.07643127400000001,2.5083618
1.8744048999999998,-9.816345,0.7271271,0.085250854,-0.27565002,3.3307495000000005
1.7211761000000003,-9.682266,1.2251282,0.6349335,-0.38110352,3.7707062000000007
2.1760712000000004,-9.9839325,1.9673308999999997,1.103653,-0.38963318,3.9720306000000005
2.5735167999999997,-11.506653,1.5746765,1.2591705,-0.30867004,4.139282
1.6421661,-11.959152,0.6194,1.1025848,-0.10839844,4.3214417
2.5950623,-11.803528,1.3831482,0.6253357,0.43063354,4.3374176
5.5973816,-12.749236999999999,2.1445007,-0.1821289,1.5438232,4.0135803
8.652389999999999,-14.705292000000002,1.2251282,-0.87667847,2.3981779999999997,3.1443176
10.452835,-16.175339,-0.42926025,-1.1248931999999998,2.7582245,2.416748
11.417694000000001,-16.239975,-1.7197418000000002,-1.2122344999999999,2.7081604,2.2356567000000003
12.068909,-13.999007999999998,-2.4116668999999997,-1.1738892,2.2682037,2.3187408
12.423264,-10.46756,-2.593628,-1.013031,1.874054,2.2803955
12.803939999999999,-7.34552,-1.6981964,-0.7435303000000001,1.5417023,2.0417786
11.029831,-5.839569,0.020843506,-0.501709,1.2412872,1.8255310000000002
8.152008,-6.325591999999999,0.32250977,-0.36854553,1.0410309000000002,1.7829131999999999
6.622101,-6.53389,0.48532104,-0.27053833,0.8492736999999999,1.8617401000000002
7.1607970000000005,-6.256164599999999,1.05513,-0.16934204,0.631958,1.8926392
7.9604645000000005,-5.794082599999999,1.7662201000000002,-0.064956665,0.42849729999999997,1.7434998
7.776108,-5.729431,1.8643798999999999,-0.027664185,0.31451416,1.4920959999999999
7.2517853,-6.004776000000001,1.3927155,-0.10116577,0.28894043,1.1895599
7.0147552,-6.3830566,1.0216216999999999,-0.3067627,0.34434509999999996,0.8444214
7.4935913,-6.907379,0.77500916,-0.5251465,0.44340515,0.45985413
8.752945,-7.604095500000001,0.7845916999999999,-0.6359253,0.549942,0.089141846
9.555008,-7.977585,0.6170044,-0.5549774000000001,0.6330260999999999,-0.33695984
10.412125,-8.724578999999999,0.30096436,-0.1821289,0.5019989,-0.7854309
11.302764999999999,-9.605652000000001,-0.060562134000000004,0.4453125,0.1302185,-0.83869934
12.030609,-10.285599000000001,0.0016937256,0.9449158000000001,-0.39068604,-0.8259125
12.049759,-10.029419,0.41827393,1.0855408000000002,-0.9520874,-1.3479003999999999
11.685837,-9.280045,1.1149902,0.99072266,-1.5496979,-2.2363281
12.19342,-10.194626,1.9242401000000002,0.6040344,-2.0237427,-3.012909
11.10405,-11.604813,2.1109772,0.017074585,-2.1760712000000004,-3.5231627999999997
9.873428,-10.52742,1.1509094,-0.49317932,-1.9587555,-3.6755066
11.436844,-9.660721,-0.5465850999999999,-0.6657562,-1.4804535,-3.6243591
13.706543,-11.420456,-1.5593261999999999,-0.46655273,-0.9701995999999999,-3.6137085
13.993851000000001,-14.094772,-2.5433502,-0.16722107,-0.56007385,-3.600937
13.036178999999999,-15.70607,-2.7085418999999997,0.0181427,-0.18829346,-3.5178375
10.9843445,-15.768326,-1.6143951,0.15130615,0.09826660000000001,-3.475235
8.824767999999999,-14.408417000000002,0.24349976,0.38671875,0.16430664,-3.4517975
7.5151367,-12.272797,2.0487366000000002,0.61468506,0.029022217000000003,-3.2110442999999997
6.535919,-10.936829,2.5778502999999997,0.62960815,-0.2000122,-2.7657623
5.6165465999999995,-10.235321,1.936203,0.5411835,-0.48869324,-2.4142303
5.269378700000001,-9.653534,1.3304749,0.48898315,-0.7017517,-2.3183594
5.140091,-9.234542999999999,1.4405975,0.39631653,-0.789093,-2.3204803
4.158478,-9.054977000000001,1.323288,0.18325806,-0.580307,-2.2565612999999995
2.8488464,-8.865845,0.2339325,-0.111816406,-0.25221252,-1.9998322
2.6429443,-8.106873,-0.23533629999999997,-0.5059662,-0.023178099999999997,-1.4427032
3.3085327000000007,-7.271301299999999,0.044784545999999995,-0.8883972,0.024765015,-0.7630615
3.4330292,-6.861892699999999,0.20280457,-1.0822753999999999,0.015167236,-0.19207764
3.1169891,-6.9839934999999995,-0.060562134000000004,-1.1110381999999999,0.10145569,0.26065063
2.5495758,-7.5490265,-0.3047638,-1.0332794,0.23994446,0.70700073
1.3668365,-8.406158,-0.9033203000000002,-0.69877625,0.29747009999999996,1.1938171
0.7515259,-9.100479,-1.2049866000000002,-0.17359924,0.24952698,1.5922393999999997
1.5392151,-9.821121,-0.30715942,0.11721802,0.22503662,1.9608153999999998
2.4226837000000003,-10.024628,0.73431396,0.10122681,0.13874817,2.3879852
2.6070251,-9.818741000000001,1.3927155,0.06288147,-0.02104187,2.7746735
2.5088654,-9.368622,2.276184,0.09590149,-0.13609314,3.1315459999999997
3.4545746,-9.943237,2.7765656,0.14810179999999998,-0.07324219,3.4788208
4.5247803,-11.231308,1.6058044,0.21734619,0.08547974,3.8388824
4.6588593000000005,-11.904083,-0.048583984000000004,0.33772278,0.41571045,4.135025
5.654846,-13.1371,-0.6064453000000001,0.2141571,1.1432953000000001,4.2692413
6.9620820000000005,-14.4826355,-0.53700256,-0.05429077,1.7238616999999998,3.879364
8.195099,-15.282303,-0.63038635,-0.27481079999999997,1.9145355,3.3222197999999996
8.930114999999999,-15.315826000000001,-0.632782,-0.48892212,2.0104218,2.9451141
9.528671000000001,-13.840988000000001,-0.23533629999999997,-0.7200928000000001,1.9124146,2.60849
10.203827,-11.700577000000001,-0.8099518,-0.9533844000000001,1.713211,2.2686767999999997
10.972366000000001,-9.210602,-1.1810455,-1.0684357,1.5512848,1.9821167000000002
10.570145,-6.799652,-0.9895171999999999,-0.99172974,1.3179931999999999,1.7893066000000002
9.519089,-6.064621,-0.9895171999999999,-0.7328644,0.9515380999999999,1.698761
8.815201,-5.6049347,-1.0469666,-0.40795898,0.57870483,1.6423035
8.374664,-5.281723,-0.9440155000000001,-0.100097656,0.2505951,1.5901031
8.123275999999999,-5.427765,-0.20420837,0.07141113,0.11531067,1.5176697000000001
7.7976529999999995,-5.9353333,0.6217804,0.07673645,0.33262634,1.3589478000000002
7.4121857,-6.4261475,1.4525757,-0.11820984,0.7672576999999999,0.9839629999999999
7.457687400000001,-6.914566000000001,1.7805786,-0.36535645,1.0974883999999998,0.41937256
7.8575134,-7.58255,1.6728363000000002,-0.4324646,1.1166534,-0.057861328
8.784073,-8.454041,0.9737396,-0.35682678,0.96965027,-0.23788452
9.928497,-8.631210000000001,0.2387085,-0.17787170000000002,0.79281616,-0.28369140000000004
11.111237,-8.324753,-0.34307859999999996,0.20349121,0.47216797,-0.5478821
12.205383,-8.561783,-0.67826843,0.8969879000000001,-0.03276062,-0.71939087
12.19342,-9.445236,-0.23773193,1.5723572000000001,-0.6506195,-0.65760803
11.247711,-10.386154,0.1477356,1.7577209999999999,-1.312149,-0.9249878
9.875824,-9.670288000000001,0.63375854,1.3901978000000002,-1.9086914000000001,-1.7985077
10.206223,-8.841904,1.4166565,0.7244109999999999,-2.2900543,-2.7625732000000003
10.747314,-10.005478,1.9649352999999998,0.05329895,-2.3912659,-3.4965363
9.85907,-10.201813000000001,1.0766907,-0.5038452,-2.1675568,-3.9268951000000003
10.790405,-9.493117999999999,-1.2433014,-0.81596375,-1.5518341,-4.0057373
13.728104,-10.106033,-3.2855529999999997,-0.76589966,-0.76246643,-3.9247742
15.174194,-12.229691,-4.135498,-0.49105835,-0.07749939,-3.8065337999999995
14.803101000000002,-14.678970000000001,-3.6255339999999996,-0.14485168,0.29000854,-3.6296997
13.541351,-16.13704,-2.2297057999999996,0.031982422,0.44340515,-3.3889465
10.991531,-15.708466,-0.5681305,0.087387085,0.42210388,-3.1481934
8.549438,-13.915207,1.2059784,0.17472839999999998,0.18988037,-2.9884033
6.7753296,-12.188995,2.0056305,0.23864746,-0.12330627400000001,-2.840332
5.611755400000001,-11.202575999999999,2.0439453000000003,0.15342712,-0.32571409999999995,-2.6272736
4.694778400000001,-10.520233000000001,0.8588104,0.06713867,-0.52171326,-2.4642944
4.089035,-9.756485000000001,-0.096466064,-0.044708252000000004,-0.6878966999999999,-2.3183594
3.7155457000000003,-8.82753,-0.30236816,-0.26202393,-0.7113341999999999,-2.0786743000000003
3.203186,-8.068572999999999,-0.31674194,-0.5389862,-0.61013794,-1.7303313999999999
2.4346466,-7.58255,-0.8817749,-0.7989196999999999,-0.46632385,-1.3052826000000002
2.2814178,-7.189895599999999,-0.7931824000000001,-0.9576415999999999,-0.31185913,-0.84935
2.1808624,-7.2952423,-0.65193176,-0.97361755,-0.18083191,-0.32949829999999997
1.8408813000000002,-7.9249268,-0.9033203000000002,-0.84365845,-0.092422485,0.32882690000000003
1.4985198999999998,-8.482773,-0.97753906,-0.46762085,-0.030639648,1.0745087
1.2160034,-8.86824,-0.6734772,0.13531494,-0.012527466000000001,1.6721343999999998
1.2088165000000002,-9.239334,-0.0030975342,0.5923156999999999,0.059921265,2.050293
1.3261261,-9.79718,0.7151642,0.5475769,0.20372010000000002,2.4316560000000003
1.2662811,-10.450806,1.2945556999999999,0.25357056,0.2548523,2.879074
1.0244598,-10.141952499999999,2.0894318,0.10229492,0.22929382,3.1954498
1.7762451000000001,-9.363831,2.908249,0.10122681,0.26657104,3.3818817
3.524002,-9.89296,2.1445007,0.0650177,0.39759827,3.580017
4.733078,-11.521011,-0.12998962,-0.10437012,0.59254456,3.7930756000000003
4.9796906,-12.344619999999999,-1.4970856000000001,-0.27481079999999997,0.86524963,3.9571227999999996
6.2318573,-13.1466675,-1.1858368000000001,-0.38986206,1.3946991000000002,4.0434113
8.149612,-14.801070999999999,-0.65193176,-0.3547058,2.0594177,3.7579192999999997
9.291641,-16.14421,-0.70700073,-0.1352539,2.2415771,3.1251526000000003
10.014694,-16.611083999999998,-0.8626251,-0.024475097999999997,2.3353271,2.6031647
10.189468,-15.141036999999999,-0.45321655,-0.19598389,2.207489,2.2324523999999997
9.981171,-12.066895,0.42306520000000003,-0.51875305,1.7792511000000002,1.9277953999999997
10.0961,-9.212997,1.3496246,-0.8031769,1.3211823,1.7147369
10.189468,-6.59375,2.0846405,-0.84259033,0.9494171,1.6167296999999998
9.590912,-5.815628,1.3544159,-0.71369934,0.6799010999999999,1.5187378
8.829559,-5.918579,-0.096466064,-0.59225464,0.5339508000000001,1.3674621999999999
8.221436,-6.02153,-0.9799346999999999,-0.51768494,0.40931702,1.2460175
7.898208599999999,-6.272918700000001,-1.1020355,-0.50064087,0.44873047,1.2630615
7.5366974,-6.35672,-0.077316284,-0.49212646,0.61065674,1.2268523999999998
7.5845795,-6.428543,0.916275,-0.54112244,0.76405334,0.9008789
7.785690299999999,-6.411789,1.1437225,-0.6508484,0.8684540000000001,0.44281006
8.046661,-6.936111500000001,1.1365356000000002,-0.71902466,0.9110565,0.051864624000000005
8.329178,-8.068572999999999,0.77500916,-0.6732178000000001,0.91000366,-0.18782043
8.930114999999999,-8.372635,0.78938293,-0.45057678,0.79067993,-0.49674988
10.460007000000001,-8.248138,0.7941741999999999,0.08206177,0.4828186,-0.8291168
11.434448,-8.528259,0.7079773,0.85757446,0.026885986,-0.8514862
11.5733185,-9.076538000000001,0.8157196,1.3230896,-0.580307,-0.96972656
10.778442,-9.057373,1.2610321000000002,1.3731537,-1.2109528,-1.4501648
10.622817999999999,-8.834717,2.0008545,1.185669,-1.7243958,-2.0861206
11.709778,-10.627975,2.7669982999999996,0.820282,-2.0184173999999997,-2.6613617
10.328323,-10.874573,3.193161,0.32174683,-1.9779358,-3.029953
9.787247,-9.869019,1.5770721,-0.0287323,-1.6679381999999998,-3.1311492999999997
11.465575999999999,-10.383759,-0.24491882,-0.07879639,-1.3057556000000001,-3.0981292999999996
12.947586,-12.229691,-1.0756989,0.06927489999999999,-0.8860321,-3.031021
12.9140625,-13.793106,-1.4803162,0.34411620000000004,-0.7060088999999999,-2.9926605
11.752884,-14.609528,-1.5114441,0.6700897,-0.8444976999999999,-2.8978577000000003
9.507126,-13.917603,-0.50109863,0.82881165,-0.95422363,-2.7732238999999996
7.445709,-12.179413,0.8707886,0.87887573,-1.0458220999999999,-2.64859
5.9996184999999995,-10.402924,1.699173,0.8991089,-1.1150665000000002,-2.5420532000000002
5.0299683,-9.320739999999999,1.8260651,0.9055023000000001,-1.1012268,-2.4600372000000004
4.405075,-8.94725,1.8835297,0.8501129000000001,-1.0554199,-2.3343353
4.2207184,-8.815567,1.1030273000000002,0.6455841,-0.8743286,-2.1425781
4.244659400000001,-8.662338,0.521225,0.38671875,-0.7273102,-1.9220734
4.215927,-8.312775,0.46855164,0.12786865,-0.6836395000000001,-1.6504363999999998
4.235092,-7.824356,0.5044708,-0.1352539,-0.6175995,-1.3170013
3.9070892,-7.498749,0.42066956,-0.38346863,-0.41412354,-0.99209595
3.5120392,-7.357498,-0.17070007,-0.62527466,-0.10519409,-0.71832275
3.2151642000000002,-7.3191833,-0.54418945,-0.8575134,0.22929382,-0.36891174
2.858429,-7.6759186,-0.7883911,-1.0151671999999998,0.46897888,0.09553528
2.6190033,-8.073364,-0.8314971999999999,-0.94911194,0.56166077,0.50779724
2.8344727,-8.430099499999999,-0.5178528,-0.6891937,0.5818939000000001,0.7528076
3.4976807,-9.2608795,-0.21618652,-0.54537964,0.55526733,1.1171265
3.5910492,-10.115616000000001,-0.08929443,-0.45909120000000003,0.46791077,1.6146088
3.1337585,-10.335875999999999,0.18125916,-0.18745422,0.3731079,1.9895782
3.1529083,-10.139557,0.91148376,0.16514587,0.2559204,2.2377777
4.7426605,-11.188217,1.6177673000000001,0.33984375,0.26338196,2.4380493
5.080246,-12.323074,1.0790863000000002,0.19711304,0.4316864,2.5722810000000003
4.270996,-11.863388,0.66967773,-0.11076355,0.727829,2.672409
5.283752400000001,-12.062103,1.2107544,-0.40583800000000003,1.1837616000000002,2.752304
6.784911999999999,-13.079636,1.1916046,-0.6071625,1.6439667000000002,2.6649475
7.771316499999999,-13.584807999999999,0.119003296,-0.54325867,1.6737976000000003,2.4135590000000002
8.365082000000001,-13.340607,-1.2193604,-0.35577393,1.5683288999999998,2.2452392999999997
8.336349499999999,-12.007033999999999,-1.9040985000000001,-0.33659363,1.4862976,2.1536255
7.9077910000000005,-9.406937,-1.7269287,-0.51342773,1.4287872,2.0779877
7.4098053,-7.2042694,-1.2073822,-0.8319397,1.3744507,2.0300598
7.1727753,-5.5402985000000005,-0.19703674,-1.125946,1.2902985,1.9703979999999999
6.715484599999999,-4.819641000000001,0.119003296,-1.2037201000000002,1.1635284,1.8510895
6.44014,-4.6376800000000005,-0.57292175,-1.0726928999999998,0.9771118000000001,1.7030182
6.44014,-4.709503,-1.2576599,-0.81703186,0.73742676,1.6039581
6.507187,-5.1835629999999995,-1.6407318,-0.5048981,0.5201110999999999,1.56987
6.617325,-5.5283203,-1.2935791,-0.27053833,0.3954773,1.5315094
7.122497599999999,-5.789291400000001,-0.06774902,-0.15762329,0.35606384,1.3781128
7.733017,-6.3782654,0.9928894,-0.1267395,0.38375854,1.0180511
8.209457,-7.2545470000000005,1.4980621,-0.09265137,0.42210388,0.5514679
8.690704,-8.159546,1.6010132,-0.07347107,0.42636108,0.16477966
9.557404,-8.916122,1.1125946000000002,-0.084121704,0.3997345,-0.17503357
10.483948,-9.107650999999999,0.521225,3.0517577999999997e-05,0.31025696,-0.5851593
11.628387,-8.961609,0.21237183,0.33558655,0.14939879999999997,-0.79182434
12.40889,-8.935272,0.14533997,0.7702179,-0.12330627400000001,-0.77371216
12.202988000000001,-9.050201,-0.027038574,0.93852234,-0.54089355,-1.0336456
11.211791999999999,-8.41333,-0.0007019042999999999,0.7723541,-0.9712677,-1.6408386000000001
11.444030999999999,-8.865845,0.40631104,0.4921875,-1.2727356,-2.3002472000000003
11.530211999999999,-10.857819000000001,0.9904938,0.27166748,-1.3984375,-2.8286132999999998
10.251709,-10.951187,0.9330291999999999,0.07034302,-1.3654022,-3.0267487
10.661118,-10.158707000000001,-0.2712555,-0.08093262,-1.1118774,-2.8882751
12.284393,-10.814728,-1.4707489,-0.02659607,-0.7049408,-2.7402039
12.971527,-12.368561,-1.6598816000000003,0.27061462,-0.30014038,-2.7625732000000003
12.643524000000001,-13.802689,-1.0158539,0.6700897,-0.15527344,-2.8009186
11.051376,-14.518555,-0.34786987,0.88526917,-0.19255066,-2.7210236
8.326782000000001,-13.371735000000001,0.2339325,0.9726104999999999,-0.34275818,-2.6081084999999997
6.590988,-10.843445,1.2993469,1.0226898000000002,-0.69854736,-2.4493866
6.042709400000001,-8.731766,2.331253,0.96302795,-1.089508,-2.1670837000000005
5.3675385,-7.7549285999999995,2.5706634999999998,0.71055603,-1.0873718,-1.8794707999999998
4.3308563,-7.5370636,1.4094848999999998,0.46875,-0.93930054,-1.7484283
3.682022,-7.2377777000000005,0.38955688,0.25357056,-0.76246643,-1.6770630000000002
3.0403748,-7.122864,-0.09169006,-0.051101685,-0.5483551,-1.4661407
2.3005676,-7.1492004,-0.51545715,-0.32913208,-0.3565979,-1.1337738000000002
2.1473389,-6.904983500000001,-1.1810455,-0.56988525,-0.17550659,-0.79714966
2.808136,-6.416580000000001,-1.0230255,-0.8319397,0.07589722,-0.530838
3.1624908,-6.5674133,-0.716568,-1.0790863000000002,0.32836914,-0.22937012
2.7674408,-7.4748077,-1.166687,-1.2143707000000001,0.53608704,0.2531891
2.4370422,-8.133208999999999,-1.1235808999999999,-1.1206207000000001,0.63623047,0.8039398
2.4705658,-8.664734,-0.795578,-0.7893219,0.59147644,1.3141937
3.052353,-9.421294999999999,-0.661499,-0.49317932,0.42103577,1.9640045
3.5287933,-10.683044,-0.4699707,-0.22686768,0.20478821,2.5999756
3.0810852000000004,-11.365387,0.042388916,0.11508179,0.092941284,2.9333953999999998
2.56633,-10.996674,0.8636017,0.47193909999999994,0.07696533,3.02182
3.3109282999999996,-11.396514999999999,1.7494506999999997,0.6391906999999999,0.06629944,3.0601654
3.5695038,-12.437988,1.5291901,0.44424438,0.14300537,3.067627
3.5407714999999995,-11.731705,1.2825928,-0.10862732,0.53822327,2.8843994
5.448944,-11.501862,1.3927155,-0.8106384,1.3062744,2.5488433999999995
8.116089,-12.924011,0.89712524,-1.1195678999999998,1.9805907999999999,2.1344604
9.854279,-14.465881,-0.30955505,-0.9842681999999999,2.333191,1.7935637999999998
10.752106,-14.781906,-1.8107147000000001,-0.72753906,2.3214722,1.5986328
11.333893,-13.012604,-2.775589,-0.52301025,1.937973,1.5187378
10.761688000000001,-9.823516999999999,-2.8258667,-0.48466492,1.316925,1.4175262
9.243758999999999,-6.861892699999999,-0.8338928,-0.5869293000000001,0.70440674,1.2470856000000001
7.9006042,-5.250595,0.9282379000000001,-0.661499,0.31451416,1.110733
6.9094086,-4.8795013,1.1078033,-0.6263428000000001,0.18774414,1.0542755
6.081024,-4.8555603,0.46138,-0.51768494,0.16537476,1.0350952
5.9206085,-4.924988,-0.43405150000000003,-0.42181396,0.21543884,1.0649261
6.2964934999999995,-5.061447,-1.0948486000000002,-0.38452148,0.36032104,1.1139374
6.4066315000000005,-5.219467,-0.79078674,-0.36322020000000005,0.51690674,1.1288452
6.318039,-5.5019836,0.08547974,-0.31529236,0.5712433000000001,1.030838
6.488037,-5.906601,0.66967773,-0.28120422,0.50839233,0.81140137
6.753784,-6.5674133,0.8061371,-0.27799988,0.38587952,0.5269623000000001
7.321213,-7.2832794000000005,0.5715026999999999,-0.2524414,0.26763916,0.26278687
8.049057000000001,-7.704650999999999,0.40391540000000004,-0.14910889,0.19413757,-0.06958008
8.973206,-7.917739999999999,0.40631104,0.12786865,0.050323485999999994,-0.47863770000000005
10.005111999999999,-8.327148,0.25787354,0.6253357,-0.20959473,-0.5627899000000001
10.752106,-8.829925999999999,0.037597656,1.059967,-0.5515441999999999,-0.5532074
10.814346,-8.880203,0.25787354,1.1302795,-0.89775085,-1.0549469
10.776047,-8.346297999999999,0.8659973,0.9012450999999999,-1.2066803,-1.8453674
12.018631,-9.885773,1.4190521,0.517746,-1.4048308999999999,-2.5090332
11.714569000000001,-11.738876,1.7374878,0.09378052,-1.4431763000000002,-2.984146
10.467194000000001,-10.637558,1.0647125,-0.25883484,-1.2631378,-3.2035828
12.145522999999999,-9.842682,-0.38616943,-0.37493896,-0.88923645,-3.2632446
14.20694,-11.377365,-1.5353851,-0.20982361,-0.39389038,-3.2632446
14.163848999999999,-13.244843,-2.0405578999999996,0.110824585,0.06524658,-3.2099762000000003
13.136733999999999,-14.022948999999999,-1.6958008000000002,0.3941803,0.26124573,-3.0555115
11.214188,-13.850570999999999,-0.64953613,0.55929565,0.18348694,-2.8509827000000003
9.181503,-12.56488,0.78219604,0.7222748000000001,-0.11265564,-2.7093048
7.5606384,-10.812332000000001,2.1037903,0.8586273000000001,-0.5206604,-2.6240845
6.361145,-9.541,2.5443267999999994,0.88101196,-0.8679351999999999,-2.5484467
5.283752400000001,-8.944855,2.0104218,0.78619385,-1.0596771,-2.456833
4.546341,-8.427703999999999,0.9785155999999999,0.61361694,-1.0724639999999999,-2.3172912999999995
4.350006,-7.8866119999999995,0.6002350000000001,0.36860657,-0.9254608,-2.0882568
4.239868,-7.431717,0.43983459999999996,0.085250854,-0.6878966999999999,-1.7761383000000002
3.878357,-7.070190400000001,0.102249146,-0.26202393,-0.4226532,-1.3979645
3.524002,-6.936111500000001,-0.24731445,-0.581604,-0.14781189,-0.9580078000000002
3.1122131,-7.031875599999999,-0.41011047,-0.8095703000000001,0.05885315,-0.48716736
2.6022491000000003,-7.1563873,-0.5609436,-0.9065094000000001,0.22503662,-0.035491943
2.1377716,-7.223419,-0.6399536,-0.8841399999999999,0.36351013,0.42683409999999994
1.8001862000000002,-7.666351299999999,-0.8937378,-0.7850647,0.48495483,0.9221802
1.8504638999999998,-8.365447999999999,-0.8051605,-0.52301025,0.5339508000000001,1.380249
2.0515746999999998,-9.050201,-0.34786987,-0.23432922,0.48602295,1.8596191000000002
2.4825287,-9.63678,0.24589539,-0.103302,0.30918884,2.4210052
2.7650452000000003,-9.959991,0.87557983,-0.0031585693,0.118499756,2.8354034
2.796173,-10.022247,1.2323151,0.14596558,0.03541565,3.0356598
3.3707733,-10.225754,1.7135468,0.28019714,0.011978148999999999,3.1975860000000003
4.0986176,-11.008652,1.6058044,0.32814026,0.026885986,3.4266205000000003
4.0028534,-11.152298,0.6720581,0.16407776,0.13554382,3.6652373999999996
4.886307,-11.037384,0.30336,-0.20770264,0.43914795,3.752594
6.868713400000001,-12.066895,0.26504517,-0.54112244,0.91851807,3.4979858
8.460846,-13.582413,-0.19703674,-0.6977234,1.4074707,3.0335388
9.361069,-14.595169,-0.84106445,-0.6881255999999999,1.8229218,2.5712127999999996
10.062576,-14.595169,-1.49469,-0.6891937,2.0136108,2.1877136000000004
10.232559,-12.667831,-1.8107147000000001,-0.7307434,1.9060211,1.8777313000000002
10.6707,-9.825911999999999,-1.0421905999999999,-0.71476746,1.5342407,1.6103363000000002
10.747314,-7.742965700000001,0.14294434,-0.59439087,1.0655212,1.3450928
10.184677,-6.581772,0.9354248,-0.39411926,0.6191864,1.1341705
9.499939,-6.284897,0.8348694,-0.20236206,0.247406,1.0414886
8.934906,-6.191513,0.47094727,-0.0010375977,0.0023956299,1.060669
8.3172,-6.002380400000001,0.6289673000000001,0.15130615,-0.05406189,1.140564
8.029892,-5.8730927,1.0431671,0.16940308,0.0013275146,1.2236481000000001
7.6803436000000005,-5.832382,1.3520203000000002,0.09590149,0.0471344,1.1661224
7.0315094,-5.870697,1.3687744,-0.07347107,0.07801819,0.9243164
6.535919,-6.02153,1.4118805,-0.2801361,0.118499756,0.5653229000000001
6.562256,-6.3471375,1.189209,-0.45483398,0.17390442,0.14027405
7.1296843999999995,-6.804428,0.3536377,-0.52726746,0.25805664,-0.26132202
8.448883,-6.902603,-0.4053192,-0.41862488,0.25912476,-0.7215271
10.07933,-7.0773773,-1.0517578,0.037322997999999996,0.057785034000000006,-0.9665375
11.410507,-7.6711273,-1.250473,0.7276001,-0.34169006,-0.880249
12.356216,-8.386992999999999,-0.9512023999999999,1.1057739,-0.7571411,-1.1476288000000001
12.4040985,-8.705428999999999,-0.22097778,1.1153563999999998,-1.0511627000000001,-1.7921143
12.607605,-9.2561035,0.6217804,0.9151001,-1.3164062,-2.4728088
12.854218,-11.494675,1.505249,0.34304809999999997,-1.4943084999999998,-2.951126
10.864639,-11.085266,2.0487366000000002,-0.31529236,-1.4005584999999998,-3.2770843999999997
11.271652,-9.339889999999999,0.6529083000000001,-0.71369934,-1.1150665000000002,-3.4336852999999996
12.926041,-9.588898,-1.190628,-0.7850647,-0.66978455,-3.3729706
13.632323999999999,-11.7341,-2.313507,-0.63487244,-0.15206909,-3.1971893
13.0242,-13.63031,-3.4100493999999997,-0.29185486,0.22503662,-3.0235596
12.23172,-14.678970000000001,-3.103592,0.17793274,0.28042603,-2.8456572999999996
10.819138,-14.643051000000002,-1.2121735,0.5965729000000001,0.07908630000000001,-2.6400604
8.566193,-13.400467,0.7941741999999999,0.93533325,-0.25646973,-2.4557648
6.586197,-11.643112,2.0008545,1.1899261,-0.6878966999999999,-2.3034362999999995
5.398666400000001,-10.110825,2.7262877999999997,1.2943268,-1.0980225000000001,-2.1425781
4.5535125999999995,-9.086105,2.9705048,1.2527771,-1.3707274999999999,-1.9732056
3.8687744,-8.463608,2.5251770000000002,1.0056458000000001,-1.4580841,-1.805954
3.5718994,-7.965622,1.8715668,0.58273315,-1.344101,-1.647232
3.4210663,-7.517898599999999,1.3256836,0.06820679,-1.0437011999999999,-1.438446
3.1265717,-7.2641144,0.6098175,-0.36747742,-0.64741516,-1.1454926
2.9924927,-7.106109599999999,0.15969849,-0.6806793000000001,-0.2554016,-0.8056793000000001
2.9589844,-7.2545470000000005,-0.52264404,-0.88946533,0.081222534,-0.51486206
2.9781342,-7.4149475,-1.171463,-0.9256897,0.36990356,-0.31459045
2.8751830000000003,-7.6759186,-1.4755402,-0.8095703000000001,0.51478577,-0.035491943
2.7147675,-8.042236,-1.0541534,-0.48892212,0.51371765,0.44281006
2.7650452000000003,-8.485168,-0.24491882,0.06074524,0.44447327,1.0404205
3.1074219,-8.971191000000001,0.33688354,0.48472595,0.31770325,1.7467041
3.5479584,-9.3806,1.105423,0.6210785,0.17390442,2.369873
3.2941589999999996,-9.737335,1.5890503,0.68074036,0.118499756,2.6841277999999997
2.5687256,-9.904922500000001,2.0128174,0.70843506,0.1174469,2.7373962000000005
2.779419,-10.654312,2.5131989,0.6040344,0.13981628,2.699051
3.3875427000000005,-11.9687195,1.620163,0.24929810000000002,0.28468323,2.718216
4.000458,-11.923233,0.063934326,-0.31529236,0.6308899,2.6905212000000005
5.942154,-11.7724,-0.4412384,-0.74671936,1.0985413,2.6319275
8.23819,-12.785156,-0.92007446,-0.8926544,1.5619353999999999,2.6159515
9.686691,-13.479462,-1.7772063999999999,-0.91822815,1.9060211,2.7395172000000003
9.732178,-13.417221,-2.7420654,-0.8138274999999999,2.0700684,2.893982
9.665131,-12.612762,-3.1802063,-0.5986481,1.904953,3.0250092
8.963638000000001,-10.994292999999999,-2.0884552,-0.38772583,1.4170684999999998,3.0495148
7.7042847000000005,-9.031036,-0.42448425,-0.25030518,0.8407593000000001,2.9195557
6.4305725,-8.013504,0.16448975,-0.0287323,0.29853820000000003,2.6937103
5.848785400000001,-7.259338400000001,0.63375854,0.16195679,-0.045547485,2.4977112
6.1217194,-7.0270996,0.82528687,0.15875244,-0.057266235,2.2633514
6.646042,-6.761337299999999,0.5667267,-0.01914978,0.12277222,1.9597473
7.369095,-6.4093933,0.09985351599999999,-0.3025055,0.44979858,1.6423035
8.209457,-5.9880066,0.19322205,-0.5954437,0.84288025,1.31633
8.575775,-5.746200599999999,0.0016937256,-0.72114563,1.1369018999999998,0.9264374
9.432891999999999,-6.0981445,-0.77882385,-0.56030273,1.1486206,0.5237732
10.541412,-6.792464999999999,-1.3749847,-0.2609558,0.805603,0.19886779999999998
11.444030999999999,-7.527481,-1.6958008000000002,-0.021270752,0.26870728,-0.07916260000000001
11.831894,-7.630432000000001,-1.6359406,0.12466431,-0.14567566,-0.4466858
12.001877,-7.2641144,-0.85783386,0.24824524,-0.29055786,-0.9239197
12.181442,-7.4748077,0.29377747,0.57847595,-0.44076538,-1.1966248
12.064133,-8.224197,0.66249084,1.0258789000000001,-0.7613983,-1.2072753999999999
11.841461,-8.564178,0.30096436,1.1110992,-1.1566162,-1.5556183000000001
11.709778,-7.99675,0.17646789999999998,0.7744751,-1.454895,-2.315155
12.044967999999999,-8.003921499999999,0.3536377,0.2450409,-1.5752716,-3.078949
12.076096000000001,-9.866622999999999,0.8061371,-0.33872986,-1.4591522,-3.6712341
10.823929,-10.237717,0.7558594,-0.89904785,-1.0500946000000002,-3.9950714
11.71936,-9.79718,-0.9152832000000001,-1.2079773,-0.39175415,-4.038757299999999
14.056107,-11.030197,-2.5026398,-1.1461945,0.23568726,-3.9194489000000003
15.085617000000001,-13.577637,-2.9503632,-0.81489563,0.6170502,-3.7202453999999996
14.721695,-15.488204999999999,-2.3374481,-0.3344574,0.76086426,-3.4762877999999997
13.237289,-16.426727,-1.3462524,0.17260742,0.6703186,-3.2472687000000002
10.835907,-15.981415,0.15492249,0.5752716,0.39015198,-3.0736237
8.250167999999999,-14.238434,1.6680602999999998,0.8916626,-0.05619812,-2.8658905
6.3204346,-12.279967999999998,2.5850372000000004,1.1185608,-0.51745605,-2.614502
5.1544647,-10.936829,2.9465637000000005,1.1973877,-0.89242554,-2.360962
4.503235,-10.007874000000001,2.8914948,1.0951233,-1.0788574,-2.1020966
4.072280999999999,-9.234542999999999,2.221115,0.7957916,-1.0799103,-1.852829
3.4689483999999995,-8.676697,1.5722809,0.36648559999999997,-0.9243927,-1.6291198999999998
2.8249054,-8.166733,0.9497985999999999,-0.05429077,-0.66659546,-1.4139403999999998
2.377182,-7.630432000000001,0.35603333,-0.3855896,-0.36087036,-1.1327056999999998
2.0779113999999996,-7.2760925,-0.28800964,-0.6071625,-0.07643127400000001,-0.78330994
2.0659332,-7.2042694,-1.0110626,-0.6785431,0.15686035,-0.41259766
2.298172,-7.3239746,-1.3797607,-0.56669617,0.25698853,0.056121826
2.499298,-7.692688,-1.2361145,-0.23326111,0.20372010000000002,0.66545105
2.286209,-7.965622,-0.6279906999999999,0.32814026,0.083343506,1.2662659
1.9606018,-8.274475,-0.027038574,0.8117675999999999,0.013046265,1.7307129
2.214386,-8.992737,0.60502625,0.8447876,0.038604736,2.2782592999999998
2.4394379,-9.924072,1.1987915,0.6871338,-0.0061340330000000005,2.7555084
2.2167816000000005,-10.242508,1.7518463,0.6264038000000001,-0.05406189,2.9099730999999998
2.5280151,-10.127578999999999,2.35997,0.58273315,-0.090286255,2.9760132
4.02919,-10.857819000000001,1.8643798999999999,0.38992309999999997,-0.09881592,3.210373
4.5415497,-11.765213000000001,-0.1563263,0.019210815,0.042877197,3.4404602
4.6636505,-11.264832,-1.250473,-0.42713928,0.41996765,3.5118407999999994
6.7585754,-11.808319000000001,-1.1355591,-0.7488556,0.96965027,3.5054474
8.61647,-13.256804999999998,-1.4180756,-1.0140991,1.6428986,3.4777527000000004
8.989975,-14.4826355,-2.313507,-1.090805,2.2160034,3.3627013999999997
9.538239,-14.729248000000002,-2.6846007999999997,-0.86602783,2.3928375,3.228485
10.35466,-13.824233999999999,-2.234497,-0.56988525,2.1062927000000005,3.1208953999999998
10.117645,-11.6718445,-0.87698364,-0.42395020000000005,1.4618073,2.9195557
9.277283,-9.533828999999999,-0.10125732400000001,-0.37174988,0.7107849,2.5605621
8.544647,-8.173919999999999,0.90908813,-0.29397583,0.12277222,2.1515044999999997
8.247772,-7.321578999999999,2.0750732,-0.23965454,-0.055130005,1.8010254
8.187911999999999,-6.9959717,1.9385986000000002,-0.21302795,-0.001876831,1.5432281
8.503952,-6.6248627,0.9641571,-0.20663452,0.15046692,1.4058075
8.918152000000001,-6.234619,0.26504517,-0.20875549999999998,0.36671448,1.3536072000000001
9.183899,-5.798874,0.3536377,-0.17787170000000002,0.5478058000000001,1.2119293
9.456847999999999,-5.870697,0.38955688,-0.13951111,0.60214233,0.86997986
9.40657,-6.2753143,0.51882935,-0.15122986,0.5797576999999999,0.40553284
9.317978,-7.0342712,0.5715026999999999,-0.21195984,0.50839233,-0.014190673999999999
9.454452499999999,-7.695083599999999,0.40631104,-0.24179077,0.38694763,-0.36572266
10.112853999999999,-7.625641000000001,0.34405518,-0.17787170000000002,0.27189636,-0.7705231
11.2213745,-7.386230499999999,0.2674408,0.10122681,0.15579224,-1.0474854
12.2413025,-7.735778999999999,-0.084503174,0.60084534,0.0045166016,-1.0517578
12.629166,-8.707825,-0.39335632,0.93214417,-0.21812439,-1.2509613000000002
12.34903,-9.186661,-0.11323547,0.9438629000000001,-0.51638794,-1.8027648999999997
12.277206,-9.303986,0.49728394,0.7723541,-0.8998870999999999,-2.4813384999999997
12.485503999999999,-10.912888,1.1700591999999999,0.45382690000000003,-1.3664703,-3.0832062000000002
11.032227,-10.754868,1.8045197,0.07778931,-1.7702026000000002,-3.5348816
10.677887,-8.805984500000001,0.9042969000000001,-0.2556305,-1.8170776000000002,-3.684021
11.906113000000001,-8.422913000000001,-0.75009155,-0.38026428,-1.5465088,-3.5860138
13.170242000000002,-10.187439,-1.8226929,-0.32380676,-1.1193389999999999,-3.4198303
13.424026500000002,-12.550522,-2.4643402,-0.15655518,-0.6261139,-3.2824097
12.985901,-14.286316000000001,-2.1530914,0.13319397,-0.29588318,-3.1822814999999998
11.5733185,-15.131470000000002,-1.0804901000000002,0.43572998,-0.15739441,-3.07576
9.50473,-14.489822,0.45658875,0.6860656999999999,-0.20852661,-2.9234161
7.835967999999999,-12.782761,1.7183380000000001,0.914032,-0.3757782,-2.7508545
6.7657623,-11.245682,2.2235107000000003,1.0876617,-0.5973510999999999,-2.58786
6.047500599999999,-10.127578999999999,2.5946045,1.1569061,-0.81466675,-2.425949
5.35318,-9.454819,2.3815307999999997,1.0791473,-1.0309143,-2.1969147
4.6516724,-8.956818,1.7805786,0.7957916,-1.136383,-1.8954468
4.1082,-8.418121000000001,1.3520203000000002,0.37287903,-1.0756531,-1.5843811
3.7634277000000003,-7.821975699999999,1.110199,-0.0756073,-0.8583374,-1.2584076000000002
3.4330292,-7.4053802,0.65530396,-0.4367218,-0.5717926,-0.94096375
2.796173,-7.163558999999999,0.087875366,-0.7339325,-0.2266388,-0.6139220999999999
2.1497345,-7.1300507,-0.8219146999999999,-0.93740845,0.1174469,-0.23895264
2.008484,-7.2928467,-1.4372253000000001,-0.97468567,0.30386353,0.2265625
2.1210022,-7.764511,-1.4420166,-0.708374,0.41358948,0.7272339
2.5375977,-8.463608,-0.8626251,-0.076660156,0.5755005,1.124588
2.8967285,-9.248917,-0.24971008,0.33026123,0.727829,1.4995575
2.9829254,-9.93605,0.27462770000000003,0.23332214,0.74168396,1.8841095
2.7818146,-10.302368,0.98091125,0.00642395,0.631958,2.065216
2.6836395,-10.110825,1.9290161,-0.1586914,0.45832825,2.0790558
3.6389312999999994,-9.979141,3.138092,-0.3270111,0.29640198,2.2388458
4.5966187000000005,-10.735717999999999,1.8236694,-0.5102234,0.34646606,2.605301
4.4864807,-10.654312,-0.80036926,-0.7168884,0.711853,2.9365997000000004
5.6356964000000005,-10.817108000000001,-1.7939606,-0.9246216,1.2924194,3.097458
7.675552400000001,-12.241669,-1.918457,-1.0481873,1.8772582999999998,3.1123657000000002
8.324387,-13.757202,-2.217743,-1.1195678999999998,2.2447662,3.097458
8.082564999999999,-14.259979000000001,-2.1602783,-1.0588378999999999,2.3236084,3.116623
8.209457,-13.311874,-1.5210266000000001,-0.8553772,1.9827118000000001,3.1283417
8.099335,-11.068512,-0.55137634,-0.6029053000000001,1.2934875,3.0772095
7.795273,-8.834717,0.2842102,-0.46975708,0.6511383000000001,2.8854675
7.3068542,-7.618469,0.46617126,-0.46762085,0.21118164,2.6010437
6.5670470000000005,-7.106109599999999,0.9497985999999999,-0.5304718,0.048202515,2.353897
6.622101,-6.957657000000001,1.1796417,-0.5560303000000001,0.040740967,2.2164764
6.8639220000000005,-6.761337299999999,1.1197815,-0.54751587,0.11210632,2.131256
7.5702057,-6.452483999999999,0.5116577,-0.52301025,0.20799255,2.018341
8.192703,-6.260956,0.047180176,-0.44418335,0.30918884,1.8500214
8.501555999999999,-6.5410767,-0.055770874000000005,-0.3110199,0.44235230000000003,1.5730591
8.561417,-7.106109599999999,0.2387085,-0.22154236,0.5744324000000001,1.126709
8.800827,-7.6855009999999995,0.49728394,-0.21408081,0.645813,0.61006165
9.452057,-8.090117999999999,0.67445374,-0.21514893,0.7054596,0.1285553
10.234955000000001,-8.303207,0.96894836,-0.16615295,0.7981415,-0.29754640000000004
11.2213745,-8.298416,1.3041382,0.00642395,0.84288025,-0.68530273
12.588455,-8.298416,1.0886536,0.41015625,0.59680176,-0.9239197
13.462341,-8.600082,0.55714417,0.9566344999999999,-0.0008087158,-0.9345703000000002
13.433608999999999,-8.750916,0.43743896,1.2644958,-0.8594055,-1.0634766000000002
12.674652,-8.260100999999999,0.8085326999999999,1.2911377,-1.6647491,-1.4895782
11.800766000000001,-7.9320984,1.3041382,1.1174927,-2.1973877,-2.0030365000000003
11.64035,-9.351868,1.5674896,0.83839417,-2.5116272,-2.5228882
10.737732000000001,-10.031815,1.3639832,0.49325562,-2.7065735,-3.1364746
10.560562,-9.344681,-0.16590881,-0.010620117,-2.5851439999999997,-3.5178375
11.812729,-9.351868,-1.4468079,-0.38026428,-2.032257,-3.680832
13.151093,-11.104416,-2.3350525,-0.46655273,-1.3515625,-3.733017
13.804718,-12.916824,-2.5170135,-0.31422424,-0.71347046,-3.7276917000000003
14.357773000000002,-14.04689,-2.021408,0.0042877196999999995,-0.277771,-3.6595154
13.139129999999998,-14.695724499999999,-1.5784912,0.43145752,-0.22877502,-3.5306243999999998
11.092087,-13.709304999999999,-0.24971008,0.7712859999999999,-0.3949585,-3.2877502
9.124054,-12.162659,1.2706146,1.0493164,-0.6463623000000001,-2.9884033
7.6037292,-10.867401,2.3623657000000002,1.2431946000000003,-1.0170746,-2.6677551
6.3874817,-10.084488,2.6975555,1.1973877,-1.2940368999999998,-2.3716125
5.3124847,-9.459610000000001,2.6927642999999994,0.9459839,-1.3355865,-2.139389
4.1464996,-9.050201,1.9457855,0.5443878000000001,-1.1789856,-1.946579
3.4928894,-8.576141,1.3592072,0.033050537000000005,-0.8860321,-1.7281952
3.1050262,-8.070969,0.9785155999999999,-0.48040770000000005,-0.5110626,-1.440567
2.863205,-7.7549285999999995,0.0064697266000000005,-0.89797974,-0.15846252,-1.1039581
2.9182740000000003,-7.3742523,-0.6064453000000001,-1.1515198,0.15153503,-0.8291168
3.0786896,-7.2808839999999995,-1.0517578,-1.2516479999999999,0.44979858,-0.5809021
3.0355988,-7.5442350000000005,-1.3893433000000002,-1.2186278999999998,0.585083,-0.17610168
3.0044708,-8.085327000000001,-1.3199158000000002,-0.9065094000000001,0.5541991999999999,0.42364502
3.0786896,-8.798798,-0.8123474,-0.27693176,0.5478058000000001,1.0148621
3.4138794000000003,-9.282425,0.15013123,0.21627808,0.6170502,1.6476288000000001
3.5718994,-9.727753,0.98091125,0.36116028,0.6031951999999999,2.303833
3.0164337000000003,-10.297577,1.4525757,0.48153687,0.5797576999999999,2.6436462000000005
2.2311401,-10.412491000000001,2.264206,0.6360016,0.5584564000000001,2.6873322
2.8057556,-10.718948,3.2649841,0.6732788000000001,0.47109985,2.7427216
3.7083587999999996,-11.6718445,2.5898132,0.46342468,0.3496704,3.0196838
3.3396605999999998,-10.896118,0.7726288,0.08206177,0.31558228,3.337143
4.7426605,-10.153915,0.43983459999999996,-0.19064331,0.43914795,3.5150300000000003
7.230239999999999,-11.188217,0.24110413,-0.26202393,0.81092834,3.5086517
8.448883,-12.528976,-0.8147278,-0.34298706,1.3435516,3.3520508
8.290863,-13.642273000000001,-2.3278656000000004,-0.3493805,1.7739258000000002,3.1539154
8.609299,-14.013382,-2.9743042,-0.28652954,1.8378448,3.0452576000000002
9.04744,-12.655869000000001,-2.0645142,-0.1309967,1.4500885000000001,3.0186157000000002
9.246155,-10.079697,-0.38137817,-0.04257202,0.9270476999999999,2.8183594
9.238968,-8.181107,-0.16351318,-0.0287323,0.49560547,2.5264740000000003
8.819977,-6.988785000000001,0.26983643,-0.0042266846,0.21971129999999997,2.2377777
8.398605,-6.579376,0.19322205,3.0517577999999997e-05,0.10145569,1.9469604
8.068207000000001,-6.3471375,0.13337708,-0.10862732,0.1174469,1.6881104
8.733794999999999,-6.095749,-0.31913757,-0.31954956,0.28788757,1.4398956
9.013916,-5.5881805,-0.6471405,-0.46868896,0.49774170000000006,1.1640015
9.155167,-5.420578,-0.5609436,-0.47294617,0.6873627,0.87957764
9.516693,-5.576202400000001,-0.61361694,-0.39091492,0.7523346,0.58662415
9.708236999999999,-6.057449299999999,-0.85783386,-0.2598877,0.63623047,0.25746155
10.074539,-6.7038727,-1.1164093000000002,-0.09265137,0.41571045,-0.1729126
10.539017,-7.2401732999999995,-0.637558,0.05116272,0.247406,-0.6501465
11.039413,-7.7238007,0.107040405,0.13105774,0.22503662,-1.0528107
11.441635,-8.209824000000001,0.39672852,0.22586060000000002,0.18667603,-1.3862457000000001
11.8941345,-8.779648,0.42546082,0.48365784,-0.015716553,-1.4086151000000002
12.423264,-9.0047,0.5164489999999999,0.83839417,-0.49082947,-1.1561431999999998
12.394531,-8.832321,0.62657166,1.0993805,-1.2386475000000001,-1.1636046999999998
11.451217999999999,-8.559387,0.6241760000000001,1.1835327,-2.0216064,-1.5076903999999998
11.037018,-9.466782,0.5379944000000001,0.8447876,-2.5169525,-1.9114227
10.09848,-11.011047,0.61221313,0.15556335,-2.5393372000000003,-2.3929138
8.082564999999999,-10.481933999999999,0.5164489999999999,-0.5443115,-2.1057740000000003,-2.8445892
8.642807000000001,-9.93605,-0.39335632,-1.0055847,-1.3931122,-3.0906677000000005
10.948425,-11.068512,-1.2169647,-1.1355438,-0.58351135,-3.1993256000000003
12.277206,-12.931198,-2.5289764,-0.96936035,0.15046692,-3.3111725
13.385727,-14.236038,-3.1682281000000003,-0.54644775,0.58403015,-3.4272919
13.591629000000001,-14.8585205,-2.2153473,0.05329895,0.5978699000000001,-3.4592437999999994
12.009064,-14.257584,-0.2928009,0.550766,0.35925293,-3.3250275
9.85907,-12.545731,1.5196075,0.8724823,-0.0061340330000000005,-3.0640411
8.211853,-10.70459,2.8052979,1.1132355,-0.5387573,-2.7188873
7.1584015,-9.722961,3.5211639999999997,1.2293396,-1.0490264999999999,-2.3588257
5.9996184999999995,-9.2608795,3.8108672999999995,1.2644958,-1.4144135,-2.090393
4.6325226,-8.983153999999999,3.0303497000000004,1.1260223,-1.5156097,-1.8773346000000002
3.4569702000000007,-8.650360000000001,1.7997284,0.78300476,-1.4165344,-1.6216736
2.4226837000000003,-8.152374,1.2346953999999999,0.3110962,-1.1832428,-1.325531
1.7666626,-7.5490265,0.5619354,-0.2364502,-0.8444976999999999,-0.9665375
1.7618713,-6.8020325,0.31054688,-0.73713684,-0.4269104,-0.5809021
1.7977904999999998,-6.3160095,-0.15872192,-1.1003876,0.027954102,-0.23895264
1.5583649,-6.3950195,-0.9823303,-1.3049164,0.43807983,0.110458374
1.5918883999999998,-6.907379,-1.5042572,-1.2399292,0.6308899,0.56851196
1.7523041000000001,-7.742965700000001,-1.7173462,-0.7616272,0.62023926,1.0958252
2.0683289,-8.537842,-1.250473,-0.08305359,0.6010741999999999,1.6316528000000001
2.693222,-9.258484,-0.2712555,0.26634216,0.5808258000000001,2.3325958
3.1098175,-10.089279,0.56433105,0.40057373,0.55952454,2.8087616
2.9254607999999998,-10.68544,1.5291901,0.564621,0.6245116999999999,2.8875884999999997
2.9685516,-10.824295,2.8675537,0.6871338,0.5765686,2.814087
4.2566375999999995,-12.047729499999999,3.4038544,0.5880585,0.39227295,2.925949
4.2829742,-12.890488000000001,1.7207183999999998,0.21308899,0.2708435,3.166687
4.539154,-11.209763,0.6074219,-0.20343018,0.39759827,3.2796172999999995
6.7633667,-11.176239,0.49728394,-0.57307434,0.8961486999999999,3.2306060000000003
8.71225,-12.607971000000001,-0.3550415,-0.8830719000000001,1.6929626,3.0633698
9.193481,-14.226455999999999,-2.0166168,-0.7850647,2.1531525,2.8364563
9.40657,-15.155410999999999,-3.2496338,-0.5038452,2.2980347,2.7448425
10.093703999999999,-14.394058,-3.0365599999999997,-0.25349426,2.1190643,2.7341919999999997
10.428894,-11.724518,-1.7939606,-0.11076355,1.6141357,2.6372527999999997
9.485565,-9.234542999999999,-0.9224701,-0.046844482,0.9898986999999999,2.4050293
8.700272,-7.407775999999999,1.1820374,0.0032348633000000003,0.35925293,2.1600189999999997
7.8575134,-6.6440277000000005,1.7757874,0.033050537000000005,-0.031692505,2.0034332
7.2206573,-6.368683,1.1868134,0.026657103999999997,-0.17231749999999998,1.891571
7.335571300000001,-6.069412000000001,0.39912415,-0.025527954,-0.13502502,1.8020935000000002
7.627670299999999,-5.8730927,-0.053375244,-0.062820435,0.017303467,1.7264557
7.390640299999999,-5.7342224,-0.07252502400000001,-0.10649109,0.3070526,1.60289
7.2015076,-5.8180237,-0.048583984000000004,-0.28865050000000003,0.63623047,1.3131409
7.462478599999999,-6.069412000000001,-0.029434204,-0.5720215,0.89401245,0.8678589
7.876663000000001,-6.6200867,-0.053375244,-0.6891937,0.9557953000000001,0.38848877
8.525497,-7.309616,-0.017471313,-0.61250305,0.7992096,-0.03656006
9.471207000000001,-7.75972,-0.015075683999999999,-0.44737244,0.5201110999999999,-0.39981079999999997
10.630005,-7.7956389999999995,-0.3837738,-0.16827393,0.23461914,-0.8408356
11.716965,-8.116455,-0.71177673,0.33984375,-0.078567505,-1.2413635
12.40889,-8.844299000000001,-0.12280273400000001,0.9726104999999999,-0.38110352,-1.2264556999999998
12.578888000000001,-9.531433,0.72473145,1.2336121000000002,-0.74009705,-1.2914428999999998
12.047363,-9.402144999999999,1.3184966999999999,1.2101746000000002,-1.1448975000000001,-1.8240662
11.654724,-8.911331,2.070282,1.1377411,-1.6200104,-2.4451141
12.279602,-10.364609,2.6688232000000003,0.8682251,-2.1675568,-2.9298096
10.898147999999999,-11.214554,2.7526245,0.30149840000000006,-2.4466553,-3.2951965
9.83992,-9.730148,0.8133239999999999,-0.3025055,-2.3529053,-3.5391388
11.432053,-9.06456,-0.656723,-0.70944214,-1.8714142,-3.5860138
12.595642,-10.946396,-1.2672424,-0.8511200000000001,-1.1864471,-3.55513
12.796753,-13.431579999999999,-1.9400023999999998,-0.79252625,-0.47271729999999995,-3.5167693999999994
12.715347,-15.196106,-2.4619446,-0.581604,0.11317444,-3.460312
12.207778999999999,-15.828185999999999,-1.7580566000000002,-0.18745422,0.35606384,-3.3676453
10.622817999999999,-15.054854999999998,-0.16111755,0.23439026,0.28575134,-3.1908112
8.800827,-13.108367999999999,1.4046936,0.5390625,0.06736755,-2.9575042999999996
7.378677400000001,-11.394119,2.391098,0.77767944,-0.2735138,-2.7188873
6.301285,-10.352646,2.8172759999999997,0.914032,-0.6911010999999999,-2.4930573
5.403457599999999,-9.610443,3.1596375,0.92575073,-0.9893646,-2.2874603
4.534363,-9.1770935,2.8843078999999996,0.74464417,-1.0703278,-2.0722810000000003
3.9286345999999996,-8.875411999999999,2.0774689,0.3941803,-0.9243927,-1.8464355
3.5216217000000003,-8.497131,1.536377,-0.023406982000000003,-0.6729889,-1.5822601
3.1098175,-8.090117999999999,1.0695038000000001,-0.372818,-0.41305542,-1.2552185
2.760254,-7.568191499999999,0.58348083,-0.6519165,-0.17231749999999998,-0.927124
2.4705658,-7.297638,-0.005493164,-0.8649597,0.07057189999999999,-0.64268494
2.3747863999999996,-7.297638,-0.5753174,-0.95977783,0.26231384,-0.2794342
2.3604279,-7.656769000000001,-0.8674011,-0.804245,0.31025696,0.29899597
2.195221,-8.042236,-0.54418945,-0.2524414,0.2548523,0.9562683000000001
2.2550812000000002,-8.509109500000001,-0.074920654,0.35369873,0.26551820000000004,1.489975
2.72435,-9.220184,0.33688354,0.45703125,0.29960632,2.1280669999999997
2.9494019000000002,-10.158707000000001,0.84924316,0.32600403,0.24847412,2.7075652999999997
2.2742310000000003,-10.460372999999999,1.4693298000000001,0.34944153,0.21011353,2.9898682
1.9725647000000002,-10.235321,2.6017914,0.46661377,0.18988037,3.0729523
3.4497833,-10.922455000000001,2.6879882999999998,0.43359375,0.16111755,3.1730804
3.8807525999999997,-11.860992,0.37997437,0.15235901,0.19839478,3.3648376000000004
4.038757299999999,-11.272018,-1.032608,-0.12460327,0.36245728,3.5480652000000004
6.0355225,-11.432419,-0.6878357,-0.22367859,0.7661896,3.5906677000000005
8.254959,-12.6319275,-0.6279906999999999,-0.42181396,1.3584747,3.4468536
9.574158,-13.872116,-1.5042572,-0.41009520000000005,1.7600707999999998,3.1539154
9.863861,-14.441939999999999,-2.5170135,-0.18426514,1.9752655,2.9312744
10.045822,-13.821838,-2.2009735,-0.0798645,1.9219971000000002,2.7363281
10.167923,-11.207367,-0.73573303,-0.16294861,1.6471558000000002,2.4593658
10.076935,-9.196242999999999,-0.81951904,-0.27267456,1.1720581,2.0779877
9.619644000000001,-7.393402,0.33688354,-0.27587890000000004,0.6372833000000001,1.7573546999999998
9.215027000000001,-6.521911599999999,1.0934448,-0.2556305,0.32197570000000003,1.571991
8.989975,-6.308838,0.37757874,-0.33338928,0.25166320000000003,1.4441681
8.973206,-5.832382,-0.4819335999999999,-0.42500305,0.31877136,1.4228516000000002
8.997162,-5.7868958,-0.68544006,-0.35896300000000003,0.36245728,1.5517578
8.283676,-5.621704,-0.30715942,-0.20982361,0.32730103,1.6774596999999998
7.8072357000000006,-5.640854,-0.13957214,-0.23007202,0.24526978,1.5783844
7.692322,-5.834778,-0.29759216,-0.4601593,0.22290039,1.2321777
7.369095,-6.225036599999999,-0.13478088,-0.677475,0.28468323,0.73895264
7.2374115,-7.0989227,0.3177185,-0.6923828000000001,0.38694763,0.26490784
8.06102,-8.020691000000001,0.37278748,-0.49105835,0.44235230000000003,-0.16970825
10.007507,-8.655151,-0.45082092,-0.037246704,0.35179138,-0.66825867
11.822311000000001,-9.078918,-1.1642914,0.62960815,0.16644287,-0.9516144
13.10321,-9.406937,-0.77163696,1.0791473,-0.13928223,-0.9761200000000001
13.187012,-9.306381,0.41349792,1.0802155,-0.5536804,-1.2434998
12.641129,-8.942459,1.5291901,0.85969543,-1.0032196,-1.7665404999999998
12.918854,-9.414108,2.4748992999999997,0.597641,-1.4612885,-2.2405853
12.789566,-11.193008,2.7358703999999996,0.30256653,-1.8117523000000002,-2.6581726000000003
10.76886,-10.833878,1.1317443999999999,-0.2364502,-1.7925872999999999,-2.9809417999999996
10.155945,-9.167511,-1.1571045,-0.8415222,-1.265274,-3.2131805
10.606064,-8.90654,-2.3182982999999995,-1.172821,-0.46313477,-3.3111725
10.701827999999999,-10.594452,-2.6917877,-1.1025238000000002,0.2782898,-3.2941284
11.211791999999999,-12.746841,-2.4643402,-0.6369934,0.6277008000000001,-3.1950684
11.319533999999999,-14.269561999999999,-2.3781432999999996,-0.006362915,0.5541991999999999,-3.000122
10.483948,-14.283920000000002,-1.6143951,0.5209503,0.1451416,-2.728485
8.796036,-13.139496,0.123794556,0.8628998,-0.48976135,-2.4365997000000004
6.7346344,-11.51622,1.7805786,1.1654358,-1.1704712,-2.1873322
5.0754547,-10.144347999999999,3.0303497000000004,1.3848724,-1.5720673,-2.0467072
3.9956665,-9.435654,3.4134216,1.2708893,-1.566742,-1.9369811999999997
3.4042969,-9.248917,2.7047423999999998,0.83413696,-1.2769928,-1.7505646000000001
3.1600952,-9.1770935,1.6488953000000002,0.3153534,-0.8732605,-1.5353851
3.0284119,-8.643172999999999,1.3879242,-0.055358887,-0.5057373,-1.3319244
3.0571442,-7.6639557,1.2754059,-0.23751831,-0.21279907,-1.10289
2.8608092999999997,-7.16835,0.24349976,-0.36961365,0.0023956299,-0.81314087
2.4849243,-7.34552,-0.92007446,-0.50917053,0.14407349,-0.46052550000000003
2.4681702000000003,-7.6280365,-1.2768097,-0.5251465,0.17176819,-0.07597351
2.681244,-8.030258,-0.6758728,-0.30036926,0.13874817,0.4076538
2.7458953999999998,-8.525864,0.17646789999999998,0.19390869,0.07589722,0.8710479999999999
2.542389,-8.861053,0.45898438,0.69885254,0.031158447000000002,1.079834
2.3316956,-9.299194,0.38716125,0.74998474,0.041809082000000004,1.2630615
2.5160522000000003,-9.976746,0.7845916999999999,0.34837340000000006,0.15472412,1.5762482
2.3676147000000003,-10.208984,1.6488953000000002,-0.025527954,0.28149414,1.8052826000000002
2.535202,-9.792404,2.5898132,0.06288147,0.25912476,2.0055542
4.2925415000000005,-10.017456,2.4820862,0.40164185,0.18562317,2.3709412
5.6907654,-11.7341,0.3656006,0.6157531999999999,0.2559204,2.7267456
5.583023000000001,-12.560089,-1.6335449,0.6509094,0.61279297,2.8503112999999995
6.0858,-12.459534,-1.7460785,0.37393188,1.1858978,2.7107544
6.9812316999999995,-12.90007,-0.012680054,-0.057495117000000005,1.7164001,2.4668121
7.2182617,-13.663818,0.90908813,-0.20663452,1.8687286,2.2324523999999997
7.654007000000001,-13.489044,0.54756165,-0.17573547,1.7941589,2.1067505
8.7864685,-12.610367,0.21476746,-0.062820435,1.7025603999999999,2.093979
9.861464999999999,-10.888947,-0.6902313,-0.056427002000000004,1.4788513,2.0886536
9.382614,-9.06456,-1.4420166,-0.23751831,1.217865,2.0960999
8.21904,-7.436508,-0.31674194,-0.42181396,0.9238434000000001,2.1291199
7.261352499999999,-6.5841675,0.17167664,-0.54537964,0.6777649,2.1174164
6.8663177,-6.2872925,0.114212036,-0.5357970999999999,0.51478577,2.0225983
6.7897034,-6.256164599999999,-0.3047638,-0.49850464,0.376297,1.8212585
6.710693400000001,-6.3160095,-1.1954193000000002,-0.43139648,0.19734192,1.5357819
6.780121,-6.3231964000000005,-1.1379546999999999,-0.31529236,0.053527832000000004,1.2513428
7.476837,-6.27771,-0.89852905,-0.21940613,-0.005065918,0.9967499
8.108902,-5.839569,-0.17547607,-0.23112488,-0.015716553,0.6537323
8.7314,-5.6240997,0.066329956,-0.325943,0.0002593994,0.18395996
9.401779,-5.772537000000001,0.2674408,-0.37387085,0.057785034000000006,-0.25280762
10.122437,-6.3471375,0.48771667,-0.31634520000000005,0.1259613,-0.55107117
10.783234,-7.1108856,0.43983459999999996,-0.19917297,0.18028260000000002,-0.78970337
11.436844,-7.2808839999999995,0.169281,-0.08944702,0.095062256,-1.151886
12.138351,-7.546631,0.047180176,0.21308899,-0.15206909,-1.388382
12.267638999999999,-8.260100999999999,0.40151978,0.7297363,-0.46418762,-1.2498931999999998
11.819916000000001,-8.923309,0.9282379000000001,0.98114014,-0.86686707,-1.3926392
11.029831,-8.726974499999999,1.3927155,0.9662323,-1.2908325,-1.9519043000000003
11.053772,-8.875411999999999,1.4645386,0.7244109999999999,-1.5944366,-2.5228882
11.793579,-11.178635,1.7326965,0.25143433,-1.6999054,-2.9638977000000004
10.199050999999999,-11.501862,2.233078,-0.19277954,-1.6402435000000002,-3.238739
10.069763,-9.861832000000001,1.0383759,-0.49317932,-1.3366394,-3.2376709999999997
11.865402,-9.866622999999999,-0.06535339,-0.59439087,-0.88391113,-3.109848
12.736892999999998,-11.683823,-0.75009155,-0.5315399000000001,-0.41625977,-3.0118408
12.550156,-13.491439999999999,-1.3438568000000002,-0.32487488,-0.03276062,-2.986267
11.882172,-14.470673000000001,-0.67108154,0.07141113,0.13449097,-2.9585724
10.196655,-14.427567000000002,0.36322020000000005,0.44850159999999994,0.09080505,-2.8307495
8.288467,-12.933594,1.4837036,0.7009734999999999,-0.08815002400000001,-2.5963898
7.0267334,-11.140335,2.3264617999999997,0.8905945,-0.38323975,-2.3087616
6.224670400000001,-9.895355,2.7813567999999997,1.0322723,-0.6996155,-2.0978394000000002
5.480072,-9.119629,3.2434387000000005,1.0663605,-0.91799927,-1.9817352
4.5487212999999995,-8.681488,2.9297942999999997,0.95344543,-1.0138702,-1.8709412
3.7322998,-8.339111,1.9792938000000002,0.6828613,-0.91693115,-1.726059
3.2367096,-7.8459167,1.3951111,0.33451843,-0.6729889,-1.5151367
3.1481169999999996,-7.297638,1.0982361,0.022399902000000003,-0.45353699999999997,-1.1806488000000002
3.093048,-6.792464999999999,0.6217804,-0.19171143,-0.30653379999999997,-0.78330994
2.7746277000000004,-6.6200867,0.07591247599999999,-0.35043335,-0.1765747,-0.38490295
2.4801330000000004,-6.792464999999999,-0.50349426,-0.47508240000000007,-0.031692505,0.056121826
2.298172,-7.355102499999999,-0.8793793,-0.47720337,0.13981628,0.55999756
2.0419921999999997,-8.152374,-0.8626251,-0.25776672,0.3027954,0.9733124
1.9677734,-8.755707000000001,-0.44363403,-0.04257202,0.36990356,1.3674621999999999
2.2838135,-9.435654,-0.09408569,0.005355835,0.28149414,1.9725342000000001
2.7387085,-10.357422,0.097457886,0.12147522,0.06629944,2.559494
2.827301,-10.781203999999999,0.4517975,0.4730072,-0.14355469,2.8971862999999995
3.2319183,-10.52742,1.1772461,0.8991089,-0.371521,3.1358032000000002
4.115371700000001,-11.566498,0.9450073,1.1888733,-0.5536804,3.3179626000000004
3.974121,-12.514603,-0.007888794000000001,1.2122955,-0.56326294,3.3680267
4.019607499999999,-11.79155,0.011260986,0.8074951,-0.12757874,3.2316742
6.028351,-11.635925,0.71276855,-0.044708252000000004,0.7779083000000001,2.9014435
7.8575134,-12.785156,0.45898438,-0.8127594,1.6428986,2.3166199
9.555008,-14.013382,-0.58488464,-0.9906616,2.157425,1.8723907
11.10405,-14.295882999999998,-1.7053832999999998,-0.87561035,2.4812622,1.7722626
12.157501,-12.718109,-2.811493,-0.79145813,2.513214,1.8148804
12.0737,-10.170685,-3.8146667,-0.81489563,2.2415771,1.8436432
11.432053,-7.6424103,-3.072464,-0.8180847,1.6833801,1.8553467000000001
9.753722999999999,-6.1292725,-0.48672485,-0.7339325,1.0463562,1.8063506999999999
7.754562400000001,-5.576202400000001,0.56433105,-0.51768494,0.4540558,1.7349854
6.710693400000001,-5.382278400000001,0.21716309,-0.27693176,0.05885315,1.6838531000000003
6.409027,-5.324814,-0.42926025,-0.15655518,-0.104141235,1.6433716
6.104965,-5.2362366,-0.41729736,-0.14057922,-0.14141846,1.6092833999999998
6.179183999999999,-5.0494843000000005,-0.13238525,-0.13951111,-0.15953064,1.5496216
6.51915,-4.9632874000000005,0.47573853,-0.15336609,-0.12544249999999998,1.4015503
7.065033000000001,-5.4301605,0.7462920999999999,-0.23539734,-0.010391235,1.0958252
7.6635895000000005,-6.0933532999999995,0.3751831,-0.35150146,0.14086914,0.681427
8.264526,-6.773315400000001,-0.06774902,-0.41223145,0.29000854,0.27236938
9.059402,-7.393402,-0.17308044,-0.38452148,0.42956543,-0.061050415
10.03624,-7.7477417,-0.1850586,-0.26416016,0.45726013,-0.45520020000000005
11.118423,-8.003921499999999,-0.21618652,0.12147522,0.3017273,-0.7811737
12.013855,-8.458832000000001,-0.07252502400000001,0.7691498000000001,-0.0039978027,-0.79182434
12.384949,-9.023864999999999,0.32011414,1.1675568,-0.4226532,-0.96972656
11.982727,-9.0190735,0.88035583,1.1153563999999998,-0.86154175,-1.5577545
11.614014,-8.640792999999999,1.4453888000000001,0.7691498000000001,-1.199234,-2.2810669999999997
12.033005000000001,-9.97435,2.0487366000000002,0.24397278,-1.3526306000000001,-2.8818817
10.924484,-10.553757000000001,2.4509583,-0.2609558,-1.2833861999999998,-3.3133087
10.864639,-9.517059,1.0647125,-0.5986481,-0.9840393,-3.4858856
12.42804,-9.356659,-0.9081116,-0.6369934,-0.5494232,-3.4645690000000005
13.876541,-11.154694000000001,-2.0836639999999997,-0.35577393,-0.16804504,-3.412384
14.094406,-13.299895999999999,-2.4427947999999997,0.10975647,0.053527832000000004,-3.3942718999999997
13.421645999999999,-14.420395000000001,-1.6048278999999999,0.6264038000000001,0.08441162,-3.349533
11.688232000000001,-14.439545,-0.11323547,1.0290833000000001,-0.078567505,-3.2493896
9.564575,-13.283142000000002,1.5004578000000002,1.3028563999999998,-0.35766602,-3.1236877
8.063416,-11.626358,2.8914948,1.4977875,-0.71665955,-2.9564513999999997
7.208678999999999,-10.558548,3.5594788,1.5393371999999999,-0.9701995999999999,-2.7455292
6.4185944,-9.897736,3.5594788,1.425354,-1.1108093,-2.540985
5.688369799999999,-9.562561,2.8005066000000003,1.1803436,-1.1789856,-2.407837
5.128128,-9.366226,1.7757874,0.7957916,-1.0735321000000002,-2.3492432
4.6085815000000006,-8.995132,1.3137054,0.2546234,-0.76353455,-2.2565612999999995
4.158478,-8.439667,0.7151642,-0.26521300000000003,-0.34169006,-2.0328673999999998
3.8663788,-7.869858,0.08308411,-0.67214966,-0.0039978027,-1.6387177
3.8304748999999996,-7.496353,-0.3622284,-0.98854065,0.21757507,-1.1529541
3.9549712999999995,-7.386230499999999,-0.795578,-1.1941223,0.3486023,-0.626709
3.7227324999999998,-7.735778999999999,-1.3582153000000001,-1.2900085,0.41784668,0.016708373999999998
3.0786896,-8.121246000000001,-1.3390656,-1.139801,0.43489075,0.7432251
2.2646637000000003,-8.425308,-0.87698364,-0.5752106,0.26657104,1.3695983999999999
1.733139,-8.734161,-0.37898254,0.028793335,0.06736755,1.9746703999999997
1.6637115000000002,-9.2561035,0.16209412,0.30789185,-0.11479187,2.6585693
1.2207947000000001,-9.493117999999999,0.66249084,0.43998718,-0.31932068,3.2828063999999997
0.8305359,-9.289612,1.4310303,0.7095031999999999,-0.5099945,3.7003937000000007
1.5416107,-8.858658,2.9848632999999998,0.9555664,-0.5760498000000001,3.9400787000000004
2.4657744999999998,-9.459610000000001,3.1811828999999996,0.9747466999999999,-0.6048126,4.1073303
2.7291412,-10.007874000000001,1.6584778000000002,0.8021698,-0.54089355,4.2554016
3.8137053999999995,-10.841064,0.39672852,0.5571594,-0.005065918,4.2830962999999995
6.181579599999999,-12.426025,0.46617126,0.13745117,0.901474,3.9496613
8.87265,-14.5401,-0.07252502400000001,-0.22900389999999998,1.4799194,3.1858673
10.627609,-15.730011,-1.2624511999999999,-0.4005127,1.8271941999999999,2.4444427
11.587677000000001,-15.780289000000002,-1.9950714,-0.48252870000000003,1.9390411,1.9363098
12.293975999999999,-13.661423000000001,-1.7197418000000002,-0.5123595999999999,1.7355804,1.6082153000000001
12.772812,-10.824295,-1.5617218000000002,-0.5570984,1.3329010000000001,1.3908996999999999
12.949982,-7.9943542,-0.83628845,-0.5773468,0.95899963,1.3642731000000001
11.843857,-6.361511,-0.039016723999999996,-0.42181396,0.53822327,1.4835815
10.218200999999999,-5.894638,0.15013123,-0.13739014,0.14833069,1.6508179
8.796036,-5.853943,0.097457886,0.11721802,0.011978148999999999,1.7775879
7.8934326,-6.045471,-0.034225464,0.18005371,0.08441162,1.7765198
6.701111,-6.294464,0.044784545999999995,0.059692382999999995,0.29533386,1.6486968999999998
5.7434387000000005,-6.339966,0.7438965,-0.14057922,0.58935547,1.4644012
5.5255585,-6.256164599999999,1.4334258999999998,-0.42288208,0.81411743,1.1607971000000001
6.025955000000001,-6.181946,1.4789124,-0.7030487,0.88124084,0.6675873000000001
7.096161,-6.205887000000001,0.6241760000000001,-0.8564453000000002,0.8098602,0.24786377
8.381851,-6.6272583,-0.34786987,-0.83833313,0.71824646,0.03694153
9.432891999999999,-7.1180725,-0.8434601,-0.6582946999999999,0.6042633000000001,-0.19953918
10.251709,-7.376647999999999,-1.1930237,-0.27587890000000004,0.34114075,-0.6022185999999999
11.472763,-8.018295,-1.0996399,0.38459778,0.0002593994,-0.66186523
11.73851,-9.193848,-0.42687988,1.0088348,-0.40560913,-0.5574646
11.101654,-9.950409,0.47573853,1.2719573999999998,-0.92225647,-0.8983612
10.627609,-9.428482,1.5674896,1.2485198999999998,-1.3355865,-1.5960999
11.757675,-10.259262,2.391098,0.8170929,-1.6445006999999998,-2.3503112999999995
11.312347,-11.99028,2.9657134999999997,0.10762024,-1.7968445,-2.899994
9.499939,-10.386154,2.6448822,-0.46975708,-1.6967009999999998,-3.23555
10.788025,-9.184265,0.89712524,-0.7009125,-1.3494263000000002,-3.3527222
12.885345,-9.969574,-0.46517944,-0.5027771,-0.98617554,-3.3910675
13.881332,-11.702972,-2.1147918999999997,-0.0031585693,-0.8551483,-3.3804169
13.179825,-13.493835,-3.1538696,0.47087097,-0.8018799,-3.2781525
11.953994999999999,-14.231247,-2.0812683,0.72654724,-0.70921326,-3.1460571
9.942871,-13.558472,-0.08929443,0.81069946,-0.56858826,-2.953247
8.010742,-11.980698,1.8595886000000001,0.9193573,-0.5739135999999999,-2.6986542
6.540710400000001,-10.601639,3.1644287,1.009903,-0.7422333000000001,-2.3971862999999995
5.4609222,-9.9839325,3.0710602000000002,0.97795105,-0.8998870999999999,-2.1276702999999997
4.8025208,-9.500305,2.1037903,0.8352050999999999,-0.9659271,-1.9806671000000002
4.3284607,-9.224976,1.158081,0.564621,-0.8998870999999999,-1.8784026999999999
3.7538605000000005,-8.870636,0.94021606,0.19497679999999998,-0.7752533,-1.7058258000000002
3.2558594,-8.365447999999999,0.70318604,-0.20024109,-0.6325073,-1.4363098
2.9685516,-7.7669067,0.18125916,-0.51556396,-0.46739197,-1.10289
3.1050262,-7.1180725,-0.1491394,-0.6881255999999999,-0.23942566,-0.82484436
3.088272,-6.8379517000000005,-0.50587463,-0.8074340999999999,0.06417847,-0.59155273
2.7674408,-7.1539917,-0.89134216,-0.9203644,0.38801575,-0.2794342
2.5447845,-7.7477417,-1.0230255,-0.90864563,0.6266326999999999,0.18714905
2.4561919999999997,-8.319962,-0.5753174,-0.61569214,0.6724396,0.7197876
2.755478,-8.616852,0.32730103,-0.21514893,0.54566956,1.206604
3.1529083,-9.198639,0.81811523,-0.13845825,0.4316864,1.745636
3.2534637,-10.103638,0.93063354,-0.17893982,0.39866638,2.1706696
2.796173,-10.481933999999999,1.3184966999999999,-0.048965454000000005,0.35925293,2.4273987
2.6477356,-10.405319,2.10141,0.16195679,0.29853820000000003,2.6479034
3.7778015,-11.602416999999999,2.2666016,0.29617309999999997,0.33688354,2.940857
4.2470550000000005,-12.58403,0.7271271,0.25357056,0.49453735,3.1901245
4.874344000000001,-12.098007,0.061538696,0.09057617,0.76937866,3.2657623
6.3994446,-12.461929,0.59306335,-0.20556639999999998,1.2359619,3.210373
7.665985000000001,-13.5513,0.53559875,-0.4601593,1.6013488999999999,2.9589689999999997
8.077774,-13.963104000000001,-0.046188354,-0.29397583,1.5608673,2.6745452999999997
8.506348,-13.702132999999998,-0.5417938,-0.04257202,1.4884338,2.50943
8.9253235,-11.971115,-0.74290466,-0.24711609,1.4394379,2.3262023999999997
9.018707000000001,-9.426086,-0.8674011,-0.80210876,1.3946991000000002,2.0151367
8.700272,-7.419739,-0.656723,-1.2037201000000002,1.2466125,1.6433716
8.2765045,-5.9401245000000005,0.8276825000000001,-1.202652,0.98243713,1.4239197000000001
7.859909,-5.4852295,0.9282379000000001,-1.0364685,0.6639252,1.4047546
7.692322,-5.264969000000001,-0.88656616,-0.7989196999999999,0.34753418,1.4143371999999999
7.967651400000001,-5.0542755,-2.1842194,-0.5283356,0.09933472,1.4239197000000001
8.254959,-5.178772,-1.6048278999999999,-0.3078308,0.051391599999999996,1.4281768999999997
7.8072357000000006,-5.753372,0.21955872,-0.14271545,0.15579224,1.363205
7.0626373,-6.7469788,1.074295,-0.06707764,0.28149414,1.1011505
7.120102,-7.367065400000001,1.5555267,-0.09370422,0.3773651,0.68037415
7.378677400000001,-7.656769000000001,2.0008545,-0.10437012,0.26763916,0.27662659999999994
8.108902,-8.228989,1.8260651,-0.07133484,0.07269287,0.008178711
8.999542,-8.396576,1.5315857,0.014938354499999999,0.06097412,-0.22297668
10.201431,-8.051819,1.0958405,0.19390869,0.057785034000000006,-0.5627899000000001
11.40094,-8.262497,0.46617126,0.597641,-0.10839844,-0.7353668000000001
11.760071,-8.987946,0.2674408,1.0674286,-0.44714355,-0.6458893
11.192642,-9.438049000000001,0.46138,1.3049773999999998,-0.95848083,-0.71299744
10.407333,-8.662338,1.0216216999999999,1.3731537,-1.6072235000000001,-1.1295166
10.376221000000001,-8.233765,1.5818633999999998,1.1611633,-2.192047,-1.690918
10.263687,-9.550583,2.0104218,0.6434479000000001,-2.4370575,-2.2171478
9.057007,-9.991119,1.6584778000000002,0.09271239999999999,-2.3092346,-2.7242126
9.193481,-9.339889999999999,0.023239136,-0.31741333,-1.8564911,-3.0246277000000004
10.86702,-9.588898,-1.0780945,-0.5048981,-1.1768493999999998,-3.093872
12.511841,-11.449188000000001,-2.1746368,-0.42713928,-0.5558014,-3.159912
13.21814,-13.220901500000002,-2.9599457,-0.16401672,-0.09774780000000001,-3.2888029999999997
13.452759,-14.056473,-2.3159027,0.18218994,0.106781006,-3.3750915999999997
12.198196000000001,-13.98465,-0.7596741,0.49751282,0.06629944,-3.3942718999999997
9.890198,-12.706146,0.7151642,0.73080444,-0.14567566,-3.3761597
8.329178,-10.999069,1.9385986000000002,0.94065857,-0.48017883,-3.2643127
7.5773926,-9.864227,2.6472778,1.009903,-0.7656708000000001,-2.9958649
6.8998413,-9.548186999999999,2.7167206000000004,0.93959045,-1.0223999,-2.6847992
6.1145325,-9.4189,2.2666016,0.7883300999999999,-1.2109528,-2.4163513
5.3627625,-9.265671000000001,1.5315857,0.60617065,-1.2162781,-2.2033080000000003
4.5606995,-9.002303999999999,1.3544159,0.38352966,-1.0682068,-1.9380493000000003
3.5144347999999996,-8.66951,0.81092834,0.07141113,-0.7784424,-1.5758667
2.8560333,-8.0542145,0.22914124,-0.32273865,-0.37896729999999995,-1.1423035
2.6501312,-7.5777589999999995,-0.082107544,-0.7009125,0.04925537,-0.6820984
2.6908263999999997,-7.2377777000000005,-0.09408569,-1.0279540999999999,0.44447327,-0.19314575
2.3604279,-7.218628,-0.16111755,-1.2527161,0.678833,0.38955688
1.8624268,-7.304825,-0.41490173,-1.1920013,0.70866394,1.0223236
1.5296326,-7.479599,-0.6447449000000001,-0.7754821999999999,0.6255646,1.5315094
1.546402,-7.929702799999999,-0.38856506,-0.29078674,0.5446167,2.0438994999999998
1.8791962,-8.865845,-0.022247314,-0.046844482,0.45939636,2.7171478
1.9558105,-9.746902,0.42546082,0.12892151,0.3571167,3.3158263999999997
1.8145447000000001,-9.809158,1.4860992,0.4495697,0.28042603,3.580017
2.5806885,-9.710999000000001,2.8124847,0.7766113,0.27403259999999996,3.5661620000000003
3.5934448,-10.814728,3.0518951000000003,0.8170929,0.20266724,3.483078
3.6245727999999997,-11.705368,1.8212891,0.53479004,0.1174469,3.4692230000000004
4.3595885999999995,-12.023788,1.1173859,0.12892151,0.32302856,3.3967896
6.777725,-12.737259,1.3328705,-0.36535645,0.96325684,3.0644226000000003
9.674713,-14.417998999999998,0.86120605,-0.5027771,1.4223938,2.4050293
11.384171,-15.600723,-0.73573303,-0.27693176,1.6258545,1.8841095
11.743300999999999,-15.406799,-2.2033691,-0.10437012,1.6759186000000001,1.6614685000000002
11.697815,-12.749236999999999,-2.1722412,-0.08518982,1.4980163999999998,1.5655975
11.439239500000001,-9.533828999999999,-1.9998627,-0.22793579,1.2231903,1.4260559
11.072922,-6.6679688,-0.19941711,-0.39198303,1.0026703000000001,1.3078156
9.823151,-5.353546,1.2227325,-0.41967773,0.7757721,1.2811736999999999
8.369873,-5.487625,0.7845916999999999,-0.34617615,0.49348450000000005,1.2683868
7.357132000000001,-5.554657,-0.07252502400000001,-0.21302795,0.22929382,1.3067474
7.266144000000001,-5.5043793,-0.8745879999999999,-0.09051514,0.14193726,1.347229
6.9572906,-5.4732513,-0.97514343,-0.076660156,0.22290039,1.3621368
6.3108673,-5.456497,-0.40771484,-0.19703674,0.3720398,1.3173981000000001
6.162414599999999,-5.633667,0.18125916,-0.39730835,0.39015198,1.126709
5.9684906,-5.8515472,0.50686646,-0.6732178000000001,0.41358948,0.83377075
6.543091,-6.53389,0.46617126,-0.84259033,0.44340515,0.5248413000000001
7.352340700000001,-7.233001700000001,-0.027038574,-0.82447815,0.376297,0.26811218
8.288467,-7.8291473,-0.7812195,-0.6891937,0.376297,0.047607422
9.44487,-8.305603,-1.1810455,-0.43992615,0.46365356,-0.26664734
10.481552,-9.059769000000001,-1.3390656,-0.0031585693,0.49774170000000006,-0.49674988
11.058563000000001,-9.854645,-0.63038635,0.515625,0.3251648,-0.48609924
11.003494,-10.218567,0.56910706,0.853302,-0.1563263,-0.70448303
10.622817999999999,-9.79718,1.5339813,1.0621033000000002,-0.82424927,-1.2328491000000001
10.802383,-9.258484,2.276184,1.1196289,-1.5081482,-1.8080901999999999
11.190247,-10.204193,2.6975555,0.7925873000000001,-2.1036377,-2.265091
9.79921,-9.900131,2.5036316000000003,0.24290466,-2.2889862,-2.6464539
10.062576,-8.856262,1.1724548000000001,-0.097976685,-2.122818,-2.920227
11.580505,-9.16272,0.10942078,-0.1821289,-1.7297363000000001,-3.0065155
12.542969,-10.908096,-0.8147278,-0.12034607,-1.2471618999999998,-3.0224915
12.4591675,-12.8737335,-2.138733,0.02986145,-0.7528838999999999,-3.0640411
12.205383,-13.857757999999999,-2.555313,0.24290466,-0.35020447,-3.0981292999999996
11.448822,-13.773956,-0.8674011,0.47940063,-0.21812439,-3.1204987
9.538239,-12.58165,0.91148376,0.6264038000000001,-0.31506348,-3.0352783
7.914978,-10.898514,1.8667755000000001,0.6945800999999999,-0.533432,-2.8499146
7.0578460000000005,-9.624802,2.3384247000000005,0.7297363,-0.8125305,-2.6847992
6.5047913,-9.06456,2.470108,0.7254791,-1.0468903,-2.5846709999999997
6.037918,-8.846695,2.2115326,0.58380127,-1.1150665000000002,-2.4483185
5.1664276,-8.841904,1.3879242,0.30575562,-0.9978943000000001,-2.251236
4.338043,-8.614456,0.6960144,-0.009552001999999999,-0.7507477,-2.0339203
4.0124207,-8.193069,0.43743896,-0.3302002,-0.41200256,-1.7494965
3.9765167000000003,-7.673522999999999,0.38476562,-0.6274109,-0.102005005,-1.4086151000000002
3.6221771,-7.4460754,0.08547974,-0.8820038,0.14619446,-1.0932921999999998
3.1648865,-7.3503112999999995,-0.3502655,-1.0812073,0.35179138,-0.8099365
2.9158783,-7.3191833,-0.41729736,-1.1951903999999998,0.46258545,-0.45413208
2.6237946,-7.5514220000000005,-0.45082092,-1.1579131999999999,0.46684265,0.04866028
2.463379,-8.013504,-0.35264587,-0.8330078000000002,0.40931702,0.6121979000000001
2.8536377,-8.6671295,-0.13717651,-0.39305115,0.37097168,1.2747803
3.2893830000000004,-9.232147,0.17646789999999998,-0.24179077,0.36245728,2.0737305
3.2175446,-9.677475,0.49728394,-0.18106079,0.40719604,2.6415252999999996
2.6836395,-9.854645,0.9833069,0.038375854,0.44340515,2.908905
2.772232,-10.055756,1.8595886000000001,0.27487183,0.49134827,3.1038513
3.5024567,-11.228912,2.197174,0.375,0.49028015,3.4596405
3.2199402000000004,-11.746063000000001,1.0288085999999999,0.42933655,0.42317200000000005,3.8708343999999997
4.103409,-11.274414,0.55714417,0.47514343,0.5009308,4.0327606
6.2917023,-11.884933,1.0766907,0.35688782,0.9291687,3.8729706
7.9437103,-13.201735999999999,0.71995544,0.15663147,1.2998809999999998,3.4266205000000003
8.137634,-13.989426000000002,-0.2760315,0.106552124,1.3488921999999999,2.89505
8.374664,-14.152237,-0.632782,0.0650177,1.2519531000000002,2.4934540000000003
9.411346,-12.816269,-0.37898254,-0.09477234,1.0751190000000002,2.2015686000000003
10.615631,-10.548964999999999,-0.6591034,-0.39198303,0.93769836,1.9043578999999997
10.917297,-8.545013,-0.84825134,-0.64871216,0.86312866,1.6550903000000001
10.436066,-6.799652,-0.29040527,-0.61782837,0.7075958000000001,1.5996857
9.540633999999999,-6.162781,-0.36462402,-0.40795898,0.40719604,1.6103363000000002
8.7314,-5.870697,-0.8530426,-0.12246704,0.053527832000000004,1.6529541
8.463242,-5.62648,-1.2409058000000002,-0.024475097999999997,-0.030639648,1.6998291
8.14003,-5.676758,-1.0350037,-0.09370422,0.11531067,1.6923675999999999
7.1991119999999995,-5.9592743,0.25308228,-0.20236206,0.27722168,1.5922393999999997
6.823227,-6.404602,0.8564148000000001,-0.45376587,0.552063,1.3291168
6.7705535999999995,-6.605713000000001,1.21315,-0.7360687,0.76086426,0.81565857
7.3595276,-7.307220500000001,0.45898438,-0.8415222,0.81625366,0.2691803
8.254959,-7.8722534,-0.31674194,-0.7797394,0.8237152,-0.086624146
9.262909,-7.9871674,-0.44602966,-0.56881714,0.78430176,-0.37637329999999997
10.462402,-7.8866119999999995,-0.91767883,-0.20449829,0.6223755,-0.76838684
11.781616,-7.991958599999999,-0.87698364,0.41868590000000006,0.31025696,-0.9782562
12.478317,-8.698242,0.07591247599999999,1.013092,-0.08921814,-0.9239197
11.989914,-9.464386,0.78938293,1.2336121000000002,-0.6175995,-1.1699982
11.218979,-8.980758999999999,1.6848145,1.1675568,-1.2077483999999998,-1.8123474
11.444030999999999,-9.136383,2.3144836,0.7467804,-1.6785888999999998,-2.503708
11.546982,-10.702194,2.7574158,0.16728210000000002,-1.8596953999999999,-3.062973
10.170319000000001,-10.539383,2.0224,-0.2566986,-1.7616881999999998,-3.4017334000000004
10.754501,-9.567337,-0.027038574,-0.43139648,-1.5113524999999999,-3.4294279999999997
12.679443,-9.971969999999999,-1.2552643,-0.34617615,-1.1289215,-3.33461
13.646698,-12.054916,-2.4691315,-0.048965454000000005,-0.86260986,-3.3175660000000002
13.380935999999998,-13.761978,-2.6846007999999997,0.25675964,-0.62397766,-3.3164977999999996
12.4879,-14.79628,-1.3701934999999998,0.43145752,-0.36087036,-3.2525939999999998
10.251709,-14.398833999999999,0.2889862,0.5337219,-0.26179504,-3.1194305
8.149612,-12.409256,1.6824188000000002,0.67541504,-0.42904663,-2.8989257999999998
7.1416473,-10.651916499999999,2.6999512,0.80430603,-0.7326355,-2.6613617
6.5670470000000005,-9.780426,2.8867035,0.8735504000000001,-1.0000305,-2.4983826000000002
5.9613037,-9.4189,2.2689972000000003,0.86076355,-1.1576843,-2.391861
5.2478333,-9.179489,1.505249,0.6903229000000001,-1.1235962,-2.2842712000000005
4.4098663,-8.844299000000001,1.2059784,0.36648559999999997,-0.9201355,-2.1010437
3.7490692,-8.293625,0.98091125,0.002166748,-0.6452941999999999,-1.7825316999999998
3.6940002,-7.644806,0.74150085,-0.3536377,-0.35766602,-1.3670653999999998
3.6724547999999997,-7.182724,0.58348083,-0.6423187,-0.09135437,-0.9526825000000001
3.4042969,-6.924148599999999,0.19561768,-0.89053345,0.16218567,-0.5990143
3.021225,-7.1515960000000005,-0.35983276,-1.0567169,0.37950134,-0.25706482
2.5328063999999997,-7.58255,-0.6160126,-1.0567169,0.49134827,0.20632935
2.1641082999999997,-8.037445,-0.6184082,-0.67533875,0.46684265,0.7496033000000001
2.3580322,-8.604874,-0.18026733,-0.027664185,0.38801575,1.2811736999999999
2.8225097999999997,-9.172302,0.18603516,0.33026123,0.3486023,1.9043578999999997
3.1624908,-9.701416,0.7223358,0.37820435,0.3731079,2.3943787
2.7698364,-9.986328,1.3184966999999999,0.48472595,0.38908386,2.6564330000000003
2.504074,-9.971969999999999,2.4222259999999998,0.6967163000000001,0.3059845,2.8204803
3.6245727999999997,-11.080475,3.2075195,0.7254791,0.25166320000000003,3.053772
3.8735657,-11.746063000000001,1.9146576000000002,0.41015625,0.3059845,3.3041077000000003
4.2638245,-10.948791499999999,0.39193726,-0.012756348,0.49134827,3.4383392
5.776947,-11.125961,0.18603516,-0.41223145,1.0197144,3.4383392
7.4121857,-12.567276,-0.017471313,-0.7829437,1.7249298,3.1847992
8.295653999999999,-13.982254000000001,-1.3582153000000001,-0.7893219,1.9816589,2.6915894000000002
9.112076,-14.8585205,-2.9312134,-0.56988525,2.0231934,2.3784027
9.765686,-13.96788,-3.072464,-0.47720337,1.8985596000000002,2.2910461
10.029053,-11.113997999999999,-1.9950714,-0.5581665,1.586441,2.2825317000000003
9.849487,-8.72937,-1.3223114,-0.70410156,1.1219788,2.1674805
9.713028,-6.823592999999999,0.49728394,-0.6423187,0.6085205,1.9746703999999997
8.432129,-6.011947599999999,1.3951111,-0.41223145,0.10145569,1.8521576000000002
7.330795299999999,-6.150818,0.62657166,-0.27053833,-0.22024536,1.8372498
6.7082977,-6.2513733,-0.2425232,-0.27160645,-0.19148254,1.8798523
6.875885,-6.1412354,-0.68544006,-0.35043335,0.03541565,1.9001006999999999
7.2565764999999995,-6.0143433,0.097457886,-0.51556396,0.35179138,1.7498932
7.175171000000001,-6.227432299999999,0.9066924999999999,-0.7286071999999999,0.65327454,1.4324493
6.9716644,-6.7062683000000005,0.6960144,-0.8287505999999999,0.81518555,1.0734558
7.314025999999999,-7.1803284,0.1477356,-0.7754821999999999,0.8173218000000001,0.81033325
8.116089,-7.651977499999999,-0.13238525,-0.57839966,0.69374084,0.6260376
9.440078999999999,-7.8171843999999995,-0.36462402,-0.34298706,0.56591797,0.2691803
10.697037,-8.0781555,-0.54418945,-0.095840454,0.52757263,-0.3028717
11.515854,-8.731766,-0.1850586,0.29937744,0.5541991999999999,-0.66400146
11.853439,-9.703812,0.27223206,0.5901947,0.37950134,-1.0304413000000001
11.848647999999999,-9.995911,0.81092834,0.6828613,-0.08282471,-1.6632080000000002
12.21257,-9.076538000000001,1.268219,0.6306609999999999,-0.6495514,-2.3673553
13.756820999999999,-9.55777,1.3352661,0.37927246,-1.1470337,-2.9394072999999996
13.249251999999998,-9.957596,1.584259,0.10017395,-1.4836578,-3.3250275
12.147919,-8.554596,0.6529083000000001,-0.10542297,-1.5731354,-3.431549
12.74408,-8.499527,-0.5705260999999999,-0.15762329,-1.3686066000000001,-3.3005218999999997
13.323471,-10.21138,-1.2217559999999998,0.044769287000000005,-1.0937653,-3.1226196
13.191803,-12.856978999999999,-1.8610077,0.41441345,-0.8231963999999999,-3.033142
12.475937,-14.690933,-1.4013062,0.7957916,-0.71240234,-3.0033112
10.68985,-15.100342000000001,-0.29519653,0.96728516,-0.6815033,-2.9436646
8.384232,-13.783539000000001,0.892334,1.0248108,-0.68045044,-2.8840027000000004
6.7561800000000005,-11.530594,2.2953339,1.0983124,-0.78804016,-2.7732238999999996
6.1384735,-9.830703999999999,3.1428833,1.0684966999999999,-0.9020233,-2.6081084999999997
5.8392029999999995,-8.990341,3.1764069,0.95344543,-0.9851074000000001,-2.5026398
5.3747253,-8.736557000000001,2.1708374,0.7435913000000001,-1.0106812,-2.4696198
5.2143097,-8.537842,1.2969513000000001,0.41973877,-0.90309143,-2.454712
4.9605255,-8.430099499999999,1.1245728000000002,0.008560181,-0.6506195,-2.4312744
4.5439453,-8.274475,0.49728394,-0.3781433,-0.31718445,-2.2746735
4.5798492,-7.941681,0.12139892599999999,-0.64871216,-0.010391235,-1.946579
4.7378693,-7.6471862999999995,-0.12280273400000001,-0.7861328000000001,0.20159912,-1.5460358
4.7067413,-7.520294,-0.41729736,-0.82128906,0.36032104,-1.1135406
4.754623400000001,-7.941681,-0.7596741,-0.7541809,0.44660950000000005,-0.61286926
4.2925415000000005,-8.657547000000001,-0.6902313,-0.56562805,0.48495483,-0.009918213
3.2630463,-9.105255,-0.29998779999999997,-0.20236206,0.5478058000000001,0.55467224
2.542389,-9.24173,0.20040894,0.20988464,0.5307616999999999,1.1618652
2.3915558,-9.660721,0.63375854,0.33984375,0.32302856,2.000229
2.5016785,-10.551361,1.0192261,0.39736938,0.12702942,2.7001037999999995
1.9174957,-10.505875,1.4310303,0.5987091,0.048202515,2.9802703999999998
1.7020263999999998,-9.842682,1.723114,0.6977844,0.04925537,2.987732
2.2910004,-10.639938,1.5291901,0.43891907,0.09187317,3.0282134999999997
1.9486237000000002,-11.506653,-0.103652954,-0.11714172,0.26763916,3.1187592
2.9158783,-11.336655,-0.82670593,-0.6508484,0.63623047,3.1741486
5.870331,-11.853806,-0.36701965,-1.139801,1.4064026,3.2316742
8.602112,-13.120331,-1.063736,-1.296402,2.034912,3.0484467
9.566971,-13.929580999999999,-2.6534882,-1.1195678999999998,2.1627502,2.7469787999999995
9.770477,-14.006195000000002,-3.6662292,-0.9160919,2.0871124,2.6244812
9.808792,-12.749236999999999,-3.0581055,-0.7765503,1.8069457999999998,2.6191560000000003
9.538239,-10.613602,-1.9040985000000001,-0.6785431,1.4319763,2.5744019000000002
9.186295,-8.583328,-0.19941711,-0.7051696999999999,1.1155853,2.4231415000000003
8.551834,-6.914566000000001,1.3663788000000001,-0.7818755999999999,0.83543396,2.1823883
7.4385223,-6.3375699999999995,1.3089294,-0.81915283,0.5509949000000001,1.9512328999999997
6.768158000000001,-6.0622253,0.74150085,-0.84684753,0.25166320000000003,1.7584076000000002
6.916595500000001,-5.736618,0.50686646,-0.82022095,-0.0061340330000000005,1.6305847
7.4098053,-5.4804379999999995,0.056762695,-0.7563019,-0.17231749999999998,1.5197906
7.828780999999999,-5.4110107,-0.077316284,-0.72435,-0.115859985,1.4122008999999998
8.077774,-5.602539,0.09985351599999999,-0.6540375,0.06843567,1.2076721000000001
8.2765045,-6.299255400000001,0.14533997,-0.47613525,0.25379944,0.85614014
8.307617,-7.1372222999999995,0.39193726,-0.27799988,0.40826416,0.46731567
8.752945,-7.941681,0.94021606,-0.1586914,0.5158539000000001,0.12962341
9.303619,-8.41095,1.2179413000000001,-0.1352539,0.6138458000000001,-0.17503357
10.105667,-8.501923,1.6728363000000002,-0.07347107,0.66711426,-0.59155273
11.365021,-8.817963,2.2450562,0.25250244,0.56803894,-0.81526184
12.150314,-9.466782,2.2905425999999998,0.7467804,0.25166320000000003,-0.70448303
12.188628999999999,-9.646347,1.7997284,1.0727539,-0.3757782,-0.81526184
11.515854,-9.014282000000001,1.3400421,1.2431946000000003,-1.1129456,-1.2637329
11.745697,-9.035828,1.3568115,1.2591705,-1.806427,-1.7537688999999999
11.716965,-10.625580000000001,1.8715668,1.0003203999999999,-2.2804717999999995,-2.1745452999999997
9.547821,-10.036605999999999,2.0367584,0.7148285,-2.3912659,-2.5452576000000002
9.370650999999999,-8.6719055,0.8348694,0.5720824999999999,-2.2208099999999997,-2.7732238999999996
11.2213745,-9.244125,-0.15872192,0.517746,-1.8096313000000002,-2.9170380000000002
12.533386,-11.408478,-0.8219146999999999,0.60191345,-1.457016,-3.1247559
12.818298,-13.206528,-1.4898987,0.7648925999999999,-1.2748566000000001,-3.3442078
12.799149,-13.953522,-1.0828857,0.87461853,-1.1203918,-3.4954681000000005
11.664291,-13.498626999999999,0.22674560000000002,0.8234863000000001,-0.8743286,-3.5860138
10.005111999999999,-11.971115,1.0790863000000002,0.79151917,-0.74542236,-3.6222382000000004
8.961243,-10.395736999999999,1.802124,0.8639679,-0.85621643,-3.5391388
8.166367,-9.584106,2.2235107000000003,0.83625793,-0.8732605,-3.3218384
7.474441499999999,-9.426086,2.0343628000000002,0.7787323,-0.89349365,-3.0501862
6.907013,-9.4739685,1.2969513000000001,0.691391,-0.97232056,-2.7689513999999997
6.344375599999999,-9.483551,0.88275146,0.50497437,-0.93611145,-2.4834747000000004
5.4537354,-9.363831,1.0886536,0.23864746,-0.76353455,-2.186264
4.5415497,-9.1770935,0.6002350000000001,-0.05961609,-0.5099945,-1.8507080000000002
3.878357,-8.753311,0.38955688,-0.36642456,-0.25326538,-1.4586792
3.4330292,-8.398972,0.2842102,-0.6582946999999999,-0.022109985,-1.0485535
3.088272,-8.066177,-0.07252502400000001,-0.9437866,0.20585632,-0.62991333
2.8249054,-7.826751700000001,-0.37898254,-1.1451263,0.38375854,-0.16970825
2.4777374,-7.776474,-0.4699707,-1.1248931999999998,0.49028015,0.32989502
2.1425476000000003,-7.9440764999999995,-0.5250397,-0.77227783,0.5211792000000001,0.8273773000000001
2.2431183,-8.384613,-0.34547424,-0.3270111,0.45726013,1.4111328
2.4969025,-9.133987,-0.18266296,-0.14057922,0.34220886,2.147232
2.5495758,-9.660721,0.26026917,-0.07028198,0.28468323,2.7586975
2.2886047,-9.454819,1.1389313,0.118270874,0.25805664,3.0793457
2.5759125,-9.493117999999999,2.264206,0.32814026,0.28042603,3.1134338
3.3133239999999997,-10.757263,2.4294127999999997,0.3387909,0.36351013,3.0825348
3.1744537,-11.319900500000001,1.1748505,0.10549927,0.41891480000000003,3.1858673
4.0267944,-11.202575999999999,0.43504333,-0.18426514,0.49241638,3.3744202000000003
5.9445496,-11.473129,0.6505126999999999,-0.487854,0.96113586,3.4692230000000004
8.23819,-12.315887,0.3536377,-0.7168884,1.5342407,3.1624298
9.756119,-13.359755999999999,-0.8674011,-0.6423187,1.731308,2.5829315
10.060181,-14.183365,-2.1890106,-0.5581665,1.7515564,2.2345886000000004
9.784851,-13.354965,-2.3949127,-0.6231536999999999,1.6013488999999999,2.1930389999999997
9.823151,-10.711777,-1.5449677,-0.7339325,1.3084106000000002,2.2260590000000002
10.364243,-8.353485000000001,-0.80036926,-0.804245,0.9707184000000001,2.1376494999999998
10.313965,-6.225036599999999,0.50686646,-0.7307434,0.62023926,1.9778595
8.896591,-5.6049347,0.32011414,-0.60183716,0.28681946,1.8819884999999998
7.4098053,-5.7916870000000005,-0.57292175,-0.4601593,-0.050872803,1.8233948
6.930953999999999,-5.839569,-0.92007446,-0.2875824,-0.32571409999999995,1.7648009999999998
7.3116302,-5.62648,-0.7453003,-0.19171143,-0.40028379999999997,1.6881104
7.644424400000001,-5.4900208,-0.007888794000000001,-0.25776672,-0.15206909,1.5592041
7.5462646,-5.7701416,0.33209229999999995,-0.45909120000000003,0.29321290000000005,1.2790527
7.709076,-6.375869799999999,0.34884644,-0.6604309,0.6372833000000001,0.9147185999999999
8.23819,-7.0438538,0.41349792,-0.7520446999999999,0.7981415,0.61112976
9.037857,-7.7022552,0.3249054,-0.6700134,0.8737792999999999,0.37356567
10.009903,-8.188278,-0.16590881,-0.42395020000000005,0.86099243,0.06677246
11.127991,-8.346297999999999,-0.48912048,-0.058563232,0.7299651999999999,-0.38809204
12.042572,-8.918517999999999,-0.37420654,0.46342468,0.40505979999999997,-0.58729553
12.167084,-9.507492,0.097457886,0.9374695,-0.11053467,-0.61712646
