accx,accy,accz,gyrx,gyry,gyrz
13.599008,2.8753119,4.8782053,-0.5937785,-0.019128809,-0.5212600000000001
13.678256,0.6750308,4.763312,-0.5884552,0.021310471,-0.42118284
10.306033,-2.3356395,5.075085,-0.48624873,0.10009463,-0.32429963
9.094863,-2.4476883,5.492548,-0.36540213,0.13416345,-0.22689279999999998
9.128047,-0.3230257,4.646829599999999,-0.26319566,-0.004223697,-0.107651904
9.430952,2.179729,3.4020839,-0.18015288,-0.09526007,-0.026197392000000003
10.255179,3.1090242999999997,2.8561103,-0.11255628599999999,-0.113882735,0.05735152
9.591612,2.466277,2.3703172,-0.10564478,-0.054803338,0.11590732
8.334877,1.7617015999999999,2.4532618999999998,-0.14875442,-0.061714843,0.16275196
7.475933,1.0785401000000001,2.4799333,-0.27492425,-0.15859807,0.177116
6.486036299999999,0.7161057,2.2888186000000004,-0.46814966,-0.30445522,0.14678219
6.0818276,0.6603017,2.3754885,-0.6193301,-0.24909338,0.08609709
6.4704165,0.67692703,2.4582226,-0.53576374,-0.19160224,-0.06133087
6.9171743,-0.06111918400000001,2.6044989,-0.29832911,-0.11920599,-0.15395549
7.7290483,-0.6712191999999999,2.3692157000000003,-0.28609437,-0.015411257,-0.14172074
8.201999,-0.45861414,2.1008449000000002,-0.13491395,0.13309881,-0.11936307
8.797293,0.07638461,1.6459466,0.15465362,0.09370673,-0.35890952
9.456062,0.5582895,1.1054891000000002,0.4367861,-0.22780037,-0.7900931
9.6226225,1.115947,0.9012541999999999,0.34735543,-0.29380873,-0.7820995
8.948731,1.3234956,0.62661046,0.007731808299999999,-0.044680428,-0.5212775
8.963135000000001,1.7835653000000002,0.49392378,-0.39416516,0.18207274,-0.45792204
10.302719,2.022813,0.6413779000000001,-0.6235887,0.3630634,-0.49199086
11.664072,1.173178,2.2745109,-0.5432163000000001,0.22146483,-0.41161844
11.534075999999999,-0.27863720000000003,1.7893113999999999,-0.37500143,0.08838347,-0.11936307
11.221604,-0.300185,0.18061857,-0.14449582,-0.025516712999999996,0.16435766
12.06601,0.1955584,1.5502361,0.07745771,-0.19427260000000002,0.43582615
14.198469000000001,-1.2882241,3.6524122,0.1945693,-0.19586085,0.54550266
13.357328,-2.7965807999999996,4.6964087,0.20947441,-0.050544735,0.5364444
9.756631,0.8916677,3.4832091,0.21479768,0.04845034,0.42359140000000006
8.8107395,5.109083,4.5586367,0.20734511,0.15491542,0.28838074
10.382657,3.5980542,4.6196504,0.1966986,0.20975366,0.20853193
10.358035000000001,1.1353688,5.125239,0.2573837,0.15226252,0.16168729999999998
10.098272999999999,-1.8816509999999997,5.050032,0.32606240000000003,0.03673918,0.1622109
9.168757000000001,-2.3452642000000004,4.226341000000001,0.3659781,-0.04574508,0.159558
7.881175999999999,-1.5184985,4.0114849999999995,0.34574974,-0.019128809,0.11749557
8.0932255,-1.0270072000000001,3.2961836000000004,0.34894368,0.10061823,0.028082347999999997
8.189271000000002,-0.97659487,2.7735581000000002,0.37184238,0.06335545,-0.09913469999999999
7.186636999999999,-0.6754809,2.2388084,0.42133993,-0.15646876,-0.2311514
6.9945164,-0.62723297,2.0976462000000002,0.49160690000000007,-0.18308504,-0.29928905
7.543525999999999,-0.75692207,2.1561605999999998,0.49853584,-0.15540412,-0.103934355
7.5667976999999995,-0.7614998000000001,2.1049821,0.305293,-0.046286132,0.12922418
7.342308,-0.48759353,2.090502,0.38355356,0.023963371,0.23940681
7.5065593999999995,-0.20994276,1.8530738000000002,0.45060912,0.28160888,0.2787989
8.063844,-0.56392074,1.5994513000000001,0.29838148,0.34442326,0.5124985
9.300094999999999,-0.41367975,1.3175484,0.057770398,0.040997785,0.8137946999999999
9.946452,-0.37824556,1.0633895,0.03913028,-0.09897762,0.75363314
9.355228,-0.7616722,1.2189839,0.18926351,-0.062255893,0.49811697
8.568196,-0.74104375,1.3212258999999997,0.40432298,0.12884021,0.40709805
9.446323,-0.9642504000000001,1.2525601,0.43305108,0.30077258,0.3522598
10.687946,-1.0882317,1.4362433000000001,0.29253465,0.29066715,0.23727751
11.784241999999999,-0.056120086,1.0253792,0.021031217999999997,0.0575086,-0.025673794
11.099155,0.42002916,0.30367097,-0.27970648,-0.12452924,-0.40310124
11.211951,-0.76910377,1.4760445,-0.46495572,-0.2576106,-0.56918675
11.941474000000001,0.5820879,5.0247207000000005,-0.56077427,-0.19427260000000002,-0.57396895
12.902123,2.826604,5.2746463,-0.60815996,-0.10697123,-0.51595426
12.645953,1.9385085,5.1833124,-0.57409114,0.019181168000000002,-0.39884263
9.849506,-1.721297,4.546646599999999,-0.46762607,0.14107497,-0.28119
9.505230000000001,-2.7643452,5.382759,-0.34465018,0.15439183,-0.20772909
10.031361,-0.36444540000000003,4.8638496,-0.27331856,-0.014870205,-0.12735668
10.2417345,2.3163712000000003,3.5533307,-0.25521950000000004,-0.17776178,-0.05496042
10.881541,3.1050978,2.7699766,-0.24404939,-0.16020377,0.02115339
9.950762,2.4454951,2.3499377,-0.25202554,-0.052132983,0.06852163
8.406099000000001,1.9242008000000002,2.339614,-0.3137753,0.02289872,0.13294172
7.174321000000001,1.3829004999999999,2.2515552000000003,-0.42556363,-0.12346459,0.16116370000000002
6.394778700000001,0.7374715999999999,2.0615802,-0.52192324,-0.3135135,0.11164871
6.0292897000000005,-0.042578485,2.277968,-0.6033603,-0.26666886,0.027000242999999997
6.3500934,-0.16423267,2.4305649,-0.4628264,-0.10749483,-0.12520991
6.8238482000000005,0.020398598,2.418766,-0.32761574,0.017051866000000002,-0.24605651
7.331285,0.04223372,2.1089087,-0.25256660000000003,0.14426892,-0.2833193
7.8200088,0.37475959999999997,1.7932571,-0.020996312000000003,0.28586748,-0.35571554
8.633969,0.48425123,1.4769063999999998,0.16315338,0.010122909,-0.6133784999999999
9.426910000000001,0.48966214,1.2184666000000002,0.3170216,-0.15859807,-0.71982616
9.564060000000001,0.6427185999999999,1.0798712,0.23076743,-0.12452924,-0.62135464
9.086714,0.9416011999999999,1.3183528,-0.2594781,-0.0665145,-0.44994587
9.332474000000001,1.047875,1.110967,-0.67736226,0.24914575,-0.31260592
10.849669,1.5711708999999998,0.93296295,-0.7066314,0.27096236,-0.37913787
12.253964,1.2307633,2.0331657,-0.52670544,0.16982053,-0.32696998
12.758672,0.56361425,1.1180348,-0.29993483,0.038868482999999995,-0.14172074
12.620106,0.2953966,1.1924274,-0.116291285,-0.103777274,0.12494812
13.117142000000001,-1.0227647,2.8533137,-0.08061676,-0.12826425,0.37461746
13.311025,-3.4837933,3.6040301,-0.127985,-0.12239994,0.4108156
10.317755,-0.5917892,4.044745,-0.17058848,-0.02125811,0.35917129999999997
9.394263,3.1054235,4.356288,-0.15833627,0.081454515,0.2378011
9.362544999999999,4.225153400000001,3.6806924,-0.09978047,0.13362241,0.11697197
9.271335,2.8653134999999996,4.0513725,-0.00076794485,0.11180579,0.13720033
9.510545,-0.5765237,4.8996663,0.11526154,0.023439772,0.15582299
9.294052,-2.7980267999999997,4.507918,0.22704989,-0.06277949,0.16275196
8.931675,-2.2680272999999995,4.199401,0.3010344,-0.02232276,0.16701056
8.277866,-0.86227655,3.5595076,0.34362042,0.13203415,0.08450884
7.8347955,-0.04344039400000001,2.8187606,0.35480797,0.20495401,-0.07464773
7.513685000000001,0.14618038,2.4668417000000002,0.32445672,0.06389651,-0.20186478
7.2464247,0.12869313,2.2497644,0.32445672,-0.13252285,-0.21837559999999998
7.4191523,-0.47347733,2.5761707,0.42879248,-0.14156365,-0.13213888
7.160817999999999,-1.3147997999999999,2.4881884999999997,0.26005405,0.028221974,0.13187708
6.698775299999999,-2.0036595,2.4545262,0.17168804,0.10381218,0.26122344
7.2962050000000005,-1.5762848999999999,2.3684497,0.35161403,0.31887165,0.21544345
8.398783,-0.8204833,2.0929346,0.21586232,0.41788417,0.42359140000000006
9.577936,-0.24049276,1.7409103,0.03806563,-0.10323623,0.7754498000000001
10.529977,-0.36815159999999997,1.1968901,0.029024825,-0.100042276,0.8489107
10.536480000000001,-0.93336517,0.8503341999999998,0.24673720000000002,-0.12932889,0.56145495
9.173556,-1.3999376000000001,1.0841041999999999,0.55655056,0.08306022,0.41294490000000006
8.548469,-0.8940332000000001,1.8463221999999997,0.6369405,0.34655258,0.34320155
9.440251,-0.097099245,1.4182773000000002,0.4953419,0.36199874,0.2851868
10.807283,-0.5651560999999999,0.6503035,0.23396139,0.20921262,0.10206685
11.720555000000001,-0.083078794,1.390878,-0.03164282,-0.0074176495,-0.19814722
11.645416,-0.67182255,1.1490348999999997,-0.19240509,-0.17030923,-0.42278856
11.899555,0.53153193,5.0274114999999995,-0.27705356,-0.12932889,-0.47921506
12.282743,2.9603155,5.449078599999999,-0.2632131,-0.006894050600000001,-0.44621086
13.067275,1.1691175,5.050760299999999,-0.20198695,0.07880162,-0.32696998
10.9116125,-1.9233484,5.1337433,-0.10084512,0.16503833,-0.19655898
9.543202,-2.7777624,5.460187400000001,-0.03218387,0.15172148,-0.13213888
9.513552,-0.48698062,4.98559,-0.0023736479,-0.0074176495,-0.052290063
9.693558,2.4092755,3.6477578,-0.0045029493,-0.091001466,-0.011309733999999998
10.329161000000001,3.4028117999999994,3.0232924999999997,-0.04441863,-0.10430088,0.030735249
9.41947,2.7907677000000004,2.6315055,-0.12533209,-0.041486476,0.067456976
7.665553599999999,1.8470691000000004,2.7536097,-0.26907742,-0.03403392,0.11271336
6.8131509999999995,1.0650556999999998,2.8552482000000006,-0.39575340000000003,-0.15700983,0.1574287
6.2236314,0.40423703,2.8102756,-0.52883476,-0.39920917,0.14304718
6.1448913,-0.18336713,2.6241791,-0.63477623,-0.38856265,0.06373943
6.824337,-0.19191921,2.5692656000000005,-0.41226423,-0.21821852,-0.049637165
7.419717299999999,-0.02891238,2.5798767000000002,-0.2131745,-0.093654364,-0.12629202
7.9611516,0.35719573,2.2987783,-0.2067866,-0.0074176495,-0.20453514
8.336686,0.82691896,1.9137811999999998,-0.006091199,0.22572343,-0.28386036
8.570266,1.0893329999999999,1.6420776999999998,0.3159395,-0.09845402,-0.65488243
8.938972,1.2140038999999998,1.2873622999999998,0.48947757,-0.35023522,-0.8752652
9.052907000000001,1.5488282,1.0534296,0.33564427,-0.19799015,-0.56119317
9.040716,1.7246296000000003,1.2278041000000002,-0.15940093,-0.028187068,-0.32058206
8.903547999999999,1.2824398000000001,0.89523995,-0.59112555,0.23636994,-0.28598964
10.121248,1.2898521,0.72992504,-0.6986553000000001,0.28693214,-0.36849135
11.453047,1.1964401000000002,2.512006,-0.558645,0.13681635,-0.31154126
11.419088,0.10617805,1.5200787,-0.31963959999999997,0.0053407075,-0.07251843
11.533099,0.2839619,1.1017255,-0.060929444000000006,-0.13624041,0.20959659
12.654351,-0.055784900000000005,3.2589967,0.11632619,-0.23685864,0.42997932
14.824063,-3.5543169999999997,5.3876624,0.17327629,-0.23579398,0.5273861
12.456265,-2.121914,4.017068,0.17327629,-0.104841925,0.48160616
8.758833000000001,4.000146,3.9185324,0.16636479,-0.027646014,0.34958944
8.90961,5.3710947,4.2435503,0.1184555,0.021834067999999998,0.19840904
9.924149,2.956523,4.577751999999999,0.10407399,0.04579744,0.10897836
9.968048,-0.52574754,5.036768,0.14720106,-0.014346606000000001,0.08450884
9.345096,-2.5538855,4.885024,0.20628047,-0.08567821,0.07597418
8.373395,-2.4485787999999995,4.4098516,0.2483429,-0.09526007,0.06480408
7.792676400000001,-1.604527,3.8544924,0.28719392,-0.0074176495,0.0137008345
7.876894999999999,-1.0251206,3.3852575,0.33829716,0.12564625,-0.11990411599999999
7.3407564,-0.70100313,2.9451554,0.36332518,0.096359625,-0.25192082
7.155464,-0.5002349,2.5390412999999996,0.34309682,0.041538835,-0.28651324
7.5516667,-0.7499693000000001,2.4805558,0.43092179999999997,-0.04309218,-0.21891665
7.777995,-1.0231382,2.3641400000000004,0.4623377,-0.05532694,-0.05602507
7.6062354999999995,-0.8370225,2.3280067000000004,0.21638592,-0.023387412000000003,0.16594589999999998
7.8387885,-0.2699989,2.1484509999999997,0.31860986,0.081454515,0.19788542
8.417783,-0.10990343,1.8389958,0.41655773,0.29066715,0.17446311
9.137078,-0.27709535,1.7022869999999999,0.35161403,0.321542,0.4001691
10.000026,-0.5469984999999999,1.5071404,0.15145968,0.041538835,0.76427966
10.658124,-0.8185776,1.2404646000000001,0.057770398,-0.08567821,0.81964153
9.906518,-1.1293545,0.9012733,0.15837118,-0.08461356,0.5880711999999999
8.704149000000001,-0.6405352,1.3248268,0.31326914,0.08890707,0.4784122
8.623579,-0.22210529999999998,1.6646310000000002,0.4000469,0.2896025,0.38207003
9.544533,-0.35468662,1.111896,0.29996973,0.3385764,0.27401668
10.921457,-0.3170785,0.7759895,0.05297074,0.14107497,0.06906268
11.645532000000001,-0.5067376,0.6743316999999999,-0.22540927,-0.09046041,-0.2726728
11.735342999999999,-1.4505318,1.3278625,-0.42662829999999996,-0.24164084,-0.5020962999999999
11.5014,0.3603082,4.134537,-0.52246433,-0.19799015,-0.5430941
12.117849,2.9718459,4.475194,-0.5666386,-0.11868239,-0.5026374
12.50775,2.199534,4.821807,-0.53735197,-0.04309218,-0.41587704
10.069284,-1.2414128,4.4510984,-0.45750317,0.11287044,-0.3046123
9.176985,-2.4199824,5.432693,-0.37287214,0.15278612,-0.23221606
9.618811,-1.035521,5.344433,-0.29674090000000003,0.045256387,-0.15929620000000003
9.571473,1.6472011999999998,3.880235,-0.26001915,-0.06597344599999999,-0.11245156
10.344369,2.7286048,3.248424,-0.23446754,-0.103777274,-0.06080727
9.913105,2.409381,2.5994136,-0.22434463,-0.06970845,0.017418386
8.629096,1.8477683,2.702958,-0.25895450000000003,-0.0090233525,0.10845476
7.6390834000000005,1.4632114999999999,2.5688922,-0.3659432,-0.04522148,0.18830357
7.167147999999999,0.8884404,2.4924886,-0.5187293,-0.22673573,0.19682078
6.9932623,0.3013917,2.516143,-0.6597868,-0.34065336,0.16168729999999998
7.108576299999999,0.09649590400000001,2.4473243,-0.6677804,-0.24270548,0.03764675
7.358598,0.12340673,2.5515964,-0.37606609999999996,-0.19266689,-0.13161528
7.5591173,0.037110128,2.3115156000000003,-0.33880332,-0.10217158,-0.25617942
7.9585276,0.16200127,1.8754259999999998,-0.42184609999999995,-0.02125811,-0.20614083
8.347298,0.45049298,1.5192263000000001,-0.38990656,0.09210102,-0.19975293
8.999594,0.49088797,1.2013625,-0.15727162,-0.079813905,-0.45846307
9.180538,0.59465265,0.93738747,-0.0055676005,-0.124005646,-0.7017270999999999
8.961352999999999,0.80545735,0.8799841,0.010384709,-0.12719959,-0.7437895
8.711063000000001,1.2615911,1.0370437,-0.0667763,0.054314647,-0.75602424
9.308676,1.9568863999999997,0.8432953000000001,-0.382454,0.2778913,-0.7107853
11.093638,1.8516276999999999,2.0669143,-0.47668433,0.26618016,-0.5303357
12.09521,0.2441511,2.335266,-0.32229250000000004,0.09955358,-0.22317526
11.590762,-0.91157794,0.25549006,-0.020472713,0.043668135999999996,0.11803662
11.202326,0.9403370999999999,-0.089840025,0.2589894,-0.0712967,0.38845792
12.105879,1.1804755,1.6077639,0.42613959999999995,-0.15859807,0.607776
12.923872,-1.2421023000000002,3.6210864000000003,0.49160690000000007,-0.053197637,0.6647261
11.427783,-1.7574398999999998,4.273372,0.49001864,0.038868482999999995,0.61948717
9.56902,0.015437813,4.9506917,0.4830897,0.17194983,0.5391148
9.591764999999999,1.687127,5.50358,0.48202503,0.23369959,0.42943826
10.370743,1.9367942999999999,4.744551,0.48363075,0.14852752,0.32510248
10.041061000000001,1.3374107,5.1452165,0.49214795,0.07986627,0.19734438
9.781033,-0.82878643,4.7982197,0.44369759999999997,0.0021467548999999997,0.09354965
9.371039,-2.147302,4.243282,0.39898226,-0.02019346,0.03286455
8.814224000000001,-2.2383585,3.5331905,0.3201981,0.09103637,-0.033649947
9.199423,-1.4362146,3.040023,0.29197612,0.14639822,-0.13055062
8.094834,-0.87722594,2.4989912999999997,0.34468508,0.03141593,-0.23488641
6.9292603,-0.45755109999999993,2.3239942000000005,0.39791763,-0.11707669,-0.26734954
6.9565444,0.07452671,2.1767217999999997,0.43891540000000007,-0.12346459,-0.20027652
7.118803999999999,-0.4098585999999999,2.435593,0.38142425,-0.064908795,0.016353736
7.0505023,-0.9435549000000001,2.265767,0.24780184,0.11765265,0.25590017
7.169494599999999,-0.8313243,1.8354526000000002,0.39154717,0.33590606,0.39751620000000004
7.646975,-0.10684843,1.6823577,0.22331488,0.3220656,0.5907416
8.696411,0.1884141,1.5142368,0.15891223,-0.07609635599999999,0.71370006
9.973995,0.0703608,1.1068203,0.11206759,-0.105906576,0.55347884
9.964677,-0.15942511,1.1633618000000001,0.23343779,-0.022863812999999997,0.29263934
9.111144,-0.44015005,1.4249907,0.37875390000000003,0.20868902,0.18137461
8.794506,-0.81482345,1.6538186999999998,0.39844123,0.3721042,0.21437879
10.251061,-0.9642886999999999,1.4427938,0.27974138,0.388615,0.27986354
11.760568,-0.41766369999999997,1.0133028,0.056705747,0.33112386,0.21172589
12.0573435,0.30234936,1.4174632,-0.12054989,0.15652113,-0.011309733999999998
12.449149,0.35033876,2.173485,-0.25150195,-0.027122416,-0.26947883
12.778851,1.5481675,4.1292605,-0.29993483,-0.042551125999999995,-0.3983016
12.840277,1.7147273,3.8165681000000005,-0.29408798,0.030892327,-0.38126716
12.523398,-0.7411108000000001,3.7810477999999996,-0.23872614,0.12404055,-0.24553291
10.368799000000001,-1.582711,4.4868107,-0.16739453,0.14746287,-0.14543828
8.910442999999999,-0.91130024,4.9061794,-0.14130186,0.081454515,-0.09913469999999999
8.216345,0.8979597,4.491417,-0.15142477,-0.029775318,-0.062412973
8.225386,2.594309,3.3888202000000005,-0.17856464,-0.05160938599999999,-0.10445795
8.918583,2.3582122,3.006016,-0.23179717,-0.012217305,-0.12468632
8.786107000000001,1.1265484,3.0309060000000003,-0.34625587,0.05857325,-0.08529424
7.8498589999999995,0.29846117,2.8587728,-0.46069709999999997,0.062290803,0.0073129297
6.999736,0.5354009,2.7071237999999997,-0.54373986,-0.17936748,0.08342674
6.635147,0.91008395,2.6742465,-0.6118775,-0.4540474,0.07916813
7.111813499999999,0.9841318000000001,2.8939195,-0.6374291,-0.41624358,0.039776053
7.6175165,0.7946164000000001,2.9140117,-0.541087,-0.32096604,-0.06932448
7.683328599999999,0.48979620000000007,2.608473,-0.30738738,-0.23951153,-0.15981979999999998
8.225643,0.22083159,2.1271139999999997,-0.25467846,-0.09526007,-0.17791887
8.972261,0.48895347,1.9262119999999998,-0.071575955,0.25979227,-0.21837559999999998
9.56183,1.026289,1.854903,0.26057765,-0.038292522999999995,-0.6293308000000001
9.93543,1.7417339,1.48927,0.4463505,-0.26825709999999997,-1.0541439
9.753288000000001,1.9339116000000003,1.0919858,0.27974138,-0.28742080000000003,-0.79702204
8.547846,1.3262154,0.8373959999999999,-0.36274922,-0.15753342,-0.37913787
8.279323,0.69746923,0.66366315,-0.78382736,0.14374532,-0.19336502
9.39798,0.62260735,0.6396158000000001,-0.73111844,0.1900489,-0.2242399
10.781549,0.5136808,1.8743343000000001,-0.47986080000000003,0.03354523,-0.16036086
10.628733,0.5066130999999999,1.6175226999999999,-0.19027579,-0.17563248,0.0919614
10.617509,-0.43400174,0.6315234000000001,0.08119272,-0.23579398,0.42517966
11.467307,-0.8112991999999999,3.119415,0.20308651,-0.3475823,0.63598055
14.299763,-4.2350650000000005,6.592175999999999,0.20628047,-0.19320795,0.6280044
13.411753,-2.9571549999999998,5.767258,0.17434093,-0.05532694,0.48640582
9.545041000000001,3.8141263,4.4255095,0.16210619,0.030892327,0.33574899999999996
8.752894,6.575225,3.0561123,0.12908456,0.04845034,0.20957914
9.756966,4.1915574,4.1290402,0.13121386,0.014922565,0.13613568
10.4653425,-0.6101671,5.154065,0.1839228,-0.102712624,0.12229522
10.155466,-4.0004334,4.865334,0.19723965,-0.16659167,0.07278023
8.775267,-3.1943824,4.222893,0.18872245,-0.15062192,-0.017156586
7.9983573,-1.4746846000000002,3.6273017,0.21640338,0.044732787,-0.13267992
8.150658,-0.40193856,3.1119068,0.30209905,0.20282471,-0.23701571
7.436170599999999,0.177056,2.624361,0.3888768,-0.009546951,-0.2870543
6.9427156000000005,0.21436726,2.4024472,0.4351804,-0.15008086,-0.19760618
7.066821000000001,-0.56143075,2.3865976000000004,0.5474923,-0.12452924,-0.043249257
7.4258947,-1.3527143,2.2295667999999997,0.34255576,-0.09152506,0.23834217
7.3383045,-1.1498106000000001,2.1913072999999996,0.3047694,0.030892327,0.33787829999999996
7.673301700000001,-0.5716396,1.9602574000000001,0.55922097,0.27841493,0.2942276
8.102352,-0.5348071999999999,1.6096697,0.49054223,0.44769440000000005,0.37301177
9.472353,-0.49177858,1.2515546,0.34681436,0.02289872,0.6812369
11.112074,-0.44185472,0.939638,0.23397884,-0.024993114,0.8877792
10.725201,-0.9131485,0.7862941,0.32552135,-0.10803588,0.7275404999999999
8.851402,-0.9634171999999999,1.0707253,0.5123763,-0.028710665,0.51302207
8.030564,-0.80944127,1.1807053,0.5688028,0.18633135,0.39803979999999994
9.179686,-0.74376357,1.3897096000000002,0.5070531,0.27576202,0.25111797
10.652407,-0.5709405,0.9903376,0.25579545,0.075607665,-0.016091935
11.726283,0.042214565,0.97929555,-0.03111922,-0.16072737,-0.32855824
11.589976,-0.50849974,0.38389587,-0.22275637,-0.25389305,-0.5239304
11.360861,-0.65828097,3.262301,-0.3217689,-0.21821852,-0.5239304
11.710251,2.301326,5.162684,-0.36913714,-0.08141961,-0.43610543
12.449063,2.67938,5.4421062000000004,-0.37658969999999997,0.059096847,-0.32377604
11.383491000000001,-0.12774503,4.766128,-0.29941124,0.16077973,-0.23540999999999998
10.028698,-2.3161411,4.825236,-0.19933406,0.18952529999999998,-0.16887806
10.278634,-1.7140664,4.9163685,-0.1418429,0.039409533,-0.09168214
10.592791,0.97400916,3.6704452000000005,-0.118420586,-0.010611602,-0.006510078000000001
11.000926,2.3140821,2.7522976000000003,-0.13173746,0.10967649,0.054681167
10.071449000000001,2.621603,2.2036328,-0.18336429,0.17194983,0.12335987400000001
8.513159,2.2354755,2.2004151000000003,-0.26853636,-0.011152654,0.1600816
7.1409364,1.6568258999999999,2.298175,-0.40001202,-0.29647908,0.11803662
6.1176353,0.8176869000000001,2.15436,-0.52405256,-0.27625072,0.09089675
5.6674584999999995,-0.031459812000000004,1.9644138,-0.4436627,-0.20598376,0.0067718774
5.962778,-0.08661264,2.1493707000000004,-0.27331856,-0.12878785,-0.18004817
6.497806,0.019709067,2.4139972000000003,-0.26267204,0.095294975,-0.25563836
7.4948473,-0.047539267999999996,2.3447855,-0.012496557,0.30450758,-0.28066638
8.903433,-0.09818143,2.0651042,0.27974138,0.020769417,-0.55428165
9.483289,0.16145538,1.7014729,0.40804052,-0.18734364,-0.8230973
9.525379,0.52268296,1.323984,0.32871532,-0.08726646,-0.5484173000000001
9.135919,0.8649771999999999,1.1348898,-0.18069394,-0.07716101,-0.26256734
8.812377,0.9516664,0.7650911,-0.5714208000000001,0.21720622,-0.21572270000000004
9.7918825,1.7881048,0.17560992,-0.5767439999999999,0.34122932,-0.32325244
11.883992999999998,1.7662505000000002,1.2964889,-0.38990656,0.23263493,-0.33922220000000003
12.503143,0.62202317,1.2917292,-0.19294615,0.038868482999999995,-0.12575097
11.969533,0.64378166,0.8511196,-0.04441863,-0.011676253000000001,0.13187708
12.315965,-0.27697083,3.7176206,0.03487168,-0.11442378,0.33255503
13.99634,-4.1909738,4.862001,0.07213446,-0.08833111,0.42626175
12.861556,-3.023666,4.130649,0.08065166,-0.0084823,0.37461746
9.511531,3.0922549999999998,4.141241,0.05190609,0.106482536,0.24366541
9.036234,5.1808895999999995,3.3583372000000002,0.026354471,0.16823229,0.12388347
9.748969,3.4354305,4.037783,0.081716314,0.11658800000000001,0.053616515999999996
9.751708,-0.23334847,4.8122305999999995,0.19722220000000001,-0.050544735,0.06480408
9.356062,-2.970802,4.655966,0.2526015,-0.16233307,0.08929104
8.815135,-2.4864457000000004,4.008104299999999,0.28560567,-0.14901622,0.107390106
7.991423599999999,-1.0807712999999999,3.542499,0.33616787,-0.040421825,0.075450584
7.516922,-0.47314215,3.0858578999999997,0.38407716,0.081454515,-0.028867746
6.915546400000001,-0.27284324,2.741045,0.37768924,0.07400196,-0.18271852
6.886145599999999,-0.43915406,2.4377475,0.41282272,-0.12985249,-0.25352654
7.270932000000001,-0.74631095,2.4696765,0.63107616,-0.11974704,-0.15714945
7.4214697,-1.1947067,2.410243,0.58529615,-0.15008086,0.07065093
7.3463974,-1.0561111,2.4826531000000003,0.30316368,-0.072902404,0.3229732
7.416384700000001,-0.6277596999999999,2.217768,0.3654545,0.007993608000000001,0.29796259999999997
8.056650999999999,-0.67942655,1.8338245,0.33403856,0.32899457,0.20320868
9.2060795,-0.68884057,1.647364,0.12856095,0.18791960000000002,0.41240385
10.17643,-0.6117952,1.3748273000000002,-0.039636426,-0.111753434,0.6812369
10.538250999999999,-0.83708954,0.81123215,0.021031217999999997,-0.104841925,0.6636614000000001
10.258953,-1.3131716999999998,0.8184435,0.23450243,-0.07449065,0.48108256
8.734967,-0.9501821,1.4416924999999998,0.44158575,0.11606439,0.41455059999999994
8.744171000000001,-0.9632831000000001,2.173035,0.47031388,0.2896025,0.30913273
10.152086,-1.0421289,1.0501639999999999,0.32606240000000003,0.22891739,0.13187708
11.408783,-0.03691859,0.47821784,0.025830872,-0.05799729,-0.19388862
11.646795,0.4386465,0.14386279999999999,-0.2712067,-0.2639985,-0.4760210999999999
11.869859,-0.37022018,1.2966613999999999,-0.4782726,-0.2868972,-0.56384605
12.260860000000001,1.4586912,4.9271709999999995,-0.62838835,-0.19001399,-0.5287126
12.757456,2.3284667000000003,5.1413183,-0.693332,-0.0707731,-0.4829326
12.179648,0.8929894,5.305177,-0.6326469,0.010122909,-0.40681880000000004
9.598556,-2.0645201,5.059849,-0.5086064,0.08571312,-0.31471777
9.0609045,-2.5272522,5.484493700000001,-0.40533528,0.04579744,-0.18111281
9.820086,-0.020254945,4.562361699999999,-0.29035297,0.013316861999999999,-0.054419365
10.584172,2.3729508,3.5225794,-0.21689206,0.037803832,0.003577925
10.595291,3.0523775,2.7557359,-0.23073253,0.09690068,0.04351106
9.181429,2.8046922999999997,2.2665331,-0.3244218,0.09690068,0.12016592
7.773053599999999,2.3547835,2.0974739,-0.5086064,-0.03244567,0.17552777
7.213930599999999,1.6207118,1.9203126,-0.650746,-0.17085028,0.17926277
6.930878999999999,0.7443573,1.9760303,-0.72101295,-0.23047073,0.13720033
6.814050999999999,0.15862066,2.0119147,-0.6294529999999999,-0.22621213,0.013159783000000001
6.9008746,-0.074028715,2.0889409,-0.31431633,-0.16126843,-0.11936307
7.0343947,-0.21723070000000003,2.1730924,-0.23127358,0.03354523,-0.09541715
7.4513300000000005,-0.18664239999999999,2.0851295,-0.19985765,0.23157029,-0.04696681
8.08452,0.083969444,1.8055058999999998,-0.006632251,0.26670375,-0.23860396
8.731031,0.29150844,1.508098,0.24089034,-0.10855948,-0.67245793
8.849707,0.96051544,1.2740697,0.34948474,-0.18521434,-0.9210451
8.749025999999999,1.416448,0.9967253,0.1966986,-0.14369296,-0.7666881999999999
8.947084,1.3937988000000001,0.90971047,-0.25256660000000003,0.11499974,-0.4951848
10.006278,1.2859737,0.787338,-0.5149943,0.3678456,-0.3131295
11.384468,0.36712688,1.6322421999999999,-0.43781585,0.25766295,-0.20985839
11.838772,-0.66437185,1.7188740000000002,-0.16578883,0.1229759,-0.006510078000000001
11.805857000000001,-0.24089499999999997,0.013024457,0.16795303,0.013857913999999999,0.26017624
11.919476,0.4604433,0.78795093,0.40697587,-0.09897762,0.49918163
13.008205,-0.3510283,3.5889275,0.5288696999999999,-0.1357168,0.61735785
13.235999,-2.7341783,5.13404,0.5751906999999999,-0.040421825,0.6599439
10.583646,-1.0284821,5.5530925,0.57199675,0.030892327,0.56838393
8.97002,3.2862139999999997,4.908085,0.5751906999999999,0.15226252,0.43104395
9.874042,4.4028893,4.3036447,0.5671971,0.22624703,0.29051006
10.181830999999999,2.4394426,5.095637,0.5491155,0.21453588,0.23675391
10.002974499999999,-1.0704571000000003,5.1555204,0.5586799,0.119258344,0.20320868
9.311088999999999,-2.7799459,4.525539,0.5475098,0.022375122,0.15688765
8.627822,-2.2913468,4.0670495,0.5107706,0.018640116,0.08662069
8.326611999999999,-1.3560088,3.2486347999999996,0.5150292000000001,0.009599311,-0.030473447999999997
8.01143,-0.8174570999999999,2.664689,0.49106583,-0.19214329,-0.21094050000000003
7.002638,-0.3517657,2.2943442000000003,0.42240459999999996,-0.38590974,-0.3376165
7.1484447,-0.28928658,2.2971983,0.3846182,-0.32948324,-0.30089477
7.54978,-0.6533106,2.2699425,0.37662458,-0.14262831,-0.11990411599999999
7.751707000000001,-0.9787591999999998,2.0712811999999996,0.068940505,-0.063844144,0.16540486
7.6015809999999995,-0.60961163,2.122728,0.16636479,-0.0037000979999999998,0.25111797
7.6815276,-0.04039497,2.005077,0.35000834,0.26192155,0.21863739
8.26148,0.04201345,1.631773,0.28134707,0.26031587,0.43849653
9.32553,0.100700125,1.4064595,0.17221163,-0.16126843,0.79089594
9.598901,-0.13610558,1.2281201000000002,0.14826572,-0.14262831,0.8489107
9.171813,-0.33928709999999995,0.7117004,0.24408429999999998,-0.17723818,0.72595227
8.508724,-0.30603644,0.5253932,0.40217623,0.15971509,0.63065726
9.197326,-0.17277518,0.75989085,0.39526471,0.25340435,0.4539427
10.5015335,0.2904837,1.1247863999999999,0.24993114,0.24275784,0.21012019
11.174841,0.34022564,0.80055404,-0.0082205,0.014922565,-0.11723377
11.189771,0.21911734,1.0477793,-0.25841343,-0.19266689,-0.44195226
11.217391000000001,-1.1795368999999998,1.7749653000000003,-0.382454,-0.21608922,-0.59632665
11.801844000000001,0.20397641,4.668789,-0.4521799,-0.14049901,-0.6021734999999999
12.193487,2.2941146,4.94825,-0.4473977,0.0032114058000000003,-0.50743705
11.439688,1.2833496000000002,4.976013,-0.35210273,0.15226252,-0.35997415
9.891396,-0.5160367,4.80999,-0.21476276,0.19643681,-0.23647466
10.2565975,-1.5396154,5.3182116,-0.15088372,0.06974336,-0.16514306
10.9242735,-0.15742356,4.628902,-0.13491395,-0.091001466,-0.075188786
11.040804,1.8848592,3.3952652999999997,-0.12161454,-0.09258971,0.0014660766
10.465707,2.4436178,2.5325484,-0.13224360000000002,-0.0037000979999999998,0.011571533
9.423387,2.1014867,2.2549837000000004,-0.20305161,0.05057964,0.022218041
8.109572,1.7191805,2.2557402,-0.34039158,-0.09526007,0.08183849
6.878876700000001,1.1861258999999997,2.219176,-0.541628,-0.25389305,0.11058406
6.073994,0.41225280000000003,2.1782062,-0.7587993000000001,-0.18414968,0.11377801
6.19877,-0.1972535,2.3934450000000003,-0.7369826999999999,-0.1964019,-0.0336674
6.7967076,-0.76590514,2.525356,-0.5107357,-0.13304645,-0.25776768
7.376009,-0.63830376,2.2889909999999998,-0.37871900000000003,-0.012217305,-0.31579986
7.90055,0.29248527,2.0054216,-0.12054989,0.24914575,-0.25190338
8.677114,0.8008029999999999,1.6890806,0.28293532,0.1751438,-0.39617229
9.278767,0.583534,1.2696835,0.5677382,-0.12239994,-0.68949234
9.553938,0.5646485,1.0181103999999999,0.49267155,-0.24057618,-0.5995206
9.065281,1.2636501,0.8278575,0.08864527,-0.09206612,-0.3562566
9.01731,1.9660035,0.50826985,-0.3526438,0.15758578,-0.38285542
9.872155000000001,2.3253732000000005,0.43581173,-0.5256408,0.3071605,-0.49731413
11.615326,1.7521056000000002,1.6121405,-0.43568653,0.17568484,-0.39297834
12.129505,0.46166912,1.5755763,-0.26480135,-0.030839968,-0.08688249
11.577459,-0.34104925,0.27312094,-0.05773549,-0.1341111,0.19575612
11.840745,-0.5599845999999999,1.8743151000000002,0.064158306,-0.29647908,0.39271653
13.862859,-2.752968,4.212445,0.10407399,-0.27677432,0.4784122
13.579002,-3.9779756,4.785875,0.07426376,-0.17030923,0.42678535
9.539295,0.6303454000000001,3.4979286,0.03913028,-0.0712967,0.28464574
8.066009,5.752855,3.8450017,-0.0028972465,0.06974336,0.14678219
9.955445,4.019175,4.380240000000001,-0.041224677,0.19697785,0.051504667999999997
10.020223,1.0162045,4.95662,0.015184363999999999,0.19217820000000002,0.004642576
9.549025,-1.8740853,4.8943900000000005,0.12377875,0.06122615,0.018483037
8.918488,-2.527942,4.3071589999999995,0.24089034,0.016510814,0.038728856
8.203119000000001,-1.9239708999999998,3.7797358,0.29731685,0.019704766999999998,0.031799898
8.278977000000001,-1.0624126,3.0867963,0.32925636,0.07667231599999999,-0.012356931000000002
8.031349,-0.43870395,2.7312765,0.36810738,-0.09206612,-0.103934355
7.4114813999999996,-0.22850262,2.2470732000000004,0.36971309999999996,-0.35555848,-0.21676989
7.253090400000001,-0.38328296,1.9616363999999997,0.4783075,-0.2677335,-0.18697712
7.536659700000001,-0.71768594,1.7646607,0.40804052,-0.023928462999999997,0.027541295
7.828273299999999,-0.9953846,1.9518203,0.21001546,0.03302163,0.24631831
7.947514,-0.6078399,2.1164264999999998,0.29518753,0.13575171,0.29051006
7.942515400000001,-0.2841151,2.045309,0.14985397,0.3822271,0.3671649
8.467564,-0.8886415000000001,1.7279241,-0.055065135999999994,0.040474183999999996,0.6434331
9.528903,-1.0211270000000001,1.0709743,-0.073705256,-0.09845402,0.6892305000000001
9.730141,-0.46516466,0.7475463999999999,0.10622074,-0.14901622,0.4970523
9.2663555,-0.63627344,1.0029694,0.2552544,0.06335545,0.40123373
9.07842,-0.9106586,0.80992013,0.27708846,0.26244515,0.32405528
10.00671,-0.7611741999999999,0.86262125,0.13601351,0.37264526,0.20533799
10.893857,-0.45174757,0.29283002,-0.09712757,0.25286329999999996,0.028064894
11.313092,0.27232608,0.63640755,-0.30684632,0.027157322999999997,-0.28225464
11.24185,0.031996112,0.65807986,-0.46814966,-0.16339773,-0.5617342
11.909152,-0.5588546,3.2367882999999997,-0.5277701,-0.13252285,-0.6729815
12.833677,1.6067871,5.276581299999999,-0.5533216999999999,-0.08461356,-0.63304836
12.710184,1.5630306,5.398149,-0.5256408,-0.040421825,-0.5223247
10.486115,-0.45769477,4.5970974,-0.43301618,0.0090582585,-0.40629518
9.523598,-1.8699863999999997,5.2182584,-0.34732053,0.0575086,-0.2881015
9.850166999999999,-0.47023082,4.944151000000001,-0.3201632,-0.047350783,-0.15608479
9.991827,2.2051365,3.8139730000000003,-0.3004759,-0.12559389,-0.027262043
10.592896000000001,2.9367661,3.0344496,-0.27970648,-0.13678145,0.048834313
10.768208999999999,2.1566586,2.5773770000000003,-0.3132517,-0.12878785,0.096202545
9.890419,1.2978393,2.3385317000000003,-0.39629444,-0.038292522999999995,0.15210545
8.338459,1.0610719,2.2045522,-0.54906315,0.0053407075,0.21544345
7.046624,0.7345794,2.1320748,-0.71888363,-0.08407251,0.19627973
6.364813,0.33199918,2.3531459999999997,-0.73963565,-0.21237166,0.0940907
6.122146,-0.14042471,2.4352384,-0.49317768,-0.17563248,-0.03790855
6.068784,-0.13713029,2.1402152,-0.19346975,-0.06757915,-0.14597934
6.334186,0.19222566,1.9911617,-0.18868755,-0.053738687,-0.21891665
7.341360000000001,0.6528988,1.7304810000000002,-0.20305161,0.20230111,-0.1747249
8.239119,0.64796674,1.2108437,-0.033772122,0.16343263,-0.330705
9.262217999999999,0.44403824,0.7669873,0.15039502,-0.064908795,-0.55267596
9.981810000000001,0.9139434000000001,0.28538886,0.1338842,-0.14262831,-0.5808979000000001
9.412019,1.3630955,0.16766116,0.062028999999999994,0.08306022,-0.5734454000000001
9.330396,1.6718328000000002,0.72563463,-0.16420057,0.27256808,-0.6639406999999999
10.295603999999999,1.7275985,1.4423723999999998,-0.31696925,0.3784921,-0.68682194
11.491555,0.65705514,3.009866,-0.30579913,0.21879448,-0.44301692
11.959373,-0.8289492,1.5436375,-0.17217673,0.114458695,-0.013421582
11.757389,0.05460695,0.10322839999999998,-0.009285152,-0.07609635599999999,0.34267795
12.522786,1.1704773000000002,0.87245667,0.10833259,-0.28742080000000003,0.5758365
13.534316,-0.56459105,3.3594095999999998,0.1881814,-0.2618692,0.6583382
11.702733,-2.0975695,3.5699847,0.25418976,-0.19320795,0.62587506
8.991569,-0.041668687,3.380699,0.28932324,-0.07822566,0.53325045
8.720037,2.6305285,5.344519,0.3047694,-0.0058293995,0.37835246
10.866427999999999,1.1066958,5.143751,0.27602383,0.03728023,0.25218263
10.663727,0.6113738000000001,5.2358513,0.22598523,-0.014870205,0.163293
9.827614,-0.29074228,4.667688,0.19617501,-0.08300786,0.07225663
9.082576,-0.7733559,4.114262999999999,0.17540559,-0.025516712999999996,-0.030473447999999997
8.184167,-1.1367575,3.5405169,0.13494886,0.09103637,-0.11243411
8.388047,-0.8982853000000001,3.1437687999999997,0.13281955,0.22891739,-0.13533282
7.7920446,-0.9064255999999999,2.7639716,0.20575686,0.042603485,-0.18804178
6.959455999999999,-0.8405466999999999,2.3585951,0.26644197,-0.14316936,-0.24286257
6.836432,-0.86235315,2.1983653999999997,0.39898226,-0.10749483,-0.19921188
7.4061947,-0.97208416,2.1799880000000003,0.45115015,-0.11974704,-0.027279496
7.1651754,-0.92904603,1.7196784999999999,0.41975167,-0.04893903,0.2202431
7.17368,-0.18822256,1.5670528000000001,0.46394342,-0.022863812999999997,0.36184165
8.105982000000001,0.6271564000000001,1.4920282,0.40165263,0.27309167,0.39006364
9.561283,0.3232268,1.3029532,0.25366616,0.10700613,0.5859594
10.51564,-0.19966684,0.7998835999999999,0.23556710000000003,0.038868482999999995,0.7296698
9.877480499999999,0.12582009,0.7682227,0.29838148,-0.012217305,0.64983845
8.882689,-0.12227667,1.0330694,0.39526471,0.16823229,0.5609314000000001
8.273059,-1.269875,1.4050421999999998,0.42613959999999995,0.40564942,0.50131094
10.178258999999999,-1.9705238,1.8051802,0.27867672,0.43811256,0.39591047
11.569874,-1.0675266,1.2140038999999998,0.051923542999999996,0.2608569,0.14199999
12.044156,0.09599791,0.5431869,-0.1961401,-0.054262288,-0.28651324
11.880163,0.11188583,-0.17469053,-0.36007887,-0.22141246,-0.6351777
12.035059,-0.35721490000000006,1.6864276999999999,-0.45963246,-0.13730505,-0.6900159
12.167964999999999,1.006599,4.516518,-0.57035613,0.016510814,-0.63678336
11.950447,0.9069235999999999,5.063516,-0.6635218,0.06389651,-0.5808979000000001
10.445012,0.20563320000000004,4.591169,-0.696526,0.07773697,-0.49040259999999997
9.19815,-1.3657197,4.317464,-0.6427524,0.13948672,-0.36849135
9.463035000000001,-0.94156295,4.9823146,-0.5400223000000001,0.09370673,-0.20720549
9.798031,1.8973953000000001,3.9898412000000003,-0.3909712,0.07773697,-0.08796459400000001
11.023384,2.8932874,3.015909,-0.28396508,0.043668135999999996,0.0073129297
11.414462,1.8164042,2.3412325000000003,-0.23818508,0.027698375,0.061086524
9.613802,1.0570879,2.1700467999999997,-0.28131217,-0.06597344599999999,0.12388347
7.945101299999999,1.3291363,1.8600458,-0.44952700000000007,-0.23472933,0.17339846
6.840847,1.1115416,1.6927676999999999,-0.69863784,-0.28742080000000003,0.13241813
6.1212745,0.46090299999999995,1.6056666000000002,-0.7822217,-0.20011945,0.02274164
6.250973,0.12900917,1.8200433999999996,-0.5043478,-0.17776178,-0.17791887
6.7765193,-0.05227021,1.7476331999999999,-0.34039158,-0.122940995,-0.33281684
7.638882000000001,-0.28137615,1.8298308999999997,-0.08594001,0.11020009,-0.3567802
8.473175999999999,-0.5282854,1.8661174999999999,0.32925636,0.22944099,-0.41374776
8.657577499999999,-0.36598724,1.5327678999999998,0.61938244,-0.09313077,-0.6894749
8.684708,0.17785087,1.1157841999999998,0.6385287,-0.22247712,-0.6325248
8.731778,1.0183977,0.99093133,0.19936895,-0.089936815,-0.36316812
8.387836,1.5196477,0.9189904000000001,-0.4016177,0.17249089999999997,-0.31206486
9.27351,1.9134461,0.59426004,-0.5921901999999999,0.4471708,-0.394043
11.836003999999999,2.4739382,1.4765042,-0.49104840000000005,0.31834805,-0.4339761
12.568247,1.0310582,2.443005,-0.32496285,0.0575086,-0.21039943
12.056663499999999,-0.6600048000000001,0.7291014,-0.14662512,-0.08141961,0.10899581
11.930508,-1.0369191999999998,2.1629124,-0.05667084,-0.23205897,0.32564354
13.824072,-2.807575,4.1260333,-0.05773549,-0.27518606,0.40975094
13.491144,-4.165001,4.869078599999999,-0.09711012,-0.17404424,0.37248817
9.648192,0.45033976,3.923024,-0.11681489,-0.08407251,0.25431192
8.003960000000001,4.94146,3.3312826,-0.09499827,0.023963371,0.13613568
9.511080999999999,5.012902700000001,3.8879156000000004,0.014119713999999998,0.1229759,0.13561209
10.392608000000001,1.8144984,4.7031410000000005,0.17008233,0.07880162,0.1685988
10.213865,-2.214196,4.90231,0.29996973,-0.0031590459999999996,0.1728574
9.495911999999999,-2.6743999,4.439357299999999,0.3883532,0.050056044,0.1531701
8.065116999999999,-1.3628850000000001,3.7612333,0.43785074,0.16023868,0.107390106
7.950464,-0.28056213,2.9692217999999997,0.4538205,0.14693926,-0.044296455
7.5509580000000005,-0.0057748146,2.5552645,0.43945646,-0.019128809,-0.18057176
7.103807000000001,-0.059606045,2.1791162,0.42774528,-0.15114552,-0.22528710000000002
7.2536073000000005,-0.6592099,2.4100802000000003,0.5166349,-0.08248426,-0.08583529
7.237058599999999,-1.2532496000000002,2.3462794,0.27548277,0.066549405,0.15210545
6.761858,-1.7092111,2.6043837000000005,0.3447025,0.40404373,0.34906584
6.9743767000000005,-1.5557523000000002,2.5212858,0.1679705,0.47856927,0.56040776
7.9458194,-0.8202918,2.1384437000000003,0.15838863,-0.29115582,0.76695
9.377742999999999,-0.48314032,1.786132,0.35480797,-0.12027064,0.5785068
10.2349825,-0.52027917,1.3251524,0.6103242,-0.036163222,0.26389378
10.43825,-1.0600376,0.8895896000000001,0.75244635,0.18846065,0.17765707
9.659608,-1.3804296999999999,0.79222214,0.6710093,0.40830234,0.22930136
9.361214,-0.26651296,1.1336354,0.43785074,0.35667548,0.23568927
9.678388,-0.27183765,1.206352,0.12112585,0.13735741,0.12868312
11.170406,-0.5800672,0.5671576,-0.13756685,-0.04522148,-0.07677703
12.162908999999999,0.004606444,1.896361,-0.24722588,-0.10697123,-0.2604206
12.878957000000002,1.1467365,5.0233417000000005,-0.27544788,0.040474183999999996,-0.34506905
13.389478,3.4044206,4.9654016,-0.3015231,0.17088519,-0.33122858
12.952555,-2.0079308,3.9298809,-0.29780552,0.22198842,-0.20292944
11.06172,-2.5482352,5.1615252,-0.24457298,0.21666518,-0.11402236
9.347969,-0.18174864,4.651283,-0.21635102,0.11499974,-0.07942993
8.691181,2.2350352000000004,3.8401463,-0.18121754,0.014381513,-0.11243411
8.749783,3.559364,2.9105735,-0.22540927,-0.12826425,-0.13692108
9.492052000000001,3.4822513999999996,2.6093447,-0.2632131,-0.10855948,-0.1033933
9.338278,2.0726316000000002,2.8326757000000002,-0.33080970000000004,0.0047996556,-0.021938787999999997
8.0958395,1.1215973,3.0520997000000003,-0.4527035,0.10061823,0.06480408
7.417103,0.74814016,2.9001252999999996,-0.5756794,-0.05693264,0.14784685
6.7353683,0.79996985,2.6876444999999998,-0.6933146,-0.3135135,0.16968091
6.651753,1.0156587,2.5980343999999995,-0.7768984,-0.34545302,0.13294172
6.987535,1.0378481,2.6610115000000003,-0.5911081,-0.30819023,0.0360585
7.418348,0.66353863,2.4160752,-0.28715903,-0.18627898,-0.056548666
7.709282000000001,0.17637606,2.0929537,-0.26267204,-0.08141961,-0.13852678
7.719767999999999,0.60316646,1.6367241000000001,-0.0082205,0.20388936,-0.25509733
8.443918,1.4392408,1.3659016000000002,0.33138567,-0.035639625,-0.69532174
9.159871,1.5555607,0.9285097,0.5448569000000001,-0.34171802,-1.1323696
9.534075,1.4260823,0.62669665,0.3175452,-0.32841859999999995,-0.7868816999999999
8.895991,1.6439929,0.72257966,-0.2509609,-0.04680973,-0.31578243
8.441294000000001,1.3978115,0.27492140000000004,-0.5533216999999999,0.27043876,-0.164602
9.575178999999999,0.80635756,0.69303524,-0.46228537,0.21240658,-0.19069467
11.188919,0.107480496,2.2885025000000003,-0.23125613,0.11393509,-0.058136917999999996
10.948647,-0.92606765,1.4844146999999999,0.035953782000000004,-0.13465215,0.21865484
11.428578,-0.41690713,0.5656062,0.24727824,-0.19373155,0.46778315
13.17329,0.21685721,3.4424980000000005,0.28188813,-0.20598376,0.5811597
15.177113,-3.443561,6.027393,0.25846579999999997,-0.12826425,0.6045995
12.408285000000001,-2.7916583999999998,5.663915,0.23556710000000003,0.026092672999999997,0.49387583
8.030469,4.289758,3.8508818,0.22120303,0.06709046,0.33896038
8.939919999999999,6.4420209999999996,3.7436983999999995,0.20043361,0.1293638,0.21600194
10.908529,3.154983,4.9490739999999995,0.23345524,0.055379298,0.15584044
11.045679,-1.2073576000000001,5.215491,0.30264008,-0.09206612,0.18299778
9.590502,-3.1696646,4.817268,0.36706018,-0.13252285,0.20694369
8.322877,-2.3331015,4.221897,0.39421752,-0.038833577,0.17341591
8.216076,-1.0118280000000002,3.499911,0.41922808,0.051120695,0.047787115
7.846996300000001,-0.12731408,2.8929042999999997,0.48684213,0.061767202,-0.11243411
7.3493276,0.40684193,2.5418665000000003,0.5480508000000001,-0.11655309,-0.23380429999999996
7.2237089999999995,0.068225175,2.4610958,0.563497,-0.17669713,-0.21464059
7.369324000000001,-1.0279360999999998,2.4072165,0.46926668,-0.12719959,-0.06133087
7.655096,-1.6510509999999998,2.2593122,0.19938642,-0.0090233525,0.117513016
7.2720910000000005,-1.2098858000000001,2.2692053,0.34417892,0.07773697,0.21652554
7.4700336,-0.1334911,1.8233091000000001,0.42029274,0.34602898,0.29000390000000004
8.337645,0.15025052,1.5537603000000002,0.295205,0.17674949999999998,0.68870693
9.5455,-0.48344678,1.2210428999999998,0.14135422,-0.16285667,0.97881556
10.504292,-0.9220166999999999,1.0006806000000001,0.23823744,-0.10110693,0.7701439999999999
9.829348,-1.2478387,0.9844478999999999,0.39474112,0.0037524579999999997,0.52103317
8.304605,-0.73573816,1.0633415000000002,0.52995175,0.23424064,0.33417818
8.19405,-0.3666672,0.85218257,0.49375364,0.3630634,0.19629718
9.632419,-0.16474979999999997,0.5946814,0.2797588,0.20601867,0.036599554
10.961939,0.57568103,0.7511376999999999,0.005078908,-0.02125811,-0.23006929999999998
11.424221000000001,-0.03161304,0.93383443,-0.21689206,-0.15488052,-0.44938737
11.8633175,-1.2937691,3.3203843,-0.34943238,-0.12292354,-0.51007247
12.195633,1.7607918000000002,5.649712999999999,-0.40905282,-0.014870205,-0.47813293
13.424395,3.4775589,5.627686,-0.40905282,0.09690068,-0.3908316
12.128680000000001,0.13996503,4.726163400000001,-0.346762,0.124581605,-0.29874802
10.116287,-2.2027516,5.2635565,-0.27223647,0.11978195,-0.20771164
10.585253999999999,-1.8650925999999999,5.41465,-0.20144589999999998,0.06389651,-0.10924016
10.162132000000001,1.2343451,3.90999,-0.17695893,0.005881759300000001,-0.041102502
10.323185,2.8146906000000005,3.0090039,-0.17854719,0.029286625,0.01584759
9.751344,2.7862475,2.3248465,-0.22167426,0.07401941,0.073879786
8.454798,2.206142,2.2968056,-0.3020467,0.09477138,0.15957545
7.550699000000001,1.7127162,2.3082017999999995,-0.4617443,-0.069690995,0.20109683
6.9175960000000005,1.0319296999999998,2.2171263999999997,-0.664028,-0.30072020000000005,0.14734070000000002
6.33681,0.21412782,2.2095895,-0.8327839,-0.34491196,0.07333873
6.340852,0.016836027,2.1503859,-0.7401592,-0.15008086,-0.059184115
6.7244887,0.08609549,2.1462007,-0.44416884,-0.06756169,-0.19971803
7.4738929999999995,0.062574856,2.3446035,-0.31323424,0.09477138,-0.23113395
8.161661,0.33650982,1.9514946,0.05565855,0.40193188,-0.22581069
8.410658,0.66044533,1.5524961000000002,0.46820202,-0.027104963,-0.5398826999999999
8.807866,0.78329664,0.96938354,0.6545159,-0.27091,-0.69212776
9.044078,1.1446104,0.732166,0.50440013,-0.25919884,-0.32428217
8.765125,1.5260162,0.8636459999999999,0.020001473,-0.0782082,-0.08634144
9.277704,1.7906808999999997,1.0219314,-0.30469957,0.236911,-0.10550515
10.478742,1.8751483,0.75443214,-0.27436575,0.29653144,-0.25720918
11.401715,1.1852256,2.0572994,-0.11733848599999999,0.104353234,-0.21942279
11.578033999999999,0.19289604,1.613194,0.088121675,-0.05639159,-0.004363323
12.191983,-0.26087222,1.3995832000000001,0.26912978,-0.13304645,0.25274113
13.854938500000001,-1.5397493999999998,4.528345,0.35695472,-0.18893189999999999,0.45713663
14.990164000000002,-4.986816,5.7361336,0.40221113,-0.12665854,0.50026375
11.534708,-1.345436,4.7091937,0.42615703,-0.102695175,0.44544294
7.982968,4.3713336,3.683786,0.42776275,-0.019128809,0.34588936
8.444360000000001,5.2638154,3.6119597000000003,0.4309567,0.06550220400000001,0.24581218
9.639745,3.0096073,4.488525,0.42669809999999997,0.12990485,0.18406242
10.0135765,-0.97477525,5.151604,0.43945646,0.04633849,0.14414674
9.427456,-3.2169738,4.5216126,0.44106215,-0.0712967,0.10049606
8.511406,-2.2076645,4.0768085,0.40964620000000007,-0.101630524,0.022235493999999998
8.14562,-0.8325501000000001,3.6656665999999998,0.37133625,-0.019128809,-0.09325294
7.852722999999999,-0.09314402,3.1297197,0.35109043,0.09850638,-0.22101104
6.9784083,-0.17516938,2.668874,0.35056683,0.07028441,-0.33386403
6.8423605,-0.5055692,2.3760442999999998,0.4000818,-0.12985249,-0.31150636
7.623512,-1.0304453000000002,2.378084,0.4937710999999999,-0.16711527,-0.15074408
7.7636012999999995,-1.4412328,2.2808027,0.53742176,-0.10536553,0.08559094
7.600489,-1.3728257,2.251871,0.27391198,-0.039357174,0.2990447
7.884853,-0.45373952,2.1125767000000004,0.40699333,-0.03296927,0.23518312
8.360208,0.12458468,1.6347513,0.5933071999999999,0.29546678,0.09197885
9.134598,0.13397953,1.431656,0.4352153,0.25501007,0.30490902
9.928449,0.09248322,1.1164929,0.26380652,-0.038292522999999995,0.76323247
10.193841,-0.29079974,0.7602644000000001,0.10623819400000001,0.04579744,0.99267346
9.6387205,-0.5750871999999999,0.7249164,0.124337256,-0.083531454,0.85266316
8.122894,-0.52255845,1.2637842,0.15467107,-0.07449065,0.6104638000000001
9.08339,-0.997683,1.5891658000000002,0.16318828,0.10328858,0.32461378
10.671273,-0.95420426,1.4741004999999998,0.050335295,0.12938125,0.0020071286999999998
11.5852165,-0.41340202,1.0214239,-0.16203637,-0.0760789,-0.29607764
11.466905,0.027629087000000004,0.37967253,-0.37816048,-0.20970131,-0.52602476
10.85013,-0.9991770000000001,0.57710797,-0.5186944,-0.22673573,-0.63036054
10.747677000000001,0.13251428,3.7328286,-0.6613576,-0.1319818,-0.6234491
11.789577,2.8105536,4.978369,-0.7417475,0.029304077999999997,-0.5686108
12.291181,2.7609072,5.416699400000001,-0.7742106,0.14587462,-0.5116607
10.943417,-0.54942137,5.1264553,-0.7507883000000001,0.19697785,-0.44298202
10.039366000000001,-2.1980207000000003,5.2691402,-0.70394367,0.07508406,-0.36100390000000004
10.698576,-0.64557254,4.78372,-0.6720041,-0.043615777,-0.25455627
11.198045,1.6273772,3.6951629999999995,-0.62355375,-0.06330309,-0.14222687
10.633569999999999,2.3491333,2.9924169999999997,-0.55489254,-0.060650192,-0.107617
9.447280000000001,2.129786,2.7033217,-0.48143163,-0.043615777,-0.05279621
8.315704,1.9157827,2.5978525,-0.48249626,-0.0010297442999999999,0.043545965
7.4607635,1.7886506000000002,2.4786308,-0.55808645,-0.015393803999999999,0.11646582
6.738030999999999,0.9957292999999999,2.5205965,-0.65125215,-0.22247712,0.13617058
6.2696867,0.23706427,2.2940571,-0.72897166,-0.24322908,0.08452629
6.3725986,0.0022026657,2.3969023,-0.6789331000000001,-0.10217158,-0.012339477
7.058375,0.14095144,2.4555414,-0.51124185,-0.07023205,-0.170955
7.8554520000000005,0.30922553,2.2077317,-0.5128301,-0.018064158,-0.23431045
8.524096,0.09377609,1.8647479,-0.53253484,0.037821285,-0.15713198
8.854543,-0.4397478,1.4293193000000002,-0.3414213,0.1762259,-0.18374826
9.124742999999999,-0.43604160000000003,1.0474919,0.12274901,-0.009546951,-0.37432078
9.339522,0.008054094,0.74132144,0.49324750000000006,-0.22460642,-0.66762334
9.113749,0.5345006999999999,0.8763928,0.525187,-0.22087142,-0.63248986
8.4723425,1.2336556,1.1708604,0.08281587,-0.05639159,-0.41051888
9.143179,1.7749080000000002,1.3367307,-0.48143163,0.27150342,-0.37058577
10.492742999999999,1.4473045,2.109761,-0.6134483000000001,0.37264526,-0.45149922
11.327591,-0.14674541,1.9488419,-0.43991023,0.1719673,-0.39667842
10.886961999999999,-0.7113173,0.42504743,-0.13596115,0.06709046,-0.09538224
11.0610485,0.2226033,0.26601496,0.16427039,-0.043615777,0.22027801
12.580074,0.040806774,1.6255001,0.3766595,-0.21608922,0.551908
13.888084,-2.7057637999999997,3.9281476000000004,0.46715483,-0.15966272,0.6780604
13.170388,-3.1040153999999998,4.308567,0.45066145,-0.03562217,0.6450737
9.939911,0.8760959,3.885157,0.42563343,0.12884021,0.53115606
8.295162,4.094487,3.6907574999999997,0.42830379999999996,0.21933553,0.38582247
9.780878999999999,4.109379,4.3801727,0.436821,0.20868902,0.30599109999999996
10.241083,0.96000785,5.221926,0.46450192,0.090512775,0.25062928
9.9234295,-2.2945453999999996,4.913697,0.43362704,0.054314647,0.17821556
8.983945,-2.689311,4.3271747000000005,0.36281905,-0.0052883476,0.16491616
8.135698,-1.6684904999999999,3.8839410000000005,0.30852184,0.03408628,0.14201744
8.065767999999998,-0.78007877,3.1106236000000003,0.33409092,0.12618731,0.03715806
7.6395817,-0.3951965,2.5643432,0.39317033,0.025045475,-0.10974629999999999
7.373624,-0.27714320000000003,2.2223458,0.48631853,-0.2794272,-0.24069835
7.9021587,-0.40900627,2.2768474,0.53742176,-0.18041469,-0.30351275
8.06731,-0.9518675999999999,2.1964407,0.4895125,0.030368729,-0.13264503
7.4899535,-1.1791252,2.0069444,0.16798794,-0.08194321,0.17929767
7.848260400000001,-0.5164675999999999,1.6115754999999998,0.20046851,-0.1969255,0.2665816
8.3122,-0.13975435,1.0327533000000002,0.47460738,0.22307053,0.1425585
8.981072,0.05990293,0.9642504000000001,0.40327579999999996,0.41842523,0.21443115
9.848597,0.13846147,0.897749,0.25476572,0.06283186,0.58013
9.924425999999999,-0.28025568,0.90466344,0.07271042,0.14161602,0.7994481
8.81162,-1.0026821,1.1785504999999998,0.04342379,-0.018064158,0.80902994
7.858268300000001,-1.2315677,1.2411828,0.088139124,-0.03562217,0.71799356
9.348275,-1.7122948,0.9548938,0.23506095,0.15971509,0.53754395
11.121297,-0.7106566,1.2846999,0.27977628,0.30717796,0.22614232
11.6263685,0.99366075,0.99817145,0.17437585,0.14480996,-0.06557202
11.5183325,1.4255171999999998,-0.16730681,-0.061941735,-0.038816124,-0.34875170000000005
11.165887,-1.3622048999999998,-0.3982994,-0.27276006,-0.14582226,-0.5185721999999999
11.568122,-1.6959853999999999,2.8901463,-0.42926374,-0.13995795,-0.5356065999999999
12.403794,1.4022361,4.9764633,-0.54956925,-0.054785885,-0.5036670999999999
12.132531,2.962815,5.860048,-0.6011960999999999,0.04314454,-0.45095816
10.172752000000001,2.2828617,5.080285,-0.54637533,0.16451474,-0.40678388
8.946671499999999,-1.1294598999999999,5.061734700000001,-0.49153706,0.20336576,-0.34129915
10.118931,-2.7735775,5.649004,-0.4457571,0.16077973,-0.22951079999999996
11.021257,-1.1047995000000002,4.8261743,-0.42233476,0.033562682999999996,-0.1118756
10.994797,1.5103389999999999,3.550065,-0.3808134,-0.020717058,-0.038938295
10.051711,2.3736403,2.4908605,-0.35845572,0.0053407075,-0.003281219
8.582130000000001,2.401164,2.1856188999999997,-0.36323792,0.07082546,0.094125606
7.442414299999999,2.1086693,2.1725464,-0.44521603,-0.06223844,0.18195057
6.752597,1.504277,2.030235,-0.59321994,-0.3119078,0.1526814
6.32052,0.71028304,1.9730138,-0.74385935,-0.34171802,0.055798177000000004
6.604759700000001,-0.32654995,2.1719909,-0.57512087,-0.23844688,-0.102293745
7.0997753,-0.65128994,2.1314428,-0.28340656,-0.1388933,-0.19917697
7.575933999999999,-0.0983155,2.0620685,-0.23230332,-0.12239994,-0.19065976
8.097114,0.66027296,1.7103026999999997,-0.15564846,0.06070255,-0.16297884
8.716311,0.48925993,1.3202777,0.09506808,0.023980823999999998,-0.43978807
9.097095,0.044857762999999995,1.0781952,0.33941418,-0.28581512,-0.8683013
9.295143,0.34906504,0.88801897,0.25743607,-0.3614053,-0.8188038000000001
8.887842,0.9562345999999999,1.0435368,-0.013508848,-0.20118411,-0.6080029
8.795588,1.2541691000000001,1.0769886,-0.44841000000000003,0.22785273,-0.45256388
9.920144,1.4329106000000003,0.736399,-0.59800214,0.49401546,-0.48130944
11.534383,0.94389963,2.271839,-0.44310418,0.37690386,-0.39027306
11.781589,-0.36805585,1.4301046,-0.12688543,0.22732913,-0.08897688
11.447109,-0.56086564,0.17610789999999998,0.3021514,0.062849306,0.29801497
12.235405,0.004127603499999999,0.9862291,0.52466345,-0.13463470000000002,0.5992937
14.264270999999999,-1.5613164,4.801648,0.5965361,-0.050527282,0.69991195
13.047259,-3.2958677000000005,5.551972,0.57309633,0.022375122,0.70256484
8.554358500000001,0.81432545,4.811445,0.52785736,0.09531243,0.5588544
7.9141582999999995,4.5472593,5.0500803,0.50867623,0.13363986,0.43161990000000006
9.257277,3.6516652,4.0073,0.5102819000000001,0.07136651,0.3475125
10.620344000000001,1.0227838,4.862432,0.56138515,-0.012723451,0.27937484
10.802849,-2.2452536,4.794446499999999,0.59705967,-0.11227703,0.20326105
9.603555,-3.1529818,4.291501,0.57150805,-0.20064305,0.15161675
8.280759,-2.3783232999999995,3.8604777,0.49911179999999994,-0.19212584,0.06538004
8.755863,-1.1180538,2.9830317,0.44214424,-0.17774433,-0.07194247
7.937564,-0.39691076,2.4302487,0.39158207,-0.28103292,-0.25773278
7.009849000000001,-0.033059135,2.1980784,0.41659263,-0.31669,-0.37589157
7.3401723,-0.27221116,2.2787151000000003,0.486336,-0.1937141,-0.29817206
7.375223599999999,-0.7645644,2.5117571,0.30373964,-0.09950122,0.040893063
6.8526362999999995,-1.3353995,2.5597847000000002,0.22762585,-0.019111356,0.19313814
6.870678999999999,-0.9898396,2.2281972999999997,0.49218285,0.12351695,0.1446878
7.3467035,-0.32713416,1.7489165,0.65561545,0.35669294,0.17983873
8.426795,-0.028146235,1.2577987,0.45226717,0.22094123,0.5593779999999999
9.5931835,0.37950012,0.68361163,0.15681784,0.27097982,0.9469109
9.749017,0.19487844,0.47556508,0.06686357,0.08892453,0.89900166
9.388738,-0.31800744,0.73552746,0.10464994,0.035168383,0.6818128999999999
8.946308,-0.5252017,0.74292076,0.20420352,0.09424778,0.5045398
9.903213000000001,-0.40954256,1.2797966,0.20366247,0.30878365,0.20910789
10.988515,-0.33141497,1.4349505,0.060999255999999995,0.1762259,-0.088453285
11.396755,0.34132695,1.1311837,-0.17692402,-0.022305308,-0.37269762
11.200736000000001,-1.1120205,-0.028127082,-0.38666025,-0.17561503,-0.5808456
11.319517,-2.2587473,1.9199293999999998,-0.5756445,-0.17189747,-0.615438
12.420917,0.93184245,3.9045214999999995,-0.7167020000000001,-0.11121238,-0.6111794
13.308504999999998,3.6490602,5.3412824,-0.78004,-0.032951817,-0.5920156999999999
12.071756,3.536686,4.993673,-0.74171257,0.011205014,-0.53825957
9.428328500000001,-0.95830315,4.583143700000001,-0.5905496,0.07401941,-0.39879027
9.572927,-2.8312967,5.351835299999999,-0.4420221,0.008552114,-0.25932103
11.041302,-0.9408254999999999,4.426697,-0.32438690000000003,-0.101630524,-0.10494665
11.525419,2.1501367,3.0128539,-0.24986133,-0.09789552,0.053145275
10.467506,2.8825326000000002,2.3336189,-0.20034635,0.024521876,0.19313814
8.789555,2.8543482000000004,2.1255433999999997,-0.19556414,0.19380136,0.28789207
7.8795958,2.3268766,2.076309,-0.23228587,0.17144369,0.31930798
7.01345,1.4269729,2.120918,-0.36323792,-0.06117379,0.24052383
6.260722599999999,0.48444277,2.1619067000000003,-0.5298645000000001,-0.18202038,0.12445943
5.909358999999999,-0.3307829,2.1808686,-0.5112244,-0.11280063,-0.051714107
6.2325573,-0.8264785,2.4014897,-0.26902506,-0.043074727,-0.18798941
7.006162,-0.73735666,2.3266852000000005,-0.30787608,0.0048171086,-0.2316401
7.533882000000001,-0.20620781,2.063955,-0.33929202,0.1820902,-0.15285593
8.093839,0.045432374000000005,1.653043,-0.13912019,0.32368878,-0.25558603
8.973583,-0.07700710000000001,1.0989673,0.22923154,-0.033492867,-0.6282138
9.881732000000001,0.09352709,0.708971,0.40276963,-0.1894555,-0.87467176
9.676568,0.6292249,0.79272014,0.27818802,-0.11492993,-0.69582784
9.287846,0.9966870000000001,1.0494743999999998,-0.16947147,0.09159488,-0.42753586
10.068566,1.7288626,0.6992505999999999,-0.49206066,0.32421237,-0.33384657
11.300880000000001,1.7917153000000001,2.0046842000000002,-0.41807616,0.16025613,-0.29391345
11.542292999999999,0.5644474,1.8472798,-0.18491763,0.076689765,-0.08684758
11.618745,-0.21831287,-0.16687585,0.07325147,-0.044139378,0.15800466
12.260027000000001,0.43313983,0.14235924,0.21272072,-0.17455038,0.41299725
13.369347,-0.332727,2.5259017999999998,0.24572489999999997,-0.1868026,0.5695009
13.435494,-3.1417479999999998,5.328717,0.21272072,-0.11440633,0.5726949
9.961919,-1.3180176000000001,5.180258,0.2478542,-0.02656391,0.5088157999999999
8.47376,3.0887978,5.0991800000000005,0.28565803,0.076689765,0.3906396
9.097583,4.1747026,4.0599146,0.3165329,0.07934267,0.27406904
10.215119999999999,2.738191,4.846026999999999,0.35431929999999995,0.022916173999999997,0.23413591
10.347902000000001,-0.19907309,5.179166,0.40809290000000004,-0.07927285,0.20699605
9.565506,-2.0946486,4.372636,0.4426853,-0.15486306,0.16706291
8.454989,-2.0463817,3.8826002999999996,0.42671555,-0.10428342,0.11170107
8.349692,-0.9109171,3.1091870999999998,0.45013785,-0.042533673,-0.034679692000000005
7.903087599999999,0.13535859,2.6555526,0.43896776,-0.10534807,-0.21992894
6.939536,0.1504229,2.5299244,0.4320388,-0.19690804,-0.32213542
6.6541667,-0.31629320000000005,2.5896835,0.4778188,-0.21926571,-0.20500638
7.1872115,-1.2770959,2.4785159,0.419263,-0.11280063,0.060597833
7.3543553,-1.805161,2.4896439999999997,0.11211995,0.076689765,0.25010568
7.5194592,-0.955976,2.404966,0.40009928,0.07562511400000001,0.21390755
7.9085464000000005,-0.15706922,2.0762422,0.5597969,0.29120818,0.20804325
8.770669999999999,-0.08033025,1.5231143999999999,0.44800857,0.19751891,0.5508608
9.974905,-0.12887509,1.0566091999999998,0.22923154,-0.06223844,0.96342176
10.419077,-0.8857206,0.6748105,0.22177899,-0.09789552,1.0113311
9.606858,-1.3624444,0.48172295,0.38679987,-0.10056587,0.79414225
7.9685545,-0.48020026,0.7099574000000001,0.55182076,0.15973254,0.6387031999999999
8.322791,0.09479123,1.0595492,0.5422389,0.32740632,0.44600144
9.947554,0.119164206,1.2904171999999998,0.36709509999999995,0.29014352,0.17716837
11.242500999999999,0.23814645,1.3084216,0.09880309,0.044750242999999995,-0.21247639
11.341142,-0.22859837,0.6281715,-0.14126694,-0.17348573,-0.5079083
11.446860000000001,-1.6858436,1.9517342,-0.30839968,-0.18093829,-0.6282138
11.795667,0.41457996,4.4080699999999995,-0.44841000000000003,-0.056374136,-0.63353705
12.890784,3.0734847000000003,5.091538,-0.5245238,0.12725195,-0.57978094
12.497551,2.0171053,4.919644,-0.54688144,0.18634881,-0.51536083
10.7424965,-1.3837049,4.827255999999999,-0.5309116999999999,0.18687241,-0.39344957
10.430053,-2.3428318999999997,5.5555916,-0.49258426,0.07614872,-0.28272587
10.916917999999999,-0.10741347,4.532204599999999,-0.48300242,-0.009005899,-0.21458822
11.53377,2.0520127,3.2553002999999996,-0.45425683,-0.0042062434,-0.13795082
10.444935000000001,2.5549676,2.6139702999999996,-0.37707838,0.09531243,-0.029338984
8.590013,2.554527,2.3729222,-0.26529005,0.1762259,0.117024325
7.5436697,2.2219245,2.396433,-0.25890213,0.09904744,0.22668336
6.5674677,1.5674549999999998,2.2871714,-0.4068886,-0.16816248,0.2580993
5.964244,0.7654645999999999,2.3045150000000003,-0.5623276,-0.35660568,0.23732987
5.887667700000001,0.24576959,2.1445055,-0.571892,-0.25919884,0.063268185
6.2895199999999996,0.055171985,2.2660735,-0.3424685,-0.136764,-0.13154547
7.44499,-0.00410845,2.1505392000000003,-0.34726816,-0.13515829999999998,-0.25930357
8.272973,0.16558299999999998,1.7865725,-0.32384583,0.013875367,-0.29977775
8.6830225,0.06306327,1.3165619,-0.10930997,0.07775441599999999,-0.48500955
9.350057000000001,-0.24896824,1.002979,0.22762585,-0.11067133,-0.7958876
9.748432000000001,-0.01910573,0.8394359,0.37454766,-0.31827825,-0.85285515
9.023832,0.65633684,1.212328,0.20100957,-0.23949409,-0.587216
8.339637,1.2290204,1.3642162,-0.22696261,0.11234684,-0.41580725
9.4870825,1.923607,0.8322437,-0.4893903,0.33007666,-0.44509387
11.281804,1.3274603,1.7596330000000002,-0.41966440000000005,0.24010494,-0.41208968
11.560815,0.38895243,1.5723106000000002,-0.20354029999999998,0.028239427,-0.18212509999999998
11.381852,0.19273323,0.2776316,0.11796680000000001,-0.12025318,0.17558013
11.756219999999999,0.6696008000000001,1.2642248,0.34047884,-0.25706956,0.5066864999999999
13.775317000000001,-0.8131571,4.1322484,0.40596357,-0.26823965,0.6312506999999999
14.014535999999998,-3.1088707,5.955366000000001,0.40755183,-0.15379842,0.62433916
10.202613000000001,-0.9555738000000001,4.9280143,0.36709509999999995,-0.06595599,0.49071679999999995
7.992630499999999,3.678691,4.447737,0.32237977,-0.0095294975,0.30707324
9.340997,3.6721593999999995,3.9700556000000002,0.28405234,0.05539675,0.18196803
10.215914999999999,1.9079776999999998,4.819030000000001,0.27340582,0.02984513,0.11650073
9.844277,-0.7928926,5.0016503,0.29736918,-0.029234264,0.10372492
9.314335,-2.4122062,4.5116816,0.28033477,-0.056374136,0.08402015
8.384025999999999,-2.0699692,4.1238017,0.26223573,0.020263273000000002,0.04410447
8.1822605,-1.202368,3.2432432,0.29895744,0.15706217,-0.043720499999999995
8.096759,-0.60692054,2.6047862,0.35431929999999995,0.12140510000000002,-0.1629614
7.367313,-0.10629298,2.1879077000000002,0.39531708,-0.09576622,-0.21245892
7.504625,-0.3169923,1.8365538000000001,0.41554543,-0.087790065,-0.18638371
8.014619,-0.8476049000000001,1.7811903000000002,0.39851102,0.005881759300000001,-0.12569861
7.9534616,-1.0267198,1.5988193000000002,0.20315632,-0.03933972,0.10266027
7.862194500000001,-0.17079277,1.5924601999999999,0.26275933,-0.056915186,0.26129323
7.7998495,0.29189149999999997,1.3676255,0.4256509,0.20923007,0.27672195
8.214199,0.11970051,1.12199,0.3500607,0.40460223,0.3209137
9.338047999999999,-0.19196709,1.1344302,0.13660692,0.08253662,0.5684537
10.043657000000001,-0.44948742,1.102434,-0.025743606000000002,0.038362335,0.6993883000000001
9.2274065,-0.7934289000000001,1.3229879,0.0013962634,-0.11014773,0.59665823
7.8303804,-0.5278066,1.4241287,0.14086552,0.018657569,0.48486993
8.943071,-0.84635985,1.1998686,0.32026792,0.24277529,0.47050586
11.365677999999999,-1.1127291000000001,1.4762743,0.29152235,0.3939557,0.42099085
12.256494,-0.17841591,1.3049262,0.10040879,0.258204,0.19102629
11.776263,0.37404135,0.5918084,-0.15241960000000002,-0.04839798,-0.16402604
11.318311,-0.7670446999999999,-0.24782862,-0.35683256,-0.16976817,-0.44188246
11.631712,-0.24708162,2.4002828999999997,-0.45958009999999994,-0.18360864,-0.53185415
12.337666,2.2266169999999996,3.92809,-0.5245238,-0.09417797,-0.5313306
12.044788,2.2292794999999996,5.124061,-0.5447522,0.014398966000000001,-0.47223374
10.427485,0.39319494,4.5450473,-0.4851317,0.14269812,-0.37589157
8.899296000000001,-2.1782446,5.1253443,-0.3861192,0.25501007,-0.28433159999999996
9.098426,-1.9922823,5.3618627,-0.32276374,0.23319344,-0.19596557
9.979913999999999,1.2060647,4.1867886,-0.31105259999999996,0.09105383,-0.13528048
11.097593,2.8164432,3.3999486000000005,-0.30572933,0.020263273000000002,-0.07885397
10.721829,2.1907136,2.5917902,-0.30307642,0.036756635,-0.031468287000000005
9.30203,1.5747048000000001,2.4068238999999996,-0.3238284,-0.019652408,0.042498767
8.087307000000001,1.4233816000000001,2.4047554,-0.43455207,-0.22352432,0.10958923
7.2898083,0.9976447,2.2739553,-0.6288596,-0.3448945,0.11383037
6.6734543,0.5507333999999999,2.1740694,-0.79813904,-0.31775466,0.07871435
6.9697127000000005,0.113801196,2.3810432,-0.74436545,-0.2522699,-0.06766641
7.3037424,-0.17235379,2.5341668,-0.42709953,-0.1261175,-0.22097613
7.2047753,-0.17716135,2.3794343,-0.33501595,-0.008464847,-0.22577579999999997
7.321191000000001,0.254858,1.9713283,-0.28284806,0.21509437,-0.15070918
8.105311,0.58688587,1.6419435000000002,-0.03211406,0.21881193,-0.27846727
8.982346000000001,0.37036386,1.3066691000000001,0.30269244,-0.12983504,-0.65535367
9.084128,0.57658124,1.0978659,0.5001939000000001,-0.29272664,-0.77726495
8.701783,1.1847755,0.8123813,0.36711255,-0.21287781,-0.583481
8.721300999999999,1.4962611000000001,0.46916777,-0.023596851000000002,0.07082546,-0.43655920000000004
9.679844000000001,1.6335447,0.05674258,-0.4074122,0.26672122,-0.43071234
11.362863,1.3343556,1.7670071,-0.43083453,0.2890789,-0.43284166
11.686156,0.2418048,2.345456,-0.2583611,0.08040732,-0.26195645
11.2091255,-0.6197822,0.34109715,0.031206487,-0.055850536,0.03080506
11.602360000000001,-0.07405745,0.7258645,0.26330036,-0.17615607,0.2836509
13.451429000000001,-1.0597502,2.9434218,0.39692277,-0.31827825,0.49499282
13.747622,-3.1611795,4.6198707,0.40118137,-0.22991222,0.53649676
10.753644,-1.5619963,4.8055650000000005,0.39744636,-0.12505284,0.49551642
8.357372999999999,2.4965682,4.36576,0.38573520000000006,0.03090978,0.42470843
9.083899,3.8584955,4.374341,0.35486034,0.20231856,0.34007740000000003
9.889356,3.2010381000000003,4.638191,0.36765359999999997,0.24116959999999998,0.2751337
9.914371000000001,0.42615834,5.0866446,0.4203451,0.18528415,0.22403046
9.743941,-2.0591285,4.662918599999999,0.46771333,0.038885936,0.16973327
9.002792,-2.4054449,4.2249327,0.45654324,-0.059044488,0.12714724
8.475272,-1.6845795,3.5259888,0.42247438,0.014940018999999999,0.07285004
8.59981,-0.6732495,2.9218261,0.40811035,0.04207989,-0.054349552999999995
7.66201,-0.114021465,2.5161335,0.36072466,-0.02391101,-0.22736403
7.1414247,-0.068158135,2.1260607000000005,0.32878512,-0.057438787000000005,-0.34445820000000005
7.593249,-0.62918663,1.9560533,0.39105847,0.093724184,-0.35938075
7.8753242,-0.99866945,1.919173,0.34847245,0.03143338,-0.13100441
7.9605007,-0.8785666,1.978032,0.1105317,-0.032428216,0.09307841
7.6038795,-0.42680955,1.8922621,0.1754754,0.07721337,0.27780405
7.581230000000001,-0.2006341,1.6637403999999998,0.16004670000000001,0.3337942,0.37362263
8.583509,0.04195599,1.1443135,-0.009232792,0.14109242,0.6046344
9.623532,0.27608976,0.7556292,-0.10876892,-0.11067133,0.7430565
9.962905000000001,-0.34386483,0.5012501,-0.03637266,-0.09524262,0.5327791999999999
9.181591000000001,-0.7975085999999999,0.6198779999999999,0.12383111,0.09904744,0.41034436
9.115866,-0.47927129999999996,1.0817386,0.23509584,0.35456362,0.4172733
10.268683,-0.6586353,1.831593,0.15205309,0.41896629999999996,0.39969784
11.341275999999999,-0.7241694000000001,1.6702047999999998,-0.043825217,0.30665433,0.2208365
11.628474,0.27800512,0.8031876,-0.35683256,0.03303908,-0.15442674
11.540866000000001,0.36807498,0.16243222,-0.645894,-0.19690804,-0.46265188
12.039674,0.016069882,1.7935634999999999,-0.77311105,-0.22725932,-0.6191555000000001
12.679213,1.6440313000000002,4.0724797,-0.82901394,-0.123447135,-0.629261
12.457317999999999,1.365394,4.4813323,-0.8455073000000001,-0.021781709,-0.5632526
11.239024,-0.6989728000000001,4.0511230000000005,-0.79440403,0.10117674,-0.44188246
9.279188000000001,-2.4221467999999997,4.8844395,-0.6964562,0.20125392,-0.35086355
9.0113735,-1.2304665000000001,5.2530894,-0.5894675,0.22680554,-0.2475924
9.435022,1.7189506,4.1540356,-0.5005604,0.12086405,-0.15816173
10.586748,3.0855799999999998,3.3928519999999995,-0.40313616,0.010140363000000001,-0.082030475
10.493202,2.5767167,2.946046,-0.3211755,-0.02656391,-0.020821778
9.181293499999999,1.7875683999999998,2.4001012000000004,-0.31370547,0.045814894,0.04251622
8.242652,1.1347846000000001,2.39741,-0.33075735,0.0522028,0.14152876
7.1732197,0.7203961,2.1935198,-0.42336452,-0.26132816,0.14898129999999998
6.688203,0.44387543,2.163688,-0.511748,-0.4029267,0.09574876
6.6705046,0.3202963,2.3320675,-0.5479460999999999,-0.28900906,0.058485985
7.012903999999999,0.09925403,2.524245,-0.34458035,-0.1979727,-0.057019908
7.059907400000001,-0.15071021,2.446491,-0.21416935,-0.09098402,-0.15336208
7.345028,-0.09311529,2.1953584999999998,-0.18648843,0.093724184,-0.1895602
7.9545245,0.2593974,2.0195665000000003,0.07326892,0.22787018,-0.33009413
8.892611500000001,0.06592674,1.7182898999999998,0.43099160000000003,-0.18041469,-0.77672386
9.550806,0.09289502,1.2502042,0.5763252,-0.28953266,-0.90607023
9.333555,0.6481392,1.1285597,0.29843384,-0.33957127,-0.5472829
8.338477000000001,0.80109036,1.106782,-0.35096827,-0.0744732,-0.26834437
9.008098,1.3254013999999998,0.5609615,-0.65812874,0.2518161,-0.22842869
10.86166,1.458222,0.6043635,-0.54901075,0.22307053,-0.26462683
12.045525999999999,0.9905290999999999,1.9687042000000001,-0.26420793,0.021851522999999998,-0.11290534599999999
11.772367,-0.13051273,0.6771951999999999,0.045588,-0.15538666,0.13140585
11.605155,-0.3575022,1.0252738000000001,0.28406978,-0.24907593,0.40236822
13.114241,-1.6101485,4.4536653,0.37669440000000004,-0.25120524,0.5546133000000001
14.348997,-4.726844,6.016504299999999,0.32878512,-0.083531454,0.5221327
10.843597,-0.6670341999999999,4.8561783,0.27714083,0.08785988,0.4130147
8.083687,5.3397403,3.5552459,0.28726375,0.17303194,0.33635986
9.022434,6.3158755,3.1102884,0.30642745,0.14056882,0.26076964
10.442511999999999,2.9558046,4.2667836999999995,0.35433674,0.050073497,0.20008455
10.327907000000002,-1.7605331000000002,5.0006447,0.41502184,0.019198623,0.146852
9.394732000000001,-3.7737597999999997,4.659758,0.42193335,-0.0074001959999999995,0.13514084
8.452471000000001,-2.5227606,4.0798154,0.40278709999999995,0.017592918,0.07285004
8.338286,-0.91285163,3.3880922999999994,0.41289255,0.08785988,-0.057019908
8.444713,-0.16831237,2.6627831000000004,0.41343358,0.012269665,-0.21937044
7.951862299999999,0.028749574,2.251833,0.43153265,-0.15858062,-0.3066718
7.317034700000001,0.031009699999999998,2.3640060000000003,0.45547858,-0.20542525,-0.24279276
7.287605,-0.78725183,2.5112112,0.42140976,-0.17455038,-0.034121186
7.2205772,-1.6116138,2.5234406000000003,0.15896459,-0.013788101,0.18889698
7.328823599999999,-1.555101,2.2611032000000004,0.36498326,0.10224139,0.23521802
7.6615696,-0.40539580000000003,1.9062058999999998,0.48103019999999996,0.35934582,0.22031291
8.19315,-0.12669158,1.6221483,0.41343358,0.22680554,0.47315875
9.225922,-0.22639571,1.4016902,0.2340312,0.13418092,0.81171775
9.870346000000001,-0.5686515999999999,0.9959017,0.18879226,-0.023369959,0.86016804
9.746383999999999,-0.9529976000000001,1.0179763000000002,0.32772046,-0.14421655,0.63339746
8.553726,-0.52769166,1.171071,0.49326494,0.04207989,0.5050983
8.907867,-0.15167746,1.4177792,0.47677159999999996,0.22041763,0.34007740000000003
10.152335,-0.08316499,1.0058999,0.28300515,0.17941985,0.113306776
11.441574000000001,0.39836642,0.48911625,-0.043825217,-0.12505284,-0.18371336
12.231689,-0.38545692,-0.08569327,-0.33341023,-0.36779323,-0.41420153
12.465708,-1.4893658,1.7869458999999999,-0.5170538,-0.4082325,-0.4828628
12.252327000000001,0.8099871999999999,4.5524592,-0.620866,-0.38589229999999997,-0.45891687
12.775977000000001,2.9111865000000003,5.5689898,-0.6054373000000001,-0.3401123,-0.40781364
12.122916,1.7155796000000003,5.663647,-0.48459068,-0.29326767,-0.34819320000000004
9.774683,-1.3680277,5.257897,-0.32754594,-0.26504570000000005,-0.25450389999999995
9.136647,-2.39854,5.2536062999999995,-0.17264797,-0.2730393,-0.14910348
9.551496,-0.5957923,4.320615,-0.042219516,-0.30976105,-0.034121186
9.949124000000001,2.2381957000000003,2.9577869999999997,0.023230333,-0.21022491,0.11013027
9.717002,3.156295,2.2386744,0.059969515,0.05806710599999999,0.23469442
8.6762705,2.8467345,1.984889,0.0061959187,0.22574088,0.2836509
7.6717405,2.24579,1.8740758000000002,-0.0858702,0.12618731,0.26076964
7.166296000000001,1.5081746999999999,1.982016,-0.18701203,-0.04733333,0.17879152
6.7521276,0.45744574,2.1759942000000003,-0.2807013,-0.19690804,0.07552039599999999
6.6019826,-0.49255429999999994,1.9992830000000001,-0.40526545,-0.13196434,-0.016022123
6.894343400000001,-0.84255785,1.9000290000000002,-0.20352285,0.11821115,-0.12355186
7.3014917,-0.5854015,2.033568,-0.21736329999999998,0.062308256,-0.11770499999999999
7.869644999999999,0.19628625,1.728087,-0.40100685,0.09798279,-0.041573743999999996
8.881310000000001,0.7478623999999999,1.3904278,-0.35203290000000004,0.08040732,-0.21245892
10.140939,0.66388345,1.0191351,-0.11515682,-0.1399405,-0.5744228
10.744086,0.6274436999999999,0.6122835999999999,0.04452335,-0.13144074,-0.6942047
10.014198,0.93759817,0.39371209999999995,0.08339183,-0.13357005,-0.586675
9.041502000000001,1.1171440000000001,0.35941756,-0.080546945,0.047944195999999994,-0.39557886
9.114458,1.2859448999999998,0.15003026,-0.44200462,0.26513296,-0.2502453
10.784375,1.2787143,0.6930544,-0.50799555,0.2550275,-0.23160519
12.223481,1.0808575,2.683996,-0.3999422,0.1826138,-0.06819001599999999
10.952582000000001,-0.0046734820000000005,0.20389022,-0.18807667,0.11234684,0.12875293
10.537744,0.6150321,-0.6582331,0.06422812,-0.029234264,0.3289073
12.575811999999999,1.6215545,1.3810426000000002,0.21380283,-0.08299041,0.49871036
13.321845999999999,-1.159081,3.5397027000000003,0.27502897,0.037297685,0.52480304
11.733657000000001,-0.8797638000000001,4.415875,0.29258698,0.050614547,0.42526692
9.839288,0.8842553,5.176954,0.32026792,0.13524556,0.26237535
8.776693,2.5241015,4.4500546,0.32932618,0.20764183,0.15697491
9.68873,1.6053122,4.028129600000001,0.32613220000000004,0.13365729999999998,0.09309586
10.249979,0.29135520000000004,4.5472593,0.31335640000000003,0.12885766,0.05368633
10.378942,-1.3852372,3.7997322000000002,0.3117507,0.14960963,0.032934364
10.005599,-1.5122736,3.2207375,0.3160093,0.13365729999999998,-0.016022123
9.046511,-0.95493215,2.6612127,0.3783001,0.10224139,-0.12248721
9.104412,-0.45612416,2.342257,0.49274135,-0.06647959,-0.21563543
7.760345,-0.6558102,1.98577,0.55716145,-0.14793411,-0.18423696
7.340919500000001,-0.79867697,1.7039917000000002,0.4959353,-0.16975072,-0.08042477
7.7388262999999995,-0.72913975,1.7554189999999998,0.40224603,-0.23258257,0.05635668
7.533375,-0.61202496,1.603531,0.12969542,-0.28633872,0.22298327
7.5194216,-0.34841383,1.5177803,0.15152949,-0.28900906,0.2075371
7.693451400000001,-0.23716006,1.1787039,0.66308546,0.10382964,0.033475414
8.011305,-0.32972947,1.1508639999999999,0.7014304,0.38704422,0.121300384
9.036416000000001,-0.85115784,1.0536499,0.50658184,0.13896312,0.49073422
9.576692,-1.1034971000000002,0.89120805,0.23883085,0.044750242999999995,0.8111941
8.507010000000001,-0.9711552999999999,0.773059,0.110008106,-0.043074727,0.80426514
7.529812,-0.22194250000000001,0.70020825,0.2814169,-0.009005899,0.55674255
8.765286999999999,-0.65546536,0.8524889999999999,0.34423128,0.19380136,0.29003882
10.389888000000001,-0.6288323,1.5472576999999998,0.26703537,0.25075147,-0.051155599999999996
11.555480000000001,0.61482143,0.8796776,0.03281219,0.033562682999999996,-0.32690015
12.615432,0.38154957,0.29073268,-0.24396212,-0.20116664,-0.52173126
12.1613,-1.2584212,0.0017334020000000002,-0.40845940000000003,-0.18786724,-0.5579294
11.684078,-1.5721094999999998,2.3833509999999998,-0.5106659,-0.17509143,-0.50628513
11.810329,1.7954118000000001,4.5099483,-0.5314353,-0.040945426,-0.46795768
10.923066,3.4737473,5.068496,-0.49097857,0.17570229,-0.39344957
10.566129,1.5924027,4.7025185,-0.37493163,0.18528415,-0.27260298
9.887574,-2.113697,5.012932,-0.2588847,0.09053023,-0.16772614
11.653356,-2.8461215,4.170967,-0.22746876,-0.040927973,-0.07510152
12.937059,0.79722124,2.8914487,-0.24343853,-0.0723439,-0.008028515
11.299109,3.0170581000000003,1.9984496999999999,-0.2546261,-0.010070549,0.02708751
9.216997000000001,2.7029197,1.6772245,-0.30092967,0.060720004,0.04038692
8.292452,2.0386724,1.7165947,-0.45903903,0.0564614,0.09361946
7.2987814,1.5978328000000002,1.8712026999999998,-0.62777746,0.053791045999999995,0.1383348
6.688135000000001,0.85007566,1.7955458999999998,-0.6613227,-0.03986332,0.10587167
6.192957,-0.37991193,1.9867756,-0.26366690000000004,-0.09150761,-0.03679154
6.2465777000000005,-0.56392074,2.0949934,0.18613936,-0.08831366,-0.15549138
6.4931135,0.13090536,2.111437,0.179734,-0.08670796,-0.14165092
6.99828,0.64069796,1.7766892,0.1685639,0.14856243,-0.023998277000000002
8.007245,0.5655584,1.2779578999999999,0.47357765,0.025586527,-0.22415264
8.840504,0.27930754,0.799376,0.6827903000000001,-0.39653879999999997,-0.6473601
8.936377,0.37320817,0.28077284,0.41769218,-0.4029267,-0.7075041
8.988006,1.0593098,0.24575044,-0.22533946,0.014940018999999999,-0.58719856
9.393075999999999,1.9055547,0.7153396,-0.8061151999999999,0.40673152,-0.6798232
10.010857000000001,1.4827867000000001,0.847308,-1.0286273000000001,0.4328242,-0.72082096
11.286219000000001,-0.27427018,2.5249443,-0.9386555,0.20657717,-0.44666466
11.395078,-2.4769740000000002,1.4329201999999999,-0.68101,0.19699532,-0.086812675
11.70688,-0.64387745,-0.7990792,-0.40739477,-0.083531454,0.27567476
13.583110999999999,1.9955288,0.52726066,-0.23333307,-0.13515829999999998,0.51628584
15.365276999999999,0.033930626,4.55856,-0.17475982,-0.06647959,0.5897468000000001
12.814122,-2.2780447,5.3603879999999995,-0.13271484,0.022933627,0.46624726
8.31897,1.5653386,3.9883952000000007,-0.033161256,0.16718508,0.34168312
8.743155499999999,5.3402762,3.7918696000000005,0.06370452,0.24064599,0.26289895
11.445960000000001,4.3999394999999994,4.6352606,0.16962855,0.24490460000000003,0.19050269
10.740129,1.565128,5.4580617,0.28406978,0.15280357,0.15482816
10.34412,-2.2657096,5.049333,0.37669440000000004,0.071907565,0.12023573
8.1212,-2.7893214,4.296021499999999,0.43792057,0.044750242999999995,0.14100514
7.904208000000001,-1.8288157999999999,3.6535995000000003,0.55023247,-0.008464847,0.11119492
7.853125,-0.84172475,2.9175837000000002,0.71898836,-0.26450464,0.012182398
7.114772299999999,-0.5321640000000001,2.4548419999999997,0.9191427,-0.5312084,-0.085748024
6.5770345,-0.45973462,2.1041012,0.9425650999999999,-0.16709782,-0.034644786000000004
6.661119,-0.68455976,2.234633,0.5811074,-0.0792554,0.12981759
7.668082000000001,-1.1401668,2.1819603,0.33889058,-0.16444492,0.21870720000000002
7.6244119999999995,-1.1924179,1.7419254000000002,0.5864481,-0.0042062434,0.15219271
7.718964,-0.33121386,1.3961451,0.60507077,0.39608502,0.21978931
8.378058,-0.06159802,0.9523751,0.44696137,0.032515485,0.58709383
8.998128,-0.08928457,0.7623616999999999,0.28195795,-0.10641272,0.83248717
9.163912,-1.0671244,1.1311837,0.38894662,-0.25014058,0.75263834
8.103137,-1.5027255,1.7798975,0.49274135,-0.25120524,0.71059334
7.7115225999999994,-0.9635417,0.7041826,0.63753384,-0.015376351000000002,0.6488436
9.633262,-1.1550395,0.46890917,0.6194348000000001,0.19327776,0.45134214
11.944203,-0.4262924,0.8730696,0.4629486,0.22841124,0.20594884
12.881992,1.5422394,0.63768125,0.21912609,0.121946156,-0.101717785
11.611936,0.014662092,-0.15063359,-0.058189277000000005,0.02825688,-0.30826005
11.501600999999999,-1.5808913999999998,2.281684,-0.30145326,0.017610373000000002,-0.40940190000000004
12.288461,1.2274593,4.8885098,-0.45265114,0.09744173,-0.42963025
13.339266,3.0141084,5.8681307,-0.52824134,0.21296507,-0.40090212
11.257525999999999,1.6029754999999999,5.0774407,-0.5404760999999999,0.21455333,-0.3742684
9.204001,-1.3111607,4.925984,-0.51173055,0.16186184,-0.2880317
10.007964,-2.3227396000000002,4.820457,-0.43826962,0.18741345,-0.19540706
11.411761,-0.25245422,3.5008879,-0.40474185,0.1836959,-0.10971139
11.884625999999999,1.9265853,2.7593174,-0.3930307,0.08946557,-0.01654572
10.465983999999999,3.1352646,2.1118486,-0.3892957,0.085748024,0.049968775
8.926216,3.2693397999999996,1.7705026000000001,-0.40845940000000003,0.10330604,0.089360856
8.199997,2.4968842999999996,1.7392918000000002,-0.49363148,0.0016406095,0.14100514
7.178602000000001,1.8387086,1.7859403999999999,-0.6756868,-0.11918853,0.17613862
6.4983325,0.96942186,1.7750707,-0.8651946,-0.11227703,0.13566445
6.303358599999999,0.15627433,1.9195368000000002,-0.77789325,-0.0771261,-0.0075049159999999995
6.535472,-0.058475982,2.021118,-0.49256682,0.020804325,-0.13898057
7.310455999999999,-0.27711448,2.0253127,-0.34351570000000003,0.057526052,-0.23959879999999997
7.4886029999999995,-0.0028443118,1.9082936999999998,-0.20936969,0.101700336,-0.26940903
7.7016587,0.32176158,1.485449,0.11639601,-0.034016468,-0.48392743
8.259096000000001,0.41787440000000003,0.86904734,0.42887977,-0.10054842,-0.692599
8.993789999999999,0.44019794,0.44540772,0.6269048,-0.18093829,-0.6276553
9.1573715,0.7577936,0.46103704,0.3697829,-0.02708751,-0.37161550000000004
9.325645,1.2346036,0.5530606,-0.19872318,0.22999948,-0.19701277
10.638242,1.8122479,1.1211951,-0.39248964,0.30452505,-0.27632052
11.735055000000001,1.3211683,2.5334868,-0.23385666,0.20179497,-0.27632052
12.280645,-0.08586565,1.9430192,0.07061602,-0.0042062434,-0.071907565
12.561283999999999,-0.5121676,0.45704353,0.34794885,-0.12822933,0.20434316
13.381203,0.19678423,1.6802700000000002,0.48850020000000005,-0.23736478,0.4662647
14.552292999999999,-1.6288424,4.3576484,0.5145754,-0.16709782,0.57697093
12.531452999999999,-2.9412192999999998,5.1677599999999995,0.5097932,-0.16229817,0.55728364
8.532580000000001,0.113255315,4.970075,0.5017996,-0.047856927,0.4124911
7.294376,3.0787709999999997,3.6646898,0.48741809999999997,0.061243605,0.26289895
8.902552,3.5045846,3.6868982000000003,0.46081927,0.09852383,0.18198548
10.521636,1.4182676,4.761895,0.4416380999999999,0.059655353,0.112259574
10.0369625,-1.4431386,5.126857299999999,0.430468,-0.029216811000000002,0.018570304
9.312151,-3.085197,4.6797642999999995,0.37936476,-0.05157448,-0.07723082
8.323108,-2.4425166000000003,3.9206394999999996,0.36871827,-0.0095294975,-0.16133824
8.256673,-0.37381148,3.2677214,0.38203509999999996,-0.043057274000000006,-0.24916321
7.4316883,0.09396763,2.8113387000000003,0.3735179,-0.18519689,-0.31890655
7.0553775,-0.21562181,2.5324907000000003,0.39214057,-0.23790583,-0.31677726
7.6144232999999995,-0.8506406999999999,2.5241206000000003,0.39533454,-0.057438787000000005,-0.21031217
7.856688,-1.6374615,2.411804,0.20263273,0.20870647,-0.01441642
7.6063113,-1.6890421999999998,2.2750854,0.015777776,0.21989404,0.074455746
7.92702,-0.345943,1.9499241000000003,0.30216885,0.22628194,0.07819075
8.520677000000001,0.53582233,1.3813681999999998,0.30112165,0.46795768,0.27354544
9.385807000000002,0.40414125,1.0143370999999999,0.1648289,-0.0020769418,0.77180207
9.771542,0.063829415,0.85837877,0.07326892,-0.22191861,0.9527926999999999
9.482274,-0.27503629999999996,0.61902565,0.13503613,-0.20701350000000002,0.7031408
8.016247,-0.52866846,0.6300581000000001,0.26703537,-0.09628981,0.5407728
7.296684299999999,-0.64029574,0.9091549999999999,0.35274848,0.20924753,0.40875609999999996
8.556532,-0.5025525,1.5111816999999999,0.29578096,0.3662748,0.23682372
10.457691,-0.32639673,1.5004653000000001,0.13503613,0.25448647,0.024417156000000002
11.44078,0.5584332,1.4481186000000001,-0.12419763,0.010681415,-0.24225170000000001
11.354578,0.1263947,0.8590013000000001,-0.3605501,-0.14845770000000003,-0.42910665
11.389323,-0.4056927,3.636419,-0.49843112,-0.11651818,-0.49457395
12.460642,2.2191567,5.3753567,-0.5905147,0.0074874623999999996,-0.5057615
13.75898,1.7232889,5.598017,-0.64107686,0.07136651,-0.4871214
11.433089,-0.3700478,4.563827,-0.58945006,0.11821115,-0.42804200000000003
9.760692,-1.8644894,5.201393599999999,-0.5356939000000001,0.035709437000000004,-0.3135833
10.420608999999999,-1.5999875,5.088684,-0.49895470000000003,-0.09576622,-0.20285963
10.950552,0.9979033000000002,3.9871216,-0.46169195,-0.11067133,-0.09161233
10.562307,2.5204432,3.1550887000000003,-0.42921138,-0.10906562,-0.019216076000000002
9.438872,2.6365526000000004,2.567312,-0.42442918,-0.007923795,0.007923795
8.300726,2.3069282,2.4347692000000003,-0.43933427,0.18741345,0.06593854
7.415829,1.5838603,2.2741086,-0.52824134,0.25396284,0.14845770000000003
6.8465166,0.92625916,2.342803,-0.6746221,0.0543321,0.16442747
6.5429606,0.7120068,2.2501664,-0.7587295000000001,-0.09683087,0.112259574
6.3754625,0.2610063,2.3458102000000003,-0.66769314,-0.045186576,0.018570304
6.678147,0.10253887,2.3696563,-0.3286106,-0.05050983,-0.07670722
7.4497213,0.0673058,1.9744982,-0.24769713,-0.0728675,-0.16346754
7.961199799999999,0.23547453,1.7701386000000001,-0.23970352,0.12779301,-0.131528
8.600585,-0.023549369,1.3344799999999999,0.007801621700000001,0.18847811,-0.23692845
9.342846,-0.12319604,0.8995398000000001,0.41236895,-0.21020745,-0.6973812
9.948502000000001,0.114586495,0.557351,0.74454,-0.26398104,-0.89116514
9.435128,0.72604644,0.6528892,0.58112484,-0.23523548,-0.6755646
8.507202000000001,0.9700252,1.1189255,-0.13643239999999998,0.104911745,-0.30506609999999995
8.732266000000001,1.0731195,1.1836838,-0.5814564,0.3939557,-0.23054054
10.319315,0.71226543,2.0559297,-0.5074719,0.37372735,-0.35616934
11.018414,-0.63001984,2.6804044,-0.23172736,0.14908603,-0.14856243
11.285903,-1.4894041999999998,1.0886436000000002,0.1052259,0.01813397,0.12981759
12.06103,0.033030406,0.9853481,0.35009559999999995,-0.11864748,0.39226276
14.347033499999998,-0.44650903,3.6368308,0.49595276,-0.2086192,0.59774035
14.974054999999998,-3.6731076000000003,5.565647599999999,0.50340533,-0.13674654,0.6759835
11.275627,-0.18013015,5.7801294,0.44537312,-0.045727625,0.6073221999999999
8.686681,4.2477545999999995,3.8286540000000002,0.3650007,0.039426986000000004,0.43324307
8.27576,6.146558,3.264178,0.33093187,0.11288789999999999,0.25438175
10.156233,2.763857,4.6891594,0.30963886,0.14376277,0.17666222
10.307843,-1.5561928,5.5001802,0.28674015,0.13898057,0.17561503
8.761706,-3.146345,4.847454,0.28726375,0.058590703,0.18891443
7.311537700000001,-2.1640422000000004,4.4256915999999995,0.29153979999999996,0.08627162,0.16920967
7.0125785,-1.2429451,3.6987734,0.35381314,0.05806710599999999,0.0707382
7.815517,-0.37398390000000004,3.0640419999999997,0.39959314,-0.048921578,-0.096935585
7.5971660000000005,0.021078552999999996,2.5282867,0.44856706,-0.33105406,-0.2752559
7.686507700000001,-0.2998498,2.4010873,0.43792057,-0.43271947,-0.29068458
8.602367,-0.77020514,2.3547165,0.39107594,-0.13622294,-0.15762068
8.361769,-0.9826474000000001,2.2086797000000002,0.11107276,-0.043057274000000006,0.03986332
7.9860992,-0.43189484,1.9888538,0.027506389,-0.079796456,0.06382669
8.25698,0.17734331,1.8894944,0.24202481,0.017610373000000002,0.031346112
8.629134,0.101495,1.6553798,0.21273819,0.32688272,0.17613862
9.504579,-0.57758677,1.7025455000000003,0.033353243,0.08627162,0.68558276
10.011517999999999,-0.9409596,1.4414052,-0.045413468,-0.23043582,0.941099
9.442683,-1.3236392,1.1313465,0.12065461,-0.27356290000000005,0.6802595
8.121994,-1.1693281,0.77069354,0.27876398,-0.12822933,0.54876643
7.687216800000001,-0.49939218,0.50736964,0.37777649999999996,0.19540706,0.42526692
8.799237,0.020293253,0.7949228,0.30590385,0.38385025,0.2820801
10.155733999999999,0.1735126,1.0971764,0.10735519999999998,0.33700562,0.0723439
10.614646,0.9775716999999998,1.099494,-0.18221237,0.09265953,-0.2438574
10.946702,-0.8067981,1.0013893,-0.45476300000000003,-0.13515829999999998,-0.5068087
12.071278,-1.2850734,3.4100040000000003,-0.63575363,-0.16283922,-0.6037094
13.320831,2.1248827,5.859703,-0.7470184,-0.03933972,-0.6052976
13.845907999999998,3.0254474,5.707317400000001,-0.7613824,0.08042477,-0.59198076
10.874933,-0.61733055,4.189019999999999,-0.7145378000000001,0.11395255,-0.5419421999999999
8.895598,-2.5644294999999997,4.9630556,-0.6959151,0.03890339,-0.46530476
9.728216,-1.8492238999999997,4.8456054,-0.6852512,-0.0031415927,-0.34978142
10.329612,1.1667712,3.8287977999999994,-0.6394711999999999,0.0021642083,-0.26619762
10.759360000000001,2.9751978,2.9731007000000003,-0.56389844,-0.015376351000000002,-0.19593066
10.013337,2.8162515,2.5234885,-0.4803146,-0.008988446,-0.108629294
8.731242,2.3020248,2.486752,-0.46275659999999996,0.09107128,-0.008028515
7.444780000000001,1.9785779,2.3247125,-0.5543166,0.060720004,0.123429686
6.795836,1.2923229999999999,2.2944497999999998,-0.64427084,-0.18359119,0.15858062
6.670035400000001,0.6025727,2.4922395,-0.69165653,-0.26343998,0.13622294
6.809617,0.007939173,2.4863977000000004,-0.5995555,-0.16336282,0.02815216
6.950291,-0.35498348,2.3580494,-0.3770435,-0.1463284,-0.15973254
7.3825974,-0.14158352,2.0168755000000003,-0.32806954,-0.038798667,-0.28270844
8.200055,0.17040011,1.7535707999999999,-0.04754277,0.23586379,-0.32690015
8.7847185,0.11004709,1.464332,0.38362336,0.049549895999999996,-0.56377625
9.230442,-0.15771087,1.1683033999999999,0.75412184,-0.27515116,-0.8948826999999999
9.670324,-0.017927783,0.7134720999999999,0.68704885,-0.24214698,-0.64468974
9.196741000000001,0.7618733,0.6280757,-0.004415683,-0.10054842,-0.26619762
8.613706,1.1160907,1.1904546,-0.58358574,0.23160519,-0.14643313
9.686395,1.0721905,1.1542159,-0.66291094,0.32368878,-0.30133109999999996
11.558306,0.7694677,2.4050045,-0.48404962,0.16186184,-0.31890655
11.448402,0.0025953148000000003,1.7849443999999999,-0.21095794,-0.027628561,-0.10330604
11.713114,0.052739475,0.9638865,0.026441738,-0.07021459,0.19956094
13.136065499999999,-0.5971618000000001,3.4835825,0.15791739999999999,-0.14261085,0.464659
14.909431,-4.1500897000000005,5.158097,0.13449506,-0.09896017,0.5258676999999999
12.534536,-3.5314286,4.4897222999999995,0.032829642,0.06391396,0.43219587
8.399098,3.0158226000000004,2.8240662,-0.0038920840999999997,0.13205162,0.26876324
8.415742999999999,6.6344,2.4988952,-0.023579397999999998,0.20073032,0.12822933
9.947113,5.450314,3.9159467000000006,-0.018256145,0.16453218,0.06541494
10.497828,0.13222697,5.0275172999999995,0.07539822,0.037297685,0.0861669
10.016181,-3.8871973,4.9493513,0.19624482,-0.06914994,0.11812388
8.834786,-3.1275167,4.286109400000001,0.2899341,-0.112259574,0.11280063
7.7608814,-1.0014945,3.9226407999999995,0.37510616,0.0037699111,0.05956809
7.5641929999999995,0.08219773,3.2014978,0.45762533,0.14856243,-0.0021642083
7.515361,0.14861289,2.5131647999999998,0.46614254,0.10543534,-0.13472196
7.3698792,0.16995001,2.3862528999999997,0.46827182,-0.107477374,-0.23373449
7.5156865,-0.28758195,2.5281333999999998,0.56567866,-0.25014058,-0.20125392
7.313616000000001,-1.0299089,2.3530884,0.5869717,-0.08937831,-0.005375614
6.811694999999999,-1.1985662000000001,2.3548793999999997,0.2356369,-0.008988446,0.22830652
6.951833000000001,-0.86646163,2.3547933,0.28354618,0.17570229,0.2570521
7.6207056,-0.80206716,2.05818,0.18133971,0.38704422,0.25598744
8.813019,-0.92366385,1.7685682,-0.0006981317,0.100653134,0.6243565999999999
10.143821,-0.69323635,1.6414838999999999,-0.20457004,-0.16709782,1.0113659
10.562385,-0.7206068,1.1581615,-0.008150687,-0.19690804,0.7840543000000001
10.106682000000001,-1.3092643999999998,0.90368664,0.2851519,-0.17188002,0.5546133000000001
8.705308,-1.427653,1.5376426,0.5380151999999999,0.17037904,0.43804273
8.938272999999999,-0.6501981,1.266638,0.49329987,0.37159804,0.28047442
10.319842,-0.6999784,0.40316440000000003,0.24788912,0.2709973,0.0744732
11.675852,-0.24478320000000003,-0.13616304,-0.03741986,0.16824974,-0.21563543
11.78453,0.5087391,0.16854222,-0.33073990000000003,0.03090978,-0.45411720000000005
11.9023905,-0.005985504,2.7492428,-0.5447347,0.0016406095,-0.55312973
12.338442,2.6545088,6.322531,-0.7161435,0.086812675,-0.58346355
13.457060999999998,2.6774359,5.748718,-0.75551814,0.15601498,-0.56164694
12.237388000000001,-1.3075788000000002,5.3736324,-0.68685687,0.21350613,-0.4871214
9.675735000000001,-3.5784314,5.620561,-0.62777746,0.2768441,-0.34604642
9.67222,-2.7621138,5.6498947,-0.5580341,0.21402973,-0.19860101
9.44684,1.2783027,4.348311,-0.4739267,0.1123643,-0.12779301
10.356703999999999,3.5055807,3.3371534,-0.4020715,0.030386182,-0.070842914
9.943866,3.2649825,2.6370504,-0.37756708,-0.014852752,-0.008028515
8.402203,2.7264884,2.3167348,-0.41324160000000004,0.01813397,0.09416051
7.4683194,1.9128523000000002,2.3027432,-0.48298496,-0.06435029,0.18997909
6.976789999999999,1.2727097,2.2169062999999998,-0.659717,-0.25598744,0.18732620000000003
6.5306063,0.7738539000000001,2.3269534,-0.77415824,-0.36831683,0.10374237
6.568981,0.13494678,2.4577918,-0.7534063,-0.33531266,0.020176006
6.769117,-0.26465505,2.3880246,-0.43933427,-0.21659537,-0.131528
7.311921000000001,-0.18957289,2.3564404999999997,-0.22373375,-0.18519689,-0.26567402
7.8089857,0.18455464,2.1424465,-0.093305305,-0.021764256000000003,-0.2992018
7.993655,0.4234098,1.8365346000000002,0.19146262,0.1166229,-0.46050513
8.42486,0.32935596,1.5316283000000002,0.55237925,-0.109606676,-0.8251393
8.71884,0.5479753,1.2931274,0.82760024,-0.10428342,-0.9135053
8.567277,0.8708382,1.1501458,0.4906295,-0.08883726,-0.5100027
8.3714695,1.074805,1.2591681000000001,-0.15079644,0.19167206,-0.05274385
9.167914999999999,1.2930412,1.3319136,-0.37013197,0.35191074,0.009512044499999999
10.746383999999999,0.8971553,1.6709613,-0.22212805,0.24863960000000002,-0.07349581
11.816505000000001,-0.46160209999999996,2.6997402000000004,0.023771385,-0.03508112,0.036128316
12.099653,-1.3591883,1.5753655,0.21114993,-0.19690804,0.23362978
12.423474,-0.8252620999999999,1.9635421999999998,0.27396435,-0.23736478,0.40664425
13.875653,-1.8184824,4.39608,0.27024677,-0.1937141,0.49075168
13.824447,-3.501405,6.025650499999999,0.22659610000000002,-0.06808529,0.47956413
10.74578,-0.090692356,5.2606835,0.22926645,0.026651177999999998,0.38322195
8.154871,4.347669000000001,2.6738732000000005,0.29153979999999996,0.09852383,0.2527935
8.491026,6.340334400000001,3.4101572,0.31602678,0.08894198,0.15645131
10.4518585,2.119175,4.5498066,0.35594246,0.012287118,0.11280063
9.883409,-2.0303404,5.059781,0.40545744,-0.14952235,0.04944518
9.253293,-3.2622051,4.396396,0.40652209999999994,-0.2086192,0.0068591437
8.89104,-1.5362825,3.867785,0.3815115,-0.13409364,-0.05806710599999999
8.544341000000001,0.36837187,3.3488656999999997,0.37032396,-0.041992623,-0.17304939
7.806946000000001,0.68012565,2.9430103,0.36658895,-0.107477374,-0.27844983
7.219647999999999,-0.006914454499999999,2.7207325,0.37032396,-0.26504570000000005,-0.25874507
7.4286523,-1.0124024999999999,3.0356083,0.455496,-0.3044378,-0.15866788
7.702625299999999,-1.9585048999999999,3.0482402000000004,0.46401322,-0.05318018,0.010594148000000001
7.278517,-1.8195359,2.843124,0.15898204,0.05326745,0.16868608
7.2386584,-1.0167408000000002,2.6919255,0.37671188,0.11768755,0.17987363
7.686738,-0.48015237,2.0485747,0.43898519999999996,0.4392121,0.23682372
8.349347999999999,-0.0626802,1.4625316000000002,0.19359192,0.33859387,0.63873816
9.300966,0.1457973,1.1110723999999998,-0.049131017,-0.1287704,1.1290011
9.697522,-0.017563865,0.70062006,0.05625196,-0.15378097,0.9735620999999999
8.620811,-0.48308286,0.48388729999999996,0.19785053,-0.17561503,0.72443384
7.1556845000000004,-0.5421909,0.8970308000000001,0.31176817,0.10330604,0.5083270999999999
8.044814,-0.9271785,0.98219734,0.25960028,0.20657717,0.2527935
10.504541,-1.2535753,0.8083878000000001,0.11161379999999999,0.20338322,-0.026651177999999998
12.058435000000001,-0.12153925,0.66584665,-0.14814354,-0.024958208,-0.30984829999999997
11.644746000000001,0.9011488000000001,0.4780263,-0.35414475,-0.124511786,-0.5036148
11.366022000000001,-0.30590236,1.446998,-0.504278,-0.13248794,-0.5541944000000001
11.713403,1.9420998,5.4266114000000005,-0.6368183000000001,-0.056897733,-0.57494634
13.126392000000001,4.0537953,6.074185400000001,-0.68685687,0.085748024,-0.56004125
12.427161,0.15958789999999998,5.2665253,-0.63788295,0.19167206,-0.49883255
10.5917,-2.8035338,5.224723,-0.5660103,0.22521728,-0.41046652
11.36428,-2.3443446,5.6314497,-0.51118946,0.095853485,-0.31677726
11.466426,0.90058374,4.561481,-0.4632802,-0.02549926,-0.1794373
10.5783205,2.2587473,3.5559452000000005,-0.4105887,-0.044121925,-0.06817256
9.717279,2.3827095000000003,2.6612797,-0.36426768,0.010681415,0.015917404
8.622019,2.2728062,2.5688062,-0.32274628,0.1150172,0.10054842
7.5864210000000005,1.9535154,2.48363,-0.38023743,-0.016441,0.15325736
6.576805,1.2103456,2.2260617999999996,-0.5574931,-0.2676986,0.133029
5.7371870000000005,0.46318224,2.2690808999999996,-0.73211324,-0.3172136,0.069673546
6.0367017,0.02822285,2.2495439999999998,-0.63788295,-0.26504570000000005,-0.108629294
6.649042999999999,-0.2367674,2.465252,-0.30092967,-0.20594884,-0.2837731
7.259009,0.002327164,2.4167264,-0.24183282,-0.13887584,-0.24383995
7.6940064,0.35175609999999996,2.1397173,-0.24235642,0.06710791,-0.08307767
8.26693,0.15488570000000002,1.6792164,-0.017191493999999998,0.13737486,-0.18263125
9.166259,-0.20599711,1.2303419,0.40865138,-0.1958434,-0.6952519
9.825967,-0.09871773,0.9935075000000001,0.54012704,-0.23682372,-1.0742676000000002
9.208347999999999,0.5851236999999999,0.81705487,0.36606535,-0.10800097,-0.9087231
8.886836,1.4661516,0.72963774,-0.1476025,0.07616617,-0.55365336
9.729499,2.1702769,0.45765644,-0.48404962,0.23319344,-0.3620162
11.161462,1.2128928999999997,1.8869948,-0.4552866,0.22202334,-0.19060741
11.620277,-0.59810036,1.6824246999999999,-0.20189969,0.13578662,0.02656391
10.909343,-1.1280042,0.014049175,0.1052259,-0.02815216,0.25865778
10.75938,0.26209804,-0.002078167,0.34423128,-0.1984963,0.47956413
12.198305,-0.036229063,3.0392666,0.45336673,-0.23362978,0.59508747
13.888994,-3.2611136000000003,6.003853299999999,0.45923102,-0.05318018,0.61477476
11.544438000000001,-1.8495783,5.978082,0.462425,0.107041046,0.54717815
9.578673,2.9088116000000004,5.4777803,0.501276,0.21509437,0.42633158
9.493057,4.623318,4.0905510000000005,0.53269196,0.29122564,0.3172136
10.266327,3.4763713,4.9282537,0.5731312,0.2885553,0.24375269
10.671024000000001,-0.22938368,5.047868,0.61041147,0.19860101,0.21872467
9.848682,-2.5695148,4.7383169999999994,0.58805376,0.076689765,0.22033036
8.619480000000001,-2.7341304,4.0481834,0.5060757,0.028780478999999998,0.14899875
8.589036,-1.7903361,3.328132,0.44484952,-0.04998623,-0.07616617
8.242988,-0.6207399,2.7763834,0.4022635,-0.14474015,-0.27790877
7.225346000000001,-0.009251195,2.387,0.35274848,-0.1958434,-0.33007666
7.1054735,-0.30459034,2.4314651,0.29846877,-0.30389673,-0.27897343
7.244356599999999,-1.0053253,2.5370302000000002,0.28834584,-0.20594884,-0.11714649999999999
7.4124484,-1.4902086,2.4454184,0.10150835,0.015481071,0.0803375
7.605698599999999,-1.1059583,2.3316169999999996,0.018465584,0.14856243,0.1399405
7.643718700000001,-0.010180145500000001,1.9079106,0.20371483,0.25129250000000003,0.084578656
8.120577,0.4198472,1.4360805,0.12280136,0.34765214,0.32998940000000004
9.293669,0.24990676,1.1749306000000002,-0.17582446,-0.019111356,0.8479333
9.960261000000001,-0.31914708,0.9101606,-0.25193828,-0.19264944,0.9315171
9.557558,-0.37019145,0.41766369999999997,-0.18062413,-0.28579766,0.62329197
8.972683,-0.33311966,0.5050425000000001,0.0046251225,-0.014852752,0.3906745
8.955425,-0.07655699,0.6804609,0.013665928,0.25715682,0.16763887
9.961833,0.112824365,0.8906909,-0.117268674,0.28536132,0.014329153
10.671494000000001,-0.042894515999999994,0.42981670000000005,-0.38768998,0.047944195999999994,-0.21509437
11.141753,-0.26489446,1.0148158999999999,-0.68631583,-0.17933258,-0.48338640000000005
11.050726,-0.6864655,2.249142,-0.8678475,-0.24907593,-0.5999744
11.403506,1.1390463,5.248789,-0.9849591000000001,-0.15964526,-0.60423297
12.453823,4.184442,5.5231166,-1.0179633,0.017610373000000002,-0.56377625
12.742794,1.7487153000000002,4.9368916,-0.97963583,0.09958848,-0.4796514
10.049202000000001,-2.2318652,4.962749,-0.85187775,0.14482743,-0.39556143
10.277092,-3.5779812000000004,5.203213,-0.71186745,0.14695673,-0.31251866
10.933197999999999,-0.8508418,4.5993953,-0.6298893,0.03303908,-0.23745205
10.724511,2.4438286,3.654902,-0.57187456,-0.06489134,-0.15069173
10.296073,3.0533542999999996,2.9275532,-0.5409997,-0.09683087,-0.08255407
9.391802,2.4760353999999998,2.5672355,-0.54206437,-0.0063355453,-0.0037699111
8.143312,2.0183218000000003,2.5436094,-0.5878444,0.051679197999999996,0.092572264
7.1901035,1.2893351,2.4112675,-0.7278372,-0.11386528,0.108542025
6.3791876,0.5116313,2.420375,-0.8555953000000002,-0.33531266,0.015376351000000002
6.350552599999999,-0.11490252599999999,2.449211,-0.8726296999999998,-0.32040754,-0.07775441599999999
6.667536,-0.17337851,2.7210965,-0.72411966,-0.26930429999999994,-0.22626448
6.992744999999999,-0.0012737153,2.6237673999999997,-0.52290064,-0.14526375,-0.34124678
7.605919,0.058859054,2.3922482000000005,-0.5048016,0.0564614,-0.2555511
8.125116,-0.012612655,2.0089269,-0.45689228,0.31038934,-0.123534404
8.700538,-0.08401733,1.5222813999999998,-0.13376203,0.20818287,-0.32155946
9.373731,-0.0029592332,1.0353295,0.20317377,-0.19104373,-0.8858244000000001
9.489007,0.37716338,0.8623244000000001,0.110025555,-0.267175,-0.86027277
9.067876,0.30235896,0.7988685000000001,-0.29771826,0.01441642,-0.5898515000000001
9.248495,1.0815375,1.0505278,-0.73902476,0.27738518,-0.45464079999999996
10.060694999999999,1.7087512999999999,0.81139493,-0.8444252,0.31197759999999997,-0.46689302
11.316808,0.7750222,1.4272124,-0.7006973000000001,0.17783159,-0.3891735
11.452788,-0.49543694,0.8660880999999999,-0.44837508,0.044226642999999996,-0.1820902
11.135585,-0.5654626,0.45323196,-0.23012166,-0.13409364,0.11067133
11.367937,-0.56499326,1.7935444,-0.012391837,-0.33157766,0.40451497
13.177427,-2.954943,5.5978827,0.09937905,-0.30496138,0.52375585
13.529748999999999,-4.2480226,5.931271,0.16219345,-0.24162339,0.52002084
9.942267,1.4928039,3.9919481,0.18188076,-0.22565362,0.37896335
9.242758,5.600392,4.0125575,0.13929473,-0.09628981,0.16709782
9.912599,3.9302642,4.540431,0.06796312,-0.0042062434,0.044662975
10.093686,-0.026824636000000002,5.1825275,0.015271631,-0.023893557000000003,-0.059655353
10.098082000000002,-2.7188745,5.0120309999999995,-0.030490901,-0.054768432,-0.10756464
9.1496525,-2.9160898,4.5636067,-0.045937065,-0.013247048999999999,-0.13418092
8.195219,-1.7373764999999999,3.8343906000000003,-0.03635521,0.15601498,-0.19912462
8.223028999999999,-0.69725853,3.5986862,0.012601277,0.37639770000000006,-0.32581806
7.6879253,-0.6754616999999999,3.138559,0.12173671,0.38224456,-0.4099255
7.1210647,-0.75121427,2.7633972,0.24897122,0.26567402,-0.40406117
7.385777,-1.0315658,2.3881874,0.2766347,-0.030822514,-0.3146305
7.717422,-1.0523666,2.0613694,0.34477234,-0.06541494,-0.18102555
7.811648,-0.48445237,1.9498665000000002,0.18401006,0.02719223,0.0047472958
7.939355,0.12766841,1.7260661,0.047734755999999996,0.019739674,0.03933972
8.14993,0.52077717,1.3948045,0.30698597,0.12301081,-0.04740314
8.731978999999999,0.25814283,1.249917,0.39641663,0.06710791,0.03933972
10.055072000000001,-0.6281236,1.2388843999999999,0.3085742,-0.019634955,0.41942006
10.651822,-1.2447166,1.3703931999999999,0.11321951,0.14163347,0.81227624
9.302336,-1.3372861,1.7096514999999999,-0.3546858,0.15440927,1.028924
8.074828,-0.93353754,1.7567407,-0.4696681,-0.055309486,0.6616369000000001
7.7741933,-0.80945086,1.3577518,-0.39779544,-0.08192576,0.33318335
9.411463000000001,-0.42719263,1.6002268999999998,-0.34297466,0.21402973,0.06702064
11.325895,0.12519759,1.4762553,-0.49202576,0.2555511,-0.17303194
11.781723,0.59623283,1.1335778,-0.77255255,-0.014852752,-0.45942299999999997
10.871313,-0.31577605,-0.17853084,-1.033933,-0.1937141,-0.7197389
10.200007000000001,-1.7044513,1.5906788,-1.2287642,-0.21340140000000002,-0.8033227
10.799468,0.01625184,3.0965743,-1.4113431,-0.18784979,-0.79639375
11.593347,1.8440716000000001,4.541743299999999,-1.5178081,-0.030822514,-0.7511374
11.933075,4.4230485,5.191223,-1.5353836,0.07881907,-0.69205797
10.185478999999999,0.72233063,4.74707,-1.4129486999999998,0.09745918,-0.60901517
9.014897,-2.5569882,5.3108664,-1.2537748,0.018675024,-0.5217138
10.338996,-2.1060452,4.6287675,-1.1345339,-0.06382669,-0.43441245
10.978918,1.26682,3.3040269999999996,-0.9764419,-0.112259574,-0.30613074
11.107113,2.7194203999999997,2.415606,-0.82845545,-0.10161307,-0.22041763
9.731415,2.4141022999999997,2.0570598,-0.7752229,-0.040404372,-0.15015067
8.534611,2.1842875,2.0250828000000003,-0.7784169,-0.07340855,-0.036774087999999996
7.5018673,1.6047089,1.8114914,-0.8465545,-0.267175,0.04839798
6.871359,0.58453,1.8081491000000003,-0.8321729999999999,-0.43326053,0.046792275999999994
7.0607690000000005,-0.4630003,1.9825808999999996,-0.722514,-0.37683403,0.036669366
7.274015400000001,-0.71787745,2.3540366,-0.61391956,-0.30070278,-0.050073497
7.4202247,-0.9891118,2.1368728,-0.55696946,-0.23630013,-0.2800381
7.8859259999999995,-0.5956199000000001,1.7193624,-0.5542991,0.06339036,-0.3332706
8.769692,-0.48772764,1.6934285,-0.41750020000000004,0.35243434,-0.3188891
9.253772,-1.114951,1.4893275,0.09724975,-0.045186576,-0.64519584
9.140497,-0.83909106,1.1815096999999999,0.12758356,-0.40610322,-0.86346674
8.516156,-0.06697061,1.2605473,-0.32220525,-0.15378097,-0.5541769
7.8287716,-0.08411309,1.2858491,-1.0807776000000002,0.11129965,-0.47912780000000005
8.796727,0.56067413,1.614937,-1.4832157,0.33061773,-0.51958454
10.006527,1.3627796,1.4586818000000001,-1.3815328000000002,0.3375292,-0.55365336
11.948905,1.2762245,0.8700049999999999,-1.1127171999999999,0.18102555,-0.40940190000000004
12.414185,0.7821281999999999,0.46156379999999997,-0.78958696,0.023998277000000002,-0.047944195999999994
11.525055,0.057891797,0.6758735,-0.5005430000000001,-0.15803957,0.3363773
12.319028999999999,-1.8310376,3.7691343,-0.4025951,-0.28473303,0.48488736
14.634615,-5.5637035,7.5219398,-0.4217588,-0.18784979,0.43380159999999995
11.85487,-1.1733981000000002,3.7815459000000002,-0.46593308,-0.12184144,0.27091
10.523876,5.458397,3.3900747000000004,-0.51438344,0.012287118,0.06756169
10.949614,5.890137999999999,3.8410082,-0.49947829999999993,0.1192758,-0.08892453
10.159086,2.2917585,4.553063,-0.39193115,-0.011658799,-0.17889625
9.668178999999999,-2.3516903,5.04986,-0.32806954,-0.060091686,-0.19593066
8.895033999999999,-4.281761599999999,4.6734433,-0.2769663,-0.06914994,-0.15866788
7.3687015,-2.9226882,3.9785695,-0.22425735,-0.0723439,-0.1123643
6.8467946,-1.4992683,3.3867803,-0.17315412,0.026127578999999998,-0.18634881
7.321258,-0.87981164,3.0684855,-0.10183996,0.18741345,-0.3183655
7.3052363,-0.53968185,2.5755675,0.008342674,0.29387853,-0.4227013
7.300706,-0.5137191,2.2758515,0.1701696,0.16133824,-0.43493605
7.583519,-0.34385526,2.1765877999999996,0.3697829,0.011746066000000001,-0.36681584
7.524018300000001,-0.4963755,2.501462,0.40812778,-0.0707382,-0.14269812
7.943617,-0.8384303,2.3404279,0.11267845,0.051679197999999996,0.050527282
8.402757000000001,-1.166934,1.8236538,0.23724261,0.0069638634999999996,0.018046705
8.720612,-0.8144021,1.5284201000000002,0.2803697,0.28057912,0.10054842
9.631941000000001,-0.61012876,1.3575124,0.11267845,0.022392575,0.44603634
10.533923,-0.9022597,1.0331267,0.17975146,0.021868976000000002,0.719128
10.796805,-1.4837346000000002,0.93242663,-0.10981612,0.019198623,1.0028487
9.813047000000001,-1.7354994,1.1435282,-0.16624261,-0.06541494,0.8277224
8.276505,-1.9596541,1.7217183999999996,-0.1390853,-0.07340855,0.60521036
8.261766999999999,-1.6608481,2.5548909,-0.11566297,0.15866788,0.40186206
9.092133500000001,-0.12087846,1.6486281000000003,-0.24874432,0.25396284,0.109606676
10.578493,0.86147213,0.8713841,-0.50745445,0.107041046,-0.20498893
10.6659,0.95733595,0.1417942,-0.81993824,-0.1420698,-0.5387482
11.326384,-1.5949118,1.0045687,-1.0376505999999999,-0.26343998,-0.7282561
11.713161999999999,-0.7900291,4.2754507,-1.1994776000000003,-0.18200293,-0.7751007
11.939683,0.5103289000000001,5.0725474,-1.3139361999999999,-0.09628981,-0.7633896
12.299388,3.8240572999999998,5.8057666,-1.3288413000000001,-0.033475414,-0.6840643
10.542214999999999,1.298433,4.5471635,-1.2516454,0.050614547,-0.5611059
9.189233999999999,-1.9269589,5.255819,-1.1222991000000002,0.11395255,-0.47221628
10.215062,-1.9589741000000003,5.277539,-0.9807005,0.049008845999999995,-0.39875537
10.60548,0.87963927,4.147361,-0.88701123,-0.07340855,-0.2992018
10.972196,2.8249667,3.2498894,-0.76989967,-0.17613862,-0.19006635
9.975392999999999,2.8883266,2.8810580000000003,-0.64427084,-0.22724187,-0.11714649999999999
8.637953999999999,2.1939027,2.835271,-0.58198005,-0.16603318,-0.040491637000000004
7.8647614,1.4291181999999998,2.4931874,-0.56494564,-0.057438787000000005,0.06595599
7.377503,0.85457677,2.3366165,-0.606467,-0.12290609,0.14048155
6.803248399999999,0.17475757,2.3799803,-0.67621034,-0.22458896,0.1314233
7.000186,-0.59597427,2.4883802000000004,-0.6602406,-0.29005626,0.078731805
7.547328,-1.0092901,2.5563562,-0.6368183000000001,-0.19743164,-0.023980823999999998
7.798814999999999,-0.9302144,2.2845664,-0.5436525999999999,-0.16655678,-0.13685127
7.8241262,-0.5298943,1.9730138,-0.47977355,-0.129294,-0.15599753
8.01256,-0.31968337,1.7875397000000002,-0.59849083,0.032515485,-0.036774087999999996
8.541056,-0.85307324,1.4165725,-0.53832936,0.12779301,-0.08468337
8.927164,-1.0748912,0.9019341000000001,-0.07415904,-0.12983504,-0.39236748
9.348811,-0.4761205,0.7900003999999999,0.24043655,-0.37044615,-0.7846826
9.002035000000001,-0.0033039981,0.7970871999999999,0.13344787,-0.351806,-0.6691767
9.091272,0.49539864,1.0766438,-0.27536058,-0.03933972,-0.46795768
9.900426,1.5094581,1.3660932,-0.76403534,0.32422979999999996,-0.43228313
10.977146000000001,1.6355462,1.9155241000000003,-0.835908,0.41844269999999995,-0.4982915
11.339964,0.784714,1.5842143999999998,-0.64905304,0.26141542,-0.38330922
11.201636,-0.20639934,0.62621784,-0.33978070000000005,0.021327923999999998,-0.09213593
11.548575,-0.41070136,-0.30910102,-0.019320795,-0.15964526,0.2112721
12.638732000000001,-0.5798948,2.5012417,0.19093902,-0.40610322,0.49874529999999995
14.267180999999999,-3.5873952000000005,4.8630834,0.20584413,-0.2842094,0.56793016
12.710731,-2.6253377999999996,4.663703400000001,0.14887658,-0.15697491,0.5019218
9.677985000000001,2.3225192999999997,4.038156,0.094055794,-0.012182398,0.37151077
8.964169,5.038224,4.079231299999999,0.047734755999999996,0.12885766,0.24747023
9.599791,3.7520876000000003,4.3263702,0.08339183,0.19114846,0.12610003
9.599082000000001,0.1858954,5.058058,0.15419984,0.22095868,0.056897733
9.10084,-2.9241152,4.987304,0.24256586,0.14269812,0.067544244
8.399175999999999,-3.0180732999999997,4.5633099999999995,0.300057,0.061261058,0.07021459
7.6185417,-1.6453338,3.8217587,0.34636059999999996,0.11288789999999999,0.06382669
8.190171000000001,-0.49341622,3.0116088,0.40172243,0.22467624,-0.005358161
7.841048700000001,-0.14740620000000001,2.4196951,0.39533454,0.15653858,-0.14004523
7.600863,-0.16425182,2.1585262000000003,0.36713,-0.08511971,-0.24757496
7.7204194,-0.7092487,1.9718645000000001,0.43580872,-0.15378097,-0.26832690000000003
7.925679,-1.0705625,2.0794983,0.455496,-0.019111356,-0.14269812
7.679785300000001,-0.98640156,2.2716088,0.09724975,-0.004729842299999999,0.0728675
7.591391000000001,-0.5259295,2.259973,0.13077752,0.003228859,0.13409364
8.157821,-0.6304506999999999,2.079575,0.1595231,0.21670008,0.21978931
9.169017,-0.92500466,1.815322,0.089779735,0.044226642999999996,0.46891759999999993
9.9693985,-0.58677095,1.5117469,0.006736971,-0.02549926,0.7260395000000001
10.348563,-0.51191866,1.0333949,0.00408407,-0.12770574,0.6419321
9.348974,-1.0476931,0.7775696999999999,0.1068316,-0.0031415927,0.46146506
7.955903500000001,-0.80273753,1.37137,0.31655037,0.16292648,0.4183554
8.69893,-0.5739380999999999,1.7339767,0.3650007,0.41844269999999995,0.41516146
10.510249,-0.8785091999999999,1.5707017,0.21701424,0.4285656,0.32731906
11.817407000000001,-0.1531523,1.0053636000000001,-0.06297148,0.23212878,0.05050983
11.538846000000001,1.0955771,0.43645340000000005,-0.35575047,-0.011117746999999999,-0.30134854
11.612031,-0.14559619,1.5749058999999999,-0.5622927,-0.12770574,-0.5254488
12.210678,0.74756557,4.0717324999999995,-0.6533291,-0.09044296,-0.58026963
13.127723999999999,0.8487158000000001,4.5429597,-0.6895272,0.03303908,-0.5392893
12.530447,0.26555526,4.0589666,-0.6639755999999999,0.07243116,-0.42963025
9.659944,-1.7903074,4.6139717000000005,-0.5841268000000001,0.16133824,-0.3029368
9.013355,-1.7780778000000002,5.4312177,-0.48937288,0.21615903,-0.20977113
9.604742,0.06874232,4.871473,-0.40739477,0.16133824,-0.1166229
9.992602,2.4290326,3.549088,-0.31370547,0.09000663,-0.066060714
10.382733,3.0778613,2.7564349999999997,-0.21734585,0.021868976000000002,-0.005899213
9.582092999999999,2.4505036000000002,2.4557805,-0.20617574,0.012810716000000002,0.05956809
8.342912,1.5666314,2.5143619,-0.25673792,0.07616617,0.15430456
7.3256726,0.91197056,2.3311193,-0.33232814,0.051138148,0.24001768
6.613283,0.61512786,2.3148386000000003,-0.45530403,-0.2112721,0.22671826
6.3508496,0.35619017,2.3411557999999997,-0.6421415,-0.37789870000000003,0.1463284
6.854025,0.20002118,2.403405,-0.6671696,-0.32253686,-0.022392575
7.1931686,-0.21720198,2.4983400000000002,-0.3813021,-0.20329595,-0.16879079
7.5256367,-0.58269125,2.3506944,-0.3286106,-0.10321877,-0.19327776
8.241331,-0.37505648,2.1870553,-0.20031144,0.045291292999999996,-0.15920894
8.574900999999999,-0.12918155,1.9599031000000002,0.09403834,0.034644786000000004,-0.34499922
9.2971735,0.18553148,1.5301343,0.45228463,-0.133029,-0.7335968
9.664769,0.90908796,1.1884721999999999,0.5933596,-0.24907593,-0.77831215
9.03745,1.2693386999999998,1.2311271000000001,0.35807174,-0.30176744,-0.49883255
8.350783999999999,1.2432228,1.3423045,-0.13538519,-0.054768432,-0.28218484
9.210561,1.3266463,0.43778458,-0.5122541,0.20231856,-0.3029368
11.382014999999999,1.3083451000000001,1.7879131999999998,-0.5138598,0.22254694,-0.39182642
11.854229,0.37663665,2.4456196,-0.32009340000000003,0.035709437000000004,-0.26302109999999995
11.646028999999999,-0.7231734000000001,0.270947,-0.04061381,-0.11971214,0.006318091999999999
11.808347,-0.35811509999999996,1.0848128000000001,0.12971286,-0.2719572,0.28366837
13.773220000000002,-1.6327785,3.6130133,0.2186025,-0.31189033,0.5008570999999999
14.095259,-3.7589445,5.599894,0.27822295,-0.17933258,0.5700594
10.241897,-0.51522267,4.935034,0.31229177,-0.1308997,0.5327791999999999
8.035103999999999,4.3768497,4.425987999999999,0.32241467,-0.022305308,0.44497168
8.676031,4.9492650000000005,3.919059,0.32454398,0.0037699111,0.29270917
9.9128475,2.7172272,4.4107513,0.36871827,-0.007923795,0.18252653
10.092096000000002,-0.5025621,5.247372,0.40278709999999995,-0.044662975,0.16388641
9.644907,-2.6594314999999997,4.811426,0.44111452,-0.0792554,0.17613862
8.925441000000001,-2.2986538,4.378784,0.45760787,-0.055309486,0.13035864
8.238342999999999,-1.0081313,3.451261,0.46507788,0.034103733,0.014311700000000002
8.078793,-0.10835199,3.0740304,0.46080184,0.07030186,-0.14484487
7.0241755999999995,-0.39332905,2.7959104,0.42195079999999996,0.016528267,-0.25237462
6.841910400000001,-0.9590502000000001,2.5217457000000003,0.4166101,-0.09737192,-0.22682299
7.628894,-1.3799700000000001,2.4546504000000002,0.43313837,0.01654572,-0.08415978
7.8119836,-1.4506564,2.558377,0.18559831,0.021868976000000002,0.123429686
7.3708663,-1.1028746,2.2954552,0.21753784,-0.107477374,0.22828907
7.5020776,-0.16785268,1.8690288000000002,0.40811035,0.02719223,0.26928684
8.227445,0.07996634,1.5467021,0.48157126,0.43121850000000006,0.37149334
9.330175,-0.3966522,1.3366253000000001,0.40491638,0.07934267,0.69568825
10.219392,-0.7784986,1.0786071000000002,0.28726375,-0.06756169,0.8766613999999999
10.431650999999999,-1.0943608,0.51490664,0.33145547,-0.050527282,0.7052701
9.280424,-0.6369343000000001,0.9727258,0.4256858,0.035709437000000004,0.5785766
8.455985,0.03392105,1.4803061000000002,0.57365483,0.27471483,0.49019316
9.295536,-0.40199605,1.9544346000000001,0.5699373000000001,0.43228313,0.40662682
10.316117,-0.637145,1.6465691000000002,0.41502184,0.32262412,0.22883011
10.802399000000001,-0.12625104,1.2181603,0.15418239,0.046879545,-0.08415978
11.643892999999998,-1.052041,0.5028207,-0.08267625,-0.07553785,-0.32477087
12.331623,-1.3143017,2.5506485,-0.2546261,-0.09683087,-0.4392121
12.978269000000001,1.7962354,4.709232,-0.3999422,-0.0063355453,-0.47966883
12.969697,2.6569892999999998,5.0861177,-0.45743334,0.07243116,-0.45198792
11.33892,0.44565672,4.549050299999999,-0.43081707,0.13631022,-0.39823177
9.371911,-1.4610281,5.2189865,-0.4015479,0.11873475,-0.31464794
9.446332,-1.6462626,5.181531400000001,-0.34245107,0.041015237999999996,-0.21563543
9.962475,0.5209304,4.2081065,-0.25569072,0.006946410500000001,-0.12622221
10.324200999999999,2.4176936,3.214982,-0.12419763,-0.04946263,-0.02932153
9.936856,2.8015895,2.5366569,-0.03211406,-0.09150761,0.041975167
8.513945,2.2682860000000002,2.449709,-0.017732546000000002,-0.05424483,0.121300384
7.8757649999999995,1.8594711,2.3207953,-0.08854055400000001,0.009616764,0.23361231
7.4081583,1.6420296000000003,2.3277674,-0.24078563,-0.0074001959999999995,0.30387926
6.9201619999999995,1.2663604,2.5037602999999997,-0.38077849999999996,-0.16070992,0.29323277
6.740511,0.5006372,2.4966927000000005,-0.53515285,-0.2629164,0.20114920000000003
6.832199,-0.20802741,2.4121199,-0.45371579999999995,-0.19425514,0.048904125
7.495565400000001,-0.36207992,2.2839727,-0.26579618,-0.0824668,-0.06553711
8.346417,-0.11972924,2.033386,-0.26579618,-0.034016468,-0.11768755
8.622957000000001,0.07191224,1.8097196,-0.21842796,0.08733627,-0.13048081
8.884202,-0.09201396,1.3428790000000002,0.06794567,-0.07288495,-0.37269762
8.979808,0.14343184,0.60101163,0.35966,-0.2714336,-0.7676656
9.092355,1.190512,0.40598956,0.33197907,-0.43113124,-0.6766466999999999
9.008643,1.6634721999999997,0.74361026,0.10520845,-0.17828538,-0.39929643
9.254126,1.6418095000000001,1.2368255,-0.22109829999999997,0.16451474,-0.25610963
9.898798,1.1305611,1.2796625,-0.29188886,0.28961992,-0.30347785
10.710969,0.4045435,2.2645223,-0.09971066,0.19860101,-0.18743089999999998
10.768133,-0.37626314,1.316198,0.20954423,0.022392575,0.08775515
10.809888,-0.4407821,0.43575427,0.47890088,-0.14953981,0.36669368
12.474116,0.4390104,1.6942999,0.6274284000000001,-0.1894555,0.5796238
14.862217999999999,-1.4611621000000001,4.913122,0.7078008000000001,-0.10056587,0.67172486
