accx,accy,accz,gyrx,gyry,gyrz
8.338745,0.6175841999999999,1.8595886000000001,-0.43785095,-0.040893555,0.20944214
8.817596,0.09565735,2.0247955,-0.43038940000000003,0.08908081,0.1561737
9.145599,-0.62739563,2.0918273999999997,-0.40162659999999994,0.10505676,0.045394897000000003
9.035461,-0.7734375,1.7853699,-0.21308899,0.062438965,-0.18363953
9.040253,-0.31614685,1.2754059,-0.017074585,0.060317993,-0.39242554
9.284454,0.49308777,0.9450073,0.06388855,0.13700867,-0.37965393
8.9253235,0.8234863000000001,0.95936584,-0.05116272,0.024093628,-0.3860321
8.372269000000001,0.30155945,0.6026305999999999,-0.21627808,0.19134521,-0.46806335
8.070602000000001,0.42605590000000004,0.063934326,-0.26208496,0.38201904,-0.66726685
8.159180000000001,0.87615967,-0.19224548,-0.21946716,0.123168945,-0.9122771999999999
9.732178,0.38774109999999995,0.916275,-0.2450409,-0.23582458,-0.7524871999999999
12.526214999999999,-1.3504486,2.5443267999999994,-0.20562744,-0.30827332,-0.34236145
12.667465,-2.585846,1.6345367,-0.11187744,-0.3072052,0.048583984000000004
10.831116,-0.41670227,1.0072478999999999,0.01914978,-0.30187988,0.17428589
10.840683,0.5385895,1.8547973999999998,0.27055359999999995,-0.27737427,0.2179718
12.001877,0.40930176,1.9745177999999999,0.47080994,-0.17192078,0.23606873
11.168700999999999,0.18902588,4.016769399999999,0.50064087,-0.11972046,0.21369934
11.214188,-0.86680603,6.078171,0.42820740000000007,-0.019577026,0.27549744
9.677109,-0.8500519,4.7493896,0.34405518,0.13488770000000003,0.35964966
8.896591,0.1124115,3.3368073,0.31954956,0.21264648,0.38948059999999995
9.435286999999999,-0.14137268,3.0447235,0.31954956,0.17216492,0.3202362
10.081726,-1.7502746999999999,2.7406616,0.34298706,0.11677551,0.2456665
10.35228,-2.6720428,3.138092,0.38665770000000005,0.14126587,0.26164246
10.510284,-2.5475464,2.8220520000000002,0.38453674,0.17002869,0.29147340000000005
9.76091,-1.2163696000000002,2.0247955,0.325943,0.17002869,0.27975464
8.647598,-0.35206604,1.2849883999999998,0.31208800000000003,0.1668396,0.2264862
8.563797000000001,-0.09828186,1.4310303,0.34831238,0.09545898400000001,0.15298462
8.69548,-0.16531372,2.1037903,0.37174988,-0.014251709,0.10824585
8.705063,-0.6944275,2.3480072,0.37493896,-0.071777344,0.026214599999999994
8.784073,-0.81892395,2.1109772,0.33978270000000005,-0.015319824,-0.07284546
8.530289,-0.52204895,1.6034088,0.13632202,-0.13569641,0.09120178
8.578171000000001,-0.13418579,1.2490691999999999,-0.075668335,-0.1538086,0.31384277
9.061798,-0.014480591000000001,0.66249084,-0.23332214,-0.007858275999999999,0.42356873
9.626831,0.19621277,0.38716125,-0.43466187,-0.38070679999999996,0.5183715999999999
9.557404,-0.20840454,0.22674560000000002,-0.41122437,-0.41479492,0.5695038
8.901382,-1.0751038,0.3656006,-0.16940308,-0.21878052,0.34686279999999997
8.767319,-1.3121338,0.7438965,0.05003357,-0.3391571,0.11357117
9.643585,-0.9314575,1.3161011,0.18852234,-0.25286865,0.11250305
10.431274,0.45957947,1.6105957,0.40263367,-0.12504578,0.17749023
11.202209,0.72772217,0.5882721,0.45910645,-0.09307861,0.21051025
11.922867,0.20100403,0.46138,0.3344574,-0.10586548,0.06562805
12.296371,0.4835205,2.5898132,0.17573547,-0.08563232400000001,-0.13996887
12.768021000000001,-0.34487915,2.4653167999999996,0.032989502000000004,-0.05154419,-0.28590393
11.918076,-3.035965,1.857193,-0.009613037,-0.00041198730000000005,-0.40307617
9.437683,-3.3543854,3.5427093999999997,-0.026657103999999997,0.12528992,-0.5064087
7.8886414,-3.1173706,2.8867035,-0.11294556,0.20625305,-0.4978943
9.186295,-2.1501007000000003,3.4613037,-0.24397278,0.21157837,-0.43504333
11.044189,-0.328125,3.1859741,-0.35902405,0.22116089,-0.3455658
12.210175,0.9456024,2.3839264,-0.42401123,0.12742615,-0.24967957
11.977936,1.1993866000000002,2.0726776,-0.36967468,0.06137085,-0.14422607
10.9843445,0.6391449,1.9290161,-0.25569153,0.11889648400000001,-0.087768555
9.746536,-0.15573120000000001,2.1780242999999997,-0.18005371,0.20944214,-0.033432007
9.385010000000001,-0.5196533,2.2450562,-0.17579651,0.22329712,0.07202148400000001
8.805617999999999,0.35902405,2.1828003,-0.23757935,0.22969055,0.19346619
8.458466,1.2017822,2.1277466,-0.33026123,-0.00041198730000000005,0.25205994
8.214249,1.2712097,1.9505615,-0.50923157,-0.11013794,0.19239807
8.02272,0.71336365,1.7710113999999997,-0.5720824999999999,0.13700867,0.12954712
8.798430999999999,-0.12222290000000001,1.7805786,-0.50816345,0.04220581,-0.0014801025
9.574158,-0.6178130999999999,1.4453888000000001,-0.32174683,-0.08456421,-0.19642639
9.574158,-0.43107605,0.9354248,-0.11933899,-0.019577026,-0.31680298
9.155167,0.23213196,0.43504333,-0.017074585,0.22329712,-0.31147766
8.697875999999999,0.85461426,-0.077316284,-0.13424683,0.18174744,-0.47019958
8.393814,0.7995453,0.25068665,-0.21202087,0.02835083,-0.8536834999999999
7.802444500000001,0.63674927,-1.1211853,-0.11508179,-0.12611389,-1.0251923
8.013138,0.95996094,-1.4587708000000001,-0.08099365,-0.04408264,-0.84303284
9.8423,0.29916382,1.2730103000000002,-0.058624268,-0.26139832,-0.5404968000000001
11.487122,-1.6161957,2.2498473999999997,-0.024536132999999998,-0.31999207,-0.19642639
11.135178,-1.6999970000000002,1.0527496,0.12886047,-0.27630615,0.0070495605000000005
10.409728999999999,-0.014480591000000001,1.1221771,0.34298706,-0.20280457,0.14872742
11.918076,-0.53163147,3.9832457999999997,0.548584,-0.031295776000000004,0.3276825
13.981888,-2.123764,5.884247,0.6796112,0.099731445,0.41610718
13.158279,-1.7933655,5.9752197,0.661499,0.13275146,0.40864563
10.120041,0.27522278,4.507583599999999,0.5826720999999999,0.15298462,0.4256897
10.203827,0.15789795,4.919372599999999,0.52301025,0.08268738,0.44273376
10.0434265,-0.39994812,3.3583527,0.48892212,0.050720215,0.37348938
10.357056,-1.2905883999999999,3.2745667000000003,0.41755676,0.035812378,0.30212402
9.916534,-2.2243195,2.9609222,0.32487488,0.0027923584,0.26696777
9.938080000000001,-2.0327911,2.6065826000000003,0.28865050000000003,0.027282715,0.23287964
9.52388,-1.5850677,2.2785797000000003,0.27799988,0.07948303,0.18707275
8.463242,-0.95539856,1.6105957,0.26309204,0.13061523,0.13700867
7.74498,-0.17967224,1.5555267,0.29292297,0.097595215,0.062438965
7.8862457,-0.09349060000000001,1.8715668,0.34298706,-0.19641113,-0.005737304699999999
8.87265,-0.36642456,1.9529572,0.40690613,-0.1538086,-0.07072449
9.064194,0.07650757,1.4190521,0.4047699,0.1710968,-0.13676453
8.834351,0.30395508,0.94021606,0.28546143,-0.008926392,0.08480835
8.944489,0.20579529,0.6529083000000001,0.17147827,-0.07070923,0.28507996
9.183899,-0.15812683,0.33926392,0.07028198,0.005981445300000001,0.33088684
9.456847999999999,-0.28981018,-0.036621094,-0.008544922,-0.23902893,0.33195496
9.349105999999999,-0.69203186,0.21955872,-0.07885742,-0.5010834,0.46403503
8.681122,-0.91470337,0.4158782999999999,-0.030929565,-0.37324524,0.58547974
8.803223,-0.9099120999999999,-0.40771484,0.010620117,-0.21772766,0.42036438
10.318756,-1.0870819,0.5738983,0.056427002000000004,-0.28695679999999996,0.27229309999999995
10.677887,-0.08390808,2.0367584,0.10543823,-0.16659546,0.31916809999999995
11.175873,0.57688904,0.64572144,0.22367859,-0.11439514,0.29359436
11.760071,0.09086609,-0.22814941,0.18533325,-0.087753296,0.14019775
11.733734,-0.11982727,1.3376465,0.052169799999999995,-0.046218872,-0.083496094
12.006668,0.07650757,1.7566376,-0.10975647,-0.043014526,-0.26885986
12.05455,-0.46218872,2.8555756000000003,-0.2642212,-0.015319824,-0.33277893
11.070526,-1.3360748,2.4629211,-0.3238678,0.047531128,-0.37005615
8.707458500000001,-1.7885741999999998,3.6839752,-0.30149840000000006,0.09333801,-0.5021515000000001
8.223831,-2.3703766,3.4182129999999997,-0.31428528,0.09013367,-0.58843994
9.909348,-1.4629669,3.7174834999999997,-0.40057373,0.06564331,-0.47764587
11.458389,-0.40473938,3.035141,-0.48152159999999994,0.14126587,-0.3306427
11.889342999999998,0.5050659000000001,2.3839264,-0.53053284,0.1987915,-0.19535828
11.760071,0.8378601000000001,2.3025208,-0.5294647,0.18067932,-0.14315796
10.833511,0.7229309,1.7398833999999999,-0.50923157,0.18388367,-0.10481262
9.629227,-0.09349060000000001,1.5076447,-0.49430847,0.23394775,-0.03982544
9.437683,-0.69203186,1.7207183999999998,-0.5102844,0.21478271,0.06562805
9.183899,-0.24432373,1.9385986000000002,-0.58592224,0.11038208,0.18067932
8.391418,0.87615967,1.8093109,-0.6817932,-0.071777344,0.21690369
8.760132,1.3358459999999999,1.6824188000000002,-0.8032379,-0.14102173,0.15937805
8.791260000000001,0.9647522,1.644104,-0.88526917,0.04220581,0.064575195
8.649994,0.1986084,1.6608734,-0.80963135,0.04220581,-0.043029785
8.901382,-0.21319580000000002,1.3831482,-0.6317291,-0.062194824,-0.13250732
9.289246,-0.19644165,0.8875427,-0.42826843,-0.047286987,-0.19003296
9.4592285,0.05973816,0.59306335,-0.38671875,0.09120178,-0.14102173
9.234177,-0.0025024414000000004,0.12858582,-0.50390625,0.11889648400000001,-0.20707703
8.705063,0.0836792,0.013656616000000002,-0.56781006,0.18388367,-0.5085449000000001
8.025116,0.76364136,-0.38137817,-0.49751282,0.1434021,-0.8142699999999999
8.537460000000001,0.9360199,-1.2145691,-0.32707214,-0.031295776000000004,-0.87072754
10.780838000000001,-0.3616333,1.0718994,-0.118270874,-0.06326294,-0.7109375
11.602051,-2.3967132999999996,1.426239,0.031921387,-0.27737427,-0.36793518
10.900542999999999,-1.9489898999999997,0.6313629,0.18745422,-0.3540802,-0.007873535
10.021866000000001,-0.07911682,0.061538696,0.37068176,-0.31359863,0.18920898
11.384171,-0.09588623,0.9545745999999999,0.47401428,-0.26246643,0.28082275
13.093628,-1.190033,2.7454376,0.51982117,-0.16020203,0.31384277
12.279602,-1.4701538,4.239425700000001,0.47401428,-0.08137512,0.27655029999999997
10.483948,-1.6209869,5.0654297,0.3855896,-0.01852417,0.23074341
9.899764999999999,-0.9937134,4.63208,0.32061768,0.021957397000000003,0.26589966
9.868637,-1.0104674999999999,4.3902589999999995,0.29399109999999995,0.026229857999999998,0.32130432
9.222214,-1.2115784,3.3775177000000003,0.29504395,0.036880493,0.30426025
9.315582000000001,-1.2474976,2.8867035,0.27267456,0.058181763,0.22329712
9.993149,-1.4462128,2.3168792999999996,0.21621704,0.07841492,0.14233398
10.359451,-1.3121338,1.9721221999999998,0.16401672,0.14233398,0.11996459999999999
9.727386,-0.43345642,1.426239,0.17573547,0.20199585,0.13061523
8.697875999999999,0.25367737,1.2394867,0.279068,0.17002869,0.10610962
8.053833000000001,-0.11264038,1.2897644,0.40583800000000003,0.0688324,0.06137085
8.678726,-0.70880127,1.6273499,0.50491333,-0.17510986,0.031539917
9.413742,-0.8500519,1.6369323999999998,0.59439087,-0.27844238,0.0017242432000000002
9.595703,-0.5771179,1.2730103000000002,0.5592345999999999,-0.10906982400000001,0.0070495605000000005
9.471207000000001,-0.31854248,0.72473145,0.45483398,-0.19108582,0.12742615
9.279663000000001,-0.35446167,0.25308228,0.29292297,-0.1772461,0.19665527
9.485565,-0.75668335,0.26264954,0.20663452,-0.30081177,0.19665527
9.887802,-1.1996002000000001,0.4948883,0.18426514,-0.71839905,0.35005188
9.420929,-1.1421508999999999,0.33448792,0.19171143,-0.7088165,0.54074097
8.717025999999999,-1.292984,0.6361541999999999,0.28227234,-0.22412110000000002,0.43208313
8.47522,-1.5347899999999999,0.47813416,0.28652954,-0.16764832,0.19560242
9.669922,-1.2067871000000001,0.3751831,0.20024109,-0.020645142,0.121032715
10.306778,0.7301178,0.6816406,0.1586914,0.11570739999999999,0.17216492
10.732956,0.552948,-0.632782,0.052169799999999995,0.14021301,0.11143494
11.257278,-0.7614746,-0.019851685,-0.07778931,0.13700867,-0.111206055
11.688232000000001,0.20100403,2.4198303,-0.11187744,0.15512085,-0.32957458
12.205383,0.5720978,2.9896545,-0.05116272,0.19773865,-0.37219238
12.58606,-1.1636963,2.1684417999999996,0.010620117,0.20518494,-0.31892395
10.905334,-1.3360748,2.987259,0.044708252000000004,0.2648468,-0.29122925
9.212631,-1.6760558999999997,2.5131989,0.008499145500000001,0.29573059999999995,-0.27737427
10.0961,-0.5100707999999999,2.6329192999999997,-0.075668335,0.3117218,-0.22944641
12.088074,0.49069214,2.532364,-0.14064026,0.3394165,-0.11759949
12.363403,0.23213196,1.8117064999999999,-0.19177246,0.35325623,-0.04408264
11.520645,-0.11024475,1.5890503,-0.2184143,0.35858154,-0.022781372
10.476776,-0.12939453,1.6225586,-0.23651123,0.33621216,0.032608032
9.186295,-0.53163147,1.5291901,-0.28019714,0.26164246,0.08799744
8.652389999999999,-0.6154175000000001,1.3089294,-0.3792572,0.045394897000000003,0.14979553
8.262131,0.13156128,1.0623169,-0.49751282,-0.099472046,0.17321777
8.2789,0.84265137,1.0144348,-0.6306609999999999,0.060317993,0.11782837
8.491974,1.1754456,1.0431671,-0.78086853,0.15086365,0.109313965
9.071381,0.86180115,1.0695038000000001,-0.87887573,0.09545898400000001,0.11463928
9.253342,0.62716675,1.050354,-0.86076355,0.057113647000000003,0.033676147000000003
8.985184,0.7947693,0.88275146,-0.8447876,0.054992676,-0.076049805
9.035461,0.6295624,0.5092621,-0.8809966999999999,0.2264862,-0.17298889
8.8702545,0.3470459,0.38955688,-1.0344086,0.21157837,-0.35940552
8.324387,0.47872925,-0.043807982999999995,-1.0546417,0.2414093,-0.6651305999999999
8.034683,0.85461426,-1.4276427999999999,-0.8543700999999999,0.24247742,-0.9208069
8.6284485,1.1083983999999998,-0.92726135,-0.63705444,0.15618896,-0.9303894
10.304382,0.38774109999999995,0.47813416,-0.44850159999999994,-0.099472046,-0.7056121999999999
11.367416,-1.1469421,1.0695038000000001,-0.2184143,-0.23582458,-0.33384705
10.747314,-1.3073424999999999,0.40631104,0.12567139,-0.20812988,0.06776428
10.622817999999999,0.22254944,0.36322020000000005,0.5059662,-0.13995361,0.35432434
12.435226,-0.11024475,1.8835297,0.7797394,-0.14955139,0.40652466
14.415237,-1.4366302,3.8443756000000002,0.8979950000000001,-0.17510986,0.34153748
13.718520999999999,-1.9992676,5.4173737,0.8063812,-0.12504578,0.28294373
10.634796000000001,-1.4150848,5.2282257,0.628479,0.015563965,0.28294373
8.839141999999999,-0.48373413,4.3735045999999995,0.46122742,0.10717773400000001,0.31491090000000005
8.223831,-0.36402893,3.0734557999999996,0.33978270000000005,0.14233398,0.27442932
8.963638000000001,-1.5036774,2.8747252999999997,0.29078674,0.121032715,0.17855835
9.727386,-2.9856873,3.0159912,0.32913208,0.099731445,0.13594055
10.718582000000001,-3.2322845,3.3439940999999997,0.4015808,0.10505676,0.13380432
11.001099,-2.0375824000000002,3.0518951000000003,0.45483398,0.13381958,0.11463928
9.588516,-0.5771179,1.8907166000000002,0.50491333,0.19985962,0.109313965
8.092148,0.24409485,1.1772461,0.59651184,0.20199585,0.11676025400000001
7.665985000000001,0.4619751,1.3352661,0.6327362,0.08161926,0.1434021
8.374664,-0.15093994,1.5627136000000001,0.6519165,-0.12611389,0.10610962
9.210236,-0.77583313,1.7255096,0.66363525,-0.11546326,-0.014266968
9.102492999999999,-1.1206055,1.644104,0.5294036999999999,-0.13676453,0.00491333
8.863083,-1.1804503999999998,1.4693298000000001,0.3035736,-0.33489990000000003,0.16363525
8.796036,-0.91470337,1.1197815,0.15124512,-0.25500488,0.1987915
9.073775999999999,-0.6369629,0.81092834,0.19384766,-0.3306427,0.07841492
9.145599,-0.43585205,1.0096436,0.42607117,-0.7088165,0.0070495605000000005
8.290863,-0.11503601,0.8300780999999999,0.677475,-0.8366394,0.20732117
7.914978,-0.38796997,0.45419312,0.81915283,-0.6278534,0.48002625
8.9253235,-1.2115784,0.063934326,0.6380615,-0.384964,0.6238251
10.158339999999999,-1.2474976,0.6026305999999999,0.41116333,-0.17831421,0.70692444
10.644363,0.473938,0.41110230000000003,0.14590454,-0.11439514,0.73994446
11.697815,0.5601349,-1.2337189,0.08093262,-0.19108582,0.397995
12.092865,-0.8165283,-1.0445709,-0.038375854,-0.22944641,-0.13569641
11.494308,-1.9825133999999998,0.7438965,-0.028793335,-0.029174805,-0.44995117
10.627609,-1.6784515,2.6233367999999997,-0.0415802,0.13594055,-0.46380615
9.298828,-1.2594604,3.7390442000000004,-0.1161499,0.29573059999999995,-0.35194397
8.851105,0.2895813,2.9513397,-0.22053528,0.45233154,-0.37644958
10.402557,1.117981,2.7789612,-0.45063782,0.4960022,-0.46592712
12.435226,0.24888611,3.4517365,-0.6817932,0.45126343,-0.48191833
13.79274,-0.04560852,3.5905913999999997,-0.7499695,0.37989807,-0.37965393
13.412064,-1.3073424999999999,1.7111511000000001,-0.72654724,0.30744934,-0.16445923
13.234894,-1.1062317,0.5738983,-0.5880585,0.31916809999999995,-0.057937622
12.243698,0.09565735,0.9857024999999999,-0.45915222,0.40866090000000005,-0.03236389
10.68985,1.0772858,1.3328705,-0.39630127,0.43740845,0.045394897000000003
9.329956,0.91207886,1.6608734,-0.4730072,0.23927307,0.15724182
8.159180000000001,1.0269928,1.4453888000000001,-0.62960815,-0.04940796,0.20732117
7.505569500000001,1.1562805,1.2227325,-0.81921387,-0.10267639,0.15405273
7.9006042,1.0581207000000001,1.6321411,-0.94065857,0.097595215,0.05390930000000001
8.135239,-0.22755432,1.3927155,-0.8458556999999999,0.123168945,-0.023849487000000003
8.752945,-1.0296173,1.2897644,-0.60935974,0.060317993,-0.10374451
9.136016999999999,-1.0511627000000001,0.91867065,-0.41229248,0.048599243,-0.18257141
8.810410000000001,-0.49331665,0.87557983,-0.3238678,0.17323303,-0.22305298
8.293258999999999,-0.009689330999999999,0.9545745999999999,-0.47514343,0.16363525,-0.40521240000000003
8.070602000000001,0.23930359,0.60502625,-0.58273315,0.2414093,-0.73757935
7.859909,0.63674927,-0.24731445,-0.5422516,0.20411682,-0.9559479
8.348328,0.82110596,-1.5162354,-0.41229248,-0.06965637,-0.86647034
9.959625,-0.09588623,0.48292542,-0.24078369,-0.20280457,-0.48191833
11.240524,-2.0016632,1.6369323999999998,-0.022399902000000003,-0.17297363,-0.07817078
11.781616,-2.16687,0.89712524,0.24072266,-0.19429016,0.175354
11.549377,-0.14376831,0.6600951999999999,0.49105835,-0.19108582,0.30638123
12.526214999999999,0.23451233,1.5866547,0.6923981,-0.12078857400000001,0.37348938
13.895691000000001,-0.45979309999999995,3.2697754,0.7616272,-0.043014526,0.4022522
12.569305,-0.37600708,5.233017,0.6657562,0.014511108,0.37669373
10.055389,-0.7734375,5.6352386,0.50917053,0.0730896,0.41717529999999997
9.164749,-0.7327423000000001,4.260971,0.35896300000000003,0.057113647000000003,0.431015
9.363464,-0.91470337,3.2841339999999994,0.28227234,0.08374023400000001,0.36497498
9.588516,-1.8628082,3.2913208,0.27374268,0.056045532,0.2818756
9.890198,-2.6385193,3.2554016,0.2609558,-0.038757323999999996,0.21264648
10.845474000000001,-2.470932,3.0854187,0.27160645,-0.07498169,0.17642212
10.517471,-1.7550659,2.5993958,0.3312683,-0.05366516,0.128479
9.179108,-0.49331665,2.1253509999999998,0.4367218,-0.015319824,0.10398865
7.598938,0.24409485,1.6896057,0.5730896,0.020904541000000002,0.10185242
7.5414734,-0.21080017,1.6824188000000002,0.71902466,0.13381958,0.10185242
8.805617999999999,-0.5364075,2.0176086,0.7584380999999999,0.054992676,0.10185242
9.317978,-0.76387024,2.1540833,0.6891937,0.12422180000000001,0.064575195
9.167145,-0.9889220999999999,1.7733917000000001,0.51982117,0.121032715,0.15724182
8.992371,-0.9099120999999999,1.2059784,0.35896300000000003,0.0027923584,0.34793090000000004
9.119263,-0.8596344000000001,0.8348694,0.23858643,0.109313965,0.42250059999999995
9.143203999999999,-0.74949646,0.6648864999999999,-0.035186768,-0.2571411,0.5790863
8.877441000000001,-0.6824646,0.5020752,-0.15768433,-0.44888306,0.6259613
8.762527,-0.6728821,0.24829102,0.11820984,-0.23156738,0.42889404
8.88942,-0.81414795,0.61221313,0.38665770000000005,-0.07923889,0.10078430000000001
9.686691,-1.0822906,0.3249054,0.59332275,-0.18257141,-0.14741516
10.996307,-0.77583313,0.9234619000000001,0.69026184,-0.02810669,-0.14741516
11.271652,1.3813476999999998,0.8947296,0.59225464,0.045394897000000003,-0.005737304699999999
11.716965,0.6894226,0.49967957,0.37600708,0.09545898400000001,0.031539917
12.660278,-0.031234741,3.145279,0.12034607,0.0965271,-0.036636352999999997
14.403259,0.50027466,3.5738373,-0.044769287000000005,0.054992676,-0.18577576
13.35939,-1.3001709,2.4485626,-0.07992554,0.039001465,-0.32957458
10.989136,-3.114975,2.2809752999999997,-0.011749268,0.09333801,-0.41479492
8.355514999999999,-2.9904632999999996,3.0518951000000003,0.0756073,0.17002869,-0.43078613
7.606125,-1.9298401,2.0487366000000002,0.056427002000000004,0.21051025,-0.396698
8.551834,-0.24911499,2.5443267999999994,-0.06927489999999999,0.24353027,-0.36579895
10.35228,1.2137451000000001,2.8196716,-0.2184143,0.23075867,-0.30613708
11.156723,1.7620238999999998,2.8675537,-0.35795593,0.15405273,-0.24967957
10.881393,1.0892487,2.8795166,-0.43038940000000003,0.035812378,-0.18363953
9.617249000000001,-0.5388031,2.6329192999999997,-0.38992309999999997,0.031555176000000004,-0.095214844
9.025879,-1.3791656,2.5539092999999995,-0.34944153,0.064575195,-0.027038574
8.647598,-0.8739929,2.7262877999999997,-0.38352966,0.06990051,0.035812378
7.9652557,0.14353943,2.3264617999999997,-0.42826843,0.017700195,0.07627869
8.293258999999999,1.0006714,1.9649352999999998,-0.50390625,-0.014251709,0.064575195
8.884628,1.5082396999999998,1.9601439999999999,-0.5465088,0.025161742999999997,-0.005737304699999999
9.157561999999999,1.244873,1.7518463,-0.597641,-0.007858275999999999,-0.10588074
9.555008,0.4116974,1.5890503,-0.51667786,-0.024902344,-0.21453857
10.127213000000001,0.009460449000000001,1.1820374,-0.30682373,-0.0014801025,-0.28057859999999996
10.129608000000001,0.05973816,0.76304626,-0.22053528,0.15618896,-0.27204895
9.303619,0.18423462,0.32969666,-0.29403687,0.15830994,-0.32318115
8.453674000000001,0.28001404,0.104644775,-0.23332214,0.2499237,-0.47659302
8.003555,0.58647156,0.016052246000000003,-0.13851929,0.07096863,-0.6225281
8.563797000000001,0.75405884,-0.12998962,-0.07672119,-0.15167236,-0.6033478
10.172714,0.28001404,0.13337708,-0.06074524,-0.16552734,-0.42439269999999996
11.748092999999999,-1.0846863000000002,0.16448975,-0.05329895,-0.18682861,-0.1772461
11.470367,-1.3384705,0.035202026000000004,0.0287323,-0.20812988,0.06350708
11.003494,0.17706299,0.49011229999999995,0.21409607,-0.19322205,0.20518494
12.444809,-0.4262848,2.7238922000000003,0.42074585,-0.16552734,0.2733612
13.189407000000001,-1.3887482,4.7182617,0.5400543000000001,-0.06326294,0.27229309999999995
11.195038,-1.2834014999999999,6.4995575,0.51342773,-0.01852417,0.28082275
8.851105,-0.4406433,5.398224,0.42607117,0.0017242432000000002,0.39373779999999997
8.683517,-0.04081726,3.5307465,0.36109924,0.027282715,0.46298218
9.770477,-0.15093994,3.1668243,0.3035736,0.027282715,0.45765686
10.086517,-0.7327423000000001,3.0734557999999996,0.27267456,0.01876831,0.3756256
9.794417999999999,-1.6832428,3.1045685,0.24818420000000002,-0.035568237,0.27761840000000004
9.971588,-2.1477049999999998,2.9824677000000004,0.2566986,-0.023849487000000003,0.22755432
9.765686,-1.3911438,2.470108,0.29824829999999997,0.04006958,0.16789246
8.434525,-0.6321869000000001,1.8907166000000002,0.33340454,0.10292053,0.11996459999999999
7.795273,-0.40234375,1.8045197,0.39837646,0.11250305,0.09866333
8.080169999999999,-0.38557434,2.0487366000000002,0.46548462,-0.024902344,0.07202148400000001
8.561417,-0.46937559999999995,2.221115,0.56030273,-0.11013794,0.034744263
9.016312,-0.50050354,2.2091369999999997,0.55070496,0.16363525,-0.00680542
9.152771000000001,-0.6178130999999999,1.7279053,0.3781433,-0.00041198730000000005,0.08799744
9.121658,-0.67048645,1.1509094,0.18319702,-0.12504578,0.32235718
9.52388,-0.68725586,0.87557983,0.012756348,-0.012130736999999999,0.37030029999999997
9.775269,-0.72076416,0.53559875,-0.13638306,-0.16871643,0.36816406
9.76091,-0.73991394,0.64334106,-0.18537903,-0.48722840000000006,0.54499817
8.954056,-1.0344086,0.7558594,-0.052230835,-0.26458740000000003,0.5460663
8.420150999999999,-1.2043915,0.3536377,0.01701355,-0.22198486,0.34153748
9.279663000000001,-1.1445465,0.25068665,0.021270752,-0.20387268,0.20944214
10.345092999999999,-0.25151062,1.6153870000000001,0.13632202,-0.12184143,0.15405273
10.764069000000001,1.8170929,0.6194,0.21728516,-0.064331055,0.07948303
11.575714,0.67025757,-0.6064453000000001,0.15975952,-0.040893555,-0.07284546
12.088074,-0.6393585,1.13414,0.023406982000000003,-0.00680542,-0.17938232
12.677048,-0.05996704,2.3001251,-0.14277649,0.0027923584,-0.21453857
12.789566,-0.75668335,2.4365845,-0.23332214,0.029418945,-0.31785583
10.977158,-1.7646331999999998,3.5115814,-0.23971558,0.0922699,-0.45315552
9.219818,-1.8891449,4.038315,-0.25569153,0.16363525,-0.5032196
9.698654,-1.5874633999999999,3.6935425000000004,-0.26634216,0.19346619,-0.47764587
10.632400500000001,-1.2019958,3.1955566,-0.32493590000000006,0.16897583,-0.36686707
10.953217,-0.25868225,2.5658722000000003,-0.38352966,0.14447021,-0.22518921
11.070526,0.84265137,2.35997,-0.40162659999999994,0.09866333,-0.14102173
10.859848,1.0724945,2.1708374,-0.36328125,0.097595215,-0.08988953
10.294815,0.21057129,2.0654907,-0.32707214,0.14447021,-0.034500122
9.46402,-0.41430664,2.3096924,-0.34304809999999997,0.12422180000000001,0.06350708
8.590133999999999,-0.16770935,2.0990142999999994,-0.41548157,-0.020645142,0.14552307
7.967651400000001,0.17227173,2.1875916,-0.48686218,-0.16978455,0.13275146
8.441696,0.6128081999999999,2.1349182,-0.5965729000000001,-0.09414673,0.085876465
9.090530000000001,0.7516632,1.8428345000000002,-0.6690216,0.0017242432000000002,0.04006958
9.04744,0.3685913,1.7398833999999999,-0.6029663000000001,-0.007858275999999999,-0.10055542
8.846313,-0.11743164,1.3807526,-0.42506409999999994,-0.024902344,-0.23690796
9.095322,-0.35206604,0.9785155999999999,-0.2769928,0.13061523,-0.26672363
9.073775999999999,0.0022888184,0.8444519,-0.26634216,0.23394775,-0.29548645
8.496765,0.014251709,0.44461059999999997,-0.30256653,0.039001465,-0.511734
8.075394000000001,-0.04798889,0.10942078,-0.28338623,-0.027038574,-0.71307373
7.6635895000000005,0.37817383,-0.70700073,-0.23013306,0.033676147000000003,-0.71733093
8.290863,0.64871216,-0.582489,-0.16940308,-0.00041198730000000005,-0.6267853
10.699432,-0.6393585,0.79896545,-0.063949585,-0.05899048,-0.4275818
11.930054,-2.0567322,1.13414,0.1309967,-0.1303711,-0.19535828
11.429657,-1.0487671,0.6864319000000001,0.37493896,-0.23156738,0.0038452148
11.355438000000001,-0.0048980713,1.8141022,0.56669617,-0.2518158,0.14659119
13.428818,-1.0631409,4.134079,0.66363525,-0.19747925,0.24459839
12.995467999999999,-1.0942688,4.304062,0.6689606,-0.11332703,0.28507996
9.794417999999999,-0.05038452,3.9808502,0.6039734,-0.015319824,0.29786682
9.104889,-0.15093994,3.9617004000000002,0.54219055,0.043273926,0.32130432
10.151154,-0.9673767,3.7845306000000005,0.52407837,0.0730896,0.33195496
10.579727,-1.3288878999999998,3.9449463,0.49957275,0.057113647000000003,0.28720093
9.866257000000001,-1.7909698,3.897049,0.39305115,-0.00680542,0.19665527
8.779282,-2.0303955,3.1356964,0.27587890000000004,-0.00041198730000000005,0.16896057
8.585358,-1.6760558999999997,2.3767395000000002,0.20024109,0.11677551,0.15830994
8.875046000000001,-0.7878113,2.1468964,0.21728516,0.24673462,0.16256714
8.460846,-0.17489624,1.7326965,0.27374268,0.34899902,0.17216492
8.266922000000001,-0.14376831,1.6656647,0.34298706,0.33621216,0.17002869
9.013916,-0.8045654000000001,1.5698853000000002,0.44525146,0.08908081,0.17749023
10.160736,-0.6465454,1.6417236000000002,0.58374023,-0.08882141,0.18388367
10.436066,-0.07194519,1.0527496,0.6306,0.045394897000000003,0.14872742
10.325942999999999,0.48591614,0.52601624,0.44525146,0.05392456,0.16896057
10.452835,0.45239258,0.25068665,0.24284363,-0.22091675,0.31491090000000005
10.122437,-0.10545349,0.32250977,0.06814575,-0.31466675,0.34260559999999995
9.815978999999999,-0.68006897,0.38476562,0.022338867000000002,-0.30827332,0.2030487
9.634018,-1.0128632,0.65530396,0.12780762,-0.51812744,0.2456665
8.549438,-0.8907623,0.88035583,0.14697266,-0.74183655,0.44380188
7.658798,-0.5866852,0.48532104,0.21514893,-0.44888306,0.46617126
7.9485016,-0.74710083,-0.074920654,0.14590454,-0.3263855,0.40438843
8.973206,-0.842865,0.56910706,0.046844482,-0.19961548,0.42675779999999996
9.648375999999999,0.51464844,1.3256836,0.06175232,-0.08882141,0.47149658
10.606064,0.5936431999999999,-0.0007019042999999999,0.08093262,-0.10374451,0.23820496
11.707397,-0.35684204,-0.25209045,-0.038375854,-0.07498169,-0.09628296
12.013855,-0.55078125,1.3639832,-0.11933899,0.009185791,-0.33596802
11.013077000000001,-1.079895,1.9625397,-0.26208496,0.11889648400000001,-0.42225647
10.7114105,-1.8891449,2.173233,-0.42401123,0.20092773,-0.45527650000000003
10.07933,-0.65133667,3.5020142,-0.5699463,0.30532837,-0.5852356
10.165527,-0.9984894,4.550674400000001,-0.7371979000000001,0.32342529999999997,-0.68644714
12.078491,-0.65133667,4.514755200000001,-0.89271545,0.25312805,-0.6470336999999999
13.213348000000002,-0.40711975,3.8874817000000004,-0.9331969999999999,0.24780273,-0.46592712
12.38974,-0.6441498000000001,1.723114,-0.83413696,0.30212402,-0.27204895
11.8701935,-0.33769226,1.1820374,-0.6903229000000001,0.3394165,-0.14848328
11.472763,0.60562134,1.0335846,-0.5795288000000001,0.3671112,-0.08456421
9.849487,0.8306732,0.9904938,-0.53266907,0.36497498,-0.0025482178
9.033066,0.56492615,1.165268,-0.564621,0.2648468,0.09971619
8.314803999999999,0.75405884,1.1724548000000001,-0.6253357,0.13488770000000003,0.1561737
7.677948,0.766037,1.3663788000000001,-0.6594238,-0.022781372,0.10824585
7.9413146999999995,0.57688904,1.4405975,-0.7222748000000001,0.024093628,0.036865234
8.645203,-0.14137268,1.5914458999999999,-0.6945800999999999,0.18707275,-0.01638794
8.8702545,-0.77822876,1.5267944,-0.57740784,0.08055115,-0.087768555
9.028275,-0.86203,1.2658234,-0.43572998,-0.05366516,-0.13996887
9.195877000000001,-0.5052948,1.0766907,-0.34411620000000004,0.014511108,-0.13783264
9.080948,-0.19644165,0.7558594,-0.43466187,0.13594055,-0.16233826
8.621262,-0.3616333,0.14533997,-0.6242675999999999,0.17216492,-0.34875488
8.300446,-0.14376831,0.36799622,-0.63705444,0.2414093,-0.6150665
8.37706,0.30155945,-0.4771576,-0.36648559999999997,0.15086365,-0.8504944
9.887802,0.20339966,-0.07971191400000001,-0.06820679,-0.01638794,-0.81747437
11.489517,-1.1349639999999999,1.7374878,0.1352539,-0.07817078,-0.58843994
10.831116,-1.8580169999999998,1.0288085999999999,0.21835327,-0.3625946,-0.23051453
9.83992,-0.61302185,-0.4771576,0.33766174,-0.26565552,0.06669617
9.966812,0.6295624,-0.2137909,0.47080994,-0.14848328,0.22329712
11.606842,-0.07672119,1.8141022,0.61782837,-0.09414673,0.36390686
12.672255999999999,-0.72076416,4.15802,0.7595062,0.011306763000000001,0.43421936
12.885345,-1.8651886000000002,6.8155823,0.76802063,0.074157715,0.41824340000000004
11.40094,-2.9114685000000002,6.157181,0.69558716,0.109313965,0.46084595
9.854279,-1.4557799999999999,5.063034,0.6242218,0.18067932,0.48960876
8.855896000000001,-0.6034546,4.488418599999999,0.5858612,0.20944214,0.43208313
9.485565,-0.46937559999999995,2.6688232000000003,0.5336609,0.17216492,0.3330078
10.756897,-0.8165283,2.3384247000000005,0.45910645,0.123168945,0.22009277
11.094482000000001,-1.1756592,2.4796906,0.38772583,0.11996459999999999,0.16577148
10.780838000000001,-1.4438171,2.3863068,0.34512329999999997,0.17855835,0.1710968
9.44487,-0.89793396,1.9840851000000002,0.32913208,0.17216492,0.13700867
7.764145,-0.44783019999999996,1.6896057,0.33766174,0.11250305,0.09545898400000001
7.871886999999999,-0.4262848,1.6129913,0.36428833,0.026229857999999998,0.035812378
8.415359500000001,-0.44783019999999996,1.9338074,0.42395020000000005,-0.09095764,-0.01852417
8.484802,-0.33050537,1.8835297,0.4601593,-0.008926392,-0.08244324
8.664368,-0.12939453,1.5770721,0.33552550000000003,-0.0014801025,-0.06752014
8.812805,-0.04321289,1.3352661,0.17787170000000002,-0.15060425,0.16256714
8.678726,0.016647339,1.0407715,0.035125732,-0.09628296,0.33621216
8.822372,-0.33050537,1.0216216999999999,-0.075668335,-0.12184143,0.34686279999999997
9.006729,-0.40711975,0.8229065000000001,-0.14810179999999998,-0.6832428,0.42675779999999996
9.167145,-0.38796997,0.60502625,0.008499145500000001,-0.5809784,0.55992126
8.867874,-0.44303894,0.5020752,0.29185486,-0.29655457,0.43421936
9.157561999999999,-0.72076416,0.36322020000000005,0.38346863,-0.3263855,0.31596375
10.359451,-0.98413086,1.0192261,0.42395020000000005,-0.15699768,0.35112
10.931671000000001,0.56492615,1.4884948999999998,0.50491333,-0.106933594,0.27549744
11.444030999999999,0.6415405,0.15969849,0.44950867,-0.10479736,0.11250305
11.795975,-0.34727478,0.7103729,0.25883484,-0.09735107400000001,-0.10160828
11.767242,-0.08869934,2.9992217999999995,0.043640137,-0.08563232400000001,-0.26992798
12.15271,-0.22994995,2.6879882999999998,-0.10443115,-0.04833984400000001,-0.34661865
11.726547,-2.4804993,2.5898132,-0.13745117,0.02835083,-0.42439269999999996
9.634018,-2.7869568,3.92099,-0.10443115,0.1434021,-0.49363708
9.159958,-2.1405334,3.4445495999999998,-0.16088867,0.23075867,-0.49363708
10.3953705,-1.2642517,3.4206084999999997,-0.29084778,0.23394775,-0.48191833
11.10405,-0.05278015,2.5634918,-0.41334534,0.24780273,-0.41799927
11.161514,0.7612456999999999,1.8667755000000001,-0.517746,0.19239807,-0.32957458
11.118423,1.1993866000000002,1.8476256999999998,-0.5571594,0.14021301,-0.2603302
10.802383,1.062912,1.8093109,-0.51242065,0.11996459999999999,-0.2006836
10.165527,0.04298401,1.8428345000000002,-0.45382690000000003,0.16044617,-0.12185669
9.545425,-0.5603484999999999,2.039154,-0.45277405,0.19985962,-0.0014801025
8.635635,-0.13897705,1.8500061,-0.5337219,0.060317993,0.09866333
7.958069,0.9216614,1.7087555,-0.64131165,-0.11546326,0.0922699
8.417755,1.5992126,1.8308563000000002,-0.74038696,-0.11972046,0.045394897000000003
8.484802,1.1706543,1.7710113999999997,-0.8032379,0.043273926,0.0027770996
8.7864685,0.47633362,1.6560822,-0.773407,0.13700867,-0.08137512
9.152771000000001,0.14353943,1.5890503,-0.62960815,0.18388367,-0.22198486
9.255722,0.16268921,1.2203369,-0.42720032,0.35432434,-0.30187988
9.114471,0.33268738,0.77500916,-0.34516907,0.1668396,-0.38070679999999996
8.606902999999999,0.20817566,0.545166,-0.27166748,0.033676147000000003,-0.48617554
8.415359500000001,-0.024047852,0.55714417,-0.20137024,0.1391449,-0.4510193
8.314803999999999,0.50027466,0.21716309,-0.23439026,0.09545898400000001,-0.42332458
9.334732,0.6798401,-0.44842529999999997,-0.31108093,-0.009994507,-0.40734863
11.587677000000001,0.026229857999999998,0.114212036,-0.28659058,0.024093628,-0.28271484
13.292357999999998,-1.0870819,0.4948883,-0.096969604,-0.008926392,-0.11332703
12.715347,-1.0990448,0.9617614999999999,0.18533325,-0.12078857400000001,0.109313965
12.583664,-0.5268401999999999,2.9896545,0.47720337,-0.18043518,0.2541809
14.089615,-1.2714386,3.4924315999999997,0.6274109,-0.21878052,0.29573059999999995
11.9133,-0.56993103,3.5618591,0.63487244,-0.15060425,0.32556152
8.788864,0.16268921,4.0526733,0.53686523,-0.045150757,0.3521881
8.00116,0.19381714,3.5881958,0.43885803,0.00065612793,0.3756256
8.776886,-0.10066223,3.16922,0.41862488,0.01876831,0.40864563
9.935684,-1.3097382,3.8324127,0.45057678,-0.012130736999999999,0.36923218
9.78006,-2.2482604999999998,4.0885925,0.43992615,-0.05580139,0.33621216
9.291641,-2.561905,3.8826904000000004,0.38453674,-0.04940796,0.28933716
8.884628,-2.2195435000000003,3.2027435,0.33659363,-0.021713257000000003,0.23820496
8.772095,-0.759079,2.5131989,0.30569458,0.023025512999999997,0.18600464
8.123275999999999,0.28479004,1.8883208999999999,0.31529236,0.050720215,0.13168335
8.008347,0.06213379,1.8787383999999998,0.38879395,0.056045532,0.11143494
8.664368,-0.71836853,2.1397095,0.46443176,-0.008926392,0.08374023400000001
9.308394999999999,-1.395935,2.3743439,0.49105835,-0.20387268,0.017700195
9.418533,-1.2594604,1.8045197,0.49745178,-0.095214844,-0.06965637
9.691467,-0.37600708,1.1796417,0.325943,0.10185242,-0.07072449
9.909348,-0.06236267,0.79896545,0.0074310303000000005,-0.07498169,0.21902466
9.976379,-0.21798706,0.5092621,-0.23013306,-0.08988953,0.45552063
10.0434265,-0.47177124,0.4733429,-0.5188141,-0.38710022,0.52156067
9.748932,-0.65133667,0.39433290000000004,-0.58380127,-0.6310425000000001,0.56417847
8.934906,-0.88597107,0.31054688,-0.21202087,-0.22517395,0.40652466
8.013138,-1.0176544,0.47094727,0.012756348,-0.29762268,0.18814087
8.441696,-1.0679321000000002,-0.18745422,0.17041016,-0.19961548,0.10610962
10.050597999999999,-0.91230774,0.29138184,0.31422424,-0.054733276,0.16363525
10.902939,0.8282776,0.77023315,0.36003113,0.019836426,0.19132996
11.762450999999999,1.4914703,0.46138,0.22579956,0.036880493,0.05178833
12.214966,0.85461426,2.0511322,0.041519165,0.07096863,-0.174057
12.796753,0.29676820000000004,2.3839264,-0.15449524,0.05178833,-0.32745359999999996
12.382553,-1.8963165000000002,1.802124,-0.23118591,0.088012695,-0.43823242
9.775269,-2.9162445,2.987259,-0.23013306,0.17430115,-0.49150085
8.693085,-2.3823395,3.2194977000000002,-0.2184143,0.25099182,-0.45741272
9.724991000000001,-1.8316803,3.3918762000000005,-0.25994873,0.28082275,-0.40734863
11.477554,-0.60824585,3.399063,-0.30470276,0.27975464,-0.36579895
12.013855,0.65589905,2.6831970000000003,-0.2769928,0.23608398,-0.25500488
11.118423,0.95277405,2.1157684,-0.23332214,0.23075867,-0.14741516
10.421707000000001,0.7325134,2.2235107000000003,-0.21414185,0.25312805,-0.064331055
9.811188000000001,0.05973816,2.2905425999999998,-0.2216034,0.28082275,0.010238647
8.9253235,-0.42388916,2.1780242999999997,-0.28126526,0.20518494,0.11038208
8.187911999999999,-0.32333374,1.9912720000000002,-0.3473053,0.026229857999999998,0.19985962
8.149612,0.19621277,1.8524017,-0.41548157,-0.04940796,0.19026184
8.937302,0.70617676,1.7733917000000001,-0.51242065,0.06350708,0.12528992
9.308394999999999,0.4045105,1.9529572,-0.5891266,0.043273926,0.023025512999999997
9.502335,0.026229857999999998,1.6656647,-0.53904724,-0.04194641,-0.14741516
9.389801,0.023834229,1.2993469,-0.37713623,-0.029174805,-0.2603302
9.227005,0.3829651,0.9066924999999999,-0.25994873,0.13168335,-0.25820923
8.985184,0.6463165,0.6098175,-0.328125,0.15618896,-0.34236145
8.460846,0.51942444,0.22434998,-0.41122437,0.07203674,-0.5959015000000001
8.025116,0.4332428,-0.29998779999999997,-0.29084778,0.11357117,-0.7631378000000001
8.008347,0.7085724,-0.8602295,-0.2216034,0.12635803,-0.7759246999999999
9.224609,0.84025574,0.2052002,-0.15768433,0.02835083,-0.75141907
11.415298,-0.31375122,0.9521941999999999,-0.13319397,-0.12823486,-0.53305054
11.642746,-1.5276184,0.6002350000000001,-0.043701172,-0.13783264,-0.19961548
10.297211,-0.14376831,0.38955688,0.15975952,-0.11758423,0.13380432
11.393753,0.50746155,2.1804047000000004,0.36322020000000005,-0.17192078,0.31809998
14.630707000000001,-1.4462128,4.6009519999999995,0.53793335,-0.10054016,0.38734436
13.51741,-1.5970459,5.702286,0.59757996,-0.031295776000000004,0.37776184
9.614853,-1.1780548,5.0845795,0.5443268,-0.034500122,0.37136840000000004
9.389801,-0.92427063,4.6584167,0.48147583,0.08055115,0.41717529999999997
9.559799,-0.46218872,4.0047913,0.38879395,0.10717773400000001,0.42675779999999996
9.890198,-0.38557434,3.5187682999999996,0.31636047,0.052856445,0.34260559999999995
9.693863,-0.92666626,3.2194977000000002,0.28971863,0.035812378,0.27229309999999995
9.435286999999999,-2.044754,2.920227,0.28227234,-0.007858275999999999,0.2179718
9.643585,-2.2410889,2.4772950000000002,0.29824829999999997,-0.014251709,0.17216492
9.150391,-1.5276184,2.1157684,0.30569458,0.02835083,0.13700867
8.108902,-0.95539856,1.7733917000000001,0.31529236,0.10292053,0.11250305
8.290863,-0.52923584,1.9170532,0.34724426,0.17749023,0.08694458
8.29805,-0.33529663,1.8955078,0.38453674,0.097595215,0.052856445
8.987579,-0.4765625,2.0367584,0.45164490000000007,-0.011062622,0.01449585
9.645980999999999,-0.5555725,1.8045197,0.44206238,0.15937805,-0.08456421
9.306000000000001,-0.4885254,1.6082001,0.20875549999999998,0.017700195,-0.014266968
8.839141999999999,-0.49571228,1.2801971,-0.043701172,-0.18896484,0.22969055
8.846313,-0.3496704,0.77023315,-0.23864746,-0.07923889,0.33407593
9.258118,-0.11024475,0.44700623,-0.3473053,-0.19641113,0.27442932
9.370650999999999,-0.20600891,0.23153687,-0.31214905,-0.6129303,0.3276825
8.681122,-0.6465454,0.55714417,-0.0650177,-0.4840393,0.42462158
8.104111,-0.91470337,0.44940186,0.11820984,-0.28269958,0.30212402
9.227005,-1.0870819,0.6576996,0.197052,-0.21240234,0.21369934
10.35466,-0.22277832,1.6560822,0.20663452,-0.050476074,0.31170654
10.979553,1.6063995,0.8157196,0.27374268,-0.022781372,0.3202362
11.99469,1.3262787,-0.8338928,0.21728516,-0.04940796,0.19665527
12.406494,-0.22277832,0.6313629,0.07347107,-0.04940796,-0.035568237
12.614792,-0.625,2.3264617999999997,-0.040512085,-0.027038574,-0.23051453
12.849426,-1.1014403999999998,3.24823,-0.13424683,0.025161742999999997,-0.28590393
11.554169,-2.2841797,2.8436127,-0.17579651,0.10612488,-0.3306427
9.181503,-2.0495453,3.5642547999999996,-0.16088867,0.1987915,-0.46806335
8.506348,-2.281784,3.5834197999999997,-0.24717712,0.222229,-0.56607056
10.27327,-1.1660919,3.9066315,-0.36648559999999997,0.22329712,-0.5404968000000001
11.733734,0.05256653,3.1093597,-0.43466187,0.22010803,-0.35301208
11.625992,0.5385895,2.3815307999999997,-0.46981812,0.18707275,-0.19642639
10.797592,0.53619385,2.1157684,-0.4410553,0.1625824,-0.14315796
10.361847000000001,0.24649048,1.8236694,-0.36753845,0.20306396,-0.11225891
9.708236999999999,-0.53401184,1.7973328000000002,-0.30895996,0.21690369,-0.009994507
9.238968,-0.7303467,1.8883208999999999,-0.32600403,0.11889648400000001,0.15298462
8.23819,0.28479004,1.6082001,-0.37820435,-0.00041198730000000005,0.22541809
7.9437103,1.0700988999999999,1.6464995999999998,-0.421875,-0.07923889,0.19560242
8.29805,0.9671478000000001,1.8404387999999998,-0.5209503,-0.0014801025,0.1710968
8.875046000000001,0.48112488,1.7374878,-0.5518341,0.088012695,0.10078430000000001
9.100098,-0.12939453,1.6680602999999998,-0.46022034,0.035812378,-0.04196167
9.088135000000001,-0.2993927,1.347229,-0.36009216,0.00491333,-0.14529419
9.016312,-0.05517578,1.1820374,-0.34411620000000004,0.07948303,-0.11759949
8.681122,0.31352234,1.0599213,-0.48898315,0.17216492,-0.1538086
8.523102,0.08128357,0.2889862,-0.6210785,0.1476593,-0.39988708
8.302841,0.22973633,0.13575745,-0.53904724,0.29893494,-0.74183655
8.302841,0.69898987,-0.577713,-0.33345032,0.16897583,-0.9303894
9.856674,0.5050659000000001,0.17167664,-0.15342712,0.02835083,-0.83451843
11.625992,-0.69203186,1.5746765,-0.09164429,-0.14315796,-0.5362395999999999
11.173477,-1.4893036,0.77023315,-0.063949585,-0.24861145,-0.16339111
10.024261,0.07411194,0.071121216,0.06707764,-0.2603302,0.07948303
10.735352,0.9647522,0.77023315,0.26522827,-0.21133423,0.21051025
13.198975,-0.45262146,3.3535767,0.49957275,-0.162323,0.31491090000000005
13.802322,-1.7526703000000001,5.192322,0.63912964,-0.04194641,0.32556152
11.709778,-2.2937622,6.715027,0.64445496,0.009185791,0.3330078
9.555008,-1.6281738000000001,5.56102,0.5911865,0.04006958,0.4256897
8.992371,-0.49092102,4.244217,0.5272826999999999,0.097595215,0.47363279999999996
8.908569,-0.02166748,3.2577972,0.45164490000000007,0.09333801,0.40971375
9.452057,-0.7135773,2.9321900000000003,0.37600708,0.041137695,0.30851746
10.105667,-1.8580169999999998,2.8172759999999997,0.3302002,0.035812378,0.25845337
10.634796000000001,-2.4421997,2.8579712,0.32913208,0.046463013,0.23927307
10.369034,-1.9058990000000002,2.4485626,0.38026428,0.057113647000000003,0.20092773
8.729004,-0.94581604,1.8835297,0.44099426,0.046463013,0.16789246
7.926941,-0.7518921,1.6967773000000002,0.49745178,-0.0046691895,0.109313965
8.468033,-0.4190979,1.8883208999999999,0.56988525,-0.12078857400000001,-0.0014801025
8.898987,-0.009689330999999999,1.9912720000000002,0.6657562,-0.16978455,-0.08563232400000001
9.157561999999999,-0.07672119,1.8883208999999999,0.661499,0.031555176000000004,-0.14741516
9.076157,-0.36402893,1.5986176,0.45271300000000003,-0.0046691895,-0.040893555
8.946869,-0.5388031,1.3280792,0.16615295,-0.29548645,0.20198059
8.985184,-0.6944275,1.2514648000000002,0.013824463,-0.24861145,0.3276825
9.119263,-0.6609191999999999,1.0120392,0.05003357,-0.17617798,0.26271057
9.174332000000001,-0.5603484999999999,0.4517975,0.11395264,-0.66300964,0.29786682
9.021103,-0.6178130999999999,0.15731812,0.22686768,-0.57351685,0.5567169
8.570984,-0.5603484999999999,-0.077316284,0.2843933,-0.4094696,0.61849976
9.030669999999999,-0.7878113,-0.06774902,0.20237732,-0.31892395,0.5705719
9.768082000000001,-0.61302185,1.2370911,0.17041016,-0.22198486,0.53860474
9.993149,0.65589905,1.323288,0.30569458,-0.23582458,0.3788147
10.929275500000001,0.85461426,-0.43405150000000003,0.31208800000000003,-0.23902893,0.1710968
11.975539999999999,-0.18206787,0.1477356,0.20556639999999998,-0.15274048,-0.07391357400000001
10.981949,-1.0224304,2.8268432999999997,0.06388855,-0.029174805,-0.23477173
10.811966,-0.7806244000000001,3.5355377,-0.10548401,0.109313965,-0.28590393
10.764069000000001,-1.0296173,3.1668243,-0.21202087,0.23394775,-0.33384705
10.203827,-1.0894774999999999,2.944168,-0.25675964,0.36178590000000005,-0.47019958
11.010681,-1.6305695,3.6289062000000007,-0.33451843,0.42463684,-0.54689026
12.119186000000001,-1.4557799999999999,4.1963349999999995,-0.41973877,0.41291809999999995,-0.5042877
12.112015,-0.8237152,3.1309052000000004,-0.42720032,0.42996216,-0.37644958
12.05455,-0.28501892,1.9601439999999999,-0.41654968,0.41824340000000004,-0.24328613
12.281998,0.47872925,1.5339813,-0.3984375,0.38734436,-0.16873169
11.475159,0.8809509,1.1125946000000002,-0.38565063,0.40438843,-0.122924805
10.002716,0.45718384,1.3089294,-0.36221313,0.44807434,-0.05580139
9.274887,-0.05038452,1.5890503,-0.37181090000000006,0.38415527,0.0688324
8.434525,0.10762024,1.6058044,-0.46235657,-0.009994507,0.17428589
7.9077910000000005,0.5314026,1.6153870000000001,-0.5529022,-0.23902893,0.16151428
8.005951,0.40690613,1.7805786,-0.6711425999999999,-0.07070923,0.09545898400000001
8.310013,-0.09588623,1.7350922,-0.70310974,0.11996459999999999,0.043258667
8.590133999999999,-0.17727661,1.8069153000000002,-0.5294647,0.10612488,-0.08670044
8.697875999999999,0.03579712,1.5651093,-0.31108093,0.076293945,-0.24116516
8.8702545,0.13874817,1.268219,-0.07034302,0.22436523,-0.31466675
8.954056,0.17227173,1.1724548000000001,0.014877318999999998,0.03048706,-0.3540802
8.307617,-0.08390808,1.3400421,0.009552001999999999,-0.062194824,-0.46273804
7.972442599999999,0.12199402,1.0910492,-0.040512085,0.015563965,-0.5447693
8.341141,0.45957947,-0.32392883,-0.15235901,0.07841492,-0.55648804
9.535843,0.4045105,-0.50349426,-0.25036620000000004,-0.035568237,-0.54156494
12.023422,-0.07194519,1.8452301,-0.2769928,-0.08563232400000001,-0.43078613
12.708160000000001,-1.8220977999999999,1.7662201000000002,-0.24397278,-0.19429016,-0.19535828
12.15271,-1.7071838,1.5315857,-0.10122681,-0.33383179999999996,0.015563965
11.939621,-1.1134186000000001,2.7717742999999997,0.07028198,-0.5213165,0.11570739999999999
12.952377,-1.0870819,2.8052979,0.19810486,-0.57351685,0.109313965
11.910903999999999,-0.009689330999999999,2.6544647,0.24818420000000002,-0.22305298,0.09971619
9.428116000000001,0.87376404,3.3487854,0.22474670000000002,-0.007858275999999999,0.13275146
7.993988000000001,0.49548339999999996,4.016769399999999,0.17787170000000002,0.0688324,0.20732117
8.053833000000001,0.07411194,3.5403137000000005,0.15975952,0.09440613,0.29786682
8.9253235,-0.5843048000000001,3.382309,0.23432922,0.14021301,0.33834840000000005
9.717804,-1.7574615000000002,3.7390442000000004,0.28865050000000003,0.12849426,0.30744934
9.483185,-2.221939,3.8778992,0.279068,0.0730896,0.25524902
9.44487,-2.1740417,3.0471191,0.25456238,0.08055115,0.23074341
10.409728999999999,-1.0870819,1.129364,0.24923706,0.13700867,0.18493652
10.498322,0.16748047,1.268219,0.2524414,0.1987915,0.15405273
9.306000000000001,0.12678528,1.4741211,0.30569458,0.25738525,0.12954712
8.944489,-0.70640564,1.5579223999999998,0.3770752,0.19560242,0.07948303
9.586121,-1.4318389999999999,2.094223,0.41967773,-0.17831421,0.02835083
9.483185,-1.3695983999999999,1.9888762999999998,0.5262146,-0.13143921,-0.04408264
9.46402,-0.9697571,1.6105957,0.5059662,0.22329712,-0.15274048
9.322769000000001,-0.54599,0.96655273,0.26734924,-0.05366516,0.12422180000000001
9.545425,-0.46697998,0.5738983,0.074539185,-0.15274048,0.45658875
9.76091,-0.45262146,0.33688354,-0.13851929,-0.045150757,0.5247649999999999
9.665131,-0.6178130999999999,0.14294434,-0.31640625,-0.4606018,0.5663147
8.915756,-1.0607452,0.24829102,-0.17260742,-0.47550964,0.62916565
7.5773926,-1.2522736,0.78219604,0.16828918,-0.19215393,0.4256897
7.3834686000000005,-0.91230774,0.36799622,0.29824829999999997,-0.27204895,0.25631714
9.416138,-1.0415955,1.153305,0.49638367,-0.16020203,0.20198059
10.021866000000001,0.38536072,2.0247955,0.6742859,-0.11013794,0.18707275
10.989136,1.5345764,0.7079773,0.64871216,-0.10374451,0.13380432
12.380157,0.48112488,0.61221313,0.48573303,-0.06538391,-0.024917602999999997
12.741684,-0.024047852,2.4365845,0.25776672,-0.04940796,-0.16766357
12.569305,-0.37121582,3.3583527,0.06175232,-0.04194641,-0.29229736
11.91568,-2.1333466,2.5036316000000003,-0.008544922,0.008117675999999999,-0.40307617
9.485565,-2.7965392999999996,3.6576385,-0.0074920654,0.13168335,-0.47019958
9.401779,-2.6121826,3.5115814,-0.06820679,0.20306396,-0.41479492
10.550995,-2.0615234,3.382309,-0.13212585,0.20944214,-0.3540802
11.451217999999999,-0.27545166,2.7741700000000002,-0.19709778,0.17962646,-0.25500488
11.604446000000001,0.9958800999999999,2.4174347000000003,-0.23118591,0.10292053,-0.16766357
11.204605,1.2089538999999998,2.197174,-0.21627808,0.11463928,-0.10160828
10.835907,0.69659424,1.9768982,-0.18858337,0.18920898,-0.046218872
9.614853,-0.26586914,2.027176,-0.20030212,0.25419617,0.017700195
8.855896000000001,-0.4406433,2.1804047000000004,-0.27166748,0.22436523,0.11996459999999999
8.214249,0.1698761,2.0846405,-0.36541748,0.10185242,0.19132996
8.240585000000001,0.6606903000000001,2.3144836,-0.48579407,0.008117675999999999,0.19985962
8.386627,0.9360199,2.070282,-0.59124756,0.15298462,0.17321777
8.444092,0.5122528000000001,1.8212891,-0.6168213,0.20518494,0.11996459999999999
8.970825,0.06932068,1.4765167,-0.4730072,0.18067932,-0.050476074
9.4592285,-0.13897705,1.165268,-0.25889587,0.11889648400000001,-0.22305298
9.437683,0.05734253,0.7845916999999999,-0.12466431,0.25845337,-0.27632140000000005
8.891815,0.5314026,0.49728394,-0.15875244,0.15618896,-0.35089109999999996
8.412964,0.5840759,0.30815125,-0.19709778,0.15405273,-0.5404968000000001
7.924545299999999,0.6822357,0.13815308,-0.2024231,0.19346619,-0.6502228
7.967651400000001,0.68463135,-0.7309418000000001,-0.20030212,0.085876465,-0.6289215
9.389801,0.03579712,0.28660583,-0.21946716,-0.11013794,-0.48617554
11.903717,-1.4366302,1.7255096,-0.26527405,-0.12930298,-0.2837677
12.078491,-2.1285553,1.5387726000000002,-0.27059937,-0.15274048,-0.122924805
11.472763,-0.89793396,0.83247375,-0.15342712,-0.16871643,-0.022781372
12.15271,-0.22517395,2.233078,0.084121704,-0.22091675,0.03048706
13.943573,-0.7135773,3.1476745999999998,0.31422424,-0.25393677,0.07522583
12.605209,-0.2706604,4.011978,0.3855896,-0.19641113,0.10610962
9.938080000000001,0.17466736,4.7445984,0.31422424,-0.11332703,0.15937805
8.175949000000001,0.011856078999999999,4.1628112999999995,0.18852234,-0.05899048,0.24353027
8.14003,0.21296692,2.750229,0.1352539,0.043273926,0.31384277
9.234177,-0.16052246,2.494049,0.17999268,0.07522583,0.31596375
10.278046,-1.4749451,2.8867035,0.20556639999999998,0.0496521,0.26377870000000003
10.349884,-2.6169738999999996,3.5451050000000004,0.20343018,0.059249878,0.21902466
10.179886,-2.652893,3.5427093999999997,0.20343018,0.099731445,0.21690369
9.710632,-1.427063,2.7430573,0.20130920000000002,0.14659119,0.22969055
8.805617999999999,0.03819275,2.1277466,0.20663452,0.13488770000000003,0.24034119
7.986801,0.08847046,1.7542419999999999,0.2556305,0.13594055,0.24246216
8.319595,-0.40473938,1.7757874,0.29399109999999995,0.13488770000000003,0.18388367
8.700272,-1.0870819,2.3001251,0.279068,-0.087753296,0.08055115
8.939697,-1.3001709,2.1588592999999996,0.26202393,-0.21772766,-0.038757323999999996
9.073775999999999,-0.8596344000000001,1.7111511000000001,0.1586914,-0.025970458999999998,-0.11653137
8.908569,-0.3041687,1.4094848999999998,-0.099105835,-0.17297363,0.08694458
8.939697,-0.05757141,1.1413269,-0.28871155,-0.07498169,0.2733612
9.284454,-0.13418579,0.9569701999999999,-0.44210815,-0.14741516,0.32130432
9.748932,-0.53163147,0.79896545,-0.5198822,-0.46806335,0.37030029999999997
9.600494,-1.0296173,0.94740295,-0.30363464,-0.34875488,0.41929626
9.068985000000001,-1.3265076,1.1030273000000002,-0.12786865,-0.44995117,0.31384277
9.004333500000001,-1.2187653,0.41827393,0.025543213,-0.47232056,0.27549744
10.598877,-0.8165283,0.23153687,0.32061768,-0.41479492,0.3521881
11.343475,0.8809509,0.5810852,0.5773468,-0.39775085,0.37669373
11.405716,0.7301178,-0.6160126,0.6646880999999999,-0.3391571,0.27655029999999997
11.374603,-0.65852356,0.2387085,0.5858612,-0.23796082,0.024093628
11.649933,-0.6561279000000001,2.2713928,0.44631958,-0.076034546,-0.17192078
12.021027,-0.842865,3.1045685,0.34724426,0.05178833,-0.32424927
9.926102,-2.3033295,3.200348,0.279068,0.13488770000000003,-0.45527650000000003
9.164749,-2.4134674,3.430191,0.17466736,0.22436523,-0.5287781
9.744141,-2.1333466,3.703125,0.0010375977,0.26696777,-0.4989624
10.586899,-2.1572876,3.3799133,-0.15129089999999998,0.28295898,-0.46592712
11.151932,-1.2451018999999999,2.6640472,-0.25569153,0.24887085,-0.40202332
11.568527,-0.4406433,2.2019653,-0.27806090000000006,0.20306396,-0.25820923
11.800766000000001,0.14114379999999999,1.8188933999999997,-0.22267151,0.24459839,-0.11972046
11.326706,0.19142151,1.9433898999999997,-0.17366028,0.35006714,-0.007873535
10.213409,0.0501709,2.1373138,-0.15982056,0.3756256,0.09971619
9.255722,0.48112488,2.1109772,-0.24610901,0.21583557,0.1987915
8.21904,1.0126343,1.8524017,-0.37181090000000006,0.009185791,0.23287964
8.106506,0.9719391,1.8859253,-0.48898315,0.008117675999999999,0.19772339
8.29805,0.9072876,1.8835297,-0.59550476,0.15830994,0.12422180000000001
8.266922000000001,0.47633362,1.7614288,-0.6253357,0.058181763,0.02835083
8.796036,-0.13658142,1.4741211,-0.5294647,0.08374023400000001,-0.12930298
9.511902000000001,-0.24911499,1.2323151,-0.39311218,0.062438965,-0.25500488
9.535843,0.21296692,1.2466736,-0.34091187,0.07096863,-0.2571411
8.784073,0.5601349,1.1628723,-0.38778687,0.15405273,-0.256073
8.195099,0.5122528000000001,0.40631104,-0.49005127,0.21371460000000003,-0.39349365
7.958069,0.5122528000000001,-0.46278379999999997,-0.43678284,0.5098572,-0.6299895999999999
8.717025999999999,0.6726532,-1.6143951,-0.22373962,0.3671112,-0.8771209999999999
10.172714,0.552948,0.037597656,0.006362915,0.21583557,-0.9346466
12.147919,-0.3903656,0.6864319000000001,0.18319702,-0.057937622,-0.7535553
12.133560000000001,-0.9314575,0.73191833,0.24391174,-0.2326355,-0.34661865
10.371429,-0.01927185,-0.060562134000000004,0.32168579999999997,-0.25286865,0.03048706
10.349884,0.71336365,0.35603333,0.43885803,-0.32531738,0.25845337
11.961182,-0.5866852,2.3456116000000002,0.5592345999999999,-0.34555054,0.34472656
12.052155,-1.7574615000000002,4.3806763,0.63594055,-0.24542236,0.34579468
11.2812195,-2.8970947,6.724609399999999,0.60717773,-0.08242798,0.3330078
10.23735,-3.0790558,5.8243865999999995,0.5443268,0.04220581,0.38734436
10.024261,-1.7263336,5.264145,0.4367218,0.097595215,0.47575378
9.006729,-0.4262848,3.8108672999999995,0.33552550000000003,0.18281555,0.43954468
9.088135000000001,-0.05996704,3.200348,0.24497986,0.16363525,0.26271057
9.602889999999999,-0.4190979,3.4756775,0.17999268,0.0965271,0.13487244
10.285233,-1.4174805,2.9106445,0.1821289,0.11996459999999999,0.14126587
10.548599000000001,-1.5252228,2.2689972000000003,0.23114014,0.18707275,0.175354
9.727386,-0.72795105,1.6369323999999998,0.29078674,0.16897583,0.1668396
8.3315735,0.06932068,1.4837036,0.33766174,0.11250305,0.11038208
8.166367,0.05734253,1.4477844,0.38240050000000003,-0.0046691895,0.01876831
9.145599,0.31352234,1.5651093,0.44099426,-0.19535828,-0.040893555
9.442474,0.12918091,1.644104,0.46336365,-0.050476074,-0.10906982400000001
9.186295,-0.22517395,1.560318,0.28546143,-0.056869507,0.036865234
8.776886,-0.26586914,1.2873688,0.055358887,-0.18043518,0.25950623
8.812805,-0.4885254,1.1748505,-0.087387085,-0.14527893,0.28933716
8.930114999999999,-0.66329956,1.1748505,-0.108688354,-0.118652344,0.15405273
8.977997,-0.5866852,0.91148376,-0.033050537000000005,-0.5532836999999999,0.14979553
8.812805,-0.66329956,0.7438965,0.12992859,-0.605484,0.36816406
8.401000999999999,-0.74710083,0.49967957,0.29824829999999997,-0.38284302,0.41184998
9.294037,-0.8524475,0.40391540000000004,0.26628113,-0.37219238,0.35751343
10.495925999999999,-0.45979309999999995,1.7422790000000001,0.11288452,-0.19641113,0.48428345
10.943634,0.60801697,1.4525757,0.072402954,-0.111190796,0.5332794
11.151932,0.57928467,-0.06535339,0.031921387,-0.08563232400000001,0.3330078
11.482330000000001,-0.44783019999999996,-0.17787170000000002,-0.061813354,-0.08242798,-0.01852417
11.312347,-1.1565094,1.4837036,-0.17047119,-0.01638794,-0.3306427
11.309952000000001,-0.78541565,2.0918273999999997,-0.29510498,0.05392456,-0.41160583
11.151932,-1.8340758999999998,2.652069,-0.35795593,0.11784363,-0.38923645
9.545425,-1.4581757,3.035141,-0.35369873,0.20199585,-0.47019958
9.183899,-1.0535583,3.3224487000000003,-0.3473053,0.30000305,-0.6299895999999999
10.934067,-0.2993927,4.0095825,-0.38565063,0.30319214,-0.6321106
12.013855,-0.39276123,3.6217193999999995,-0.4410553,0.25952148,-0.46487427
12.044967999999999,-0.4406433,2.9226074,-0.43998718,0.31809998,-0.27632140000000005
12.145522999999999,-0.00010681152,2.2737884999999998,-0.39524840000000006,0.30532837,-0.18789673
11.724152,0.74687195,1.699173,-0.35902405,0.26591492,-0.16978455
10.155945,0.32789612,1.4932709,-0.36434937,0.29786682,-0.13357544
9.408951,-0.54599,1.5746765,-0.38032532,0.30638123,-0.033432007
9.131226,-0.6824646,1.6082001,-0.43891907,0.14872742,0.085876465
8.053833000000001,0.09565735,1.723114,-0.5060272,-0.029174805,0.13275146
7.531905999999999,0.69659424,1.7566376,-0.58699036,-0.11332703,0.11996459999999999
8.300446,0.49308777,1.6034088,-0.6583557,0.088012695,0.12422180000000001
8.659576,-0.18925476,1.8093109,-0.63279724,0.15725708,0.043258667
8.602112,-0.31135559999999995,1.8619843,-0.5433197,0.07736206,-0.12611389
8.630844,-0.04081726,1.4908752,-0.41015625,0.16897583,-0.22305298
8.755341,0.29437256,1.3592072,-0.33345032,0.27761840000000004,-0.23051453
8.55423,0.021438599,1.2801971,-0.37393188,0.035812378,-0.33384705
8.403397,-0.35446167,0.8372649999999999,-0.38992309999999997,0.08055115,-0.47764587
8.494369500000001,0.31591797,0.63375854,-0.37606812,0.18814087,-0.5255890000000001
8.913361,0.86898804,-0.42687988,-0.45170593,0.0965271,-0.4797821
10.917297,0.47633362,0.72473145,-0.5784607,-0.05899048,-0.4094696
12.619583,-0.92666626,1.5435486,-0.6402588,-0.07070923,-0.33277893
12.820694,-1.3456573,0.78219604,-0.5933838,-0.14102173,-0.18789673
12.123978,-0.11503601,1.0240173000000001,-0.41015625,-0.21878052,0.0038452148
13.017014,-0.36642456,2.8316345000000003,-0.12147522,-0.2837677,0.10504150400000001
13.859772,-1.0487671,2.6233367999999997,0.14804077,-0.31892395,0.10185242
11.980331,0.03340149,3.1907654,0.22474670000000002,-0.29867554,0.10610962
9.394592,0.5026702999999999,4.217880200000001,0.12886047,-0.19108582,0.15405273
7.3236084,-0.03363037,3.3583527,-0.008544922,-0.052612305,0.22436523
7.184738,-0.07432556,2.4605408,-0.034118652,0.031555176000000004,0.2967987
8.520706,-0.56274414,3.0495148,0.020217896000000003,0.032608032,0.28614807
9.650772,-1.7311249,3.6360931000000005,0.08305359,0.020904541000000002,0.24778748
10.249329,-2.9521637000000003,3.8228302000000003,0.13739014,0.06137085,0.22541809
10.364243,-3.0551147000000003,3.6073608,0.16508484,0.10185242,0.20411682
9.818359,-1.5563506999999999,2.8388214,0.18745422,0.13168335,0.15405273
9.121658,0.15312195,2.0606994999999997,0.20663452,0.16470337,0.12208557
8.537460000000001,0.3757782,1.5315857,0.23858643,0.19560242,0.11996459999999999
8.530289,-0.41191099999999997,1.9984589,0.3035736,0.21690369,0.09013367
9.040253,-1.4102936000000001,2.5634918,0.36003113,0.0688324,0.04006958
9.04982,-1.6832428,2.4557495,0.41329956,-0.040893555,-0.025985717999999998
9.095322,-1.565918,2.1085814999999997,0.37387085,0.14872742,-0.10055542
9.136016999999999,-1.2594604,1.5962219,0.23007202,-0.0046691895,0.06562805
9.487961,-0.9386443999999999,1.2179413000000001,0.11608887,-0.20600891,0.3287506
9.696259,-0.7231598000000001,0.66967773,-0.05116272,-0.17510986,0.4544525
9.804001,-0.5890808000000001,0.17407227,-0.22906494,-0.5799103,0.5236969
9.677109,-0.7303467,0.016052246000000003,-0.10762024,-0.40733337,0.5290222
8.903777999999999,-1.0296173,0.30096436,0.1352539,-0.21133423,0.35858154
8.104111,-1.0344086,0.51405334,0.18426514,-0.302948,0.20625305
8.927719,-1.2786102,0.8300780999999999,0.3302002,-0.19535828,0.17642212
9.988358,-0.8045654000000001,1.9792938000000002,0.47827148,-0.11225891,0.18174744
10.718582000000001,0.42605590000000004,1.7350922,0.45164490000000007,-0.062194824,0.10717773400000001
11.453598,-0.08390808,0.8731841999999999,0.26948547,-0.045150757,-0.09416199
12.246094,-0.02166748,2.5275726,0.048965454000000005,-0.038757323999999996,-0.2326355
13.299529999999999,0.4619751,2.3839264,-0.10548401,-0.008926392,-0.349823
12.076096000000001,-1.5731049,2.1109772,-0.13851929,0.05392456,-0.4755249
9.387405000000001,-2.6241608,3.3655396,-0.12892151,0.12954712,-0.5085449000000001
9.186295,-2.4086761,3.2865295,-0.16300964,0.17323303,-0.46592712
10.189468,-1.9897003,3.2099152,-0.20669556,0.21903992,-0.4094696
11.199814,-0.44783019999999996,2.6640472,-0.23864746,0.222229,-0.28590393
11.7313385,0.7732085999999999,2.4006805,-0.26208496,0.14979553,-0.16127014
11.226150500000001,1.2352905,2.2713928,-0.25782776,0.0922699,-0.07391357400000001
10.838303,0.68463135,2.0032349,-0.25250244,0.13594055,-0.005737304699999999
9.930893,-0.30895996,2.2474517999999994,-0.30470276,0.22969055,0.03793335
8.724213,-0.2706604,2.5084229,-0.38671875,0.2414093,0.09545898400000001
8.039474499999999,0.21775818,2.35997,-0.48152159999999994,0.15618896,0.17855835
8.046661,0.5122528000000001,2.3527985,-0.5965729000000001,-0.027038574,0.21476746
8.108902,0.91926575,2.2833557,-0.7254791,0.008117675999999999,0.19665527
8.664368,0.52182007,2.1636505,-0.76275635,0.18281555,0.17749023
8.784073,-0.07911682,1.9266205,-0.66049194,0.10717773400000001,0.074157715
9.028275,-0.16770935,1.3879242,-0.50283813,0.06350708,-0.13676453
9.545425,0.10523987,0.7079773,-0.40376282,0.09545898400000001,-0.23902893
9.519089,0.3973236,0.49249268,-0.47514343,0.22010803,-0.21240234
8.748154,0.28001404,0.31532288,-0.6945800999999999,0.1434021,-0.33596802
8.152008,0.04058838,0.30575562,-0.853302,0.22862244,-0.5777893
7.835967999999999,0.14833069,-0.7309418000000001,-0.80963135,0.18281555,-0.828125
8.487183,0.25128174,-0.61361694,-0.60617065,0.08161926,-0.9250641
10.797592,-0.69921875,2.0200043,-0.40589905,-0.17936707,-0.7013550000000001
11.874985,-2.1022186,1.8715668,-0.27806090000000006,-0.27418518,-0.30613708
11.307556,-1.1469421,0.8564148000000001,-0.1161499,-0.27418518,0.036865234
10.778442,0.6295624,0.48771667,0.13206482,-0.19108582,0.2499237
12.270035,0.33268738,1.9745177999999999,0.38453674,-0.21878052,0.36816406
13.081665,-0.3616333,3.2673798,0.54219055,-0.18150329999999998,0.37136840000000004
12.016235,-1.0415955,5.3455505,0.5294036999999999,-0.13569641,0.2733612
10.799988,-1.2834014999999999,5.968033,0.41862488,-0.11758423,0.23287964
9.698654,-1.2881927,5.596939,0.30889893,-0.04833984400000001,0.31596375
8.525497,-0.5052948,3.8587493999999998,0.22900389999999998,0.01876831,0.33834840000000005
8.942093,-0.7016144,3.1285095000000003,0.17573547,0.0038604736,0.2733612
9.85907,-1.7622375,2.920227,0.14804077,-0.023849487000000003,0.2030487
10.392975,-2.6744385,3.2075195,0.13739014,-0.03768921,0.14019775
10.428894,-2.4493866,2.6760101,0.1352539,0.02835083,0.10824585
9.50473,-1.1253815,2.1397095,0.1586914,0.13807678,0.10504150400000001
8.487183,-0.07432556,1.8452301,0.21089172,0.21583557,0.109313965
7.934128,0.37817383,1.7733917000000001,0.27481079999999997,0.20092773,0.06562805
8.04187,-0.16291809,1.7063598999999998,0.33659363,0.047531128,-0.020660400000000002
8.875046000000001,-0.69921875,2.0247955,0.37921143,-0.14422607,-0.09309387
9.210236,-0.8404845999999999,1.912262,0.3813324,0.020904541000000002,-0.14208984
9.159958,-0.9506073,1.699173,0.25350952,0.058181763,-0.040893555
9.20784,-1.0583496000000001,1.2849883999999998,0.11820984,-0.14315796,0.18707275
9.373047,-0.9937134,0.94740295,0.011688232,-0.13569641,0.28826904
9.631622,-0.89793396,0.9450073,-0.0042877196999999995,-0.13995361,0.30319214
9.495148,-0.94104004,0.9617614999999999,0.021270752,-0.44036865,0.39266968
8.992371,-0.9530029000000001,0.9282379000000001,0.111816406,-0.4744568,0.5726929000000001
8.752945,-0.95539856,0.7510680999999999,0.27160645,-0.27204895,0.49707029999999996
9.519089,-1.000885,0.34165955,0.32061768,-0.28269958,0.37243652
10.400162,-0.68963623,1.4837036,0.42181396,-0.1303711,0.32342529999999997
10.189468,0.6511078,1.7542419999999999,0.56669617,-0.09307861,0.21690369
10.603667999999999,-0.00010681152,0.24349976,0.56881714,-0.07710266,0.09120178
11.381775,-0.8093566999999999,0.23631287,0.41755676,-0.043014526,-0.06112671
11.8151245,-0.79737854,1.9625397,0.20343018,0.010238647,-0.14741516
12.334671,-0.16052246,2.391098,-0.031982422,0.035812378,-0.21240234
11.8701935,-1.6640778000000003,2.4725037,-0.14384460000000002,0.058181763,-0.35621643
10.110458,-2.1141967999999998,3.6983337,-0.18005371,0.10505676,-0.4978943
9.856674,-1.6760558999999997,3.4038544,-0.19709778,0.16577148,-0.53305054
10.287628,-1.5419768999999999,3.3128662,-0.20030212,0.21264648,-0.49150085
10.57254,-0.60105896,2.6017914,-0.20776367,0.21478271,-0.31466675
11.34108,0.7397003000000001,2.3001251,-0.19923401,0.1860199,-0.15701294
11.633163,1.3286743,2.3384247000000005,-0.16621399,0.1668396,-0.10906982400000001
11.183060000000001,0.8929290999999999,1.912262,-0.12786865,0.18067932,-0.060073852999999997
9.954834,-0.14376831,1.9625397,-0.12680054,0.20092773,0.034744263
8.997162,-0.48135376,2.094223,-0.17686462,0.15405273,0.1519165
8.108902,-0.10305786,2.1277466,-0.26208496,0.05392456,0.22969055
8.049057000000001,0.31591797,2.2306976,-0.34304809999999997,-0.08670044,0.22862244
8.264526,0.72532654,2.3456116000000002,-0.43785095,0.036880493,0.1945343
8.649994,0.5936431999999999,2.1804047000000004,-0.46981812,0.16151428,0.17002869
8.997162,0.011856078999999999,1.8643798999999999,-0.43252563,0.14553833,0.0496521
9.121658,-0.21319580000000002,1.5267944,-0.33026123,0.13275146,-0.16339111
9.291641,0.14593506,1.1173859,-0.2418518,0.21264648,-0.24862671
9.159958,0.51942444,0.88993835,-0.2642212,0.08694458,-0.29548645
8.752945,0.39253235,0.28660583,-0.23651123,0.058181763,-0.44676208
8.269318,0.18423462,0.09027099599999999,-0.11294556,0.10292053,-0.58418274
7.891037,0.4332428,-0.7883911,-0.073532104,0.011306763000000001,-0.5319824000000001
9.013916,0.4619751,0.37757874,-0.10015869,-0.03024292,-0.47659302
11.343475,-1.1182098,1.6943816999999999,-0.07460022,-0.13462829999999998,-0.44462585
12.4879,-2.3296661,1.2730103000000002,0.015945435,-0.23156738,-0.27632140000000005
11.554169,-0.3784027,0.82528687,0.20875549999999998,-0.29655457,-0.040893555
11.467972,0.6223755,1.9266205,0.42607117,-0.27418518,0.12208557
13.555710000000001,-0.6106262,2.5946045,0.6061095999999999,-0.23477173,0.23820496
12.981110000000001,-0.8931427,4.0526733,0.69132996,-0.14102173,0.31063843
9.353897,-0.20600891,4.8547363,0.6274109,-0.043014526,0.33088684
7.5965424,0.11480713,4.0574646,0.51023865,-0.013198853,0.3798828
8.985184,-0.05278015,4.205902,0.43992615,0.076293945,0.42462158
10.03624,-0.53401184,3.9545135,0.39837646,0.097595215,0.39373779999999997
10.278046,-1.2762146,4.0287323,0.34405518,0.06776428,0.28294373
10.045822,-2.1118011,3.5690459999999997,0.29078674,0.057113647000000003,0.20092773
9.959625,-2.3392487,3.0327453999999996,0.25776672,0.11038208,0.18600464
9.770477,-1.565918,2.5467223999999997,0.25883484,0.18388367,0.17002869
9.006729,-0.50050354,1.8452301,0.29399109999999995,0.24887085,0.11996459999999999
8.266922000000001,-0.34008790000000005,1.5986176,0.36109924,0.28401184,0.043258667
8.597321,-0.49571228,1.8260651,0.46975708,0.13381958,-0.027038574
8.726608,-0.5819092,2.0367584,0.58906555,-0.08030701,-0.035568237
9.071381,-0.7327423000000001,1.9194488999999997,0.61569214,0.033676147000000003,-0.056869507
9.265305,-0.43345642,1.5387726000000002,0.43885803,0.08908081,-0.040893555
9.227005,-0.37600708,1.1557007,0.21835327,-0.19535828,0.15084839
9.054611,-0.67767334,0.79177856,0.03831482,-0.12823486,0.29040527
9.284454,-0.81892395,0.5738983,0.008499145500000001,-0.064331055,0.2541809
9.928497,-0.81414795,0.64334106,0.06814575,-0.39456177,0.22862244
9.634018,-0.8524475,1.0120392,0.18533325,-0.56925964,0.36816406
8.472824000000001,-0.65852356,0.7438965,0.3312683,-0.29229736,0.41824340000000004
8.374664,-1.0391998,0.29856873,0.31422424,-0.3157196,0.40864563
9.578949,-1.3743896,0.85401917,0.31103516,-0.17297363,0.39692688
10.234955000000001,0.76364136,1.6464995999999998,0.22474670000000002,-0.106933594,0.46084595
11.092087,1.4052886999999998,-0.37420654,0.18319702,-0.03236389,0.42889404
11.728943,-0.04560852,-0.3550415,0.043640137,-0.054733276,0.22116089
11.908508,-0.81414795,1.7087555,-0.1161499,-0.09628296,-0.08670044
12.071304,-0.35206604,2.8148804,-0.20669556,-0.118652344,-0.32852173
11.863007000000001,-1.4126892,2.7047423999999998,-0.20455933,-0.04408264,-0.43504333
10.282836999999999,-1.1924286,3.7940980000000004,-0.15875244,0.08694458,-0.44569397
9.088135000000001,-1.190033,3.1644287,-0.15982056,0.16151428,-0.46592712
8.439300999999999,-1.7981566999999998,3.6456604,-0.21520996,0.18920898,-0.5341034
10.416916,-0.31614685,3.7246704,-0.2642212,0.16790771,-0.5245209
12.033005000000001,0.74209595,3.2865295,-0.32174683,0.17962646,-0.37431335
12.157501,0.30874634,2.793335,-0.35583496,0.20306396,-0.23583984
11.274047999999999,0.18902588,2.197174,-0.35795593,0.18174744,-0.18470764
10.639572,-0.09109497,1.7039642,-0.35688782,0.20199585,-0.17192078
9.456847999999999,-0.36402893,1.6776276,-0.38032532,0.26803590000000005,-0.10374451
8.336349499999999,-0.6058501999999999,1.6321411,-0.43359375,0.25845337,0.035812378
8.123275999999999,-0.43345642,1.4789124,-0.48258972,0.07736206,0.14552307
8.02272,0.5026702999999999,1.7087555,-0.5241394,-0.013198853,0.14019775
8.465637,0.87615967,1.5555267,-0.550766,0.18920898,0.05178833
9.064194,0.30635070000000003,1.4597626,-0.53692627,0.1860199,-0.045150757
9.176727,-0.03363037,1.4860992,-0.40802002,0.14659119,-0.23796082
9.20784,0.10762024,1.2059784,-0.18644714,0.22755432,-0.42118835
9.332336,0.45239258,0.70558167,-0.12680054,0.029418945,-0.5064087
9.231781,0.6391449,0.50686646,-0.22906494,0.009185791,-0.5490265000000001
9.071381,0.5816803,1.0407715,-0.28126526,0.22543335,-0.5213318
8.5733795,0.49548339999999996,1.0192261,-0.33132935,0.12742615,-0.4978943
8.939697,0.35662842,0.080703735,-0.39736938,-0.00041198730000000005,-0.39775085
11.223755,-0.42868042,1.6417236000000002,-0.37606812,0.012374878,-0.24967957
13.196579000000002,-2.2003784,1.8045197,-0.25782776,-0.083496094,-0.08563232400000001
12.473541,-1.9753265,1.5459441999999999,-0.06288147,-0.12078857400000001,0.06669617
11.207001,0.03340149,2.7598114,0.16189575,-0.127182,0.14447021
13.050537,0.46435547,2.1804047000000004,0.31422424,-0.15806579999999998,0.15298462
12.672255999999999,1.1850128,2.6712189,0.26734924,-0.09628296,0.15298462
10.524658,0.47154236,5.017547599999999,0.03831482,0.00491333,0.16044617
7.967651400000001,-0.73513794,4.2035065000000005,-0.14596558,0.074157715,0.20625305
7.5917509999999995,-0.8309021000000001,3.2506256000000002,-0.17366028,0.13381958,0.29786682
8.887024,-1.103836,3.7055206,-0.16088867,0.12742615,0.29998779999999997
9.835129,-1.6712646,3.6169279999999997,-0.099105835,0.08161926,0.25738525
10.031448,-2.3081207000000004,3.533142,0.014877318999999998,0.0496521,0.22009277
9.775269,-2.2913666,3.4517365,0.11715698,0.052856445,0.19026184
9.739365,-0.8500519,2.3934937,0.22261047,0.09120178,0.17216492
9.215027000000001,0.6894226,1.3256836,0.35577393,0.10717773400000001,0.1561737
8.274109,0.74687195,1.0766907,0.51449585,0.121032715,0.1519165
8.300446,-0.17967224,1.8691711,0.6380615,-0.04194641,0.11570739999999999
8.661972,-0.7662505999999999,2.1373138,0.7073059,-0.16764832,0.027282715
8.671539,-1.2618561000000001,2.1516876,0.63594055,-0.083496094,-0.06858826
8.939697,-1.4677582,2.0487366000000002,0.42395020000000005,-0.19961548,0.029418945
9.131226,-1.292984,1.6321411,0.13952637,-0.29974365,0.25524902
9.183899,-0.93385315,1.2035828000000002,-0.07672119,-0.17297363,0.30319214
9.449661,-0.8907623,0.85401917,-0.12359619,-0.40414429999999996,0.30744934
9.485565,-1.0727081,0.6385498000000001,-0.03944397,-0.64276123,0.43315125
8.752945,-1.2379149999999999,0.6720581,0.15550232,-0.3860321,0.45552063
8.209457,-1.6497191999999998,0.73431396,0.2566986,-0.28483582,0.37669373
9.076157,-2.0806732,0.82528687,0.21514893,-0.21772766,0.3330078
10.139191,-0.88597107,1.3879242,0.14378357,-0.11758423,0.27442932
11.171097,1.8123016,0.7726288,0.12460327,-0.12504578,0.10398865
12.1072235,1.4507751,-0.6040496999999999,0.027664185,-0.087753296,-0.08137512
12.150314,-0.00010681152,1.2634277,-0.033050537000000005,-0.034500122,-0.2326355
12.337067,-0.42149353,2.9968414,-0.050094604,-0.013198853,-0.29655457
11.81752,-1.8891449,3.7773437999999993,0.01914978,0.07736206,-0.33703613
10.450439,-1.4605713,4.0287323,0.086257935,0.1668396,-0.36260986
8.556625,-1.6976012999999999,2.8627625,0.07028198,0.23075867,-0.3775177
9.317978,-1.486908,2.5131989,0.020217896000000003,0.28401184,-0.37858582
11.606842,0.31112670000000003,3.4517365,-0.06074524,0.27017212,-0.31999207
12.4040985,0.8953247,3.035141,-0.122528076,0.24887085,-0.18043518
11.587677000000001,0.35902405,3.004013,-0.15875244,0.23715210000000003,-0.07072449
10.972366000000001,-0.15333557,2.8507842999999995,-0.16940308,0.23927307,-0.023849487000000003
10.658737,-0.67048645,2.6688232000000003,-0.20349121,0.26591492,0.032608032
9.497542999999999,-0.65852356,2.6017914,-0.28231812,0.19667053,0.09120178
8.369873,-0.09349060000000001,2.3144836,-0.37713623,-0.002532959,0.1476593
7.9532776,0.43563843,2.204361,-0.47833252,-0.21984863,0.18814087
8.108902,0.6415405,2.1660461,-0.5529022,-0.11972046,0.17428589
8.47522,0.76364136,2.1205597000000003,-0.55822754,0.05392456,0.13168335
8.561417,0.34225464,1.9457855,-0.53479004,0.026229857999999998,0.048583984000000004
8.805617999999999,0.03340149,1.7733917000000001,-0.48898315,0.039001465,-0.05368042
9.234177,0.260849,1.2849883999999998,-0.45596313,0.057113647000000003,-0.09628296
9.176727,0.48831177,0.9545745999999999,-0.5252074999999999,0.10824585,-0.12825012
8.685913000000001,0.47633362,0.521225,-0.63812256,0.0038604736,-0.29655457
7.9437103,0.34465027,0.20759583,-0.6178894,0.06350708,-0.5500946
7.926941,0.37098694,-1.0541534,-0.45170593,0.13168335,-0.64489746
9.272491,0.44281006,-0.022247314,-0.31108093,0.052856445,-0.5500946
10.895752,-0.6441498000000001,1.9242401000000002,-0.22906494,0.09440613,-0.4882965
11.288406,-1.5563506999999999,1.0144348,-0.15235901,-0.011062622,-0.47125244
10.924484,-0.14855957,0.42785645,-0.0181427,-0.15913391,-0.29336548
10.823929,0.6678772,0.3536377,0.18638611,-0.27844238,-0.036636352999999997
12.401703,0.0046691895,1.7518463,0.38986206,-0.28483582,0.16151428
14.080048000000001,-1.0942688,2.8507842999999995,0.5123595999999999,-0.20494079999999998,0.28401184
12.923645,-1.1517181,4.565033000000001,0.56455994,-0.15592957,0.34153748
9.758514,-1.2834014999999999,4.964874299999999,0.5219574,-0.08988953,0.3521881
8.14003,-0.99131775,4.189148,0.43139648,0.039001465,0.39480590000000004
9.7202,-0.82611084,4.636856,0.35896300000000003,0.076293945,0.38734436
10.282836999999999,-1.2642517,4.442932,0.27587890000000004,-0.002532959,0.30958557
9.710632,-1.4055023000000002,4.292098999999999,0.17999268,-0.03982544,0.20411682
9.298828,-1.6281738000000001,3.4613037,0.076675415,0.00065612793,0.13807678
9.212631,-1.7382965,2.4772950000000002,0.010620117,0.036880493,0.13275146
9.066589,-1.2187653,2.3216705,0.020217896000000003,0.11038208,0.13168335
8.570984,-0.6944275,1.6632689999999999,0.06707764,0.17855835,0.12422180000000001
8.537460000000001,-0.62979126,1.4382172,0.14164734,0.23608398,0.11357117
8.336349499999999,-0.77583313,1.7326965,0.23539734,0.28082275,0.060302734000000004
8.575775,-0.6680908,1.9385986000000002,0.3067627,0.109313965,-0.0025482178
9.16954,-0.14137268,1.5531311,0.38240050000000003,0.0038604736,-0.07391357400000001
9.377838,0.16508484,1.1413269,0.3493805,0.11250305,-0.13783264
9.143203999999999,-0.00010681152,0.9713440000000001,0.17147827,-0.11546326,0.046463013
9.183899,-0.52204895,0.9066924999999999,0.03086853,-0.18789673,0.25845337
9.396988,-0.77583313,0.9282379000000001,-0.059677124000000005,-0.122909546,0.27975464
9.634018,-0.65852356,0.85401917,-0.043701172,-0.30827332,0.2264862
9.6819,-0.8811798000000001,0.8779601999999999,-0.0010986328,-0.46592712,0.35432434
9.138411999999999,-1.1996002000000001,1.110199,0.100112915,-0.28163147,0.37776184
8.879837,-1.1253815,0.9497985999999999,0.13420105,-0.22517395,0.22862244
10.076935,-1.2427063,1.3831482,0.21514893,-0.12611389,0.11250305
10.838303,-0.028839111,2.3336487,0.22367859,-0.04940796,0.1519165
11.094482000000001,0.7229309,0.72473145,0.19065857,-0.0014801025,0.2541809
11.494308,-0.19404602,-0.53460693,0.15124512,-0.01852417,0.24673462
11.910903999999999,-1.0774993999999998,0.9857024999999999,0.05003357,-0.0036010741999999997,0.054977417
12.66507,-0.26586914,2.4581451000000003,-0.040512085,-0.040893555,-0.19854736
12.74408,-0.9721527,2.8747252999999997,-0.08099365,-0.06326294,-0.39135742
11.326706,-1.6712646,3.3415985,-0.034118652,0.017700195,-0.4755249
9.222214,-1.6257781999999998,3.3224487000000003,0.0010375977,0.10079956,-0.4606018
7.642028999999999,-2.0974274,3.0973968999999997,-0.019210815,0.111450195,-0.45527650000000003
8.53508,-1.5467681999999998,3.2147064,-0.061813354,0.10717773400000001,-0.41586304
10.941253999999999,0.10523987,3.3320160000000003,-0.10443115,0.10398865,-0.28590393
12.207778999999999,0.43803406,2.750229,-0.10122681,0.11570739999999999,-0.14634705
11.525436000000001,0.26564026,2.4725037,-0.099105835,0.0688324,-0.10160828
10.503113,0.0046691895,2.0247955,-0.120407104,0.06669617,-0.07284546
9.777664,-0.38317870000000004,1.8595886000000001,-0.15875244,0.121032715,0.01876831
8.420150999999999,-0.43824768,1.8093109,-0.22586060000000002,0.11250305,0.11038208
7.984405499999999,-0.11743164,1.8715668,-0.292984,0.034744263,0.1796112
8.420150999999999,0.6247710999999999,1.9457855,-0.39524840000000006,-0.017456055,0.21051025
8.764923,1.0724945,1.833252,-0.50390625,0.10079956,0.23927307
8.973206,0.35183716,1.8236694,-0.5454406999999999,0.13168335,0.22116089
9.028275,-0.03842163,1.8547973999999998,-0.43252563,0.056045532,0.041137695
8.982788000000001,0.15789795,1.4525757,-0.28338623,-0.00041198730000000005,-0.14208984
8.867874,0.5242157000000001,0.8707886,-0.21520996,0.036880493,-0.1303711
8.848709,0.39013672,0.41110230000000003,-0.28338623,0.076293945,-0.11439514
8.779282,0.31352234,0.2842102,-0.40802002,0.032608032,-0.22198486
8.412964,0.46914673,0.119003296,-0.43038940000000003,0.16151428,-0.37219238
8.55423,1.031784,-0.108444214,-0.38458252,0.08694458,-0.5287781
10.060181,0.6582946999999999,1.2562561,-0.29084778,0.04006958,-0.5756531
12.150314,-1.3097382,2.3623657000000002,-0.17686462,0.15937805,-0.56925964
12.047363,-1.9585723999999998,1.3352661,0.006362915,-0.09414673,-0.50001526
10.687453999999999,-0.014480591000000001,0.38716125,0.21835327,-0.33171082,-0.29443359999999996
11.113632,0.983902,0.6361541999999999,0.45803833,-0.41160583,-0.045150757
12.674652,0.03819275,1.620163,0.6646880999999999,-0.27098083,0.18388367
12.315521,-0.22038269,3.3966675000000004,0.76057434,-0.11332703,0.33940125
10.630005,-0.62020874,5.0366974,0.7254181,-0.008926392,0.35112
8.745758,-1.3360748,4.486023,0.64126587,0.05392456,0.34899902
8.604507,-1.2451018999999999,3.9928284,0.6103668000000001,0.1476593,0.40864563
9.794417999999999,-1.5419768999999999,5.1276703,0.5997161999999999,0.16577148,0.41824340000000004
10.357056,-1.9729308999999997,4.663192700000001,0.5752106,0.11677551,0.35432434
10.287628,-1.8580169999999998,3.9688873,0.5283356,0.09440613,0.27015686
10.002716,-1.6185913,2.4677124,0.45271300000000003,0.07736206,0.21051025
9.873428,-1.1708832,1.7710113999999997,0.38026428,0.06669617,0.18920898
9.351500999999999,-0.6944275,1.347229,0.34085083,0.07522583,0.1668396
8.760132,-0.59147644,1.2370911,0.31741333,0.10398865,0.15937805
8.518311,-0.5962677,1.5004578000000002,0.30464172,0.0965271,0.10717773400000001
8.326782000000001,-0.7949829,1.7374878,0.325943,-0.10160828,0.04219055
8.858292,-0.9314575,1.7614288,0.35256958,-0.13995361,-0.021713257000000003
9.085739,-0.38796997,1.3831482,0.30996704,0.07522583,-0.08030701
8.875046000000001,0.07890319999999999,1.13414,0.16401672,-0.033432007,0.08480835
8.697875999999999,0.23451233,0.96655273,0.053237915,-0.09202576,0.25311279999999997
8.781677,-0.01927185,0.6983948,0.015945435,0.029418945,0.24673462
9.013916,-0.10066223,0.29856873,-0.0010986328,-0.13462829999999998,0.15937805
9.408951,-0.29460144,0.4158782999999999,-0.042633057,-0.43397522,0.27549744
9.018707000000001,-0.56274414,0.7367096,0.060684204000000005,-0.26779175,0.28294373
8.958847,-0.67048645,0.42306520000000003,0.09158325,-0.24328613,0.12315369
10.35466,-1.0511627000000001,0.71276855,0.15975952,-0.13143921,0.050720215
10.993912,-0.46697998,1.857193,0.121414185,-0.029174805,0.19665527
11.444030999999999,0.11480713,0.8420563,0.05430603,0.031555176000000004,0.34793090000000004
12.188628999999999,-0.00010681152,-0.09169006,-0.024536132999999998,0.00491333,0.31491090000000005
12.272414999999999,-0.49331665,1.1748505,-0.15875244,-0.0036010741999999997,0.06669617
12.308334,0.23213196,1.8308563000000002,-0.23971558,-0.04940796,-0.22412110000000002
12.382553,-0.7662505999999999,2.0678864,-0.27487183,-0.071777344,-0.39988708
10.950821000000001,-2.0806732,2.3264617999999997,-0.21946716,0.0070495605000000005,-0.49256897
8.910965,-1.5539551,2.7286835,-0.18005371,0.11677551,-0.50535583
7.5773926,-1.7287292,3.3056946000000003,-0.20455933,0.18495178,-0.5351715
8.913361,-0.9817351999999999,3.4948273000000003,-0.29830933,0.16044617,-0.5074768
11.535003999999999,0.5625305,3.4182129999999997,-0.38565063,0.17216492,-0.37858582
12.710556,0.4619751,2.7669982999999996,-0.42933655,0.23820496,-0.22091675
11.525436000000001,0.11480713,2.6305237,-0.41122437,0.21903992,-0.12078857400000001
10.440857000000001,-0.11743164,2.1828003,-0.36753845,0.22116089,-0.06539917
10.127213000000001,-0.47416687,2.046341,-0.34837340000000006,0.17749023,0.031539917
8.858292,-0.40473938,1.7566376,-0.375,0.039001465,0.17321777
8.448883,-0.04560852,1.8595886000000001,-0.41229248,-0.08456421,0.2499237
8.226227,0.78518677,1.9768982,-0.45170593,-0.08563232400000001,0.22969055
8.489578,1.1921997,1.7925567999999998,-0.49005127,0.10398865,0.2179718
8.798430999999999,0.5912628000000001,1.4908752,-0.48258972,0.19667053,0.17855835
8.707458500000001,-0.10784912,1.6488953000000002,-0.40162659999999994,0.14233398,0.00065612793
8.776886,-0.08869934,1.4741211,-0.23757935,0.111450195,-0.18789673
8.566193,0.23213196,1.2107544,-0.16195679,0.23182678,-0.20814514
8.305237,0.22254944,0.79896545,-0.25889587,0.15618896,-0.25395203
8.367477000000001,-0.08151245,0.095062256,-0.33345032,0.17323303,-0.42971802
8.393814,0.28718567,-0.3502655,-0.33345032,0.18495178,-0.5596770999999999
8.559021000000001,1.0126343,-0.5274353,-0.292984,0.10398865,-0.58418274
10.189468,0.66548157,1.3592072,-0.20562744,0.09545898400000001,-0.5767211999999999
12.135956,-1.5252228,2.1923828,-0.17366028,0.025161742999999997,-0.47232056
12.23172,-2.3248749,1.3616028,-0.12466431,-0.04194641,-0.24649048
11.436844,-0.34248352,0.51405334,0.015945435,-0.12184143,-0.01638794
12.375366,0.3470459,1.6584778000000002,0.20130920000000002,-0.2006836,0.13700867
14.12793,-0.6609191999999999,2.8890991,0.41862488,-0.2603302,0.19132996
13.26123,-0.6944275,4.6775665,0.5112915,-0.23049927,0.23394775
10.158339999999999,-0.7159729,4.9265594,0.41967773,-0.14848328,0.21369934
8.168762,-0.6178130999999999,4.323226999999999,0.25776672,-0.056869507,0.2499237
8.166367,-0.52923584,3.710312,0.21409607,0.060317993,0.33834840000000005
8.740982,-0.64894104,3.3224487000000003,0.20982361,0.074157715,0.30958557
9.507126,-1.103836,3.710312,0.23751831,0.08374023400000001,0.24673462
9.923706,-1.7885741999999998,3.7940980000000004,0.27160645,0.09013367,0.21264648
9.935684,-2.384735,3.7725525,0.29931640000000004,0.099731445,0.21157837
9.016312,-1.7646331999999998,2.8340302000000004,0.34512329999999997,0.13275146,0.21690369
8.094543,-0.38317870000000004,1.6058044,0.39198303,0.15086365,0.19665527
8.099335,0.03340149,1.1030273000000002,0.44311523,0.22543335,0.15724182
8.630844,-0.15812683,1.5938263000000001,0.49212646,0.17430115,0.09439087
9.035461,-0.8883667,1.8069153000000002,0.5784149000000001,-0.08137512,0.031539917
9.691467,-0.97694397,1.8763428,0.61569214,-0.046218872,-0.05368042
9.526276,-0.6824646,1.6249542,0.45164490000000007,-0.08030701,0.012374878
8.937302,-0.59147644,1.2897644,0.24711609,-0.28057859999999996,0.222229
8.594925,-0.6178130999999999,1.0120392,0.08305359,-0.16020203,0.33940125
8.987579,-0.64175415,0.8157196,0.002105713,-0.25500488,0.32556152
9.341919,-0.5172577,0.5116577,-0.045837402,-0.6044159,0.40971375
8.946869,-0.5866852,0.9066924999999999,0.036193848,-0.43609620000000004,0.5055847
8.254959,-0.72076416,1.2897644,0.08093262,-0.28483582,0.36497498
9.059402,-1.1134186000000001,0.8420563,0.1309967,-0.20600891,0.19560242
10.663513,-0.9075165000000001,1.6129913,0.17573547,-0.08882141,0.2264862
10.996307,0.75405884,1.6034088,0.28546143,-0.056869507,0.29998779999999997
11.180664,0.8282776,-0.1443634,0.2843933,-0.087753296,0.2456665
11.5733185,-0.16291809,0.64334106,0.15443420000000002,-0.08242798,0.024093628
12.2413025,0.16268921,2.4222259999999998,0.04258728,-0.076034546,-0.21879578
13.177429,-0.29699707,2.6975555,-0.043701172,-0.03024292,-0.33277893
12.339462,-1.6185913,2.9729004,-0.06607056,0.044326782,-0.41053772
9.669922,-1.6353455,3.2601929,-0.055419922,0.12422180000000001,-0.44250488
8.027496000000001,-2.4254456,3.6624297999999995,-0.087387085,0.1625824,-0.4755249
9.418533,-1.6664734,3.8611449999999996,-0.12892151,0.17002869,-0.45420837
11.324326,-0.27305603,3.1428833,-0.17047119,0.17216492,-0.31680298
12.040192,0.25846863,2.2546387,-0.22799683,0.18281555,-0.16978455
11.453598,0.45718384,2.1923828,-0.2769928,0.15937805,-0.09095764
10.893355999999999,0.5912628000000001,1.8715668,-0.28871155,0.1668396,-0.037704468
10.349884,0.06213379,1.9074706999999997,-0.30149840000000006,0.17962646,0.036865234
8.994766,-0.39994812,1.8859253,-0.33558655,0.12528992,0.14552307
8.312408,-0.36882020000000004,1.6632689999999999,-0.39524840000000006,0.021957397000000003,0.21690369
8.118484500000001,0.34225464,1.7374878,-0.48152159999999994,-0.08137512,0.23501587
8.147217,0.87138367,1.778183,-0.5571594,0.064575195,0.16577148
8.561417,0.69659424,1.7326965,-0.5667572,0.12210083,0.07522583
8.664368,0.43084717,1.7183380000000001,-0.421875,0.08268738,-0.07072449
8.762527,0.40930176,1.5387726000000002,-0.28445435,0.0730896,-0.2571411
8.800827,0.39492798,1.1078033,-0.15556335,0.15512085,-0.31147766
8.757736,0.46914673,0.81092834,-0.18005371,0.060317993,-0.3732605
8.961243,0.37338257,0.32011414,-0.20030212,0.11889648400000001,-0.53305054
8.621262,0.43803406,0.37757874,-0.12680054,0.08374023400000001,-0.6310425000000001
8.640411,0.48112488,-0.26885986,-0.106552124,0.056045532,-0.5639343000000001
9.854279,0.19381714,0.63375854,-0.08843994,0.019836426,-0.47338867
11.987518,-0.9530029000000001,2.3001251,-0.10015869,-0.06538391,-0.31680298
12.1072235,-2.2674255000000003,1.3879242,-0.07034302,-0.16978455,-0.11546326
10.919692999999999,-0.72795105,1.3400421,0.053237915,-0.24542236,0.03793335
11.649933,-0.13418579,2.0583038,0.21621704,-0.256073,0.12528992
14.089615,-0.7806244000000001,2.7358703999999996,0.36961365,-0.22198486,0.20092773
12.9092865,-0.57951355,4.430969,0.43353270000000005,-0.14102173,0.25099182
9.227005,-0.13897705,4.3423767,0.4090271,-0.08030701,0.26164246
7.862304700000001,-0.17727661,4.0670470000000005,0.372818,-0.047286987,0.32556152
8.412964,-0.46218872,3.5953827000000005,0.36428833,-0.002532959,0.39160156
9.634018,-0.87638855,3.4948273000000003,0.41755676,0.0027923584,0.3287506
10.424103,-1.3312836000000001,3.6289062000000007,0.40370178,0.04006958,0.28507996
10.213409,-1.9058990000000002,3.5858154000000004,0.34405518,0.10612488,0.27549744
9.849487,-1.9537811,2.9968414,0.28652954,0.1710968,0.23501587
9.468811,-0.95539856,2.2809752999999997,0.26841736,0.22969055,0.16470337
8.503952,-0.15093994,1.6800232,0.26841736,0.26377870000000003,0.07627869
8.070602000000001,-0.49092102,1.6297455,0.30143738,0.29040527,-0.035568237
8.740982,-1.1684875,1.7638245,0.36109924,0.10185242,-0.08988953
9.385010000000001,-1.4797363000000001,2.2067412999999996,0.41862488,0.032608032,-0.13890076
9.423325,-0.89553833,1.6058044,0.35577393,0.2733612,-0.17298889
9.385010000000001,-0.51486206,1.1389313,0.18638611,0.1391449,-0.019592285
9.085739,-0.4262848,0.7558594,0.010620117,-0.13783264,0.18920898
9.227005,-0.42149353,0.7654419,-0.044769287000000005,-0.025970458999999998,0.23287964
9.571762,-0.6106262,0.65530396,0.0756073,-0.11439514,0.18388367
9.483185,-0.7925873000000001,0.65530396,0.27799988,-0.42437744,0.2179718
8.544647,-1.2067871000000001,1.0862578999999999,0.47720337,-0.49575806,0.32235718
8.06102,-1.3121338,0.50686646,0.45803833,-0.36791992,0.3756256
9.24855,-1.1182098,0.7367096,0.31208800000000003,-0.23902893,0.526886
10.048202499999999,0.18663025,2.3767395000000002,0.1821289,-0.031295776000000004,0.653656
9.964416499999999,0.9862976000000001,1.3807526,0.1309967,0.04006958,0.6547241
10.912521,-0.012084961000000002,-0.92007446,0.17041016,-0.04940796,0.3564453
11.542191,-1.5132446000000002,-0.70939636,0.14697266,-0.07284546,-0.064331055
11.515854,-1.5826721000000001,0.78219604,0.11395264,0.00065612793,-0.34129333
11.791183,-1.0631409,1.8739471,0.014877318999999998,0.020904541000000002,-0.38284302
11.34108,-0.5100707999999999,3.5187682999999996,-0.108688354,0.088012695,-0.38070679999999996
10.541412,0.03340149,4.6081389999999995,-0.20562744,0.13700867,-0.45954895
10.203827,0.011856078999999999,4.5674285999999995,-0.32493590000000006,0.1668396,-0.5628662
10.364243,-0.8332976999999999,4.418991,-0.42080688,0.19773865,-0.61187744
10.823929,-1.5323944,3.9784546,-0.46342468,0.23075867,-0.50001526
11.295592999999998,-1.3097382,2.7238922000000003,-0.48686218,0.30212402,-0.30934143
11.937241,-0.42149353,2.2187195,-0.47833252,0.33834840000000005,-0.1974945
12.083282,0.7588501,2.0966186999999996,-0.44743347,0.28933716,-0.17938232
11.252487,1.3143004999999999,1.6848145,-0.42720032,0.21690369,-0.1303711
9.521484,0.8163147,1.6967773000000002,-0.41973877,0.17430115,0.005981445300000001
8.61647,0.10523987,1.6896057,-0.4495697,0.10505676,0.1561737
8.480011,0.47872925,2.0224,-0.48046875,-0.04194641,0.23927307
8.606902999999999,0.9647522,2.367157,-0.56781006,-0.14422607,0.22862244
8.669144000000001,0.61520386,2.1085814999999997,-0.7425232,-0.0046691895,0.19026184
8.391418,0.06452942,2.1564636000000004,-0.85757446,0.2179718,0.17321777
8.008347,-0.009689330999999999,2.1109772,-0.9044341999999999,0.1434021,0.08480835
8.04187,0.18902588,1.857193,-0.84690857,0.056045532,-0.12078857400000001
8.154388,0.29676820000000004,1.45018,-0.71055603,0.0730896,-0.20494079999999998
7.993988000000001,0.19381714,0.8133239999999999,-0.6690216,0.0965271,-0.12611389
7.88385,0.17706299,0.5332031,-0.6967163000000001,0.26164246,-0.095214844
7.5486603,0.23451233,0.19561768,-0.7244109999999999,0.036880493,-0.26460266
7.582184,0.45718384,-1.0852814,-0.6764679,0.10717773400000001,-0.35940552
9.04982,0.5553435999999999,-0.058166504,-0.4026947,0.52264404,-0.48297120000000004
10.555786,-0.5388031,2.0654907,-0.12786865,0.34686279999999997,-0.77378845
11.611618,-1.6952057,1.6512909,0.18426514,-0.32424927,-0.9580841
12.097641000000001,-0.7734375,0.54756165,0.14590454,-0.46806335,-0.6566162
11.889342999999998,0.16508484,-0.553772,0.057495117000000005,-0.32424927,-0.20387268
11.604446000000001,0.65589905,-0.7931824000000001,0.0990448,-0.2006836,0.24034119
12.440017999999998,0.7373046999999999,2.0319672,0.2556305,-0.16020203,0.41184998
12.140747,-0.7949829,2.810089,0.47508240000000007,-0.16978455,0.37776184
11.886963,-2.6002197,5.1037292,0.675354,-0.07923889,0.27122498
11.769638,-3.6704254,8.477158,0.7030487,-0.054733276,0.28720093
12.3203125,-3.2610167999999997,8.714188,0.6103668000000001,-0.011062622,0.38734436
8.606902999999999,0.17706299,3.5786285,0.49319458,0.074157715,0.44061279999999997
8.056229,1.6063995,2.4748992999999997,0.46336365,0.15298462,0.37243652
8.693085,0.49308777,2.9417725,0.38986206,0.123168945,0.26057434
9.950042999999999,-1.7335205000000002,3.3559723,0.36109924,0.10612488,0.18388367
11.068146,-2.949768,3.2649841,0.3770752,0.06990051,0.13061523
10.644363,-2.4350127999999995,3.0638732999999996,0.4250183,0.062438965,0.11676025400000001
8.602112,-1.292984,2.3863068,0.51556396,0.097595215,0.11250305
7.4864197,-0.37600708,1.9218445,0.6295470999999999,0.08161926,0.10504150400000001
7.484024000000001,-0.12460327,1.5627136000000001,0.7339325,-0.06965637,0.09545898400000001
8.137634,-0.22755432,2.2594147,0.8181,-0.26353455,0.041137695
9.329956,-0.25628662,2.1325226,0.81703186,-0.05154419,-0.048355102999999997
9.650772,-0.5771179,1.8069153000000002,0.595459,-0.03982544,-0.00680542
8.939697,-0.56274414,1.6464995999999998,0.29931640000000004,-0.31466675,0.2541809
8.714644999999999,-0.3784027,1.426239,0.06921387,-0.22624207,0.3745575
8.999542,-0.32572937,1.1125946000000002,-0.017074585,-0.24967957,0.31277466
8.8535,-0.5268401999999999,0.8947296,0.029800415,-0.80255127,0.38414
8.250167999999999,-0.7518921,0.6194,0.27693176,-0.60653687,0.5524597
7.7976529999999995,-0.9099120999999999,0.48532104,0.48892212,-0.27737427,0.55352783
8.501555999999999,-1.079895,0.17407227,0.41223145,-0.17404175,0.53860474
10.055389,-0.84765625,1.6680602999999998,0.46548462,-0.09628296,0.45233154
10.452835,1.5656891000000002,1.7494506999999997,0.51982117,-0.05154419,0.17855835
11.422485,1.6255493,-0.26167297,0.37174988,-0.035568237,-0.12504578
12.301147,-0.253891,1.0647125,0.13739014,-0.01638794,-0.34129333
12.167084,-1.000885,3.8611449999999996,-0.10229492,0.033676147000000003,-0.39242554
11.922867,-1.1110229999999999,4.0023956,-0.25675964,0.09120178,-0.39349365
11.041808999999999,-2.0112457,3.442154,-0.29617309999999997,0.1668396,-0.4840393
9.792023,-2.2027740000000002,3.6289062000000007,-0.28977966,0.23287964,-0.5245209
11.494308,-1.8699799,3.9449463,-0.30470276,0.27868652,-0.47764587
13.06012,-1.3193207,3.5690459999999997,-0.32279968,0.27442932,-0.38497925
12.58606,0.17227173,2.4198303,-0.33772278,0.26377870000000003,-0.24223328
11.807953,0.9503784,1.9002838,-0.34944153,0.20732117,-0.11546326
11.161514,1.4387969999999999,1.4908752,-0.33345032,0.14126587,-0.046218872
10.206223,1.0413666,1.4382172,-0.3238678,0.15937805,-0.0014801025
9.183899,-0.24911499,1.7446747,-0.34304809999999997,0.15830994,0.0965271
7.8120270000000005,-0.40951538,2.0128174,-0.40696716,0.097595215,0.20837402
7.15123,0.25846863,2.185196,-0.48898315,0.012374878,0.222229
7.414581299999999,0.6175841999999999,2.197174,-0.6040344,-0.10800171,0.19560242
8.132843,0.49548339999999996,2.0798492,-0.66581726,0.12635803,0.18281555
8.259735000000001,0.15789795,1.9002838,-0.63386536,0.15298462,0.15724182
8.391418,-0.04321289,1.8883208999999999,-0.53479004,0.062438965,0.0070495605000000005
8.839141999999999,-0.17010498,1.4310303,-0.37820435,0.07736206,-0.23690796
8.784073,0.06692505,0.93782043,-0.34411620000000004,0.23394775,-0.25500488
8.434525,0.09086609,0.43025208,-0.41229248,0.23075867,-0.30934143
8.518311,-0.17489624,-0.10125732400000001,-0.43359375,0.15725708,-0.53730774
8.108902,0.06452942,-0.13717651,-0.3473053,0.24459839,-0.76101685
8.391418,0.6175841999999999,-0.70939636,-0.22586060000000002,0.01663208,-0.7769928
10.443253,0.14353943,1.9050751,-0.16300964,-0.162323,-0.47659302
12.274811,-2.3464355,2.4342040000000003,-0.087387085,-0.19747925,-0.106933594
12.660278,-2.7342834,1.4956665,0.09477234,-0.15060425,0.14126587
11.762450999999999,-0.2634735,1.13414,0.34191895,-0.09841919,0.222229
12.813507000000001,-0.036026,2.6568604,0.6295470999999999,-0.11651611,0.26057434
13.991454999999998,-0.81892395,4.007187,0.8074340999999999,-0.08030701,0.29998779999999997
12.576492,-0.68963623,5.0917664,0.755249,-0.057937622,0.32556152
10.287628,-0.3496704,6.047043,0.59013367,0.011306763000000001,0.397995
8.187911999999999,0.10523987,4.299286,0.43885803,0.06990051,0.4533844
7.8958282,0.05734253,3.2075195,0.29718018,0.076293945,0.41397095
9.119263,-1.1517181,3.2362518,0.21089172,0.044326782,0.29040527
9.916534,-2.494873,3.083023,0.197052,-0.01638794,0.1710968
10.443253,-2.6720428,3.6672057999999996,0.17041016,-0.021713257000000003,0.13700867
10.349884,-1.9944762999999999,3.1764069,0.1736145,0.012374878,0.16363525
8.937302,-0.86442566,2.185196,0.21409607,0.019836426,0.16577148
7.8311768,0.014251709,1.7135468,0.28120422,0.031555176000000004,0.13275146
7.330795299999999,-0.14855957,1.7015686,0.36428833,0.046463013,0.06137085
7.771316499999999,-0.26107788,1.8045197,0.45697020000000005,-0.029174805,0.012374878
8.752945,-0.23953247,1.8500061,0.5304718,-0.10374451,-0.0014801025
9.301224000000001,-0.81892395,1.9170532,0.49531555,0.033676147000000003,-0.045150757
9.260513000000001,-0.8213196,1.4860992,0.30143738,-0.15487671,0.08694458
8.88942,-0.5244446,1.2490691999999999,0.1267395,-0.23477173,0.2541809
8.822372,-0.40711975,1.1557007,0.024475097999999997,-0.13143921,0.28826904
9.092926,-0.45262146,0.8875427,0.06388855,-0.21133423,0.24246216
9.334732,-0.6944275,0.54278564,0.097976685,-0.75567627,0.40118408
9.138411999999999,-0.6968231,0.6241760000000001,0.2833252,-0.40200806,0.50346375
8.884628,-0.7423095999999999,0.7726288,0.42607117,-0.2134552,0.41078186
9.629227,-1.6593018,0.8636017,0.33978270000000005,-0.17510986,0.35432434
10.1822815,-0.76387024,1.5890503,0.32061768,-0.06965637,0.33514404
10.977158,0.81152344,0.9354248,0.36003113,-0.07391357400000001,0.19772339
12.138351,0.6439209,-0.031829834,0.20130920000000002,-0.09307861,-0.027038574
12.578888000000001,-0.6441498000000001,1.3328705,-0.011749268,-0.06538391,-0.25820923
12.258057,-0.3041687,3.751007,-0.17153929999999998,-0.011062622,-0.37538147
12.131165,-1.1780548,2.9944458,-0.2684784,0.048599243,-0.43823242
11.257278,-1.7239380000000002,3.4924315999999997,-0.29617309999999997,0.14021301,-0.5362395999999999
9.116867,-1.9825133999999998,3.3344116,-0.2919159,0.1902771,-0.6022949000000001
9.442474,-1.8364716,3.434967,-0.27593994,0.21478271,-0.5713959
11.0849,-0.43107605,3.5786285,-0.26208496,0.1987915,-0.43504333
11.752884,0.48591614,2.5036316000000003,-0.23757935,0.15830994,-0.256073
11.685837,0.5337982,1.9098663,-0.2216034,0.111450195,-0.12078857400000001
11.673874,0.49787903,2.0056305,-0.22053528,0.06990051,-0.07072449
10.7114105,0.03819275,1.9721221999999998,-0.23332214,0.12742615,-0.013198853
9.294037,-0.43585205,1.9290161,-0.2684784,0.16044617,0.09866333
8.159180000000001,-0.39994812,2.173233,-0.31214905,0.11570739999999999,0.222229
7.823989999999999,0.019042969,2.2713928,-0.34304809999999997,-0.00680542,0.26589966
7.8958282,0.32310486,2.3887023999999997,-0.3941803,-0.10054016,0.23501587
8.444092,0.3183136,2.3288574,-0.4495697,0.052856445,0.21369934
8.69548,0.260849,2.1109772,-0.38032532,0.20199585,0.12742615
8.640411,0.009460449000000001,1.7997284,-0.25675964,0.08374023400000001,-0.11013794
8.997162,-0.0048980713,1.158081,-0.18858337,0.13061523,-0.32106018
9.147995,0.23930359,0.6600951999999999,-0.22799683,0.2456665,-0.33384705
8.736191,0.28240967,0.20040894,-0.38139343,0.24673462,-0.34022522
8.209457,0.11001587,0.020843506,-0.5411835,0.2882843,-0.48510742
7.5845795,0.0836792,0.0064697266000000005,-0.41973877,0.24887085,-0.7503662
7.718658400000001,0.16748047,-0.716568,-0.19816589999999998,0.16151428,-0.84942627
9.708236999999999,-0.49331665,1.2179413000000001,0.010620117,-0.08456421,-0.63957214
11.889342999999998,-1.5252228,2.8747252999999997,0.043640137,-0.28695679999999996,-0.23158264
12.224533000000001,-1.3456573,1.0024719000000002,0.064956665,-0.30613708,0.045394897000000003
11.614014,0.20817566,0.38716125,0.18745422,-0.16871643,0.10717773400000001
11.774429,0.66548157,1.7398833999999999,0.36854553,-0.14102173,0.15405273
12.904494999999999,-0.23953247,3.2194977000000002,0.5496521,-0.09628296,0.22969055
12.521423,-1.2331238000000002,5.7645264,0.5528411999999999,0.009185791,0.24246216
10.246933,-1.7550659,6.159576400000001,0.42395020000000005,0.017700195,0.35539246
8.87265,-1.3241119,5.999161,0.31954956,0.046463013,0.45019529999999996
8.123275999999999,-0.5651398,4.031128,0.19065857,0.07096863,0.43528748
9.516693,-0.53163147,3.106964,0.10649109,0.043273926,0.32235718
11.068146,-1.3887482,2.6544647,0.06175232,0.00491333,0.20092773
11.455994,-1.8580169999999998,2.9776764,0.06707764,0.039001465,0.1519165
10.792800999999999,-1.5180358999999999,2.829239,0.11820984,0.050720215,0.13700867
9.471207000000001,-0.62739563,1.9625397,0.197052,0.08161926,0.16151428
7.843155,0.0046691895,1.4884948999999998,0.28971863,0.13168335,0.17855835
7.5031740000000005,-0.21319580000000002,1.5339813,0.38453674,0.06990051,0.13275146
7.795273,-0.20600891,1.3568115,0.45910645,-0.10800171,0.0496521
8.702667,-0.05757141,1.7087555,0.5570984,-0.11546326,-0.052612305
9.404175,-0.53401184,1.6752319,0.5624237,0.048599243,-0.11972046
9.229385,-0.6154175000000001,1.4358215,0.39091492,-0.12611389,0.109313965
8.867874,-0.6441498000000001,1.4214478000000002,0.19065857,-0.20280457,0.35539246
8.851105,-0.6752776999999999,1.0958405,0.012756348,-0.13783264,0.37243652
9.203049,-0.70880127,0.6361541999999999,-0.083114624,-0.35726929999999996,0.35964966
9.195877000000001,-0.842865,0.6098175,-0.0181427,-0.6416930999999999,0.49279785
8.702667,-0.9697571,0.7103729,0.22474670000000002,-0.15913391,0.41290283
8.877441000000001,-1.3624114999999999,0.6720581,0.30569458,-0.24542236,0.21264648
10.177489999999999,-2.130951,1.0479584000000002,0.27799988,-0.13783264,0.16789246
11.022644,-0.0647583,2.142105,0.3035736,-0.054733276,0.20518494
11.417694000000001,1.4962616000000002,0.9857024999999999,0.33233643,-0.040893555,0.12635803
12.004272,0.5122528000000001,0.40151978,0.21195984,-0.035568237,-0.08988953
12.150314,-0.22277832,1.881134,0.046844482,-0.034500122,-0.24223328
12.025818,-0.29460144,2.8986664,-0.08843994,0.013442993,-0.27737427
12.044967999999999,-2.0327911,1.8500061,-0.15768433,0.11996459999999999,-0.31040955
9.835129,-2.2003784,3.6935425000000004,-0.17153929999999998,0.28507996,-0.38816833
8.429733,-2.1261597,3.6528473,-0.17793274,0.36497498,-0.45741272
9.887802,-1.2331238000000002,3.7414245999999998,-0.24717712,0.362854,-0.41906738
11.726547,-0.4406433,3.5546875,-0.31214905,0.27442932,-0.29975890000000005
12.040192,0.32789612,2.7119293,-0.3238678,0.19667053,-0.16873169
11.343475,0.90489197,2.501236,-0.28019714,0.16151428,-0.111206055
10.912521,0.7397003000000001,2.142105,-0.24610901,0.19134521,-0.11972046
10.03624,-0.17967224,1.8260651,-0.2418518,0.25845337,-0.05154419
9.097717,-0.88597107,1.9697266,-0.27059937,0.25952148,0.11250305
7.931732000000001,-0.6106262,2.233078,-0.33132935,0.14979553,0.26057434
7.551056,0.37098694,2.2594147,-0.40696716,-0.09202576,0.31916809999999995
7.776108,0.78518677,2.2354736,-0.5230713,-0.06005859400000001,0.28720093
9.011519999999999,0.5242157000000001,2.2666016,-0.597641,0.17002869,0.22755432
9.380234,-0.05996704,2.1684417999999996,-0.5880585,0.12528992,0.06776428
9.387405000000001,-0.32572937,1.6752319,-0.41548157,0.041137695,-0.20600891
9.241364,0.13156128,1.1078033,-0.18218994,0.023025512999999997,-0.37219238
9.121658,0.69898987,0.83966064,-0.16621399,0.097595215,-0.31785583
8.717025999999999,0.6223755,0.5164489999999999,-0.36221313,-0.019577026,-0.26672363
8.183121,0.36619568,0.7079773,-0.53692627,0.11463928,-0.28909302
7.3666990000000006,0.49308777,-0.21618652,-0.5933838,0.24780273,-0.39881897
7.9006042,0.69898987,-0.10125732400000001,-0.50923157,0.21264648,-0.6086731
10.68985,-0.6154175000000001,2.3504028,-0.2546234,0.07203674,-0.7535553
12.413681,-2.731903,2.3336487,-0.12359619,-0.20280457,-0.52345276
12.006668,-1.8795624,1.0910492,-0.013885498000000001,-0.29655457,-0.174057
11.491913,0.18663025,0.48532104,0.13632202,-0.24009705,0.039001465
12.260452,0.27282715,1.4046936,0.26734924,-0.15699768,0.12528992
12.504653999999999,0.47872925,1.8380432,0.3855896,-0.12823486,0.20625305
10.881393,-0.01927185,4.0023956,0.42927550000000003,-0.045150757,0.21264648
9.452057,-1.5778961,5.5706024,0.40370178,-0.012130736999999999,0.27229309999999995
9.825546000000001,-1.8939209,6.604903999999999,0.3781433,-0.02810669,0.35751343
9.691467,-1.5587311000000001,5.391037,0.32061768,0.0017242432000000002,0.35112
9.277283,-1.0607452,3.995224,0.2598877,-0.01852417,0.25950623
9.428116000000001,-1.1876373,3.1500702,0.22686768,-0.052612305,0.13807678
10.373825,-1.4462128,2.6999512,0.21835327,0.00065612793,0.09971619
10.720978,-1.2618561000000001,2.8220520000000002,0.22793579,0.10824585,0.128479
9.715408,-0.9386443999999999,2.3096924,0.23007202,0.18495178,0.14447021
8.39621,-0.81414795,1.8667755000000001,0.27587890000000004,0.19667053,0.12954712
7.8263855,-0.97694397,1.8883208999999999,0.38026428,0.08908081,0.0730896
7.950882000000001,-1.1732788,1.7446747,0.52301025,-0.12397766,0.024093628
8.530289,-0.73753357,2.0798492,0.6806793000000001,-0.2368927,-0.014266968
8.898987,-0.8596344000000001,2.0990142999999994,0.6838684,-0.062194824,-0.03024292
8.709854,-0.6752776999999999,1.7015686,0.5581665,-0.17617798,0.12208557
8.360291,-0.41430664,1.2849883999999998,0.38986206,-0.29655457,0.32449340000000004
8.480011,-0.5603484999999999,0.9450073,0.22154236,-0.23156738,0.32662964
9.0833435,-0.6393585,1.0455627,0.15550232,-0.49043274,0.20518494
9.306000000000001,-0.6345824999999999,1.0718994,0.16828918,-0.72265625,0.33940125
8.764923,-0.7135773,1.0192261,0.31315613,-0.24328613,0.46510315
8.530289,-1.0391998,0.8061371,0.2609558,-0.24116516,0.38520813
9.894974000000001,-1.5946503,0.46377563,0.16508484,-0.071777344,0.36390686
10.941253999999999,-0.27305603,1.457367,0.074539185,0.014511108,0.36816406
10.893355999999999,0.85461426,0.9713440000000001,0.058563232,0.039001465,0.24673462
11.769638,0.29437256,0.018447876000000002,-0.03944397,0.06350708,0.043258667
12.985901,-0.26826477,1.8069153000000002,-0.18112183,0.06564331,-0.21347046
13.129547,0.4835205,3.4373627,-0.28338623,0.11784363,-0.37112427
13.002655,-1.4102936000000001,2.501236,-0.30256653,0.19560242,-0.44888306
10.0961,-1.8795624,3.3942718999999997,-0.2695465,0.29467773,-0.5277251999999999
8.04187,-1.6569061,2.7765656,-0.29403687,0.30958557,-0.558609
9.133621,-1.4988861,3.434967,-0.32174683,0.30105590000000004,-0.5245209
12.042572,0.04058838,3.9688873,-0.30575562,0.26696777,-0.4009552
13.392914000000001,0.849823,3.4086304,-0.2919159,0.1945343,-0.25500488
12.169478999999999,0.5050659000000001,2.4437714,-0.2216034,0.17430115,-0.14529419
11.163910000000001,0.12199402,1.8141022,-0.15235901,0.15830994,-0.08988953
10.024261,-0.38557434,1.7087555,-0.12680054,0.16151428,-0.027038574
8.401000999999999,-0.64175415,1.6920012999999998,-0.14277649,0.17323303,0.09013367
7.3283997,-0.17727661,1.9218445,-0.20455933,0.15405273,0.1945343
7.15123,0.28001404,2.185196,-0.29724120000000004,0.020904541000000002,0.20411682
7.551056,0.63674927,2.410263,-0.46342468,-0.014251709,0.1561737
8.166367,0.0836792,2.118164,-0.56036377,0.121032715,0.10504150400000001
8.544647,-0.38078308,1.9960631999999998,-0.5880585,0.08268738,0.03793335
8.714644999999999,-0.4190979,1.7925567999999998,-0.5241394,-0.009994507,-0.14634705
9.107285000000001,-0.13179016,1.402298,-0.45703125,0.008117675999999999,-0.2795105
9.224609,0.25128174,0.9737396,-0.5688781999999999,0.16363525,-0.25820923
8.942093,0.18423462,0.5523529,-0.73080444,0.27124023,-0.31999207
8.745758,0.15789795,0.50686646,-0.7787323,0.18174744,-0.5319824000000001
8.391418,0.60801697,-0.19224548,-0.53692627,0.07096863,-0.70988464
9.277283,1.0605163999999998,-0.07252502400000001,-0.25250244,0.013442993,-0.62145996
11.166306,-0.07672119,1.7303008999999998,-0.13319397,-0.071777344,-0.44676208
11.673874,-1.9825133999999998,1.5986176,-0.16195679,-0.28590393,-0.23051453
11.005889999999999,-0.9721527,0.49728394,-0.11933899,-0.31678772,-0.025985717999999998
10.699432,1.0772858,0.1477356,0.05003357,-0.24542236,0.11250305
12.353821,1.2496643,2.2498473999999997,0.31315613,-0.21026611,0.20732117
14.319458,-0.55078125,5.1564026,0.5400543000000001,-0.13250732,0.27761840000000004
13.699371,-2.7558439999999997,6.8682555999999995,0.5592345999999999,-0.10267639,0.27229309999999995
9.571762,-2.3871307,5.558624299999999,0.42820740000000007,-0.024902344,0.30851746
7.771316499999999,-0.50289917,4.524337999999999,0.2833252,0.0922699,0.43315125
7.8862457,0.30395508,3.6025696000000003,0.19171143,0.13381958,0.43634033
8.994766,0.11001587,3.2290802000000003,0.150177,0.12742615,0.35005188
10.431274,-1.0727081,3.217102,0.15336609,0.045394897000000003,0.2499237
11.369812,-2.446991,3.509201,0.1586914,-0.0036010741999999997,0.15724182
10.797592,-2.399109,3.1021729,0.20237732,0.025161742999999997,0.14447021
9.396988,-1.4390258999999999,2.2426605,0.24391174,0.08055115,0.17002869
8.879837,-0.51486206,1.747055,0.29504395,0.14021301,0.17216492
7.9365234,0.16029358,1.6321411,0.35896300000000003,0.15193176,0.14659119
7.9772186000000005,-0.31135559999999995,2.063095,0.41223145,0.052856445,0.08906555
8.319595,-0.6465454,2.3216705,0.5166168,-0.10479736,-0.00894165
8.118484500000001,-0.8237152,2.343216,0.54644775,-0.07498169,-0.11225891
8.410568,-1.0463715,2.0295715,0.39730835,-0.076034546,-0.04408264
8.532684,-0.7949829,1.8188933999999997,0.20663452,-0.18043518,0.16789246
8.432129,-0.54599,1.3424377,0.039382935,-0.12184143,0.28401184
8.721817,-0.4190979,0.98091125,-0.08843994,-0.13569641,0.26589966
9.150391,-0.4406433,0.71276855,-0.1161499,-0.5341034,0.28614807
9.147995,-0.7255554,0.6529083000000001,0.097976685,-0.4329071,0.34260559999999995
9.011519999999999,-1.2211608999999999,0.8851471,0.2801361,-0.21984863,0.25524902
9.279663000000001,-1.4749451,1.0192261,0.26734924,-0.21878052,0.18814087
10.426497999999999,-0.92666626,1.7015686,0.27587890000000004,-0.033432007,0.2179718
11.422485,0.74209595,1.7853699,0.31848145,-0.011062622,0.15405273
12.030609,0.9144745000000001,0.42066956,0.25883484,-0.0014801025,0.008102416999999999
12.490295,-0.024047852,1.13414,0.13632202,0.020904541000000002,-0.14634705
12.542969,-0.4765625,2.252243,-0.002166748,0.044326782,-0.20387268
12.64592,-0.99609375,2.7741700000000002,-0.10122681,0.07096863,-0.26672363
11.743300999999999,-2.1644745,2.7454376,-0.12359619,0.08055115,-0.38177490000000003
9.475997999999999,-1.984909,3.9233856,-0.08418274,0.11250305,-0.42118835
8.977997,-1.316925,3.4589233,-0.033050537000000005,0.14447021,-0.42012024
9.954834,-0.9314575,3.3799133,-0.02772522,0.16151428,-0.38497925
10.718582000000001,-0.40234375,2.453354,-0.06288147,0.12210083,-0.27632140000000005
11.060959,0.49069214,2.1445007,-0.085250854,0.09120178,-0.12397766
11.139969,0.9767151,2.3096924,-0.08843994,0.11784363,-0.060073852999999997
10.967575,0.51464844,2.2785797000000003,-0.06927489999999999,0.12742615,-0.01852417
9.935684,-0.27305603,2.4581451000000003,-0.07034302,0.15937805,0.0688324
8.360291,-0.49331665,2.5587006000000003,-0.122528076,0.16577148,0.14979553
7.5175323,-0.28981018,2.5275726,-0.20881653,0.14021301,0.20198059
7.847931,0.31112670000000003,2.4964447,-0.30363464,0.012374878,0.20198059
8.367477000000001,0.766037,2.470108,-0.44317627,-0.008926392,0.18814087
8.966034,0.8354645,2.276184,-0.53904724,0.123168945,0.17749023
9.200667999999999,0.5098572,1.8045197,-0.5518341,0.09013367,0.109313965
8.982788000000001,0.36141968,1.5220032,-0.48579407,-0.007858275999999999,-0.05580139
9.114471,0.3829651,1.1868134,-0.31961059999999997,-0.002532959,-0.2326355
8.970825,0.21057129,0.6098175,-0.32279968,0.20518494,-0.24542236
8.666748,0.019042969,-0.034225464,-0.48258972,0.1434021,-0.38710022
8.365082000000001,0.03819275,0.039993286,-0.5411835,0.15725708,-0.6182709
7.5103607000000006,0.59843445,-0.18026733,-0.46447754,0.21690369,-0.8014984
7.6731567,1.1107941000000001,-0.007888794000000001,-0.32707214,0.0688324,-0.7727356
9.945250999999999,0.34465027,1.9050751,-0.20881653,-0.06112671,-0.49150085
11.736114500000001,-1.9729308999999997,1.9649352999999998,-0.106552124,-0.12930298,-0.16020203
12.013855,-2.0112457,1.1724548000000001,0.043640137,-0.08137512,0.06776428
11.604446000000001,0.19142151,0.8348694,0.26202393,-0.07070923,0.22541809
13.407272,-0.13897705,2.9297942999999997,0.487854,-0.11546326,0.36071777
14.271576000000001,-0.8452606,4.577011,0.6263428000000001,-0.036621094,0.40438843
12.396927,-0.5651398,5.7693176,0.58906555,-0.025970458999999998,0.38308716
10.481552,-0.50050354,6.236191000000001,0.48573303,0.033676147000000003,0.41717529999999997
9.401779,-0.69203186,4.6416473,0.36854553,0.08268738,0.41610718
8.726608,-0.6058501999999999,3.9066315,0.2598877,0.06350708,0.33940125
9.363464,-1.3863524999999999,3.145279,0.17254639,0.0027923584,0.22862244
9.981171,-1.8795624,3.0734557999999996,0.11395264,-0.040893555,0.13594055
10.172714,-1.9441986,3.3894806000000006,0.095840454,0.014511108,0.13168335
9.729782,-1.7335205000000002,2.7646027,0.10862732,0.056045532,0.1434021
8.338745,-1.1014403999999998,2.1157684,0.14485168,0.10505676,0.10610962
7.654007000000001,-0.70401,1.9840851000000002,0.21089172,0.1625824,0.05390930000000001
7.5103607000000006,-0.56274414,1.9864807,0.28652954,0.0496521,0.009170532
8.003555,-0.26107788,2.161255,0.36428833,-0.19108582,-0.040893555
8.709854,-0.15812683,2.1875916,0.49105835,-0.19108582,-0.11759949
9.035461,-0.44303894,1.9433898999999997,0.49212646,0.034744263,-0.13996887
8.836746,-0.5675354,1.5291901,0.32061768,-0.122909546,0.027282715
8.566193,-0.5244446,1.3424377,0.10862732,-0.30934143,0.23501587
9.114471,-0.62260437,1.1461181999999999,-0.05329895,-0.21240234,0.28720093
9.629227,-0.6561279000000001,0.9282379000000001,-0.08950806,-0.32106018,0.1945343
9.24855,-0.71836853,0.892334,-0.00642395,-0.73223877,0.25524902
8.843933,-0.7662505999999999,0.4517975,0.26734924,-0.33810425,0.33407593
8.93251,-0.89553833,-0.012680054,0.29399109999999995,-0.28163147,0.31277466
9.650772,-1.2570648000000002,0.6936188,0.26202393,-0.10906982400000001,0.2967987
10.175094999999999,-0.2634735,2.1349182,0.15550232,0.009185791,0.35112
10.603667999999999,1.1395263999999998,1.3065338,0.11288452,-0.011062622,0.2541809
11.654724,0.8857421999999998,0.013656616000000002,-0.0181427,-0.057937622,0.020889282
12.732117,-0.47416687,1.0718994,-0.15449524,-0.056869507,-0.24649048
12.784775,-0.5675354,3.6935425000000004,-0.23651123,-0.013198853,-0.39456177
12.801544,-1.6401366999999998,3.1021729,-0.2642212,0.029418945,-0.39562988
10.819138,-1.7909698,3.9712677000000003,-0.23013306,0.08908081,-0.44036865
9.301224000000001,-1.2738341999999998,3.4038544,-0.19177246,0.14447021,-0.50001526
8.946869,-1.6712646,3.4158172999999996,-0.20562744,0.19134521,-0.49043274
10.665909,-0.76387024,3.5666504,-0.25250244,0.175354,-0.39562988
11.791183,0.19621277,2.6879882999999998,-0.28552246,0.18388367,-0.21453857
11.8103485,0.34944153,2.319275,-0.2769928,0.22755432,-0.07711792
11.506271,0.44281006,2.3863068,-0.23864746,0.1860199,-0.02810669
10.361847000000001,0.20817566,2.367157,-0.22053528,0.18707275,0.027282715
9.045044,-0.5603484999999999,2.3264617999999997,-0.25994873,0.16470337,0.13061523
8.053833000000001,-0.52923584,2.2905425999999998,-0.3238678,0.033676147000000003,0.24459839
7.773712,0.28001404,2.2235107000000003,-0.38352966,-0.07391357400000001,0.27122498
7.9604645000000005,0.8354645,2.3288574,-0.47514343,-0.11972046,0.23713684
8.640411,0.99827576,2.1109772,-0.5699463,0.10185242,0.23501587
9.104889,0.4835205,1.7853699,-0.597641,0.21690369,0.21476746
8.908569,-0.03363037,1.8069153000000002,-0.5486449999999999,0.11357117,0.08694458
8.894211,-0.07432556,1.3639832,-0.38352966,0.07522583,-0.14315796
8.977997,0.30395508,0.86839294,-0.27912903,0.1434021,-0.18257141
8.614075,0.32310486,0.46855164,-0.32707214,0.13700867,-0.20281982
8.355514999999999,-0.18925476,-0.16111755,-0.42826843,0.14872742,-0.38070679999999996
7.788086,0.021438599,-0.2712555,-0.4453125,0.17642212,-0.56074524
7.527114999999999,0.8354645,-0.73573303,-0.41122437,0.07522583,-0.652359
9.116867,0.7181549,1.3256836,-0.29403687,0.024093628,-0.64915466
11.178268,-1.6904144,2.5922089,-0.22692871,-0.15592957,-0.44676208
12.049759,-2.7414702999999996,1.7829741999999997,-0.108688354,-0.19322205,-0.17085266
11.71936,-0.7423095999999999,1.05513,0.107559204,-0.15274048,0.052856445
12.502258,0.29916382,1.7877655,0.36109924,-0.1857605,0.18814087
14.245239000000002,-0.3209381,2.9465637000000005,0.6242218,-0.209198,0.27442932
13.35939,-0.15333557,4.976837000000001,0.7435303000000001,-0.16339111,0.25311279999999997
10.644363,-0.5962677,5.584961,0.66256714,-0.1388855,0.23606873
9.396988,-0.8165283,5.2425995,0.5539093,-0.01638794,0.35858154
8.827164,-0.94104004,4.2777405,0.45057678,0.07736206,0.44487
8.709854,-0.92427063,3.3463898000000003,0.36109924,0.09333801,0.39160156
9.50473,-1.5012816999999998,3.0782317999999997,0.3035736,0.0070495605000000005,0.24778748
9.966812,-2.2434845,3.308075,0.30143738,-0.03768921,0.15937805
10.165527,-2.5882416,3.2506256000000002,0.31208800000000003,-0.035568237,0.16044617
9.708236999999999,-1.9465941999999998,2.4796906,0.30996704,0.013442993,0.14126587
8.729004,-0.94581604,1.7087555,0.31636047,0.09333801,0.10824585
8.489578,-0.21319580000000002,1.7326965,0.33872986,0.18707275,0.08799744
8.310013,-0.22994995,1.7973328000000002,0.38453674,0.175354,0.047531128
8.336349499999999,-0.43585205,1.9649352999999998,0.46548462,0.048599243,-0.0046691895
8.860686999999999,-0.6465454,2.1684417999999996,0.5730896,0.009185791,-0.03982544
9.167145,-0.8452606,2.0678864,0.54219055,0.15937805,-0.034500122
8.764923,-0.88357544,1.6488953000000002,0.39091492,0.0027923584,0.11570739999999999
8.6284485,-0.82611084,0.98091125,0.23219299999999998,-0.19322205,0.25845337
9.159958,-0.36642456,0.7007904,0.12460327,-0.04408264,0.25631714
9.626831,0.22494507,0.64811707,-0.0042877196999999995,-0.25393677,0.27868652
9.243758999999999,0.04058838,0.73431396,0.006362915,-0.6033478,0.4725647
8.570984,-0.43107605,0.76304626,0.29611206,-0.22624207,0.46510315
8.511139,-1.1086273000000002,0.70558167,0.4047699,-0.22624207,0.23287964
9.373047,-2.0136414,1.1940002,0.3855896,-0.09202576,0.15512085
10.323547,-0.46937559999999995,2.8005066000000003,0.42288208,0.025161742999999997,0.16789246
10.869415,1.276001,1.8907166000000002,0.36535645,0.062438965,0.121032715
12.229324,1.0988312,0.47573853,0.100112915,0.04006958,-0.056869507
