accx,accy,accz,gyrx,gyry,gyrz
9.485565,0.67744446,-0.37420654,0.2876587,-0.10093689,-0.053604125999999995
9.516693,0.6032257,-0.64234924,0.23120117,-0.230896,0.098739624
9.200667999999999,0.63435364,-0.37420654,0.055419922,-0.29055786,0.29473877
8.487183,0.43563843,-0.20899963,-0.11714172,-0.08389282,0.42897034
8.00116,-0.95539856,-0.6830596999999999,-0.18745422,0.3805542,0.42790222
9.238968,-1.1828461000000001,-0.1443634,-0.12034607,0.14300537,0.48861694
10.948425,0.928833,0.056762695,0.056488037000000005,-0.07643127400000001,0.49287415
11.293198,2.0301666000000003,-1.329483,0.28977966,0.07482910000000001,0.5109863
12.217361,2.1403046000000003,-2.0908508,0.55397034,0.24101257,0.53656006
13.79274,1.8745421999999998,-0.9799346999999999,0.7052307,0.30493164,0.6175232
13.349808,2.2528381,1.1437225,0.68074036,0.1302185,0.62924194
12.4591675,0.6726532,2.3934937,0.4730072,-0.060455322,0.41297913
10.653946000000001,-1.4055023000000002,2.8675537,0.24824524,-0.25326538,0.035888672
8.791260000000001,-2.1094055,3.8180389999999997,0.07673645,-0.17443848,-0.21339417
7.3164215,-2.075882,3.9904327000000004,0.0042877196999999995,-0.051940917999999996,-0.34335327
8.769699000000001,-0.43107605,3.8898773,0.011749268,-0.08496094,-0.36358643
12.301147,1.2257233,2.7693787,-0.029800415,-0.08389282,-0.30712890000000004
14.017792000000002,1.4866943000000001,1.4549713,-0.10542297,-0.017852783,-0.14840698
12.368195,1.1754456,0.22195435,-0.17147827,0.07908630000000001,0.03375244
10.589294,1.2903594999999999,0.39912415,-0.19810486,0.03967285,0.09446716
9.298828,1.1586761,0.9042969000000001,-0.19171143,-0.037017822,0.08807373
8.817596,1.0533295,0.6194,-0.20982361,-0.025299072000000002,0.07102966
8.39621,1.1227722,0.27941895,-0.25456238,-0.10093689,0.049728394
7.823989999999999,0.8306732,0.14294434,-0.31422424,-0.104141235,0.03694153
7.876663000000001,0.10762024,0.107040405,-0.35150146,0.03327942,0.08062744
8.35791,-0.14376831,0.35603333,-0.41116333,0.018371582,0.17436218
8.480011,0.35902405,-0.06295776,-0.46762085,-0.13928223,0.19886779999999998
8.810410000000001,0.9671478000000001,-0.50827026,-0.44099426,-0.19255066,0.10618591
9.514297500000001,0.9671478000000001,-1.1571045,-0.39411926,-0.19468689,-0.053604125999999995
9.588516,0.70617676,-1.6335449,-0.24284363,0.06311035,-0.2559967
8.685913000000001,0.37098694,-1.8083343999999997,-0.035125732,0.31132507,-0.34121704
7.998779300000001,0.28001404,-1.7364959999999998,0.23225403,0.43807983,-0.37211609999999995
8.333953999999999,1.4795074,-0.8243103,0.3984375,0.37097168,-0.5020752
9.787247,2.3246613,-0.52983093,0.51348877,0.1770935,-0.5670624
12.559723,0.86898804,0.17407227,0.4921875,-0.038085938,-0.4988861
13.119964999999999,-0.91230774,0.28660583,0.36648559999999997,-0.2000122,-0.44029236
12.674652,-1.1948242,-0.050979614000000006,0.13319397,0.08015442,-0.35507202
14.405655,-1.5970459,1.0982361,-0.08305359,0.3251648,-0.38490295
14.642685,-1.5036774,1.3208923000000001,-0.23965454,0.2505951,-0.44987488
11.0082855,1.6566772,1.5435486,-0.31208800000000003,-0.030639648,-0.41792297
9.033066,2.192978,2.0487366000000002,-0.31315613,-0.10626221,-0.27410890000000004
8.954056,2.2432556,2.173233,-0.2833252,-0.14994812,-0.05999756
9.753722999999999,1.7763824000000001,2.6257324,-0.28971863,-0.14141846,0.11683655
10.938858,0.6726532,3.004013,-0.3025055,-0.07963562,0.16052246
11.147140499999999,0.45718384,2.501236,-0.22900389999999998,-0.049804688,0.13175964
10.313965,0.928833,1.7446747,-0.10437012,-0.012527466000000001,0.022033691
9.200667999999999,1.0653076000000001,1.4525757,0.0074920654,-0.029571532999999997,-0.1026001
8.896591,0.766037,1.2849883999999998,0.07992554,-0.10093689,-0.1537323
8.819977,0.20579529,0.9904938,0.13638306,-0.13183594,-0.119644165
8.556625,-0.26107788,1.158081,0.16195679,-0.09881592,-0.057861328
8.623657000000001,-0.6848602,1.3304749,0.12680054,-0.010391235,-0.047210693
8.647598,-0.74710083,1.1437225,0.07246399,0.07376099,-0.03656006
8.262131,-0.54119873,0.65530396,0.02986145,0.26124573,-0.063186646
7.9915924,-0.07911682,0.24349976,0.06288147,0.31983948,-0.13775635
8.640411,0.26803590000000005,0.0040893555,0.13638306,0.15898132,-0.16331482
9.502335,0.42845154,-0.5681305,0.20349121,-0.05619812,-0.10473633
9.849487,0.6128081999999999,-1.2528687,0.18751526,-0.14248657,0.08062744
10.266083,0.6175841999999999,-1.4755402,0.025604248,0.027954102,0.16903687
9.926102,0.29437256,-0.94880676,-0.053237915,-0.07324219,0.114715576
8.556625,-0.45022583,-0.5322113,-0.1267395,0.13554382,0.15625
8.300446,-1.1229858,-0.47955322,-0.20770264,0.22822571,0.42683409999999994
9.624435,0.07890319999999999,-0.38856506,-0.16082764,-0.10519409,0.6718445
11.130386,1.2161407,-0.49630737,-0.032989502000000004,-0.024246216,0.6761017
10.996307,1.7332916,-0.84106445,0.20030212,0.0055847169999999995,0.61325073
11.26207,1.9008789000000001,-1.408493,0.421875,0.12489319,0.64308167
12.66507,2.2025604,0.20759583,0.54971313,0.21438599,0.66438293
13.036178999999999,2.647873,1.8643798999999999,0.5007019,0.06843567,0.5802307
12.62677,-0.3041687,2.2163239,0.28233337,-0.14035034,0.3330841
11.101654,-1.7215424,4.043106,0.047973632999999995,-0.24794006,0.014572143999999999
9.337128,-1.8699799,4.7422028,-0.14697266,-0.13395691,-0.18888855
9.253342,-1.269043,4.8164215,-0.26841736,-0.041290283,-0.31777954
10.704224,0.33746338,3.976059,-0.325943,-0.19255066,-0.41578674
12.545364,1.0916443,2.3815307999999997,-0.40690613,-0.17018127,-0.38383484
12.940399000000001,0.710968,1.1006316999999999,-0.44525146,-0.0466156,-0.20593262
11.257278,0.6439209,0.48532104,-0.42181396,-0.008255005,-0.063186646
9.396988,0.8522185999999999,0.64334106,-0.34510803,-0.12863159,0.063583374
8.575775,1.1993866000000002,1.1173859,-0.24816895,-0.22344970000000003,0.100860596
9.021103,1.4387969999999999,0.79177856,-0.18638611,-0.18829346,0.09979248
8.161575,1.2592316000000001,0.37997437,-0.16401672,-0.13183594,0.06251526
7.572601299999999,0.15072632,0.3536377,-0.17680359,-0.05619812,0.046539307
7.227844,-0.6345824999999999,0.48532104,-0.18426514,-0.041290283,0.09979248
8.47522,-0.57951355,0.41827393,-0.24816895,-0.18508911,0.17329407
9.413742,0.03819275,-0.1563263,-0.33659363,-0.31399536,0.13494873
9.576553,0.56970215,-0.7836151,-0.3302002,-0.26286316,-0.022705077999999997
9.538239,0.7803955,-1.2792052999999999,-0.24816895,-0.13076782,-0.22723389
9.10968,0.95996094,-1.3582153000000001,-0.12567139,0.16218567,-0.37104797
8.254959,0.7516632,-1.6287688999999999,-0.008483886999999999,0.20904541,-0.30393982
7.7018889999999995,0.6678772,-2.1243591,0.19604492,0.329422,-0.228302
8.374664,1.9200439999999999,-1.2049866000000002,0.37713623,0.17070007,-0.43070984
10.483948,2.6502686,-0.12042236,0.5443878000000001,0.023696900000000003,-0.6043396
13.383331,0.45239258,0.88035583,0.4410553,0.0077209473,-0.4754486
12.440017999999998,-1.5755005,-0.13478088,0.31854248,-0.2554016,-0.43815613
11.491913,-1.3600159,-0.85543823,0.15875244,0.0002593994,-0.43496704
13.900482,-0.7878113,0.96894836,-0.039382935,0.36351013,-0.4243164000000001
14.731262,-0.07911682,0.90908813,-0.14804077,0.2239685,-0.48716736
11.082504,2.4132385,0.7798004,-0.15443420000000002,-0.059387207000000004,-0.5478821
8.93251,1.9679259999999998,2.5682678,-0.10649109,-0.15420532,-0.41046143
9.102492999999999,1.4435883,2.0870361,-0.036193848,-0.16592407,-0.08555603
9.645980999999999,1.2688141000000002,2.233078,-0.031921387,-0.16592407,0.23081970000000002
10.744919,0.3542328,3.0495148,-0.041519165,-0.19041443,0.378891
12.356216,0.0501709,3.0207825,0.025604248,-0.19787598,0.36079407
11.630783000000001,0.81391907,2.0343628000000002,0.09164429,-0.018920898000000002,0.21165466
9.313187,1.4411926000000002,1.4358215,0.15342712,0.08973694,0.02949524
8.503952,1.2185363999999999,1.1772461,0.2184143,0.0471344,-0.057861328
8.446487,0.3183136,0.7941741999999999,0.25782776,-0.008255005,-0.021636963
8.8702545,-0.14855957,0.7726288,0.23439026,0.07057189999999999,0.035888672
9.418533,-0.21798706,0.43504333,0.16621399,0.17495728,0.018844603999999997
9.1623535,-0.43824768,0.073516846,0.11508179,0.16218567,-0.037628174
8.503952,-0.07194519,0.26983643,0.094833374,0.14939879999999997,-0.06958008
8.096939,0.42126465,0.18843079,0.11294556,0.16963196,-0.098342896
8.487183,0.6223755,-0.55137634,0.110824585,0.18241882,-0.11431885
9.322769000000001,0.6439209,-1.0517578,0.099105835,0.0002593994,-0.044006348
9.516693,0.687027,-1.0589447,0.011749268,0.024765015,0.09660339
9.025879,0.8067321999999999,-1.0828857,-0.121414185,-0.038085938,0.24467468
8.436905,0.6223755,-1.2839966,-0.19491577,-0.10519409,0.34907532
8.223831,-0.23234558,-1.1307677999999999,-0.28120422,0.29107666,0.37251282
9.253342,-0.62979126,-0.31195068,-0.36854553,0.15898132,0.5344238
10.905334,0.52182007,-0.06295776,-0.36747742,0.0055847169999999995,0.5780945
11.32193,1.5872498,-0.25927734,-0.22686768,0.16004944,0.41725159999999994
11.101654,1.8242645,-1.2385101,0.0415802,-0.001876831,0.43748474
12.332275,1.5992126,-1.0972443,0.27806090000000006,0.23780823,0.61431885
12.614792,2.374939,0.6600951999999999,0.44850159999999994,0.39015198,0.72618103
12.672255999999999,2.3533936,0.96894836,0.44317627,0.24208069,0.6249695
12.17186,-0.42149353,1.8835297,0.29510498,-0.013595581,0.29154968
9.976379,-1.4893036,3.9736633,0.15982056,-0.15527344,-0.074905396
8.927719,-1.668869,4.3423767,0.050094604,-0.049804688,-0.24427795
8.987579,-0.9601898000000001,4.7445984,-0.031921387,0.07057189999999999,-0.31565857
10.491135,0.06213379,4.328018,-0.119277954,-0.04447937,-0.28582764
12.681824,0.20339966,2.8938904,-0.25137329999999997,-0.15739441,-0.22723389
13.225310999999998,0.07650757,1.7015686,-0.36003113,-0.0039978027,-0.1494751
11.350662,0.5337982,0.7726288,-0.40583800000000003,0.048202515,-0.039749146
9.78006,1.007843,0.7151642,-0.35896300000000003,-0.049804688,0.028427123999999998
8.2789,1.4675293,0.8276825000000001,-0.31208800000000003,-0.035964966,0.06037903
8.269318,1.9080658,0.6576996,-0.27693176,-0.03489685,0.114715576
8.458466,1.0964355,0.12139892599999999,-0.26416016,-0.08389282,0.124298096
7.776108,0.45239258,-0.096466064,-0.26948547,-0.09135437,0.15306091
7.814422599999999,-0.17967224,0.15969849,-0.28971863,-0.13609314,0.20100403
8.769699000000001,-0.21319580000000002,0.061538696,-0.31529236,-0.25646973,0.19140625
9.028275,0.33268738,-0.285614,-0.26416016,-0.3012085,0.11683655
9.203049,0.5242157000000001,-0.5250397,-0.17787170000000002,-0.29269409999999996,-0.009918213
9.147995,0.79237366,-0.9416199000000001,-0.058563232,-0.13076782,-0.18675232
8.769699000000001,0.7205353,-1.2648468000000002,0.08950806,0.20159912,-0.26985168
7.929336500000001,0.19381714,-1.6048278999999999,0.23652649,0.29640198,-0.28050232
7.764145,0.86180115,-1.4994812,0.30789185,0.3731079,-0.39448547
9.028275,2.0421448,-0.8171234,0.40803528,0.20159912,-0.6522826999999999
11.707397,1.3023376,-0.077316284,0.45489502,0.07482910000000001,-0.7545470999999999
13.380935999999998,-0.37361145,0.46855164,0.33772278,0.13768005,-0.65760803
12.523819,-1.0846863000000002,-0.58010864,0.25143433,-0.05833435,-0.58943176
13.179825,-0.8739929,-0.074920654,0.11187744,0.15898132,-0.47224426
14.089615,-0.9075165000000001,0.9857024999999999,-0.074539185,0.26231384,-0.35614014
12.382553,1.3166962,1.0455627,-0.1352539,-0.03489685,-0.3454895
9.763306,2.3605652000000004,2.4006805,-0.11076355,-0.16804504,-0.26239014
9.526276,1.2376862,3.8539581,-0.056427002000000004,-0.09774780000000001,-0.045074462999999995
10.230164,1.0126343,3.059082,-0.01701355,-0.026367188,0.20100403
10.550995,0.9934844999999999,2.8507842999999995,-0.0042266846,0.0055847169999999995,0.33947754
11.063354499999999,0.7732085999999999,2.944168,0.057556152,0.021560668999999998,0.35865784
11.8701935,1.1491089,2.3025208,0.19711304,-0.05833435,0.32775879999999996
10.831116,1.276001,1.6536865,0.27487183,-0.016784668,0.16264343
9.095322,1.276001,1.4453888000000001,0.32174683,0.006652831999999999,-0.01737976
8.863083,0.4332428,1.2993469,0.3387909,-0.035964966,-0.07916260000000001
8.420150999999999,-0.2993927,1.2466736,0.3110962,-0.090286255,-0.02909851
7.764145,-0.41670227,1.347229,0.21308899,0.01411438,0.032684326
8.329178,-0.30895996,1.0431671,0.1161499,0.18562317,0.016708373999999998
8.530289,-0.46218872,0.46617126,0.07778931,0.29640198,-0.028030396000000003
8.446487,-0.253891,0.35603333,0.08206177,0.1302185,-0.0834198
8.55423,0.6941986,0.2052002,0.1161499,-0.20747375,-0.13668823
9.20784,1.0605163999999998,-0.46757507,0.110824585,-0.26498413,-0.13989258
9.820755,0.95277405,-1.0589447,0.044769287000000005,-0.12437439,-0.046142578
9.555008,0.5888671999999999,-0.7524871999999999,-0.10223389,-0.055130005,0.13601685
8.511139,0.31352234,-0.1850586,-0.20343018,-0.42797852,0.31178284
7.615707400000001,0.0070648193000000005,-0.5106659,-0.2875824,-0.34701538,0.45240784
8.096939,-0.9003296000000001,-1.4515991000000001,-0.39411926,0.14300537,0.5099182
10.369034,-0.6944275,-0.5417938,-0.40263367,-0.029571532999999997,0.6313629
11.652328500000001,0.7995453,0.6505126999999999,-0.18106079,0.0087890625,0.5567932
10.725769,1.754837,-0.10125732400000001,0.16407776,0.07376099,0.49075317
10.723372999999999,2.2576141,-2.0692901999999997,0.5571594,0.006652831999999999,0.5791626
12.653107,1.9463806000000001,-1.5904541,0.7712859999999999,0.10784912,0.6824951
13.182220000000001,1.9391937,0.82051086,0.7648925999999999,-0.048736572,0.5749054
12.904494999999999,-0.22994995,2.7478333,0.515625,-0.27137756,0.28195190000000003
10.694641,-2.0279999,4.354355,0.19497679999999998,-0.35020447,-0.057861328
8.851105,-1.7814026,5.3072357000000006,-0.08200073,-0.20640564,-0.24960327
8.867874,-1.5419768999999999,4.682358,-0.22367859,-0.12330627400000001,-0.33909607
10.838303,-0.12939453,3.9353637999999997,-0.23432922,-0.14674377,-0.36039734
13.124756,1.4124603,2.3575897,-0.23007202,-0.078567505,-0.2506714
13.397689999999999,1.8697662,0.7079773,-0.24072266,0.031158447000000002,-0.072769165
11.467972,2.070877,-0.15153503,-0.20770264,0.07376099,0.035888672
10.122437,1.8099060000000002,0.44461059999999997,-0.16827393,0.030090332,0.08381653
9.361069,1.2568358999999998,1.0000763000000001,-0.12034607,-0.07324219,0.09339905
8.922928,0.95277405,0.9138794,-0.12886047,-0.066848755,0.059310913
8.235794,0.5242157000000001,0.49967957,-0.18638611,0.0055847169999999995,0.027359009
7.8000490000000005,-0.28262329999999997,0.43025208,-0.24604797,0.071640015,0.04121399
7.699493400000001,-0.38078308,0.33926392,-0.28546143,0.08654785,0.12536621
8.480011,0.0046691895,0.27941895,-0.3547058,0.0002593994,0.21804810000000002
9.509506,0.52182007,-0.21858215,-0.41967773,-0.17018127,0.20205688
9.490356,1.0126343,-0.95599365,-0.4005127,-0.2266388,0.05718994
9.174332000000001,1.0533295,-1.2959747,-0.32061768,-0.12118530000000001,-0.14094543
8.700272,1.0461578,-1.463562,-0.10542297,0.19520569,-0.33909607
8.132843,0.924057,-1.6862183000000002,0.12573242,0.3720398,-0.37957764
7.7114716,0.69659424,-1.9040985000000001,0.44424438,0.43914795,-0.49674988
8.231003,1.6303406,-1.0685120000000001,0.6264038000000001,0.16218567,-0.6554718
9.794417999999999,2.034958,-0.9081116,0.6700897,0.08229065,-0.5436249
12.698592999999999,0.48831177,0.6289673000000001,0.43466187,0.06736755,-0.30393982
13.160675,-1.3839569,0.6170044,0.21520996,-0.21917725,-0.31565857
13.728104,-2.1046142999999997,0.5044708,0.0181427,0.13128662,-0.41471863
15.380096,-2.6241608,1.3137054,-0.11714172,0.43807983,-0.5223236
13.170242000000002,-0.28981018,-0.67826843,-0.16508484,0.31451416,-0.59368896
8.977997,3.9359589,-0.25209045,-0.16401672,0.03755188,-0.5265808000000001
8.415359500000001,3.5002136,1.4669341999999999,-0.109695435,-0.115859985,-0.31245422
10.261291499999999,2.2432556,1.6129913,-0.06600952,-0.22024536,-0.025909424
11.367416,0.60801697,2.762207,-0.057495117000000005,-0.18829346,0.24574279999999998
11.3051605,-0.69921875,3.4948273000000003,-0.08200073,-0.008255005,0.34693909999999994
10.802383,-0.3784027,3.1740112000000003,-0.056427002000000004,-0.0039978027,0.32882690000000003
9.830338000000001,0.7732085999999999,2.4916534,0.026657103999999997,-0.013595581,0.29367065
9.317978,1.378952,1.9745177999999999,0.09271239999999999,0.069503784,0.21804810000000002
9.349105999999999,1.5752716,1.2730103000000002,0.16621399,0.040740967,0.06997681
9.351500999999999,0.9168700999999999,0.59306335,0.2184143,-0.1296997,-0.05999756
8.851105,0.10762024,0.66249084,0.21308899,-0.2000122,-0.06958008
8.472824000000001,-0.34487915,0.7151642,0.12466431,-0.092422485,-0.035491943
8.305237,-0.41430664,0.2339325,0.022399902000000003,0.03755188,-0.016311646000000003
8.130447,-0.5603484999999999,0.035202026000000004,-0.036193848,0.059921265,-0.007797241
8.04187,-0.19165039,0.119003296,-0.02659607,0.0077209473,-0.04081726
8.381851,0.49069214,-0.13717651,0.023468017999999997,-0.02104187,-0.08981323
9.054611,0.7947693,-1.0373993000000001,0.0074920654,-0.11798096,-0.012054443
9.332336,0.81391907,-1.6790466,-0.1586914,0.06629944,0.1477356
8.994766,0.87138367,-1.4683533000000002,-0.28225708,0.095062256,0.22337341
8.448883,0.6463165,-1.1427459999999998,-0.23326111,-0.26925659999999996,0.25
8.108902,-0.20361328,-1.1738586000000002,-0.27267456,-0.10839844,0.36505127
9.140808,-0.9721527,-0.9248656999999999,-0.36535645,0.04925537,0.56851196
11.693024000000001,-0.28981018,-0.285614,-0.3270111,-0.059387207000000004,0.63243103
12.56691,0.6750488,0.5236206,-0.17573547,0.11956787,0.4534607
11.092087,1.4842986999999999,-0.106048584,0.042648315,0.040740967,0.42150879999999996
11.247711,1.4244385,-1.6143951,0.3110962,0.095062256,0.52163696
12.691406,1.1682587,-0.58488464,0.45170593,0.29321290000000005,0.6175232
13.445587,1.5561218,1.0240173000000001,0.45703125,0.2239685,0.59194946
12.794357000000002,-0.47416687,1.8188933999999997,0.28233337,0.010910033999999999,0.40660095
10.323547,-1.9968720000000002,3.4206084999999997,0.075668335,-0.080703735,0.14880371
8.961243,-1.5347899999999999,4.4764557,-0.095840454,-0.033828735,-0.084487915
8.633239999999999,-1.2881927,3.873108,-0.19384766,0.040740967,-0.23895264
10.189468,0.06213379,3.9880370000000003,-0.21728516,0.10040283,-0.29968262
12.578888000000001,1.2951508,2.8364257999999998,-0.27693176,-0.059387207000000004,-0.26132202
13.064896000000001,1.3334656,1.2586517,-0.40263367,0.0055847169999999995,-0.11325073
11.7313385,0.9862976000000001,0.49011229999999995,-0.46548462,0.17176819,-0.033355712999999995
10.598877,1.0054474,0.545166,-0.4644165,0.14300537,0.008178711
8.956451,1.117981,0.5786896,-0.41967773,-0.02104187,0.035888672
8.302841,1.2113495,0.5164489999999999,-0.43885803,-0.050872803,0.059310913
8.226227,1.627945,0.24349976,-0.45271300000000003,-0.053009033,-0.006729125999999999
8.135239,0.7157593000000001,-0.25209045,-0.41648865,-0.0008087158,-0.02909851
7.756958,-0.25868225,-0.005493164,-0.39198303,0.069503784,0.046539307
7.9963837,-0.39515686,0.27941895,-0.372818,-0.0072021483999999995,0.091278076
8.489578,0.13395691,-0.18266296,-0.24284363,-0.07005310000000001,0.016708373999999998
9.085739,0.52182007,-0.82910156,-0.12886047,-0.12118530000000001,-0.10153198
9.396988,0.59843445,-1.2768097,0.058624268,0.06311035,-0.25387573
8.989975,0.41647340000000005,-1.4779205,0.18644714,0.28894043,-0.27304077
8.216644,0.11959839,-1.6646729,0.36434937,0.28681946,-0.31672668
8.168762,0.6391449,-0.68544006,0.5209503,0.24847412,-0.5063324
9.217422500000001,1.493866,0.123794556,0.5795288000000001,0.18028260000000002,-0.659729
11.683456,1.1754456,1.0862578999999999,0.6168213,0.20585632,-0.57450867
12.681824,-0.20361328,1.2059784,0.5656891,-0.11904907,-0.43815613
12.243698,-1.1086273000000002,0.20999146,0.5209503,0.04499817,-0.37637329999999997
14.166229000000001,-1.0607452,1.2155457,0.42933655,0.39866638,-0.4232483
15.772751000000001,-1.5946503,0.99768066,0.3515625,0.36138916,-0.5244446
13.246857,0.5744934,1.2155457,0.24078369,0.16430664,-0.48609924
9.722595,2.0636902,2.173233,0.18218994,0.03755188,-0.33270264
8.436905,2.750824,2.4892578,0.15235901,-0.019973755,-0.11857605
9.363464,1.5920258,3.2817383,0.11294556,0.0055847169999999995,0.10939026
10.922089,-0.12460327,3.695938,0.073532104,-0.031692505,0.22230529999999998
11.398544000000001,0.12438965,3.3104706,0.10975647,-0.013595581,0.19673157
10.668304,1.1921997,2.690384,0.19923401,-0.029571532999999997,0.16584778
9.418533,1.6087951999999999,1.8859253,0.25782776,-0.11691284,0.098739624
8.39621,1.4316254,1.4190521,0.29830933,-0.09135437,-0.046142578
8.195099,0.88334656,1.2323151,0.35688782,-0.08496094,-0.12284851
8.113693,0.09565735,1.2059784,0.3707428,-0.15100098,-0.12284851
7.721039,-0.20600891,1.1485138000000001,0.30789185,-0.19255066,-0.072769165
8.04187,-0.08630371,1.2059784,0.20243835,-0.09135437,-0.024841309
8.604507,-0.23474121,0.8731841999999999,0.08418274,0.08973694,-0.022705077999999997
8.39621,0.1986084,0.66249084,0.02986145,0.153656,-0.072769165
8.6284485,0.5314026,0.43983459999999996,0.024536132999999998,0.05885315,-0.11325073
9.1623535,0.6535034000000001,-0.43165588,0.03944397,-0.08177185,-0.12710571
9.76091,1.0365753,-1.2097778000000001,0.059692382999999995,-0.22770691,-0.031234741
10.132004,1.3454285,-1.4396209999999998,-0.076660156,-0.07643127400000001,0.15945435
9.693863,1.1850128,-1.2672424,-0.24072266,-0.16378784,0.35972595
8.740982,0.4045105,-1.1762542999999999,-0.41542053,-0.027435302999999998,0.45452879999999996
8.714644999999999,-1.024826,-0.91290283,-0.6359253,0.21543884,0.5333557
10.041031,-0.81892395,-0.2928009,-0.661499,-0.14994812,0.66545105
11.135178,0.9958800999999999,-0.15393066,-0.48252870000000003,0.009841919000000001,0.59620667
10.725769,2.046936,-0.76205444,-0.24497986,0.19413757,0.5536041
11.410507,2.391693,-1.5162354,0.024536132999999998,0.200531,0.6217804
13.093628,2.2671967,-0.50827026,0.12998962,0.30386353,0.7325592
13.091232000000002,3.3086699999999998,1.2394867,0.11401367,0.19520569,0.7240448
12.047363,0.94799805,1.1030273000000002,-0.02659607,0.024765015,0.47903442
9.85907,-2.3200988999999996,2.0367584,-0.18638611,-0.038085938,0.046539307
8.515915,-3.0479279,3.9856415000000003,-0.29718018,-0.028503418,-0.30500793
8.563797000000001,-2.0327911,4.591369599999999,-0.3312683,-0.0008087158,-0.47438050000000004
10.649155,0.5960388000000001,4.7086945,-0.31208800000000003,-0.025299072000000002,-0.43603516
13.447982999999999,1.9296112,3.5163727,-0.3547058,-0.023178099999999997,-0.2794342
13.740067000000002,0.6247710999999999,1.6632689999999999,-0.43992615,-0.057266235,-0.15586853
11.839066,-0.40711975,1.1125946000000002,-0.50917053,0.029022217000000003,-0.057861328
10.404938000000001,0.016647339,1.0958405,-0.50917053,0.12489319,0.006057739300000001
9.301224000000001,0.7516632,1.2754059,-0.46975708,0.1451416,0.05718994
7.9485016,1.1036072000000001,0.8372649999999999,-0.4047699,-0.008255005,0.06465149
7.677948,1.3095093,0.5882721,-0.34405518,-0.08815002400000001,0.04866028
7.768936,1.0724945,0.34165955,-0.33659363,-0.05619812,0.05718994
8.058624,0.20339966,0.41110230000000003,-0.36642456,-0.19255066,0.10832214
7.9413146999999995,-0.14137268,0.52601624,-0.41542053,-0.3289032,0.15092468
8.075394000000001,-0.02166748,0.54278564,-0.40156555,-0.32250977,0.06890869
8.757736,0.23451233,0.12139892599999999,-0.34831238,-0.34062195,-0.12390137
9.358673,0.42605590000000004,-0.40771484,-0.24391174,-0.1563263,-0.28263855
8.635635,0.4116974,-0.81951904,-0.07347107,0.09826660000000001,-0.28050232
7.776108,0.43803406,-1.2193604,0.13426208,0.22929382,-0.25280762
8.144821,1.2305145,-0.8123474,0.34944153,0.26870728,-0.43603516
9.559799,2.1403046000000003,0.07591247599999999,0.5614319000000001,0.023696900000000003,-0.7481536999999999
12.061736999999999,0.87615967,0.29377747,0.6349335,0.016235351999999998,-0.7939606
12.942795,-0.83569336,0.49728394,0.6551666,-0.12011719,-0.7162018
11.853439,-1.4390258999999999,-0.83628845,0.5720824999999999,-0.13290405,-0.6746521
13.074478,-0.9984894,0.71995544,0.33026123,0.13235474,-0.58303833
15.368117999999999,-1.4414215,2.1636505,0.06820679,0.08868408,-0.48716736
12.803939999999999,0.20100403,2.046341,-0.04257202,-0.15206909,-0.3859558
9.528671000000001,0.9862976000000001,3.3846893,0.02027893,-0.27883909999999995,-0.20700073
8.561417,1.0269928,3.1500702,0.12680054,-0.35766602,0.065704346
8.915756,2.3294525,3.059082,0.13212585,-0.25860596,0.33096313
10.536621,2.0660858,3.2434387000000005,0.09057617,-0.21598816,0.36079407
12.05455,0.95277405,2.987259,0.122543335,-0.33743286,0.30326843
11.690628,0.5266113,2.4820862,0.19497679999999998,-0.28630066,0.22444153
10.0961,0.766037,1.8619843,0.2184143,-0.0061340330000000005,0.10618591
8.769699000000001,1.1610718,0.9904938,0.19711304,0.17602539,0.047607422
8.350723,0.49787903,0.5738983,0.13212585,0.17390442,0.019897461
7.9915924,-0.25151062,0.3751831,0.047973632999999995,0.10572815,0.003921509
8.772095,0.014251709,0.35603333,-0.0074310303000000005,0.11317444,0.0071258545
9.607681,-0.16770935,-0.060562134000000004,-0.025527954,0.21543884,0.009246826
8.817596,0.27522278,-0.39575195,-0.008483886999999999,0.36351013,-0.058929443
8.183121,1.1706543,-0.37181090000000006,0.073532104,0.38801575,-0.12071228
8.180725,1.2592316000000001,-0.6591034,0.12680054,0.34114075,-0.16651917
8.882233,0.91926575,-0.9392395,0.20455933,0.054595947,-0.18995667
9.519089,0.6032257,-1.1858368000000001,0.15768433,-0.102005005,-0.008865356
9.624435,0.23690796,-1.2241364,-0.058563232,-0.10839844,0.29473877
8.750549000000001,0.16029358,-0.83628845,-0.2566986,-0.11053467,0.55892944
8.04187,-0.22517395,-0.6974182,-0.56669617,0.17922974,0.76239014
8.805617999999999,-1.0128632,-0.19464111,-0.74671936,0.040740967,0.9051360999999999
10.443253,-0.13897705,-0.38137817,-0.6135559,0.022628784,0.74108887
11.728943,1.3621826000000001,-0.41011047,-0.36003113,0.29321290000000005,0.55892944
11.807953,2.4060669999999997,-0.9727478,0.096969604,0.21543884,0.5770416
12.4591675,2.4802855999999998,-1.2049866000000002,0.28126526,0.2601776,0.7517395
13.723312,3.4259949,1.1940002,0.31428528,0.08868408,0.76664734
13.076874,2.0062256,2.2163239,0.22373962,-0.07110596,0.5056609999999999
9.952438,-2.2434845,2.0487366000000002,0.047973632999999995,-0.050872803,0.05293274
8.192703,-2.894699,4.524337999999999,-0.09690857,-0.060455322,-0.30500793
8.274109,-2.609787,4.4932099999999995,-0.121414185,-0.053009033,-0.4701233
11.688232000000001,-0.7231598000000001,4.8547363,-0.07772827,-0.047683715999999994,-0.37530518
15.1909485,1.5848541,3.9090269999999996,-0.0798645,-0.019973755,-0.15054321
14.417632999999999,1.8099060000000002,1.7279053,-0.12992859,-0.104141235,-0.039749146
10.974762,0.95996094,0.95936584,-0.17573547,0.042877197,-0.006729125999999999
9.768082000000001,0.54815674,1.4429931999999999,-0.19171143,0.1770935,0.023101807000000002
8.95166,0.4116974,1.5028534,-0.20770264,0.0045166016,0.026290894
7.728225699999999,0.67744446,1.0623169,-0.26734924,-0.08177185,0.07423401
7.5175323,0.6511078,0.56433105,-0.30143738,-0.057266235,0.09767151
8.049057000000001,0.3470459,0.6002350000000001,-0.28971863,-0.045547485,0.063583374
7.474441499999999,-0.19165039,0.36082458,-0.26521300000000003,-0.045547485,0.063583374
7.4911957,0.15312195,0.6361541999999999,-0.27160645,-0.115859985,0.08807373
7.914978,0.95996094,0.24829102,-0.27693176,-0.1563263,0.040145874
8.681122,1.0198212,-0.25927734,-0.27160645,-0.20959473,-0.09194946
9.521484,0.6535034000000001,-0.661499,-0.14697266,-0.05406189,-0.30393982
9.203049,0.35902405,-1.226532,0.022399902000000003,0.19839478,-0.43922424
8.424942,0.011856078999999999,-1.5832671999999999,0.23652649,0.35073853,-0.48503113
8.240585000000001,0.69898987,-1.0397949,0.5188141,0.41996765,-0.59368896
9.054611,1.8625793000000002,-0.23294067,0.7254791,0.17070007,-0.7023468
11.649933,1.6878052,0.5906677,0.80111694,0.10572815,-0.6980896
13.507828,0.16268921,1.2323151,0.7276001,-0.16485596,-0.63842773
12.418472,-1.2451018999999999,-0.21618652,0.57740784,-0.18296814,-0.5766449
13.433608999999999,-1.5922546,1.0168304,0.30895996,0.036483765,-0.48928833
14.412842000000001,-1.9944762999999999,2.1660461,0.06074524,0.013046265,-0.41471863
11.81752,0.4045105,2.5299682999999997,-0.09158325,-0.07110596,-0.28582764
9.073775999999999,1.8075104,4.0215607,-0.048965454000000005,-0.19148254,-0.08555603
8.523102,1.4004974,3.5259552000000003,0.042648315,-0.20640564,0.17329407
9.753722999999999,2.0852356,3.4325867,0.042648315,-0.06259155,0.38848877
11.75528,2.0301666000000003,3.4086304,0.036254882999999995,-0.053009033,0.42790222
12.277206,1.2927551000000002,2.6472778,0.10443115,-0.09347534,0.35865784
10.86702,0.69898987,2.4485626,0.19497679999999998,-0.049804688,0.28089905
9.564575,0.9360199,2.0032349,0.2769928,-0.0466156,0.14880371
9.12883,0.7444916,1.2251282,0.3153534,-0.08815002400000001,0.010314941
8.970825,0.22015381,1.2059784,0.32067870000000004,-0.113723755,-0.035491943
8.405792,-0.31614685,1.189209,0.28445435,-0.0146484375,-0.0045928955
7.926941,-0.3041687,1.105423,0.22267151,0.08015442,0.03907776
8.250167999999999,-0.4190979,0.90908813,0.19816589999999998,0.12382507,0.03907776
8.772095,-0.50289917,0.57629395,0.20669556,0.13768005,-0.056793212999999995
8.523102,0.25846863,0.25308228,0.25675964,-0.017852783,-0.15905762
8.547042999999999,0.8570099,-0.09408569,0.31961059999999997,-0.26393127,-0.17398071
8.772095,0.80433655,-0.64234924,0.28659058,-0.36938477,-0.035491943
9.380234,0.3973236,-0.62080383,0.026657103999999997,-0.11053467,0.23614502
9.804001,-0.00010681152,-0.60165405,-0.20982361,-0.18722534,0.47157288
9.021103,-0.16770935,-0.8386688,-0.28225708,-0.21812439,0.49075317
7.843155,-0.6561279000000001,-1.3725891000000001,-0.40156555,0.18135071,0.49287415
8.683517,-0.79977417,-1.5353851,-0.36854553,0.07482910000000001,0.62390137
11.180664,0.82110596,-0.34786987,-0.15122986,0.017303467,0.648407
11.491913,1.8769379000000002,-0.06774902,0.12573242,0.15472412,0.6505432
10.658737,2.0660858,-1.8562164,0.41122437,0.21757507,0.7847595
11.83429,1.4747162,-1.8274841,0.5987091,0.23568726,0.91152954
13.311507999999998,1.7787781000000003,1.3065338,0.71269226,0.036483765,0.80607605
12.322708,0.09805298,2.9178314,0.65304565,-0.09135437,0.4768982
9.638794,-1.7454834,3.4469452000000005,0.50497437,-0.15953064,0.06890869
8.444092,-1.6209869,4.416595500000001,0.32067870000000004,-0.12651062,-0.24108887
9.880614999999999,-1.0032806,5.1252747,0.22267151,0.04925537,-0.40727234
12.880554,0.37817383,5.158798,0.21948242,0.12702942,-0.43389893
14.748032,1.1610718,3.6528473,0.21734619,0.05671692,-0.37850952
13.656265,1.220932,1.8955078,0.15130615,0.13235474,-0.2240448
11.649933,1.0293884,0.82528687,0.09271239999999999,0.21438599,-0.01737976
10.419312,0.80433655,0.6672821,0.08206177,0.11531067,0.15412903
8.903777999999999,0.75645447,0.7798004,0.10229492,-0.048736572,0.16371155
8.108902,0.6247710999999999,0.7798004,0.06820679,-0.013595581,0.079559326
7.598938,0.79714966,0.20040894,0.057556152,-0.0072021483999999995,0.016708373999999998
7.156006,0.335083,0.071121216,0.09803772,-0.059387207000000004,0.014572143999999999
6.8495482999999995,0.20817566,0.27462770000000003,0.1161499,-0.102005005,0.08595276
7.823989999999999,0.10284424,0.37039185,0.08099365,-0.11904907,0.18075562
9.100098,0.46435547,-0.19941711,0.059692382999999995,-0.048736572,0.19247437
9.514297500000001,0.59843445,-0.7046051,0.026657103999999997,-0.10626221,0.067840576
9.253342,0.39971924,-0.96318054,0.042648315,0.12382507,-0.07383728
8.314803999999999,0.26564026,-1.5497589,0.07992554,0.20585632,-0.056793212999999995
7.522323599999999,0.32789612,-2.0166168,0.14596558,0.24208069,-0.035491943
8.084961,1.5656891000000002,-0.95599365,0.30682373,0.20692444,-0.26878357
10.819138,2.3222656,0.64572144,0.5443878000000001,-0.10839844,-0.6032715
13.467132999999999,0.789978,1.3304749,0.6786041,0.046066284000000006,-0.55641174
12.440017999999998,-0.40951538,0.116607666,0.7893982,0.024765015,-0.39341736
10.895752,-0.35923767,-1.0685120000000001,0.8405304,-0.017852783,-0.38383484
13.136733999999999,0.35183716,0.83966064,0.7947234999999999,0.3773651,-0.40087890000000004
15.222076000000001,-0.26826477,1.536377,0.70310974,0.39015198,-0.39341736
12.3250885,0.57688904,0.55714417,0.6360016,0.23036194,-0.35932922
9.337128,0.70617676,2.1373138,0.644516,0.11317444,-0.21125793
8.580566000000001,0.56492615,2.8914948,0.72654724,0.12063599,0.089141846
8.843933,1.2257233,2.896286,0.76275635,0.16430664,0.4033966
10.23735,1.0533295,3.9114226999999997,0.7787323,0.11956787,0.5567932
11.927658000000001,0.74209595,3.727066,0.8266754000000001,0.17816162,0.5237732
11.709778,0.770813,2.7262877999999997,0.9055023000000001,0.17922974,0.4534607
9.950042999999999,1.0700988999999999,2.2785797000000003,0.9736786000000001,0.16751099,0.38209534
8.808014,1.1850128,2.070282,1.1110992,0.081222534,0.28302002
9.030669999999999,0.3542328,1.6752319,1.2250823999999998,0.20372010000000002,0.24148560000000002
9.241364,-0.38078308,1.1868134,1.2421265,0.24952698,0.18075562
8.733794999999999,-0.2778473,0.8013458000000001,1.2091063999999998,0.23887634,0.1285553
8.2573395,-0.16531372,0.47094727,1.2176361,0.23461914,0.102996826
8.621262,-0.7542876999999999,0.35842896,1.2644958,0.11105347,0.09020996
8.855896000000001,-0.5819092,0.032806396,1.3422698999999998,-0.025299072000000002,0.065704346
9.042648,0.22494507,-0.24731445,1.4083099,-0.13076782,0.10832214
9.167145,0.37817383,-0.4915161,1.2485198999999998,-0.21598816,0.28195190000000003
9.059402,0.48831177,-0.5106659,0.9055023000000001,-0.37258909999999995,0.45240784
8.480011,0.31591797,-0.22097778,0.5933838,-0.4226532,0.45452879999999996
7.7976529999999995,-0.11982727,-0.32870483,0.36541748,-0.24156189,0.34693909999999994
7.4864197,-0.9697571,-0.98472595,0.16835022,-0.16592407,0.34480286
9.013916,-1.4150848,-0.8506469999999999,0.118270874,-0.3331604,0.5301666
10.843079,-0.42868042,-0.18266296,0.36541748,-0.08815002400000001,0.5237732
11.415298,1.4747162,-0.9727478,0.77767944,0.19413757,0.51737976
11.57811,2.39888,-2.138733,1.1206969999999998,0.24313354,0.70274353
12.363403,2.1043854,-0.80755615,1.2570496000000002,0.13661194,0.8039398
13.239685,1.9894714,0.7798004,1.2218933,-0.06365967,0.5610504
13.285171499999999,0.15551758,1.9385986000000002,1.1004486,-0.2032013,0.08062744
11.127991,-1.6353455,3.40625,0.9427948,-0.14994812,-0.28582764
9.260513000000001,-0.9865265,4.8547363,0.79045105,0.05885315,-0.4051361
9.533463000000001,0.38536072,4.536300700000001,0.7158966,0.062042235999999994,-0.42004395
12.23172,0.87615967,3.4325867,0.644516,0.24313354,-0.29541016
14.606766,1.4004974,2.4748992999999997,0.5933838,0.32090759999999996,-0.10473633
13.869354000000001,2.1163635,1.0958405,0.53692627,0.25805664,0.0028533936
11.113632,2.1714325,0.5786896,0.45809937,0.29747009999999996,0.047607422
10.129608000000001,1.8817291,1.0814667,0.38992309999999997,0.29960632,0.07209778
9.689072,1.4627379999999999,0.7965698,0.30789185,0.14726257,0.09234619
8.12088,1.0557251,0.7103729,0.17793274,0.1302185,0.053985596
7.4505005,0.43803406,0.86839294,0.05116272,0.1174469,-0.009918213
7.582184,0.20817566,0.67445374,-0.031921387,0.03967285,-0.030166626000000002
7.4888,0.5601349,0.6648864999999999,-0.072402954,-0.07110596,0.023101807000000002
7.8503264999999995,1.0102386,0.68403625,-0.123535156,-0.22984314,0.122161865
8.946869,1.5273895,0.25787354,-0.084121704,-0.3523407,0.10406494
9.408951,1.5441437,-0.23294067,0.09057617,-0.24049377,-0.056793212999999995
8.915756,1.1562805,-0.5968628,0.3515625,0.006652831999999999,-0.16758728
8.221436,0.87376404,-0.9942931999999999,0.5379944000000001,0.051391599999999996,-0.08129883
7.7114716,0.473938,-1.2576599,0.70843506,0.03967285,-0.07064819
8.195099,0.43803406,-1.2768097,0.82987976,0.106781006,-0.28369140000000004
10.297211,1.0509491000000002,-0.18266296,0.95344543,0.06097412,-0.4701233
12.784775,0.3757782,1.2299194,0.9694214,0.30493164,-0.4285736
13.009841999999999,-1.2139739999999999,1.0695038000000001,1.0354614,0.13661194,-0.5212555
11.997086,-1.5060577,-0.50349426,1.1238861,0.095062256,-0.64482117
13.342635999999999,-0.2634735,0.16448975,1.0258789000000001,0.3027954,-0.56492615
13.732879999999998,0.5601349,0.30096436,0.9236145,0.10891724,-0.44561768
10.701827999999999,1.5058441,0.49967957,0.8543700999999999,-0.033828735,-0.31352234
8.293258999999999,1.1850128,2.6999512,0.8778075999999999,-0.013595581,-0.10899353
8.997162,0.9791107,4.232239,0.95344543,-0.001876831,0.15306091
10.596480999999999,0.9934844999999999,3.9712677000000003,0.9662323,0.08015442,0.31498718
11.183060000000001,1.0461578,4.1628112999999995,1.0077667,0.07908630000000001,0.36505127
10.419312,1.627945,2.9800720000000003,1.1004486,0.08547974,0.38955688
10.268478,1.7285004000000002,2.1564636000000004,1.1622313999999998,0.11105347,0.38102722
10.479172,1.5465393,1.9864807,1.155838,0.16963196,0.2926178
10.424103,1.0772858,1.505249,1.1164246000000002,0.11105347,0.25639343
9.708236999999999,0.32310486,1.5124358999999998,1.0535736,0.022628784,0.25213623
8.891815,-0.25868225,1.3137054,0.9427948,0.06097412,0.1796875
8.582962,-0.11024475,1.0718994,0.80963135,0.12063599,0.10192871
8.661972,0.24649048,0.7438965,0.6945800999999999,0.13661194,0.049728394
8.365082000000001,0.46914673,0.6505126999999999,0.6189574999999999,0.038604736,-0.047210693
8.472824000000001,0.64871216,0.41110230000000003,0.6082916,-0.08177185,-0.16438293
9.068985000000001,0.6247710999999999,-0.25927734,0.5923156999999999,-0.09774780000000001,-0.20700073
9.119263,0.89053345,-0.6950225999999999,0.53692627,-0.27670288,-0.10153198
8.736191,0.95277405,-0.7740326,0.39736938,-0.43223572,0.14666748
8.640411,0.69898987,-0.72854614,0.15768433,-0.3289032,0.3565216
8.630844,0.50027466,-0.8817749,0.021331787,-0.104141235,0.3565216
8.587753,-0.32572937,-1.2863921999999999,-0.052169799999999995,0.23143005,0.20951843
9.12883,-1.3791656,-1.0469666,-0.11288452,-0.0466156,0.28515625
10.61084,0.14833069,-0.35983276,-0.045776367000000005,-0.30227659999999995,0.44387817
11.386566,1.92482,-1.0493622,0.16195679,0.038604736,0.47157288
11.515854,1.8913116,-2.1267548,0.46554565,0.36457825,0.6217804
12.416077,1.1754456,-1.1954193000000002,0.6967163000000001,0.50520325,0.8529358
12.947586,2.2121277000000004,1.2849883999999998,0.77767944,0.2559204,0.8966216999999999
12.267638999999999,2.509018,1.7590331999999997,0.6306609999999999,0.013046265,0.61325073
11.142364500000001,-0.14855957,1.6728363000000002,0.41654968,-0.10946655,0.10406494
9.535843,-1.6593018,3.2937163999999997,0.23652649,0.0023956299,-0.26985168
8.671539,-1.7167511000000002,5.027115,0.13745117,0.015167236,-0.45413208
9.973984,0.026229857999999998,5.443710299999999,0.18432617,-0.040222167999999996,-0.530838
13.21814,1.6925811999999998,3.9449463,0.23971558,0.0471344,-0.4520111
15.186172500000001,1.8027191000000002,2.2450562,0.23013306,0.051391599999999996,-0.23150635
12.784775,0.8522185999999999,0.892334,0.14064026,0.104660034,0.023101807000000002
9.717804,0.5936431999999999,0.9138794,0.07992554,0.10998535,0.124298096
9.147995,0.7588501,1.5531311,0.06713867,-0.025299072000000002,0.08169556
9.112076,0.7516632,1.2801971,0.059692382999999995,-0.08815002400000001,0.028427123999999998
8.118484500000001,0.61520386,0.7175598000000001,0.050094604,-0.05833435,0.01777649
7.1416473,0.5720978,0.35124207,0.028793335,-0.05619812,0.032684326
6.768158000000001,0.39253235,0.33926392,-0.0042266846,0.023696900000000003,0.09553528
7.100952,0.16748047,0.5332031,-0.062820435,0.09826660000000001,0.19247437
8.080169999999999,0.46914673,0.39433290000000004,-0.18106079,0.03755188,0.26385498
8.898987,0.9216614,0.008865356,-0.30143738,-0.11265564,0.22763062
9.32756,0.7612456999999999,-0.5250397,-0.29292297,-0.21279907,0.0028533936
9.291641,0.43803406,-1.0517578,-0.072402954,-0.043411255,-0.29541016
8.606902999999999,0.631958,-1.2480774,0.19711304,0.026885986,-0.44348145
8.015533,0.90489197,-1.1020355,0.5486449999999999,0.092941284,-0.56066895
8.333953999999999,1.2281189,-0.8027649,0.85757446,0.19520569,-0.6991576999999999
10.323547,1.5561218,-0.19224548,0.9225464,0.057785034000000006,-0.6970215
13.074478,1.0653076000000001,1.2873688,0.9694214,0.16323853,-0.49781800000000004
13.617966000000001,-0.56993103,1.2299194,0.95983887,-0.11904907,-0.40087890000000004
13.151093,-1.4462128,-0.06295776,0.8692931999999999,-0.07963562,-0.50953674
14.4272,-0.4885254,0.6098175,0.7478484999999999,0.16644287,-0.5755768
14.408051,-0.86680603,0.9833069,0.56781006,0.0023956299,-0.43815613
10.507889,0.7732085999999999,1.6105957,0.45916748,-0.13928223,-0.228302
7.8575134,1.8218689,3.1500702,0.43785095,-0.15846252,0.0071258545
8.530289,1.3502197,2.8220520000000002,0.421875,-0.21598816,0.25746155
10.021866000000001,1.8937073,3.4613037,0.35902405,-0.15527344,0.44601440000000003
10.979553,1.4459839,3.6743927000000003,0.3164215,-0.11691284,0.49075317
11.451217999999999,1.007843,2.6975555,0.33984375,-0.14355469,0.3714447
10.290024,1.0677032,1.8212891,0.41122437,-0.22024536,0.18501282
9.698654,1.2281189,1.6776276,0.46554565,-0.07110596,0.019897461
9.205444,0.81391907,1.0479584000000002,0.49963379999999996,0.0471344,-0.05039978
8.647598,0.12438965,0.88035583,0.47087097,0.032211303999999996,-0.05999756
8.53508,-0.10784912,0.86120605,0.36328125,0.13342285,-0.072769165
9.028275,-0.3903656,0.96894836,0.2418518,0.18562317,-0.086624146
9.382614,-0.8213196,0.6720581,0.15342712,0.07908630000000001,-0.11431885
8.688309,-0.34727478,0.23153687,0.120407104,-0.07643127400000001,-0.15693665
8.544647,0.23213196,0.30096436,0.15982056,-0.17443848,-0.16119385
8.784073,0.6008300999999999,-0.12280273400000001,0.17047119,-0.080703735,-0.12284851
8.937302,0.7492675999999999,-0.44602966,0.16728210000000002,-0.34275818,0.0028533936
9.241364,0.52900696,-0.39575195,0.061813354,-0.33743286,0.13708496
9.057007,0.5816803,-0.41969300000000004,-0.15229797,-0.09667969,0.203125
8.111298,0.52900696,-1.226532,-0.37068176,0.03327942,0.24467468
8.14003,-0.9290619000000001,-1.4180756,-0.54644775,-0.008255005,0.42469788
10.139191,-1.1852417,0.111816406,-0.5027771,-0.16166687,0.5738373000000001
11.980331,1.062912,-0.019851685,-0.27053833,0.21650696,0.48754883
11.506271,1.5800629,-1.4372253000000001,0.12680054,0.18881226,0.55467224
11.309952000000001,2.0660858,-1.087677,0.42294312,0.247406,0.71339417
12.689011,3.1386871,0.5236206,0.51135254,0.11317444,0.76345825
12.202988000000001,2.1283263999999997,0.9282379000000001,0.41229248,-0.1765747,0.5940857
10.795197,-1.8053436,1.1724548000000001,0.22053528,-0.24049377,0.13282776
8.707458500000001,-2.7079619999999998,3.5163727,0.037322997999999996,-0.10839844,-0.28157043
8.544647,-2.1644745,4.8164215,-0.05429077,-0.061523438,-0.47331238
10.65155,-0.40951538,4.9888153,-0.07028198,-0.080703735,-0.50527954
13.993851000000001,1.5489349,4.0574646,-0.09051514,-0.0072021483999999995,-0.41578674
15.571639999999999,1.7907562,1.9768982,-0.12246704,0.011978148999999999,-0.23255920000000002
12.633942,0.74687195,0.34884644,-0.19491577,0.16004944,-0.061050415
9.85907,0.7444916,0.48292542,-0.22474670000000002,0.13981628,0.044403076
9.624435,1.1227722,1.026413,-0.22579956,-0.015716553,0.10511780000000001
9.368256,0.9264374,0.75346375,-0.2566986,-0.14887999999999998,0.058258057
8.19989,0.87376404,0.5044708,-0.2875824,-0.19894409,-0.055725098
7.2039029999999995,0.75645447,0.008865356,-0.29611206,-0.13609314,-0.10153198
6.705902,0.21057129,-0.07014465,-0.29718018,0.08441162,-0.05039978
6.938141000000001,-0.13179016,0.169281,-0.34191895,0.19839478,0.04547119
8.084961,0.16748047,-0.074920654,-0.37387085,-0.06578064,0.063583374
9.387405000000001,0.57688904,-0.44842529999999997,-0.36322020000000005,-0.16378784,-0.0014038085999999999
10.108063000000001,0.87138367,-1.1235808999999999,-0.25776672,-0.12757874,-0.20912170000000002
9.990753,0.87376404,-1.6239777,-0.10223389,0.18028260000000002,-0.40727234
8.815201,0.6606903000000001,-1.6287688999999999,0.017074585,0.247406,-0.357193
7.694702,0.30635070000000003,-1.1810455,0.18005371,0.33901978,-0.26559448
7.9077910000000005,1.2065582000000001,-0.4771576,0.33239746,0.22183228,-0.32844543
10.390578999999999,2.0996094,0.34165955,0.375,-0.037017822,-0.4285736
13.783157000000001,0.79237366,1.8380432,0.34623718,0.07908630000000001,-0.357193
12.935623,-1.0272217,0.06872558599999999,0.34091187,-0.12437439,-0.35081482
11.4991,-0.77104187,-0.97753906,0.2919159,0.03967285,-0.46585083
12.8350525,-0.35206604,0.4733429,0.19711304,0.26763916,-0.6181946
14.178207,-0.5100707999999999,0.5044708,0.096969604,0.13661194,-0.6512146
11.010681,1.8553925,0.67445374,0.025604248,-0.080703735,-0.50527954
9.456847999999999,2.0780487,2.7334747000000004,0.050094604,-0.22770691,-0.2559967
9.696259,1.1203766000000002,3.1596375,0.10122681,-0.22770691,0.047607422
10.050597999999999,0.24888611,3.1596375,0.09378052,-0.14994812,0.31817627
10.462402,0.07890319999999999,3.655243,0.05329895,-0.17018127,0.45027159999999994
10.754501,0.8522185999999999,3.5139769999999997,0.06927489999999999,-0.21385193,0.4492035
10.227768,1.4723206,2.6257324,0.10975647,-0.2000122,0.31391907
9.844696,1.3047333,1.8117064999999999,0.14277649,-0.09667969,0.08488464
9.710632,0.7947693,1.2275238000000002,0.16835022,-0.037017822,-0.065322876
8.9253235,0.14593506,0.9354248,0.17900085,-0.00932312,-0.11218262
8.436905,-0.16770935,0.8947296,0.17472839999999998,0.031158447000000002,-0.100479126
8.649994,-0.2922058,0.5715026999999999,0.14703369,0.15046692,-0.10580444
9.246155,-0.30178833,0.24829102,0.118270874,0.14300537,-0.077041626
8.9253235,0.13635254,-0.010284424,0.09590149,0.15686035,-0.06637573
8.743362,0.5720978,0.06872558599999999,0.10229492,0.15046692,-0.12284851
8.989975,0.6894226,-0.13957214,0.18965149,0.018371582,-0.16865539999999998
9.396988,0.35183716,-0.5896759,0.18858337,-0.08389282,-0.08129883
9.164749,0.23213196,-0.9320526,0.057556152,-0.1563263,0.07849121
9.224609,0.49548339999999996,-0.9607849,-0.109695435,-0.16699219,0.18289185
9.10968,0.6439209,-0.716568,-0.23965454,-0.25646973,0.26171875
8.152008,0.5625305,-0.5393982,-0.37600708,-0.113723755,0.35972595
8.087357,-0.88357544,-0.9009246999999999,-0.49531555,-0.028503418,0.43855286
10.275665,-1.0655364999999999,-0.1563263,-0.39837646,-0.10733032,0.43429565
11.89653,0.8354645,0.104644775,-0.18959045,0.18455505,0.36930847
11.317139,1.7237091,-0.9224701,0.15342712,0.12489319,0.48329163
11.575714,1.8601836999999999,-1.6024323,0.4453125,0.2505951,0.71125793
13.347412,1.9511566000000002,-0.6088256999999999,0.55610657,0.22503662,0.8827666999999999
13.20137,1.2161407,0.30336,0.5007019,-0.011459351000000001,0.82844543
11.525436000000001,-2.068695,0.79896545,0.31002808,-0.09561157,0.46945190000000003
9.24855,-2.5523376,2.9752807999999997,0.094833374,-0.08177185,0.015640259
8.029892,-1.69281,4.014374,-0.07772827,-0.027435302999999998,-0.3028717
8.470428,-0.7231598000000001,4.356735,-0.16615295,0.03967285,-0.46798706
11.3051605,0.849823,4.05986,-0.20663452,-0.028503418,-0.46052550000000003
14.530151000000002,1.8529968,2.5539092999999995,-0.27481079999999997,0.09187317,-0.3028717
14.240463,1.1586761,0.9210663,-0.3536377,0.29747009999999996,-0.1579895
11.42009,0.6678772,0.2842102,-0.39411926,0.24526978,-0.056793212999999995
9.650772,0.94799805,0.43504333,-0.38879395,0.11956787,0.014572143999999999
9.0833435,1.4603576999999999,0.6026305999999999,-0.38986206,0.048202515,0.07102966
8.8535,1.7021636999999998,0.3249054,-0.3770752,-0.022109985,0.08488464
8.305237,1.1275635,-0.010284424,-0.36961365,-0.016784668,0.056121826
7.282913000000001,0.3542328,0.095062256,-0.372818,0.08654785,0.027359009
7.0267334,-0.05757141,0.22195435,-0.37174988,0.16430664,0.04121399
7.551056,0.09086609,0.018447876000000002,-0.42713928,0.03541565,0.08274841
8.602112,0.35662842,-0.23054504,-0.43885803,-0.049804688,0.07423401
9.552612,0.30395508,-0.69981384,-0.3813324,-0.17443848,-0.058929443
10.088913,0.28001404,-1.1164093000000002,-0.15443420000000002,-0.013595581,-0.35081482
9.674713,0.54096985,-1.3654022,0.04902649,0.29747009999999996,-0.41792297
8.594925,0.47633362,-1.5114441,0.18751526,0.2559204,-0.28689575
7.974823,0.8306732,-1.0972443,0.34411620000000004,0.08547974,-0.30500793
8.578171000000001,1.7189178,-0.12519836,0.40803528,-0.11265564,-0.4562683
12.040192,0.9767151,1.2562561,0.29510498,0.15472412,-0.4797058
13.182220000000001,-0.45262146,2.3001251,0.18539429,-0.028503418,-0.36465454
11.147140499999999,-1.9681396,-0.12042236,0.14810179999999998,-0.21385193,-0.25920105
12.114410000000001,-1.5611267,0.19561768,0.06074524,0.24101257,-0.1963501
14.688170999999999,-0.5555725,0.19322205,0.013885498000000001,0.31558228,-0.30712890000000004
13.778381,2.2624054,-0.5753174,0.0074920654,0.057785034000000006,-0.47651672
10.790405,3.5002136,1.7757874,-0.01914978,-0.078567505,-0.48716736
9.545425,2.2983246,2.714325,-0.022338867000000002,-0.051940917999999996,-0.32949829999999997
9.246155,1.3430328,2.4270172000000003,-0.014877318999999998,-0.011459351000000001,-0.06637573
8.95166,-0.49810790000000005,3.0064087,-0.0287323,0.031158447000000002,0.17329407
10.100876,-0.8715973,3.4996185,-0.052169799999999995,0.006652831999999999,0.29473877
11.252487,0.48591614,3.1883698,0.017074585,-0.09774780000000001,0.32989502
10.491135,1.4723206,2.43898,0.13531494,-0.23942566,0.26597595
8.999542,1.1850128,1.8188933999999997,0.23545837,-0.34062195,0.15519714
8.587753,0.96954346,1.5291901,0.28445435,-0.29481506,0.042266846
8.757736,0.42366028,1.2778015,0.30256653,-0.25326538,-0.020584106
8.623657000000001,-0.50289917,1.4477844,0.29084778,-0.23622131,-0.007797241
8.559021000000001,-0.8404845999999999,1.3951111,0.20349121,-0.037017822,-0.005661010699999999
8.55423,-0.5675354,0.6600951999999999,0.14491272,0.18667603,-0.058929443
8.515915,-0.06715393,-0.127594,0.15342712,0.29000854,-0.12710571
8.566193,0.62716675,-0.43165588,0.21734619,0.17816162,-0.1729126
8.997162,0.74687195,-0.8506469999999999,0.23971558,0.021560668999999998,-0.12071228
9.878219999999999,0.48831177,-1.5449677,0.15556335,-0.21279907,0.065704346
10.452835,0.6223755,-1.4013062,-0.11076355,-0.24475098,0.31285095
10.108063000000001,0.6104126,-0.88417053,-0.34510803,-0.14567566,0.40020752
8.966034,0.20579529,-0.7596741,-0.45697020000000005,-0.03489685,0.33842468
7.7665405,-0.47416687,-1.1595001,-0.53793335,0.09719849,0.3714447
8.312408,-0.759079,-0.96318054,-0.46122742,-0.0146484375,0.46305847
10.630005,0.49308777,-0.45559692,-0.32380676,0.19306946,0.41937256
12.061736999999999,1.2065582000000001,-0.49870299999999995,-0.04045105,0.28149414,0.3948822
12.214966,1.3717651000000002,-1.2887878000000001,0.24929810000000002,0.21543884,0.6079254
13.35939,1.7572327,-0.24491882,0.40057373,0.1174469,0.8582610999999999
14.190185999999999,2.743637,1.7949523999999997,0.42401123,-0.07643127400000001,0.8167267
12.095245,0.14593506,1.6584778000000002,0.292984,-0.060455322,0.4033966
9.250946,-2.1453247,2.9154357999999996,0.11401367,-0.013595581,-0.014190673999999999
7.8383636,-1.8747711,4.356735,-0.022338867000000002,0.07482910000000001,-0.21658325
9.037857,-0.71836853,4.706299,-0.074539185,0.19306946,-0.33589172
12.088074,0.4619751,3.9114226999999997,-0.023406982000000003,0.18241882,-0.33802795
14.439178,0.85461426,2.3527985,0.0042877196999999995,0.153656,-0.22084045
12.997864,1.0653076000000001,0.99528503,-0.034057617000000005,0.19520569,-0.025909424
10.318756,1.5656891000000002,0.6026305999999999,-0.08518982,0.26870728,0.07209778
9.413742,1.3861237,1.0575256000000002,-0.06921387,0.0087890625,0.08381653
8.922928,0.75645447,1.4405975,-0.062820435,-0.19041443,0.087020874
8.401000999999999,0.56970215,1.1125946000000002,-0.08944702,-0.09774780000000001,0.077423096
7.867096000000001,1.0246124,0.68403625,-0.095840454,-0.08602905,0.05505371
7.369095,0.32310486,0.33209229999999995,-0.064956665,-0.068984985,0.027359009
7.1895294000000005,-0.07194519,0.6098175,-0.03831482,0.08015442,0.07316589
7.8263855,0.30395508,0.52841187,-0.100097656,0.11531067,0.18289185
9.025879,0.7779999,-0.12042236,-0.15762329,-0.07749939,0.21377563
9.222214,0.9096832,-0.50587463,-0.13739014,-0.29801940000000005,0.07635498
9.660355000000001,0.9144745000000001,-0.77163696,0.04902649,-0.11053467,-0.19847107
9.497542999999999,0.76364136,-1.3989258,0.21627808,0.23780823,-0.28901672
8.3315735,0.5744934,-1.7029877,0.3473053,0.13342285,-0.31459045
7.788086,0.7588501,-0.9512023999999999,0.46661377,0.02583313,-0.46691895
8.707458500000001,1.5441437,-0.22097778,0.53160095,-0.078567505,-0.58943176
11.860626,1.8577881,0.6529083000000001,0.52201843,0.050323485999999994,-0.52337646
13.299529999999999,0.5266113,1.7159423999999999,0.4026947,-0.038085938,-0.3454895
12.19342,-1.2043915,0.7510680999999999,0.30363464,-0.2266388,-0.27624512
13.249251999999998,-1.1852417,0.60502625,0.18858337,0.14407349,-0.31352234
14.314682000000001,-0.6106262,0.47094727,0.06074524,0.3304901,-0.39555359999999995
12.545364,2.1833953999999998,-0.12280273400000001,-0.02659607,0.16004944,-0.46372986
10.380997,3.1171417000000003,1.7901611000000002,3.0517577999999997e-05,-0.06578064,-0.43070984
9.600494,1.7332916,2.3384247000000005,0.09164429,-0.10626221,-0.22616577
9.732178,1.0964355,2.130127,0.19711304,-0.14248657,0.13069153
10.002716,0.17466736,2.7837523999999996,0.22906494,-0.026367188,0.35333252
10.843079,-0.42388916,3.0159912,0.20562744,-0.017852783,0.38742065
11.003494,0.07890319999999999,2.7047423999999998,0.19816589999999998,-0.07217407,0.2926178
9.787247,0.60562134,1.9649352999999998,0.30789185,-0.18829346,0.14454651
8.762527,0.9216614,1.7829741999999997,0.42933655,-0.19041443,0.091278076
8.915756,0.47633362,1.1197815,0.4453125,-0.13928223,0.059310913
8.920547500000001,-0.01927185,0.73431396,0.33665466,-0.030639648,-0.037628174
8.949264999999999,0.12199402,1.0144348,0.18325806,0.03327942,-0.10685730000000002
8.796036,-0.90512085,1.1916046,0.035186768,0.022628784,-0.14094543
8.319595,-1.024826,0.61460876,-0.05961609,-0.017852783,-0.1537323
8.386627,0.09565735,0.018447876000000002,-0.09158325,-0.15100098,-0.14521789999999998
8.977997,0.86898804,-0.6447449000000001,-0.095840454,-0.24368286,-0.13243103
9.294037,0.90489197,-1.2193604,-0.12460327,-0.20533752,-0.05999756
9.363464,0.6511078,-1.4156799,-0.22154236,-0.07643127400000001,0.06465149
9.092926,0.69181824,-1.384552,-0.36961365,-0.06365967,0.14666748
8.168762,1.0605163999999998,-1.4180756,-0.46122742,-0.14994812,0.19140625
7.531905999999999,0.42845154,-1.7269287,-0.60183716,0.038604736,0.35440063
8.824767999999999,-0.7925873000000001,-1.2600555,-0.71369934,0.10145569,0.56318665
11.592467999999998,0.256073,0.26264954,-0.6465911999999999,0.18348694,0.6079254
12.150314,1.6782226999999998,0.38716125,-0.45164490000000007,0.17816162,0.6079254
11.113632,2.374939,-0.80036926,-0.1586914,0.22822571,0.6004791
11.776825,2.743637,-1.3390656,0.07246399,0.41677856,0.56211853
13.076874,2.3414154,-1.0014801,0.22586060000000002,0.29000854,0.48754883
12.624374000000001,-0.6034546,0.38237,0.20030212,0.062042235999999994,0.27983093
10.615631,-2.5427551,2.4772950000000002,0.050094604,0.031158447000000002,-0.0014038085999999999
9.428116000000001,-2.1285553,4.1867523,-0.074539185,0.06736755,-0.20167542
10.074539,-1.7718201,4.7877045,-0.121414185,0.06736755,-0.36679077
12.382553,-0.6656951999999999,5.4125824,-0.14910889,0.026885986,-0.46479797
14.525360000000001,0.57688904,4.172394000000001,-0.26948547,0.052459717,-0.42643738
12.820694,0.5314026,1.9936676,-0.43032837,0.06311035,-0.26664734
10.0961,0.04058838,1.1916046,-0.57095337,0.10040283,-0.09301758
9.578949,0.2273407,1.2610321000000002,-0.7115630999999999,0.011978148999999999,0.0028533936
9.28685,0.8187103,1.2083588,-0.8585663,-0.13822937,-0.007797241
8.61647,1.3885193,0.7367096,-0.9821472,-0.18722534,-0.044006348
7.3666990000000006,1.5034485,0.080703735,-1.0769501,-0.19468689,-0.09727478
6.887863,0.8857421999999998,-0.15393066,-1.1270142,-0.38110352,-0.1537323
7.215866,0.35902405,-0.1563263,-1.1387329,-0.58244324,-0.1771698
8.163971,0.9360199,-0.21139526,-1.1025238000000002,-0.5930939000000001,-0.18249512
9.155167,1.5345764,-0.5322113,-0.99812317,-0.62397766,-0.24855042
9.66275,1.41008,-1.0924683000000002,-0.79252625,-0.25221252,-0.36465454
9.16954,0.8091278000000001,-1.1954193000000002,-0.567749,0.062042235999999994,-0.35400390000000004
7.9413146999999995,0.8857421999999998,-1.3869476,-0.29930115,0.0002593994,-0.228302
7.165588400000001,1.8218689,-1.5880584999999998,-0.111816406,0.019439697,-0.1963501
8.676331,1.8003235,-0.6064453000000001,-0.06921387,-0.23410034,-0.37104797
12.013855,0.29916382,0.90908813,-0.0798645,-0.27565002,-0.46372986
12.686615,-0.759079,0.9354248,-0.21514893,-0.22984314,-0.49674988
10.802383,-0.5555725,0.020843506,-0.42713928,-0.012527466000000001,-0.64268494
10.965195,-0.21319580000000002,0.5810852,-0.6220856,0.016235351999999998,-0.77371216
13.069687,-1.0128632,0.8779601999999999,-0.66682434,-0.16485596,-0.69062805
12.226929,1.0365753,0.9497985999999999,-0.61782837,-0.26072693,-0.41685486
10.682678,2.1977692,2.1588592999999996,-0.5048981,-0.23942566,-0.06958008
11.851044,1.3286743,2.6712189,-0.35577393,-0.14994812,0.18395996
12.796753,0.28240967,3.4684906000000004,-0.22900389999999998,-0.27458190000000005,0.29367065
10.890961,0.40930176,3.200348,-0.16189575,-0.33210754,0.33203125
9.7202,0.9551697,2.2354736,-0.12886047,-0.18829346,0.31498718
10.151154,0.21536255,1.1772461,-0.018081665,-0.07537842,0.25213623
10.397766,-1.0631409,0.758255,0.13851929,0.0002593994,0.12750244
9.940475,-1.4007263,1.0383759,0.23545837,0.18455505,0.04547119
9.674713,-0.76387024,0.8276825000000001,0.29724120000000004,0.27510070000000003,0.028427123999999998
9.607681,-0.40473938,0.54278564,0.34518433,0.23355103,0.03375244
8.95166,-0.5555725,0.5403899999999999,0.34197998,0.22715760000000002,0.08807373
8.8535,-0.79737854,0.6194,0.2642212,0.31665040000000005,0.09767151
8.678726,-0.50289917,-0.015075683999999999,0.18218994,0.39759827,0.05079651
8.685913000000001,-0.41430664,-0.20181274,0.16300964,0.34007263,0.022033691
9.10968,-0.2706604,-0.019851685,0.20137024,0.17176819,0.026290894
9.418533,-0.09349060000000001,-0.47236633,0.21308899,0.057785034000000006,0.04547119
9.947647,0.13156128,-1.1211853,0.15235901,-0.13290405,0.1711731
10.005111999999999,0.473938,-1.1571045,0.031982422,-0.06259155,0.30326843
8.8702545,0.7037810999999999,-0.7309418000000001,-0.036193848,0.11210632,0.25532532
7.776108,0.40211487,-0.6902313,0.036254882999999995,0.18028260000000002,0.11151123
8.142425999999999,-0.85723877,-1.1188049,0.17367554,0.153656,0.16052246
9.897369,-0.5196533,-0.5992584,0.30789185,0.020507812,0.32775879999999996
11.853439,1.4411926000000002,0.06872558599999999,0.34518433,0.23355103,0.296875
12.052155,1.4771118,-0.7836151,0.40483093,0.13981628,0.28941345
11.479935000000001,0.79714966,-1.1307677999999999,0.44744873,0.1451416,0.37570190000000003
12.15271,0.69181824,0.13815308,0.47621155,0.46365356,0.5045929
12.849426,1.0102386,0.6194,0.515625,0.27510070000000003,0.5418854000000001
12.806335,-0.34727478,0.011260986,0.44317627,-0.05833435,0.45027159999999994
10.555786,-0.7662505999999999,1.6058044,0.32600403,-0.16378784,0.24148560000000002
8.645203,-0.41191099999999997,2.6353150000000003,0.23545837,-0.07431030000000001,-0.018447876000000002
7.8335724,-0.253891,3.162033,0.16514587,0.06629944,-0.20167542
8.669144000000001,0.24409485,4.3854675,0.12786865,0.08015442,-0.25813293
11.444030999999999,0.41407776,3.6672057999999996,0.09590149,0.042877197,-0.23150635
13.543747,0.16268921,1.9553528000000002,0.034118652,0.11317444,-0.13775635
12.789566,0.08607483,0.7486725000000001,-0.013824463,0.15472412,-0.04827881
10.764069000000001,0.5433655,0.4948883,-0.037246704,0.08015442,0.020965576
9.2964325,1.0509491000000002,0.5738983,-0.03831482,-0.06472778,0.07316589
8.843933,1.2496643,0.6505126999999999,-0.002105713,-0.10626221,0.102996826
8.37706,1.1275635,0.40151978,0.037322997999999996,0.10998535,0.124298096
7.505569500000001,0.87376404,0.107040405,0.04902649,0.26870728,0.112579346
7.105728,0.44760132,0.011260986,0.023468017999999997,0.10252380000000001,0.102996826
7.0985565,0.3470459,-0.24731445,-0.039382935,-0.05833435,0.09660339
8.171158,0.56970215,-0.71177673,-0.014877318999999998,-0.17764282,-0.01737976
9.581344999999999,0.49069214,-1.2720337,0.021331787,-0.32997129999999997,-0.23895264
10.254105000000001,0.38536072,-1.4252625,0.12466431,0.046066284000000006,-0.38916016
9.923706,0.38056946,-0.7740326,0.27380370000000004,0.18348694,-0.3582611
8.863083,0.59843445,-0.75727844,0.33772278,0.32197570000000003,-0.17823792
8.664368,1.8266601999999998,-0.2425232,0.30256653,0.25698853,-0.13775635
10.773651,1.7237091,0.080703735,0.32174683,-0.13928223,-0.39767456
12.686615,0.5170288,0.013656616000000002,0.28338623,-0.03489685,-0.4093933
12.413681,-0.14137268,0.044784545999999995,0.2769928,-0.04447937,-0.28796387
11.511063,0.13874817,-0.5561676,0.32814026,0.11424255,-0.34121704
12.341858,0.61520386,0.4158782999999999,0.3984375,0.41784668,-0.46372986
14.008224499999999,0.29916382,0.6194,0.37393188,0.23675537,-0.49035645
11.56134,2.4395752,0.22434998,0.30575562,-0.115859985,-0.44454956
8.973206,2.6813965,2.3527985,0.20349121,-0.06791687,-0.2506714
8.949264999999999,1.1323395,3.0399323,0.11508179,0.031158447000000002,0.08062744
9.763306,-0.27545166,3.32724,0.044769287000000005,0.11531067,0.34054565
10.756897,-1.1469421,3.8036803999999997,-0.009552001999999999,0.09400939999999999,0.42469788
12.0737,0.03579712,3.1117554,0.01600647,0.08547974,0.40126038
11.384171,2.16185,1.5722809,0.094833374,0.12915039,0.35012817
9.461624,2.6143494,1.129364,0.20669556,0.038604736,0.27983093
9.037857,1.5202026000000002,1.0790863000000002,0.34091187,-0.17231749999999998,0.20205688
9.152771000000001,0.44281006,0.98091125,0.36860657,-0.12437439,0.10725403
8.910965,0.13635254,1.0647125,0.33239746,-0.001876831,0.026290894
8.369873,-0.012084961000000002,0.94021606,0.2919159,0.030090332,0.022033691
7.675552400000001,-0.41430664,0.91867065,0.30470276,0.026885986,0.025222777999999998
7.74498,-0.5866852,0.82051086,0.36116028,-0.057266235,-0.0024719238
8.508742999999999,0.17466736,0.116607666,0.39097595,-0.13290405,-0.003540039
8.963638000000001,0.69659424,-0.6950225999999999,0.34837340000000006,-0.31932068,0.10832214
9.124054,0.8929290999999999,-1.0014801,0.18432617,-0.39814758,0.26171875
9.133621,0.61520386,-0.80036926,-0.064956665,-0.21812439,0.29899597
8.508742999999999,0.04777527,-0.7668457,-0.19491577,-0.035964966,0.17224121
7.586975,-0.88597107,-1.0948486000000002,-0.29930115,0.17176819,0.077423096
8.163971,-1.1876373,-0.80036926,-0.37600708,-0.0146484375,0.26278687
10.481552,0.39013672,0.016052246000000003,-0.3770752,-0.24261475,0.47477722
12.361008,1.5202026000000002,-0.48432922,-0.28652954,0.023696900000000003,0.52163696
12.753662,1.7141418000000002,-1.3534241000000002,-0.015945435,0.18135071,0.5503998000000001
12.66507,1.1539001,-0.94641113,0.21202087,0.32090759999999996,0.69207764
12.794357000000002,1.8051147,0.58587646,0.3238678,0.09187317,0.71658325
12.480713,2.0158080000000003,0.94740295,0.29830933,-0.14994812,0.45666504
11.017868,-0.33529663,1.050354,0.17900085,-0.102005005,0.046539307
9.478394,-1.7359161,3.0782317999999997,0.09378052,0.041809082000000004,-0.24108887
8.831955,-1.486908,4.706299,0.07673645,0.12809753,-0.41259766
10.361847000000001,-0.6680908,5.438919,0.11187744,0.08229065,-0.44136047
13.354598999999999,0.14114379999999999,4.304062,0.10336304,0.17495728,-0.32098390000000004
14.716904000000001,0.5170288,2.1085814999999997,0.040512085,-0.026367188,-0.12390137
12.329880000000001,0.849823,0.6074219,-0.047912598,-0.0072021483999999995,-0.037628174
10.002716,0.93362427,0.78219604,-0.12567139,0.11956787,-0.030166626000000002
9.112076,0.8306732,1.2346953999999999,-0.14485168,-0.08389282,0.010314941
8.365082000000001,0.72532654,0.7726288,-0.19917297,-0.29481506,0.05293274
7.088974,1.33107,0.30575562,-0.27160645,-0.24156189,0.022033691
7.5773926,0.8091278000000001,0.24349976,-0.30889893,-0.08921814,-0.041885376
7.551056,-0.07911682,-0.20181274,-0.3770752,0.015167236,-0.028030396000000003
7.134460400000001,0.46435547,0.24349976,-0.49424744,-0.023178099999999997,0.04866028
7.649215700000001,1.2017822,0.032806396,-0.54112244,-0.08815002400000001,0.06037903
8.817596,1.3262787,-0.9009246999999999,-0.49850464,-0.31079102,-0.09513855
9.636414,1.1347351,-1.3821564,-0.3067627,-0.14141846,-0.31672668
9.54303,1.031784,-1.6143951,-0.0990448,0.18455505,-0.33377075
8.707458500000001,1.007843,-1.8059386999999998,0.14596558,0.27296448,-0.28263855
8.290863,1.5130157,-0.9152832000000001,0.3164215,0.45832825,-0.33270264
9.265305,2.2839508,-0.12042236,0.42294312,0.10572815,-0.46479797
12.076096000000001,1.2807921999999998,1.0623169,0.42933655,-0.06259155,-0.46905518
13.198975,-0.38557434,1.1078033,0.34518433,-0.10626221,-0.41471863
11.925262,-1.024826,-0.6064453000000001,0.34837340000000006,-0.08602905,-0.5532074
12.801544,-0.20840454,0.44940186,0.2642212,0.23675537,-0.7034149000000001
14.302704,-0.78541565,1.6608734,0.18644714,0.15686035,-0.68637085
12.272414999999999,0.86898804,1.05513,0.1161499,-0.102005005,-0.49461365
9.52388,2.1762238,1.9553528000000002,0.08099365,-0.14567566,-0.24855042
9.389801,1.414856,2.9513397,0.108688354,-0.24368286,0.06677246
10.35228,0.85461426,3.387085,0.085250854,-0.15206909,0.36717224
10.850265499999999,0.28718567,3.8204345999999996,0.052230835,-0.028503418,0.47370909999999994
11.269257000000001,0.6678772,3.2530212000000005,0.07034302,0.023696900000000003,0.38528442
11.037018,1.2305145,2.0966186999999996,0.15875244,-0.06365967,0.28834534
9.856674,1.4220428,1.6608734,0.22267151,-0.09561157,0.17543029999999998
9.143203999999999,1.2544556,1.1916046,0.28659058,-0.047683715999999994,0.044403076
8.9253235,0.42845154,0.9521941999999999,0.33772278,0.05671692,0.0007324219
8.463242,-0.09828186,0.90190125,0.35050964,0.1174469,-0.035491943
7.7665405,-0.20840454,0.7798004,0.32174683,0.16323853,-0.044006348
8.436905,-0.17250061,0.5619354,0.30789185,0.095062256,0.003921509
9.428116000000001,-0.45501709999999995,0.44461059999999997,0.27061462,0.14086914,0.011383057
8.906174,-0.04081726,0.13337708,0.23971558,0.14833069,-0.055725098
8.702667,0.5050659000000001,-0.082107544,0.27166748,-0.0008087158,-0.119644165
8.831955,0.51942444,-0.44842529999999997,0.2652893,-0.14887999999999998,-0.07064819
8.815201,0.6008300999999999,-0.70939636,0.16195679,-0.1765747,0.09339905
9.315582000000001,0.5385895,-1.0804901000000002,-0.064956665,0.020507812,0.19247437
9.167145,0.60562134,-1.0756989,-0.19064331,-0.0039978027,0.20100403
7.934128,0.5673064999999999,-1.0278167999999999,-0.30889893,0.04499817,0.30859375
7.950882000000001,-0.7662505999999999,-1.3103333000000001,-0.43992615,-0.10626221,0.59513855
10.404938000000001,-0.60105896,-0.56573486,-0.45483398,-0.018920898000000002,0.6633300999999999
12.523819,1.2017822,-0.22814941,-0.29078674,0.15579224,0.425766
12.114410000000001,2.3605652000000004,-0.6591034,-0.010620117,-0.023178099999999997,0.35546875
11.465575999999999,2.4515533,-1.0733032,0.20881653,0.23143005,0.46945190000000003
12.595642,2.434784,0.020843506,0.30470276,0.25912476,0.5802307
13.838226,1.6375275,-0.18984985,0.30149840000000006,-0.010391235,0.54400635
12.605209,-1.4294434,1.2299194,0.13105774,-0.1446228,0.29899597
9.315582000000001,-2.2027740000000002,2.9992217999999995,-0.06600952,-0.104141235,-0.023773192999999998
8.3315735,-1.7861938000000002,3.6456604,-0.17999268,-0.09881592,-0.21446228
9.181503,-0.91470337,4.4932099999999995,-0.15229797,-0.15953064,-0.33695984
12.061736999999999,0.9168700999999999,4.6392517,-0.11502075,-0.07005310000000001,-0.34654236
14.022583,1.8841248,2.5299682999999997,-0.16189575,0.052459717,-0.23150635
12.279602,0.9647522,0.57629395,-0.21514893,0.026885986,-0.07597351
9.756119,0.5242157000000001,0.43743896,-0.2556305,-0.035964966,-0.04081726
9.341919,0.44760132,0.9234619000000001,-0.27374268,-0.07643127400000001,0.009246826
9.930893,0.7205353,1.0838623,-0.3067627,-0.08815002400000001,0.077423096
8.709854,1.0461578,0.43983459999999996,-0.3578949,-0.12330627400000001,0.059310913
7.1033479999999996,1.0293884,0.43264769999999997,-0.40690613,-0.07537842,0.020965576
6.792099,0.56492615,0.20040894,-0.45271300000000003,0.0471344,0.028427123999999998
7.184738,0.43563843,0.2889862,-0.52726746,0.059921265,0.091278076
7.694702,0.6032257,-0.029434204,-0.5315399000000001,-0.033828735,0.11897278
8.717025999999999,0.73490906,-0.38856506,-0.46975708,-0.15100098,0.05718994
9.452057,0.84025574,-1.0948486000000002,-0.34510803,-0.15100098,-0.14733887
9.645980999999999,0.8234863000000001,-1.597641,-0.13739014,0.20478821,-0.31991577
8.95166,0.57688904,-1.7843933,0.02027893,0.31770325,-0.31033325
8.190308,0.63435364,-1.2792052999999999,0.2695465,0.45726013,-0.30819702
8.264526,1.8577881,-0.24731445,0.4176178,0.23887634,-0.4988861
10.450439,1.8865203999999998,-0.07014465,0.41015625,0.11531067,-0.59687805
13.701767000000002,0.14353943,1.3807526,0.27806090000000006,0.1685791,-0.46266174
13.251648000000001,-1.5778961,0.08308411,0.25889587,-0.1765747,-0.45307922
12.147919,-1.6281738000000001,-0.37181090000000006,0.28871155,0.11956787,-0.5042114000000001
14.099197,-1.2738341999999998,1.2466736,0.27380370000000004,0.36990356,-0.5393677
14.817459,-0.5364075,0.24829102,0.23225403,0.16537476,-0.51060486
10.6922455,2.8465881,1.1437225,0.16940308,-0.09454346,-0.41578674
8.575775,2.6119689999999998,3.1907654,0.122543335,-0.19255066,-0.24427795
9.035461,1.457962,3.2625884999999997,0.106552124,-0.14674377,0.05505371
9.528671000000001,0.35183716,3.4924315999999997,0.07992554,-0.0029296875,0.28515625
10.649155,-0.35206604,3.9736633,0.056488037000000005,0.0002593994,0.32563782
12.068909,0.4116974,3.2218932999999996,0.10549927,-0.051940917999999996,0.32563782
11.546982,1.541748,2.0966186999999996,0.20776367,-0.17231749999999998,0.22444153
9.693863,1.9870758000000002,1.6058044,0.30895996,-0.10839844,0.038009644
8.647598,1.5034485,1.2155457,0.38352966,0.032211303999999996,-0.010986328
8.441696,0.5098572,0.9450073,0.43466187,-0.015716553,-0.032287598
7.721039,-0.08390808,0.9857024999999999,0.42080688,-0.17018127,-0.025909424
7.9437103,-0.27545166,0.91148376,0.35795593,-0.16059875,-0.025909424
9.001938,-0.838089,0.6361541999999999,0.25889587,0.006652831999999999,-0.031234741
8.465637,-0.5100707999999999,0.056762695,0.17900085,0.20904541,-0.053604125999999995
8.221436,0.26564026,0.2052002,0.17472839999999998,0.19413757,-0.12817383
8.496765,0.67744446,-0.012680054,0.22267151,0.023696900000000003,-0.18463135
9.195877000000001,0.90249634,-0.76205444,0.25782776,-0.13076782,-0.12071228
9.581344999999999,1.0174254999999999,-1.676651,0.15023804,-0.10093689,0.067840576
9.566971,0.8522185999999999,-1.8466339,-0.109695435,-0.043411255,0.30966187
9.234177,0.7301178,-1.1355591,-0.28865050000000003,-0.1563263,0.46411133
8.429733,-0.036026,-1.0278167999999999,-0.46548462,0.18774414,0.44706726
8.767319,-1.3025513000000002,-1.1188049,-0.67640686,0.20159912,0.58769226
10.821533,-0.33050537,-0.47476196,-0.62101746,-0.1446228,0.69207764
11.891739,1.7261046999999998,-0.048583984000000004,-0.4005127,0.13554382,0.58343506
11.187851,2.9687042000000003,-0.9440155000000001,-0.07879639,0.16963196,0.55999756
11.606842,2.6215363,-2.0716858,0.18751526,0.21118164,0.7101898
12.442413,1.8937073,-0.50349426,0.24397278,0.34753418,0.8433533000000001
12.736892999999998,2.154663,1.3807526,0.2141571,0.15791321,0.7336273
11.642746,-0.8596344000000001,1.7662201000000002,0.06607056,-0.059387207000000004,0.36930847
9.452057,-2.336853,3.7725525,-0.09477234,-0.053009033,-0.037628174
8.465637,-2.0663147,4.785309,-0.22154236,0.017303467,-0.30606079999999997
9.428116000000001,-0.9314575,4.4788513,-0.2609558,-0.017852783,-0.47438050000000004
12.3250885,1.031784,4.675171,-0.25456238,-0.00932312,-0.48396300000000003
14.441574,1.6878052,3.0758362,-0.33659363,0.10359192,-0.32417297
13.414458999999999,0.6726532,1.2251282,-0.4132843,0.15258789,-0.19741821
11.185455000000001,0.44041443,0.6983948,-0.48146057,0.20692444,-0.06851196
10.134399,0.46914673,0.9234619000000001,-0.51875305,0.09400939999999999,0.049728394
9.66275,0.57688904,1.1461181999999999,-0.52726746,-0.026367188,0.112579346
8.439300999999999,1.2520599,0.59306335,-0.49424744,-0.045547485,0.114715576
7.539092999999999,0.84265137,0.32969666,-0.43566895,-0.11158752400000001,0.08274841
6.8519440000000005,0.37338257,0.32250977,-0.40370178,-0.060455322,0.09339905
6.5550690000000005,0.44999695,0.30815125,-0.41116333,-0.035964966,0.14241028
7.5366974,0.49787903,0.44940186,-0.41648865,-0.12544249999999998,0.1477356
8.365082000000001,0.26564026,0.14294434,-0.36535645,-0.20640564,0.079559326
9.021103,0.07650757,-0.16590881,-0.24497986,-0.32571409999999995,-0.15161133
9.408951,0.31352234,-0.70700073,-0.0798645,-0.07005310000000001,-0.33163452
8.819977,0.27761840000000004,-1.2456969999999998,0.05116272,0.21118164,-0.24427795
8.104111,0.339859,-1.2887878000000001,0.21202087,0.28575134,-0.15054321
7.922165,1.3957062,-0.5968628,0.38885498,0.2793579,-0.32524109999999995
9.926102,1.9870758000000002,0.27702332,0.46235657,-0.15100098,-0.67251587
13.124756,0.335083,1.541153,0.46554565,0.07057189999999999,-0.68104553
12.947586,-1.2379149999999999,0.3249054,0.48579407,0.03327942,-0.56385803
11.108841,-1.3336792,-1.1882324,0.5209503,0.038604736,-0.58410645
12.590850999999999,-0.15573120000000001,1.0216216999999999,0.47407532,0.25379944,-0.56173706
15.741623,-0.8213196,2.015213,0.36541748,0.116378784,-0.5020752
13.028992,1.0724945,0.9713440000000001,0.22373962,-0.080703735,-0.42964172
9.507126,1.8601836999999999,2.6401062,0.17579651,-0.19361877,-0.29222107
9.440078999999999,0.59843445,3.411026,0.18751526,-0.14781189,-0.063186646
9.6819,0.51942444,4.031128,0.16835022,-0.040222167999999996,0.18821716
10.292419,0.43563843,4.347168,0.14277649,-0.048736572,0.31285095
11.396149000000001,0.8354645,3.4589233,0.16407776,-0.026367188,0.28622437
11.453598,1.2783966,2.4988403,0.20137024,-0.017852783,0.15412903
10.246933,1.4220428,1.7422790000000001,0.23013306,-0.026367188,-0.044006348
9.013916,1.3406372,1.3208923000000001,0.27166748,0.016235351999999998,-0.11431885
8.566193,0.473938,1.1078033,0.30682373,0.029022217000000003,-0.100479126
8.499161,-0.18685913,0.96894836,0.3153534,-0.010391235,-0.06637573
8.283676,0.05973816,0.8061371,0.25250244,-0.023178099999999997,-0.047210693
9.033066,0.12438965,0.7510680999999999,0.15663147,-0.0039978027,-0.044006348
8.860686999999999,-0.05038452,0.5738983,0.040512085,0.17922974,-0.10580444
8.240585000000001,0.13156128,0.4158782999999999,-0.032989502000000004,0.31983948,-0.19102478
8.010742,0.3542328,0.087875366,-0.06600952,0.2793579,-0.24108887
8.566193,0.86180115,-0.4053192,-0.06175232,0.0087890625,-0.23576355
9.370650999999999,1.1491089,-0.97514343,-0.022338867000000002,-0.23622131,-0.15586853
9.990753,1.0700988999999999,-1.5521545,-0.20024109,-0.016784668,0.026290894
9.416138,0.76364136,-1.7005919999999999,-0.3813324,-0.013595581,0.17436218
8.393814,0.41407776,-1.329483,-0.44099426,0.046066284000000006,0.22337341
7.9963837,-0.7159729,-0.6447449000000001,-0.6050415,0.28788757,0.43215942
9.389801,-0.69203186,-0.26167297,-0.6519165,-0.12223816,0.6675873000000001
11.048981,0.8641968000000001,-0.2712555,-0.49212646,-0.041290283,0.60899353
10.826324000000001,2.1211548,-0.25209045,-0.34191895,0.24101257,0.54400635
10.598877,2.7604064999999998,-1.1044312,-0.10542297,0.22290039,0.6441498000000001
12.313125999999999,2.2193146,0.008865356,-0.013824463,0.36351013,0.83270264
14.024979,3.2464294,1.8595886000000001,0.024536132999999998,0.12063599,0.8007354999999999
13.26123,1.3214874,1.3208923000000001,-0.047912598,-0.12651062,0.47477722
10.359451,-1.6569061,2.039154,-0.15762329,-0.08921814,0.06465149
8.240585000000001,-2.1836243,4.2082977,-0.21195984,-0.03276062,-0.18995667
8.137634,-1.7861938000000002,4.919372599999999,-0.15762329,-0.080703735,-0.27197266
10.718582000000001,-0.16052246,5.6208800000000005,-0.064956665,-0.16699219,-0.2048645
13.857391,1.086853,4.4142,-0.084121704,-0.14355469,-0.08023071
13.862167000000001,0.5960388000000001,2.1780242999999997,-0.24497986,-0.037017822,-0.00033569336000000005
11.259674,-0.05517578,1.4741211,-0.41435242,0.19946289,-0.028030396000000003
9.492752000000001,-0.06715393,1.8069153000000002,-0.51342773,0.16751099,-0.031234741
9.104889,-0.04321289,1.9840851000000002,-0.56988525,0.0055847169999999995,0.014572143999999999
8.87265,0.41647340000000005,1.2849883999999998,-0.59332275,0.01411438,0.012451172
8.963638000000001,1.6255493,0.6289673000000001,-0.59332275,0.046066284000000006,-0.04295349
8.669144000000001,1.4172516000000002,0.14533997,-0.5613556,0.10784912,-0.05253601
7.539092999999999,0.7732085999999999,0.35842896,-0.53686523,0.095062256,0.025222777999999998
7.2685394,0.6104126,0.48052979999999995,-0.5752106,-0.090286255,0.09979248
8.125671,0.44999695,0.18125916,-0.51982117,-0.19255066,0.06890869
9.116867,0.40690613,-0.1443634,-0.38986206,-0.36938477,-0.06211853
9.507126,0.21296692,-0.47236633,-0.22261047,-0.35980225,-0.24960327
8.829559,-0.13897705,-0.53460693,-0.05429077,0.08547974,-0.31991577
7.694702,-0.35446167,-0.8123474,0.1161499,0.16430664,-0.30500793
7.3116302,0.56492615,-0.8051605,0.292984,0.3997345,-0.32949829999999997
8.333953999999999,2.3821258999999997,0.18843079,0.42720032,0.26338196,-0.579834
11.458389,1.8769379000000002,0.42306520000000003,0.5997772,-0.05833435,-0.86213684
13.560501,-0.57951355,0.66249084,0.5795288000000001,0.14619446,-0.76412964
12.643524000000001,-1.9394226000000003,-0.59207153,0.4964447,-0.16166687,-0.577713
12.088074,-1.0391998,-0.72135925,0.3941803,-0.02104187,-0.46691895
14.391295999999999,-0.8596344000000001,1.7662201000000002,0.23545837,0.24526978,-0.33802795
14.783935999999999,-0.68725586,1.8404387999999998,0.18644714,0.032211303999999996,-0.31245422
10.874207,1.7907562,2.1133728,0.17900085,-0.26818848,-0.25813293
8.324387,1.7596283,3.7749481,0.20030212,-0.18296814,-0.04295349
8.463242,1.2233276000000002,3.5714417000000003,0.22692871,-0.03489685,0.24360657
9.370650999999999,0.93362427,3.533142,0.19816589999999998,-0.023178099999999997,0.43536377
11.2213745,0.11720276,4.2274475,0.17047119,-0.060455322,0.49714659999999994
12.463959,0.5050659000000001,3.4565277,0.20562744,-0.017852783,0.39274597
11.736114500000001,1.7093506,2.0918273999999997,0.25036620000000004,-0.06578064,0.31285095
9.64119,2.1474915,1.8452301,0.30470276,-0.090286255,0.17756653
8.211853,1.0892487,1.4765167,0.38352966,-0.040222167999999996,0.09979248
8.216644,0.24649048,1.2275238000000002,0.45703125,-0.08496094,0.13388062
8.77449,0.023834229,1.3759613000000002,0.41015625,-0.06578064,0.11683655
8.159180000000001,0.3829651,1.1509094,0.27166748,0.08441162,0.079559326
8.39621,-0.17967224,0.73431396,0.16195679,0.16004944,0.034820557
8.286072,-0.85484314,0.51405334,0.099105835,0.018371582,-0.057861328
8.015533,0.13156128,0.7774048000000001,0.14064026,-0.25965879999999997,-0.18356323
8.760132,0.75405884,0.14294434,0.23013306,-0.39068604,-0.23683167
9.227005,0.9216614,-0.7333374,0.18751526,-0.28416443,-0.12817383
9.143203999999999,0.8881378000000001,-0.8602295,0.00642395,-0.080703735,0.026290894
9.04744,0.42126465,-0.29519653,-0.19277954,-0.29801940000000005,0.25106812
8.314803999999999,0.05973816,-0.36701965,-0.35577393,-0.10307312,0.36930847
7.527114999999999,-0.76864624,-1.5401764,-0.6050415,0.46258545,0.49075317
9.068985000000001,-1.0415955,-1.4468079,-0.66682434,0.01411438,0.6824951
11.671478,0.77560425,-0.053375244,-0.44844055,-0.2000122,0.73150635
11.405716,2.2241058,-0.108444214,-0.15443420000000002,0.16004944,0.75813293
10.938858,2.9160310000000003,-1.7628326,0.15130615,0.34114075,0.8678589
12.210175,2.4060669999999997,-1.4420166,0.35369873,0.14086914,0.80926514
13.266022,2.4371796000000003,2.5036316000000003,0.3941803,-0.19148254,0.5024719
12.025818,0.5840759,4.15802,0.25889587,-0.3331604,0.112579346
9.772872999999999,-1.5276184,3.7198792000000003,0.031982422,-0.26179504,-0.15266418
9.387405000000001,-2.044754,5.261749299999999,-0.15655518,-0.16699219,-0.26559448
10.845474000000001,-2.5116272,5.7621307,-0.20875549999999998,-0.20213318,-0.3731842
13.392914000000001,-1.0296173,4.502792400000001,-0.20663452,-0.06578064,-0.36785890000000004
14.388901,0.8929290999999999,2.3958892999999994,-0.20770264,0.04925537,-0.275177
12.559723,1.7955322,0.49967957,-0.21514893,-0.061523438,-0.13136292
10.390578999999999,2.0158080000000003,0.14533997,-0.24711609,-0.013595581,0.061447144
9.758514,1.4124603,0.85162354,-0.27374268,0.11424255,0.09553528
9.432891999999999,0.56492615,0.892334,-0.29397583,-0.0008087158,0.047607422
8.099335,0.29437256,0.43983459999999996,-0.31634520000000005,-0.14248657,-0.007797241
7.3666990000000006,0.12438965,0.44221497,-0.36428833,-0.05619812,-0.016311646000000003
7.1033479999999996,0.54815674,0.47094727,-0.38986206,0.16323853,0.044403076
7.369095,0.41407776,0.066329956,-0.42074585,0.27403259999999996,0.10192871
7.8072357000000006,0.27522278,0.15969849,-0.48466492,0.053527832000000004,0.09979248
8.594925,0.4619751,-0.1850586,-0.45909120000000003,-0.09347534,0.04866028
9.442474,0.72532654,-1.0469666,-0.39091492,-0.27458190000000005,-0.10473633
9.7202,0.93362427,-1.6072083000000001,-0.18638611,-0.13076782,-0.37423706
9.291641,0.6750488,-1.6311493000000001,0.054367065,0.25698853,-0.46691895
8.422546,0.19381714,-1.6096039,0.31002808,0.42956543,-0.49993896
7.958069,1.0988312,-1.0134583000000001,0.5614319000000001,0.47430420000000006,-0.62138367
8.939697,2.47789,-0.6734772,0.7180175999999999,0.03967285,-0.6970215
12.308334,1.5130157,0.3464508,0.7095031999999999,0.12489319,-0.5787810999999999
14.161453,-0.77104187,1.6225586,0.56036377,-0.14248657,-0.46372986
12.629166,-1.7287292,-0.38616943,0.43678284,-0.24368286,-0.48928833
13.366577,-1.1756592,1.1820374,0.28977966,0.1302185,-0.53297424
14.120743,-1.5108489999999999,2.2091369999999997,0.17260742,0.10784912,-0.5436249
10.965195,1.378952,1.4597626,0.085250854,-0.09454346,-0.42750550000000004
8.393814,2.7460327,3.2386475,0.12680054,-0.2511444,-0.2006073
8.365082000000001,1.8290558000000001,2.7238922000000003,0.22799683,-0.3480835,0.08807373
9.7202,1.596817,2.6712189,0.24397278,-0.20747375,0.33628845
11.621201,0.60801697,3.24823,0.18218994,-0.11053467,0.42257690000000003
12.351425,0.335083,2.9944458,0.18218994,-0.13609314,0.37463379999999996
10.82872,0.6750488,2.5850372000000004,0.25889587,-0.17018127,0.24148560000000002
9.045044,1.0964355,2.0439453000000003,0.29830933,-0.055130005,0.12110901
8.848709,1.1203766000000002,1.2370911,0.32707214,0.02583313,0.061447144
8.999542,0.5433655,0.57629395,0.37393188,0.06736755,0.038009644
8.673935,0.17706299,0.64572144,0.37287903,0.11424255,0.024169922000000003
8.901382,-0.33050537,1.0048523,0.30363464,0.13661194,0.044403076
9.104889,-0.28741455,0.56910706,0.25250244,0.14407349,0.058258057
8.992371,-0.07672119,0.22434998,0.19816589999999998,0.25166320000000003,0.010314941
8.515915,-0.06715393,0.2554779,0.15449524,0.26338196,-0.10685730000000002
8.463242,0.42366028,-0.14675903,0.17047119,0.04925537,-0.20274353
8.877441000000001,0.84265137,-0.3622284,0.16195679,0.06417847,-0.19207764
9.559799,0.94081116,-0.61361694,0.038375854,-0.0061340330000000005,-0.01524353
10.136795,0.5457611,-1.0254211,-0.19171143,-0.09561157,0.20419312
9.768082000000001,0.45718384,-0.64953613,-0.33766174,-0.21917725,0.37356567
8.173553,0.62716675,-0.8171234,-0.44525146,0.09719849,0.44281006
7.5414734,-0.39994812,-1.9447936999999997,-0.52194214,0.27510070000000003,0.5472107
9.442474,0.07411194,-0.84106445,-0.41223145,-0.15953064,0.64733887
11.092087,1.9631348000000002,-0.017471313,-0.24072266,0.02583313,0.63668823
10.555786,2.525772,-1.2433014,-0.031921387,0.29107666,0.7048645
11.214188,1.8314514,-2.1171722,0.12998962,0.31983948,0.7996826
13.175034,1.6255493,0.28660583,0.26315308,0.09826660000000001,0.69421387
12.863785,1.6638641,3.1764069,0.2695465,-0.049804688,0.40126038
10.673096000000001,-0.98413086,2.6855927000000004,0.15982056,-0.12651062,0.032684326
9.133621,-1.984909,3.916214,0.0415802,-0.09135437,-0.21125793
9.210236,-1.5970459,5.268936,-0.064956665,0.08973694,-0.28369140000000004
11.5733185,-0.8165283,5.3311768,-0.10223389,0.10252380000000001,-0.29754640000000004
14.010620000000001,0.26803590000000005,3.916214,-0.1352539,0.059921265,-0.28157043
13.857391,0.8929290999999999,1.9673308999999997,-0.20770264,0.09826660000000001,-0.18782043
11.927658000000001,1.2903594999999999,0.8133239999999999,-0.2801361,0.040740967,-0.008865356
10.491135,1.3286743,0.47573853,-0.3035736,0.046066284000000006,0.07423401
9.574158,0.6750488,0.916275,-0.30464172,0.08868408,0.11578369
8.901382,0.4332428,0.9354248,-0.30036926,-0.0039978027,0.12962341
7.879059,0.89053345,0.38955688,-0.31529236,-0.051940917999999996,0.06251526
6.89505,1.0198212,0.22434998,-0.34298706,0.040740967,0.008178711
7.2015076,0.19142151,0.063934326,-0.35896300000000003,0.12063599,0.046539307
7.917373700000001,-0.03842163,0.2554779,-0.39518738,0.034347534,0.09553528
8.183121,0.3542328,0.0016937256,-0.39518738,-0.038085938,0.12962341
9.061798,0.4452057,-0.47236633,-0.38026428,-0.35447693,-0.00033569336000000005
9.442474,0.43563843,-1.2672424,-0.15229797,-0.30014038,-0.31991577
8.908569,0.5266113,-1.3390656,0.11401367,0.12170410000000002,-0.4189911
8.264526,0.18902588,-1.3462524,0.40164185,0.31558228,-0.38809204
7.5654144,0.82110596,-0.7476959,0.7158966,0.552063,-0.45840454
8.058624,1.9703217,-0.44363403,0.88739014,0.08654785,-0.6416321
11.64035,1.8170929,0.7462920999999999,0.85757446,-0.066848755,-0.6054076999999999
13.665848,-0.06954956,1.4837036,0.5933838,-0.0029296875,-0.35932922
12.698592999999999,-1.9513855,-0.52264404,0.39524840000000006,-0.23196411,-0.36785890000000004
13.258835000000001,-1.779007,0.40151978,0.2546234,0.18241882,-0.5116577
16.026535,-2.5475464,2.4844817999999997,0.12359619,0.247406,-0.5947571
13.629929,-0.25628662,0.7295227,0.0032348633000000003,-0.00932312,-0.56173706
8.307617,4.158615,0.9737396,-0.032989502000000004,-0.11053467,-0.4093933
7.275726299999999,3.7970886,2.1540833,-0.0042266846,-0.26712036,-0.19847107
9.385010000000001,2.3773346,3.3535767,-0.024475097999999997,-0.20213318,0.06465149
11.494308,0.6247710999999999,4.2274475,-0.08305359,-0.15846252,0.21697998
12.746475,-0.37121582,3.7151031000000003,-0.076660156,-0.20747375,0.26065063
11.444030999999999,0.23690796,2.3288574,-0.024475097999999997,-0.113723755,0.20100403
9.79921,1.0533295,2.063095,-0.010620117,-0.027435302999999998,0.059310913
9.076157,1.5393523999999998,1.6896057,0.022399902000000003,-0.005065918,-0.086624146
8.676331,0.8474425999999999,1.0886536,0.11721802,-0.057266235,-0.17077637
8.408188,0.27522278,1.1078033,0.17579651,-0.048736572,-0.1026001
8.47522,0.28479004,0.9330291999999999,0.17793274,0.010910033999999999,-0.037628174
8.946869,0.29676820000000004,0.74150085,0.17793274,0.057785034000000006,-0.010986328
8.566193,-0.12460327,0.5020752,0.14491272,0.26763916,-0.019515991
8.254959,-0.39515686,0.58587646,0.118270874,0.4551239,-0.09408569
8.262131,0.33029175,0.5595398,0.15663147,0.43382263,-0.20274353
8.779282,0.8953247,-0.031829834,0.22480774,0.07269287,-0.22084045
9.408951,0.7684326,-0.6758728,0.19177246,-0.2511444,-0.049331665
10.055389,0.6295624,-1.1523132,0.034118652,-0.24794006,0.28622437
9.715408,0.7229309,-0.92726135,-0.121414185,-0.28309629999999997,0.5844879
8.47522,0.43563843,-0.41729736,-0.36428833,-0.049804688,0.6771698
7.972442599999999,-0.88357544,-0.3047638,-0.61676025,0.023696900000000003,0.74108887
9.732178,-0.21798706,-0.32870483,-0.6327362,-0.28630066,0.8007354999999999
10.859848,1.4723206,-0.40054320000000004,-0.5752106,0.106781006,0.78263855
10.335510000000001,2.113968,-1.4037018,-0.31422424,0.43063354,0.7836914
11.190247,1.6686401000000002,-1.894516,-0.025527954,0.43914795,0.8231200999999999
13.325867,2.1522675,0.2889862,0.18432617,0.059921265,0.73150635
13.414458999999999,3.528946,2.2283020000000002,0.28019714,-0.16271973,0.48542786
10.788025,0.5960388000000001,1.4453888000000001,0.23652649,-0.04234314,0.12750244
9.037857,-1.7837982,3.4828644,0.13531494,0.03967285,-0.18249512
8.470428,-2.4661407000000004,5.455673,0.08206177,-0.08282471,-0.42004395
10.665909,-1.9441986,6.164367700000001,0.07673645,-0.16804504,-0.48289490000000007
14.443970000000002,0.15551758,4.9074097000000005,0.010681152,-0.08921814,-0.34121704
15.128708,1.1083983999999998,2.4030762,-0.121414185,0.11317444,-0.17503357
11.884567,0.7612456999999999,1.110199,-0.22793579,0.12170410000000002,-0.12496948
9.854279,0.6535034000000001,1.1461181999999999,-0.3025055,0.07057189999999999,-0.044006348
9.578949,0.52900696,1.2370911,-0.29611206,-0.040222167999999996,0.059310913
9.021103,1.0485535,0.59783936,-0.29078674,-0.090286255,0.114715576
7.8862457,1.3813476999999998,-0.084503174,-0.29611206,-0.08282471,0.09020996
7.1823425,0.789978,0.039993286,-0.31954956,-0.019973755,0.06037903
6.5526733,0.28001404,0.29617309999999997,-0.37387085,-0.008255005,0.102996826
6.6364746,0.29916382,0.32011414,-0.43778992,-0.12651062,0.13601685
7.728225699999999,0.51464844,0.04957580599999999,-0.4559021,-0.20747375,0.077423096
8.7864685,0.62716675,-0.50109863,-0.37068176,-0.2511444,-0.12496948
9.420929,0.6391449,-1.0230255,-0.17680359,-0.11691284,-0.32844543
8.812805,0.47872925,-1.3630066,-0.011688232,0.0023956299,-0.36679077
8.020325,0.43803406,-1.166687,0.16514587,0.22290039,-0.37850952
8.053833000000001,1.4675293,-0.5681305,0.34304809999999997,0.35606384,-0.45520020000000005
9.583739999999999,2.5233765,0.037597656,0.56781006,-0.17871094,-0.6757201999999999
12.765625,1.2783966,1.3783569,0.5102997,-0.11053467,-0.63523865
13.488678,-0.82611084,0.42546082,0.39950562,-0.17871094,-0.53723145
12.4591675,-1.4126892,-1.3007507,0.3473053,-0.08921814,-0.62564087
13.062515,-0.6680908,1.1149902,0.22267151,0.08654785,-0.7012786999999999
14.290741,-0.5962677,2.556305,0.075668335,-0.022109985,-0.58943176
11.484726,1.7165375,1.4453888000000001,-0.022338867000000002,-0.23622131,-0.36465454
8.724213,1.9056702,2.6975555,-0.008483886999999999,-0.3289032,-0.14627075
9.12883,0.7803955,3.2434387000000005,0.033050537000000005,-0.2820282,0.08488464
10.529449000000001,1.1634673999999998,3.7174834999999997,0.021331787,-0.24900818,0.296875
11.57811,1.0006714,3.6911468999999997,0.002166748,-0.20108032,0.37251282
11.939621,1.0437622,2.8436127,0.03944397,-0.08389282,0.27130127
11.233336999999999,1.220932,1.9864807,0.106552124,-0.06578064,0.1946106
10.038635000000001,1.323883,1.5435486,0.13745117,-0.022109985,0.09767151
8.867874,0.8594055,1.0527496,0.120407104,0.015167236,-0.033355712999999995
8.891815,0.22973633,0.7295227,0.120407104,0.027954102,-0.035491943
8.903777999999999,-0.13179016,0.5499573,0.12466431,-0.0039978027,0.019897461
8.326782000000001,0.17945862,0.6074219,0.07885742,0.031158447000000002,0.05505371
8.568588,0.43803406,0.3751831,0.017074585,0.15153503,0.026290894
8.824767999999999,0.55773926,-0.050979614000000006,-0.015945435,0.31770325,-0.04295349
8.202286,0.6582946999999999,-0.096466064,0.035186768,0.33155823,-0.11857605
8.130447,0.6941986,-0.30236816,0.15449524,0.15791321,-0.13668823
8.69548,0.8163147,-0.9583893,0.23864746,-0.03276062,-0.02909851
9.430511,0.8306732,-1.408493,0.075668335,0.0055847169999999995,0.17010498
9.617249000000001,0.69659424,-1.3414612,-0.21089172,-0.13502502,0.3799591
9.001938,0.27043152,-0.43884277,-0.36535645,-0.13716125,0.42683409999999994
8.367477000000001,-0.7111969,-0.031829834,-0.534729,0.31983948,0.40872192
9.131226,-1.0439911,-0.5561676,-0.6061095999999999,-0.012527466000000001,0.5461425999999999
10.759293,0.30395508,-0.8937378,-0.46975708,-0.27990723,0.59620667
10.977158,1.7452545,-0.8745879999999999,-0.2598877,0.13661194,0.56211853
11.089691,2.7891388,-1.7819976999999998,0.08206177,0.2601776,0.6228484999999999
12.590850999999999,2.5281677000000005,-1.918457,0.3238678,0.32836914,0.73683167
13.3402405,2.683792,1.2107544,0.43466187,0.2559204,0.7229767
12.308334,1.457962,2.1708374,0.3984375,0.053527832000000004,0.49394226
10.285233,-1.644928,1.9098663,0.29084778,-0.024246216,0.08488464
8.53508,-2.3177032000000004,4.165207,0.18965149,-0.047683715999999994,-0.21978760000000003
8.491974,-2.4685363999999996,4.849945,0.17900085,-0.08709717,-0.39767456
11.058563000000001,-0.917099,5.0893707,0.21202087,-0.14248657,-0.45520020000000005
14.024979,1.007843,4.0526733,0.13319397,0.04499817,-0.25706482
14.264404,1.0126343,2.233078,-0.018081665,0.083343506,-0.08555603
11.570922999999999,0.18185425,1.244278,-0.17680359,0.18988037,-0.034423828
9.933289,0.18663025,1.165268,-0.3078308,0.27510070000000003,0.0018005370999999999
9.610077,0.26324463,1.105423,-0.3302002,0.106781006,0.023101807000000002
8.420150999999999,1.244873,0.42306520000000003,-0.34617615,0.06629944,0.06251526
7.531905999999999,1.7189178,-0.017471313,-0.3536377,0.029022217000000003,0.023101807000000002
7.622878999999999,1.1275635,-0.0030975342,-0.3770752,0.016235351999999998,0.015640259
7.0698240000000006,0.5840759,-0.30236816,-0.46655273,0.046066284000000006,0.08595276
7.5175323,0.4045105,0.33926392,-0.6061095999999999,-0.061523438,0.12643433
8.197494500000001,0.7373046999999999,-0.0030975342,-0.64764404,-0.12757874,0.061447144
9.078552,0.81152344,-0.5753174,-0.5613556,-0.2554016,-0.09941101
9.626831,0.7875824,-0.88656616,-0.31422424,-0.18936157,-0.32310486
9.222214,0.8570099,-1.0804901000000002,-0.055358887,0.01411438,-0.4243164000000001
8.341141,0.7085724,-1.1068268,0.23864746,0.29853820000000003,-0.39448547
7.970047,1.5202026000000002,-0.9224701,0.47940063,0.35179138,-0.40299988
9.164749,2.2935333,-0.285614,0.6189574999999999,-0.12437439,-0.51698303
12.511841,1.0940398999999998,1.1628723,0.6125641,-0.14567566,-0.5500183000000001
13.972304999999999,-0.9362488000000001,0.7774048000000001,0.46875,-0.1797638,-0.5500183000000001
12.583664,-1.7622375,-0.36941528,0.33026123,-0.035964966,-0.59155273
13.040955,-1.403122,1.8045197,0.16728210000000002,0.1259613,-0.5862274000000001
13.622757,-1.427063,2.652069,0.021331787,-0.001876831,-0.5223236
10.859848,1.1754456,1.6967773000000002,-0.031921387,-0.18190002,-0.35507202
8.604507,2.0110168,2.0774689,0.025604248,-0.22131348,-0.12390137
8.934906,1.7117461999999999,2.9321900000000003,0.073532104,-0.1446228,0.10725403
10.337906,1.8841248,3.7653809000000003,0.05116272,-0.090286255,0.26171875
12.191025,0.89772034,3.7893220000000003,0.06288147,-0.12011719,0.31071472
12.363403,0.37817383,2.6209412,0.15023804,-0.15100098,0.29048157
11.027435,0.67744446,1.833252,0.22267151,-0.080703735,0.19886779999999998
9.722595,1.1610718,1.4717255,0.25036620000000004,0.0087890625,0.06677246
9.04982,0.93362427,1.1125946000000002,0.23864746,0.0471344,-0.018447876000000002
8.776886,0.10523987,1.0288085999999999,0.2418518,0.024765015,-0.022705077999999997
8.429733,-0.35684204,1.0431671,0.24078369,-0.010391235,0.025222777999999998
8.515915,-0.2634735,0.84684753,0.19284058,0.04499817,0.065704346
8.594925,0.05494690000000001,0.5116577,0.12892151,0.07376099,0.046539307
8.338745,0.5601349,0.3129425,0.10017395,0.07908630000000001,-0.031234741
8.092148,0.6511078,0.36082458,0.108688354,0.04925537,-0.12284851
8.29805,0.552948,0.12619019,0.15556335,-0.010391235,-0.13668823
8.961243,0.46914673,-0.5489807,0.17153929999999998,-0.15420532,-0.023773192999999998
9.389801,0.67744446,-1.0541534,0.023468017999999997,-0.28735352,0.21484375
9.475997999999999,0.710968,-0.9871216,-0.18319702,-0.28523254,0.43429565
8.927719,0.6032257,-0.75727844,-0.30464172,-0.023178099999999997,0.41618347
8.065811,-0.28741455,-0.75009155,-0.4793396,0.31558228,0.3948822
8.822372,-0.8596344000000001,-0.7261505,-0.54219055,-0.049804688,0.56211853
11.010681,0.9360199,-0.30715942,-0.39944458,-0.1446228,0.61857605
11.786392,2.3892975,-1.0733032,-0.22261047,0.19306946,0.63456726
11.594864,2.5449219,-2.3326569,0.040512085,0.25805664,0.7464142
11.977936,1.6040039,-1.8274841,0.19071960000000002,0.31770325,0.85720825
12.593246,2.2983246,1.0431671,0.26741028,0.10145569,0.7101898
11.843857,1.0916443,1.9194488999999997,0.23545837,-0.17124939,0.3245697
9.708236999999999,-1.8843536,2.6401062,0.14491272,-0.17764282,-0.086624146
8.575775,-1.6832428,4.972046,0.030929565,-0.078567505,-0.3582611
9.224609,-1.0822906,5.3216095,-0.0052948,-0.06259155,-0.51486206
12.138351,-0.43585205,5.0223236,-0.01701355,0.043930054,-0.5042114000000001
14.695357999999999,0.24169922,3.5594788,-0.074539185,0.08547974,-0.3263092
13.957947,0.28001404,1.6058044,-0.17787170000000002,-0.04234314,-0.13668823
11.67627,0.34225464,0.7391052,-0.29504395,0.0045166016,0.014572143999999999
10.455231,0.770813,1.0599213,-0.35896300000000003,0.19413757,0.07102966
9.698654,0.9216614,1.0455627,-0.3855896,0.15153503,0.10618591
8.049057000000001,1.2951508,0.4733429,-0.42713928,0.04925537,0.09660339
7.117706299999999,1.2424773999999998,0.032806396,-0.46122742,0.08015442,0.025222777999999998
7.440917999999999,1.1443176000000002,-0.06535339,-0.46868896,0.095062256,0.012451172
7.984405499999999,0.37338257,-0.14196777,-0.49212646,-0.06365967,0.075302124
7.934128,0.3542328,-0.09408569,-0.53686523,-0.22238159,0.122161865
8.37706,0.7995453,-0.18745422,-0.51982117,-0.21279907,0.07849121
9.179108,0.85461426,-0.6830596999999999,-0.3770752,-0.26605225,-0.13775635
9.1623535,0.7516632,-0.953598,-0.1267395,-0.045547485,-0.33802795
8.209457,0.40211487,-1.1259766000000002,0.10443115,0.095062256,-0.32737732
7.5366974,0.2895813,-1.597641,0.39097595,0.28149414,-0.29647827
7.7617493,1.4459839,-0.94641113,0.5720824999999999,0.2793579,-0.42004395
9.818359,2.0134125,0.3464508,0.6477050999999999,-0.060455322,-0.6224518
12.870972,0.3470459,1.5555267,0.6402588,0.036483765,-0.6277771
12.772812,-1.5323944,0.12619019,0.6040344,-0.1797638,-0.61605835
11.819916000000001,-1.4797363000000001,-0.9009246999999999,0.45703125,-0.029571532999999997,-0.63949585
13.503036499999999,-0.9434203999999999,1.1772461,0.21202087,0.10891724,-0.6373595999999999
14.740845000000002,-1.0918732,1.6752319,-0.01914978,-0.001876831,-0.59794617
11.367416,1.8290558000000001,2.2498473999999997,-0.11714172,-0.18508911,-0.5116577
9.179108,1.6542816000000002,3.0926056,-0.052169799999999995,-0.3757782,-0.31033325
9.526276,1.1371307,3.0207825,0.019210815,-0.37471008,0.010314941
10.292419,1.6806183000000001,3.3344116,0.0074920654,-0.27244568,0.20951843
11.238128999999999,1.4627379999999999,3.3655396,-0.009552001999999999,-0.30653379999999997,0.23721313
11.542191,1.1083983999999998,2.896286,3.0517577999999997e-05,-0.29269409999999996,0.21910095
10.294815,0.8067321999999999,2.2139282000000002,0.0415802,-0.24156189,0.08274841
9.145599,0.9096832,1.5291901,0.0415802,-0.11904907,-0.08023071
8.661972,0.7181549,0.9833069,0.040512085,0.046066284000000006,-0.10685730000000002
8.542252000000001,0.4045105,0.88993835,0.1161499,0.071640015,-0.0834198
8.353119,0.44999695,0.64334106,0.17047119,0.153656,-0.046142578
8.688309,0.24169922,0.16209412,0.19497679999999998,0.23568726,-0.0014038085999999999
9.741745,0.34944153,-0.22575378,0.20562744,0.34327698,0.047607422
9.344315,0.42605590000000004,-0.5178528,0.20455933,0.5531311,0.04121399
8.887024,0.6104126,-0.12998962,0.23120117,0.57870483,-0.020584106
8.942093,0.8953247,-0.43884277,0.30895996,0.32197570000000003,-0.0834198
9.183899,0.70617676,-1.0350037,0.40696716,-0.08921814,-0.06425476
9.748932,0.54096985,-1.3558197,0.2652893,-0.19148254,0.14666748
10.361847000000001,0.5337982,-1.2145691,-0.09158325,-0.16059875,0.38848877
9.602889999999999,0.552948,-0.62080383,-0.25030518,-0.25860596,0.47157288
7.8000490000000005,0.18423462,-0.3502655,-0.36747742,0.1302185,0.53656006
7.3164215,-0.9099120999999999,-0.8243103,-0.45057678,0.09826660000000001,0.73683167
9.313187,0.028625487999999998,-0.8793793,-0.33872986,-0.11479187,0.7741089
10.881393,1.5824585,-0.1850586,-0.11395264,0.15046692,0.6771698
10.677887,2.8370208999999997,-1.0948486000000002,0.18751526,0.23461914,0.7293701
11.403319999999999,2.6574554,-1.6000366000000001,0.35902405,0.3486023,0.9296416999999999
12.923645,2.3605652000000004,0.8995209000000001,0.40057373,0.10040283,0.93496704
13.050537,1.3190918,1.6177673000000001,0.29617309999999997,-0.2511444,0.6217804
11.072922,-1.2403107,2.2857513,0.07034302,-0.2266388,0.16691589999999998
8.831955,-1.4677582,3.8994446000000003,-0.14910889,-0.10839844,-0.17823792
8.369873,-1.4438171,4.7422028,-0.3035736,-0.09986877400000001,-0.35081482
10.658737,-0.7878113,5.1085205,-0.33338928,-0.09881592,-0.40087890000000004
13.914841000000001,0.9264374,3.7127074999999996,-0.32273865,-0.03489685,-0.30819702
14.9730835,1.5800629,1.2730103000000002,-0.35150146,0.18241882,-0.1771698
12.643524000000001,1.6231537,0.27223206,-0.3813324,0.18135071,-0.07171631
10.388183999999999,1.8242645,0.55714417,-0.35682678,0.092941284,-0.032287598
9.827942,0.98869324,0.87557983,-0.33233643,0.06736755,-0.007797241
9.62204,0.86180115,1.0192261,-0.36003113,-0.022109985,0.0071258545
8.930114999999999,0.5673064999999999,0.5116577,-0.36535645,-0.104141235,0.0018005370999999999
7.6803436000000005,0.15789795,0.4948883,-0.35256958,-0.102005005,-0.023773192999999998
7.048278999999999,-0.2993927,0.7295227,-0.32273865,0.02583313,0.004989624000000001
7.1631927,-0.34008790000000005,0.64094543,-0.29611206,0.14193726,0.07423401
7.828780999999999,0.44999695,0.5236206,-0.31315613,0.029022217000000003,0.15731812
8.489578,0.8809509,0.33448792,-0.34724426,-0.12863159,0.13920593
9.212631,0.78279114,-0.29519653,-0.36109924,-0.31506348,-0.086624146
9.452057,0.39013672,-0.96318054,-0.27693176,-0.31825256,-0.36679077
9.176727,0.33268738,-1.0924683000000002,-0.0990448,0.20799255,-0.42538452
8.3315735,0.5170288,-1.1451263,0.13426208,0.39866638,-0.48822020000000005
7.8096312999999995,1.0222168,-1.3486481000000001,0.33772278,0.46897888,-0.6235199
8.673935,2.4084472999999997,-0.53700256,0.51348877,0.35925293,-0.65867615
11.379379,2.391693,-0.127594,0.65623474,0.17176819,-0.54574585
13.452759,0.789978,0.92585754,0.50497437,-0.08282471,-0.36358643
13.594025,-0.89793396,0.43743896,0.37393188,-0.26605225,-0.31140137
13.998642000000002,-1.6425323,0.64094543,0.18751526,0.08547974,-0.33163452
14.36496,-2.3727722,1.6512909,0.040512085,0.23887634,-0.42218018
12.353821,0.04058838,1.6608734,-0.032989502000000004,0.07376099,-0.49781800000000004
9.100098,2.7915343999999997,2.1660461,-0.037246704,-0.11158752400000001,-0.45840454
8.137634,2.6766052000000005,2.5131989,0.021331787,-0.19575499999999998,-0.31352234
8.975601,2.0565033,2.3791351,0.08099365,-0.17550659,-0.033355712999999995
9.926102,0.75405884,2.9130402,0.09164429,-0.057266235,0.20632935
11.190247,-0.15573120000000001,3.3320160000000003,0.110824585,-0.06791687,0.33415222
11.484726,0.16508484,2.8914948,0.15982056,-0.22557068,0.2776947
10.3953705,0.75645447,2.0894318,0.2141571,-0.16271973,0.112579346
8.805617999999999,1.1921997,1.5651093,0.30789185,0.02583313,0.026290894
8.678726,0.78518677,1.1365356000000002,0.39204407,0.038604736,0.044403076
8.738586,0.3757782,1.074295,0.42507935,-0.08177185,0.03907776
9.04982,0.026229857999999998,1.0958405,0.35583496,-0.09561157,0.012451172
9.784851,-0.6154175000000001,0.84684753,0.24717712,0.023696900000000003,0.006057739300000001
9.085739,-0.92666626,0.34884644,0.15768433,0.14086914,-0.020584106
8.049057000000001,-0.16770935,0.43264769999999997,0.07885742,0.25805664,-0.06851196
8.084961,0.28240967,0.41110230000000003,0.059692382999999995,0.21438599,-0.1260376
8.937302,0.8881378000000001,-0.09169006,0.09164429,-0.090286255,-0.13562012
9.677109,1.1874083999999998,-0.9607849,0.057556152,-0.23516846,-0.05039978
9.993149,0.9551697,-1.5186309999999998,-0.08305359,-0.19787598,0.11578369
10.002716,0.82110596,-1.5042572,-0.28865050000000003,-0.080703735,0.2734375
8.977997,0.86898804,-1.0852814,-0.40583800000000003,-0.04447937,0.33947754
7.5462646,0.23690796,-1.1140136999999999,-0.5581665,0.2836151,0.38848877
7.931732000000001,-0.82611084,-1.6598816000000003,-0.6103668000000001,0.21650696,0.59088135
10.261291499999999,0.43803406,-0.8889618,-0.49105835,-0.07431030000000001,0.7432251
11.695419000000001,2.5664673,-0.285614,-0.30036926,0.10572815,0.75387573
11.451217999999999,2.695755,-1.0613403000000001,0.005355835,0.21543884,0.75920105
12.100037,2.3773346,-1.0350037,0.29724120000000004,0.3731079,0.7709198
13.105606,2.9184265,1.1437225,0.44317627,0.19839478,0.681427
12.147919,1.6878052,2.2019653,0.38565063,-0.066848755,0.43962097
9.856674,-1.5347899999999999,2.2977295,0.2216034,-0.14355469,0.07849121
8.839141999999999,-2.5762787,4.0933839999999995,0.04902649,-0.13822937,-0.18888855
9.770477,-2.6840057,5.491592400000001,-0.09477234,-0.11904907,-0.32949829999999997
11.953994999999999,-1.3911438,5.596939,-0.17359924,-0.09135437,-0.36891174
14.312285999999999,0.24409485,4.1676025,-0.27053833,-0.08921814,-0.29115295
13.708939,0.4619751,1.7542419999999999,-0.3770752,0.08547974,-0.16119385
10.876602,0.5816803,0.6194,-0.43032837,0.21757507,-0.08129883
9.490356,0.9671478000000001,0.6313629,-0.4005127,0.1174469,-0.037628174
9.241364,0.94081116,0.8731841999999999,-0.34191895,0.04499817,0.0028533936
8.803223,1.2305145,0.64334106,-0.29078674,-0.001876831,0.035888672
8.379456,1.3454285,0.4733429,-0.29185486,0.013046265,0.03161621
7.5606384,0.85461426,0.15492249,-0.31315613,0.1174469,0.030563353999999997
7.100952,0.14353943,0.521225,-0.34085083,0.15791321,0.040145874
7.484024000000001,-0.19165039,0.51882935,-0.44311523,-0.047683715999999994,0.07423401
8.240585000000001,0.21775818,0.18365479,-0.5208893,-0.15420532,0.056121826
9.243758999999999,0.6726532,-0.4125061,-0.48146057,-0.12330627400000001,-0.04295349
9.933289,0.5840759,-0.9152832000000001,-0.37919617,-0.20213318,-0.23895264
9.765686,0.5314026,-0.9320526,-0.14590454,0.06524658,-0.38276672
8.772095,0.5936431999999999,-0.9392395,0.11294556,0.17176819,-0.36891174
8.144821,0.9503784,-1.2097778000000001,0.30682373,0.31983948,-0.29328918
8.2765045,2.3390197999999995,-0.46517944,0.35369873,0.18455505,-0.33589172
10.347488,2.0205994,0.008865356,0.36434937,-0.18508911,-0.5212555
13.266022,0.016647339,1.2825928,0.22692871,0.020507812,-0.50953674
13.084061,-1.2091827,0.33209229999999995,0.11294556,-0.07217407,-0.49568176
11.87738,-0.94821167,-0.17787170000000002,0.10443115,0.029022217000000003,-0.5020752
12.581268,-0.5819092,1.2730103000000002,0.07673645,0.28681946,-0.41471863
13.304321,-0.09349060000000001,0.99528503,0.0884552,0.27296448,-0.3263092
10.831116,2.9615172999999997,0.49967957,0.18325806,-0.03276062,-0.2709198
9.04982,2.525772,2.7047423999999998,0.28338623,-0.19361877,-0.14733887
9.246155,1.031784,3.2889252,0.29937744,-0.13609314,0.067840576
10.038635000000001,0.13156128,3.3368073,0.20562744,-0.14141846,0.25213623
10.728164999999999,-0.7423095999999999,3.6504517,0.0415802,-0.08177185,0.28515625
11.171097,-1.0032806,3.4708862000000003,-0.023406982000000003,-0.09561157,0.13815308
10.735352,-0.11743164,2.3096924,0.04902649,-0.10093689,0.04333496
9.959625,1.2688141000000002,1.644104,0.07992554,0.03541565,-0.046142578
9.519089,1.7404785,1.2059784,0.09590149,0.07482910000000001,-0.02909851
9.492752000000001,1.41008,0.71995544,0.14703369,-0.033828735,0.040145874
9.3754425,0.5122528000000001,0.7510680999999999,0.18112183,-0.08389282,0.06890869
9.303619,-0.39276123,1.1604767,0.15130615,0.0034637451,0.061447144
9.212631,-0.2634735,0.5020752,0.08950806,0.1451416,0.0018005370999999999
8.159180000000001,0.009460449000000001,0.24110413,0.06713867,0.27189636,-0.07916260000000001
7.754562400000001,0.37817383,0.6170044,0.10229492,0.28256226,-0.13775635
8.525497,0.7803955,0.58348083,0.19816589999999998,0.16218567,-0.16758728
9.258118,0.7229309,-0.17070007,0.34411620000000004,-0.060455322,-0.17184448
10.072144,0.5266113,-0.73573303,0.37287903,-0.38323975,0.023101807000000002
10.184677,0.51942444,-0.79078674,0.1161499,-0.32997129999999997,0.32563782
9.224609,0.67744446,-0.5585479999999999,-0.20875549999999998,-0.16804504,0.49819946
7.926941,0.41647340000000005,-0.24971008,-0.40156555,0.08229065,0.5014038
7.567810000000001,-0.93385315,-0.5585479999999999,-0.6050415,0.010910033999999999,0.66438293
8.896591,-0.9697571,-0.4412384,-0.5826720999999999,-0.29162598,0.8231200999999999
10.438461,1.062912,-0.6878357,-0.35256958,0.016235351999999998,0.7698517
10.697037,2.2911377,-1.3917389,0.046905518,0.20904541,0.67077637
11.585281,3.2344513,-1.0661316,0.35795593,0.20904541,0.681427
12.930832,3.7635650000000003,1.3137054,0.47940063,0.07589722,0.6271057
13.136733999999999,3.0405273,2.8052979,0.4026947,-0.043411255,0.39381409999999994
11.585281,-1.0822906,2.6831970000000003,0.21948242,-0.09347534,0.06997681
9.952438,-3.1676482999999998,4.090987999999999,0.024536132999999998,0.02583313,-0.13136292
9.689072,-3.3184814,5.312027,-0.055358887,0.03967285,-0.32844543
11.4991,-1.6856232,4.849945,-0.023406982000000003,-0.057266235,-0.47117615
13.938782000000002,0.78518677,3.6504517,-0.023406982000000003,0.11105347,-0.35186768
13.711333999999999,2.0660858,1.8452301,-0.100097656,0.036483765,-0.10473633
11.020247999999999,1.6662445,0.3536377,-0.19598389,0.13661194,0.06890869
9.46402,0.8474425999999999,0.53559875,-0.19703674,0.08547974,0.063583374
9.863861,0.14114379999999999,1.1317443999999999,-0.20556639999999998,-0.14141846,0.087020874
8.683517,0.5720978,0.5810852,-0.25776672,-0.13395691,0.09767151
7.2852936,1.2879638999999998,0.32730103,-0.325943,-0.035964966,0.03375244
6.8495482999999995,1.0198212,0.10942078,-0.35577393,-0.04447937,-0.041885376
7.225448599999999,-0.10305786,0.24589539,-0.40263367,-0.017852783,-0.021636963
7.8814545,0.11001587,0.6960144,-0.46548462,-0.13502502,0.063583374
8.824767999999999,0.75645447,0.123794556,-0.45483398,-0.21598816,0.09979248
9.56218,0.78518677,-0.6758728,-0.41862488,-0.24261475,0.034820557
9.796814,0.62716675,-0.85543823,-0.31848145,-0.30867004,-0.23683167
9.437683,0.5050659000000001,-1.1834412,-0.16082764,0.10040283,-0.39022827
8.444092,0.5098572,-1.5018768,0.02772522,0.41677856,-0.28796387
7.898208599999999,1.0605163999999998,-1.5138397,0.25250244,0.46791077,-0.30712890000000004
8.365082000000001,2.671814,-1.0254211,0.50923157,-0.028503418,-0.6139220999999999
11.345871,2.0804443,-0.2568817,0.66156006,-0.19148254,-0.81951904
13.610779,-0.2706604,0.7391052,0.6232147,-0.1531372,-0.7438965
11.700211,-1.0990448,-0.22097778,0.4921875,-0.18936157,-0.6288451999999999
11.678664999999999,-0.8907623,1.45018,0.22480774,0.07057189999999999,-0.5074005
14.889282000000001,-2.3751678,3.6672057999999996,-0.015945435,0.11956787,-0.46372986
14.115951999999998,-1.0846863000000002,2.85318,-0.0990448,-0.10946655,-0.43389893
9.64119,1.6446991000000002,2.6760101,-0.05429077,-0.27670288,-0.3263092
7.756958,2.0612946,2.7669982999999996,0.04902649,-0.29588318,-0.065322876
8.353119,3.1793823,2.896286,0.12147522,-0.25221252,0.21165466
10.833511,2.1977692,3.1835785,0.17579651,-0.14994812,0.31924438
12.588455,0.7181549,3.0854187,0.25357056,-0.022109985,0.32243347
12.243698,0.2273407,2.161255,0.3238678,0.026885986,0.22337341
10.57254,0.5050659000000001,1.4717255,0.36860657,0.15046692,0.13494873
9.145599,0.7157593000000001,1.0647125,0.41336059999999997,0.21543884,0.15092468
9.009125,0.24409485,0.72473145,0.50390625,0.13768005,0.08274841
8.642807000000001,0.05973816,0.59783936,0.5454406999999999,0.07482910000000001,0.04547119
8.88942,0.09086609,0.8061371,0.53266907,0.17495728,0.035888672
9.174332000000001,-0.11503601,0.5810852,0.5252074999999999,0.26657104,0.015640259
8.089752,-0.05757141,0.20999146,0.57315063,0.35073853,-0.0014038085999999999
7.642028999999999,-0.16531372,0.43264769999999997,0.6168213,0.34753418,0.009246826
7.9077910000000005,0.37098694,0.26026917,0.6636963,0.09187317,-0.034423828
9.179108,1.0054474,-0.19464111,0.71055603,-0.22344970000000003,-0.074905396
10.127213000000001,0.8187103,-0.43165588,0.5955199999999999,-0.36831665,0.067840576
10.060181,0.47154236,-0.32870483,0.120407104,-0.14994812,0.3330841
9.131226,0.44999695,-0.12998962,-0.19810486,-0.14674377,0.42364502
8.152008,0.2895813,-0.34068298,-0.27267456,0.050323485999999994,0.46199036
7.9413146999999995,-0.5938720999999999,-1.281601,-0.2609558,0.26551820000000004,0.64733887
9.478394,0.12438965,-1.5353851,-0.06600952,0.11210632,0.76345825
11.178268,1.9391937,-1.0804901000000002,0.17579651,0.046066284000000006,0.7272339
11.477554,3.0716553,-0.9942931999999999,0.45277405,0.2239685,0.7517395
11.523041000000001,3.5361176,-1.3007507,0.6764679,0.36778259999999996,0.8912964
13.067291,3.0620727999999997,0.3464508,0.8021698,0.3262329,0.94348145
13.706543,2.1115722999999997,2.7095337,0.7840729000000001,0.21650696,0.7506714
11.132782,-1.1325684,3.1045685,0.6956482,0.19413757,0.33947754
8.860686999999999,-2.3703766,3.2075195,0.6402588,0.28256226,-0.031234741
8.898987,-1.941803,4.351959,0.6082916,0.25379944,-0.17823792
11.032227,-0.91947937,5.0007779999999995,0.658371,0.19734192,-0.23469543
13.445587,0.40211487,4.150833,0.66049194,0.29533386,-0.18675232
14.139892999999999,0.79714966,2.5874328999999996,0.5763397,0.29533386,0.006057739300000001
12.19342,0.71336365,1.5004578000000002,0.46235657,0.30386353,0.12322998
9.734573,0.7732085999999999,1.0383759,0.40803528,0.28788757,0.15092468
9.167145,0.5936431999999999,1.21315,0.38032532,0.17816162,0.17863464
8.848709,0.49069214,0.81092834,0.29724120000000004,0.09080505,0.17224121
7.4265593999999995,0.928833,0.18125916,0.18965149,0.07057189999999999,0.12536621
6.8016663,1.0844573999999998,-0.058166504,0.11508179,0.11210632,0.102996826
7.0434875,0.38536072,0.080703735,0.024536132999999998,0.22183228,0.17863464
7.1631927,0.4667511,0.18603516,-0.056427002000000004,0.13981628,0.22337341
7.9413146999999995,0.75405884,-0.23773193,-0.04045105,0.023696900000000003,0.19247437
8.898987,0.8929290999999999,-0.7309418000000001,-0.047912598,-0.23410034,0.08595276
9.533463000000001,0.9456024,-1.0948486000000002,0.04902649,-0.30441284,-0.11645508
9.334732,0.82110596,-1.3342743000000001,0.20988464,-0.11265564,-0.22937012
8.752945,0.7037810999999999,-1.1355591,0.34411620000000004,0.011978148999999999,-0.22937012
8.408188,1.2640228,-0.46757507,0.6178894,0.41038513,-0.322052
8.987579,1.7668152,-0.39575195,0.88952637,-0.015716553,-0.48077393
11.429657,0.8665924,0.26026917,0.88526917,-0.0072021483999999995,-0.45094300000000004
12.949982,-0.6968231,1.110199,1.0109711,0.06629944,-0.48716736
12.432831,-1.5371857,-0.23294067,1.1196289,-0.001876831,-0.5212555
13.287567000000001,-0.42149353,1.347229,1.0844726999999998,0.3304901,-0.39448547
14.889282000000001,0.69659424,3.8324127,0.9949950999999999,0.19734192,-0.18675232
12.782394,0.7588501,2.9848632999999998,0.9246825999999999,0.0002593994,-0.09194946
10.639572,0.9743347,4.6296844,0.91082764,0.046066284000000006,-0.003540039
9.511902000000001,-0.08390808,4.1676025,0.9481200999999999,0.13235474,0.16903687
8.645203,1.2520599,3.3415985,0.9747466999999999,0.09933472,0.36824036
8.985184,2.149887,4.172394000000001,1.0141601999999998,0.05885315,0.47050476
11.230942,1.3334656,3.3056946000000003,1.0919341999999999,0.06629944,0.46411133
12.535782000000001,0.8809509,2.3288574,1.1409302,0.048202515,0.30538940000000003
10.773651,0.91926575,2.1157684,1.1632996000000002,-0.07749939,0.12750244
8.209457,0.42605590000000004,2.0678864,1.1931305,-0.13716125,0.087020874
8.125671,-0.036026,1.8955078,1.1846008,-0.0072021483999999995,0.14454651
8.137634,-0.46697998,1.560318,1.0951233,-0.001876831,0.13494873
8.484802,-0.28981018,1.2562561,0.9694214,-0.029571532999999997,0.06251526
8.685913000000001,-0.39994812,1.0168304,0.8245392,0.02583313,-0.013122558999999999
8.755341,-0.5388031,0.8157196,0.7137604000000001,0.030090332,-0.09513855
8.240585000000001,0.39492798,0.097457886,0.7148285,-0.19255066,-0.13668823
8.547042999999999,1.0054474,-0.1850586,0.71694946,-0.49827576,-0.05039978
9.116867,1.0485535,-0.47476196,0.7180175999999999,-0.76246643,0.06037903
9.602889999999999,0.8594055,-1.0445709,0.44317627,-0.4737854,0.24467468
9.52388,0.64871216,-1.0900726,0.058624268,-0.23622131,0.4023285
8.480011,0.29197693,-0.44363403,-0.032989502000000004,-0.11053467,0.45773315
7.335571300000001,-0.92666626,-0.68066406,-0.1352539,0.2836151,0.5717163000000001
8.302841,-1.5443726,-1.8969116000000001,0.010681152,-0.1563263,0.81565857
10.902939,0.05973816,-2.0908508,0.39204407,-0.23942566,0.99142456
11.908508,1.7691956000000002,-1.2624511999999999,0.76382446,0.33155823,1.1064758
11.178268,2.9423676,-1.4994812,1.0642242,0.3017273,1.1767731000000001
12.033005000000001,3.224884,0.059143065999999994,1.2229614,0.02583313,0.9136658000000001
11.863007000000001,3.5552826,3.4828644,1.1590424,-0.092422485,0.33096313
10.519867,0.16748047,4.217880200000001,0.9928589,-0.07431030000000001,-0.2048645
10.471985,-2.605011,4.6392517,0.7798004,0.16644287,-0.43922424
11.278824,-2.2003784,6.9065704,0.6828613,0.18774414,-0.41046143
13.512619,-0.22038269,6.3511047,0.7212219,0.22715760000000002,-0.31777954
15.585999,1.086853,3.7151031000000003,0.76168823,0.3539276,-0.2602539
15.159835999999999,1.7691956000000002,1.9242401000000002,0.7190857,0.3571167,-0.09194946
12.504653999999999,1.9559479,0.45658875,0.66474915,0.31132507,0.14027405
10.014694,1.7141418000000002,0.90190125,0.67541504,0.22076416,0.23828125
9.224609,1.0509491000000002,1.5291901,0.61042786,0.22290039,0.20100403
8.808014,0.64871216,1.0695038000000001,0.46554565,0.10040283,0.08169556
7.5127562999999995,0.36380005,0.6600951999999999,0.30895996,-0.015716553,-0.019515991
6.1480559999999995,0.05734253,0.29617309999999997,0.19923401,-0.0029296875,0.0007324219
6.796890299999999,-0.13897705,0.8085326999999999,0.14277649,0.016235351999999998,0.13494873
7.7234343999999995,0.29916382,0.43743896,0.10443115,0.0002593994,0.24253845
8.427338,1.1083983999999998,0.13337708,0.10443115,-0.008255005,0.19567871
9.064194,1.3981018,-0.32632446,0.19284058,-0.0466156,0.08381653
9.035461,1.3837433000000001,-1.0062714,0.2141571,-0.24794006,-0.01737976
8.288467,0.9072876,-1.4851074,0.3110962,-0.11265564,-0.061050415
7.835967999999999,0.18663025,-1.5952454,0.5060272,-0.02104187,-0.14094543
8.070602000000001,0.49069214,-1.3103333000000001,0.7648925999999999,0.02583313,-0.37850952
8.980392,2.2576141,0.3464508,1.0397339,-0.19148254,-0.54574585
10.996307,1.6375275,0.76065063,0.9992523000000001,0.06097412,-0.45094300000000004
12.435226,-0.88357544,0.80374146,1.0439911,-0.10519409,-0.56811523
12.392136,-1.69281,0.88275146,1.1313476999999998,-0.17550659,-0.70980835
13.258835000000001,-0.7327423000000001,2.1085814999999997,1.0109711,0.09080505,-0.5819701999999999
13.764007999999999,0.34944153,2.4748992999999997,0.8639679,0.0034637451,-0.39555359999999995
11.4991,0.8570099,1.8859253,0.7766113,-0.010391235,-0.21551514
10.582123,0.3183136,4.404632599999999,0.85118103,-0.005065918,-0.016311646000000003
10.807175,-0.16291809,3.9808502,0.9449158000000001,-0.012527466000000001,0.25958252
9.6723175,2.0325623,2.9034576000000003,0.96195984,0.042877197,0.46945190000000003
9.92131,3.4595032,3.40625,1.009903,-0.010391235,0.49926758
11.077713000000001,2.7843475,2.4557495,1.1206969999999998,-0.030639648,0.4023285
12.030609,1.2807921999999998,2.4820862,1.1995239,0.07696533,0.31178284
10.589294,0.52182007,2.0295715,1.2378693,0.04499817,0.21697998
9.073775999999999,0.04058838,1.5698853000000002,1.2378693,-0.066848755,0.12536621
8.2765045,-0.19165039,1.5076447,1.1750183,-0.06259155,0.067840576
