accx,accy,accz,gyrx,gyry,gyrz
7.290085,-1.7311249,1.2945556999999999,0.23332214,-0.41200256,0.102996826
8.21904,-1.1708832,0.53559875,0.24824524,0.027954102,0.16796875
9.064194,-0.74710083,-0.26885986,-0.051101685,0.7779083000000001,0.34161377
10.208618,-0.6465454,-0.5681305,-0.24604797,0.26551820000000004,0.63775635
10.68985,-0.7231598000000001,-1.0733032,-0.095840454,-0.6676635999999999,0.6249695
10.65155,-0.7542876999999999,-1.5138397,0.18005371,-0.35873413,0.43962097
11.178268,-0.14855957,-0.6686859,0.35263062,0.11956787,0.35865784
11.408112,1.1347351,0.56433105,0.34091187,0.25379944,0.24681091
10.962799,1.7093506,-0.22337341,0.099105835,0.27510070000000003,0.110458374
12.164688,0.93362427,0.18125916,-0.036193848,-0.024246216,-0.04827881
14.625916,0.45239258,2.6209412,-0.039382935,-0.30653379999999997,-0.21551514
14.482269,1.5680847,5.438919,-0.0756073,-0.25646973,-0.35081482
11.123199000000001,0.94799805,5.0366974,-0.1267395,-0.1563263,-0.35932922
9.085739,-1.7167511000000002,3.897049,-0.09158325,-0.20959473,-0.28263855
9.677109,-0.8907623,4.761368,-0.051101685,-0.19361877,-0.24215698
10.6922455,-1.055954,3.5690459999999997,-0.056427002000000004,-0.12330627400000001,-0.2794342
11.353043,-1.1996002000000001,2.1253509999999998,-0.16827393,0.021560668999999998,-0.29328918
12.598038,-0.80696106,2.8029022,-0.34191895,0.15686035,-0.24002075
12.782394,0.95277405,1.8476256999999998,-0.49745178,0.06524658,-0.100479126
11.898926,1.8290558000000001,0.5499573,-0.6231536999999999,-0.092422485,0.07209778
9.552612,1.2137451000000001,0.8276825000000001,-0.73713684,-0.13395691,0.23188782
7.64682,0.6606903000000001,1.7638245,-0.8063812,-0.14567566,0.28195190000000003
7.357132000000001,0.6439209,1.6105957,-0.74565125,-0.10307312,0.22123718
7.6635895000000005,0.6415405,1.3448334,-0.5986481,0.15472412,0.09553528
7.3666990000000006,0.7397003000000001,0.33688354,-0.44844055,0.24208069,-0.020584106
7.1536255,0.66308594,-0.18745422,-0.45909120000000003,-0.16166687,-0.019515991
6.7609710000000005,0.44999695,-0.28321838,-0.76908875,-0.43756104,0.028427123999999998
6.5933684999999995,0.36380005,-0.74050903,-1.0577698,-0.29374695,-0.044006348
7.021942,0.24649048,-0.8171234,-1.0641631999999999,0.12489319,-0.29222107
8.365082000000001,-0.05517578,-0.33828735,-0.8085022,0.42530823,-0.7630615
9.358673,-0.11982727,0.169281,-0.29078674,-0.20108032,-0.68104553
10.476776,0.17706299,0.5236206,3.0517577999999997e-05,-0.45141602,-0.26559448
11.592467999999998,-0.14376831,0.76065063,-0.032989502000000004,0.09613037,-0.13989258
11.491913,-0.6561279000000001,0.26264954,-0.046844482,0.153656,-0.107925415
11.592467999999998,-0.69203186,-1.3965302,0.047973632999999995,0.16004944,-0.034423828
12.669861000000001,0.6175841999999999,-1.3223114,0.17153929999999998,0.19734192,0.028427123999999998
14.367354999999998,0.9072876,1.3376465,0.30363464,0.06097412,0.17010498
17.767120000000002,-1.1229858,5.970428500000001,0.40696716,0.009841919000000001,0.34268188
14.532547000000001,-3.1891937,8.419708,0.4261322,0.03967285,0.39913940000000003
7.9652557,-1.1852417,5.932129,0.4026947,0.12915039,0.32563782
8.563797000000001,0.8881378000000001,4.0263367,0.37287903,0.19413757,0.27130127
10.57254,0.9168700999999999,3.3176574999999997,0.40057373,0.28575134,0.27450562
11.355438000000001,0.1698761,2.415039,0.5230713,0.36671448,0.28515625
11.721756,-0.16052246,2.7909393,0.7254791,0.34541320000000003,0.28089905
11.520645,-0.6345824999999999,2.611374,0.91615295,0.21118164,0.23721313
11.434448,-1.2379149999999999,2.142105,1.0344086,0.071640015,0.14559937
10.3953705,-1.6281738000000001,1.9840851000000002,1.0493164,-0.04447937,0.038009644
8.841536999999999,-1.5323944,1.9505615,0.9981841999999999,-0.060455322,-0.06425476
7.749771000000001,-1.2786102,1.7039642,0.90870667,0.05671692,-0.16545105
7.134460400000001,-1.1325684,1.2490691999999999,0.85650635,0.10252380000000001,-0.25706482
6.7082977,-1.1708832,1.05513,0.90657043,0.026885986,-0.26132202
6.667602499999999,-1.4294434,1.1820374,0.9736786000000001,0.013046265,-0.14414978
6.835189999999999,-1.6736602999999999,0.9641571,0.95770264,0.0471344,-0.07064819
6.784911999999999,-1.3336792,0.42306520000000003,0.8224181999999999,-0.005065918,-0.033355712999999995
6.854339599999999,-0.65852356,0.26504517,0.6498413000000001,-0.0061340330000000005,-0.053604125999999995
7.3954315,-0.5531769,-0.26646423,0.45489502,0.25379944,-0.18249512
8.491974,-0.7447052,-0.80755615,0.09164429,0.8918915000000001,-0.16970825
9.430511,-1.190033,-0.48912048,-0.13739014,1.0346375,0.22444153
9.679504,-1.1924286,-0.103652954,-0.2524414,0.43701172,0.7890166999999999
10.316360000000001,-0.6034546,0.104644775,-0.70410156,-0.10307312,0.45985413
11.527832,0.09565735,-0.17070007,-0.64019775,-0.2735138,-0.09088135
12.169478999999999,0.20339966,-1.3582153000000001,-0.34617615,-0.1797638,-0.21125793
12.274811,-0.78541565,-2.6822052000000003,-0.2833252,-0.26393127,-0.10685730000000002
12.033005000000001,-1.9322357,-2.9886627,-0.32061768,-0.20108032,0.06465149
12.42804,-1.1780548,0.17407227,-0.2609558,0.011978148999999999,0.044403076
13.081665,3.090805,5.3575134,-0.28652954,0.11956787,-0.11752319
14.257217,8.195236,9.834671,-0.40690613,-0.043411255,-0.2559967
13.356995000000001,2.1977692,5.884247,-0.5294036999999999,-0.30760193,-0.34121704
9.478394,-2.2051697,3.8515625,-0.6050415,-0.3842926,-0.36891174
8.781677,-1.5084534,7.0502167,-0.6785431,-0.3800354,-0.43603516
9.727386,-2.0782776000000003,4.857132,-0.83833313,-0.36512756,-0.57450867
10.299605999999999,-1.4486084,2.1708374,-1.0865326000000002,-0.29269409999999996,-0.65867615
12.298752,0.21536255,3.1165466,-1.2623138,-0.17124939,-0.6927643
12.784775,1.434021,2.3695526,-1.2878723,-0.05833435,-0.61712646
11.274047999999999,2.0253754,1.8188933999999997,-1.1856079,-0.09881592,-0.41471863
9.219818,1.6423035,2.0966186999999996,-1.0609741000000001,-0.092422485,-0.22297668
7.555847,1.0006714,2.1253509999999998,-1.0066376,-0.08177185,-0.098342896
7.120102,1.1012268,1.8188933999999997,-1.0588378999999999,-0.13502502,-0.025909424
7.8383636,1.2496643,1.3927155,-1.1099701000000002,-0.12863159,-0.04295349
8.099335,1.0844573999999998,0.38716125,-1.0226288000000001,-0.07431030000000001,-0.05253601
7.721039,0.4045105,0.14294434,-0.83833313,-0.04447937,-0.03868103
6.9046173,-0.22038269,0.3249054,-0.5624237,0.092941284,0.006057739300000001
6.650833,0.43084717,0.71276855,-0.40156555,0.14407349,0.114715576
7.4433136,1.1155853,0.91867065,-0.47187805,0.20692444,0.18289185
8.197494500000001,0.67744446,0.49967957,-0.5123595999999999,0.36564636,0.04333496
8.422546,-0.014480591000000001,-0.28321838,-0.42607117,0.69374084,-0.23788452
9.04982,-0.43107605,-0.6686859,-0.024475097999999997,0.17922974,-0.43708800000000003
9.724991000000001,-0.40951538,0.09985351599999999,0.3164215,-0.61865234,-0.21871948
10.663513,-0.35446167,-0.07252502400000001,0.06607056,-0.31292725,-0.16865539999999998
11.599655,-0.7016144,0.7438965,-0.26309204,0.200531,-0.30819702
11.939621,-0.9984894,0.5738983,-0.36322020000000005,0.19520569,-0.30500793
12.3250885,-1.4078979999999999,-0.4125061,-0.27587890000000004,0.26338196,-0.21978760000000003
14.063278,-1.2331238000000002,0.9569701999999999,-0.08944702,0.20799255,-0.08555603
16.292282,-0.6154175000000001,4.596161,0.20137024,-0.21173096,0.14241028
16.962661999999998,0.15551758,8.996704,0.50497437,-0.53131104,0.39167786
10.239746,0.44041443,5.826782,0.597641,-0.3949585,0.47477722
6.562256,1.0222168,2.2809752999999997,0.48153687,-0.19041443,0.43322754
7.759353599999999,1.5273895,3.5211639999999997,0.33558655,-0.012527466000000001,0.36291504
9.626831,2.367752,3.8156586000000003,0.38778687,0.21971129999999997,0.33735657
11.384171,1.1155853,3.537918,0.691391,0.33369446,0.3948822
11.336288,-0.5771179,3.9856415000000003,1.0557098,0.18135071,0.47050476
9.873428,-0.7925873000000001,3.9808502,1.2346802,-0.018920898000000002,0.36930847
9.2677,-0.47416687,3.4206084999999997,1.249588,-0.049804688,0.18501282
8.887024,-0.16531372,2.4581451000000003,1.2101746000000002,0.08547974,0.01777649
8.247772,-0.59866333,1.6824188000000002,1.1515808,0.22822571,-0.084487915
8.058624,-1.0032806,1.1963959,0.95877075,0.36138916,-0.072769165
7.6396484,-1.3863524999999999,1.3544159,0.71269226,0.552063,-0.046142578
6.816039999999999,-1.7023926,2.2187195,0.5443878000000001,0.66604614,-0.024841309
6.4545135,-2.0423737,2.4605408,0.41654968,0.42956543,0.022033691
7.4433136,-1.9058990000000002,1.4358215,0.34518433,-0.025299072000000002,0.018844603999999997
8.254959,-0.86442566,0.2554779,0.32600403,-0.20959473,0.023101807000000002
8.223831,-0.27545166,-0.11802673,0.15982056,0.25273132,0.051864624000000005
8.8702545,0.14114379999999999,-0.10125732400000001,-0.15229797,0.8492736999999999,0.1285553
10.11525,0.14593506,-0.42926025,-0.32168579999999997,0.49774170000000006,0.42150879999999996
11.513458,-0.12939453,-0.69262695,-0.38986206,-0.102005005,0.63349915
12.138351,0.15551758,0.035202026000000004,-0.34085083,-0.23942566,0.49501038
11.491913,1.4387969999999999,0.96894836,-0.20556639999999998,-0.008255005,0.2691803
10.898147999999999,2.2241058,0.39433290000000004,-0.10116577,0.15898132,0.14987183
11.319533999999999,1.7117461999999999,-0.7476959,-0.08200073,0.14939879999999997,0.12962341
13.22052,0.09805298,-0.30236816,-0.062820435,0.011978148999999999,0.13388062
15.341782,-0.30895996,1.9816895,-0.037246704,0.010910033999999999,0.012451172
14.420029000000001,2.2384644000000002,6.4588470000000004,-0.08093262,-0.038085938,-0.119644165
10.596480999999999,3.4571074999999998,7.055008,-0.09370422,-0.23410034,-0.16012573
8.106506,0.9096832,4.893036,-0.06388855,-0.32357788,-0.20167542
7.7617493,-0.5771179,5.158798,-0.12780762,-0.29162598,-0.2943573
9.198273,-1.0822906,5.534683,-0.29504395,-0.18936157,-0.36358643
10.483948,-0.9721527,4.4932099999999995,-0.51982117,-0.17764282,-0.41366577
11.465575999999999,0.20339966,3.648056,-0.69558716,-0.12863159,-0.44136047
11.89653,0.6391449,2.4772950000000002,-0.74139404,-0.15527344,-0.33056640000000004
10.558166499999999,0.44281006,1.8452301,-0.7392578000000001,-0.23516846,-0.06637573
8.776886,0.69181824,2.319275,-0.804245,-0.22024536,0.20100403
7.780899000000001,0.74209595,2.8483887,-0.92355347,-0.1765747,0.32350159999999994
7.5103607000000006,1.0581207000000001,2.4605408,-0.98854065,-0.21812439,0.23402405
7.261352499999999,1.33107,1.7279053,-0.9352722,-0.08282471,0.016708373999999998
6.9572906,1.5489349,0.88993835,-0.77441406,0.02583313,-0.16758728
6.5023956,0.9671478000000001,0.27941895,-0.5560303000000001,-0.15420532,-0.22723389
6.260589599999999,0.11959839,0.6361541999999999,-0.43353270000000005,-0.33210754,-0.13989258
6.8495482999999995,0.19142151,0.6361541999999999,-0.39837646,-0.0061340330000000005,-0.065322876
8.312408,0.8785553,0.33926392,-0.36961365,0.6181183000000001,-0.31777954
9.442474,1.2855682,-0.06774902,-0.011688232,0.9760437,-0.8227234
10.019485000000001,0.9264374,-0.29040527,0.4261322,-0.026367188,-0.73750305
10.783234,0.13395691,0.20999146,0.48153687,-0.6506195,-0.4285736
11.5733185,-0.7830199999999999,0.8779601999999999,0.31321716,-0.09667969,-0.32524109999999995
11.865402,-1.2091827,1.1772461,0.23864746,0.15258789,-0.25280762
11.733734,-1.1756592,-0.206604,0.30470276,-0.00932312,-0.18249512
12.37059,-0.21798706,-0.7381134,0.31747437,0.069503784,-0.09513855
15.420792,0.5122528000000001,1.9433898999999997,0.45063782,-0.019973755,0.04333496
18.4758,-0.04798889,6.5689850000000005,0.6860656999999999,-0.28630066,0.2691803
14.032166,-2.3248749,8.182678,0.7766113,-0.38963318,0.41085815
5.815262000000001,-1.9058990000000002,5.4006195,0.71694946,-0.32783508,0.40020752
5.518387000000001,1.196991,5.259353599999999,0.62960815,-0.22131348,0.39167786
8.690704,2.2384644000000002,4.7733307,0.65730286,0.0023956299,0.45559692
11.75528,1.8386383000000002,3.8659362999999995,0.8628998,0.20478821,0.5301666
13.04335,0.5314026,3.2913208,1.1782073999999998,0.3070526,0.6004791
11.312347,-0.4885254,3.1859741,1.4615784,0.22076416,0.5770416
9.758514,-0.4765625,3.5953827000000005,1.5318756000000002,-0.031692505,0.36184692
8.95166,-0.45262146,3.0878143,1.4487915,-0.11053467,0.15199279999999998
8.180725,-0.88357544,2.4078673999999998,1.3241577,0.071640015,0.040145874
7.4983826,-0.82611084,1.9218445,1.1579742,0.19094849,-0.0045928955
6.744217,-0.6441498000000001,1.8524017,0.8735504000000001,0.585083,0.04547119
6.002014,-1.4055023000000002,1.9601439999999999,0.6210785,0.8567351999999999,0.06251526
5.621322599999999,-2.2769928,2.1684417999999996,0.54971313,0.38587952,0.09979248
6.4952087,-2.4565582000000004,2.1445007,0.47833252,-0.19148254,0.10725403
8.029892,-1.5970459,0.8947296,0.27806090000000006,-0.14035034,0.15838623
8.614075,-0.53163147,-0.24971008,-0.0756073,0.549942,0.28727722
9.478394,0.3183136,-0.7524871999999999,-0.44204712,0.60746765,0.47903442
10.991531,0.6606903000000001,-1.2145691,-0.38452148,-0.40667725,0.53549194
11.8103485,0.5816803,-1.5808716,-0.0990448,-0.62931824,0.38955688
12.044967999999999,0.15072632,-0.32632446,0.2141571,-0.057266235,0.28727722
10.618027,2.1211548,1.4334258999999998,0.28552246,0.20585632,0.27023315
9.957230000000001,3.224884,0.43743896,0.14170837,0.22183228,0.28195190000000003
11.494308,2.1594542999999997,-0.58010864,-0.009552001999999999,0.14833069,0.22444153
14.896469,0.9503784,1.7590331999999997,-0.07133484,0.038604736,0.10511780000000001
16.402420000000003,1.3023376,4.2035065000000005,-0.16827393,-0.1446228,-0.100479126
13.182220000000001,1.0988312,6.600113,-0.23751831,-0.277771,-0.31884766
8.975601,-2.2386932,4.746994,-0.23965454,-0.3289032,-0.4243164000000001
8.401000999999999,-1.5132446000000002,5.788467400000001,-0.23751831,-0.27244568,-0.44348145
8.566193,-0.88597107,5.980011,-0.3312683,-0.18190002,-0.43389893
9.54303,-0.7949829,4.019165,-0.5539093,-0.11053467,-0.43496704
11.271652,0.7373046999999999,3.6696013999999995,-0.8074340999999999,-0.09135437,-0.46905518
11.79837,0.8785553,3.4517365,-0.9256897,-0.18403625,-0.40727234
10.876602,0.6463165,2.1947784,-0.8798828000000002,-0.27244568,-0.20379639
9.887802,0.19621277,1.9242401000000002,-0.87242126,-0.1531372,-0.01737976
8.678726,0.48591614,2.2283020000000002,-1.0045165999999999,0.034347534,0.063583374
7.709076,1.0485535,2.4126434,-1.0812073,0.062042235999999994,0.079559326
7.263748,1.6686401000000002,2.2187195,-0.97254944,0.17176819,0.009246826
7.0363007,1.8027191000000002,1.2370911,-0.7563019,0.200531,-0.08769226
6.8016663,1.5633086999999999,0.29617309999999997,-0.47508240000000007,0.051391599999999996,-0.12710571
6.7035065000000005,1.0892487,0.3464508,-0.3770752,-0.21385193,-0.09408569
7.136856,0.42126465,0.6385498000000001,-0.45271300000000003,-0.2032013,-0.034423828
8.398605,-0.15333557,0.4517975,-0.5539093,0.13768005,-0.09941101
9.540633999999999,-0.51246643,-0.1443634,-0.49638367,0.4008026,-0.37104797
9.85907,0.16508484,-0.1563263,-0.12034607,0.054595947,-0.6192626999999999
10.560562,0.39492798,0.45419312,0.13745117,-0.7241211,-0.36997986
11.235733,-0.77104187,0.98809814,0.059692382999999995,-0.5494232,-0.15586853
11.587677000000001,-1.486908,1.6034088,-0.103302,-0.08389282,-0.16331482
11.83429,-1.1732788,0.56910706,-0.14057922,-0.13609314,-0.17823792
11.889342999999998,0.05973816,-0.6255951,-0.15229797,-0.11158752400000001,-0.14840698
13.182220000000001,1.0772858,0.7845916999999999,-0.17254639,-0.17124939,-0.11325073
14.733657999999998,0.27282715,3.3559723,-0.07347107,-0.38323975,-0.006729125999999999
15.442352,-1.5395813,7.514694,0.07034302,-0.5483551,0.18821716
9.231781,-1.6161957,6.4995575,0.12147522,-0.5707245,0.27023315
6.2581940000000005,0.37098694,3.9066315,0.073532104,-0.54408264,0.24253845
8.269318,0.849823,3.7869262999999997,0.07034302,-0.37791443,0.26811218
10.052994,1.1299438,3.1572418,0.21308899,-0.10946655,0.31071472
11.6595,0.51464844,2.5898132,0.47087097,0.059921265,0.31498718
12.0282135,-0.2706604,2.8723297000000003,0.74464417,0.017303467,0.26704407
11.10405,-0.26826477,2.8124847,0.9758148000000001,-0.21598816,0.16903687
10.888580000000001,-0.11982727,2.659256,1.1164246000000002,-0.32250977,0.053985596
9.782455,-0.79737854,2.2929382,1.1409302,-0.10519409,-0.11645508
8.089752,-1.3504486,1.8308563000000002,1.1015167,0.14193726,-0.275177
6.9333496,-1.4414215,1.4884948999999998,0.9459839,0.30812073,-0.23788452
6.4257812,-1.6305695,1.347229,0.65730286,0.5233002,-0.07383728
5.877502400000001,-2.1094055,1.5483398000000002,0.4026947,0.34007263,0.08062744
5.6189423,-2.2865752999999995,1.5746765,0.29724120000000004,-0.26925659999999996,0.12962341
6.4497222999999995,-1.5012816999999998,1.1987915,0.2546234,-0.6229248000000001,0.14559937
7.8575134,-0.8524475,0.2674408,0.04902649,-0.19787598,0.18821716
9.231781,-0.95539856,-0.52983093,-0.32061768,0.5861510999999999,0.19779968
10.685074,-1.1756592,-0.8314971999999999,-0.44844055,0.4316864,0.37677002
11.163910000000001,-0.9673767,-1.657486,-0.04257202,-0.48869324,0.6313629
11.333893,-0.7949829,-1.870575,0.14810179999999998,-0.34062195,0.68356323
11.4991,0.33029175,-0.21139526,0.2642212,0.28894043,0.5482788000000001
11.092087,2.209732,0.13575745,0.31214905,0.46897888,0.36184692
10.924484,2.08284,-1.3821564,0.19923401,0.31025696,0.21697998
12.988281,0.34465027,-1.7053832999999998,0.14064026,0.08441162,0.03161621
15.442352,-0.6824646,0.073516846,0.11508179,-0.08602905,-0.17077637
14.381714,0.49069214,3.6073608,0.0181427,0.0471344,-0.34442140000000004
10.120041,1.7021636999999998,7.6056669999999995,-0.031921387,0.07057189999999999,-0.38916016
8.183121,-0.43585205,4.490814,-0.041519165,-0.23516846,-0.3859558
9.796814,-0.9003296000000001,4.6344757,-0.07879639,-0.27458190000000005,-0.46905518
10.400162,-0.842865,4.5267334,-0.16508484,-0.15527344,-0.54148865
10.888580000000001,-0.69203186,3.2817383,-0.36109924,-0.045547485,-0.5489501999999999
12.815903,-0.5364075,3.1548462,-0.6039734,0.04925537,-0.49568176
13.488678,0.4045105,1.6321411,-0.82022095,-0.08496094,-0.35186768
13.026596000000001,1.0700988999999999,0.06872558599999999,-0.9853363000000002,-0.28735352,-0.16438293
10.725769,0.86898804,1.0479584000000002,-1.1248931999999998,-0.29481506,0.0028533936
8.403397,0.55055237,1.9481811999999998,-1.2101135,-0.17018127,0.10192871
8.080169999999999,0.7947693,1.4932709,-1.0705566,0.015167236,0.08062744
7.7425995,1.0389709999999999,0.9042969000000001,-0.77015686,0.49560547,-0.010986328
6.911803999999999,1.2472687,-0.12519836,-0.49638367,0.6596526999999999,-0.05467224
6.488037,1.3813476999999998,-0.51545715,-0.4367218,0.08761597,-0.035491943
6.1767883,1.2616272,-0.30955505,-0.52407837,-0.2500763,-0.057861328
5.934966999999999,1.0365753,-0.56333923,-0.4601593,-0.040222167999999996,-0.16331482
6.4497222999999995,0.54096985,-1.0038757,-0.37600708,0.54141235,-0.32949829999999997
7.4050139999999995,0.25128174,-0.8650055,-0.36747742,0.9249115,-0.5904999
8.96843,0.47633362,0.056762695,-0.16615295,-0.027435302999999998,-0.49249268
10.991531,0.6247710999999999,0.8420563,-0.043640137,-0.627182,-0.30500793
11.930054,-0.20361328,1.6225586,-0.20556639999999998,-0.07537842,-0.25706482
11.247711,-1.9226531999999998,0.9904938,-0.22579956,0.11424255,-0.2506714
11.460785000000001,-2.1285553,-0.97514343,-0.084121704,-0.001876831,-0.19741821
13.306717,-0.55078125,-0.5322113,0.028793335,0.11105347,-0.110061646
15.487839000000001,1.2975464,0.24589539,0.15023804,0.036483765,0.04333496
18.506926999999997,1.3478241000000002,4.0047913,0.29510498,-0.19041443,0.25852966
13.993851000000001,-0.79737854,6.521103,0.39204407,-0.28309629999999997,0.43962097
8.027496000000001,-0.39994812,4.940933,0.38992309999999997,-0.22984314,0.43322754
7.2972717000000005,0.40690613,3.4660949999999997,0.32600403,-0.14248657,0.33628845
8.451279,0.84025574,3.9880370000000003,0.2919159,0.0077209473,0.29367065
10.266083,1.41008,3.434967,0.38992309999999997,0.15898132,0.31498718
11.587677000000001,0.72532654,2.8388214,0.6232147,0.23568726,0.34161377
11.372208,0.09086609,3.0183868,0.8778075999999999,0.18241882,0.35972595
11.080109,-0.5675354,2.6472778,1.0397339,-0.040222167999999996,0.29794312
10.720978,-0.8165283,2.2283020000000002,1.1164246000000002,-0.13822937,0.15199279999999998
9.265305,-0.94581604,1.8045197,1.1590424,-0.035964966,-0.035491943
8.106506,-0.8739929,1.5459441999999999,1.1238861,0.018371582,-0.1494751
7.369095,-0.91947937,1.2825928,0.90657043,0.21864319,-0.17823792
6.6628112999999995,-1.2905883999999999,1.2346953999999999,0.5337219,0.5254364,-0.11112976
6.2486115,-1.6545105,1.3639832,0.32067870000000004,0.43489075,-0.01524353
6.0546875,-1.8723755000000002,1.3807526,0.32919312,-0.12544249999999998,0.08488464
6.3036804,-1.4629669,0.85162354,0.31961059999999997,-0.44927979999999995,0.20951843
7.1703796,-0.54359436,0.028030396000000003,0.005355835,-0.016784668,0.31924438
7.88385,-0.36402893,0.14294434,-0.51449585,0.68629456,0.35865784
9.006729,-0.5100707999999999,0.43504333,-0.5954437,0.13342285,0.39381409999999994
10.737732000000001,-0.73513794,-0.95599365,-0.084121704,-0.7986908,0.41725159999999994
11.963577,-0.6537323,-1.384552,0.16621399,-0.418396,0.41297913
12.298752,0.23213196,0.056762695,0.41015625,0.09187317,0.41937256
11.336288,2.1450958,0.26504517,0.3984375,0.27296448,0.34693909999999994
11.120819000000001,2.1594542999999997,-0.6974182,0.12573242,0.36564636,0.18075562
13.620360999999999,0.789978,-0.8099518,-0.058563232,0.17283629999999997,-0.030166626000000002
16.26117,0.04537964,1.2155457,-0.084121704,-0.05406189,-0.19847107
15.020966,1.4986572,4.9385376,-0.15975952,-0.09135437,-0.35507202
9.868637,1.4483795,7.4021606,-0.22900389999999998,-0.12011719,-0.4093933
7.72583,-2.0998229999999998,4.251404,-0.26309204,-0.21173096,-0.38916016
8.705063,-1.1349639999999999,5.2090760000000005,-0.29397583,-0.12118530000000001,-0.42004395
10.105667,-0.842865,3.7294617,-0.36961365,0.0034637451,-0.47117615
11.57811,-1.0703278,1.8955078,-0.5251465,0.048202515,-0.4520111
12.64592,-0.5843048000000001,2.4198303,-0.74565125,0.09613037,-0.39767456
13.067291,1.0437622,2.1780242999999997,-0.9576415999999999,0.018371582,-0.29541016
12.382553,2.034958,0.7798004,-1.0769501,-0.15420532,-0.07064819
10.201431,1.517807,0.9282379000000001,-1.1738892,-0.14674377,0.13601685
8.319595,0.91207886,1.3616028,-1.2037201000000002,-0.047683715999999994,0.24786377
7.821594,0.87376404,1.3999023000000002,-1.108902,-0.00932312,0.21058655
7.4888,1.1682587,1.2778015,-0.86816406,0.22608948,0.06037903
6.7609710000000005,1.457962,0.64572144,-0.5549774000000001,0.46365356,0.003921509
6.282135,1.3071289,0.17886353,-0.32913208,0.28042603,0.06037903
6.181579599999999,1.1826172,-0.36462402,-0.28865050000000003,-0.017852783,0.061447144
5.7577972,1.0677032,-0.41729736,-0.22793579,0.21011353,-0.063186646
6.358749400000001,0.5050659000000001,-0.29998779999999997,-0.27481079999999997,0.7949524,-0.27197266
7.213470500000001,0.22015381,0.13337708,-0.15229797,0.83862305,-0.5713196
8.8535,0.12199402,0.34405518,0.13851929,-0.22877502,-0.4701233
11.06575,0.28479004,0.73191833,0.17900085,-0.5057373,-0.33270264
12.382553,-0.21319580000000002,1.3089294,-0.053237915,0.15898132,-0.28050232
12.492691,-1.8053436,1.153305,-0.13951111,0.18774414,-0.2602539
12.164688,-2.8923035,-1.3318787,-0.09158325,0.03967285,-0.26559448
13.8909,-1.6569061,-1.0541534,-0.048965454000000005,0.026885986,-0.1963501
16.888443,0.9384155000000001,1.5243988000000002,0.02986145,-0.15953064,-0.044006348
18.945068,1.5704803,6.1954956,0.16835022,-0.44714355,0.14987183
12.238907000000001,-0.17727661,6.7222137,0.28552246,-0.58670044,0.29154968
6.3994446,0.21775818,4.713470500000001,0.22480774,-0.48017883,0.24786377
6.442535400000001,0.40211487,3.6456604,0.023468017999999997,-0.33422852,0.15092468
8.130447,0.7947693,4.181961,-0.13313293,-0.16166687,0.12962341
10.498322,1.4699249,3.6672057999999996,-0.072402954,0.11424255,0.17863464
11.884567,0.86898804,3.5235595999999996,0.20243835,0.29853820000000003,0.22869873
11.314743,0.12918091,3.5905913999999997,0.5944519,0.16537476,0.27557373
10.742523,-0.6944275,3.2697754,0.9151001,-0.18403625,0.24041748
10.369034,-0.7542876999999999,2.8675537,1.0919341999999999,-0.35554504,0.10832214
8.855896000000001,-0.7949829,2.0822449,1.1643677,-0.19468689,-0.0014038085999999999
7.613312,-0.7518921,1.3879242,1.1302795,-0.008255005,-0.05999756
7.081786999999999,-0.79737854,1.0383759,0.9097748,0.22608948,-0.046142578
6.4856415,-1.1780548,1.2323151,0.611496,0.5946808000000001,-0.037628174
5.9373627,-1.6664734,1.9026793999999998,0.42294312,0.5978699000000001,-0.05467224
5.8511809999999995,-1.8412476000000002,2.5778502999999997,0.47726440000000003,0.07801819,-0.03656006
6.365921,-1.2427063,2.0439453000000003,0.5933838,-0.31185913,0.003921509
7.208678999999999,-0.65852356,0.758255,0.5443878000000001,0.023696900000000003,0.18075562
7.845550500000001,-0.4885254,0.43025208,0.35795593,0.9110565,0.33203125
9.289246,-0.16052246,0.42306520000000003,0.20137024,0.8034668,0.5791626
11.151932,-0.5843048000000001,-0.7644501,0.15768433,-0.18615723,0.66970825
12.535782000000001,-1.6808471999999999,-1.4444122,0.23332214,-0.35766602,0.51205444
12.545364,-0.17010498,-0.26646423,0.28977966,-0.0146484375,0.3948822
11.602051,3.1865692,0.6217804,0.2418518,0.092941284,0.33096313
11.661896,3.8042754999999997,-0.7644501,0.12147522,0.071640015,0.24681091
12.976318,1.6135864,-1.2839966,0.0415802,-0.11798096,0.06997681
15.396851000000002,-0.7231598000000001,0.6888274999999999,0.0650177,-0.21279907,-0.15586853
15.212508999999999,-0.0048980713,5.5035706,0.06074524,-0.27670288,-0.32310486
11.79837,1.1203766000000002,7.952835,0.005355835,-0.3289032,-0.3028717
8.262131,-0.05038452,4.933746299999999,-0.09265137,-0.3992157,-0.2559967
7.1991119999999995,0.28479004,4.7517853,-0.21302795,-0.29374695,-0.38702393
8.365082000000001,-0.46697998,4.766144000000001,-0.31422424,-0.10307312,-0.5265808000000001
9.818359,-0.9434203999999999,3.7127074999999996,-0.43992615,-0.011459351000000001,-0.530838
11.824707,-0.8237152,3.382309,-0.6604309,0.0087890625,-0.51911926
12.851822,-0.38317870000000004,2.5778502999999997,-0.8553772,-0.0146484375,-0.40727234
12.191025,0.552948,1.8356476000000002,-0.9288788,-0.14248657,-0.1729126
10.495925999999999,1.4292296999999998,1.7063598999999998,-0.9618988000000002,-0.19787598,0.07635498
8.949264999999999,1.6399231,1.5722809,-1.0609741000000001,-0.12223816,0.19779968
8.848709,1.627945,1.21315,-1.0630951000000002,-0.0466156,0.15731812
8.305237,1.8242645,0.82051086,-0.8734894,0.20159912,-0.012054443
7.112914999999999,1.3143004999999999,0.45658875,-0.581604,0.3773651,-0.11857605
6.646042,1.1826172,0.08547974,-0.33659363,0.032211303999999996,-0.10580444
6.2486115,0.9551697,-0.027038574,-0.2875824,-0.35447693,-0.06425476
5.8176575,0.5936431999999999,-0.106048584,-0.24923706,-0.20959473,-0.110061646
5.9756775,0.29197693,-0.1563263,-0.20130920000000002,0.44554138,-0.2943573
7.2589570000000005,-0.19644165,-0.32392883,-0.27587890000000004,0.7565918,-0.65760803
9.325165,0.09565735,-0.029434204,-0.14378357,-0.010391235,-0.62991333
11.290802000000001,0.93362427,0.6289673000000001,0.11933899,-0.76034546,-0.35186768
11.874985,0.8378601000000001,1.5914458999999999,-0.03831482,-0.14887999999999998,-0.29222107
10.981949,-0.66329956,2.319275,-0.21940613,0.19413757,-0.3348236
11.087296,-1.9226531999999998,-0.1850586,-0.17359924,0.09400939999999999,-0.33589172
12.772812,-1.0942688,-0.8721924000000001,-0.035125732,0.22503662,-0.30500793
15.205322,0.2273407,0.3536377,0.11187744,0.06524658,-0.15161133
18.96901,0.6822357,3.5881958,0.28659058,-0.27883909999999995,0.10939026
16.04329,-0.30895996,6.53067,0.41015625,-0.42904663,0.37677002
8.037078999999999,0.10044861,4.679962000000001,0.41229248,-0.29481506,0.41618347
6.7561800000000005,0.6223755,2.9896545,0.30895996,-0.18190002,0.30326843
8.096939,1.2089538999999998,3.6887665000000003,0.20137024,-0.019973755,0.23934937
9.911743,2.1235504,3.8395996,0.26315308,0.26338196,0.27557373
11.235733,1.5010529,3.5546875,0.50283813,0.45300293,0.34907532
11.044189,0.7205353,4.0885925,0.7968445,0.38587952,0.39274597
10.864639,-0.10784912,3.6025696000000003,1.0525055,0.11210632,0.37251282
10.68985,-0.45022583,2.6448822,1.1611633,-0.013595581,0.24893188
9.50473,-0.49810790000000005,1.9745177999999999,1.2016448999999998,0.10572815,0.07635498
8.197494500000001,-0.8883667,1.4525757,1.1750183,0.24101257,-0.08023071
7.6085205,-1.1589049999999999,1.1269684,1.0471802,0.24101257,-0.063186646
6.8974457,-1.530014,1.0934448,0.76275635,0.37950134,0.024169922000000003
6.260589599999999,-1.7167511000000002,1.5555267,0.43252563,0.47004700000000005,0.03907776
6.0498962,-1.8508301,1.857193,0.30363464,0.08761597,0.063583374
6.4257812,-1.5946503,1.639328,0.3387909,-0.19255066,0.14241028
7.304458599999999,-0.91230774,0.45658875,0.17153929999999998,0.41358948,0.37570190000000003
7.613312,-0.34248352,0.47094727,-0.279068,1.0697784,0.7037964
8.626053,-0.11503601,0.70558167,-0.53793335,0.0023956299,0.7474823
9.952438,-0.04321289,-0.017471313,-0.43460083,-0.8817749,0.44706726
11.278824,-0.46937559999999995,-0.5202484,-0.100097656,-0.46739197,0.23509216
12.274811,0.23451233,-0.19224548,0.12892151,-0.05619812,0.22123718
11.925262,2.2839508,0.23153687,0.06927489999999999,0.13449097,0.25
11.671478,2.805893,-0.53460693,-0.11820984,0.23355103,0.22444153
13.749649,2.0780487,0.5044708,-0.21621704,0.14193726,0.09979248
16.955475,2.1019897000000003,3.2075195,-0.31208800000000003,-0.015716553,-0.14840698
15.672195,2.9567259999999997,6.5737762,-0.45057678,-0.14674377,-0.38490295
9.557404,-1.0487671,4.948105,-0.50917053,-0.32678223,-0.40299988
7.967651400000001,-2.403885,4.933746299999999,-0.487854,-0.46739197,-0.357193
8.183121,-0.39994812,6.157181,-0.534729,-0.37896729999999995,-0.44029236
8.673935,-0.74949646,4.110138,-0.67214966,-0.230896,-0.54148865
10.436066,-0.40711975,2.944168,-0.91397095,-0.12544249999999998,-0.5585326999999999
12.461563,0.6678772,3.4708862000000003,-1.1664276000000002,-0.06259155,-0.49781800000000004
12.74408,1.41008,2.3958892999999994,-1.2601776000000002,-0.18190002,-0.4328308
11.757675,1.3166962,1.3807526,-1.2154388,-0.27030945,-0.23683167
9.193481,0.79237366,1.9721221999999998,-1.2356719999999999,-0.2820282,0.01777649
7.5893707,0.67025757,2.6736145000000002,-1.2655028999999998,-0.21812439,0.15199279999999998
7.740203999999999,0.98150635,2.0678864,-1.2186278999999998,0.0087890625,0.14347839999999998
7.7617493,1.1036072000000001,1.4286346,-0.9821472,0.28894043,0.012451172
7.235016000000001,1.3119048999999998,0.48052979999999995,-0.6135559,0.294281,-0.08555603
6.741821300000001,1.3957062,0.054367065,-0.27481079999999997,0.054595947,-0.07064819
6.646042,1.5297851999999998,0.123794556,-0.19384766,-0.19680786,0.04547119
6.3707123,1.1155853,0.020843506,-0.18426514,-0.1563263,0.13282776
6.8902589999999995,0.32070923,-0.17070007,-0.16615295,0.18562317,0.049728394
7.914978,-0.26586914,0.063934326,-0.17680359,0.93663025,-0.24002075
9.598099000000001,-0.45501709999999995,-0.048583984000000004,-0.10862732,0.8961486999999999,-0.6235199
11.3051605,-0.5076904000000001,1.0288085999999999,0.2546234,-0.42584229999999995,-0.5958251999999999
11.453598,-0.5531769,1.8284607,0.35795593,-0.71240234,-0.38383484
11.259674,-1.2834014999999999,2.3791351,0.10229492,0.013046265,-0.21765137
11.336288,-1.9346313000000002,0.0016937256,-0.0052948,0.15791321,-0.16226196
11.918076,-0.9027252,-1.3199158000000002,0.024536132999999998,0.11424255,-0.18569946
13.708939,0.93122864,-0.5489807,0.099105835,0.21438599,-0.18035889
16.35933,1.4890747,1.2370911,0.23652649,0.026885986,-0.055725098
18.157364,-0.024047852,6.2936554000000005,0.42080688,-0.27030945,0.12962341
11.726547,-1.9130859,7.8881836,0.5752716,-0.29588318,0.28622437
6.557464599999999,-0.2419281,4.701507599999999,0.6125641,-0.24368286,0.32138062
6.0953827,0.6582946999999999,2.9992217999999995,0.5475769,-0.20747375,0.31178284
7.687530499999999,1.4076843,3.9401550000000003,0.49325562,-0.040222167999999996,0.32243347
9.861464999999999,2.537735,3.600174,0.5710144,0.17390442,0.3565216
11.259674,1.5585175,3.434967,0.7798004,0.23887634,0.40872192
11.302764999999999,0.09805298,3.679184,0.9651642,0.15898132,0.43322754
11.410507,-0.8045654000000001,3.3846893,1.0802155,-0.08921814,0.36398315
10.859848,-0.917099,2.9297942999999997,1.1238861,-0.1531372,0.21165466
9.229385,-1.0822906,2.453354,1.1132355,-0.019973755,0.063583374
8.367477000000001,-0.93385315,2.2091369999999997,1.0716858,0.11105347,-0.021636963
8.195099,-0.8811798000000001,1.7566376,1.0077667,0.26124573,-0.010986328
7.5893707,-0.94821167,1.481308,0.7883300999999999,0.51690674,0.044403076
6.835189999999999,-1.1014403999999998,1.6369323999999998,0.49005127,0.5723114,0.030563353999999997
6.3515625,-1.2331238000000002,1.5674896,0.36648559999999997,0.21438599,0.009246826
6.590988,-0.72076416,1.0407715,0.43252563,-0.30441284,0.0018005370999999999
7.349945,-0.21559143,0.3249054,0.43785095,-0.41305542,0.061447144
7.728225699999999,-0.07911682,0.2339325,0.26741028,0.26657104,0.18289185
8.45607,0.15312195,0.41110230000000003,-0.0287323,1.0921631,0.39274597
9.804001,0.41647340000000005,0.042388916,-0.07772827,0.2601776,0.6910248000000001
11.185455000000001,0.009460449000000001,-0.42687988,-0.036193848,-0.79548645,0.68037415
12.236511,-0.34248352,-0.108444214,0.03944397,-0.49934387,0.40446472
11.683456,1.4914703,0.7845916999999999,0.20881653,0.006652831999999999,0.25852966
11.139969,2.9303894,-0.37898254,0.2141571,0.14833069,0.22337341
12.004272,2.1522675,-1.6119995,0.10017395,0.21118164,0.1711731
14.28595,0.34465027,-1.1547089,-0.008483886999999999,0.095062256,0.11683655
15.715285999999999,0.09805298,1.9385986000000002,-0.06600952,-0.10946655,-0.028030396000000003
13.641907000000002,2.3533936,7.1004944000000005,-0.16401672,-0.22344970000000003,-0.22616577
9.70105,1.9463806000000001,7.6822815,-0.24391174,-0.22877502,-0.33802795
8.403397,-1.4462128,4.117325,-0.28225708,-0.25753784,-0.35186768
8.008347,-0.7423095999999999,5.1994934,-0.36642456,-0.20213318,-0.4243164000000001
8.523102,-0.8332976999999999,4.577011,-0.501709,-0.13609314,-0.49142456
10.206223,-0.86203,3.1333007999999998,-0.677475,-0.07431030000000001,-0.4701233
11.853439,0.48591614,3.083023,-0.86709595,-0.03489685,-0.46585083
12.406494,1.1467133,2.5275726,-0.9320679000000001,-0.030639648,-0.39234924
11.827103,1.0437622,1.6345367,-0.9565735000000001,-0.23196411,-0.181427
10.618027,1.0892487,1.6225586,-1.0162354,-0.24049377,0.07209778
8.8535,1.1850128,2.0846405,-1.0822753999999999,-0.09774780000000001,0.22337341
8.324387,1.3143004999999999,1.9601439999999999,-1.0641631999999999,0.038604736,0.20419312
7.926941,1.706955,1.6464995999999998,-0.8841399999999999,0.32836914,0.063583374
7.0554504,1.3334656,0.8564148000000001,-0.6061095999999999,0.37950134,-0.034423828
6.7561800000000005,0.9743347,0.39672852,-0.35150146,0.13449097,-0.057861328
6.5933684999999995,0.7037810999999999,0.6600951999999999,-0.2598877,-0.17124939,-0.009918213
6.3683167,0.6415405,0.20999146,-0.27374268,-0.21705627,0.03161621
6.772933999999999,0.983902,-0.17070007,-0.2598877,0.08229065,-0.05467224
7.790481599999999,0.28718567,0.011260986,-0.32168579999999997,0.58935547,-0.33163452
9.040253,-0.5052948,0.018447876000000002,-0.2609558,0.76405334,-0.6884918000000001
10.625214,-0.17010498,0.46377563,0.18005371,-0.24049377,-0.6746521
11.257278,0.11001587,1.9601439999999999,0.42080688,-0.6878966999999999,-0.48289490000000007
11.0849,-0.60824585,2.6137695,0.21202087,-0.026367188,-0.29968262
11.458389,-1.8867493000000002,0.9569701999999999,0.07141113,0.18667603,-0.21871948
12.361008,-1.5683136,-1.2792052999999999,0.07141113,0.16430664,-0.23255920000000002
13.912445000000002,0.11959839,-0.76205444,0.13531494,0.23568726,-0.24215698
15.595581,0.89053345,0.26504517,0.23864746,0.022628784,-0.10899353
17.654587,0.31112670000000003,5.489197,0.36009216,-0.24581909,0.089141846
13.036178999999999,-0.9386443999999999,7.902557400000001,0.48898315,-0.36192322,0.29367065
7.357132000000001,-0.9601898000000001,5.118103,0.5465088,-0.31185913,0.33735657
5.4992220000000005,0.34944153,3.0806273999999996,0.49430847,-0.25753784,0.28515625
7.0003967000000005,1.0102386,3.782135,0.42933655,-0.09774780000000001,0.27557373
9.449661,2.1666412,3.4732818999999995,0.46554565,0.16644287,0.32350159999999994
11.113632,1.7380828999999998,3.4373627,0.6360016,0.26870728,0.3799591
11.286011,0.5816803,3.830017,0.8543700999999999,0.18135071,0.41725159999999994
11.388962,-0.14376831,3.4828644,1.0248108,-0.0146484375,0.33842468
11.199814,-0.3209381,2.9824677000000004,1.1143036,-0.19468689,0.22444153
9.79921,-0.5675354,2.4581451000000003,1.103653,-0.1563263,0.09020996
8.647598,-0.7518921,2.0511322,1.040802,-0.05619812,-0.02909851
8.286072,-0.917099,1.6704407,0.9715575999999999,0.054595947,-0.058929443
7.7306213,-1.1469421,1.4286346,0.7968445,0.23780823,-0.010986328
7.100952,-1.269043,1.778183,0.53266907,0.4039917,0.040145874
6.389862,-1.4342346000000001,1.8931122,0.24610901,0.33688354,0.042266846
6.3707123,-1.2738341999999998,1.426239,0.12147522,0.0045166016,-0.0024719238
6.868713400000001,-0.56993103,0.8779601999999999,0.15235901,-0.19361877,0.058258057
7.045883,-0.32333374,0.3656006,0.046905518,0.23143005,0.23721313
7.862304700000001,-0.13179016,0.29377747,-0.35577393,0.9387511999999999,0.48542786
9.495148,0.256073,-0.050979614000000006,-0.5570984,0.08868408,0.6164550999999999
11.137573,0.20339966,-0.41729736,-0.3536377,-0.96913147,0.51205444
12.344254,-0.17010498,-0.67826843,-0.13632202,-0.5930939000000001,0.30220032
12.511841,0.9934844999999999,-0.32632446,0.058624268,-0.0029296875,0.20526123
11.8151245,2.2791748,-0.58010864,0.06607056,0.19200134,0.18395996
11.906113000000001,2.070877,-0.795578,-0.08200073,0.27722168,0.16159058
13.843017999999999,0.89053345,0.169281,-0.19917297,0.14300537,0.11897278
15.928375,0.7301178,2.2354736,-0.27587890000000004,-0.07963562,-0.013122558999999999
14.78154,2.4994354,5.4293365,-0.38346863,-0.24049377,-0.22511292
9.2964325,1.536972,5.8124237,-0.41967773,-0.2543335,-0.3454895
7.2948759999999995,-2.0710907,3.8108672999999995,-0.4005127,-0.30441284,-0.33695984
7.9413146999999995,-1.1684875,5.508346599999999,-0.41967773,-0.324646,-0.38916016
8.623657000000001,-1.0631409,4.584198000000001,-0.5081024000000001,-0.21066284,-0.48503113
9.959625,-0.36882020000000004,2.9106445,-0.6369934,-0.092422485,-0.5116577
11.525436000000001,1.1562805,3.0495148,-0.79571533,-0.010391235,-0.46159363
12.578888000000001,1.7691956000000002,2.8052979,-0.9160919,-0.07005310000000001,-0.31245422
12.246094,1.6135864,1.4214478000000002,-0.9437866,-0.21705627,-0.10580444
10.838303,1.2544556,1.2490691999999999,-1.0045165999999999,-0.15739441,0.042266846
8.822372,1.0150299,1.8141022,-1.0662994,-0.080703735,0.15412903
8.302841,0.8474425999999999,1.8188933999999997,-1.0630951000000002,0.0471344,0.16477966
8.405792,0.8306732,1.402298,-0.92355347,0.38587952,0.061447144
7.749771000000001,0.99108887,0.7223358,-0.6593628,0.44979858,-0.037628174
7.029114,1.0796661,0.27941895,-0.36003113,0.13661194,-0.058929443
6.6963196,0.96954346,0.29138184,-0.25349426,-0.1765747,-0.006729125999999999
6.6604156,1.0820618,0.2339325,-0.24179077,-0.15739441,0.040145874
7.108124,0.9072876,-0.42208862,-0.20982361,0.26124573,0.028427123999999998
7.5295105,0.17466736,-0.18266296,-0.19703674,0.9249115,-0.19847107
8.570984,-0.22517395,0.1477356,-0.08200073,0.65753174,-0.59794617
10.220596,0.05973816,0.48052979999999995,0.31321716,-0.6676635999999999,-0.51379395
10.998702999999999,-0.11024475,1.6488953000000002,0.375,-0.79229736,-0.31991577
11.082504,-0.8883667,2.3216705,0.057556152,0.051391599999999996,-0.24960327
11.465575999999999,-1.9106903000000002,0.4517975,-0.06921387,0.24526978,-0.20912170000000002
12.353821,-1.1517181,-1.1451263,-0.0052948,0.25379944,-0.19421387
13.711333999999999,0.63674927,-0.7381134,0.13426208,0.3496704,-0.18356323
16.052872,1.5106354,1.2514648000000002,0.32707214,0.09826660000000001,-0.063186646
18.550017999999998,0.37338257,6.810791,0.5422516,-0.1797638,0.15306091
11.843857,-1.589859,7.3686523,0.6999054,-0.17337036,0.35333252
6.2055206,0.44281006,3.6097565,0.71162415,-0.10733032,0.4023285
6.729842999999999,1.2472687,2.6377106,0.6232147,-0.048736572,0.38848877
8.171158,1.3885193,3.7318572999999997,0.57847595,0.15579224,0.41192627
9.92131,1.9822845000000002,3.4565277,0.73187256,0.3027954,0.4811554
11.398544000000001,0.6247710999999999,3.7845306000000005,0.9992523000000001,0.29214478,0.5429535
11.151932,-0.6154175000000001,3.952118,1.2293396,0.13661194,0.53868103
10.895752,-0.8309021000000001,3.4230042000000003,1.3603668,-0.068984985,0.42790222
10.474380499999999,-0.49092102,2.9178314,1.3997955,-0.1765747,0.29367065
9.090530000000001,-0.5675354,2.3887023999999997,1.3965912,-0.17018127,0.14666748
8.379456,-0.7423095999999999,2.0678864,1.3539886,-0.02104187,0.03161621
8.046661,-0.9506073,1.8188933999999997,1.2048492,0.18988037,0.019897461
7.361908000000001,-1.3001709,1.9266205,0.9438629000000001,0.54141235,0.05718994
6.777725,-1.4462128,2.0439453000000003,0.6402588,0.5861510999999999,0.058258057
6.595764,-1.4893036,1.8715668,0.50283813,0.21118164,0.019897461
6.871109,-0.91947937,1.129364,0.53053284,-0.35127258,-0.009918213
7.235016000000001,-0.22517395,0.43025208,0.43891907,-0.34169006,0.089141846
7.5965424,-0.19404602,0.43504333,0.083114624,0.6138458000000001,0.26385498
8.477615,0.11959839,0.41110230000000003,-0.325943,0.9984130999999999,0.50354004
9.945250999999999,0.19142151,-0.28800964,-0.18638611,-0.43437195,0.6260376
11.369812,0.05494690000000001,-1.0062714,0.035186768,-0.86473083,0.47477722
12.435226,0.33268738,-0.37181090000000006,0.2216034,-0.16059875,0.30966187
11.903717,2.1211548,0.43743896,0.35050964,0.21438599,0.28941345
11.159119,3.2033234,-0.40771484,0.28871155,0.20478821,0.32138062
12.085678,2.1403046000000003,-1.2911834999999998,0.15768433,0.21971129999999997,0.2531891
14.93956,0.6606903000000001,-0.106048584,0.08950806,0.13128662,0.09553528
15.815842000000002,1.3143004999999999,3.1261292000000003,0.0032348633000000003,-0.05406189,-0.13243103
11.99469,2.9926453,7.9264984,-0.10862732,-0.14994812,-0.33909607
8.051437,-0.8452606,5.939316000000001,-0.15122986,-0.1797638,-0.38490295
8.501555999999999,-1.7909698,4.857132,-0.15550232,-0.19894409,-0.39555359999999995
9.241364,-0.35446167,5.604126,-0.23326111,-0.12330627400000001,-0.44136047
9.741745,-0.6537323,3.830017,-0.39730835,-0.060455322,-0.48716736
11.245316,-0.12460327,3.2362518,-0.61994934,-0.040222167999999996,-0.53829956
12.219757000000001,0.5625305,3.1835785,-0.8127594,-0.06365967,-0.46479797
12.068909,0.8594055,2.3815307999999997,-0.88946533,-0.22024536,-0.28369140000000004
11.446425999999999,0.84265137,1.7662201000000002,-0.94911194,-0.34594727,-0.08981323
9.557404,1.031784,2.0798492,-0.99705505,-0.17337036,0.05718994
8.144821,1.196991,2.4126434,-1.026886,-0.09347534,0.10725403
7.7521667,1.4411926000000002,2.130127,-1.0162354,0.0087890625,0.047607422
7.278122,1.5896301000000002,1.4238434,-0.8319397,0.28149414,-0.06637573
7.002777,1.7644196,0.6576996,-0.5294036999999999,0.33688354,-0.14201355
6.5814056,1.3885193,0.3536377,-0.26948547,0.06311035,-0.119644165
6.318039,0.89053345,0.40631104,-0.19064331,-0.26072693,-0.039749146
6.6532288,0.6032257,-0.060562134000000004,-0.19810486,-0.13076782,-0.041885376
7.369095,0.27043152,-0.30955505,-0.19064331,0.37416077,-0.20912170000000002
8.053833000000001,-0.40951538,-0.103652954,-0.19277954,0.89508057,-0.58410645
9.272491,-0.04081726,-0.17547607,-0.0010375977,0.36457825,-0.6980896
10.974762,0.63674927,0.49967957,0.26101685,-0.6165314000000001,-0.44987488
11.985123,0.36619568,2.0726776,0.12466431,-0.27565002,-0.2794342
11.930054,-0.917099,2.4318085,-0.13418579,0.19839478,-0.2602539
11.623596000000001,-1.9226531999999998,0.016052246000000003,-0.17254639,0.18667603,-0.27624512
12.5381775,-0.81892395,-0.88417053,-0.1267395,0.23994446,-0.27197266
14.707320999999999,0.56970215,0.054367065,-0.06175232,0.17602539,-0.19528198
18.33693,0.56492615,3.3775177000000003,0.046905518,-0.016784668,-0.06425476
16.601135,-0.8596344000000001,7.584121700000001,0.14810179999999998,-0.20852661,0.13388062
8.405792,-1.1349639999999999,5.616089,0.20243835,-0.21917725,0.28089905
5.729065,0.59843445,3.7007294,0.16407776,-0.113723755,0.28089905
7.290085,1.4842986999999999,4.0885925,0.11721802,0.020507812,0.2531891
9.10968,2.6766052000000005,4.244217,0.16728210000000002,0.20266724,0.25958252
10.3403015,2.070877,3.4924315999999997,0.35263062,0.3571167,0.27983093
10.922089,0.5337982,3.897049,0.60510254,0.35499573,0.32882690000000003
11.32193,-0.31854248,3.9880370000000003,0.7979126,0.22290039,0.32350159999999994
11.116028,-0.7255554,3.4158172999999996,0.8959198,-0.033828735,0.19247437
9.868637,-0.61302185,2.793335,0.947052,-0.16059875,0.04121399
8.506348,-0.5962677,2.2713928,1.0056458000000001,0.015167236,-0.072769165
7.819214,-0.70880127,2.1516876,0.9896698,0.17070007,-0.096206665
7.4505005,-0.94821167,2.0822449,0.8160248000000001,0.23036194,-0.034423828
7.096161,-1.2881927,2.1205597000000003,0.5283966,0.37416077,-0.028030396000000003
6.6484375,-1.352829,2.0846405,0.30363464,0.34007263,-0.02909851
6.3036804,-1.2403107,1.9242401000000002,0.24078369,-0.037017822,-0.005661010699999999
6.705902,-0.917099,1.3208923000000001,0.25782776,-0.31399536,0.05718994
7.3547363,-0.45739746,1.0120392,0.12680054,0.06629944,0.18821716
7.9915924,-0.18206787,0.9713440000000001,-0.21835327,0.78855896,0.34161377
9.059402,0.014251709,0.4517975,-0.46548462,0.28042603,0.5844879
10.309174,0.0836792,0.023239136,-0.43992615,-0.6484833000000001,0.5738373000000001
11.858231,-0.03842163,-0.029434204,-0.24497986,-0.48869324,0.34587097
12.672255999999999,1.1682587,0.58348083,-0.076660156,-0.078567505,0.24148560000000002
11.618805,2.6454772999999996,0.4158782999999999,-0.109695435,0.12277222,0.18714905
11.329102,2.568863,-0.5130615,-0.24391174,0.12382507,0.110458374
13.304321,1.3741608,0.23153687,-0.32806396,-0.05619812,0.009246826
15.739227,0.5912628000000001,2.2426605,-0.29718018,-0.15739441,-0.11112976
14.563675,1.7763824000000001,6.358291599999999,-0.3344574,-0.22770691,-0.24534607
10.009903,1.2161407,6.2481537000000005,-0.44418335,-0.23516846,-0.322052
7.632461500000001,-0.9984894,4.581802400000001,-0.49745178,-0.28630066,-0.31672668
6.9812316999999995,-0.19883728,5.774108999999999,-0.50917053,-0.33103943,-0.37957764
7.8934326,-0.5364075,4.940933,-0.57839966,-0.28735352,-0.48822020000000005
9.614853,-0.69921875,3.6313019,-0.7392578000000001,-0.18508911,-0.53723145
11.606842,-0.03363037,3.7557983,-0.9331360000000001,-0.11798096,-0.53723145
12.54776,0.54096985,3.533142,-1.059906,-0.16592407,-0.41046143
11.939621,1.4675293,2.2474517999999994,-1.106781,-0.29801940000000005,-0.24108887
10.630005,1.5896301000000002,1.6896057,-1.1440582000000001,-0.36512756,-0.08023071
8.855896000000001,1.1060028,2.336029,-1.1664276000000002,-0.22877502,0.07423401
8.336349499999999,0.9264374,2.6975555,-1.1653748,-0.14035034,0.14027405
8.451279,1.1012268,2.1804047000000004,-1.0481873,0.03327942,0.049728394
7.879059,1.086853,1.1772461,-0.8095703000000001,0.29533386,-0.084487915
7.213470500000001,1.1371307,0.50686646,-0.44418335,0.19627379999999997,-0.16119385
6.5670470000000005,0.9934844999999999,0.52841187,-0.19598389,-0.17550659,-0.13456726
6.521545400000001,0.7085724,0.6720581,-0.12567139,-0.34062195,-0.06744385
6.8064575,0.74209595,0.2889862,-0.14378357,0.08761597,-0.12710571
7.091369599999999,0.45718384,0.2554779,-0.14057922,0.7576599,-0.4243164000000001
8.034683,-0.06236267,0.41349792,-0.15336609,0.71398926,-0.7268524000000001
9.727386,-0.20600891,0.8731841999999999,-0.0031585693,-0.230896,-0.59794617
11.309952000000001,-0.31854248,1.2418823,0.043701172,-0.6399689000000001,-0.39767456
12.018631,-0.57232666,2.2785797000000003,-0.24711609,-0.092422485,-0.32737732
11.570922999999999,-1.4701538,1.4621582,-0.37919617,0.026885986,-0.26345825
11.491913,-1.5922546,-0.8434601,-0.36428833,0.0013275146,-0.2240448
13.239685,-0.11024475,-0.8123474,-0.3781433,0.07589722,-0.18995667
16.6586,0.7181549,1.457367,-0.34085083,-0.10839844,-0.08236694
19.517273,-0.07911682,5.886642500000001,-0.23112488,-0.30973816,0.10725403
12.72493,-1.3624114999999999,6.4875793,-0.107559204,-0.42372129999999997,0.31391907
6.013977,0.6463165,4.4716644,-0.09158325,-0.3992157,0.33203125
6.203125,1.4244385,3.995224,-0.17787170000000002,-0.29907227,0.25746155
7.891037,2.3246613,4.2873077,-0.20556639999999998,-0.066848755,0.24253845
9.564575,2.8657532000000003,3.4038544,-0.051101685,0.21757507,0.2776947
11.001099,1.5896301000000002,3.2075195,0.26101685,0.24952698,0.33842468
11.594864,0.6128081999999999,3.4014587,0.54011536,0.116378784,0.36398315
11.599655,-0.42149353,3.0112,0.73506165,-0.09986877400000001,0.2776947
10.694641,-0.62739563,2.7741700000000002,0.8767395,-0.19255066,0.16477966
8.975601,-0.76864624,2.142105,0.96302795,-0.13395691,0.006057739300000001
7.871886999999999,-0.838089,1.6920012999999998,0.9843291999999999,0.06736755,-0.12071228
7.337967,-0.9673767,1.3855438,0.8959198,0.17816162,-0.09194946
6.7753296,-1.3672028,1.4310303,0.6636963,0.28575134,0.027359009
6.078628500000001,-1.5012816999999998,1.9984589,0.41868590000000006,0.36778259999999996,0.09660339
5.614151000000001,-1.6090088,2.1468964,0.32493590000000006,0.06629944,0.058258057
6.224670400000001,-1.589859,1.639328,0.35476685,-0.17443848,0.10406494
7.077011,-1.1277771,0.9904938,0.2652893,0.32409668,0.33842468
8.072998,-0.5866852,0.85162354,-0.107559204,1.155014,0.66970825
9.399384,-0.6106262,0.5523529,-0.20663452,0.13235474,0.7836914
10.524658,-0.78541565,-0.046188354,-0.12886047,-0.8263855,0.4492035
11.197433,-0.92666626,-0.5896759,0.033050537000000005,-0.41412354,0.23828125
12.131165,0.38056946,-0.29998779999999997,0.15342712,-0.05833435,0.20951843
12.437622,2.3605652000000004,-0.08689880000000001,0.14916992,0.21118164,0.19886779999999998
12.363403,2.7412415,-0.8721924000000001,0.014938354499999999,0.35606384,0.20845032
13.979492,1.5465393,0.3464508,-0.07028198,0.21438599,0.13388062
16.763947,0.9360199,3.7534027,-0.12567139,-0.028503418,-0.063186646
15.921188,3.2775574,8.522658999999999,-0.25456238,-0.29269409999999996,-0.275177
10.124817,0.6798401,5.185135,-0.38026428,-0.38536072,-0.3582611
6.693939,-2.4517822,3.5618591,-0.44099426,-0.3992157,-0.32737732
7.4552917,-1.024826,5.137253,-0.4835968,-0.3203888,-0.39022827
9.231781,-1.3097382,3.6025696000000003,-0.5570984,-0.19041443,-0.48396300000000003
10.720978,-0.45022583,2.793335,-0.69984436,-0.090286255,-0.51272583
12.392136,0.93362427,3.434967,-0.9022522,-0.037017822,-0.5287018
12.440017999999998,2.0373535,2.8795166,-1.0396729,-0.00932312,-0.42750550000000004
11.460785000000001,1.9415894,1.8404387999999998,-1.1366119,-0.12223816,-0.20274353
9.741745,1.5297851999999998,1.4286346,-1.1877441,-0.22344970000000003,0.067840576
8.020325,0.91207886,1.5674896,-1.202652,-0.27670288,0.20205688
7.958069,0.7325134,1.5220032,-1.1152954,-0.102005005,0.14347839999999998
8.00116,1.031784,1.2538605,-0.9022522,0.20372010000000002,0.004989624000000001
7.2445984,1.0820618,0.6576996,-0.61143494,0.20585632,-0.086624146
6.8854675,1.2352905,0.29138184,-0.44950867,-0.09561157,-0.07597351
6.373108,1.0653076000000001,0.2889862,-0.48573303,-0.3438263,0.003921509
6.1552430000000005,0.9096832,-0.06535339,-0.49212646,-0.17231749999999998,-0.020584106
6.3563538,1.0150299,-0.048583984000000004,-0.39624023,0.48814392,-0.20379639
7.419372599999999,0.7397003000000001,0.29377747,-0.26734924,0.9856261999999999,-0.579834
9.315582000000001,0.06692505,0.93782043,-0.12034607,0.031158447000000002,-0.7023468
10.905334,-0.40473938,1.4118805,0.14064026,-0.95954895,-0.46479797
11.764847,-0.45501709999999995,1.7542419999999999,-0.055358887,-0.2969513,-0.37957764
11.625992,-1.1517181,1.3687744,-0.3067627,0.24952698,-0.33377075
11.532608,-1.6114044,-1.1283722,-0.27799988,0.16111755,-0.28050232
12.741684,-0.57232666,-1.4348296999999999,-0.08200073,0.20266724,-0.21551514
14.90126,1.1299438,0.21716309,0.099105835,0.027954102,-0.07171631
17.894012,1.2281189,4.675171,0.31428528,-0.31825256,0.17436218
16.282715,-0.2922058,8.419708,0.5230713,-0.39601135,0.39913940000000003
7.9772186000000005,-0.7925873000000001,5.379059,0.5965729000000001,-0.29269409999999996,0.42257690000000003
6.059463500000001,-0.024047852,2.7214966,0.53479004,-0.24049377,0.35865784
7.15123,0.473938,3.7366486000000005,0.4644928,-0.08496094,0.34375
9.255722,1.9774933000000001,4.014374,0.51242065,0.17390442,0.39060974
11.57811,1.8577881,4.05986,0.7158966,0.33688354,0.45773315
12.064133,0.64871216,4.260971,0.98114014,0.32197570000000003,0.50354004
11.362625,-0.24671936,3.758194,1.1920624,0.11317444,0.44174194
11.32193,-0.84765625,3.1955566,1.3316193,-0.22984314,0.31391907
9.856674,-1.0439911,2.4868773999999996,1.3657073999999998,-0.29269409999999996,0.17436218
8.405792,-0.91470337,1.9984589,1.3262787,-0.06365967,0.009246826
7.9772186000000005,-0.7231598000000001,1.6345367,1.2272186,0.25273132,-0.07809448
7.3643035999999995,-1.000885,1.4310303,0.9800719999999999,0.5392914000000001,-0.008865356
6.57901,-1.3504486,1.5986176,0.7233429,0.6756439000000001,0.003921509
6.0714417,-1.644928,1.9146576000000002,0.5933838,0.37950134,-0.012054443
6.0067900000000005,-1.6209869,1.584259,0.6178894,-0.20747375,0.006057739300000001
6.365921,-0.9793396000000001,0.6936188,0.52627563,-0.28097534,0.12962341
6.7633667,-0.21559143,0.45898438,0.23864746,0.55952454,0.30645752
7.967651400000001,0.36141968,0.32250977,-0.088378906,1.1060028,0.5237732
9.796814,0.57688904,-0.39814758,-0.10223389,-0.18190002,0.6526642
11.563736,0.18663025,-0.795578,0.0042877196999999995,-0.83810425,0.5227050999999999
12.928436,-0.60824585,-0.43165588,0.22480774,-0.28735352,0.37463379999999996
12.210175,1.493866,0.30336,0.35688782,0.08973694,0.32243347
11.266861,3.4714812999999993,-0.3837738,0.2642212,0.23355103,0.27450562
12.1622925,2.8729248,-1.5832671999999999,0.08950806,0.30812073,0.18821716
14.807877,0.9743347,-0.37420654,0.024536132999999998,0.14193726,0.061447144
16.277924,0.72772217,3.2123107999999996,0.00642395,-0.11798096,-0.08129883
13.033783,1.9990386999999998,7.3782195999999995,-0.10437012,-0.18615723,-0.22723389
8.499161,-0.8332976999999999,5.513138,-0.18959045,-0.19680786,-0.25387573
7.3762817,-1.7718201,4.6943207000000005,-0.22474670000000002,-0.20108032,-0.2709198
7.929336500000001,-0.4190979,5.580185,-0.29718018,-0.14674377,-0.38702393
9.46402,-1.1397552,3.8491669,-0.3781433,-0.09347534,-0.4562683
11.075317,-0.7231598000000001,3.1237334999999997,-0.51768494,-0.06791687,-0.43603516
12.669861000000001,0.6295624,3.4158172999999996,-0.710495,-0.02104187,-0.38276672
12.818298,1.9679259999999998,2.5587006000000003,-0.83833313,-0.08389282,-0.24960327
11.958786,1.7404785,1.4884948999999998,-0.8926544,-0.26072693,-0.06958008
10.007507,1.2712097,1.5890503,-0.94699097,-0.21279907,0.053985596
8.575775,0.94081116,1.9218445,-0.9906616,-0.12651062,0.11683655
8.561417,0.9575653000000001,1.8212891,-0.9022522,0.016235351999999998,0.08062744
8.087357,1.5106354,1.6632689999999999,-0.8085022,0.38375854,-0.03656006
7.033905,1.7955322,1.0383759,-0.6327362,0.36457825,-0.11857605
6.538315,1.4316254,0.36322020000000005,-0.49424744,0.0023956299,-0.12284851
6.100174,0.8929290999999999,0.18843079,-0.45376587,-0.2500763,-0.08023071
6.052292,0.7229309,0.102249146,-0.3813324,-0.09135437,-0.08236694
6.4904327,0.5050659000000001,-0.11563110000000001,-0.31422424,0.39440918,-0.21339417
7.3283997,0.021438599,-0.16590881,-0.3078308,0.71398926,-0.54042053
8.96843,-0.4885254,1.0383759,-0.10649109,0.043930054,-0.66186523
10.819138,-0.32333374,0.76065063,0.14491272,-0.7582091999999999,-0.52337646
11.918076,-0.11264038,1.4525757,-0.111816406,-0.27458190000000005,-0.44136047
11.786392,-0.87638855,1.723114,-0.38240050000000003,0.13128662,-0.37104797
12.016235,-1.7335205000000002,-0.45799255,-0.32806396,0.036483765,-0.34654236
13.007446,-0.93385315,-1.0158539,-0.16615295,-0.025299072000000002,-0.29328918
14.580429,0.27761840000000004,-0.058166504,-0.034057617000000005,-0.20213318,-0.119644165
17.633041,0.6463165,3.7629851999999997,0.12786865,-0.40667725,0.077423096
15.837387,0.06692505,7.5553894,0.29724120000000004,-0.48976135,0.28302002
8.494369500000001,0.25367737,5.5227203000000005,0.3622284,-0.33103943,0.32882690000000003
6.3874817,0.54815674,3.4134216,0.31854248,-0.18083191,0.26704407
7.0578460000000005,0.6726532,3.873108,0.29617309999999997,-0.05406189,0.26065063
8.939697,2.0780487,4.1125336,0.37287903,0.21011353,0.32775879999999996
10.61084,1.8937073,3.9353637999999997,0.57315063,0.37950134,0.378891
11.348267,0.80433655,3.830017,0.85118103,0.31132507,0.39274597
11.376984,-0.11743164,3.0231779999999997,1.0961914,0.09933472,0.32882690000000003
11.357834,-0.8739929,2.7454376,1.202713,-0.28309629999999997,0.21591187
10.196655,-1.1397552,2.1516876,1.2037811,-0.35447693,0.089141846
8.453674000000001,-1.1924286,1.5698853000000002,1.1632996000000002,-0.12757874,-0.05253601
7.718658400000001,-0.97454834,1.5866547,1.0290833000000001,0.14407349,-0.10685730000000002
7.144042999999999,-1.2043915,1.5507355,0.7052307,0.48495483,-0.01737976
6.622101,-1.5707091999999998,1.7135468,0.34411620000000004,0.71824646,-0.0024719238
6.4114227,-1.7454834,2.0774689,0.14277649,0.40292358,-0.018447876000000002
6.4952087,-1.5467681999999998,1.8907166000000002,0.19604492,-0.21173096,0.016708373999999998
6.796890299999999,-0.94821167,0.8061371,0.20776367,-0.277771,0.14559937
7.1536255,-0.29460144,0.3464508,0.025604248,0.55633545,0.28302002
8.441696,0.16029358,0.09985351599999999,-0.4090271,1.2061462,0.48222349999999997
10.091308999999999,0.21296692,-0.6112213000000001,-0.5304718,-0.053009033,0.5780945
11.693024000000001,-0.15573120000000001,-1.3151245,-0.33338928,-0.83810425,0.45878599999999997
12.825485,-0.34248352,-0.7764281999999999,-0.16827393,-0.23835754,0.30006409999999994
11.846252,1.6542816000000002,0.095062256,-0.062820435,0.18135071,0.25746155
10.857452,2.9471436,-0.28321838,-0.10116577,0.23036194,0.26704407
11.891739,1.8266601999999998,-1.0733032,-0.20982361,0.22929382,0.20632935
14.769576999999998,0.20579529,0.25068665,-0.24072266,0.153656,0.06037903
16.605926999999998,0.47633362,3.1548462,-0.28652954,0.0034637451,-0.1771698
13.644302,2.489853,6.624053999999999,-0.372818,-0.15846252,-0.34014893
8.087357,0.9216614,5.711853,-0.40795898,-0.26393127,-0.32098390000000004
7.215866,-0.9649810999999999,4.6081389999999995,-0.39944458,-0.33743286,-0.32098390000000004
8.2789,-0.07194519,5.9105834999999995,-0.38879395,-0.2543335,-0.4285736
9.420929,-0.42149353,4.299286,-0.45483398,-0.115859985,-0.48184204
11.175873,-0.18685913,3.382309,-0.6274109,-0.0072021483999999995,-0.48077393
12.612396,0.05973816,3.5546875,-0.84898376,0.053527832000000004,-0.43922424
12.784775,0.5601349,2.604187,-0.9842681999999999,-0.057266235,-0.32098390000000004
11.803162,1.3526154,1.4717255,-1.0332794,-0.20213318,-0.11645508
9.303619,1.2927551000000002,1.8476256999999998,-1.0918579,-0.10626221,0.05079651
7.9437103,0.66308594,2.142105,-1.1099701000000002,-0.025299072000000002,0.13708496
7.9437103,0.7947693,2.1875916,-1.0556488000000002,0.08973694,0.087020874
7.582184,0.93362427,1.6776276,-0.9672241,0.26763916,-0.07383728
6.930953999999999,1.1443176000000002,0.84924316,-0.82128906,0.14407349,-0.16545105
6.595764,1.1227722,0.30815125,-0.59651184,-0.061523438,-0.17610168
6.42099,1.1155853,0.23631287,-0.4644165,-0.19575499999999998,-0.098342896
6.5526733,0.90249634,0.17646789999999998,-0.40370178,0.0002593994,-0.035491943
7.543869,0.552948,-0.024642944,-0.3067627,0.43382263,-0.13562012
8.274109,0.0046691895,0.039993286,-0.29718018,0.68948364,-0.49674988
9.399384,-0.37361145,0.15492249,-0.009552001999999999,0.3059845,-0.70874023
10.989136,-0.27305603,0.33926392,0.36648559999999997,-0.66233826,-0.4701233
11.403319999999999,-0.19883728,0.9521941999999999,0.25889587,-0.39282227,-0.25706482
11.657119999999999,-0.86203,1.5507355,-0.05003357,0.23248291,-0.20700073
12.021027,-1.6257781999999998,0.06872558599999999,-0.14910889,0.13128662,-0.22723389
12.557327,-1.1565094,-0.97514343,-0.048965454000000005,0.031158447000000002,-0.20700073
13.922028,-0.13179016,0.521225,0.06713867,-0.050872803,-0.084487915
16.524520000000003,0.06213379,3.363144,0.23013306,-0.27244568,0.07635498
17.439102,0.12918091,8.295197,0.39736938,-0.38749695,0.26490784
9.945250999999999,-0.39515686,5.958465599999999,0.47407532,-0.35447693,0.35865784
5.7099150000000005,0.5457611,3.3894806000000006,0.4453125,-0.31079102,0.3203125
7.292480499999999,1.0054474,4.117325,0.421875,-0.22344970000000003,0.27662659999999994
9.306000000000001,1.7931519,4.299286,0.49430847,0.059921265,0.28834534
10.697037,1.5130157,3.8084717000000006,0.70417786,0.33155823,0.33522034
11.163910000000001,0.28718567,4.189148,0.9449158000000001,0.3251648,0.39593506
10.613235000000001,-0.2778473,3.6384735,1.0951233,0.07696533,0.37251282
10.311569,-0.47416687,3.0303497000000004,1.1494446000000003,-0.20108032,0.22337341
9.531067,-0.44783019999999996,2.604187,1.1292114,-0.21279907,0.06037903
8.262131,-0.9865265,2.233078,1.0929871000000002,0.06097412,-0.098342896
7.694702,-1.2977753,1.9792938000000002,1.0280151,0.19839478,-0.15266418
7.3595276,-1.3839569,1.644104,0.7957916,0.45832825,-0.100479126
6.808853,-1.5347899999999999,1.6369323999999998,0.5411835,0.61598206,-0.04295349
6.2510069999999995,-1.4749451,1.7566376,0.36434937,0.35818479999999997,0.027359009
6.349167,-1.2977753,1.4837036,0.34197998,-0.16378784,0.08062744
7.191925,-0.6154175000000001,0.43025208,0.29937744,-0.32250977,0.17756653
8.152008,-0.10784912,-0.103652954,0.017074585,0.40292358,0.34161377
8.918152000000001,-0.08390808,0.018447876000000002,-0.3312683,1.0005493,0.5227050999999999
10.074539,-0.14616394,-0.18266296,-0.3855896,-0.15739441,0.6398925999999999
11.113632,-0.253891,-1.0158539,-0.2609558,-0.88816833,0.5227050999999999
11.982727,-0.24911499,-0.40054320000000004,-0.029800415,-0.34062195,0.41192627
11.623596000000001,1.2089538999999998,0.49249268,0.120407104,0.16751099,0.36505127
11.034622,2.7795563,-0.055770874000000005,0.07141113,0.2708435,0.32670593
11.42009,2.3845062,-1.1738586000000002,-0.09690857,0.1770935,0.19886779999999998
13.910048999999999,1.2927551000000002,-0.005493164,-0.16934204,0.032211303999999996,-0.006729125999999999
16.268341,1.3765564,3.0758362,-0.19917297,-0.0039978027,-0.23683167
13.244461,2.5545044,7.8522797,-0.23965454,-0.043411255,-0.3582611
8.312408,0.37338257,5.4245605,-0.24711609,-0.14035034,-0.34867859999999995
7.6683655,-1.3121338,4.948105,-0.21728516,-0.24261475,-0.34121704
8.855896000000001,-0.9530029000000001,6.2074584999999995,-0.25349426,-0.19575499999999998,-0.35507202
9.969208,-1.0583496000000001,4.4285736,-0.35682678,-0.061523438,-0.31672668
11.642746,-0.40951538,3.1811828999999996,-0.5496521,0.0055847169999999995,-0.31459045
13.076874,0.28240967,3.0207825,-0.74990845,0.06417847,-0.24641418
12.873367,1.1371307,2.0559081999999997,-0.9011841,-0.10733032,-0.15266418
11.355438000000001,1.572876,1.6321411,-1.0173035,-0.32250977,-0.045074462999999995
9.203049,1.2807921999999998,2.3719482000000003,-1.122757,-0.16804504,0.027359009
8.072998,0.9719391,2.7837523999999996,-1.108902,0.01411438,0.038009644
7.5941467000000005,1.0653076000000001,2.2306976,-0.9672241,0.09080505,-0.0024719238
6.832794,0.87615967,1.5267944,-0.7541809,0.1259613,-0.11325073
6.622101,1.0269928,0.8659973,-0.5496521,-0.0008087158,-0.16331482
6.3635254,1.4268341,0.32011414,-0.42713928,-0.20640564,-0.11645508
6.286911,1.3478241000000002,-0.0007019042999999999,-0.37174988,-0.39175415,-0.023773192999999998
6.617325,0.89053345,-0.38856506,-0.31848145,-0.07749939,-0.058929443
7.7162630000000005,0.49548339999999996,-0.42687988,-0.21195984,0.6447449000000001,-0.29008484
8.721817,0.29676820000000004,0.15252686,-0.10223389,0.88549805,-0.6789093
9.571762,-0.35684204,1.0168304,0.10975647,-0.09454346,-0.65335083
10.871811,-0.7806244000000001,1.6153870000000001,0.30363464,-0.73690796,-0.37104797
11.570922999999999,-0.78541565,1.7326965,0.15235901,-0.07537842,-0.18995667
11.671478,-1.5036774,0.8372649999999999,-0.0042266846,0.23675537,-0.16758728
11.716965,-1.6473236,-0.87698364,0.0042877196999999995,0.06097412,-0.19953918
13.148697,-0.38078308,-0.8051605,0.08418274,0.013046265,-0.18675232
15.753585999999999,0.7444916,1.0335846,0.17153929999999998,-0.06259155,-0.08769226
18.997742000000002,0.7492675999999999,5.3024445,0.29724120000000004,-0.16485596,0.07849121
14.333832000000001,-0.8045654000000001,7.6176452999999995,0.40483093,-0.22984314,0.28622437
6.516754,-0.47416687,5.2904816,0.43891907,-0.19575499999999998,0.33735657
5.463318,0.87615967,4.0455017,0.43572998,-0.16911316,0.29048157
7.8886414,1.2688141000000002,4.735030999999999,0.45277405,0.0087890625,0.2734375
9.741745,1.8146973000000002,4.213089,0.5571594,0.26231384,0.30220032
11.072922,0.9958800999999999,3.758194,0.73399353,0.3528595,0.33735657
11.503891000000001,0.4835205,3.4924315999999997,0.9214783000000001,0.21757507,0.35758972
11.374603,-0.17967224,2.8938904,1.0834045,-0.040222167999999996,0.26385498
10.840683,-0.57232666,2.5826416,1.1409302,-0.21279907,0.09767151
9.325165,-0.86680603,2.3216705,1.1025848,-0.2266388,-0.022705077999999997
8.242981,-0.9889220999999999,2.2354736,1.0461273000000002,-0.08602905,-0.098342896
7.8575134,-1.0128632,1.936203,0.9417267,0.13342285,-0.13136292
7.1895294000000005,-1.1014403999999998,1.7374878,0.68499756,0.46897888,-0.09408569
6.535919,-1.2355194,1.7877655,0.35583496,0.73210144,-0.032287598
6.1983337,-1.3552246000000001,1.7949523999999997,0.17367554,0.43382263,0.006057739300000001
6.4904327,-1.1517181,1.2801971,0.2919159,-0.2735138,0.05293274
7.2493896,-0.7878113,0.40870667,0.35902405,-0.46418762,0.19993591
7.558242999999999,-0.09109497,0.20280457,0.10549927,0.21543884,0.29473877
8.398605,0.31352234,0.073516846,-0.28546143,0.88868713,0.30538940000000003
10.201431,0.24649048,-0.37181090000000006,-0.3493805,0.09933472,0.46305847
11.903717,0.023834229,-0.953598,-0.23432922,-0.5898895000000001,0.68356323
13.040955,-0.06236267,-0.49630737,-0.21728516,-0.32783508,0.66970825
12.195801,1.6494904,0.70558167,-0.20130920000000002,0.13128662,0.5024719
10.543808,3.0860138,0.26264954,-0.20663452,0.26231384,0.36824036
11.142364500000001,2.1570587000000003,-0.63038635,-0.31208800000000003,0.071640015,0.22337341
14.113570999999999,0.13635254,-0.36701965,-0.37493896,-0.20426941,0.006057739300000001
16.062439,-0.43585205,1.5124358999999998,-0.36003113,-0.23196411,-0.21871948
13.002655,1.517807,6.284073,-0.33552550000000003,-0.09774780000000001,-0.33056640000000004
8.065811,3.1674194,6.5713805999999995,-0.30464172,-0.10733032,-0.34228516
7.440917999999999,0.9647522,4.4477234,-0.27693176,-0.13183594,-0.38809204
8.585358,-0.3784027,5.264145,-0.33552550000000003,-0.11798096,-0.43708800000000003
10.002716,-0.6848602,5.027115,-0.487854,-0.12651062,-0.4562683
11.003494,-0.40473938,3.9018402,-0.69451904,-0.03276062,-0.46266174
12.356216,-0.16052246,3.4469452000000005,-0.86816406,0.006652831999999999,-0.43922424
12.763228999999999,0.12199402,2.343216,-0.96510315,-0.1296997,-0.28901672
11.475159,0.7397003000000001,1.4693298000000001,-1.0087738000000002,-0.24049377,-0.06958008
9.653167999999999,1.2688141000000002,1.7374878,-1.0705566,-0.14567566,0.12536621
8.314803999999999,1.1586761,2.415039,-1.1429901000000002,-0.12544249999999998,0.22230529999999998
7.6635895000000005,0.983902,2.3049164,-1.0577698,-0.102005005,0.14454651
7.2039029999999995,1.2328948999999998,1.6273499,-0.8638915999999999,0.18455505,-0.04827881
6.8639220000000005,1.117981,0.6313629,-0.57095337,0.20799255,-0.16970825
6.753784,0.7397003000000001,0.27702332,-0.32273865,-0.061523438,-0.14840698
6.598160000000001,0.51942444,0.37278748,-0.22900389999999998,-0.28523254,-0.053604125999999995
6.9022217,0.7492675999999999,0.38716125,-0.19171143,-0.041290283,-0.06211853
7.771316499999999,0.78279114,0.13815308,-0.14804077,0.5286255,-0.22297668
8.501555999999999,0.31112670000000003,-0.17308044,-0.15122986,1.0037384,-0.5255126999999999
9.337128,-0.06236267,0.35842896,-0.18745422,0.6980133000000001,-0.71299744
10.6922455,-0.3041687,0.77500916,0.10229492,-0.36299133,-0.6032715
11.8151245,-0.8045654000000001,1.6464995999999998,0.06820679,-0.38110352,-0.44880676
11.934845,-1.5683136,1.584259,-0.109695435,0.03541565,-0.31565857
11.673874,-2.1261597,-0.5178528,-0.11714172,0.09187317,-0.25813293
12.660278,-1.055954,-1.1379546999999999,-0.07133484,0.14193726,-0.2006073
14.412842000000001,0.4619751,-0.1850586,-0.013824463,0.10998535,-0.11325073
17.070404,0.7995453,3.042328,0.108688354,-0.03276062,0.004989624000000001
16.828583,-0.20123291,7.526657000000001,0.27593994,-0.24049377,0.19567871
9.899764999999999,-0.9075165000000001,6.9951476999999995,0.42401123,-0.31292725,0.36505127
5.7793427,0.44281006,4.8068542,0.45170593,-0.21917725,0.36930847
5.800888,1.1898041000000001,4.2968903,0.4261322,-0.07324219,0.33842468
8.290863,2.5497131,4.1628112999999995,0.47940063,0.14619446,0.35865784
10.136795,2.3845062,3.2123107999999996,0.6700897,0.32197570000000003,0.42150879999999996
11.202209,0.34465027,3.430191,0.93214417,0.3528595,0.49501038
11.197433,-1.0128632,3.434967,1.1345367,0.14193726,0.46838379999999996
10.699432,-1.2810059,3.3679352,1.2197571000000003,-0.20852661,0.30966187
9.645980999999999,-0.838089,3.162033,1.2240143,-0.25753784,0.13601685
8.362686,-0.8093566999999999,2.5826416,1.1579742,-0.13928223,-0.0014038085999999999
7.7234343999999995,-0.77822876,2.2306976,1.0716858,-0.012527466000000001,-0.08981323
7.345153999999999,-0.98413086,1.9864807,0.91296387,0.24633789,-0.107925415
6.995605499999999,-1.3241119,2.0415497,0.62854004,0.5467377,-0.09088135
6.7753296,-1.5108489999999999,2.1397095,0.35476685,0.4008026,-0.031234741
7.112914999999999,-1.4557799999999999,1.8260651,0.2642212,-0.19148254,0.05293274
7.759353599999999,-0.921875,1.0455627,0.35476685,-0.5579376,0.15199279999999998
8.314803999999999,-0.2706604,0.27223206,0.32600403,-0.08921814,0.36184692
8.580566000000001,-0.06715393,-0.0030975342,-0.088378906,0.83010864,0.6516113
9.282059,0.019042969,-0.29519653,-0.26841736,0.08441162,0.74002075
10.328323,-0.09349060000000001,-0.6758728,0.06074524,-0.9382324000000001,0.5578613
11.417694000000001,-0.08390808,-0.46757507,0.30575562,-0.38963318,0.42364502
11.67627,0.89772034,0.7151642,0.41973877,0.092941284,0.42150879999999996
10.625214,2.4252167,0.8659973,0.34091187,0.22290039,0.425766
10.61084,2.7556152000000003,-0.24012756,0.15235901,0.31770325,0.33735657
12.679443,1.414856,0.38237,0.094833374,0.18455505,0.11578369
15.557266,0.66548157,2.7023467999999995,0.0884552,-0.041290283,-0.11325073
14.99942,2.3605652000000004,6.616867,0.008560181,-0.13928223,-0.31245422
9.832733000000001,1.0916443,6.592925999999999,-0.053237915,-0.17550659,-0.37744140000000004
7.665985000000001,-1.6066284,4.1867523,-0.07347107,-0.24156189,-0.3454895
9.088135000000001,-0.69203186,5.414978,-0.12780762,-0.20213318,-0.37744140000000004
10.222992,-0.6609191999999999,3.4445495999999998,-0.23858643,-0.07431030000000001,-0.4232483
11.290802000000001,-0.67048645,2.786148,-0.45164490000000007,0.052459717,-0.42643738
12.823089999999999,-0.01687622,3.7055206,-0.7307434,0.116378784,-0.39874268
12.748871000000001,1.5561218,3.0399323,-0.9523163,0.010910033999999999,-0.26771545
11.779221000000001,1.6686401000000002,1.7997284,-1.0950623,-0.1797638,-0.05467224
9.665131,1.3190918,1.7518463,-1.2228851,-0.19894409,0.12004089
7.780899000000001,0.98150635,1.9768982,-1.2718964,-0.18722534,0.15519714
7.476837,0.9096832,1.7183380000000001,-1.1898651000000002,-0.013595581,0.02949524
7.397827,1.0293884,1.3208923000000001,-0.9331360000000001,0.28042603,-0.13243103
7.1416473,1.359787,0.82528687,-0.5539093,0.200531,-0.16012573
7.1536255,1.7380828999999998,0.44461059999999997,-0.35043335,-0.08282471,-0.09088135
6.8016663,1.9104613999999998,0.2339325,-0.35682678,-0.30334473,-0.041885376
6.507187,1.5082396999999998,-0.20181274,-0.37493896,-0.18190002,-0.08769226
6.966873,0.86180115,-0.4125061,-0.39624023,0.1685791,-0.21765137
7.776108,0.24649048,0.114212036,-0.49212646,0.83010864,-0.49781800000000004
9.442474,-0.09109497,0.26983643,-0.38346863,0.51690674,-0.6565399000000001
11.003494,0.23213196,1.189209,-0.09158325,-0.5195923,-0.5734558000000001
11.525436000000001,-0.13179016,2.6257324,-0.12460327,-0.37684629999999997,-0.49781800000000004
11.793579,-1.8675842,2.106186,-0.22474670000000002,0.050323485999999994,-0.41578674
11.678664999999999,-2.4110717999999998,-0.716568,-0.18745422,0.10784912,-0.37423706
12.272414999999999,-0.75668335,-1.3701934999999998,-0.11395264,0.12382507,-0.28582764
14.082443,1.0964355,-0.103652954,-0.01914978,0.040740967,-0.11218262
17.01773,1.8553925,3.363144,0.15449524,-0.17550659,0.09767151
15.655426,0.4619751,7.8307343,0.3153534,-0.29801940000000005,0.29048157
9.801605,-1.9633636000000003,6.729400599999999,0.35263062,-0.22557068,0.33203125
6.9022217,-0.94104004,4.529129,0.28445435,-0.17443848,0.25852966
6.9836273,0.5888671999999999,4.407013,0.25675964,-0.068984985,0.23828125
9.437683,1.9391937,4.354355,0.38671875,0.16430664,0.3011322
10.804779,1.8793335,3.6528473,0.6466522,0.35606384,0.38528442
10.981949,0.54096985,3.976059,0.93959045,0.36564636,0.45985413
10.850265499999999,-0.67767334,3.8563538,1.1771545,0.1174469,0.44813538
10.912521,-1.2067871000000001,3.2889252,1.3241577,-0.22557068,0.296875
9.732178,-1.3241119,2.6017914,1.3635712,-0.22984314,0.12536621
8.192703,-1.1780548,2.3384247000000005,1.345459,-0.18722534,0.0018005370999999999
7.462478599999999,-1.0272217,2.3216705,1.2751465,-0.12863159,-0.06958008
7.081786999999999,-1.0200348,2.2019653,1.0482483,0.19094849,-0.088760376
6.830398599999999,-1.1493225,2.2618103,0.6903229000000001,0.55526733,-0.06958008
6.720275999999999,-1.2857971000000001,2.264206,0.41441345,0.44340515,-0.006729125999999999
6.930953999999999,-1.316925,1.8955078,0.29724120000000004,-0.018920898000000002,0.03907776
7.74498,-1.0200348,1.244278,0.29405212,-0.47485352,0.061447144
8.3172,-0.81892395,0.49728394,0.22267151,-0.40133667,0.14027405
8.623657000000001,-0.30656433,0.43264769999999997,-0.10862732,0.38269043,0.19886779999999998
9.555008,0.10762024,-0.25927734,-0.46548462,1.014389,0.3799591
10.816742,0.29916382,-1.1451263,-0.3578949,-0.078567505,0.6036682
11.858231,0.335083,-0.9440155000000001,-0.11820984,-0.79548645,0.60580444
11.721756,1.3382416000000001,0.20280457,-0.0042266846,-0.23516846,0.36291504
10.560562,2.6191406,0.25787354,0.08099365,0.15472412,0.23828125
10.622817999999999,2.4491577,-0.716568,0.043701172,0.2559204,0.21804810000000002
12.229324,1.0222168,-0.9655761999999999,-0.07347107,0.27510070000000003,0.20632935
14.78154,-0.6609191999999999,-0.35743713,-0.12460327,0.08229065,0.124298096
15.645859,0.18663025,3.0064087,-0.15655518,-0.15206909,-0.05467224
12.856613000000001,3.3445892,7.689468400000001,-0.20770264,-0.24900818,-0.2549286
8.350723,2.0996094,6.432510400000001,-0.22686768,-0.20852661,-0.38383484
8.381851,-1.2642517,4.124496499999999,-0.22047424,-0.22238159,-0.41578674
8.781677,-0.8332976999999999,5.288086,-0.29504395,-0.21173096,-0.43496704
9.416138,-0.8907623,4.2154846,-0.5081024000000001,-0.10946655,-0.47863770000000005
10.297211,-0.15812683,3.16922,-0.8180847,-0.043411255,-0.51060486
11.434448,0.8234863000000001,3.375122,-1.0620421999999998,0.0023956299,-0.46266174
12.044967999999999,1.1371307,2.494049,-1.1302185,-0.14355469,-0.29222107
11.539795,0.9072876,1.3663788000000001,-1.1429901000000002,-0.36299133,-0.110061646
9.952438,0.6439209,1.5076447,-1.1611023,-0.28097534,0.004989624000000001
8.104111,0.789978,2.197174,-1.153656,-0.09561157,0.09020996
7.531905999999999,1.2161407,2.2594147,-1.0801392,0.1174469,0.08488464
7.424164,1.5800629,1.4645386,-0.8830719000000001,0.3059845,0.01777649
7.282913000000001,1.8027191000000002,0.51405334,-0.57414246,0.31451416,-0.06958008
7.1823425,1.7093506,0.14533997,-0.28865050000000003,0.1451416,-0.107925415
7.033905,1.0964355,0.37757874,-0.20556639999999998,-0.090286255,-0.06425476
7.287689,0.75645447,0.14533997,-0.18745422,-0.061523438,-0.025909424
8.12088,0.44760132,-0.13717651,-0.14057922,0.17602539,-0.074905396
8.685913000000001,-0.06954956,-0.084503174,-0.17787170000000002,0.6990814000000001,-0.33695984
9.492752000000001,-0.13897705,-0.022247314,-0.12460327,0.6287689000000001,-0.5904999
10.598877,-0.2993927,0.7103729,0.087387085,-0.49615479999999995,-0.51486206
11.348267,-0.65852356,2.1516876,0.14064026,-0.6538086,-0.38916016
11.511063,-1.2307281,2.3934937,-0.03086853,-0.08177185,-0.30393982
11.271652,-1.9968720000000002,0.24349976,-0.08093262,0.08761597,-0.24215698
11.745697,-1.3217163,-1.0780945,-0.023406982000000003,0.10572815,-0.20806885
13.321075,0.5912628000000001,-0.46038818,0.055419922,0.02583313,-0.13349915
16.268341,2.094818,1.7662201000000002,0.18858337,-0.19894409,-0.014190673999999999
17.008148000000002,1.1107941000000001,5.7789,0.39524840000000006,-0.27883909999999995,0.16584778
11.060959,-1.1852417,6.3511047,0.53266907,-0.23942566,0.36611938
6.732239,0.1698761,4.7254486,0.51135254,-0.12544249999999998,0.38635254
6.2653656,1.1036072000000001,3.9138184000000003,0.4730072,-0.005065918,0.36930847
7.855117999999999,1.6949768,4.172394000000001,0.5411835,0.21011353,0.40660095
9.933289,1.6542816000000002,3.8132629999999996,0.76275635,0.33581543,0.45666504
11.080109,0.14593506,3.6624297999999995,1.0237578999999999,0.3251648,0.44601440000000003
11.202209,-0.5531769,3.3296356,1.1686249,0.15258789,0.39167786
11.063354499999999,-0.41191099999999997,2.8843078999999996,1.2122955,-0.16911316,0.28408813
10.191864,-0.28741455,2.5395355,1.1846008,-0.29269409999999996,0.16584778
8.762527,-0.7542876999999999,2.312088,1.1121674,-0.12651062,0.003921509
7.9413146999999995,-1.0631409,2.2929382,1.009903,0.038604736,-0.10153198
7.4696503,-1.3073424999999999,2.3384247000000005,0.8490448,0.27189636,-0.08236694
7.124892999999999,-1.5132446000000002,2.3767395000000002,0.6413269,0.53715515,0.024169922000000003
7.139251700000001,-1.4198761,2.252243,0.40803528,0.42530823,0.12962341
7.1943207,-1.2091827,1.7350922,0.25889587,-0.03276062,0.13282776
7.5079649999999996,-0.68725586,0.9569701999999999,0.29084778,-0.47697449999999997,0.112579346
7.989197,0.05256653,0.13815308,0.23439026,-0.25753784,0.22869873
8.745758,0.17706299,-0.22814941,-0.12034607,0.6266326999999999,0.48010254
9.380234,-0.11264038,-0.53700256,-0.3536377,0.38269043,0.78689575
10.100876,0.08607483,-1.1786499,-0.11076355,-0.7933655,0.70806885
11.209396,0.7085724,-0.72135925,0.15130615,-0.5153350999999999,0.43855286
11.910903999999999,0.8019409000000001,0.17407227,0.39950562,0.06629944,0.33628845
11.467972,1.3023376,0.3177185,0.40376282,0.10891724,0.35119629999999996
10.950821000000001,1.864975,-0.41011047,0.21734619,0.09933472,0.29580688
11.992294000000001,1.1275635,-0.21139526,0.07992554,0.043930054,0.112579346
14.487060999999999,0.631958,1.9026793999999998,0.010681152,-0.029571532999999997,-0.14521789999999998
14.815063,2.9375763,5.996765,-0.06707764,-0.09881592,-0.35186768
11.056168,2.8561707000000003,7.217819,-0.16401672,-0.102005005,-0.4520111
8.259735000000001,-1.6712646,4.0766144,-0.22686768,-0.15953064,-0.43708800000000003
9.107285000000001,-0.9577941999999999,5.833969000000001,-0.31208800000000003,-0.21598816,-0.43496704
9.847092,-0.9673767,4.4716644,-0.48999023,-0.09454346,-0.47438050000000004
10.893355999999999,-0.8045654000000001,2.7717742999999997,-0.76483154,0.07376099,-0.49993896
12.198196000000001,-0.0647583,2.8986664,-1.0982513,0.18348694,-0.48928833
12.789566,0.8881378000000001,2.3408203,-1.3368683000000001,0.09080505,-0.36572266
12.025818,1.6710358,1.2251282,-1.4327545,-0.12544249999999998,-0.14627075
10.088913,1.6375275,1.0766907,-1.4497986,-0.1563263,-0.0045928955
7.694702,1.5225983,1.5651093,-1.4348755,-0.051940917999999996,0.028427123999999998
6.9405365,1.4866943000000001,1.6512909,-1.3379364,0.23568726,-0.04081726
7.1991119999999995,1.434021,1.1245728000000002,-1.1238251,0.34434509999999996,-0.15266418
7.3236084,1.5130157,0.55714417,-0.87667847,0.24313354,-0.23043823
7.606125,1.8218689,0.042388916,-0.68600464,0.08015442,-0.23043823
7.414581299999999,2.1474915,0.054367065,-0.47508240000000007,-0.06472778,-0.11431885
6.9764557,1.8482056,-0.2137909,-0.16401672,0.14300537,-0.037628174
7.637253,1.0557251,-0.29998779999999997,0.12680054,0.5936127,-0.030166626000000002
8.319595,0.40690613,-0.048583984000000004,0.31428528,0.7512665,-0.25813293
9.411346,-0.21798706,0.3249054,0.50390625,0.21543884,-0.48609924
10.586899,-0.82611084,1.153305,0.79151917,-0.6868286,-0.28582764
11.166306,-0.97694397,2.185196,0.73612976,-0.41200256,-0.15586853
11.918076,-1.3767853,1.7374878,0.564621,0.2505951,-0.1579895
11.743300999999999,-1.7335205000000002,-0.077316284,0.6125641,0.21757507,-0.16651917
12.641129,-0.7231598000000001,0.35842896,0.7254791,0.022628784,-0.16331482
13.684998,0.44281006,0.9521941999999999,0.76168823,-0.026367188,-0.09727478
15.231659,0.18902588,2.9681091,0.7893982,-0.04234314,0.044403076
15.195739999999999,-0.5603484999999999,6.2146454,0.82987976,-0.017852783,0.22444153
8.621262,0.27522278,5.431732,0.8074951,-0.033828735,0.31498718
6.4952087,0.60801697,3.3727263999999995,0.70736694,-0.13928223,0.29048157
7.519928,0.7037810999999999,3.8946532999999994,0.60723877,-0.07749939,0.29154968
9.210236,1.1131897,4.847549400000001,0.6029663000000001,0.15791321,0.41297913
11.094482000000001,0.7684326,4.3854675,0.7158966,0.3773651,0.5259094
11.807953,0.45478820000000003,3.6289062000000007,0.87887573,0.41784668,0.57276917
11.309952000000001,0.79714966,2.865158,0.9555664,0.27616882,0.51312256
11.161514,0.256073,2.6401062,0.9427948,0.07376099,0.36505127
10.546204,-0.35923767,2.611374,0.947052,-0.027435302999999998,0.23828125
8.8535,-0.6106262,2.3456116000000002,1.0013733,0.048202515,0.14666748
7.950882000000001,-0.15333557,1.8619843,1.0280151,0.29640198,0.09020996
7.4050139999999995,-0.33769226,1.7710113999999997,0.9928589,0.46791077,0.10192871
7.0434875,-0.921875,2.0559081999999997,0.867157,0.42103577,0.19993591
6.837585400000001,-1.0655364999999999,2.0966186999999996,0.6871338,0.08761597,0.21591187
6.830398599999999,-0.83569336,1.7374878,0.50497437,-0.29162598,0.17010498
7.287689,-0.11982727,1.1820374,0.3110962,-0.34062195,0.17649841
8.046661,0.20339966,0.7103729,0.030929565,0.07269287,0.24893188
8.523102,0.09326172,0.7175598000000001,-0.21302795,0.44447327,0.45985413
9.18869,-0.16531372,0.35842896,-0.055358887,-0.28735352,0.7197876
10.517471,-0.41191099999999997,0.25308228,0.13638306,-0.6953583000000001,0.6675873000000001
11.369812,-0.39994812,0.15969849,0.26208496,-0.32145690000000005,0.55467224
11.666687,0.40690613,-0.027038574,0.292984,-0.080703735,0.42150879999999996
11.336288,2.16185,-0.18266296,0.15023804,-0.11265564,0.33415222
11.374603,2.4036713,-0.5992584,0.01600647,-0.14781189,0.27662659999999994
12.475937,1.4244385,0.41110230000000003,-0.01914978,-0.090286255,0.14666748
12.926041,1.4819031,3.5498962,-0.072402954,0.020507812,-0.088760376
12.068909,2.3773346,9.623992999999999,-0.13951111,0.0013275146,-0.29754640000000004
9.155167,0.4045105,6.1907043,-0.15762329,-0.08177185,-0.36039734
8.688309,-0.64894104,5.2066803,-0.2556305,-0.20852661,-0.36253357
9.942871,0.14833069,5.702286,-0.48892212,-0.17124939,-0.43603516
10.548599000000001,0.30395508,3.6169279999999997,-0.74139404,0.0002593994,-0.53616333
12.368195,0.28240967,2.9058533,-0.99598694,0.052459717,-0.62991333
14.005829,0.47633362,2.197174,-1.1707001,0.013046265,-0.56811523
12.997864,0.81152344,0.93063354,-1.2463226,-0.18829346,-0.38383484
11.080109,0.7492675999999999,1.0862578999999999,-1.2846832000000001,-0.35980225,-0.20274353
8.575775,1.0653076000000001,1.6967773000000002,-1.3091736,-0.23942566,-0.047210693
7.445709,1.4220428,1.6872101000000002,-1.2559204,-0.050872803,0.0007324219
7.6731567,2.0182037,1.1269684,-1.0726928999999998,0.1770935,-0.084487915
7.709076,2.2025604,0.68403625,-0.8745575000000001,0.26231384,-0.19528198
7.7162630000000005,1.7691956000000002,0.23631287,-0.7839965999999999,0.051391599999999996,-0.25706482
6.926162700000001,1.1443176000000002,0.020843506,-0.6742859,-0.17550659,-0.21978760000000003
6.2318573,0.33746338,0.078308105,-0.45376587,-0.06791687,-0.23576355
6.353958,0.07890319999999999,0.1477356,-0.24604797,0.5296936,-0.29222107
6.7657623,-0.05038452,0.06872558599999999,-0.14910889,0.8279724,-0.48928833
8.594925,0.28718567,0.20280457,-0.18106079,-0.017852783,-0.49781800000000004
10.6922455,0.5050659000000001,1.2969513000000001,-0.12246704,-0.71240234,-0.43389893
12.150314,-0.27545166,1.4310303,-0.32273865,-0.1531372,-0.4285736
12.607605,-2.2171478,0.7103729,-0.42820740000000007,0.16323853,-0.33909607
11.831894,-2.3512115000000002,-0.45559692,-0.31848145,0.104660034,-0.28689575
13.084061,-0.4262848,0.72473145,-0.24923706,0.12382507,-0.27304077
14.343414000000001,0.9001007,1.3927155,-0.18745422,0.022628784,-0.1771698
17.331375,1.2807921999999998,5.2521667,-0.023406982000000003,-0.13076782,-0.016311646000000003
14.661835,-0.16291809,6.082962,0.16728210000000002,-0.19680786,0.22549438
8.037078999999999,-0.39515686,4.220276,0.24290466,-0.15206909,0.34161377
7.0674285999999995,0.7803955,3.9353637999999997,0.2450409,-0.14035034,0.34907532
7.4505005,1.1227722,4.122116,0.32174683,-0.035964966,0.40126038
9.270096,1.5441437,4.110138,0.5433197,0.29747009999999996,0.45559692
10.720978,0.7779999,3.8778992,0.8170929,0.50520325,0.47370909999999994
10.974762,-0.5603484999999999,3.5929870000000004,1.1047058,0.37843323,0.49075317
10.977158,-1.0679321000000002,3.0016173999999998,1.3092346000000001,0.07589722,0.42257690000000003
10.656342,-0.5388031,2.9537354,1.3880768,-0.104141235,0.25
9.131226,-0.57232666,2.5610962,1.3518523999999998,-0.06259155,0.10618591
7.687530499999999,-0.9362488000000001,2.1708374,1.2080383,0.083343506,-0.030166626000000002
7.3068542,-0.91230774,2.1037903,1.0088348,0.2601776,-0.09941101
7.1871339999999995,-1.4318389999999999,2.252243,0.7286682,0.50520325,-0.06425476
7.0626373,-1.9585723999999998,2.3264617999999997,0.44212340000000006,0.50413513,-0.0014038085999999999
6.9764557,-2.1572876,2.3791351,0.28233337,0.10784912,-0.0024719238
7.4433136,-1.8939209,1.7614288,0.26741028,-0.35980225,-0.016311646000000003
8.458466,-1.2259368999999998,0.5499573,0.23013306,-0.2735138,0.12536621
8.760132,-0.5172577,-0.19941711,-0.036193848,0.5019989,0.38848877
8.851105,-0.22994995,-0.35743713,-0.39518738,0.37950134,0.7485504
9.531067,0.47154236,-0.43165588,-0.3621521,-0.54408264,0.6995392
10.550995,1.1491089,-0.35264587,-0.14804077,-0.5526123000000001,0.46731567
11.439239500000001,0.9767151,0.6194,-0.018081665,-0.13183594,0.35440063
11.544586,1.4866943000000001,1.3256836,-0.05003357,0.040740967,0.2776947
11.029831,2.4180298,-0.07971191400000001,-0.17466736,0.051391599999999996,0.15519714
11.611618,1.7859650000000002,-0.110839844,-0.27374268,-0.019973755,0.027359009
14.032166,0.8378601000000001,1.8619843,-0.325943,-0.051940917999999996,-0.12390137
14.891678,2.1594542999999997,5.7214355,-0.38772583,-0.060455322,-0.322052
11.654724,1.5776671999999998,7.198653999999999,-0.42181396,-0.17231749999999998,-0.40299988
7.8263855,-1.3815613000000002,4.347168,-0.39730835,-0.3289032,-0.40727234
8.360291,-0.34487915,5.592148,-0.44631958,-0.34701538,-0.48716736
9.294037,-0.17010498,4.6009519999999995,-0.5634918000000001,-0.24475098,-0.57025146
10.299605999999999,0.06932068,3.1117554,-0.73713684,-0.12544249999999998,-0.62031555
11.977936,0.3255005,3.3320160000000003,-0.94911194,0.019439697,-0.5393677
12.827881,0.6439209,2.762207,-1.1184998,0.026885986,-0.39555359999999995
12.126373,0.93122864,1.9170532,-1.1962585,-0.13395691,-0.21765137
10.515075999999999,1.2975464,2.1445007,-1.2005157,-0.16166687,-0.023773192999999998
8.661972,1.3693695,2.4174347000000003,-1.1515198,-0.12330627400000001,0.09339905
8.295653999999999,1.2352905,2.0176086,-1.029007,-0.07324219,0.089141846
8.152008,0.94081116,1.5004578000000002,-0.8266144,0.19520569,0.0007324219
7.8000490000000005,1.1778412,0.8133239999999999,-0.57414246,0.30493164,-0.065322876
7.2015076,1.3478241000000002,0.38955688,-0.34405518,0.09080505,-0.08023071
6.847167999999999,1.4292296999999998,0.24829102,-0.27481079999999997,-0.2543335,-0.032287598
6.65802,1.3765564,-0.18984985,-0.2833252,-0.16592407,-0.0014038085999999999
6.8519440000000005,0.85461426,-0.13478088,-0.2364502,0.5446167,-0.11218262
7.3068542,0.23690796,0.38237,-0.109695435,1.2370299999999999,-0.5787810999999999
8.173553,-0.44543457,0.62657166,-0.012756348,0.41358948,-0.83869934
9.914139,-0.7806244000000001,1.3256836,0.2684784,-0.7784424,-0.56173706
11.523041000000001,-0.9003296000000001,1.7303008999999998,0.17367554,-0.36512756,-0.39448547
11.963577,-0.9362488000000001,1.8452301,-0.10542297,0.24420166,-0.30180359999999995
11.338683999999999,-1.0990448,-0.053375244,-0.14590454,0.1770935,-0.21871948
11.956389999999999,-0.5651398,-1.0421905999999999,-0.039382935,0.24420166,-0.16651917
13.876541,0.5888671999999999,0.32011414,0.09164429,0.19839478,-0.08236694
17.803024,0.3255005,4.325622599999999,0.28659058,-0.07110596,0.06997681
18.449463,-1.3384705,8.5082855,0.49751282,-0.33210754,0.30752563
9.042648,-1.2115784,5.881851,0.61361694,-0.33743286,0.46092224
5.729065,0.9743347,3.5427093999999997,0.57315063,-0.21917725,0.4534607
6.6077423,1.2352905,3.8156586000000003,0.47087097,-0.023178099999999997,0.43536377
8.149612,2.3174744,3.868332,0.48365784,0.28575134,0.45559692
10.3953705,2.233673,3.7462157999999994,0.6402588,0.5339508000000001,0.48222349999999997
11.618805,0.38056946,4.239425700000001,0.9204254000000001,0.5211792000000001,0.519516
10.922089,-0.59147644,3.9449463,1.1803436,0.25379944,0.48649597
10.536621,-0.91947937,3.5858154000000004,1.2943268,-0.08282471,0.33203125
9.727386,-0.86442566,2.793335,1.2772827,-0.27883909999999995,0.1796875
8.369873,-0.77583313,1.9816895,1.2261505,-0.22131348,0.040145874
7.740203999999999,-0.57232666,1.6536865,1.1174927,0.009841919000000001,-0.031234741
7.522323599999999,-0.8596344000000001,1.584259,0.8863373,0.31770325,0.0018005370999999999
7.1607970000000005,-1.2283325,1.8739471,0.5720824999999999,0.44447327,0.049728394
6.837585400000001,-1.3265076,2.3887023999999997,0.3004303,0.14939879999999997,0.07316589
6.9237823,-1.5132446000000002,2.3527985,0.2684784,-0.29055786,0.067840576
7.2589570000000005,-1.1277771,1.323288,0.27912903,-0.27565002,0.17329407
7.5965424,-0.332901,0.41827393,-0.027664185,0.48709106,0.47903442
8.152008,0.028625487999999998,0.38237,-0.5070342999999999,0.41891480000000003,0.85720825
9.04982,0.45239258,-0.036621094,-0.5208893,-0.81466675,0.7037964
10.302002,0.6391449,-0.6758728,-0.25349426,-0.76034546,0.38955688
11.733734,0.23930359,-0.11323547,0.02027893,-0.18403625,0.3330841
12.083282,0.6535034000000001,0.54278564,0.059692382999999995,0.023696900000000003,0.31924438
11.108841,1.9822845000000002,0.31054688,-0.10542297,0.11317444,0.27130127
11.240524,2.3031158,0.04957580599999999,-0.2364502,0.08761597,0.12004089
13.843017999999999,1.9822845000000002,2.142105,-0.23432922,-0.08282471,-0.09513855
15.535720999999999,3.2631836,5.6424255,-0.28120422,-0.24049377,-0.30073547
12.6171875,2.5664673,6.5665894,-0.32913208,-0.22557068,-0.43176270000000005
8.405792,-2.1884155,4.038315,-0.34617615,-0.2554016,-0.43815613
8.484802,-1.1014403999999998,6.1284485,-0.35150146,-0.2266388,-0.4328308
10.060181,-0.48612976,5.0773926,-0.42074585,-0.07110596,-0.5212555
10.819138,-0.34008790000000005,2.877121,-0.57307434,0.051391599999999996,-0.5990143
12.377761999999999,-0.17967224,3.3463898000000003,-0.8457947,0.13874817,-0.57450867
12.648315,0.39013672,3.3918762000000005,-1.092926,0.06417847,-0.46372986
11.882172,1.0509491000000002,1.9553528000000002,-1.219696,-0.20747375,-0.28157043
10.555786,1.220932,1.481308,-1.2580414,-0.33955383,-0.05039978
8.499161,0.9671478000000001,1.9194488999999997,-1.2122344999999999,-0.17018127,0.13069153
7.637253,0.82588196,2.233078,-1.0641631999999999,0.038604736,0.16903687
7.780899000000001,0.9671478000000001,1.7590331999999997,-0.86177063,0.24101257,0.10939026
7.5007779999999995,1.5202026000000002,1.1125946000000002,-0.5847931,0.2505951,0.038009644
7.07222,1.9200439999999999,0.31532288,-0.3813324,0.07269287,-0.023773192999999998
6.681961,1.7476501,0.073516846,-0.32168579999999997,-0.20747375,-0.05467224
6.327621499999999,1.2616272,-0.17787170000000002,-0.22474670000000002,-0.230896,-0.11431885
6.6436615,0.5170288,-0.42448425,-0.036193848,0.23036194,-0.32098390000000004
7.4816284,-0.09588623,-0.074920654,0.122543335,0.8471527,-0.6458893
8.709854,-0.37121582,0.51882935,0.24610901,0.26338196,-0.67251587
10.208618,-0.08869934,0.6098175,0.36648559999999997,-0.7976227,-0.43708800000000003
11.250092,0.04058838,1.8069153000000002,0.13638306,-0.31292725,-0.37530518
11.946808,-0.66329956,2.1157684,-0.11820984,0.24101257,-0.28796387
11.910903999999999,-1.7311249,0.092666626,-0.08732605,0.16218567,-0.21765137
12.305939,-1.3600159,-0.26885986,0.012817383,0.12489319,-0.19953918
14.300308,0.03819275,1.1485138000000001,0.0650177,0.0013275146,-0.10153198
17.812607,1.1347351,4.143661499999999,0.19284058,-0.13395691,0.09979248
16.696915,0.3255005,7.4332886,0.33346558,-0.18508911,0.31710815
7.675552400000001,-0.81892395,4.9552917,0.37820435,-0.2000122,0.34587097
6.318039,0.42126465,3.7534027,0.37393188,-0.24049377,0.30220032
7.5366974,0.6511078,3.9569092000000006,0.3984375,-0.10626221,0.31817627
9.219818,1.3430328,4.0670470000000005,0.52201843,0.18562317,0.39060974
11.669083,1.5130157,3.9712677000000003,0.7712859999999999,0.39015198,0.46411133
12.102432,0.78279114,3.6911468999999997,1.0482483,0.37843323,0.47477722
11.195038,-0.031234741,2.9609222,1.2666321000000003,0.13449097,0.35865784
10.826324000000001,-0.5100707999999999,2.707138,1.3369446000000003,-0.20108032,0.17010498
9.574158,-0.94821167,2.494049,1.2708893,-0.35980225,0.022033691
8.108902,-1.0272217,2.2666016,1.1473236,-0.21066284,-0.09301758
7.4433136,-1.0368042,2.0128174,1.0013733,0.06417847,-0.14308167
6.930953999999999,-1.2570648000000002,1.8093109,0.81388855,0.48709106,-0.13136292
6.4904327,-1.8149109,2.0224,0.58380127,0.6287689000000001,-0.05253601
6.4497222999999995,-2.1046142999999997,2.0990142999999994,0.36328125,0.27189636,0.03907776
6.9596862999999995,-1.826889,1.8835297,0.28871155,-0.20640564,0.12110901
7.5773926,-0.8404845999999999,0.77500916,0.20455933,-0.06791687,0.29367065
7.649215700000001,-0.26107788,-0.005493164,-0.044708252000000004,0.5233002,0.50779724
8.068207000000001,0.12678528,-0.2137909,-0.2833252,0.12915039,0.5887604000000001
9.540633999999999,0.7373046999999999,-0.5968628,-0.10437012,-0.7060088999999999,0.45666504
11.465575999999999,0.47633362,-0.77882385,0.17260742,-0.51745605,0.42364502
12.569305,-0.026443481,-0.1850586,0.2642212,0.03541565,0.47796629999999996
11.953994999999999,1.3621826000000001,0.32250977,0.13638306,0.17602539,0.48968506
11.197433,2.860962,-0.12998962,-0.09370422,0.23994446,0.40126038
12.463959,2.6215363,0.41827393,-0.3035736,0.16218567,0.19033813
15.099976000000002,1.7739868000000003,2.240265,-0.41862488,-0.07643127400000001,-0.09088135
15.207718,1.4842986999999999,4.7517853,-0.5166168,-0.2266388,-0.37423706
11.218979,-0.5675354,6.312805,-0.59439087,-0.27244568,-0.5020752
8.202286,-1.0966492,4.612915,-0.5560303000000001,-0.38217163,-0.42538452
8.604507,0.20100403,5.537079,-0.56030273,-0.31506348,-0.4285736
9.164749,0.26803590000000005,4.2897034000000005,-0.6870575,-0.09454346,-0.5255126999999999
9.954834,0.7373046999999999,2.8268432999999997,-0.8745575000000001,0.024765015,-0.5521393
11.657119999999999,0.99827576,3.0926056,-1.125946,0.05671692,-0.50527954
12.712952,0.83306885,2.9705048,-1.3038483,-0.035964966,-0.37850952
12.31073,0.7397003000000001,2.0032349,-1.3645782,-0.21598816,-0.17930603
10.481552,0.7157593000000001,1.6417236000000002,-1.3571167,-0.25646973,-0.005661010699999999
8.168762,1.4028931,2.0774689,-1.3027802,-0.25221252,0.08488464
7.4433136,1.4962616000000002,1.699173,-1.1621704,-0.08602905,0.061447144
7.637253,1.0653076000000001,1.0479584000000002,-0.95018005,0.27722168,-0.02909851
7.414581299999999,1.3813476999999998,0.6888274999999999,-0.6338043000000001,0.3486023,-0.09194946
7.184738,1.7428589,0.27941895,-0.39198303,0.12277222,-0.063186646
6.820831299999999,1.8769379000000002,0.0040893555,-0.36961365,-0.11798096,0.05718994
6.5,1.6040039,-0.37898254,-0.42395020000000005,-0.16271973,0.15731812
7.0147552,0.5026702999999999,-0.31195068,-0.43032837,0.13449097,0.102996826
7.821594,-0.70401,0.28660583,-0.45271300000000003,0.8524780000000001,-0.09408569
9.282059,-1.3025513000000002,0.62657166,-0.42074585,1.0783081,-0.61286926
10.601272999999999,-1.1253815,0.49011229999999995,-0.03831482,-0.053009033,-0.8450928
11.173477,-0.70640564,1.3879242,0.1161499,-0.5568695,-0.7012786999999999
11.40094,-0.88597107,1.7398833999999999,0.07992554,-0.104141235,-0.51379395
11.568527,-1.4725494,-0.35983276,0.106552124,-0.0061340330000000005,-0.27410890000000004
11.705002,-0.9099120999999999,-1.7652283,0.14810179999999998,-0.104141235,-0.047210693
12.978714,0.46435547,-0.82670593,0.20455933,-0.1531372,0.12004089
14.178207,1.4316254,0.8636017,0.32067870000000004,-0.22131348,0.22869873
16.833374,1.3023376,7.1675415,0.47193909999999994,-0.32783508,0.3330841
13.804718,-1.2642517,9.540192,0.5997772,-0.24794006,0.33842468
7.9437103,-2.0854645,5.8124237,0.644516,-0.14035034,0.3011322
5.800888,-0.61302185,4.8307953,0.6551666,-0.040222167999999996,0.34161377
7.1536255,2.1594542999999997,4.4142,0.8021698,0.22503662,0.47050476
10.1032715,3.449936,3.6265106,1.0738219999999998,0.5158539000000001,0.601532
12.210175,2.2312775,3.3320160000000003,1.3603668,0.50413513,0.66438293
12.006668,-0.17489624,2.5874328999999996,1.519104,0.3251648,0.6260376
11.056168,-1.5874633999999999,2.6401062,1.4945983999999999,-0.035964966,0.44494629999999996
9.973984,-1.7670288,2.6831970000000003,1.3550415,-0.36619568,0.24360657
8.389023,-1.5228271,2.5251770000000002,1.2293396,-0.39282227,0.07209778
7.282913000000001,-1.0200348,2.4629211,1.0855408000000002,-0.08921814,-0.021636963
6.681961,-1.3384705,2.2713928,0.82774353,0.50520325,0.026290894
6.2845306,-2.0998229999999998,2.0846405,0.48365784,0.89508057,0.079559326
6.7082977,-1.9585723999999998,2.1899872000000005,0.33558655,0.5265045,0.038009644
7.4385223,-1.6114044,1.9290161,0.48579407,-0.19148254,-0.01737976
8.065811,-0.70880127,0.49728394,0.62960815,-0.34915159999999995,0.046539307
8.391418,0.6439209,-0.31913757,0.5720824999999999,0.3251648,0.2776947
9.006729,1.0461578,-0.07014465,0.36648559999999997,0.59254456,0.8305664
10.304382,1.0677032,-0.929657,0.26741028,-0.49934387,1.0010071
11.338683999999999,1.1874083999999998,-2.0333862000000003,0.42720032,-0.7028198,0.6548004
12.21257,0.52900696,-1.1403503000000001,0.49325562,-0.08389282,0.43748474
11.384171,1.086853,0.9545745999999999,0.37606812,0.0055847169999999995,0.27876282
10.146378,2.0684814,1.2562561,0.15768433,0.06736755,0.20739746
10.302002,1.4052886999999998,0.545166,-0.0010375977,0.16644287,0.18501282
12.167084,0.41647340000000005,2.2929382,-0.084121704,0.14300537,0.04121399
12.938004,1.536972,6.157181,-0.20556639999999998,-0.06578064,-0.17398071
12.54776,2.4826813,8.639969,-0.27693176,-0.07963562,-0.33163452
10.064972000000001,-1.3839569,5.398224,-0.2875824,-0.1563263,-0.3582611
8.882233,-1.0966492,4.7637634,-0.3270111,-0.28309629999999997,-0.43176270000000005
10.838303,-1.2379149999999999,4.4644775,-0.487854,-0.080703735,-0.54255676
11.932449,-0.61302185,2.6065826000000003,-0.72328186,0.040740967,-0.5819701999999999
13.373748999999998,1.0820618,2.8244476,-0.9342040999999999,0.08441162,-0.5553435999999999
13.459945999999999,2.2145232999999998,2.532364,-1.0801392,0.04925537,-0.46691895
11.788788,1.864975,1.5459441999999999,-1.153656,-0.17231749999999998,-0.28796387
10.199050999999999,0.71336365,1.5986176,-1.1760253999999999,-0.17337036,-0.05039978
8.305237,0.35183716,2.1899872000000005,-1.186676,-0.025299072000000002,0.110458374
7.479233,1.4435883,1.8236694,-1.1547089,-0.019973755,0.03375244
7.476837,1.7452545,1.2610321000000002,-1.0620421999999998,0.06097412,-0.16545105
7.381073,2.4946442,0.9426117,-0.84259033,-0.040222167999999996,-0.26985168
7.041092,2.2456512,0.5044708,-0.6359253,-0.17443848,-0.25706482
6.488037,0.9168700999999999,0.1477356,-0.5166168,-0.26072693,-0.13775635
6.681961,0.4835205,0.059143065999999994,-0.42395020000000005,-0.102005005,-0.086624146
7.337967,0.5433655,0.016052246000000003,-0.33978270000000005,0.38375854,-0.20379639
7.967651400000001,0.4619751,-0.110839844,-0.18638611,0.74061584,-0.48609924
9.253342,0.0046691895,0.45658875,0.06820679,0.29000854,-0.69062805
10.467194000000001,-0.21798706,0.79896545,0.23225403,-0.5249176,-0.56173706
10.92688,-0.45262146,1.9529572,0.15556335,-0.3438263,-0.43708800000000003
11.463181,-0.98413086,1.7518463,0.009613037,0.10252380000000001,-0.36146545
11.477554,-1.3719940000000002,-0.15153503,0.036254882999999995,0.03755188,-0.31777954
12.133560000000001,-0.36882020000000004,-0.4819335999999999,0.10017395,-0.022109985,-0.25387573
13.603592,0.49308777,0.6241760000000001,0.110824585,0.040740967,-0.18995667
15.399246,0.24888611,3.2099152,0.17367554,0.06097412,-0.10473633
16.220458999999998,-0.39276123,7.679900999999999,0.3153534,-0.008255005,0.089141846
10.270874000000001,-1.1876373,5.403015,0.3984375,-0.051940917999999996,0.24467468
6.5742188,0.06932068,3.4158172999999996,0.36328125,-0.080703735,0.26704407
6.808853,0.5840759,4.2585754,0.30789185,-0.031692505,0.28622437
8.707458500000001,1.196991,4.536300700000001,0.40376282,0.19200134,0.34054565
10.773651,1.2616272,3.6049652,0.6455841,0.41145325,0.37783813
12.392136,0.4116974,3.1045685,0.9502411000000001,0.44554138,0.45452879999999996
12.052155,-0.24911499,2.4222259999999998,1.2112427,0.31132507,0.45666504
11.422485,-0.20840454,2.3695526,1.2996521,0.07908630000000001,0.33415222
10.067368,-0.04798889,2.4413757,1.2708893,0.0077209473,0.19886779999999998
8.231003,-0.64894104,2.0654907,1.1707611,0.040740967,0.061447144
7.606125,-0.8715973,1.9816895,1.0035094999999998,-0.0029296875,-0.010986328
7.3547363,-1.1708832,2.106186,0.8490448,0.14300537,0.03375244
7.165588400000001,-1.826889,2.3695526,0.6189574999999999,0.5073242,0.114715576
6.7466125,-1.9585723999999998,2.5539092999999995,0.38459778,0.39015198,0.122161865
6.964477499999999,-1.7263336,2.0846405,0.3707428,-0.12330627400000001,0.06251526
7.764145,-1.3887482,0.83247375,0.5283966,-0.36087036,0.11683655
8.156784,-0.51486206,0.044784545999999995,0.5209503,0.17495728,0.296875
8.286072,0.17945862,0.14294434,0.25675964,0.5009308,0.56851196
8.781677,0.74687195,0.50686646,-0.0052948,-0.35766602,0.775177
9.904556,1.299942,0.24349976,0.18644714,-0.7582091999999999,0.58662415
11.381775,1.3119048999999998,-0.08929443,0.39736938,-0.3565979,0.44494629999999996
12.590850999999999,1.1299438,0.6217804,0.32814026,-0.047683715999999994,0.39167786
11.784011999999999,1.9439849999999999,0.5499573,0.14170837,0.07269287,0.32670593
11.250092,2.1115722999999997,0.14294434,-0.10116577,0.0471344,0.19673157
13.143906,1.2281189,1.3903198,-0.26734924,-0.09135437,-0.006729125999999999
14.381714,0.924057,4.1795654,-0.372818,-0.30334473,-0.19528198
13.014617999999999,0.96235657,6.9400787,-0.48573303,-0.36938477,-0.36039734
9.978775,-0.54359436,5.367096,-0.49957275,-0.25326538,-0.4328308
7.862304700000001,-0.21798706,4.6775665,-0.45803833,-0.27990723,-0.404068
8.245377000000001,0.19621277,4.699112,-0.53793335,-0.19894409,-0.41259766
9.356277,-0.04081726,3.2601929,-0.69984436,-0.012527466000000001,-0.5063324
11.266861,0.50746155,2.8005066000000003,-0.9672241,-0.001876831,-0.48716736
12.940399000000001,1.1012268,2.7813567999999997,-1.202652,-0.045547485,-0.39448547
12.181442,2.2265015,2.2306976,-1.2676392,-0.2266388,-0.26239014
10.941253999999999,1.4795074,1.4549713,-1.2271576000000002,-0.46739197,-0.061050415
9.2964325,0.31352234,1.7063598999999998,-1.1643066,-0.28735352,0.063583374
8.06102,0.766037,1.9218445,-1.0300751,0.06311035,0.07209778
7.665985000000001,1.8984832999999999,1.6584778000000002,-0.7435303000000001,0.200531,0.019897461
7.814422599999999,2.47789,1.0910492,-0.47294617,0.27616882,-0.00033569336000000005
7.4672546,2.0588990000000003,0.28660583,-0.29185486,0.17495728,-0.019515991
7.440917999999999,1.6399231,-0.024642944,-0.27587890000000004,-0.10307312,-0.007797241
7.1584015,1.1874083999999998,-0.058166504,-0.34724426,-0.20108032,0.03161621
6.9596862999999995,0.50027466,-0.23294067,-0.3770752,0.14300537,-0.033355712999999995
7.6204834,-0.5052948,-0.2137909,-0.35577393,0.805603,-0.3731842
8.606902999999999,-1.2163696000000002,0.13815308,-0.2598877,0.46365356,-0.83976746
9.569366,-0.85723877,1.0072478999999999,0.0032348633000000003,-0.6410216999999999,-0.69062805
10.412125,-0.25151062,1.4358215,0.052230835,-0.5749816999999999,-0.47756958
11.599655,-0.24911499,1.8164977999999998,-0.12567139,0.22929382,-0.42004395
11.748092999999999,-0.921875,0.39912415,-0.17254639,0.25698853,-0.3497467
11.604446000000001,-1.0846863000000002,-1.6287688999999999,-0.037246704,0.15791321,-0.25280762
12.825485,0.1124115,-0.6543274,0.18112183,0.15258789,-0.09408569
14.982666,0.9001007,2.2163239,0.41015625,-0.10733032,0.13175964
18.016113,0.36619568,7.660736,0.6477050999999999,-0.40879822,0.39807129999999996
12.451981,-0.46937559999999995,7.3447113,0.7659607,-0.3480835,0.49714659999999994
6.842376700000001,-0.03363037,3.3296356,0.73399353,-0.18722534,0.42044067
7.3834686000000005,0.4619751,3.5115814,0.65730286,-0.013595581,0.37463379999999996
8.846313,1.4483795,4.090987999999999,0.6732788000000001,0.30812073,0.44494629999999996
10.759293,1.9727172999999998,3.7677612000000003,0.83732605,0.5669860999999999,0.49819946
11.616408999999999,1.2927551000000002,4.220276,1.1345367,0.5744324000000001,0.5482788000000001
10.795197,0.260849,3.8635406000000003,1.3944702,0.37522888,0.52163696
10.550995,-0.39515686,3.2721709999999997,1.4775543,0.046066284000000006,0.37463379999999996
10.158339999999999,-0.8021698,2.4820862,1.4700928,-0.13502502,0.21804810000000002
8.8702545,-0.9865265,1.7590331999999997,1.3443909,-0.060455322,0.06890869
8.369873,-0.86203,1.3687744,1.1483917,-0.037017822,-0.039749146
7.871886999999999,-1.0703278,1.1676636,0.8501129000000001,0.2239685,-0.07383728
7.373886,-1.6114044,1.5267944,0.53692627,0.5669860999999999,-0.053604125999999995
6.930953999999999,-1.7454834,2.1133728,0.30470276,0.43807983,0.026290894
6.732239,-1.427063,1.8763428,0.22692871,0.019439697,0.09660339
6.9237823,-0.73753357,1.0599213,0.2418518,-0.32997129999999997,0.1711731
7.330795299999999,-0.11982727,0.42785645,0.12359619,-0.07110596,0.296875
7.632461500000001,0.5098572,-0.0007019042999999999,-0.23219299999999998,0.664978,0.33842468
8.817596,0.8067321999999999,0.09985351599999999,-0.48892212,0.47644043,0.46199036
10.543808,0.80433655,-0.23773193,-0.28652954,-0.53663635,0.5536041
11.709778,0.69898987,-0.33828735,-0.056427002000000004,-0.53556824,0.5024719
11.87738,1.2161407,0.47813416,0.10229492,-0.06472778,0.43109129999999996
11.257278,2.987854,0.37278748,0.08206177,0.041809082000000004,0.36079407
11.247711,3.0596771,-0.7812195,-0.07772827,0.07269287,0.24253845
12.765625,1.1634673999999998,-0.69981384,-0.24923706,0.10145569,0.04121399
15.368117999999999,-0.42388916,0.8995209000000001,-0.27374268,-0.0466156,-0.14094543
15.099976000000002,0.39492798,4.2897034000000005,-0.27267456,-0.08389282,-0.30712890000000004
11.163910000000001,1.8027191000000002,7.4213257,-0.27693176,-0.06791687,-0.35081482
7.9604645000000005,0.19142151,4.713470500000001,-0.20236206,-0.22344970000000003,-0.29222107
7.876663000000001,0.19142151,5.3240050000000005,-0.20556639999999998,-0.1797638,-0.36891174
8.384232,0.011856078999999999,5.216263,-0.3035736,-0.08921814,-0.46479797
9.552612,-0.6106262,3.4086304,-0.46655273,-0.115859985,-0.5276489000000001
11.558945,-0.45501709999999995,3.1045685,-0.6263428000000001,-0.10946655,-0.5500183000000001
13.021805,0.22254944,3.1093597,-0.7435303000000001,-0.10093689,-0.44136047
12.96434,0.8785553,2.0846405,-0.7872009,-0.14781189,-0.275177
11.40094,0.9719391,1.644104,-0.86177063,-0.18296814,-0.06211853
9.107285000000001,1.517807,2.312088,-0.9256897,-0.09774780000000001,0.14134216
8.415359500000001,2.075653,1.9170532,-0.89904785,-0.13609314,0.2542572
8.2573395,1.0485535,1.5938263000000001,-0.76908875,-0.013595581,0.21591187
7.922165,1.1491089,1.2059784,-0.5624237,0.28042603,0.079559326
7.292480499999999,1.3406372,0.5667267,-0.3270111,0.33155823,0.0018005370999999999
6.5095825,1.1826172,0.41349792,-0.26734924,0.0055847169999999995,-0.013122558999999999
6.318039,0.87615967,0.2554779,-0.27374268,-0.22877502,-0.013122558999999999
6.4449309999999995,0.57928467,-0.29519653,-0.18745422,0.13342285,-0.11645508
6.595764,0.5122528000000001,0.09027099599999999,3.0517577999999997e-05,0.98243713,-0.45520020000000005
7.0626373,0.15551758,0.64334106,0.06713867,1.014389,-0.81314087
8.678726,0.41886902,0.8444519,0.19816589999999998,-0.34915159999999995,-0.58410645
10.929275500000001,0.5720978,1.1676636,0.28126526,-0.723053,-0.31991577
12.4879,0.45478820000000003,2.149292,-0.018081665,0.14619446,-0.28263855
12.485503999999999,-0.9099120999999999,0.8300780999999999,-0.119277954,0.35179138,-0.30712890000000004
12.068909,-1.7023926,-0.9655761999999999,0.011749268,0.22608948,-0.32098390000000004
13.335448999999999,-0.05278015,-0.23773193,0.14596558,0.20478821,-0.24320984
16.34256,0.67744446,2.331253,0.28338623,0.0034637451,-0.08129883
20.163712,-0.57232666,6.7844695999999995,0.43891907,-0.21279907,0.15945435
12.629166,-1.1684875,6.4085693,0.5667572,-0.27137756,0.39700317
5.4992220000000005,0.6128081999999999,3.8228302000000003,0.54011536,-0.19148254,0.42897034
5.9876404,1.1060028,3.2841339999999994,0.4176178,-0.102005005,0.34587097
8.113693,1.7332916,4.442932,0.33665466,0.12702942,0.28195190000000003
10.297211,2.2480469,4.569824,0.40483093,0.36990356,0.31498718
11.250092,0.93122864,4.3136444,0.6477050999999999,0.5115814000000001,0.39060974
11.032227,-0.15093994,4.2633667,0.9214783000000001,0.45832825,0.44494629999999996
10.94603,-0.5843048000000001,3.5570831,1.1025848,0.15046692,0.36717224
10.43367,-0.2993927,2.9369812,1.1441193,-0.041290283,0.203125
9.04744,-0.35446167,2.2283020000000002,1.0887299,-0.11265564,0.06890869
8.259735000000001,-0.49810790000000005,1.8452301,1.0152283000000002,-0.04447937,-0.037628174
8.013138,-0.7327423000000001,1.6464995999999998,0.9438629000000001,0.12809753,-0.063186646
7.4672546,-1.1589049999999999,1.6656647,0.78300476,0.34753418,-0.009918213
7.0315094,-1.5755005,2.1540833,0.55503845,0.41996765,0.034820557
6.5550690000000005,-1.5970459,2.1947784,0.3622284,0.22183228,0.049728394
6.583801299999999,-1.2714386,1.8069153000000002,0.32814026,-0.17231749999999998,0.079559326
7.177566499999999,-0.6465454,0.8372649999999999,0.25889587,-0.14887999999999998,0.24041748
7.472046000000001,0.021438599,0.5044708,-0.06921387,0.44128418,0.5045929
7.9077910000000005,0.27761840000000004,0.545166,-0.5208893,0.30065918,0.70806885
9.16954,0.66308594,0.14533997,-0.5592345999999999,-0.8082733,0.49819946
10.752106,0.9216614,-0.027038574,-0.28225708,-0.76353455,0.1711731
12.463959,0.28479004,0.51882935,0.022399902000000003,-0.26925659999999996,0.124298096
12.495087,1.1203766000000002,0.8636017,0.025604248,0.031158447000000002,0.18608093
11.123199000000001,2.5425262,0.17886353,-0.14164734,0.22076416,0.22230529999999998
11.736114500000001,2.3892975,0.48052979999999995,-0.34085083,0.21864319,0.17543029999999998
14.884491,1.9152527,2.4342040000000003,-0.40263367,0.0034637451,-0.009918213
16.356934,2.623932,4.9265594,-0.46336365,-0.277771,-0.24534607
12.78717,1.0437622,6.020706,-0.53260803,-0.3438263,-0.43496704
8.264526,-2.518814,3.382309,-0.50917053,-0.30441284,-0.43176270000000005
7.134460400000001,-0.93385315,5.525116000000001,-0.46762085,-0.32571409999999995,-0.4243164000000001
7.7832947,-0.23234558,5.039093,-0.47401428,-0.17550659,-0.48716736
9.159958,-0.2634735,3.0375366,-0.56030273,-0.12651062,-0.5042114000000001
11.197433,0.90249634,3.2841339999999994,-0.7318115,-0.13076782,-0.49249268
12.700989,1.2017822,3.758194,-0.90011597,-0.045547485,-0.42750550000000004
12.435226,1.6255493,2.8890991,-0.9895934999999999,-0.12437439,-0.27304077
11.290802000000001,0.924057,1.8188933999999997,-1.0045165999999999,-0.23622131,-0.06851196
9.241364,0.5625305,2.0224,-1.0215607,-0.11053467,0.13175964
8.027496000000001,1.0653076000000001,2.3695526,-0.98854065,-0.061523438,0.24253845
7.876663000000001,1.1107941000000001,2.1995697,-0.84684753,0.032211303999999996,0.15412903
7.445709,0.88334656,1.8069153000000002,-0.6742859,0.23143005,0.03907776
6.938141000000001,1.4747162,1.0431671,-0.46868896,0.20159912,-0.020584106
6.681961,1.620758,0.44700623,-0.3025055,-0.026367188,-0.06425476
6.4712677,1.117981,0.28181458,-0.22579956,-0.15527344,-0.03868103
6.595764,0.7875824,-0.007888794000000001,-0.17787170000000002,0.21224976,-0.07171631
7.144042999999999,0.38774109999999995,-0.17787170000000002,-0.09690857,0.7502135999999999,-0.35186768
7.982010000000001,-0.21559143,0.61460876,0.013885498000000001,0.74487305,-0.7257843
9.64119,-0.46937559999999995,0.93063354,0.24717712,-0.2820282,-0.58410645
11.276428,0.03340149,0.7175598000000001,0.2652893,-0.66233826,-0.31140137
12.145522999999999,0.21775818,1.7135468,-0.07772827,0.059921265,-0.21551514
12.255661,-0.5890808000000001,1.2562561,-0.23432922,0.22183228,-0.18675232
11.695419000000001,-1.3839569,-0.45082092,-0.18745422,0.029022217000000003,-0.19847107
12.669861000000001,-0.5962677,-0.27842712,-0.13313293,-0.0039978027,-0.15266418
15.803864,0.45239258,2.1277466,-0.06175232,-0.09986877400000001,-0.021636963
19.39038,0.2273407,6.7102356,0.07141113,-0.16699219,0.16371155
13.306717,-0.9889220999999999,6.8371277,0.18325806,-0.22238159,0.31817627
5.9756775,0.17945862,3.8228302000000003,0.19071960000000002,-0.21812439,0.32775879999999996
6.476058999999999,1.2568358999999998,3.9617004000000002,0.15982056,-0.18615723,0.2926178
8.264526,1.864975,4.6344757,0.16728210000000002,0.03541565,0.28834534
10.041031,2.137909,4.172394000000001,0.32493590000000006,0.31770325,0.31498718
11.300369,1.1562805,3.92099,0.6349335,0.35073853,0.36291504
11.302764999999999,0.17706299,3.442154,0.9225464,0.16004944,0.33522034
10.807175,-0.62260437,2.7837523999999996,1.0642242,-0.14781189,0.23081970000000002
10.11525,-0.7925873000000001,2.6401062,1.0844726999999998,-0.33422852,0.10406494
8.566193,-0.94821167,2.204361,1.0184174000000001,-0.09881592,-0.06958008
7.675552400000001,-1.1253815,2.0032349,0.9449158000000001,0.16644287,-0.2240448
7.436142,-1.2474976,1.7733917000000001,0.81921387,0.32197570000000003,-0.21018982
7.127289,-1.316925,1.7997284,0.5944519,0.664978,-0.10153198
6.7466125,-1.5970459,2.1875916,0.30789185,0.58935547,0.015640259
6.5933684999999995,-1.7406921000000002,2.2187195,0.12359619,0.038604736,0.08595276
6.8567350000000005,-1.0774993999999998,1.4956665,0.10229492,-0.34594727,0.15519714
7.290085,-0.17727661,0.6241760000000001,-0.015945435,0.0013275146,0.30006409999999994
8.032288000000001,-0.2706604,-0.036621094,-0.35043335,0.5808258000000001,0.46199036
9.365860000000001,-0.41430664,0.2387085,-0.44737244,-0.09986877400000001,0.5461425999999999
10.627609,-0.44783019999999996,-0.10125732400000001,-0.16508484,-0.82424927,0.43641663
11.649933,-0.08151245,-0.38616943,0.12892151,-0.5291748000000001,0.38955688
12.315521,0.69898987,0.6074219,0.23013306,-0.066848755,0.41725159999999994
11.642746,2.580841,0.7678375,0.12573242,0.153656,0.38955688
11.120819000000001,3.248825,-0.2760315,-0.06814575,0.18028260000000002,0.2776947
13.177429,1.6902008000000002,0.7223358,-0.20343018,0.07269287,0.14347839999999998
16.002594000000002,0.6008300999999999,3.1740112000000003,-0.30889893,-0.05619812,-0.056793212999999995
14.482269,1.3047333,6.6312256,-0.45697020000000005,-0.08921814,-0.31352234
9.32756,-0.47416687,6.2242125999999995,-0.5304718,-0.16592407,-0.41259766
7.3954315,-1.6760558999999997,4.921768,-0.5443115,-0.30760193,-0.37423706
8.049057000000001,-0.11264038,5.489197,-0.61782837,-0.23410034,-0.43496704
8.963638000000001,-0.42868042,3.5714417000000003,-0.7754821999999999,-0.16166687,-0.5489501999999999
10.661118,0.09565735,2.877121,-1.0204925999999999,-0.13290405,-0.6085968
12.301147,0.99827576,3.0710602000000002,-1.3006592,-0.060455322,-0.5851593
12.679443,1.6183624,2.3096924,-1.4647063999999999,-0.14567566,-0.44987488
12.102432,1.4962616000000002,1.4166565,-1.4956055,-0.30867004,-0.26345825
9.595703,1.2424773999999998,1.7733917000000001,-1.4966583,-0.26925659999999996,-0.08769226
7.5773926,1.3023376,2.221115,-1.4327545,-0.068984985,0.024169922000000003
7.689926,1.3262787,1.8787383999999998,-1.2655028999999998,0.27616882,-0.01737976
7.821594,1.5489349,1.3304749,-0.9864044,0.45086670000000006,-0.121780396
7.5773926,1.8913116,0.46617126,-0.6593628,0.21224976,-0.181427
7.378677400000001,1.5848541,-0.098861694,-0.534729,-0.16378784,-0.18035889
6.9884186,1.1921997,-0.08689880000000001,-0.48466492,-0.31611633,-0.10899353
6.839981,0.83306885,-0.029434204,-0.325943,0.20266724,-0.098342896
7.361908000000001,0.29916382,0.035202026000000004,-0.06921387,1.0964203000000001,-0.33695984
7.917373700000001,-0.23953247,0.54756165,0.09271239999999999,0.7288971,-0.68955994
9.234177,-0.43107605,0.8420563,0.18218994,-0.64208984,-0.52337646
10.723372999999999,-0.74710083,1.8188933999999997,0.18858337,-0.78590393,-0.32417297
11.635558999999999,-1.0679321000000002,2.5539092999999995,-0.057495117000000005,0.027954102,-0.2549286
12.224533000000001,-1.9058990000000002,1.1030273000000002,-0.15122986,0.16644287,-0.1771698
11.934845,-2.0926514,-0.8745879999999999,-0.086257935,0.07696533,-0.16012573
13.155884,-0.15093994,0.030426025,-0.008483886999999999,0.02583313,-0.13775635
16.052872,1.3741608,2.9130402,0.07885742,-0.12757874,-0.01737976
19.103073000000002,0.13156128,7.971985000000001,0.25036620000000004,-0.21173096,0.21165466
11.326706,-1.8077393,6.300827,0.39097595,-0.2543335,0.41085815
5.324447599999999,0.31112670000000003,3.0926056,0.3984375,-0.20108032,0.43641663
6.5598600000000005,1.0293884,3.6672057999999996,0.34623718,-0.07431030000000001,0.46624756
8.348328,1.4627379999999999,4.438141000000001,0.39950562,0.17922974,0.51312256
10.3403015,2.1211548,4.193939,0.65304565,0.42849729999999997,0.5557251
11.937241,0.7085724,4.3926544000000005,0.9992523000000001,0.41677856,0.58662415
11.515854,-0.44303894,3.430191,1.2900696000000003,0.1685791,0.50886536
10.780838000000001,-0.64894104,2.9273987,1.4200287,-0.08709717,0.33415222
9.727386,-0.39515686,3.0159912,1.4104462,-0.25753784,0.21272278
8.163971,-0.5651398,2.6089783,1.3230896,-0.18190002,0.098739624
7.335571300000001,-0.86680603,2.0367584,1.2016448999999998,0.11956787,-0.01737976
7.2445984,-1.1589049999999999,1.9864807,0.95877075,0.50946045,-0.033355712999999995
7.0195465,-1.8747711,2.4078673999999998,0.61468506,0.91638184,0.019897461
6.7274475,-2.233902,2.810089,0.30789185,0.7267760999999999,0.05718994
7.0195465,-2.2195435000000003,2.5227814,0.25250244,0.03327942,0.032684326
