accx,accy,accz,gyrx,gyry,gyrz
11.967675999999999,0.63318974,0.03982994,0.5153783,-0.29647908,-0.20498893
13.357692000000002,1.4045535,2.7672470000000002,0.21034709,0.059096847,-0.22308798
13.178404,0.73983705,4.6279345,0.4222126,0.34761724,-0.36042795
9.988725,1.2918823999999998,2.129221,0.39613740000000003,-0.010088003,-0.35988688
11.061652,2.2313766,1.3385886,-0.31930798,0.15118042,-0.19168949999999998
11.7704315,2.4346156000000003,1.3751625,-0.8175646,0.27202702,-0.03837979
10.633244,1.6600053,1.823127,-0.82393503,0.17781414,-0.022392575
9.641182,0.9230988000000001,1.1710328,-0.5817357,-0.0031590459999999996,0.012182398
8.8436165,0.13939999,0.21504720000000002,-0.40446259999999995,-0.020734511,0.17135642
7.6813364,-0.48112920000000003,-0.20725168,-0.3278252,0.04897394,0.24108233
6.666233500000001,-0.69810134,-0.3078752,-0.2852217,0.07719591,0.22670081
6.2897115,-0.53982544,0.065131865,-0.21282545,0.08571312,0.17720328
6.564814999999999,-0.3829765,0.2935483,-0.056862827000000005,0.075607665,0.10107201
7.1732297,-0.32762256,0.09300995,0.10494665,0.10061823,-0.006440265
7.660717999999999,-0.5302007,-0.15625517,0.22685789999999997,0.09796533,-0.08946557
8.044795,-0.72264665,-0.62032807,0.30777135,0.06283186,-0.1293987
8.251368,-0.43778458,-0.4032123,0.31681216,0.09796533,-0.11768755
7.927125,0.895259,-1.0814226,0.32213542,-0.037227873,-0.12248721
8.062235000000001,1.0797466999999998,-1.8821491000000001,0.22366394,-0.21130702,-0.118752204
8.484649000000001,0.6977661000000001,-3.2037387,0.043196898,-0.46415287,-0.118752204
10.208262,-0.10173442,-3.4985129999999995,-0.076026544,-0.7276627,-0.09320058
13.473120999999999,-0.28195077,-2.5117667,-0.32141984,-0.35555848,0.0036651914
13.842335999999998,1.5409465,-1.609526,-0.5183802,-0.079813905,-0.08201302
12.508411,2.8290078999999997,-0.96389604,-0.5332854,-0.18414968,-0.13631022
12.026478,0.8889191999999999,1.4046111000000001,-0.32567844,-0.3262893,-0.08094837
12.24525,-1.0778792,3.6240265,0.26679102,-0.16498597,0.03508112
12.69128,-0.60305154,3.0354167999999997,0.5739340999999999,0.22092378,0.20114920000000003
12.686463,0.86359817,3.3755660000000005,0.34077555,0.11658800000000001,0.40025637
11.491228999999999,-1.6554468,4.0365667,0.66814697,-0.012740903500000001,0.3172136
11.041982,-3.9147781999999998,3.0051349999999997,1.2010134,0.14374532,0.09044296
9.767605999999999,-3.1253047,0.8983523999999999,1.1339405,0.2587276,0.129294
10.206156,-0.48685613,-0.15058571,0.6111969,0.24116959999999998,0.1436755
10.089233,1.3491038999999998,-0.06991069,0.18320721,0.16982053,-0.02984513
9.32962,1.9841133000000002,0.38783193,0.009145525,0.19645426,-0.24596925
8.3707905,2.1342201000000003,0.47591940000000005,0.030962141000000002,0.22146483,-0.35297540000000005
7.618321400000001,1.8734436999999997,-0.37532464,0.022968533,0.1293638,-0.27312657
6.974989999999999,1.1071075000000001,-0.9076514000000001,-0.06218608,0.074543014,-0.12140510000000002
6.4235473,0.31134197,-1.0490626,-0.11381292,0.055920347999999995,-0.008552114
6.522246,-0.07416279,-1.3578092,-0.17503907,0.0037350047,0.0169646
6.917250999999999,-0.14388195,-1.2443719,-0.22188371,-0.011152654,-0.0016406095
7.532551299999999,0.33391452,-1.1268741000000002,-0.18940313,-0.07023205,0.0020769418
7.7158895,0.9752254000000001,-1.1618773,-0.07016224,-0.069690995,0.06702064
7.8018413,1.3049932,-0.9721225,0.05597271,0.03728023,0.129294
7.900846499999999,0.91268885,-1.7133291000000002,0.09164724,0.011728613,0.1378112
8.071888000000001,0.24299233,-2.4514136000000004,-0.009477138000000001,-0.1868026,0.10108947
9.670707,-0.58387876,-2.3199527,-0.09358455,-0.46148249999999996,0.048380528
12.717646,-0.7388985,-0.13236105,0.18107791,-0.18786724,-0.016528267
13.144838,-0.29830796,-1.6322326999999999,0.6234316,-0.15859807,-0.10278243599999999
14.935892,-1.5615941,-0.35109532,0.7730238,0.041538835,-0.07243116
13.689795499999999,-0.8940428,-0.33560005,0.93378603,-0.017523106,-0.07936012
12.35771,1.5981296,-0.30042443,0.62770766,-0.28529152,-0.14856243
12.675086,2.7637804,1.1308006000000002,0.2987131,-0.016999507,-0.11768755
12.716784,2.4055982000000005,2.4707873,0.18320721,0.22307053,-0.29440212
10.343708,1.767237,1.3637086,-0.13562953,0.09264208,-0.31784192
11.213894999999999,2.431762,1.4181431999999998,-0.7589913,0.3023783,-0.15547393
12.03863,2.3821445,1.5879686000000002,-1.1779226999999999,0.44238859999999997,0.013264502
11.124437,0.84166723,1.7780778000000002,-1.1321602,0.2651155,0.027628561
10.037815,0.28566656,1.2767607,-0.85960954,0.044732787,0.06806784
8.755902,-0.081287935,0.20168754,-0.6663667,-0.014329153,0.20116664
7.1413,-0.5296069999999999,-0.31547916,-0.63175684,0.09477138,0.30176744
6.1083555,-0.78896606,-0.44567588,-0.65730846,0.14587462,0.34224162
6.124617,-0.7435816,0.015284583999999999,-0.59983474,0.14639822,0.29537952
6.465599,-0.5839458000000001,0.26899335,-0.44970155,0.13842206,0.17667969
6.4927206,-0.5614499,0.009902419,-0.2852217,0.15119787,0.06914994
6.662402,-0.70915294,-0.5045731999999999,-0.14947,0.10328858,-0.012269665
7.291914500000001,-1.0217974,-1.1087069999999999,-0.054192472,0.03249803,-0.059131755999999994
8.100187,-1.0419565,-1.4406487,-0.010541788,0.019181168000000002,-0.07827802
8.465208,0.0713089,-1.3418351,-0.04728097,0.0037350047,-0.100653134
8.821149,0.53545845,-1.3935307,-0.039287362,-0.15859807,-0.13789846
9.296436,-0.00033518823,-1.9911714,-0.008412487,-0.41037926,-0.19966567
10.79129,-0.37364867,-2.6250987,0.008604473,-0.63769096,-0.22254694
13.212507999999998,-0.7330661999999999,-2.671594,-0.19205603,-0.49076912,-0.045814894
13.933114000000002,1.3933103999999998,-1.7149092000000001,-0.48963466,-0.20703095,-0.006946410500000001
13.85377,2.9049807,-1.9768254,-0.46034804,-0.41517892,-0.07562511400000001
12.909880000000001,0.048698064000000006,1.1750264,-0.21495475,-0.2576106,-0.118752204
12.307614,-1.5646204,3.968255,0.19811232,-0.27197465,0.0074001959999999995
12.913932,-0.84229934,2.2454739,0.22101104,0.09850638,0.31508428
12.569903,0.59675,4.580490599999999,0.23326325,-0.013264502,0.5557128
12.457846,-2.5370877,4.034632,0.77035344,-0.0670381,0.31082568
10.822289999999999,-4.316219,2.3048022,1.2590282,0.2443461,0.0744732
8.808383000000001,-2.9739146,0.38214332,1.074861,0.38755035,0.11651818
9.689947,0.24010013,0.2647604,0.5744751,0.26459190000000005,0.14315191
9.34543,2.168285,0.25941652,0.24549802,0.29918435,0.050527282
8.109084,2.7581587000000005,0.4653945,0.074612826,0.3337942,-0.12034045
7.4831824000000005,2.6289868,0.16466361,0.022444934,0.2496868,-0.23371704
7.4589915,2.1963543999999997,-1.1232158,-0.13988814,0.051661745,-0.18954276
7.187049000000001,1.2056242,-1.4514416,-0.29958576,-0.02125811,-0.09850638
6.5683675,-0.09673533,-0.9559664000000001,-0.33471924,-0.053197637,-0.07614872
6.6507664,-0.6207782,-0.8563293,-0.21921335,-0.16711527,-0.0591143
7.513455,0.042521022,-0.9091359,-0.08133234,-0.203837,-0.10276499
8.312419,0.8542128000000001,-1.2025883,0.03202679,-0.20544271,-0.13418092
8.219304,1.2982989999999999,-1.5490965,0.08367108599999999,-0.06223844,-0.095853485
7.693384,1.3122715,-1.4659889,0.07621853,-0.019111356,0.020717058
7.573328999999999,0.8440806000000001,-2.1519852000000004,-0.041416664,-0.094719015,0.14048155
8.325923,0.48182829999999993,-2.4552345,-0.17554522,-0.37843975,0.10908308
11.188593,-0.55153793,-1.5613066999999998,-0.06323328,-0.46893507,-0.015463616999999999
14.237407999999999,-0.0764708,-0.58099616,0.49143237,-0.11601204,-0.17250834
13.15634,-0.29624894,-2.4810252,0.7107504,-0.03403392,-0.15334463
14.663326000000001,-1.2215409,1.0334524,0.82306236,0.20390682,-0.093724184
12.774857,0.5470655,-1.0457299,0.6686880000000001,-0.09417797,-0.17941985
12.356867,2.3606925,1.3935499,0.08899434,-0.016999507,-0.21774727
12.941942999999998,2.349497,3.6539636,-0.06375687599999999,0.22680554,-0.25288075
11.209164,2.062279,1.2492082,-0.107948616,0.11873475,-0.26139796
11.340117,2.5620735,1.3433674999999998,-0.7595149,0.22359413,-0.124599054
11.549601,2.067259,1.9068955,-1.1699466,0.32208306,-0.025586527
10.37694,0.6856611,1.8006886999999998,-1.0975503,0.18900171,0.014852752
9.722997,0.47740382,0.9701784,-0.84788096,0.09850638,0.043598324
8.74873,-0.04735731,0.17854041,-0.6477265999999999,0.04579744,0.18413223
7.577313,-0.7989738000000001,-0.120572,-0.52529174,0.08625417,0.24694663
6.644761999999999,-1.0288268,-0.20194612,-0.43160248,0.095853485,0.21448351
6.1658454,-0.88921607,-0.12344504,-0.3310017,0.08093092,0.15112805
5.9460955,-0.8026800999999999,-0.124804944,-0.19737929,0.067631505,0.069690995
6.259774,-0.6648698000000001,-0.3539013,-0.06375687599999999,0.02984513,0.0026179939
6.7348413,-0.6166505999999999,-0.9936415999999999,0.034697145,-0.030839968,-0.03249803
7.5704082999999995,-0.7784124,-1.4850563,0.09060004,-0.06808529,-0.0591143
8.925364,-0.42863873,-1.1073565,0.11721631,0.0005585053599999999,-0.09637708
9.189033,0.7706648,-0.7948079,0.17203711,0.060720004,-0.14215706
8.792764,1.0272563,-1.2937309,0.20610593,-0.043074727,-0.099571034
8.686222,0.40483078,-2.2633537999999995,0.21142918,-0.29326767,-0.06443755
10.947737,-0.35953248,-2.665436,0.23219859999999998,-0.5285555000000001,-0.061767202
13.030261,0.3655946,-3.261918,-0.010000736,-0.34224162,0.07714355
13.436279,1.971673,-2.3115634999999997,-0.33098423,-0.17561503,0.013264502
14.101963,2.939505,-1.2691663999999998,-0.37517598,-0.18360864,-0.04207989
13.244398,0.46140096,2.0008726,-0.1515993,-0.1868026,-0.028763026
12.153216,-1.1931648000000001,3.7188462999999996,0.21409954,-0.12398819,0.052132983
11.833226,-0.7108289000000001,2.0175939,0.17842501,0.19326031,0.25654593
12.223061,-0.01904827,4.1490746,0.14700909,0.12351695,0.38428658
12.484210000000001,-2.2389042000000003,4.274866,0.6788109,0.15493287,0.15327482
10.227523,-3.3994025999999997,2.3353522,1.1472573,0.22361158,-0.022375122
9.041913000000001,-2.2083158,0.6402574000000001,1.0887015,0.2555511,0.05532694
9.839135,-0.20524053,-0.12249693,0.64793605,0.20497146,0.09204867
9.722461000000001,1.5802690000000001,-0.25823858,0.30298916,0.21933553,-0.0005585053599999999
8.495164,2.1098470000000002,0.23483288,0.09431759,0.20018926,-0.15919147
7.53868,2.3190334,0.09596918,0.058119465,0.19271925,-0.23958135
7.1610190000000005,2.0147686,-0.7650049,0.0006283185,0.10224139,-0.13522811
6.7731770000000004,1.2528187,-1.2215025,-0.1489464,0.08147197,0.013264502
6.613063,0.38147295,-1.4258813,-0.29213320000000004,0.017592918,0.08831366
6.492309,0.015610195,-1.4132301999999999,-0.30916762,-0.06595599,0.113882735
7.0210633,0.21456836,-1.5579358,-0.27190486,-0.11067133,0.10695378
7.7495327000000005,0.8701199000000001,-1.3152882,-0.19950859,-0.06382669,0.10801843
7.939977000000001,1.1766448,-1.1932701000000001,-0.12391838,0.057526052,0.12452924
7.9240894,0.9604101,-1.5025531,-0.08452629,-0.001012291,0.13144074
7.9261293,0.8849448000000001,-2.3059514,-0.12870058,-0.116535634,0.12452924
9.067896000000001,0.29790574,-2.3905625,-0.22558379999999997,-0.39760345,0.08087855599999999
12.355364,-0.5715438,-0.20683987,-0.020106193,-0.22778292,-0.016528267
13.271501,-0.5473815,-1.2135347,0.39402553,-0.029234264,-0.10967649
14.4021,-1.4555885,0.32874304,0.584598,0.16505578,-0.09742427599999999
14.152347,-1.4719266000000002,0.5671672,0.92795664,0.25661576,-0.096359625
13.72277,0.6580128000000001,1.0417554,0.66657615,-0.026022859,-0.21614157
14.027206,2.2919214,2.9433837000000005,0.4648161,0.16238543,-0.30344296
11.191417999999999,2.9458067000000003,1.7287765,0.46375144,0.1150172,-0.28801423
10.195746,2.1550496,0.82590383,-0.12498303,0.011746066000000001,-0.22252949
12.464195,2.411325,1.5129822,-0.83723444,0.35189328,-0.14906856
11.632679,1.5574378,1.9356642,-1.0826278,0.42535418,-0.09637708
10.259134,0.17377116,2.2481172000000003,-0.9229301,0.2401224,-0.040997785
9.946547500000001,-0.121117875,1.3832643999999998,-0.6636789000000001,0.12301081,0.019146262
8.431545,-0.5290611,0.39043683,-0.45661303,0.16664404,0.19053759
6.910642999999999,-1.0691068000000001,-0.13962984,-0.36027086,0.16824974,0.32468359999999996
6.456779,-1.0371299,-0.32309273,-0.3592062,0.15653858,0.30658454
6.4305577000000005,-0.6209697,-0.10422439,-0.32726669999999997,0.12140510000000002,0.18308504
6.217119,-0.31458852,0.18469829999999998,-0.17660987,0.13791592,0.09152506
6.4318504,-0.39262992,0.053429004,-0.029688051,0.11023499999999999,0.027646014
6.9838004,-0.90589887,-0.27067888,0.070912726,0.09426523,-0.029286625
7.3268320000000005,-1.0699496000000002,-0.7277033,0.14809118,0.031450834,-0.053773593
7.830878299999999,-0.6458406999999999,-1.2604419,0.18695967,-0.02815216,-0.061767202
8.0413475,0.5906017,-1.5022848999999998,0.118822016,-0.08299041,-0.08518952
8.294080000000001,0.7412161,-1.4090835,0.05120796,-0.21394245,-0.06815511
8.800491000000001,0.035798103,-2.1303127,0.074630275,-0.45083599999999996,-0.066566855
10.981015,-0.46697468,-2.429837,0.13372713,-0.5902878,-0.114458695
12.921486999999999,-0.29554984,-2.328591,-0.008918633,-0.35447636,0.021799162
13.723699,1.9441971999999998,-2.4221373,-0.31236157,-0.30869640000000004,0.018587757
14.084342000000001,2.76989,-2.7798979999999998,-0.37569958,-0.46094146,0.012217305
13.401496,-0.2711673,0.36299929999999997,-0.2820103,-0.27197465,-0.013857913999999999
13.017389,-1.3057976,3.9768553,0.04960226,-0.27249825,0.030839968
12.968107,0.13240893,3.8574803,0.15076154,0.09107128,0.2693392
12.878382,1.5981488000000001,4.684495,-0.03874631,0.17037904,0.5301611999999999
12.880202,-1.5582038999999999,4.570119,0.23326325,0.085748024,0.35023522
11.149002000000001,-3.7155998,2.8755224,0.76771796,0.13896312,-0.021851522999999998
8.894775,-3.0633717000000003,1.0949354,0.9492497,0.100653134,-0.011187561
9.321958,-1.2134485000000002,-0.14336479,0.77091193,-0.03614577,0.0084823
9.27802,1.0953568,-0.29947633,0.46163958,0.057002455,-0.04951499
8.14201,2.5717654,-0.110640846,0.08634144,0.16824974,-0.13203415
7.101011,3.4551394,0.08650729,-0.18512708,0.16186184,-0.23797564
6.971858,3.2311094,-0.6927766,-0.4017748,0.047944195999999994,-0.26031587
7.2897315,2.0334435,-0.9339685,-0.57904786,-0.057979837,-0.14161602
7.2529563999999995,0.2079891,-0.89508665,-0.6493148,-0.034540065,-0.0575086
6.640318400000001,-1.3356868,-0.9751105,-0.5880887,-0.08724901,-0.0090582585
6.795223,-1.0975021,-0.95021075,-0.42095596,-0.14953981,0.02232276
7.8231020000000004,-0.043651085,-0.9775620999999999,-0.21813124,-0.15484561,0.03190462
8.460792999999999,0.7570274,-0.775367,-0.023300145,-0.012723451,0.050544735
8.127127999999999,1.0869197,-0.91735274,0.09539969999999999,0.035709437000000004,0.093654364
7.8189073,1.0077674,-1.9707153000000002,0.033649947,-0.09150761,0.13039355
8.375397,0.7302314999999999,-2.4972386,-0.145735,-0.33265975,0.12985249
10.674932,-0.14007038,-2.3114867,-0.22026055,-0.46094146,0.043615777
12.987749,-0.3084881,-1.4194360000000001,0.073565625,-0.38535124,-0.10061823
13.108091,-0.44419146,-1.2845754999999999,0.41425390000000006,-0.17294468,-0.12616985
15.140194000000001,-1.5628295,1.8115296000000003,0.7602654000000001,0.15334463,-0.12084660000000001
13.732354999999998,-0.77269506,0.85786164,0.7884874,0.121946156,-0.17620844
13.100553999999999,0.4521402,2.8509482999999998,0.4398055,0.1123643,-0.2938611
12.42469,1.714823,3.4723682,0.6170786,0.244381,-0.28906143
10.403496,2.391233,0.9815461,0.36580357,0.046879545,-0.26405087
11.388346,2.77872,1.1921304,-0.38954005,0.23797564,-0.19165461
11.754725,2.8239514999999997,1.5218503,-0.7712260999999999,0.2890789,-0.10222393
10.563255999999999,1.1301303,1.7875876,-0.74460983,0.17409660000000002,-0.08571312
10.290221,0.21097705,1.044705,-0.51356316,0.02932153,-0.026633725
9.042708,-0.18056111,0.15996142,-0.35866517,0.034644786000000004,0.12826425
7.2894826,-0.72577834,-0.32414618,-0.33843678,0.110758595,0.26241025
6.6148057,-0.7738539000000001,-0.5259391,-0.39486328,0.13311626,0.31403708
6.8379073,-0.37283465,-0.4139766,-0.42839107,0.12672836,0.23260003
6.6316414,-0.19871874,-0.18138471,-0.34588936,0.15386823,0.11014773
6.7221427,-0.2656702,-0.32612857,-0.24952972,0.15547393,0.029775318
7.024252400000001,-0.3598102,-0.8596908000000001,-0.17980382,0.10437069,-0.035691983999999996
7.507594,-0.46238738,-1.3855628999999998,-0.121789075,0.04314454,-0.08412487
8.195909,-0.27810088,-1.4043047,-0.14254104,0.049549895999999996,-0.10222393
8.439053999999999,0.5101948000000001,-1.1596938,-0.17074557,0.1166229,-0.11712904
8.39343,0.78100777,-1.0689822,-0.122853726,0.021327923999999998,-0.13044591
8.469603999999999,-0.07273584599999999,-1.8005451000000001,-0.08876745,-0.15645131,-0.10861184
9.978458,-0.93755025,-2.764422,-0.038728856,-0.41142645,-0.13468705
12.403286,0.14713806,-2.7428262,-0.15744615,-0.38906878,-0.07826056
13.390962,1.9967546000000003,-2.3620522,-0.5141042,-0.22406536,-0.07986627
14.078194,3.5715168,-1.6814096,-0.6636789000000001,-0.25865778,-0.124581605
13.750667000000002,1.2452626,0.7100053000000001,-0.5710543,-0.20169024,-0.09902998
12.560126,-1.2470726,3.008554,-0.2175902,-0.2629164,-0.08251916599999999
11.377342,-1.5872216000000001,3.0882616,0.04108505,0.11234684,0.08939576
11.828754,-0.860524,3.6009178,-0.112730816,0.14641567,0.30871382
13.075051,-1.7245052,4.563128,0.17790142,0.105976395,0.23631757
11.834511000000001,-2.5559157999999997,3.150559,0.7783645,0.25501007,0.056915186
9.542483,-2.2729497000000003,0.76682454,0.81828016,0.29440212,0.093654364
9.395452,-1.1793741000000002,-0.45587516,0.41105995,0.18367845,0.07023205
9.695492,0.7770524999999999,-0.26852408,0.04907866,0.1922131,-0.03515093
8.44683,1.9773138,0.15087302,-0.20483184,0.26778588,-0.116605446
7.485414,2.5158656,0.1455579,-0.33311355,0.24755749999999999,-0.20655972
7.1997094,2.5822616000000003,-0.5183255,-0.44863690000000006,0.13151056,-0.18952529999999998
7.116985000000001,1.6174556999999998,-0.7438593000000001,-0.60939914,0.05326745,-0.06709046
7.008622999999999,0.16586071,-0.7882382,-0.6546380999999999,0.07082546,0.03296927
6.631431,-0.90048796,-0.7947122,-0.6168517,0.037821285,0.09524262
6.965652499999999,-0.5093233,-0.83261716,-0.52155674,-0.04520403,0.10749483
7.806869,0.54360825,-0.84560335,-0.3879518,-0.089919366,0.09791297
8.255514,0.87484133,-0.915265,-0.2676288,-0.028693212000000003,0.11335913
7.983867599999999,0.7452861999999999,-1.2741846000000001,-0.15690510000000002,-0.10641272,0.11707669
8.005148,0.33901894,-1.2509704,-0.06536258,-0.18200293,0.10430088
8.765652000000001,0.42431,-2.365002,-0.145735,-0.40505599999999997,0.073426
11.026591999999999,1.0134465,-1.5817246,-0.24741787,-0.4465774,0.033492867
12.86032,1.190014,-0.5515762,0.02617994,-0.19903734,-0.06070255
12.197654,-0.80502635,-1.5340128999999998,0.1635199,-0.24162339,-0.038885936
15.629281,-2.1149611,2.5440118,0.3908316,0.26513296,-0.03621558
12.873287,-0.6539235,-0.4859559,0.30246556,0.049008845999999995,-0.13096951
12.590963,0.6491064000000001,2.8963711,-0.13934709,-0.029234264,-0.14002776
14.48267,1.2676436000000002,4.9742413,-0.047787115,0.23425809,-0.15334463
11.2475,1.4635755,2.0771806,-0.033423055,0.009616764,-0.25553367
10.303581,2.175362,1.3071671999999999,-0.70574135,0.044750242999999995,-0.09955358
11.409166,2.4152324,1.3100018999999998,-1.1986921,0.26405087,0.021240657000000003
10.64078,0.37515226,1.6483505,-1.2732003,0.28110272,-0.0021467548999999997
9.984731,-0.21570799,1.4617367,-1.0789102,0.13576916,0.024452062000000004
9.121889999999999,-0.8931713,0.7396550999999999,-0.85053384,0.10011209,0.15379842
7.6116652,-1.3348536,0.25682122,-0.68551296,0.13524556,0.28953266
6.7092714,-1.0858567,-0.07431602,-0.6258925,0.14109242,0.35501742
6.863792999999999,-0.7504769,-0.12848243,-0.6088756,0.13948672,0.29698524
6.980964999999999,-0.37699099999999997,-0.09112331,-0.5370029000000001,0.13044591,0.14953981
7.003088000000001,-0.23354001,-0.16610014,-0.44650757,0.11979939999999999,0.018587757
7.195083599999999,-0.36646609999999996,-0.5183350999999999,-0.35388297,0.08199557,-0.07243116
7.154660000000001,-0.5063545,-1.0340174000000002,-0.3070383,0.026110126,-0.11234684
7.5146523,-0.49724695,-1.3490368000000001,-0.29319787,-0.023369959,-0.105417885
8.120127,-0.15723202,-0.9551045,-0.30012682,-0.0058119465,-0.13896312
8.695186,-0.07182605,-0.6546896,-0.22399555,-0.06756169,-0.1703616
8.827,-0.5215912,-1.1464108,-0.03874631,-0.2623928,-0.21881193
9.952457,-1.0587351,-2.0364408,0.12892747,-0.5045921,-0.2523397
12.14071,-0.47836152,-2.3556645,0.024050636,-0.43060762,-0.13950416
13.753569,2.4680293,-1.9559381999999998,-0.39008108,-0.11440633,-0.14428636
13.809641000000001,4.2041316,-2.645746,-0.54019684,-0.44390705,-0.15067427
13.710510999999999,0.83098906,-1.2958281,-0.45235443,-0.49181634,-0.12990485
13.601029,-2.6196396,2.701234,-0.05736897,-0.337983,-0.12405799999999999
12.244646000000001,-2.267625,3.4646491999999998,0.2225993,-0.16125096,0.030298917
11.669233,-0.22292891,3.0463824,0.009145525,0.26139796,0.31988394
11.362402000000001,-0.14618996,3.7055540000000002,0.005410521,-0.012740903500000001,0.30124384
11.343727000000001,-1.8745642,3.6487825,0.4232947,0.17090264,0.07340855
9.340297999999999,-2.4658074,1.746436,0.6926514,0.25288075,0.04201007599999999
8.7339325,-1.7255299,0.38949832,0.41797146,0.21029472,0.10321877
9.844919,-0.17266983,0.094264515,0.04321435,0.09904744,0.040421825
9.221411,1.4326806,0.08493669999999999,-0.22771311,0.15493287,-0.0596379
8.101078,2.3003395,0.18966866,-0.35123006,0.16184439,-0.15812683
7.4653215,2.3071867999999998,-0.23752396,-0.39753366,0.049532442999999995,-0.14802137
7.431362599999999,1.4909938999999999,-0.91668236,-0.48431140000000006,-0.059044488,-0.041556288
6.976416599999999,0.21236569,-1.2537093000000001,-0.56094885,-0.069690995,0.054785885
6.501148000000001,-0.411343,-1.064826,-0.5700071,-0.08833111,0.11173598
6.844659,-0.2596081,-1.1801882,-0.5263564000000001,-0.13517575,0.11173598
7.597884,0.25457070000000004,-1.2038333,-0.4284085,-0.13995795,0.09098402
7.8646173,0.5169273,-0.9648633,-0.2878746,-0.088854715,0.12025318
7.8637652000000005,0.69213504,-1.3808702,-0.2144137,-0.08726646,0.17242108
7.874922,0.87152773,-2.1208412999999995,-0.23677136,-0.20437805,0.19317304
8.524066,0.73138076,-2.3007703,-0.2942625,-0.43060762,0.14421655
10.757187,-0.03265691,-1.9501540000000002,-0.27883379999999997,-0.5354845,0.044139378
13.136285,0.16039236,-0.70562875,0.10602875,-0.45670029999999995,-0.1150172
12.362308,0.45410344,-2.4458208,0.38870227,-0.45881215,-0.16770868
14.077561,-1.0986992,0.018540697,0.38762018,-0.25281096,-0.071907565
14.139437,-0.55628794,0.23965959,0.6111969,0.114476144,-0.14641567
12.717137,0.108993635,1.6192847,0.19917697,-0.03509857,-0.2725855
13.539594000000001,0.6023045,3.2926784,0.04321435,0.19113101,-0.307719
11.503402000000001,1.2467088,1.8184537,0.15711454,0.17142624,-0.28642598
10.789614,1.9422529999999998,1.136154,-0.41297979999999995,0.12990485,-0.17037904
12.195135,2.473105,1.4022264,-1.0624168,0.33060026,-0.045291292999999996
11.1842165,0.9681769,1.2586318,-1.2040153999999998,0.26618016,-0.015481071
10.426202,-0.5339644,1.7212108,-1.0145075000000001,0.13948672,0.018046705
9.937278,-0.90943277,0.9192011,-0.69991195,0.051120695,0.14100514
8.048914,-1.1208503,0.18640298,-0.45502478,0.061243605,0.31508428
6.564019999999999,-1.1955495,-0.342141,-0.35707690000000003,0.11180579,0.41996112
6.4166713,-0.9177263000000001,-0.6730484,-0.34855970000000003,0.13842206,0.41355577
6.5422519999999995,-0.5283715999999999,-0.4219254,-0.32513738,0.17835520000000002,0.31401965
6.6425977,-0.50911266,-0.17441282,-0.21760765,0.19751891,0.18306759
6.790971300000001,-0.5323076999999999,-0.44206540000000005,-0.07761479,0.18952529999999998,0.058503438
6.7145576,-0.56300133,-1.0882317,0.012863076000000001,0.11074114,0.02443461
7.1957059999999995,-0.56751204,-1.8466479,0.006475171500000001,0.03515093,0.0068591437
8.319085000000001,-0.28445990000000004,-1.7575643,-0.10316641,0.030892327,-0.014940018999999999
8.821311999999999,0.21068974,-1.4403135,-0.22933626,0.043668135999999996,-0.05326745
8.824558,0.24137384,-1.2823440000000002,-0.17449802,-0.07714355,-0.08360127
9.270933,-0.2860592,-1.7544613999999998,0.0075398222999999995,-0.28687978,-0.1219287
11.428588000000001,-0.55992717,-2.7142012,0.13103932,-0.5280319,-0.14802137
13.497581,-0.03395936,-3.4687002000000002,-0.11381292,-0.45722390000000007,-0.022392575
13.855101999999999,1.7673231,-3.077344,-0.39913934,-0.31510174,-0.09637708
14.582804999999999,1.5565376,-1.6815915000000001,-0.59449404,-0.32520720000000003,-0.06871361
13.734874,-0.24339455,3.1194724999999996,-0.29586822,-0.08833111,-0.09745918
13.653988,-1.3939233,3.9602969,-0.14414674,0.23956390000000002,0.13461724
11.773583,-1.5331606000000002,3.3133068,-0.21121974,0.015463616999999999,0.4300666
11.920452000000001,-2.957519,4.1031832999999995,0.34025192,-0.040421825,0.26878070000000004
11.510842,-3.5613843999999997,3.2717054,1.0115056,0.20177752,0.015376351000000002
9.047678999999999,-2.5960137999999997,1.1123459999999998,1.1493865,0.3130248,0.059027035
8.812194,-1.0485454,-0.12900917,0.7490604000000001,0.254469,0.122382484
9.685216,0.6648028,-0.054951716,0.29606020000000005,0.25979227,0.004729842299999999
8.601361,2.3832647999999996,-0.12965082,-0.071750484,0.28853783,-0.15814428
7.393007300000001,3.0745093999999997,-0.040031053,-0.30812043,0.25659829999999995,-0.2970725
7.1454086,2.5361203999999997,-0.50319415,-0.42256168,0.13842206,-0.2709973
7.1178465,1.1775067,-0.89943457,-0.5364793000000001,0.03408628,-0.13311626
6.774748,-0.54875106,-1.0657071000000002,-0.6248453,-0.007941248,-0.03890339
6.4263535,-1.2912695,-1.2176527,-0.5950350999999999,-0.10643018,0.019111356
7.101183,-0.36351642,-1.2060839,-0.47312385,-0.15912166,0.05157448
8.198063000000001,0.38729566,-1.3865013000000002,-0.35442399999999996,-0.12452924,0.056897733
8.200725,0.79304576,-1.0073556000000001,-0.27563986,0.07082546,0.0792554
7.714367,0.5170997,-1.3860033999999999,-0.2612758,-0.064908795,0.13941689999999998
8.123546000000001,0.5502929,-1.7650917000000002,-0.29693288,-0.11868239,0.150587
8.893118,0.36117968,-2.4764762000000005,-0.43905503,-0.3853687,0.104824476
11.490704,0.049023673,-2.0623271,-0.46621236,-0.43966588,0.008464847
13.324278,0.12106041599999999,-1.6383044,-0.14042918,-0.27305678,-0.1166229
12.747132,-1.0071065000000001,-1.39219,0.022444934,-0.0755553,-0.08255407
15.80131,-2.719794,2.5399606,0.30937707,0.37957420000000003,-0.09744173
12.403592999999999,-1.036718,-0.6679056,0.32054716,-0.09152506,-0.22041763
12.583387,1.3613813,2.4854112,0.09749409,0.047926743,-0.22999948
12.570469000000001,2.0949647000000002,3.5670349999999997,0.15446164,0.17941985,-0.23319344
10.875010000000001,1.6892433999999998,1.5589796,0.009128072,-0.03403392,-0.28483772
11.899268,2.2686305,1.713444,-0.54766685,0.14693926,-0.21937044
11.958913,1.8909692999999999,1.8582835,-0.9501049000000001,0.363587,-0.095853485
10.356981,0.07969819,2.2151442,-0.9133657,0.2693741,-0.026651177999999998
10.208713000000001,-0.20610246,1.6447494999999999,-0.67116636,0.11499974,0.05370378
8.642053,-0.32721075,0.77590334,-0.41352087,0.056967545,0.22244221
7.203760000000001,-0.71198773,0.047998954,-0.28841567,0.10487683,0.37629297
6.608312599999999,-0.8303666,-0.3226426,-0.27883379999999997,0.14693926,0.42207298
6.5737119999999996,-0.59547627,-0.112288065,-0.26818728,0.16929694,0.36191148
6.619441,-0.60134685,0.30336452,-0.15959291,0.1857903,0.20860176
6.6198435,-0.8731462,0.11892479,-0.01160644,0.15652113,0.07658505
6.861954700000001,-1.081595,-0.42605299999999996,0.12517501,0.08412487,-0.01282817
7.042698,-0.9925594000000001,-1.2794901,0.21725859,0.005323254,-0.06393141
7.696889,-0.5275001,-1.3612090000000001,0.2337694,0.0058643064,-0.044226642999999996
8.595088,0.042521022,-1.0828111999999999,0.21301743,0.08199557,-0.053284902
9.012523,0.15177324,-1.0765288,0.25612706,0.011187561,-0.06499606
8.95802,-0.11890563,-2.2396417,0.29497808,-0.24537584,-0.07777187
10.536306,-0.38947916,-3.031883,0.2923252,-0.48918090000000003,-0.08309512599999999
13.118673999999999,0.64731556,-3.3028873999999995,0.12997466,-0.4897045,0.0020769418
13.731283,1.4976690000000001,-2.9327533,-0.19472638,-0.22780037,0.0068591437
14.038977,2.4695714,-2.3286102000000004,-0.492305,-0.28583258,-0.03783874
13.932797,0.9170941999999999,1.1315093,-0.51572734,-0.16498597,-0.049549895999999996
13.167257000000001,-0.7640185,4.599846,-0.17503907,-0.12027064,0.05157448
12.780842999999999,-1.4509054,2.729227,-0.20539035,0.020769417,0.36032322
11.965128,-1.6934571,4.077498,-0.12819444,-0.126676,0.38852775
11.629930499999999,-3.113238,4.677925,0.56168187,0.064420104,0.10693632
9.503564,-3.5992897000000004,2.317568,1.0466216,0.17620844,0.047315877
8.944105,-2.0425987,1.2397847,0.88374746,0.26405087,0.14526375
9.897946000000001,-0.25210944,0.825492,0.45095816,0.22146483,0.0861669
9.425197,1.4617463,0.25636154,0.09590584,0.14746287,-0.09958848
8.229245,2.4330356,0.42012495,-0.043545965,0.13629276,-0.28270844
7.479754400000001,2.5649276000000003,-0.09614156,-0.089867,0.09902998,-0.2981546
7.2363887,1.7685585,-0.9574316999999999,-0.17610373,0.0074700094,-0.13259266
7.033810000000001,0.7030238,-1.2813864,-0.29002136,-0.014346606000000001,-0.023998277000000002
6.429131,-0.2626535,-1.2705548999999998,-0.35016540000000007,-0.02019346,0.02815216
6.7109284,-0.12974659,-1.1186572,-0.3139673,-0.09206612,0.02708751
7.335585000000001,0.45257115,-1.0581797,-0.20856684,-0.13678145,0.012182398
7.740799000000001,0.57221425,-0.7856429,-0.08028515,-0.15594517,0.032934364
7.727142,0.45779052,-0.88733906,0.03042109,-0.12932889,0.0840376
7.767901400000001,0.4184107,-1.2806966999999998,0.07567748,-0.23099433,0.11173598
8.18068,0.5782476,-2.441061,-0.055274576,-0.38964474,0.10798352
9.705864,0.43334094,-2.8539171000000003,-0.27405159999999995,-0.5519953000000001,0.032934364
12.261032,0.23118411,-1.9770263,-0.22614232,-0.60735714,-0.11238175
12.839328,-0.13190137,-2.03737,0.19118336,-0.49504519,-0.22521728
12.717291000000001,-0.9797457,-1.0336726,0.38601446,-0.34599406,-0.19168949999999998
14.567596,-1.771106,1.7390618000000002,0.8060105,0.019181168000000002,-0.18849556
12.569033000000001,-0.19969557,-0.20894678,0.67931706,-0.029251719,-0.3018896
12.877377000000001,1.1326776,3.4067192000000004,0.28646088,0.1943075,-0.3088011
11.887394,1.6340523,2.5973067000000003,0.36419785,0.15971509,-0.35777503
10.6395645,2.1374570999999998,0.65978456,0.12411036,-0.08567821,-0.28059658
12.860139,2.8694412999999996,1.5516055,-0.56311303,0.35133478,-0.14058627
12.395577000000001,2.0260022,1.5919046000000001,-0.8505688,0.5147674,-0.0490263
10.777911,0.13767618,1.6007345,-0.7952069,0.46844637,-0.02666863
10.030852000000001,0.07517793,0.9779164,-0.54766685,0.30077258,0.10000736
8.315435,-0.28675833,0.06246951,-0.31185544,0.22783528,0.29377383
7.0987024000000005,-0.77109575,-0.40161297,-0.24849997,0.23635249,0.43378413
6.5421467,-0.5998912,-0.49164453,-0.27459264,0.25179866,0.443366
6.3621025,-0.3812718,-0.09955089999999998,-0.22668336,0.19537215,0.35178855
6.580769999999999,-0.4033751,0.12626062,-0.07548549,0.16236798,0.22244221
6.817231,-0.88264644,-0.26156175,0.09749409,0.15118042,0.06593854
6.8354077,-1.4423916,-0.7587417,0.2209936,0.1314931,-0.022933627
7.162935000000001,-1.5007719,-1.2596183,0.29391345,0.05057964,-0.03890339
7.9738507,-0.30514577,-1.3449858000000001,0.24867451,0.07984881,-0.053825952
7.943903999999999,0.86323416,-1.8463221999999997,0.18531907,-0.009564404,-0.07457792
8.318893,0.9005455,-2.663511,0.12995721,-0.25602233,-0.07244862
9.216958,0.15515386,-3.189498,-0.024923302,-0.42371359999999997,-0.07457792
11.594544,0.48777550000000003,-3.0690122000000004,-0.13458234,-0.51206213,-0.07351327
13.174975,0.24928428,-3.4405348,-0.39435714,-0.35770524,0.051557027000000005
13.736703,1.2012764,-2.5304031000000005,-0.5689599,-0.28050932,-0.0037873646000000003
14.008560000000001,1.3025415,-2.6039912999999997,-0.5551194,-0.40933207,-0.042638395
13.66504,-0.96727663,0.042281599999999996,-0.47581166,-0.34492943,-0.056478854
12.9141035,-1.4478121000000002,4.0849967000000005,-0.23465952,-0.057473693,0.073391095
12.921688,-0.11424173,4.234213,-0.20539035,0.17620844,0.39065704
12.117984,-0.07148129,4.2676263,0.04426155,-0.07929031,0.44921285
12.27218,-2.6815919999999998,4.013094000000001,0.58297485,0.12243485,0.12608258
10.030479,-3.7770352,2.238435,0.91673416,0.27787387,-0.03572689
8.4668455,-2.041306,1.2579998,0.84273225,0.33058283,0.039845865
9.424383,-0.030176517000000003,0.48539087,0.615438,0.30822515,-0.00059341197
9.3629,1.7026317,-0.3700478,0.29604274,0.29810223,-0.14484487
8.311135,2.7878277000000002,-0.07850108,0.09375909,0.3332357,-0.26995006
7.5387759999999995,2.802346,-0.2586025,-0.055274576,0.23102923,-0.30401890000000004
7.3249070000000005,1.8656865000000002,-0.9060234,-0.2612758,0.115523346,-0.21563543
7.2739677,0.7779432,-1.1234839,-0.40926227,0.060161497,-0.14432128
6.629860400000001,-0.0074220253,-0.99278927,-0.46516514,0.025028022,-0.13952161
6.606972,-0.24255179,-0.92964935,-0.38957494,-0.030333823,-0.07991862
7.261862799999999,-0.13522452,-1.2350825,-0.30440290000000003,-0.072902404,-0.037315138
7.962789,0.406229,-1.1313369,-0.22242476,-0.039898228,0.021746803
8.095256,0.6699264,-1.0212036,-0.15961036,0.035133477,0.05635668
7.972921400000001,0.54154927,-1.6019603,-0.13938199,-0.09154252,0.07285004
7.911917699999999,0.6826061,-2.1179683,-0.20165534,-0.21769492,0.06752679
9.578636,0.6945100000000001,-1.8013973,-0.16332792,-0.3779336,0.014835299
12.626254,-0.29203516,-0.94570965,0.06501351,-0.21984167,-0.08950049
13.072609,-0.8409107,-2.0215394,0.44244096,-0.11016518,-0.15123278
12.374671000000001,-1.0861056999999998,-1.9124116999999998,0.48183304,-0.059602994000000006,-0.10012954
14.68905,-0.7820516,1.9905008999999998,0.73413783,0.21560052,-0.12782791
11.636203,1.281664,-1.6441365000000001,0.58191025,-0.10964158,-0.16561429
11.465161,1.9745939,2.0767403000000004,0.038397245,0.20921262,-0.020280726000000002
13.609676,1.0507576,4.980629,0.13901548,0.31300735,-0.18903661
11.3681965,0.5237364000000001,2.4245505,0.21779963,0.07984881,-0.32051226
11.241639,2.2995348,2.5590186000000004,-0.20326105,0.18898425,-0.14857988
11.7424965,2.6510036,1.4770596999999999,-0.583865,0.38168606,0.02974041
10.462651,0.92195916,1.7336607,-0.6530673,0.34175292,0.06487389
9.960626,0.43262267,1.2426864,-0.46729445,0.17673203,0.11597713
8.861602,-0.07248685,0.32497936,-0.28098056,0.08464847,0.25225243
7.437568,-0.6912731,-0.060228538,-0.18568558,0.10859439,0.3565882
6.631804499999999,-0.8852992000000001,-0.25300965,-0.19474384,0.13201670000000001,0.38159879999999996
6.6144036999999996,-0.67633325,-0.05947197,-0.16547467,0.14692181,0.3129201
6.716406299999999,-0.5596686,-0.10049901,-0.077091195,0.13946927,0.18624409
6.7251787,-0.80031455,-0.29042622,0.02029818,0.113394044,0.08084365
7.007254,-0.8920891,-0.73816115,0.08683013,0.06867871,-0.014433873
7.1504364,-0.7809024,-1.4017669,0.10547025,-0.013299409,-0.049043752
7.5395617,0.10590991,-1.5641416000000001,0.07087782,-0.04522148,-0.054349552999999995
7.562575,1.0659752,-1.9208488000000001,-0.025464353999999998,-0.084089965,-0.07298967
8.008231,1.0572028999999998,-2.0568013,-0.1436406,-0.19107865,-0.07777187
9.00217,0.43702802,-2.3816943,-0.2192308,-0.31353095,-0.07246607
11.255506,-0.41727105,-2.3929758,-0.17451547,-0.43968335,-0.09321803599999999
13.20928,0.073549874,-2.7745254,-0.21816616,-0.36144024,-0.0016580628
13.594891,1.5553501,-2.610992,-0.51307446,-0.29009120000000005,0.007906342
14.37926,2.638937,-1.4781993999999998,-0.54766685,-0.19533725,-0.07405432
14.451210000000001,0.6781623999999999,1.5512416,-0.41299725,-0.050021138,-0.10547025
12.974734,-1.1210129999999998,3.9698546,6.981316999999999e-05,-0.059602994000000006,-0.008045968
12.613823,-1.4825951000000002,3.2783900000000004,0.086306535,0.12829915,0.33635986
12.179802,-1.656347,3.9940457,0.11876965,-0.16500343,0.47368234
12.721686,-2.8406439999999997,4.4754143,0.7101919,0.007993608000000001,0.1447227
10.825163,-2.8864686,2.3902082,1.180244,0.32791245,-0.005375614
9.42057,-1.649787,1.3899489999999999,1.017876,0.36517525,0.09201376
9.7460575,-0.6776835999999999,0.69751716,0.5861688,0.24806364,0.047298424000000006
9.168337,0.8476049000000001,0.03190992,0.15657349,0.14639822,-0.20341812
7.864367999999999,2.0779374,0.3006447,-0.020141099,0.15437438,-0.41634828
6.915737599999999,2.4910042000000003,-0.0023942017,-0.049951322,0.10485938,-0.41741294
6.9838576,2.0757825,-0.78578657,-0.1495049,-0.036180675,-0.28166124
6.756092,1.1777556999999998,-1.3249896,-0.361894,-0.12454669,-0.15231489
6.2684894,0.064844556,-0.9574413,-0.4641005,-0.13786356,-0.07140142
6.0167913,0.03161304,-0.8528338,-0.4385489000000001,-0.16767378,-0.027750734
6.8491693,0.27774656,-1.2919208,-0.38105774,-0.2027898,0.013770646999999999
7.6548567,0.73524016,-1.248289,-0.34485959999999993,-0.1378461,0.043039817
7.8190029999999995,0.8688654,-0.8830869,-0.22455406,-0.04096288,0.11491248
8.08339,0.32348537,-1.3291553999999999,-0.12821189,-0.095277525,0.17877407
8.415091499999999,0.13379756,-2.4018919999999997,-0.16812757,-0.3337593,0.12554154
10.032385000000001,0.13600981,-2.5785549999999997,-0.20113175,-0.5307196999999999,0.049427725
12.777711,-0.10429142400000001,-1.9782618000000003,-0.039304815,-0.49450412,-0.05222025
13.01217,0.18794484,-2.0883377,0.32265902,-0.30288443,-0.11185815
12.686817,-0.13685256,-1.2518129999999998,0.42006585,-0.14583970000000002,-0.047438048
15.450464000000002,-1.008725,1.9446471999999997,0.71284485,0.15863298,-0.09534734
13.0083685,-0.26295040000000003,0.36291307,0.5771106,0.0069115036,-0.27527332
12.349905,0.9434591,3.0874572,0.36576864,0.19003145,-0.32585296
11.545405,1.8711547999999998,3.2636514,0.587216,0.17247343,-0.35512215
10.384084,2.7967147999999997,0.8656954,0.22205824,-0.072902404,-0.28804913
12.423838,3.848641,1.5636818000000001,-0.51094514,0.16980308,-0.13473941
12.00243,2.4082413,1.8028435,-0.88357294,0.2486047,-0.08843583599999999
11.183200999999999,0.024985889,1.9541283,-0.84631014,0.13999286,-0.008045968
10.713411,-0.17311993,1.2999462,-0.5828178,0.027680922,0.060597833
8.480052,-0.048171338,0.36063382,-0.34646532,-0.014887659,0.22455406
7.027336599999999,-0.41559508,-0.38315848,-0.27246335,0.028204521,0.35178855
6.345831400000001,-0.6715257,-0.6327205,-0.2751337,0.080372415,0.38212240000000003
6.7335009999999995,-0.45218807,-0.37081397,-0.25171140000000003,0.09101892,0.26607543
6.459815,-0.43542868,0.05160941,-0.1495049,0.15650368,0.13779375
6.3932943,-0.7371747,-0.20911916,-0.015882496,0.14159857,0.048363075
6.400764,-1.0528263,-0.85767967,0.09534734,0.070266955,-0.017104227
6.641209,-1.1140795000000001,-1.5479854,0.15231489,-0.03457497,-0.041573743999999996
7.2894826,-0.61583656,-1.4132973,0.15018559,-0.083025314,-0.026145032000000002
7.859877,0.3557688,-1.0447242,0.19596557,-0.098995075,-0.039461896
8.396628,0.50215983,-1.2658048000000002,0.3620511,-0.15062192,-0.02453933
9.079944,-0.30920637,-2.5648603,0.5047143,-0.32417744,-0.057019908
10.956567,0.023568522,-3.588803,0.4488114,-0.40880847,-0.024556782000000003
13.261014000000001,1.0218261,-4.509757,-0.18729128,-0.30394909999999997,0.20273745
13.952354000000001,3.3664966,-3.46486,-0.48432887,-0.43383649999999996,0.12608258
14.490570000000002,3.4635192999999997,-2.7063002999999997,-0.6168866,-0.3380179,0.07124434
13.324623,0.72534734,0.6494129,-0.654673,-0.16447982,0.13512339
13.856527999999999,-1.3069563999999998,3.6757605000000004,-0.44013712,-0.020734511,0.29429743
12.856336,-1.9100846000000002,2.3669555,-0.35072392,0.06387905,0.42099085
12.324699,-1.8339009999999998,3.8382117999999994,-0.22348939999999998,0.04152138,0.35976472
12.51569,-2.32997,4.0692425000000005,0.16774360000000002,0.20174260000000002,0.15109316
11.2859125,-2.3466816,3.0830421,0.5648584,0.37156314,0.098401666
10.0474205,-1.1264528,1.4429758999999998,0.6580239999999999,0.36517525,0.058468528
9.931732,-0.5340123,0.43388679999999996,0.5590115,0.28958502,-0.011780973
9.150946000000001,0.28008327,-0.11014285,0.46371654,0.26509807,-0.14538592
7.732639999999999,1.0078632,-0.07101203,0.45307,0.25071654,-0.22842869
6.734976,1.3196745,-0.15146679,0.45148176,0.23900539,-0.2326873
6.486246599999999,1.1702666000000002,-0.4139383,0.41208968,0.19216076,-0.1826487
6.3183365,0.99069196,-0.727052,0.29019588,0.18524924,-0.11290534599999999
6.570111,0.98385406,-0.64449996,0.15070918,0.16235052,-0.05862561
6.793384,0.94451255,-0.63016343,0.10067059,0.103271134,-0.010716322
7.429476299999999,0.66187227,-0.7569412,0.08365363,0.071331605,0.0025830872
7.685023299999999,0.27388709999999994,-0.9264986,0.086306535,0.0628144,0.0068416907
7.8180265,0.13232274,-0.5665735,0.19064231,0.09794788,0.028134707000000002
7.6614933,0.15086344,-1.6077542,0.19170697,0.018622663,0.10637782
7.864062,0.97387505,-2.786142,-0.004712389,-0.13147566,0.1537635
8.944977,2.3400066,-2.9457299999999997,-0.273528,-0.26136306,0.14257595
11.712665,1.9887484,-1.6910821,-0.36882296,-0.29382620000000004,0.06592108
13.812551500000001,0.39358762,-1.4289458000000002,0.010716322,-0.27253315,-0.12463396
12.943352,-1.2915186,-2.1934720000000003,0.2475924,-0.2006605,-0.14857988
14.888391500000001,-1.9314599,1.4136708,0.5590115,0.06600835,-0.15709709
12.698625999999999,-0.03905422,-0.7837274999999999,0.6175673,-0.05482079,-0.21245892
12.397445,0.9352901,2.5645444,0.27316147,0.19324285,-0.23801056
13.012342,0.5101565,4.303386,0.121963605,0.35239944,-0.25452137
11.655366,0.60171074,2.5514528999999997,0.1714786,0.10700613,-0.39132026
10.963644,2.0857806,1.9857414,-0.27672195,0.08888962,-0.31201252
11.788263,3.2114,1.7172173,-0.81810564,0.2533869,-0.10972885
10.81504,1.3210918,2.0242784,-0.8867669,0.2539105,-0.06181956
10.143476,0.25334483,1.6937828000000001,-0.6892829,0.09262462,-0.0053930674
9.046261999999999,-0.41573876,0.61141205,-0.4790056,0.023945916,0.14098770000000002
7.470781,-0.88799024,0.091544695,-0.36775833,0.085172065,0.28843309999999994
6.453025,-1.0151511,-0.088642925,-0.34965926,0.13946927,0.36030576
6.383785,-0.7395977,0.14026192,-0.29749137,0.14053391,0.34540066
6.621481,-0.6253655,0.47071922,-0.18037978,0.1346696,0.21710149999999998
7.0022163,-0.79685736,0.42136034,-0.013753194,0.09688323,0.0824319
7.290344,-0.90310246,-0.10350612599999999,0.107058495,0.06440265,-0.033073988
7.2884574,-1.0384994,-0.7138456,0.20181242,-0.005305801,-0.09534734
7.594800500000001,-0.91988105,-1.4368083,0.25877997,-0.0654673,-0.05969026
8.473769,0.04652413,-1.3035662000000001,0.21087068,-0.026598819,-0.04956735
8.500642,0.75498754,-1.091507,0.14273302,-0.040439277999999995,-0.051173054
8.445307000000001,0.28420132,-1.4526005,0.25026277,-0.23846434,-0.09375909
9.442721,-0.77152675,-2.330851,0.34341097,-0.47588146,-0.15337953
11.619013,-0.51818186,-2.6080039,0.25558603,-0.5222025,-0.03413864
12.95653,1.2008836,-3.0619732999999996,-0.1542871,-0.32843605,0.07497934
13.316692999999999,3.0945055,-2.7996072999999995,-0.33581880000000003,-0.38006290000000004,0.07337364
13.789404000000001,1.5993458999999999,-0.53990203,-0.45186573,-0.17725565,0.07178539
13.187435,-0.5848364,1.6476609,-0.33262485,-0.24698155,0.10744247
12.628198,-1.4553682,4.198271,-0.143117,0.10060078,0.31026718
12.289447000000001,-0.74202055,3.9991214,-0.28630382,0.18257889,0.53171456
12.305622,-1.5537508,4.764021,0.055955257,0.05482079,0.36402333
12.664647,-3.0322563999999996,4.3662767,0.6005329,0.30023155,0.13564698
10.62493,-2.3330154,2.020352,0.84753186,0.33163002,0.09892526
10.124274,-0.98688996,0.59365666,0.654289,0.15702727,0.08136725
10.202574,0.33552343,-0.15000153,0.4397706,0.10646509,-0.059166662
8.869684,1.2369306999999998,-0.7031579000000001,0.2891138,0.09475392,-0.19861847
7.0353330000000005,1.7006397,-0.5414535,0.17519616,0.11072369,-0.25132743
6.36351,1.486512,-0.557351,0.07246607,0.12456415,-0.23801056
6.276505,1.0463427,-0.7302890000000001,-0.13247049,0.17353809,-0.15231489
6.5977974,0.90791005,-0.39734169999999996,-0.44973645,0.31991884,-0.039985493
7.0832553,1.3620996,-0.11205822,-0.70525265,0.33855897,0.047298424000000006
7.956803999999999,1.6575251,-0.31345847,-0.8793143,0.23422319,0.060597833
8.408704,0.9103521000000001,-0.5419036,-0.8362046999999999,0.0675966,0.030787607999999998
8.010444,-0.94464666,-0.543388,-0.5743005999999999,-0.015428711000000001,0.043563418
7.9511533,-1.4264175,-0.92028326,-0.32197833,-0.06440265,0.06752679
7.944986,-0.6430251,-1.9360856,-0.18090338,-0.17564994,0.07604399
8.030268,0.81466067,-2.8640876,-0.26555184,-0.31566024,0.09466666
9.228651,1.9931058999999998,-2.9171913,-0.5609837,-0.44181263,0.09360201
12.556707000000001,1.9498953999999997,-0.26003903,-0.46729445,-0.3108606,-0.06447246
12.462489999999999,0.09067321,-0.47246218,-0.014294246000000002,-0.16235052,-0.18744837
13.987960999999999,-2.5982547,0.52484727,0.26516786,-0.035116023999999996,-0.16348499
13.409579,-2.4922395,0.18251479,0.70806265,0.02713987,-0.20607102
12.146465,-0.36949238,-0.044694955999999994,0.5366538000000001,-0.26508059999999994,-0.22842869
13.635735500000001,0.74619603,2.5203279999999997,0.41528365,-0.113900185,-0.28379053
13.000697,1.266504,3.6405945,0.5765695,0.032463122000000004,-0.41315433
9.54687,1.3405614,1.1822952,0.42167154,-0.109117985,-0.3625747
10.781895,1.8444067,1.9010631999999998,-0.12768829,0.035133477,-0.24174555
11.5109005,1.5341566,2.021635,-0.44067818,0.1410575,-0.20287707
10.148427,0.26942432,2.3340402,-0.42418483,0.14692181,-0.12835151
9.933553,0.07377972,2.1234846000000003,-0.24478243,0.09688323,-0.06075491
9.283057000000001,0.099962704,1.0666648,-0.05581563,0.06866125,0.08402015
8.060329,-0.21520042,0.09966583,0.038920842000000004,0.07717845599999999,0.23626523
7.3521147,-0.60649914,-0.03398809,0.07033677,0.09953613,0.29907963
7.493545,-0.51429373,0.10043198,0.12463396,0.1362753,0.27406904
7.4069133,-0.28706479999999995,0.20478085,0.21458822,0.18044959,0.20165534
7.5250330000000005,-0.30701327,0.15401420000000002,0.3604454,0.16873842,0.12714724
7.575168,-0.5149449,-0.42567948,0.435512,0.1389282,0.0888198
7.387836,-0.2915276,-1.1919965000000001,0.42858306,0.03139847,0.078173295
7.445757,-0.013340491999999999,-1.4475343,0.39240238,-0.07929031,0.074455746
7.970670699999999,0.20943518,-1.2980883,0.32850587,-0.07237881,0.029722957
8.100954,0.6990303000000001,-1.4643511999999999,0.28965485,-0.11070623,-0.016039576
8.372523,0.25741497,-1.5585871,0.27581438,-0.21184807,-0.022968533
9.14925,-0.52003974,-2.2502337000000003,0.28220227,-0.3545113,-0.028274333
10.8179035,-0.79168594,-2.4601476000000004,0.24813347,-0.40934953,0.04569272
12.799000000000001,0.4164666,-2.5538661,-0.17186257,-0.31353095,0.13566445
12.525084,2.7027857,-2.382748,-0.16973327,-0.35876990000000003,-0.054367005999999996
13.742995,1.498981,-1.4185263000000001,-0.036651913,-0.40348520000000004,-0.09482374
13.539957999999999,-0.4948815,2.0444376,0.053825952,-0.09154252,-0.08895943
13.179236999999999,-0.19439003,4.1882057,0.14060372,0.35185838,0.06272713
13.160055999999999,1.3215705,2.9522037999999995,-0.24319418,0.3145956,0.4098032999999999
11.423934,-0.5119378,4.307801,0.14751522,-0.03778638,0.2799159
11.166979,-3.8470225,4.283696,0.922581,0.2038719,0.00842994
9.306778999999999,-4.2403607,1.1975797,1.0971838,0.2773328,0.06592108
9.747129,-1.6155977,0.38566756,0.77194166,0.27361527,0.118088976
10.416788,0.8238255999999999,-0.113197856,0.29869565,0.18044959,-0.030403635
9.594189,2.1359343999999996,-0.16693331,-0.038781215,0.17779669,-0.19064231
8.33705,2.5102246,-0.09341217,-0.22935371,0.16502088,-0.33541736
7.513091,2.3198664,-0.54472876,-0.32569590000000004,0.08091346,-0.34128168
7.471709700000001,1.2936925,-1.1447061,-0.4529304,0.008517206999999999,-0.20767672
7.1495647,-0.06797618,-1.1205438,-0.59559363,-0.026598819,-0.119834304
6.750001400000001,-0.7750796999999999,-0.70964134,-0.5732359,-0.050021138,-0.09375909
7.0436363,-0.07976522,-0.7444435,-0.49816933,-0.0659909,-0.06234316
7.7209554,0.7849246999999999,-1.0732919,-0.43961352,-0.084089965,-0.026145032000000002
8.351349,1.2854469,-0.77887213,-0.36669368,-0.035657077999999995,-0.017645279
7.915729,0.8898003000000001,-0.65445983,-0.28258625,0.045238934,0.049427725
7.6118570000000005,0.13351026,-1.3660451999999998,-0.29588565,-0.044174284,0.13299409
7.945264,0.3089861,-2.0461614,-0.38053414,-0.24007004,0.13247049
9.751994999999999,0.48775634,-2.0308769,-0.43109632,-0.47748718,0.052604225
12.916977000000001,0.10195468,0.060046576,-0.11543608,-0.27413887,-0.07778932
12.573053999999999,-0.11063127,-1.0422438,0.38334409999999997,-0.20174260000000002,-0.15177383
13.012103,-1.6153008999999998,-0.66056025,0.46106362,-0.22942352,-0.048502699999999996
13.744921,-0.9901939000000001,0.59803325,0.6697352,0.063338,-0.06873106
12.029198,1.2195296999999998,0.030789435,0.43444735,-0.061732296,-0.107058495
13.010504,1.6870981,2.7644985,0.012304571,0.032463122000000004,-0.09534734
12.882606,1.5055985,3.1570423,0.18425441,0.16660912,-0.184778
10.278509,0.95824575,1.2807926,0.041591197,-0.005846853000000001,-0.21512929
10.848434,1.6016443,1.7937455000000002,-0.5354321,0.16128588,-0.092153385
11.058281,2.0354352,1.8871098000000002,-0.8612327,0.28691468,0.019076448
10.512307,0.53094774,1.6276357,-0.87027353,0.20813051,0.028117253999999998
10.381325,-0.04324886,1.1933947,-0.7180284,0.11711159,0.037175514
8.888225,-0.27703786,0.35491648,-0.51468015,0.09953613,0.17292722
7.5926266,-0.5559623,-0.24423730000000002,-0.37254053,0.11285299,0.29640928
6.983254400000001,-0.725989,-0.48448107,-0.34698892,0.15596262,0.31717870000000004
7.008767,-0.68025017,-0.044254426,-0.31185544,0.20813051,0.24904104
7.1614594,-0.727301,0.357416,-0.16973327,0.25497514,0.13938199
7.293044999999999,-0.95473105,0.35845986,0.014433873,0.25871015,0.037716564
7.337097999999999,-0.95318913,-0.25249252,0.1762608,0.20174260000000002,-0.032532938
7.423136,-0.9036675,-0.88822967,0.26462683,0.12243485,-0.06553711
7.848815400000001,-0.9038686,-0.9807991,0.27794367,0.10646509,-0.043703045999999995
8.355841,-0.26488490000000003,-0.9178985999999999,0.23748694,0.10592403,-0.046373397000000004
8.755902,-0.21649331,-0.97816545,0.27207938,0.034068827,-0.06447246
8.838119500000001,-0.77081805,-1.523622,0.39186132,-0.08782497,-0.06394886
10.069638000000001,-0.27185679999999995,-2.8945708,0.46851617,-0.3752807,-0.055955257
11.917282,0.11640609,-3.649089,0.19490092,-0.42371359999999997,0.13564698
13.033057000000001,0.59453773,-3.367282,-0.21125466,-0.4386187,0.16280429999999999
12.820424000000001,1.6976806,-2.8806844,-0.2751337,-0.5190085999999999,0.07976155
13.37855,0.079487495,0.7067396,-0.2564936,-0.34173545,0.112242125
13.137072,-0.35925475,4.603053599999999,0.23801056,-0.14851007,0.10957177
13.417863,0.84615874,4.049792299999999,0.45039967,-0.20015436,0.22242476
14.167285999999999,1.4598788999999999,2.6791499,0.009110618000000001,0.053232543,0.36934659999999997
11.780095,-0.95983547,4.199468,0.19490092,0.14425147,0.1649336
9.544571000000001,-3.421525,3.2170122,0.7591659000000001,0.14425147,-0.029880037999999998
8.41967,-3.7004685,1.5566908000000002,0.96729636,0.21931808,0.013753194
8.720985,-2.1014676,1.2839146000000001,0.77140063,0.33536503,0.11276572
9.969819000000001,0.78005964,0.9263741,0.46425757,0.29010862,-0.050631999999999996
9.34886,2.1840580000000003,0.8941481,0.28326693,0.28852037,-0.21032962
8.109726,2.5985804,0.6552068,0.2385516,0.27946213,-0.2971074
7.4800034,2.219176,-0.3378027,0.1805194,0.1969604,-0.22525219999999999
7.503572,1.1612357,-1.1570315,0.056496307,0.14053391,-0.11878711
7.3394923,0.13330914,-1.3578572,-0.09307841,0.11231194,-0.038938295
6.9367589999999995,-0.18784906,-0.8728014000000001,-0.106395274,0.08569567,-0.008063421
7.477044,0.18329051,-0.6771951999999999,-0.078173295,0.06227334599999999,0.014817845
8.067377,0.6501215,-0.84621626,-0.029722957,-0.018081611,0.017488198
8.409222,1.2042643,-0.5912433000000001,0.058608155999999995,-0.013299409,0.004171337
7.897169,0.9561963,-1.2464309999999998,0.06660176,-0.034592427,0.052604225
7.7482114,0.64435625,-1.1905311,0.020821778,-0.06279694,0.09040806
7.8044270000000004,0.5481669,-1.838134,-0.103201315,-0.20654227,0.107966065
9.365293,1.0270647,-2.223246,-0.28099802,-0.34014723,0.09147271
11.901625,1.1169908000000002,-0.91475743,-0.26820475,-0.31618384,0.018011797
12.209835,0.6490106,-1.6957939999999998,-0.01855285,-0.34334117,-0.014974925
13.353564000000002,-1.0637246,0.7729633,0.15709709,-0.060144044,0.04782202
14.435285,-1.7313622,2.1539197,0.4993736,0.22729422,-0.008063421
12.078681,-0.37237498,0.90390694,0.13102187,-0.14583970000000002,-0.0016755160999999998
13.722875,1.2086983999999998,3.7469065,-0.06965609,0.040439277999999995,-0.043196898
11.688692999999999,2.6000552000000003,1.5571888999999999,0.15816173,-0.0074351025,-0.19170697
10.886627,2.2627217999999996,1.2541499,-0.42044982,0.020228365,-0.21087068
12.105907,2.4760835,2.1972547000000002,-0.8905019000000001,0.25497514,-0.13847442
11.268683,0.5411854,2.3032220000000003,-0.9346761999999998,0.29171434,-0.079395026
10.798319000000001,-0.56253207,2.0608425,-0.6978001,0.118176244,-0.029356438999999998
9.910913,-0.49362692,1.3990662,-0.3874631,0.034592427,0.056339227
8.365197,-0.711212,0.71668994,-0.16173966,0.0628144,0.22561869999999998
7.1200494999999995,-1.1448402,0.18217002,-0.06913249,0.05749114599999999,0.31717870000000004
6.9791174,-1.0345441999999998,-0.0073741414,-0.05581563,0.06174975,0.2825688
6.720198599999999,-0.7330088,0.2573192,0.016563175,0.07824311,0.16653931
6.610736,-0.6922978,0.37499902,0.1629614,0.07239625599999999,0.0850848
6.9442863,-0.75012255,-0.11602302,0.31520647,0.05588544,-0.0016755160999999998
7.036894,-0.8037048000000001,-0.8346475,0.40729004,-0.0021118484,-0.05969026
7.549492999999999,-0.76160514,-1.372931,0.4211305,-0.07185520000000001,-0.05969026
8.527774,0.114519455,-1.0427132,0.35086355,-0.004782202,-0.07459537
8.751057000000001,0.5985026,-0.7954111999999999,0.2891138,0.01436406,-0.09641199
8.964428,0.37990233,-1.1776216,0.26410323,-0.085154615,-0.09854129
8.975316000000001,-0.39566576,-2.277901,0.27474973,-0.34547046,-0.12037536
10.512844,-0.44335827,-3.0262518,0.26302109999999995,-0.578629,-0.115052104
12.537275,0.3602316,-3.4848084000000004,-0.0015184365,-0.4966509,0.04462807
13.473984,1.316878,-2.7385166,-0.34007740000000003,-0.23368213,0.026529005
14.2409315,2.268487,-1.1802647,-0.48432887,-0.17512634,-0.042132247000000005
13.384439000000002,0.876862,1.3336086,-0.34060100000000004,-0.09580112,-0.051714107
12.52563,-0.732597,3.8911523999999997,-0.022270402,-0.20439549999999998,0.01855285
12.783189,-1.8104953999999998,2.2826703,-0.14844026,0.02713987,0.31983158
11.568734,-1.6600533,3.442594,-0.037716564,-0.14158110000000002,0.35657075
10.801786,-2.1808019,4.487366000000001,0.5850867,0.06866125,0.090931654
9.6462,-2.910947,2.6452959,1.0428866,0.21080087,0.044087015
9.265148,-1.7722933999999997,1.1010838,0.9768781999999999,0.30129617,0.121806525
9.160378,-0.34896928,0.6369439,0.6713234,0.29384363,0.13405874
9.692984,0.8270339,0.22562,0.33756414,0.2688156,-0.01977458
8.915241,2.039429,0.048027687,0.07672467,0.28159142,-0.21087068
7.9716380000000004,2.2782555,0.08670841,-0.055274576,0.20813051,-0.26516786
7.935189,1.70335,-0.39765775,-0.12980014,0.109117985,-0.15603243
7.688548,0.51157385,-0.9637332000000001,-0.19209094,0.05429719400000001,-0.042132247000000005
6.9629517000000005,-0.086239144,-1.0524143999999998,-0.21073106,0.021293016,0.015882496
6.845683599999999,-0.29302156,-1.1561887,-0.16866861,-0.021275562999999997,0.028658306
7.374936,0.04444596,-1.1242021,-0.103201315,-0.06653195,0.011082841000000001
8.1155205,0.4718397,-1.3452157,-0.063268185,-0.059602994000000006,-0.0048694685
8.262285,0.54643345,-1.4438281000000002,-0.061138883,-0.023945916,0.03769911
8.263425,0.69299686,-0.8628799000000001,-0.036110863,0.0015882496,0.088278756
8.056871000000001,0.52768207,-2.0004609,-0.1537635,-0.14957471,0.14896385
8.555527,0.8133965,-2.0187716,-0.29536206,-0.3752807,0.16332792
10.953435,0.50497544,-1.397802,-0.29907963,-0.46204102,0.098401666
13.173903,-0.42896432,-1.0650749,0.054349552999999995,-0.35292304,-0.03148574
13.095278,-0.50757074,-1.7764401,0.31998867,-0.25071654,-0.15444419
13.884511999999999,-1.7291881999999998,1.2346706,0.39399064,0.085172065,-0.10386454
12.705311,-0.561268,-0.6159323,0.40516073,-0.05427974,-0.10653489999999999
12.662109,1.7735288,2.0745566,0.10173524,-0.034592427,-0.15657349
14.019372,2.1014004,4.254477,0.12835151,0.201219,-0.21832323
10.875556,0.78326786,1.4419701999999999,0.06075491,0.013840461,-0.20874138
10.968154,0.76320446,1.4888582000000001,-0.44547784,0.11869984,-0.086306535
11.516608,1.6493465,1.4463756,-0.8532390999999999,0.3837979,-0.028815385
10.125271000000001,0.6665745,1.4897106000000002,-0.9181828000000002,0.39337975,-0.008045968
9.534956,0.011032481,1.4302003,-0.79148936,0.25549874,0.0094945915
8.80077,-0.5593716999999999,0.7778857,-0.6301859999999999,0.1969604,0.12980014
7.634773700000001,-1.1001931,0.24011928,-0.4742234,0.18577285,0.2671401
6.926866,-1.2029331,-0.045461102999999996,-0.4481482,0.24911085,0.29215068
6.790971300000001,-0.9227924000000001,-0.05284482,-0.44280749999999997,0.24380504,0.24000022
7.090371,-0.705916,-0.08452489,-0.34594172,0.22516492,0.11435397
7.214160400000001,-0.8877986999999999,-0.27205792,-0.23680627,0.17619099,-0.018168878
7.4073825,-1.1359242,-0.5303730999999999,-0.16599827,0.11869984,-0.06607816
7.649302499999999,-1.2201235000000001,-0.9876178,-0.10266027,0.0654673,-0.07778932
8.066611,-0.58613884,-1.2350346,-0.06593854,0.0015882496,-0.07778932
8.396369,-0.05926128,-1.0197,-0.060074233,-0.012234758,-0.07513642
8.968498,-0.26234704,-0.790326,-0.0132295955,-0.0675966,-0.083112575
8.910789,-0.89459825,-1.1365371000000002,0.09321803599999999,-0.193749,-0.12622221
10.2754345,-1.17404,-1.8348107,0.17306685,-0.4151964,-0.15498523
12.078585,-0.41519287,-2.409448,-0.047298424000000006,-0.3380179,-0.03413864
13.067984,1.3615347,-2.530786,-0.48965213,-0.21291271,-0.0037873646000000003
13.079112,3.1138124,-2.9346304,-0.53969073,-0.30288443,-0.014433873
12.553766,-0.40008068,-1.7712207999999998,-0.5759063,-0.3422765,-0.051173054
11.740926,-2.824622,2.5743032,-0.22190116,-0.17619099,-0.07140142
10.989030999999999,-0.7581095999999999,5.3386865,0.22471114,-0.07824311,0.04888667
13.490770999999999,0.6925563,3.0415747000000004,0.027209682000000002,0.17460273,0.24478243
14.220274,0.5321640000000001,5.314869,0.10972885,0.17247343,0.35550612
11.983007,-2.9008052,4.152082,0.60425043,0.1389282,0.12606514
8.712759,-3.8866704,1.7850498,0.971555,0.058014743,-0.039461896
8.102755,-2.891985,0.26513392,0.97049034,-0.01701696,-0.016039576
9.390835000000001,-0.6028983,0.08390239999999999,0.8581609,0.023945916,-0.034679692000000005
8.884279,1.0663296,0.0552486,0.7048687,0.09101892,-0.08258898
7.8633630000000005,2.524025,0.23720793,0.5467593000000001,0.1277581,-0.15125023
7.027806,3.0529807,-0.22954647,0.3843913,0.08941322,-0.21673499
7.064379,2.4123018,-0.61749333,0.17039649,-0.050562188,-0.24548055
7.1749339999999995,0.71259105,-0.70259285,0.011239921000000002,-0.063338,-0.19437732
6.894984700000001,-0.55295527,-0.6936673000000001,0.026145032000000002,-0.080372415,-0.13262758
6.975486999999999,-0.7896173000000001,-1.0259728000000001,0.14325662,-0.14690436,-0.054367005999999996
7.5307699999999995,0.018492812,-1.6664027,0.18903661,-0.1932254,-0.029356438999999998
8.269084,0.9048263000000001,-1.8660408,0.19703022,-0.13199925,0.019600047
8.382933999999999,1.2742803999999999,-2.1164935000000002,0.07086037,-0.04576253,0.09573131
8.33773,1.6784695,-2.3082595,-0.17079791,-0.10698868,0.119153626
8.761322,2.0156784,-2.5059822,-0.40715042,-0.35344663,0.09147271
11.05176,1.3262345,-1.8829247,-0.5285206,-0.42744857,0.10370746
13.160678,0.0023463177,-0.78024155,-0.25597,-0.20439549999999998,0.06539748599999999
12.733858,-1.4138144,-1.1204002,0.1044056,-0.096342176,0.015882496
14.483244000000001,-2.4243302000000004,1.1674128000000001,0.41102505,0.05110324,-0.05969026
12.380253999999999,-0.80102324,-0.59315866,0.3843913,-0.058555797,-0.13156292
12.7423725,1.1264048999999998,2.0227365,0.07244862,0.0069115036,-0.12144001
14.351267000000002,1.0367084999999998,4.709682,0.14379768,0.33269465,-0.25291565
11.032089,0.5624170999999999,1.9026433,0.21245892,0.16180947,-0.3530103
11.046215,1.9125841000000001,1.5369433000000001,-0.28897417,0.1373225,-0.23589870000000002
12.149308999999999,2.7780879,1.6244658,-0.7494269,0.38433895,-0.115052104
10.737679,1.0792583,1.7598531000000002,-0.8053298000000001,0.38060394,-0.06874852
10.397051,0.046763547,1.6111253,-0.6291388000000001,0.24113469,-0.02029818
9.195545,-0.5371151999999999,0.896935,-0.4172733,0.22835888,0.121806525
7.435701400000001,-1.041947,0.47782520000000006,-0.2666165,0.21399482,0.27246335
6.5108976,-1.1192031,0.032522835,-0.21977186,0.22570598,0.33049554
6.720178999999999,-0.77920735,-0.0017812860999999998,-0.20060815,0.1969604,0.24851742
6.654281,-0.43614694,0.26043168,-0.13247049,0.19429006,0.10744247
6.6174583,-0.40973409999999993,0.0137618715,-0.029722957,0.1389282,0.004712389
6.918601,-0.75680715,-0.41826704,0.045308746,0.06494370000000001,-0.060231313
7.2240057,-1.1009402,-0.72597945,0.13899802,-0.017558011999999998,-0.09162979
7.608409399999999,-0.8069513,-1.6883814,0.17997836,-0.08676032,-0.079395026
8.0487795,0.34953429999999996,-1.9469743999999998,0.03359759,-0.09208357,-0.08578293
8.466089,0.9093561,-1.9620578000000002,-0.13727015,-0.11763519,-0.09430013599999999
8.733358,0.7048434,-2.0703142,-0.20699605,-0.20706587,-0.10068805
9.481747,-0.45599008,-2.4732966,-0.17451547,-0.3758043,-0.12889257
12.050295,0.37755603,-2.7302423,-0.24158847,-0.5088855999999999,-0.068207465
13.290338,0.61403614,-2.3824415,-0.5609837,-0.28691468,0.029722957
14.331404999999998,2.3751726000000004,-1.5711806000000001,-0.6552140999999999,-0.22783528,-0.051190507
13.86532,1.5498433999999999,-0.032465372,-0.65681976,-0.27467993,-0.079395026
12.600578,-0.28388527,2.2584217,-0.3129201,-0.30607840000000003,-0.06075491
12.080433,-1.398051,3.3848937000000006,-0.04358087,-0.16182692,0.0834791
12.441958,-1.1192223,2.7466283,-0.24958208,0.017558011999999998,0.38105774
12.446603,-1.3677979,4.5211434,0.05222025,-0.059079394,0.33580133
11.417124000000001,-2.7371566,4.1049256000000005,0.6676059,0.071331605,0.120741874
9.393736,-2.976845,2.0847273,0.9545206,0.1346696,0.11116002
9.27869,-1.9444078000000002,0.65519726,0.69581044,0.14957471,0.16599827
10.061153,-0.45139322,0.7720534,0.30827752,0.14638077,0.04621632
9.066277000000001,1.1796902,0.43794740000000004,0.08044223,0.17352064,-0.14433873
7.918717,2.2140524,0.33718020000000004,-0.03345796,0.17193238,-0.27848473
7.3080229999999995,2.2752385,-0.25185087,-0.10958923,0.12135274,-0.25452137
6.964914299999999,1.4050133,-0.7868879,-0.19795524,0.023404865,-0.100146994
6.927028699999999,-0.033777397,-1.3286096,-0.27193975,-0.0675966,0.044087015
6.7832427,-0.45468763,-1.2311944,-0.26768115,-0.096342176,0.068050385
6.8817306,0.012315774,-1.3774991,-0.24745278,-0.12082914,0.07017968599999999
7.3661447,0.6731825,-1.5791963,-0.22457151,-0.17460273,0.055798177000000004
7.649599,1.1195478,-1.2777184,-0.108524576,-0.12882276,0.07496189
7.598717,0.8523261999999999,-0.9309900999999999,0.036250487000000005,-0.05588544,0.11541862
7.8282065,0.4429752,-1.7183281000000004,0.107058495,-0.13573426,0.11754792
8.453965,0.22605094,-2.3588633999999997,0.017086774,-0.30981338,0.06005678
10.314356,-0.38067806,-1.9153135,-0.046233773,-0.48867473,-0.037332594
12.403008,-0.6913305000000001,-1.0686567,0.22043508,-0.50197417,-0.15179129
12.669607000000001,-0.53093815,-2.3927843999999996,0.63671356,-0.43437755,-0.21673499
13.498873000000001,-1.0945332,-0.36170644,0.84592617,-0.21345377,-0.14540339
14.461763000000001,-1.5313218000000002,0.4942973,1.2893445,0.056409042,-0.18638371
12.324508,0.37375402,-0.9284235000000001,0.98220146,-0.09953613,-0.25186846
13.495204999999999,1.8496261000000003,2.0268066000000005,0.47436303,0.10273008,-0.23483405
12.621648,2.567063,1.8637903000000002,0.54037136,0.10698868,-0.38707912
10.770785,2.2158816000000003,0.7782209,0.15762068,-0.059620447,-0.38388517
11.929561,2.6611838,1.7900585,-0.4524068,0.22994713,-0.25452137
11.047604,1.9348693,1.8672186999999998,-0.7244164000000001,0.30714303,-0.14807373
10.4163475,0.53199166,2.1149228,-0.6488261,0.16980308,-0.037332594
10.105417999999998,0.11450988,1.3140815000000001,-0.39756855,-0.02555162,0.09253736
8.331076,0.09080728,0.28172090000000005,-0.24851742,-0.0654673,0.26392868
7.293083,-0.23120326,-0.44637498,-0.28419197,0.024993114,0.38210493
6.629353,-0.43996808,-0.57785493,-0.3773402,0.16180947,0.42044982
6.543545,-0.5232384,-0.1179288,-0.36723474,0.21132447,0.3709348
6.820104,-0.5361767,-0.08531977,-0.23148301,0.15435691,0.22507766
7.022232000000001,-0.69413656,-0.1493503,-0.063268185,0.15224507,0.069115035
7.0277867,-0.7939939,-0.752488,0.07031932,0.10431833,-0.023492131
6.828914599999999,-0.8479305,-1.6662206999999998,0.13048081,-0.026616272000000003,-0.038397245
7.148397,-0.2700947,-2.0479045,0.044767695999999996,-0.08463102,0.003630285
7.691459,0.5531755,-1.821681,-0.03345796,-0.12721705,-0.021903882000000003
8.744189,0.14454274,-1.7679647,0.044244096,-0.17886133,-0.092170835
9.72428,-1.1220569999999999,-1.8220353999999999,0.19381881,-0.20067796,-0.15231489
11.347702,-1.3347004999999998,-3.024413,0.38599703,-0.40669662,-0.15817920000000002
12.716458,0.41537485,-4.35285,0.26356217,-0.490263,0.04515166599999999
13.671256,1.8573163000000001,-4.462619999999999,-0.21019000000000002,-0.34707618,0.12767084
14.405213,3.0374086,-3.3721278,-0.48167595,-0.42851323,0.03769911
12.615776,0.9876369,0.012210428,-0.43589598,-0.22144738,0.03185226
13.224851999999998,-0.21518128,4.164733,-0.024417156000000002,-0.179926,0.23253022
15.358775,-0.35053986,2.3456569,-0.22615977,0.20333086,0.60515803
12.036773,-1.5926901000000002,3.9234357,-0.023876105,-0.017558011999999998,0.4997576
11.050246000000001,-3.6283553,3.9525492,0.5701816,0.14583970000000002,0.23626523
9.56701,-3.8317666,1.9928089,0.96197313,0.37634534,0.18996164
8.863698,-1.7611269,1.4483483999999998,0.8379325999999999,0.48174578,0.23944172
9.655539,0.19874747,0.8975861999999999,0.58295745,0.4151964,0.094125606
9.518522,1.8106293999999998,0.17087896,0.39132026,0.39498547,-0.15763813
8.23069,2.6237673999999997,-0.05232767,0.30082494,0.40242055,-0.32265902
7.415724000000001,2.306871,-0.5709309,0.20340067,0.30553734,-0.33969343
7.581086599999999,1.2435389,-1.5730096000000002,0.020280726000000002,0.15435691,-0.27049112
6.908603,0.24500345,-1.4474770000000001,-0.12023573,0.09847148,-0.12465142
6.555525299999999,-0.3056917,-1.3600598999999998,-0.13672909,0.03778638,-0.07620107400000001
6.9018803,0.08966764,-1.5461563,-0.09946632,-0.03778638,-0.043196898
7.418721000000001,0.7686345,-1.8107442999999999,-0.0840376,-0.095277525,-0.020839231
7.936041,1.0737995,-1.4595245000000001,-0.021223204,-0.08888962,-0.0027401668
7.772364,0.78939706,-1.3361082,0.042638395,-0.010646508,0.06750934
7.517276299999999,0.59285223,-2.2099247,-0.061679937000000004,-0.076113805,0.15161675
7.8082867,1.0943992,-2.9444562999999997,-0.36617008,-0.2555162,0.18462093
9.652472999999999,1.365193,-1.7821096,-0.5657833999999999,-0.45938809999999997,0.14735815
13.201407999999999,0.32612857,-0.29025385,-0.34274775,-0.28213248,-6.981316999999999e-05
14.276720999999998,-0.1520797,-1.2720011,0.07192502,-0.09847148,-0.18107791
14.337581,-1.4292042999999999,0.4106343,0.29017845,0.07930776,-0.14379768
12.742669,-1.2359923000000002,-0.10732727,0.47701594,0.061208695,-0.09430013599999999
12.307031,0.6159994000000001,0.77270466,0.3018896,0.02979277,-0.19383627
13.456247,1.0146244,2.9069437999999996,0.15868534,0.1996133,-0.24867451
12.095536,0.5183159,1.5905544,0.1789137,0.10964158,-0.35620424
11.378444,1.0400412,1.3579242,-0.34646532,0.14477506,-0.3359759
12.240558,2.6373472000000002,1.5459936,-0.81864667,0.29169688,-0.13582152
10.437532000000001,1.2528761999999998,1.3499275,-0.94266975,0.1953547,-0.0453262
10.441008,-0.15567099,1.2183039,-0.8069181,-0.02979277,0.0063006384
9.5443325,-0.7183276,0.3842215,-0.662143,-0.010646508,0.13884094
7.3940134,-1.2998408000000001,0.011827356,-0.5562015,0.03139847,0.29108602
6.366948000000001,-1.4861096999999999,-0.29085720000000004,-0.5200034,0.08676032,0.35070646
6.0865297,-1.3059317,-0.28645188,-0.46464154,0.08196066,0.29215068
6.3771762999999995,-1.091325,0.05264371,-0.3310366,0.059602994000000006,0.17558013
6.6277633,-0.7958518,0.09074024,-0.15109316,0.0628144,0.066985734
6.639897,-0.76408553,-0.5043337999999999,0.013369222,-0.0069115036,-0.005410521
7.042285400000001,-0.7743135,-1.2083823999999999,0.11929326,-0.08676032,-0.06075491
7.896336,-0.5962041,-1.5844443000000001,0.15177383,-0.10646509,-0.08684758
9.094088000000001,-0.30007009999999995,-1.6045365,0.13473941,-0.014905112,-0.08684758
9.517565,-0.058887787000000004,-1.7094791,0.048502699999999996,0.026598819,-0.10442304599999999
9.2373,0.28988996,-1.5369338,0.035185836,-0.03832743,-0.16402604
9.1807,0.06482541,-1.9061773000000002,0.18317229999999998,-0.19589576,-0.21193533
11.150525,-0.009299079,-2.8994164000000002,0.24439846,-0.34918803,-0.22045253
12.665442,0.30446586,-3.2634025,-0.08510225,-0.30927235,-0.12836896
13.902938,1.8126118000000002,-2.6353072999999996,-0.4742234,-0.26349235,-0.10068805
15.157778,3.0500119,-0.7786806,-0.6206216,-0.19055505,-0.12250466
13.390951999999999,1.7749845000000002,0.8131666999999999,-0.46038294,-0.26988026,-0.11772246
13.45346,-1.0946768999999998,1.7516650000000002,-0.44760713,-0.033527777,0.17238617
12.094875,-2.0353682,1.7060506000000002,-0.6291388000000001,-0.009564404,0.3214373
10.668313000000001,-3.1475419999999996,3.9751792,-0.146852,-0.052167892,0.19526744
10.975106,-4.3160944,3.3184017999999997,0.42858306,0.18790215,0.06965609
9.854486,-2.8712418,1.658655,0.6122266,0.36196384,0.039828412
9.1268015,-0.40769425,0.9411894000000001,0.33222342,0.38964474,0.05953318
9.432887,1.0371683,0.73922414,-0.03932227,0.34014723,-0.063425265
8.699744,2.1786182000000003,0.31110257,-0.34114206,0.32311282,-0.2529331
7.635186,2.4409845000000003,0.18806933,-0.44813073,0.23581143,-0.32265902
7.291637400000001,1.8724764999999999,-0.21651246,-0.45505969999999996,0.15224507,-0.27742007
6.944861,0.7984184,-0.74244195,-0.43641958,0.05269149,-0.116116755
6.702673,-0.47500962,-0.8063958999999999,-0.37573448,0.015428711000000001,-0.016563175
6.594119999999999,-0.7800309,-1.072181,-0.24373522,-0.05375614,0.011082841000000001
6.941241000000001,-0.31279767,-1.1718277,-0.10798352,-0.12669346,0.046739917
7.8731694,0.22573490000000002,-1.1755242,0.054890607,-0.1996133,0.056862827000000005
8.392702,0.52796936,-0.5094095000000001,0.33169982,-0.07878416,0.069115035
8.356653999999999,0.12730450000000001,-1.0000772,0.5121494000000001,-0.10007718,0.056339227
8.100197,0.32564974,-2.1997828,0.5291838000000001,-0.17566739,0.033440508
7.932335000000001,1.1800925,-3.8580358,0.24600416,-0.45991170000000003,0.06644469
10.244387,2.1660342,-2.788402,-0.004712389,-0.53497833,0.024923302
12.639671,2.3253446,-1.7909107,0.12463396,-0.34547046,-0.116116755
12.344476,0.9942065999999999,-1.7437737000000002,0.3061482,-0.20280726,-0.13156292
15.259645,-1.3592362,2.9521272,0.5983861,0.13414600000000002,-0.14540339
13.293104999999999,-1.481465,0.16852307,0.7501076,0.06492624400000001,-0.17947221
13.485551999999998,0.11609963,3.5608866000000003,0.57763416,0.04897394,-0.22364649
12.274316,1.4980904,2.43701,0.82196283,0.13625786,-0.26251498
9.6187725,1.8801378,-0.51858413,0.39931387,-0.094212875,-0.13688618
12.566121,2.6321661,1.7189602,-0.2799159,0.30288443,-0.039461896
12.436824,2.2005684,1.7277133000000002,-0.58388245,0.42692497,0.021205751000000002
10.891731,0.46050078,2.1774786,-0.42472586,0.27946213,0.07283259
10.610671,-0.44910434,1.3686215,-0.08988445,0.112835534,0.20165534
8.674078,-0.73765355,0.20976079999999997,0.17359045,0.07450811,0.39861575
7.3699946,-1.050365,-0.52272123,0.27314404,0.07185520000000001,0.5423435999999999
7.0151449999999995,-1.0028162,-0.86913353,0.20074777,0.13095206,0.53063244
7.121753699999999,-0.30915847,-0.7497682,0.15070918,0.12508775,0.36562902
6.513042400000001,0.37390727,-0.35920690000000005,0.20713568,0.130411,0.21710149999999998
6.373968,0.17045759,-0.6956591999999999,0.29230773,0.09154252,0.123935826
6.5514936,-0.7136253,-1.0321212,0.41900119999999996,0.021816615,0.044087015
6.626086999999999,-1.1550969,-1.6526313000000001,0.52014303,-0.025010569,0.029181905
7.240277000000001,-0.38380012,-2.0998394,0.46584582,-0.026598819,-0.001134464
7.442912,0.7051689999999999,-2.108516,0.3620511,-0.08941322,-0.055955257
7.999775,0.7319840999999999,-1.9686658,0.27207938,-0.201219,-0.068207465
9.394111,0.017295713,-2.5149748,0.21087068,-0.33269465,-0.052237704
11.954029,0.8171602,-2.4901614,0.15655604,-0.40509093,-0.07513642
13.383989000000001,1.1280808,-3.3628957,-0.20645499,-0.22835888,0.04782202
13.624032000000001,2.6726186000000003,-3.5776076,-0.39756855,-0.44394195,-0.037873644
14.147423999999999,1.4201447,-4.215615000000001,-0.4790056,-0.5136853,0.0094945915
13.567749,-1.4995843,-0.44278365,-0.4177969,-0.30607840000000003,0.004694935999999999
12.675939,-1.4991629,2.6103215,-0.10372492,-0.113900185,0.03398156
12.113050999999999,-0.08051222,3.3098977,-0.0036477381,0.23848179,0.34379494
11.941723,0.81820405,3.1157757999999998,-0.06379178,0.047368235999999994,0.5178741
12.662109,-2.16681,5.0329375,0.35938075,0.026616272000000003,0.27832764
11.683847,-4.4639505999999995,3.188751,1.0215935999999999,0.359852,-0.0048520155
8.9157295,-3.5396452000000003,1.4271549,1.1919377,0.39976767,-0.015515977
9.731166,-0.5342805,0.30576828,0.9177988000000001,0.23794073,0.04888667
10.187424,1.3343365,-0.23565648,0.5111022,0.20174260000000002,-0.06661922
8.616434,2.25371,-0.34900758,0.2385516,0.20919517,-0.2539803
7.375501,2.3902466,-0.08738836,0.1869073,0.23900539,-0.39025563
7.105636,1.7678785,-0.74711543,0.14273302,0.17353809,-0.32744122
6.9998603,0.5784391999999999,-1.5921825,-0.05581563,0.15330972,-0.14699163
6.739228,-0.41661027,-1.4284191000000002,-0.23787092,0.08197811,0.012164945
6.407592299999999,-0.65897053,-1.2604799999999998,-0.28471556,0.027680922,0.05368633
6.925707000000001,0.39121255,-1.451662,-0.23254767,-0.08196066,0.051015973
7.7462100000000005,1.1474258999999998,-1.4785535,-0.17132153,-0.14318681,0.0094945915
7.9869995,1.2385396999999998,-1.5775874,-0.16599827,-0.06279694,0.03185226
7.6662817,0.7707893,-1.7520767,-0.25064674,0.0090408055,0.12288863
7.6678042,1.0651038000000002,-2.328754,-0.44280749999999997,-0.11763519,0.16599827
8.477513,1.2141378999999999,-3.0054220000000003,-0.7451683000000001,-0.440748,0.16121607
11.355488000000001,0.2975035,-1.8365825,-0.83301073,-0.5158146,0.06750934
13.467413,-0.7793031,-0.9024321,-0.25064674,-0.29702014,-0.09056514
12.529413,-0.64824444,-2.8631108,0.11185815,-0.26508059999999994,-0.19542451
13.768163000000001,-1.4734875,0.34264857,0.21139428,-0.083025314,-0.12515756
13.546451000000001,-0.50642157,-0.64026695,0.43764132,-0.013299409,-0.15337953
13.167276000000001,0.6076771,0.9222944,0.02401573,-0.030333823,-0.2987131
14.247722,0.4575032,3.7683489999999997,-0.09360201,0.1256288,-0.3524518
10.983994500000001,1.0162906999999999,1.5099655,0.06553711,0.005846853000000001,-0.35831609999999997
10.846624,2.1504145,1.9346776999999997,-0.26926940000000005,-0.031922072,-0.2971074
11.893704,2.1897562,1.5533868,-0.6946061,0.23528783,-0.1783901
10.738195,0.3907433,1.5918854,-0.7542091,0.27202702,-0.08470083
10.556792,-0.5417408,1.7499411,-0.53171456,0.17566739,-0.0021991148
9.661705,-0.7702626,0.93175626,-0.2628815,0.11976449,0.13566445
7.729316000000001,-0.8889671,-0.019776106,-0.10372492,0.10594148,0.29323277
6.8680935,-1.0733206,-0.51828724,-0.06859144,0.1261524,0.37041122
6.9014683,-0.82930356,-0.6250015999999999,-0.06965609,0.11498229,0.33901274
7.03178,-0.5426219,-0.23596294,0.019233529,0.12189379,0.19474384
6.708514699999999,-0.6430347,-0.19244593,0.14912093,0.1187173,0.078173295
6.615054600000001,-0.92805964,-0.5629343000000001,0.24281020000000003,0.056426495,0.03185226
6.615821,-1.0968795,-1.3697706,0.28700194,-0.039898228,0.032934364
7.177989500000001,-0.4682388,-2.3795395,0.25932103,-0.15488052,0.037192967
8.260015,0.4355915,-2.3696563,0.21352358,-0.07557276,0.015358897
8.595319,0.59085065,-2.1307247000000005,0.14060372,0.07665486,-0.013910273999999999
8.898424,0.3116676,-1.7863618,0.07087782,0.07984881,-0.013369222
9.086896000000001,0.032561142,-1.7497593,0.13102187,0.0058643064,-0.022410028
10.016036999999999,-0.12349292,-2.7685304,0.32585296,-0.31031954,-0.046896997999999995
12.073269999999999,-0.5972958,-3.7720550999999998,0.120898955,-0.50836205,0.1478992
13.745026000000001,0.46842077,-2.858083,-0.012147492,-0.32948324,0.103201315
14.505856,1.4865503,-2.2667632,-0.10478957,-0.25549874,0.043039817
14.483751999999999,0.1730912,0.7714214,-0.18355627,-0.06705555,-0.029862582999999998
13.811747,-0.22418347,3.7024220999999997,-0.05475098,-0.004782202,0.024399703
13.241966,-0.27816793,2.4725401000000002,-0.039828412,0.14852752,0.26342255
12.39052,-0.93953264,2.8139243,-0.015341444,-0.07822566,0.37627554
11.352998,-2.4817624,3.8399644,0.4706455,0.06707300000000001,0.11650073
9.500049,-3.61105,1.963389,0.8757539000000001,0.19750145,0.011100293999999998
8.204738,-2.220057,0.8728206000000001,0.84114397,0.27893853,0.06646214
9.094049,-0.72147834,0.42560288,0.55955255,0.25818655,0.041975167
9.243688,1.0623169,0.32208717,0.19542451,0.3241949,-0.066060714
8.610009,2.2846336,0.25218606,-0.0009773844000000001,0.39659116,-0.19861847
7.878063,2.536197,-0.03421793,-0.123935826,0.3992615,-0.28431413
8.008039,1.9144515,-0.5726547,-0.2713987,0.28958502,-0.21830578
7.998031599999999,0.45429498,-0.9120376,-0.40180970000000005,0.23102923,-0.055414204
7.1771845999999995,-0.67153525,-1.4072063999999997,-0.453454,0.16449729,0.009512044499999999
6.925439,-0.83579665,-1.5197147,-0.42842597,0.044715334,0.02815216
7.582331699999999,-0.1721431,-1.5079639999999999,-0.34805354,-0.021275562999999997,0.015899949
7.9638715,0.3491225,-1.2552896,-0.28150415,0.016510814,0.045710173
7.552136,0.6029845,-0.96980494,-0.24212952,0.115523346,0.098401666
7.081406599999999,0.44360727,-1.5329306999999999,-0.27459264,-0.05799729,0.13672909
7.489101,0.63870597,-1.6435811999999999,-0.32623693,-0.15168656,0.14578736
8.346925,0.73392814,-1.9560819,-0.43694317,-0.38484509999999994,0.12608258
10.833408,0.28459397,-1.2859927,-0.44226643,-0.36568138,0.051557027000000005
12.31971,-0.6056851,-1.2044175,-0.04782202,-0.2544341,-0.10545279
11.866017,-1.8768817,-2.1617727,0.16615534,-0.27731538,-0.09532988
15.165247,-2.8553634,1.2474365,0.39079666,0.118176244,-0.048502699999999996
13.983267999999999,-1.3413947,-0.52243394,0.6415307,0.0021293017,-0.1943424
13.95471,0.25809494,1.7362272,0.5217487,-0.09367182,-0.34126422
13.026679,1.4844817,2.9139159,0.5116433,0.0090582585,-0.38119736
10.548699000000001,2.4530897,1.1051157,0.40250784,-0.18149678,-0.3625747
11.466474,2.3681912,1.3790889,-0.118088976,0.030874874,-0.297631
12.0138645,1.7132237000000001,1.8635604,-0.56524235,0.33749429999999997,-0.24811599999999998
10.563735000000001,-0.0967066,2.2194632999999997,-0.66051984,0.36252233,-0.15229744
10.150161,-0.5879871999999999,2.3273938,-0.43481390000000003,0.23424064,-0.0559378
9.029819,-0.4758907,1.5244648,-0.17025687,0.14479251,0.07019714
7.943722,-0.5014416,0.31713596,0.013386675,0.10115928,0.2762158
7.267542,-0.75547594,-0.31176338,0.042132247000000005,0.16502088,0.38159879999999996
7.1538076,-0.6687101,-0.25891855,0.019233529,0.1831374,0.348071
7.133715,-0.398625,-0.02846227,0.05969026,0.17566739,0.23095942
7.014082000000001,-0.3900729,0.069163695,0.19703022,0.1751438,0.11863003
7.200696000000001,-0.80475825,-0.46271297,0.33969343,0.12191125,0.05900958
7.3730970000000005,-0.9606781999999999,-1.0965731,0.38227946,0.059096847,0.03132866
7.760316400000001,-0.27688465,-1.7657046000000003,0.32372367,-0.015411257,0.022287855
8.462717999999999,0.5541428,-1.8887091,0.2534567,-0.002635447,-0.028797932000000002
8.595778,0.6682024999999999,-1.5361965,0.19491836,0.030892327,-0.100653134
8.578261,0.4612669,-1.2783313,0.153397,-0.049480084,-0.14430383
8.737381,-0.36999995,-1.6209896000000001,0.22631684,-0.23366468,-0.18743089999999998
10.245161999999999,-1.0781473,-2.25801,0.40357247,-0.46469390000000005,-0.21989404
12.578819000000001,-0.65537924,-2.8190193,0.39931387,-0.4439245,-0.11129965
12.807849000000001,0.97789735,-2.664488,0.061295964,-0.20811306,-0.07564257
13.395817999999998,2.8811536,-2.3434255,-0.12925908,-0.20971876,-0.16400859
12.847995,0.98688996,-0.6038273000000001,-0.17184512,-0.2980848,-0.14271557
12.336086,-1.0327724,2.165364,0.170955,-0.24644049,-0.14910348
11.990822999999999,-0.7995772,4.2101655,0.47596875,-0.1399754,0.011117746999999999
13.279497000000001,0.6821655,2.3595433,0.18798941,0.09157742599999999,0.28312729999999997
13.364721,0.36318123,3.8671625,0.16936675,0.13416345,0.2639636
11.018566,-2.3206997000000005,3.359285,0.61810833,0.21134192,0.053162728
8.835264,-2.9255707,1.5051292,0.8470083,0.20176005,-0.020804325
8.781587,-2.0500112,0.69020045,0.7309613,0.21027727,0.044121925
10.066363,-0.16553510000000002,0.13370179999999998,0.43818235,0.22040018,-0.044767695999999996
9.065433500000001,1.7617207,0.083682135,0.18427186,0.2896025,-0.18636626
7.619432000000001,2.741725,0.4711885,0.07513642,0.33910003,-0.2875081
7.330222,2.5365129,-0.3748841,-0.020123646000000002,0.24488714,-0.31251866
7.251702000000001,1.550667,-1.0670382,-0.16119862,0.09581858,-0.16294394
7.0738034,0.29525295,-0.8711734,-0.24476497,0.055902895,-0.0069638634999999996
6.936874,-0.35334584,-1.0784059,-0.23624776,-0.0058293995,0.087231554
7.146012299999999,-0.004893748,-0.9592799999999999,-0.16065755,-0.0691674,0.09628981
7.712594999999999,0.6400563,-1.1220569999999999,-0.091996305,-0.10803588,0.0861669
8.009628999999999,1.1299675,-1.1972637,-0.056321774000000005,-0.09419542,0.107459925
7.789324799999999,0.97451675,-1.6352973,-0.08454375,-0.14582226,0.19582593
7.690875,0.9998091,-2.2457135,-0.21762510000000002,-0.24696408,0.2527935
8.145946,1.0481623,-2.652833,-0.42523202,-0.46256462,0.25438175
10.60957,0.81325287,-1.9036968,-0.48963466,-0.6126804,0.1425934
13.262967999999999,0.145261,-0.08341399,-0.11489502,-0.45937064,-0.027733281000000002
12.282925,-0.08436209,-1.6210566000000002,0.34662238,-0.43114868,-0.085748024
11.44144,-0.82967705,-2.6286035,0.38175586,-0.49876273,0.025481807000000002
14.266167000000001,-0.76861537,0.10636002,0.48450340000000003,-0.16552703,0.020158553
12.1148615,1.6425085,-0.7784028000000001,0.40358993,-0.072902404,-0.17570229
10.48939,1.4831504999999998,0.71708256,-0.17290977,-0.09791297,-0.15282103
12.460776,-0.11270944,3.7119032999999995,-0.3091851,0.14906856,-0.24544565
12.757313,-0.4858697,3.055461,-0.017470745,0.27096236,-0.47595128
10.48013,1.2642726,1.7434577000000002,-0.41297979999999995,0.1794024,-0.37055084
10.787162,2.436761,1.5357463,-0.8335169,0.26830947,-0.09159488
11.410076,0.65704554,1.2522345,-0.9171007,0.21614157,0.027628561
11.390328,-0.75832987,0.9762884000000001,-0.75366807,0.17142624,0.037734017
10.316059,-0.74301654,0.2005575,-0.46994734,0.11978195,0.11864748
8.123919,-1.0829836000000002,-0.30628544,-0.27563986,0.20123646,0.27728045
7.067750500000001,-1.114271,-0.6415024,-0.16439256,0.20549506,0.3869395
7.2002645,-0.98336565,-0.63789195,-0.11435397,0.22198842,0.35767034
7.755863000000001,-0.38201883,-0.25334483,-0.040352013,0.22785273,0.24588199
7.756092999999999,-0.23998520000000004,-0.057144806,0.060231313,0.24062854,0.10428342
7.546973700000001,-0.2953583,-0.31587183,0.12730432,0.17620844,0.015917404
7.176725,-0.58139837,-0.80194265,0.1725607,0.08890707,-0.026127578999999998
7.0913954,-0.63250977,-1.3348441,0.20608848,-0.030839968,-0.005899213
7.2548146,-0.35703292,-1.6393098999999998,0.18746582,-0.08300786,0.014835299
7.701390299999999,0.00593762,-1.5907363,0.09538224,-0.113882735,-0.03197443
7.832611999999999,-0.29469752,-1.3988938,0.13262758,-0.15062192,-0.107041046
8.551772,-1.1399944,-1.9707153000000002,0.27422613,-0.3518409,-0.17092009
10.793981,-0.5164006,-2.1181118,0.37697366,-0.42102578,-0.1293987
12.176077000000001,-0.030885202999999996,-3.3029065,-0.04886922,-0.34651768,0.06487389
13.273520999999999,2.0195186,-3.1267796000000003,-0.28576276,-0.48705158,0.030822514
14.134457000000001,2.2947562,-3.5741696000000003,-0.39488074,-0.4561767,0.026022859
13.1428175,-0.19922632,-0.87014866,-0.36878806,-0.37098718,-0.022933627
14.0968685,-1.1154298,2.5146492,-0.14149384,-0.10323623,0.022828907000000002
15.090117000000001,-0.20661002,2.6336029,-0.1446878,0.3502876,0.34702381
12.118951,0.21356279,3.2353422999999997,-0.07655014,0.16769123,0.4556182
10.922405,-2.1287806000000002,5.313356,0.5419946,0.15013322,0.1942377
10.086053999999999,-4.2383404,2.783815,1.1355287,0.2677684,0.0042062434
8.689382,-3.390362,0.7999889,1.0817726,0.39235002,0.06543239
9.764081,-0.7073238000000001,0.657601,0.60854393,0.36786306,0.06169739
10.108118,1.7867161,0.16994043,0.15713198,0.28640854,-0.105976395
9.031101,2.9744222000000002,0.22127213,-0.04300491,0.3108955,-0.26886797
7.7256293000000005,3.0582382999999997,0.008446744,-0.073879786,0.25926867,-0.3593633
7.6152277,1.9251488,-1.0289035,-0.15214035,0.10222393,-0.27632052
7.5262494,0.39067626,-1.3458287,-0.3139673,0.025045475,-0.11714649999999999
7.14855,-0.9879243000000001,-1.2564962,-0.36561158,-0.016999507,-0.02932153
7.079913,-0.88013726,-1.0947152,-0.32141984,-0.07609635599999999,0.03614577
7.5377517,0.058284447,-1.0237224,-0.25487044,-0.11334168,0.030281462000000002
8.225031,0.9394655999999999,-1.1736472,-0.16065755,-0.14315191,-0.004834562
8.509605,1.1818738000000002,-1.052357,-0.052604225,-0.08513716,-0.008552114
8.167330999999999,0.63899326,-0.6999018,0.040544,0.050597094,0.030822514
7.436113000000001,0.06331227,-1.5782865,0.028291788,-0.0005061455,0.10800097
7.431793700000001,0.32398337,-2.7014353,-0.16756906,-0.21235421,0.16283922
9.070567,0.68984616,-2.633938,-0.36027086,-0.4699997,0.1266411
12.065128999999999,0.11847468,-0.90037304,-0.25647613,-0.41250858,-0.0010995574
13.590322500000001,0.10151415,-0.6358138000000001,0.37165040000000005,-0.23631757,-0.19113101
12.4583435,-0.59872276,-2.0620781999999998,0.5494471,-0.20437805,-0.17357299
14.132608,-1.4103668,0.20208020000000002,0.63568383,0.038885936,-0.06817256
12.005504,0.9762597,-1.4929284999999999,0.6330309000000001,-0.06597344599999999,-0.1150172
12.305776,1.8981134999999998,0.69980603,0.11773991,0.0021467548999999997,-0.07936012
14.42066,1.8852519,3.425461,-0.0030892328,0.17568484,-0.17198475
11.017331,1.1573188,0.9877326999999999,-0.033423055,0.04579744,-0.27097982
10.722126,1.2319891,1.5594393,-0.47366490000000006,0.106482536,-0.13098696
10.9641695,1.6238337999999999,1.3808413999999998,-0.91603607,0.3199363,0.0031415927
10.058099,0.75473857,1.4870483,-0.9548870999999999,0.2587276,0.02443461
9.985661,0.022026654,1.423353,-0.7765668000000001,0.13151056,0.03614577
9.262851,-0.42204988,0.7504386,-0.5646838000000001,0.06443755,0.14634585
7.6784343999999995,-1.0170857,0.025665842,-0.37358773,0.07189011,0.29539698
6.6872544000000005,-1.2412212,-0.48305413,-0.31981415,0.11074114,0.36034068
6.8228617,-1.0365937,-0.49687347,-0.3027797,0.10861184,0.32360148
7.1570253,-0.80780363,-0.21392672,-0.20324358,0.10276499,0.17722073
7.135171400000001,-0.8120748999999999,-0.27447128,-0.045134213,0.08360127,0.03933972
7.287576700000001,-0.9277148000000001,-0.5286109999999999,0.073548175,0.052726395,-0.049532442999999995
7.7799397,-0.8906813,-0.74044037,0.19278906,0.03195698,-0.07827802
8.231591,-0.7945015000000001,-1.2599151000000002,0.2582738,0.019181168000000002,-0.057002455
8.573024,0.013388377,-1.5657888999999998,0.13477433,0.012793263000000001,-0.023980823999999998
8.720391000000001,0.6187,-1.8702163,-0.04194026,-0.10056587,0.0015358897
8.875181,0.57878387,-2.2625493999999997,-0.07016224,-0.2554813,-0.03090978
9.172551,-0.28821399999999997,-2.8285387,0.01446878,-0.51419145,-0.06923721
11.490281,-0.34034055,-3.3130772000000004,0.07887143,-0.6392791999999999,-0.066566855
12.940412,-0.81215155,-3.397037,-0.17236872,-0.39334485,0.03775147
13.655042000000002,1.03894,-2.7563007,-0.29958576,-0.20863666,-0.04420919
13.943245999999998,1.0163865,-1.7251085,-0.44224897,-0.20170770000000002,-0.068696156
12.941427000000001,7.661445e-05,1.9152848000000002,-0.22080160000000001,-0.054262288,-0.084665924
12.372622,-0.39132747,3.6417627,0.16990781,0.002687807,0.027628561
12.265591,-0.67302924,1.4641021,0.033632495,0.17303194,0.19425514
11.313963000000001,-1.5528888,2.9470419999999997,0.14381513,0.033562682999999996,0.17029178
11.144444,-2.7759714,4.332748400000001,0.74160784,0.13788101,-0.026127578999999998
9.481432,-3.0337696,1.8712506000000002,1.1956902,0.16451474,-0.058590703
8.817145,-1.7955556000000001,0.34323275,1.0109819,0.16770868,0.013788101
9.794688,-0.25738627,0.22712354,0.562764,0.15652113,0.020717058
9.884347,1.3267612,-0.17210479,0.18800686,0.17090264,-0.123534404
8.755030999999999,2.1643584,-0.27890533,-0.014800391999999999,0.15865043,-0.22413518
7.750787700000001,2.3826616,-0.612207,-0.09730211,0.09424778,-0.17835520000000002
7.414842599999999,1.4049463,-1.4586242,-0.212808,0.03303908,-0.050056044
7.085563700000001,0.10355401,-1.6442516,-0.3549476,-0.030822514,0.052656583
6.786614,-0.559659,-1.7711251000000001,-0.42469096,-0.0712967,0.08566076
6.770908,-0.37724957,-1.4196754999999999,-0.39859828,-0.07023205,0.11121238
7.388133,-0.0029783868,-1.6303748,-0.33046064,-0.12665854,0.10321877
7.963048,0.48939398,-1.2737247999999999,-0.17076302,-0.10002482,0.10908308
8.147775,0.8309125,-1.2205831,-0.032358404,0.010663961999999999,0.14421655
7.864378,0.74963415,-2.2726433,-0.0046774824,-0.0074001959999999995,0.1868026
7.9672427,0.5452842,-2.5143235,-0.07068583,-0.14261085,0.1995784
9.276342999999999,0.16727809999999999,-2.6165943,-0.10210176,-0.31669,0.15912166
11.612960000000001,-0.7265062,-1.57187,0.046408303,-0.25813420000000004,0.06914994
12.445453,-0.14134409,-2.0156975,0.39241982,-0.10588913,0.015934857
12.636654,-0.01046745,-1.5168992000000001,0.38336158,-0.04893903,0.0760789
14.315133,-0.3289729,0.38643375,0.39720201,0.1852667,0.123447135
12.542236,0.34804029999999997,-1.342017,0.036826447000000005,0.04314454,0.073426
12.474471000000001,0.712208,1.2538052,-0.46832418,-0.044662975,0.044680428
14.368820000000001,0.6003316999999999,3.4197245,-0.26338765,0.17409660000000002,-0.08520697
11.977684,0.93808657,1.7443388,-0.41617376,0.27682668,-0.11128219
11.519097,2.1661202999999998,1.3876793,-0.91708326,0.25713935,-0.016528267
11.287139,1.4438281000000002,1.1576349,-1.1300135,0.2555511,0.03403392
10.339446,-0.43355164,1.3862332,-0.9916088,0.10702359,0.03509857
9.932729,-1.075552,0.9398008,-0.72277576,0.016004669,0.03668682
8.499502,-1.3791177,0.3570521,-0.50028116,0.04740314,0.10588913
6.826108500000001,-1.8503634999999998,0.0093182335,-0.36878806,0.09105383,0.17722073
6.086961,-1.8827428,-0.31283596,-0.28841567,0.09264208,0.18306759
5.901209,-1.6307578,-0.20713675,-0.16118115,0.07082546,0.124511786
6.388602,-1.384471,-0.23880725,-0.05045747,0.03303908,0.059044488
7.02951,-0.98259956,-0.5417791000000001,0.066636674,-0.010611602,-0.01972222
7.1407929999999995,-0.629857,-1.0676032,0.15126769,-0.078749254,-0.07030186
7.576164200000001,-0.7133284000000001,-1.7264589,0.23804545,-0.16231562,-0.07988372
8.744113,-0.58211666,-1.6978242,0.19652407,-0.13995795,-0.08147197
9.520437,-0.21688594,-1.4288404,0.14435618,-0.024975661,-0.07508406
9.499675,0.14713806,-1.2570325,0.07408923,0.003228859,-0.08785988
9.142681,0.38346493,-1.9309332,0.18535396,-0.17296213,-0.13416345
10.429794000000001,-0.42870575,-2.9140596000000003,0.28543115,-0.4550946,-0.19697785
12.382725,-0.13494678,-4.1436543,0.18374826,-0.5136504,-0.18793705
13.160889000000001,-0.31246245,-4.070209999999999,-0.1409528,-0.21395992,-0.12246975
13.8444805,1.2418723999999999,-2.2817605,-0.2750988,-0.02284636,-0.20444787
13.899251000000001,0.39712146,0.92861503,-0.104754664,0.04527384,-0.258204
12.429497999999999,-0.698743,3.1525792999999998,0.43926448,0.002687807,-0.28588492
12.247549000000001,-1.5335245000000002,2.7281353,0.6213198,0.08518952,-0.10224139
11.699678,-1.5806903,1.6538666000000002,0.35302776,0.07934267,0.08620181
10.882211999999999,-1.2231401000000002,3.4584242999999995,0.8039161,0.11608185,-0.011728613
9.4673815,-2.0755525,1.9201498,1.2170006000000002,0.25235716,-0.07241371
8.37395,-2.155586,0.35788527,1.1728089,0.28375563,-0.028763026
8.620841,-0.50638324,-0.04882256,0.80976295,0.26991516,0.068626344
9.606897,0.8188456999999999,-0.22095609,0.492497,0.2470339,0.006876597
8.895533,2.0024145,-0.15284584,0.26518533,0.24755749999999999,-0.10915289
7.794256699999999,2.0290953999999997,0.022620419,0.23113395,0.20551252,-0.17142624
7.450880499999999,1.2960867,-0.6585778,0.23750441,0.104353234,-0.1150172
7.1545067,0.37541083,-1.5602437,0.13583897,0.021327923999999998,-0.017592918
6.714078999999999,-0.20607373,-1.4839836000000002,0.092729345,-0.03933972,0.07501425
6.983283,-0.42404184,-1.7216799999999999,0.10602875,-0.122382484,0.13782865
7.621931599999999,0.34038845,-1.8622292,0.13690363,-0.17189747,0.09417797
8.353657,0.7527944999999999,-1.8141058999999997,0.18907152,-0.19052014,0.08566076
8.666847,0.81990874,-1.5295597,0.24336872,-0.08566076,0.12931144
8.2135,0.92783934,-2.2583642000000004,0.21249384,-0.04839798,0.18999654
7.903575999999999,1.3714083000000001,-3.2136796000000003,-0.050981067000000005,-0.21235421,0.23631757
9.189751,1.5702227,-2.8353669999999997,-0.31714377,-0.39706240000000004,0.24642304
11.883907,1.0423206,-2.2738403999999997,-0.42573816,-0.34756488,0.19479620000000003
12.84401,0.59516025,-1.7283071,-0.23890066,-0.2703864,0.06223844
12.74242,-0.6417035,-1.2992375,-0.0935671,-0.13941689999999998,0.06756169
14.176184,-1.399497,0.28136659999999997,-0.082920596,0.047944195999999994,0.064908795
12.3989105,-0.19990626,-0.43928809999999996,-0.30916762,3.4906585e-05,0.018587757
13.004806,0.8181849,1.7125437,-0.5550845,-0.035604715,-0.014381513
13.733379999999999,0.7527562,2.8427026,-0.26232300000000003,0.25075147,-0.13522811
11.394858000000001,0.93885267,1.043374,-0.41296235,0.16505578,-0.20230111
11.260094,1.9723817,0.8100638000000001,-0.9649924999999999,0.24649285,-0.116605446
11.168041,1.0976266000000001,0.93344176,-1.2061273000000001,0.33272958,-0.05539675
9.801219999999999,-0.68580467,1.3069948,-1.0964682,0.23052308,-0.017051866000000002
9.450488,-1.1789528,0.91153,-0.8681093000000001,0.09904744,0.03509857
8.124388,-1.5047556999999998,0.50490844,-0.61844,0.12938125,0.14582226
6.838222999999999,-1.5835537,0.21798727,-0.43106142,0.15706217,0.23684117
6.5911894,-1.4627423000000002,-0.18895997,-0.34590679999999996,0.16557938,0.24801129
6.867145,-1.1345163999999999,-0.15968367,-0.23303635,0.15706217,0.13569935
6.943463,-0.79524845,-0.21321803,-0.06908013,0.14269812,0.023387412000000003
7.4013586,-0.71341467,-0.6610774,0.048537605,0.086795226,-0.07613126
7.884258999999999,-0.85156965,-1.0631597,0.13318607,0.03303908,-0.12245230000000001
8.383602999999999,-1.1703241000000002,-1.1921114,0.21249384,0.014940018999999999,-0.12405799999999999
9.150208000000001,-0.79315114,-1.0959506,0.20078267,0.03303908,-0.114476144
9.261567,-0.0377805,-1.1936818,0.19652407,0.015463616999999999,-0.13257521
8.932317,-0.040232167,-1.5981488000000001,0.28808406,-0.0824668,-0.1804845
9.016161,-0.61964816,-2.2696552000000003,0.32960543,-0.30126128,-0.23371704
11.274832,-0.18493772,-2.7213743,0.39296088,-0.5179090000000001,-0.27576202
12.782595,0.18272547,-3.399891,0.24497442,-0.39653879999999997,-0.16238543
13.162045999999998,0.75881827,-2.5582523,-0.121789075,-0.12398819,-0.16503833
13.1045,1.8774755,-1.6146784,-0.2213252,-0.18786724,-0.21933553
12.029330999999999,0.15431108,1.308977,0.10070549999999999,-0.14634585,-0.24755749999999999
12.688436,-1.0143466,3.9147781999999998,0.5233719,-0.05105088,-0.23317600000000002
12.807217,-0.8490796999999999,0.55203587,0.32375857,0.08414232,0.03190462
11.5605755,-0.7469621999999999,3.3094667999999996,0.34663984,0.029304077999999997,0.16550957
10.540137,-2.413164,2.5645444,0.7634594,0.12405799999999999,-0.0016231562
8.629439999999999,-2.816769,0.7297431,0.92739815,0.2816263,-0.002687807
8.457489,-1.2297865,0.7362361999999999,0.7586596999999999,0.36466908,0.08726646
9.551160000000001,0.48064077,0.56847924,0.54307663,0.36733943,0.05372123400000001
9.253675,1.8434396,0.05917509,0.31841788,0.31995377,-0.040491637000000004
8.301138,2.0721338,0.14937903,0.16564920000000002,0.23371704,-0.09796533
7.780677000000001,1.6061454,-0.18060899,0.09484119,0.14854497,-0.06817256
7.538575,0.8599877,-0.9678991,0.055990162999999996,0.0543321,0.0015533429999999998
6.874510000000001,0.13854767,-1.2077598999999999,0.038955748,0.03143338,0.053197637
6.777410499999999,-0.26212677,-1.50647,0.07515388,-0.04520403,0.11068878
7.555727,0.15298949,-1.8032839,0.10231119999999999,-0.088854715,0.14955726
8.518225,0.86408657,-1.9173533999999999,0.12519246,-0.10108947,0.12772319
8.960587,1.1581136,-1.5332947000000001,0.18322466,-0.068626344,0.107477374
8.757779,0.65213263,-1.7939273999999998,0.15233234,-0.038816124,0.13835225
8.443105000000001,0.69369596,-2.3186216,0.01605703,-0.08726646,0.1931905
8.707836,1.0856459999999999,-2.4356885,-0.17449802,-0.21076596,0.21767746
10.832115,1.4076086,-1.8167490000000002,-0.2926568,-0.29539698,0.19373155
12.929101,0.622866,-1.328849,-0.1499936,-0.21022491,0.12292354
12.387571000000001,-0.012459426000000001,-2.1926674999999998,0.01818633,-0.20011945,0.0739496
12.8205385,-1.3151158,0.12569559,0.0155334305,-0.027646014,0.14793411
12.754736,-0.404984,-0.6241684000000001,0.020856684,0.06602581,0.15486306
10.737822999999999,1.6209704,-0.5878914000000001,-0.29586822,0.010663961999999999,0.1436755
11.433625,0.5567573,2.2633731,-0.6450737,0.03408628,0.10534807
13.310881,-0.85576427,3.5412447,-0.29054496,0.22094123,-0.10808824
11.95127,-0.6791297,1.9450111,-0.37517598,0.19484855,-0.16612044
10.773506,1.395111,1.46551,-0.7089526999999999,0.24116959999999998,-0.025045475
10.486412,0.6997102,0.81769645,-0.8888787,0.29440212,0.06330309
9.76592,-0.47665682,0.51835424,-0.8888787,0.28269097,0.031887166
9.424431,-0.7951431,0.25045264,-0.76483816,0.15866788,0.043074727
8.312122,-1.2568698,-0.23484245,-0.6078109,0.1719673,0.101630524
7.0943356,-1.3702590000000001,-0.35771290000000006,-0.54710835,0.20551252,0.15221016
6.954542999999999,-1.1723257,-0.26463590000000003,-0.5194449000000001,0.22945844,0.15273376
6.9374866,-1.0237128,-0.06937439,-0.42095596,0.22626448,0.08192576
7.3120259999999995,-0.9456043,0.007354988000000001,-0.283616,0.19326031,0.005270894
7.854389,-1.0048273,-0.08802043,-0.15479325,0.17941985,-0.08627162
7.909360400000001,-1.2498690000000001,-0.36671507,-0.027576202999999997,0.15067427,-0.12672836
8.062388,-1.265326,-0.6824624,0.074612826,0.106482536,-0.13470452
8.214085,-0.52916646,-0.71006274,0.060772362999999996,0.09105383,-0.15067427
8.327292,-0.12062945,-1.2304281000000001,0.07621853,-0.044139378,-0.1719673
8.769607,-0.614084,-1.6393003000000002,0.17523105,-0.16231562,-0.22839378
9.946883999999999,-1.4133068000000002,-1.9568098000000003,0.2247286,-0.29593801,-0.2757795
12.264892,-0.35136345,-2.1825063,0.23005185,-0.21128955,-0.22945844
12.936619,-0.08162312,-2.7306828,-0.046198864000000006,-0.034557517999999995,-0.10915289
13.605405,1.8024794999999998,-2.2884834,-0.283616,0.0591143,-0.13631022
13.738781,1.9117316999999998,-1.9952797999999998,-0.31290263,-0.0036826448,-0.17516124
12.262239,-0.6138637,1.0393325,0.035761796,-0.18202038,-0.24383995
12.978422,-1.8206658,3.0742316,0.25560346,-0.10908308,-0.15547393
13.427506,-0.66724485,1.1765202,-0.044069562,0.13151056,0.15112805
11.064142,0.36226186,3.4431207,-0.023841197,0.09105383,0.15165167
10.063117,-1.299726,3.7037440000000004,0.38603193,0.12299335,-0.034627332999999996
9.147516,-2.5799343999999995,1.9314505000000002,0.5973564,0.2459518,-0.09637708
8.260858,-2.1171349999999998,1.2721256,0.37857938,0.29972538,0.017523106
8.819597,-0.5136999,1.1743752,0.10602875,0.2353053,-0.016004669
8.993617,0.8825985000000001,0.9813354,0.01712168,0.21453588,-0.15440927
8.240592999999999,1.769248,0.85358083,0.09484119,0.21720622,-0.22095868
7.762797,1.6887261999999998,0.26621607,0.17788395,0.12884021,-0.18154915
7.6034102,0.8866495000000001,-0.6529371,0.153397,0.027174776,-0.09958848
7.1594005,0.152367,-1.2621944999999999,0.063442715,-0.012199851999999999,-0.058590703
6.624028,-0.13207375,-1.2304281000000001,0.0453262,-0.029251719,-0.020804325
7.100666,0.48030559999999994,-1.1329746,0.066636674,-0.100042276,-0.020263273000000002
7.7962675,0.74588,-1.3336756,0.11348130599999999,-0.12505284,-3.4906585e-05
8.207305,0.7988206,-1.3795103000000002,0.15978489999999998,-0.14316936,0.05956809
8.288085,0.9144318000000001,-1.0198629000000001,0.22685789999999997,-0.13836971,0.13622294
8.127472000000001,1.1280712,-1.5164298999999999,0.2311165,-0.17402677,0.20755455
7.936864999999999,1.177813,-2.3064398999999995,0.035220746000000004,-0.320425,0.28579766
9.4474535,1.4788697,-2.0323997,-0.13884094,-0.5780705,0.26663396
12.221604,0.87675667,-1.647431,-0.094125606,-0.67601836,0.14474015
13.846117999999999,0.14553873,-0.72505045,0.23911011,-0.5030039000000001,0.0074001959999999995
13.988679000000001,-0.8641249,-0.40575016,0.59042746,-0.30019662,-0.09958848
14.156618,-2.5778275,0.56016654,0.66921157,0.040474183999999996,-0.023998277000000002
12.776169,-0.10793061,0.6686239,0.5505118,-0.03244567,-0.11714649999999999
12.717597999999999,2.5345308999999996,2.6036272,0.57180476,-0.053197637,-0.17304939
11.048703999999999,2.6569414,1.5845305,0.5670050999999999,-0.11227703,-0.12301081
11.280693,1.607898,0.82160383,0.047996555,-0.12239994,-0.057526052
12.805435000000001,1.5284392,1.718625,-0.51253337,0.32951817,0.004729842299999999
10.708642,0.7214208000000001,1.6029754999999999,-0.6541145,0.40299650000000004,0.057438787000000005
9.761955,-0.031344887,1.1677958000000002,-0.5332854,0.23050563,0.0744732
9.624939999999999,-0.23003490000000001,0.20066282,-0.46888270000000004,0.11074114,0.17987363
8.077309,-0.44807008,-0.3067547,-0.42894956,0.1831374,0.25385815
7.039680499999999,-0.5416163,-0.29690018,-0.46727700000000005,0.2459518,0.27728045
6.743001,-0.37024894,-0.29735029999999996,-0.46994734,0.3066369,0.24268803
6.692914,-0.606978,-0.06879978,-0.38849282,0.30822515,0.15112805
7.128199,-1.1519941,-0.007268796700000001,-0.22560126,0.21827087,0.015917404
7.528347,-1.4920857,-0.38814798,-0.080808744,0.15280357,-0.10330604
7.3163643,-1.4519684,-0.8850598,-0.016406095,0.11712904,-0.13791592
7.4589534,-0.5545258000000001,-0.94965535,-0.0062831854,0.039409533,-0.14589207
7.8175664000000005,-0.1960085,-1.133913,0.0075398222999999995,-0.052132983,-0.15760323
8.395316000000001,-0.7805289000000001,-1.3415956,0.10655235,-0.15221016,-0.17783159
9.144366,-1.3624731,-1.4535295,0.23483405,-0.27677432,-0.21563543
11.247739,-1.3481462,-1.9942646000000002,0.42327726,-0.46947609999999995,-0.23054054
12.450864,-0.63729817,-3.389682,0.29180159999999994,-0.3954916,-0.06658431
12.832902,1.0560154,-3.3406487,-0.24317673,-0.144234,0.011641346
13.419012,2.7067406000000003,-2.7199664,-0.45078364,-0.24324654,0.014311700000000002
12.944433,0.38752547,0.058351482999999996,-0.30970868,-0.17776178,-0.0538085
12.700503,-0.77097124,3.1854854,0.037350047000000004,-0.11974704,-0.11503465
14.487745,0.6766493,2.7793999,-0.028640852999999997,0.06070255,0.129294
14.0053425,1.3670796,3.6630232000000005,-0.30438542,0.13629276,0.38055158
10.959037,-1.5808626000000001,3.62146,0.25986207,0.11765265,0.16390386
8.923717,-3.5396357000000003,1.6949034,0.5909685,0.17249089999999997,-0.042638395
7.571136,-3.2156236000000002,1.196057,0.5020614000000001,0.2778913,0.062220987
9.401953,-0.37448190000000003,0.7932852,0.25612706,0.28480282,0.09309586
9.5917,1.805726,0.31005868,0.02989749,0.16077973,-0.07297221599999999
8.480253,2.887972,0.41510668,-0.03450516,0.10328858,-0.17411405
7.625044,2.297112,0.44285070000000004,-0.03556981,0.08518952,-0.20765927
7.1907935,1.2060552,-0.5928235,-0.089867,0.027698375,-0.16720255
6.961553,0.33876997,-1.0291619,-0.17556266,-0.050544735,-0.042638395
6.86658,-0.20754856,-0.80561054,-0.17662732,-0.050544735,0.030822514
7.176418300000001,0.10317094,-0.7702241999999999,-0.12712978,-0.101124376,0.061156336
7.7181880000000005,0.73276937,-1.0082558000000001,-0.102119215,-0.16500343,0.07658505
8.242595,0.92416185,-1.3723756,-0.097843155,-0.2592163,0.089360856
8.599264,0.98677504,-1.662007,-0.06005678,-0.30551988,0.10267772
8.568264,1.0864408,-1.4330063999999998,-0.019600047,-0.22354177,0.13515829999999998
8.320742,1.0813747999999999,-1.6731448,-0.13405874,-0.091001466,0.22776547
8.059228,1.3411648,-2.5824244,-0.4603655,-0.21183062,0.29909706
9.175932000000001,1.6129066,-2.7183287,-0.76911426,-0.44127159999999993,0.28366837
11.933237,0.5230180999999999,-1.6113264999999999,-0.7866897,-0.4556531,0.18624409
13.392417000000002,0.12651919,-0.42884940000000005,-0.3709348,-0.2091777,0.04038692
13.374748,-0.9946184000000001,-0.31510568,-0.04782202,-0.0643852,0.0015184365
13.852735999999998,-2.0513327,0.6902675,0.08791223,0.050056044,0.049968775
12.499964,-0.3880618,0.8498171,0.014451326,0.030351276,-0.008028515
13.54985,0.10331459,3.2606537,-0.09040806,0.13042845,-0.05274385
12.054432,0.49010265,2.4997380000000002,0.15125023,0.23689353,-0.1251401
10.826255,1.0548853,1.2900341999999998,-0.11383037,0.03726278,-0.1272694
11.935747000000001,1.1351773,1.7182226999999999,-0.5066691,0.26563909999999996,-0.09161233
10.654782,-0.0060812719999999995,1.7978922,-0.60037583,0.30024898,-0.012287118
10.330722,-0.96210515,1.9456911,-0.37519342,0.08943067,0.05742133
9.934280000000001,-0.99415874,0.93165094,-0.12233013,-0.023928462999999997,0.08990191
8.146444,-1.2632191000000002,-0.023836672000000003,0.025621433,0.04045673,0.20273745
7.311700999999999,-1.2710242,-0.29101044,0.10494665,0.1229759,0.27515116
7.123612,-0.92276365,-0.22812912,0.13103932,0.1810081,0.25811675
7.131532000000001,-0.61833614,-0.19888155,0.22685789999999997,0.15491542,0.17133898
7.2971725,-0.6342049,-0.39432502,0.3615275,0.114458695,0.088296205
7.5754456999999995,-1.0100466000000001,-0.8236054,0.45574036,0.08464847,0.015899949
7.636009,-0.9696421000000001,-1.2573868000000001,0.4823741,0.052708942,-0.027733281000000002
7.755298,-0.12298535,-1.7801846999999997,0.41156608,-0.012758356499999998,-0.07138397
8.198714,0.2524159,-2.0298138,0.27422613,-0.010629055,-0.110776044
8.662347,-0.05473145,-1.7268611,0.15285593,-0.0084823,-0.15069173
9.148676,-0.23082978,-1.29081,0.13103932,0.0026703537,-0.17359045
8.661399000000001,-0.28509194,-1.8305011999999998,0.16084954,-0.11761774,-0.16240288
9.661303,-0.14346057,-2.1959619999999997,0.27316147,-0.30180234,-0.17571975
11.310869,-0.24589409,-2.4886866000000003,0.29658379999999995,-0.32683036,-0.14484487
12.686923,-0.040902544,-2.9044537999999998,0.17414895,-0.19053759,-0.119816855
13.178165,0.63080513,-2.577703,0.12623966,-0.05215044,-0.20340067
13.620460000000001,0.61523324,-0.9550854,0.0043458696,-0.026581364,-0.21511184
12.587256,0.40987775,1.610838,0.16510814,0.017575465,-0.21509437
12.1346855,0.8906909,3.3575232,0.3402345,-0.029251719,-0.118752204
13.0486965,0.31344888,0.91945964,-0.089867,0.20547761,0.09468411
11.9186325,-0.106666476,3.0196533,-0.11489502,0.20176005,0.0888198
10.192654,-1.5047749,3.5233839,0.38227946,0.19963075,-0.09213593
8.969819000000001,-2.7094798,1.0934607,0.66921157,0.22357668,-0.14112732
8.366988000000001,-2.241509,0.062325858,0.44350561,0.19111355,-0.019739674
9.715403,-0.4872009,0.21164744,0.15177383,0.16343263,0.02867576
9.879567999999999,1.214952,0.17280391,-0.11435397,0.21612412,-0.035185836
8.864628,2.2245486,0.24907359999999998,-0.2879095,0.22038272,-0.13102187
8.150514,2.321552,0.02453578,-0.34060100000000004,0.11391764,-0.15549138
8.032452000000001,1.4813213,-0.46793234,-0.34379494,0.05164429,-0.08257153
7.440346000000001,0.39804083,-0.67864126,-0.36348227,0.044191737,0.010035643
6.678242699999999,-0.25238717,-0.65612614,-0.32676053,0.045779984,0.104265966
7.046815400000001,-0.027657817999999997,-0.9716437,-0.29162705,0.0016057029000000002,0.13140585
7.6699589999999995,0.35582626,-1.0635905,-0.269793,-0.047350783,0.090425506
8.113672,0.34250492,-1.109205,-0.20645499,-0.085154615,0.088296205
7.945666,0.47151408,-1.3402454,-0.12341223,-0.114964835,0.12714724
7.7987766,0.9900310999999999,-0.92139417,-0.04888667,-0.07131415599999999,0.19315559
7.9353704,1.0276966,-1.8266418000000002,-0.09573131,-0.10697123,0.25918138
8.806516,1.0468790000000001,-1.9435171999999998,-0.2756573,-0.2523048,0.26555184
10.664023,0.64368594,-1.2240309,-0.38158134,-0.3161664,0.2027549
12.859765,-0.057230998,-0.36251086,-0.21176079999999997,-0.22195353,0.06700319
12.665595,0.27183765,-1.5047749,0.12943362,-0.11707669,-0.020280726000000002
12.042806,-0.5246079,-1.730845,0.079395026,-0.15488052,0.063268185
13.960158999999999,-0.605168,-0.24914062,0.16989034,-0.006894050600000001,0.026546458
11.75596,1.0195947,-0.9446849,0.14114478,-0.09313077,-0.09321803599999999
11.114189999999999,0.7733654999999999,0.79805446,-0.121806525,-0.061714843,-0.07990117
12.425936,-0.9648344999999999,2.9815953,-0.16545722,0.03726278,-0.20340067
12.097087,-1.2910302,3.7871292000000003,0.07991862,0.19537215,-0.40781364
10.53895,0.84409016,2.5640464,-0.030246556,0.104335785,-0.315189
11.155678,1.4767531,1.7596903000000002,-0.2713987,0.15330972,-0.11451105
11.079504,0.05111142,1.6363698,-0.29056242,0.16715018,-0.010175269
10.839844,-0.58235604,1.3222506,-0.12021828,0.054838244,-0.011222467
9.827414,-0.66441965,0.5505036,0.103340946,0.045779984,0.07552039599999999
8.120979,-0.78338283,-0.07216124,0.21141173,0.08677777,0.15749851
7.1954765,-0.7901536,-0.41421604,0.21779963,0.12616985,0.2091428
7.252161500000001,-0.52361196,-0.52385134,0.17627825,0.11498229,0.15910421
7.391130400000001,-0.32306399999999996,-0.29305990000000004,0.18373081,0.11658800000000001,0.05635668
7.541113,-0.2997445,-0.41887036,0.24919811,0.11072369,-0.055955257
7.439417,-0.4589589,-0.5069387,0.33595842,0.08304276,-0.14857988
7.416911,-0.5616606,-1.0471089,0.36843899999999996,0.03832743,-0.17306685
7.6655345,-0.27700913,-1.4816086000000002,0.38334409999999997,-0.02872812,-0.16561429
8.410485000000001,0.12102211,-1.2070512,0.34875170000000005,0.03354523,-0.19381881
8.503122,0.34901714,-0.9427888000000001,0.30243066,0.080389865,-0.22575834
8.55747,0.3281014,-1.273993,0.318924,-0.037768926,-0.20074777
8.50136,-0.27492140000000004,-2.138233,0.41315433,-0.32309535,-0.17519616
10.172704,-0.5699158000000001,-2.7410831,0.46692795,-0.57222366,-0.18584266
12.173356,0.5588354,-3.3203937999999993,0.32798228,-0.44607124,-0.09854129
13.456688,1.2115523000000001,-3.1003666,-0.057403877,-0.04202753,-0.077248275
14.180885,2.953056,-2.2630186,-0.22987731,-0.15009831,-0.18210766
13.841683999999999,2.3107686000000003,-0.30516493,-0.17503907,-0.11815879,-0.19594811
12.813566,-0.10712616,1.6119584999999998,0.0053930674,-0.16872098,-0.12781046
12.999251,-1.0881839,1.9158306,-0.00043633230000000004,0.11498229,0.10159562
11.6041975,-0.6483211,2.9366128,-0.11170107,0.15704472,0.32571334
10.655251,-1.4365306,4.0003567,0.31998867,0.21293017,0.09786061
9.680007000000002,-2.2963364,2.7261531000000003,0.770877,0.31407198,-0.043179445
8.807588,-1.896045,1.2420064,0.76661843,0.39285615,-0.0016406095
8.913689999999999,-0.40206307,0.5140255,0.42486548,0.35772267,0.079779
9.551686,0.97887415,0.5431676999999999,0.117181405,0.22251202,-0.02295108
8.842773,1.7721403000000002,0.43555316,-0.028117253999999998,0.1990897,-0.13100441
7.971484700000001,1.9244881,0.19330785,-0.049951322,0.11711159,-0.1767844
7.702453,1.4520451,-0.32332256,-0.051539574000000005,0.012252212,-0.095870934
7.3987727,0.7596419,-1.0544351,-0.122871175,-0.06970845,0.015899949
6.9236197,0.19703321,-1.325114,-0.160675,-0.09632472,0.09255481
6.7632747,0.20000203,-1.3945075,-0.17718582,-0.11550589,0.13353515
7.2344729999999995,0.44304225,-1.5757008,-0.17025687,-0.1351932,0.150587
7.982939,0.7317638000000001,-1.3730938,-0.1495049,-0.12082914,0.15482816
8.450161999999999,1.1674798000000002,-1.4082216,-0.08189085,-0.060144044,0.17877407
8.243715,1.0534201,-1.8326081000000003,-0.08667305,-0.09367182,0.2229658
8.174839,1.0180815,-2.1250265,-0.12554154,-0.16978563,0.24692918
9.263817999999999,1.0132357,-1.9722955000000002,-0.14896385,-0.3428001,0.18517943
11.53107,0.07720821,-1.2255726999999998,-0.04888667,-0.29647908,0.098401666
12.946684,0.375679,-0.60557026,0.22471114,-0.14851007,0.041434117
11.712338,0.9980181999999999,-2.8302433,0.37163296,-0.18097319,0.051557027000000005
12.578503999999999,0.38828203,-0.37671328,0.19596557,-0.16287413,0.11597713
13.558594,0.5311201,-0.34551203,0.21938789,0.02555162,0.05900958
10.826494,1.5695716,-0.4141873,-0.096272364,-0.09953613,-0.020821778
10.91325,0.31799787,2.0663588,-0.47687632,-0.04469788,-0.05009095
13.146428,-1.0777068,3.9809157999999996,-0.15961036,0.22090632,-0.22629939
12.179772999999999,-0.23838589,2.6734326,-0.22029546,0.26722735,-0.30986574
11.173356,2.0447056,2.0982687,-0.637115,0.24645795,-0.11025245
11.147336,1.3444878999999998,1.8484578,-0.7526209,0.26083946,0.052098077
10.819005,-0.278733,1.3685737,-0.61686915,0.14159857,0.058485985
10.038074,-0.6003316999999999,0.5378718000000001,-0.43641958,0.064420104,0.102136664
8.510036999999999,-0.91639507,0.13758998,-0.26874580000000003,0.06174975,0.21019000000000002
7.0854289999999995,-1.0887201000000002,-0.21384051,-0.18463838,0.11763519,0.26981044
6.799102,-1.0362009,-0.43151176,-0.16599827,0.09049532,0.24267058
6.84554,-0.9031216000000001,-0.20114169,-0.10585422,0.06866125,0.1478992
6.9801035,-0.7507833,-0.15771087,0.011780973,0.042586032,0.05529203
7.3027169999999995,-0.6757681999999999,-0.5216295,0.13953908,0.014905112,-0.047438048
7.312475999999999,-0.58517164,-1.0328586,0.27687904,0.0031939526,-0.12356931
7.628645,-0.71647924,-1.3799412,0.33810517,0.007993608000000001,-0.14058627
6.2706537,-0.4045818,-0.24120146,0.010210176,-0.014329153,-0.0021642083
6.7181587,-0.62289464,-0.06630981,0.16032594,-0.02391101,-0.044750242999999995
7.24971,-0.71490866,-0.49698842,0.23856905,-0.08513716,-0.051661745
7.6697006,-0.87274396,-0.9800617,0.29073694,-0.051068332,-0.068696156
8.270453999999999,-0.55710196,-0.8814684000000002,0.30564207,-0.010070549,-0.09211848
8.2814865,-0.10485646,-1.1850053999999999,0.40041342,-0.11918853,-0.115540795
8.083409,-0.19631496,-1.7120553,0.492497,-0.35075882,-0.09798279
9.128841,-0.7486956,-2.5387444,0.35568064,-0.5147151,-0.0037524579999999997
11.424183,-0.07183562,-2.7771494,-0.107948616,-0.48116982,0.068626344
12.586145,1.5105785,-2.7563581000000004,-0.19898498,-0.5440017,0.08299041
13.527679000000001,3.2052902999999997,-2.38428,-0.28628635,-0.5349434000000001,0.10588913
14.127896,1.8325218999999997,-1.7389662000000001,-0.07813839,-0.42901940000000005,0.08724901
13.212517000000002,-0.8023256999999999,2.1058056,0.13370967,0.039426986000000004,0.12292354
13.677710000000001,-0.68000114,5.1413183,-0.03874631,0.115540795,0.21022491
12.867894999999999,0.3144449,2.4622542999999997,0.18322466,0.0042935097999999994,0.182544
11.354329,0.011137826000000002,3.3003209000000004,0.54625314,0.17303194,0.086725414
12.079436999999999,-1.2283499,3.3828442,0.7331081,0.2603333,0.05745624
10.528875,-1.8286242,1.6263045,0.64100707,0.24914575,0.05318018
9.685915,-1.3007028,0.38993883,0.48450340000000003,0.21987657,-0.026651177999999998
10.153867,0.08019618,-0.25548047,0.32374109999999995,0.20390682,-0.11021754
9.250822,1.5762273999999998,-0.7763343,0.21888174,0.18421949999999998,-0.14854497
7.667584,1.995481,-0.64900106,0.13158037,0.17516124,-0.17249089999999997
6.865067,1.5363687,-0.7647463000000001,-0.021188296000000002,0.14215706,-0.16292648
6.587167,1.0233297,-1.0477505,-0.16170475,0.15386823,-0.11021754
6.479754,0.80034333,-0.81942034,-0.24102996,0.15386823,-0.022916173999999997
6.2936573,0.517138,-1.013456,-0.29532716,0.06976081,0.040421825
6.7294974000000005,0.5586821999999999,-1.397055,-0.35601225,-0.014852752,0.08300786
7.34837,0.7378834,-1.6573718000000002,-0.36507052,-0.012199851999999999,0.084596105
7.808660000000001,0.7575063,-1.0183018,-0.36878806,0.05644395,0.11121238
8.055158,0.30168858,-0.9265178,-0.48111746,-0.040945426,0.15166911
8.032384,-0.03476381,-1.8521450000000002,-0.60779345,-0.3044378,0.13782865
8.585405999999999,0.5341560000000001,-2.633526,-0.6514616,-0.631303,0.10321877
10.176152,0.8529296000000001,-2.7456515,-0.12871803,-0.50567424,0.010070549
12.870299000000001,0.69358104,0.10051817,0.35728636,-0.28475046,0.06330309
13.493501,-1.4441058999999998,-0.46434107,0.56862825,-0.0047472958,0.13304645
15.638542000000001,-2.9938247000000002,0.5099362000000001,0.23113395,-0.18732620000000003,0.06756169
13.158686,0.0564457,-0.7273968000000001,-0.028623400000000004,-0.05956809,0.0052883476
13.4024725,2.1808686,3.3218398000000002,0.16564920000000002,0.07243116,-0.043668135999999996
13.359779000000001,1.8921758999999998,3.6865726000000003,0.23804545,0.048467792999999995,-0.14002776
11.287569,1.1333958999999998,1.6977859,-0.26391125,0.07189011,-0.08093092
10.551486,0.96931654,0.60951585,-0.5418026,0.19538961,-0.025045475
10.869513000000001,1.517876,1.322241,-0.44544294,0.09798279,0.028710665
10.331708,0.5163430999999999,1.1890085,-0.26019368,0.0016231562,0.044139378
10.140066000000001,0.2545132,0.7995293000000001,-0.13456489,-0.021781709,0.10323623
9.181103,-0.41081628,0.10397539,-0.04939282,0.0005585053599999999,0.14953981
7.6418800000000005,-0.83399624,-0.009040506,0.035220746000000004,0.04420919,0.17509143
6.6037254,-0.7536371999999999,-0.063321844,0.15022048,0.05326745,0.15221016
6.4346559999999995,-0.61312634,-0.12080184,0.28595474,0.038885936,0.0766025
6.648602499999999,-0.38255513,-0.37776673,0.36315066,0.03197443,0.023387412000000003
6.9483852,-0.16526695,-0.70930624,0.42542399999999997,-0.019128809,-0.021851522999999998
7.438439999999999,-0.34490868,-1.3537103000000001,0.44191736,-0.06756169,-0.053791045999999995
7.9034320000000005,-0.56710976,-1.7646990000000002,0.3950902,-0.052656583,-0.061767202
8.28865,-0.23363577,-1.8851848000000002,0.33705798,-0.024975661,-0.08199557
8.080009,0.6702807,-1.8437077000000002,0.24017476,-0.13091715,-0.085730575
7.9037004,0.8453447000000001,-2.0192218,0.14116223,-0.2964616,-0.055920347999999995
8.294108,0.4369514,-2.8212697999999996,0.09325294,-0.5519778000000001,-0.056985
10.427246,0.044857762999999995,-3.662803,-0.14414674,-0.42261404,-0.010663961999999999
12.939071,-0.41487685,-2.9167888,-0.34855970000000003,-0.30550244,0.023387412000000003
13.73112,1.0618669,-2.6550643,-0.41083306,-0.22991222,0.04626868
14.852717000000002,2.8950686,-0.8377599,-0.29000390000000004,-0.23045327,0.06543239
14.076067000000002,1.6867151000000002,1.3520153,-0.13934709,-0.16816248,0.028710665
13.605981,-1.034094,2.8779645,-0.37304667,-0.0031590459999999996,0.107477374
12.638292,-2.6317255,1.131902,-0.13243559,0.008011062,0.14634585
