accx,accy,accz,gyrx,gyry,gyrz
-7.015394000000001,0.9621626,-1.2919878,-0.04017748,0.38655552,-0.20093976
-7.0622435,0.49801308,-1.4279879999999998,0.049759335999999994,0.98169535,-0.29942867
-6.8349667,0.3686879,-1.8596914,-0.03911283,0.9034521999999999,-0.43198645
-6.579793,0.6523338000000001,-2.105959,-0.14292501,0.2827608,-0.3622431
-6.873696000000001,0.7768227,-2.2500036,0.081716314,0.3839026,-0.026337017999999997
-7.4325595,0.8601025999999999,-2.174845,0.42027527,0.3147003,0.033789575
-7.492175,0.5658169,-1.6737672,0.42079887,0.43713516,-0.038048177999999995
-7.029989200000001,0.15477076,-0.82920784,0.0652055,0.12678072,0.01675516
-7.8426,0.042099643,-1.357589,-0.17058848,0.10070549999999999,0.09714503
-9.260705,-0.2428391,-2.683316,-0.15728907,0.11454595599999999,0.13599606
-8.949527,-0.29747477,-3.9079692,-0.15995942,0.16884315,0.117355935
-8.244060000000001,0.9357498,-4.384291,-0.19933406,0.14861478,0.042847835
-11.4718275,1.2966806,-2.7296867000000002,-0.21903881,0.052255157,-0.025272367999999996
-16.187466,-0.5510016,0.23913285,-0.23979078,-0.009477138000000001,-0.0652055
-17.183407,-1.8306448,3.7153606,-0.21530381,0.06717772,-0.060405847
-11.503516000000001,-0.97319514,1.1702953999999999,-0.10564478,0.019268433999999997,-0.038048177999999995
-13.168510999999999,1.6708846000000002,0.9195458000000001,0.057229348,-0.13084733,-0.03911283
-14.656853,2.4380634,-0.2380411,0.25844836,-0.21174334,-0.045500733
-12.773008,1.6663357,-0.16789101,0.43730968,-0.23303635,-0.033265974
-12.05742,1.9476639,-0.16417520000000002,0.5842315,-0.22664845,0.006126106
-11.047068,1.3860799,-1.1489869,0.6454401999999999,-0.32194343,0.06839945
-9.753422,-0.0056982003,-1.6595936000000002,0.56826174,-0.45821875,0.11044443400000001
-8.336304,-1.185714,-1.7568172999999998,0.49693015,-0.24209462,0.1328021
-7.2495947,-1.2434334999999999,-1.8628517,0.37184238,-0.059498273,0.12482595
-6.902292,-0.6201939999999999,-1.7878462,0.31700414,0.2311165,0.16313593
-6.8315477,-0.09838254,-1.3960973,0.25631905,0.587792,0.19189896
-6.8194427,-0.4885608,-1.3312144,0.24673720000000002,0.7597244000000001,0.20254546
-7.061947,-1.1237137,-1.5663251,0.29729939,0.32854077,0.18870499999999998
-7.0793095,-1.0645195,-1.9844197000000001,0.26483625,-0.13082989,0.12376129599999999
-7.206192999999999,-0.50727385,-2.3912424999999997,0.22811453,-0.33524284,0.02316052
-7.5580354000000005,0.060908493,-2.4619767999999995,0.013578662,-0.29691540000000005,-0.11470304
-7.3653307,0.05719269,-1.6785748,0.07161086,-0.3363075,-0.19455186
-7.3097663,-0.76737034,-2.3060758,0.12643164,-0.37037632,-0.083828166
-8.777756,-0.7118249,-2.7769003,0.042324234,-0.23729496,-0.06679375
-9.65842,0.03161304,-4.173323,-0.08328711,-0.12124802,-0.09820968
-9.292366000000001,-0.07548439,-4.864884,-0.017278758999999998,0.0400204,-0.071593404
-10.132817,-0.36635116,-3.2831113,0.082780965,0.048537605,-0.016214108
-14.657753,2.4033667999999997,-1.8254543999999997,0.125367,0.05440191,0.041783184
-16.733297,3.6181462,1.5188528000000001,0.10033898,0.040561453,0.082763515
-12.92325,2.7262776,1.0395337,0.042865288,-0.060562924000000004,0.072117
-11.829463,0.14030979999999998,0.17423084,-0.022602014,-0.1515993,0.066811204
-13.407865,-0.01388637,1.5827876,-0.16154768,-0.23198916,0.06679375
-12.637238499999999,0.3656042,0.49142426,-0.35103807,-0.27296948,0.05668829400000001
-11.464549,-0.5318863,-0.0141257895,-0.47081999999999996,-0.3836932,-0.0029146996999999996
-11.112802,-1.3577422,-0.8939565999999999,-0.5618564,-0.59449404,-0.09342747
-10.126638999999999,-0.08220731,-1.1582478,-0.541087,-0.67221355,-0.112573735
-8.603986,1.401738,-1.5702708,-0.44685665,-0.40018654,-0.112573735
-7.268317,1.6851061999999999,-1.7882771000000002,-0.40215877,-0.04246386,-0.10725048
-6.5843897,1.3205075000000002,-1.7442620999999998,-0.30419344,0.4706804,-0.11470304
-6.324906299999999,0.8730600000000001,-1.7779150000000001,-0.15090117,0.8869589,-0.16741198
-6.266765599999999,0.5927277,-1.9220939,-0.16900024,0.7373666999999999,-0.27387705
-6.0232944,0.33048603,-2.3157674999999998,-0.064664446,0.40893063,-0.20680407
-5.8797574,0.31189743,-2.4971907000000004,0.20043361,0.30831242,-0.017819813
-6.364765,0.65174,-2.4601572,0.28560567,0.35302776,-0.08915142
-7.073841000000001,1.0512748,-2.0120776,0.11952015,0.23272221,0.016772615
-7.233611,1.2551267,-0.87904555,-0.18816395,-0.07972664,0.036983527
-7.3969054000000005,0.60695887,-0.94524044,-0.15461873,0.005410521,0.10246828
-9.113078999999999,-0.31628364,-2.3161604,-0.049741883,0.010751228,0.19935150000000001
-9.677852,-0.28289887,-3.6365529999999997,-0.006632251,0.057595864000000004,0.14664257
-10.010052,0.22835897,-4.1383395,-0.017802358,-0.0030717794,0.042847835
-14.982798999999998,-0.51068324,-1.7126874,-0.050282937,-0.04300491,-0.02953097
-18.293665,-1.8278293999999997,1.6647938000000002,-0.07583456,-0.071750484,-0.086498514
-14.206723,-1.1325723,1.1670871999999999,-0.08541641400000001,0.020333085,-0.10192723
-12.914295,0.7097563,0.5179712000000001,-0.06944665,0.016598081,-0.097668625
-14.972848999999998,1.6871078000000002,1.015515,0.040735986,-0.061103977000000004,-0.07691666
-13.72998,1.3093313999999998,0.06943185,0.27921778,-0.16756906,-0.050282937
-11.843302,1.2186965,0.54085976,0.54325116,-0.2058965,-0.007173303000000001
-11.416368499999999,1.7996161,0.09539457,0.6960198000000001,-0.26232300000000003,0.03700098
-10.141867999999999,1.285035,-0.7692474,0.64385194,-0.5327443000000001,0.092886426
-8.682534,-0.5050616,-1.2504436,0.48576003,-0.47045349999999997,0.10726794
-7.2591333,-1.5550436,-1.3212258999999997,0.35639623,-0.15905185,0.11737339
-6.251346599999999,-1.6533781000000003,-1.3352941999999999,0.22970279,0.07621853,0.14398967
-5.867097,-1.1531433,-1.3687268,0.17859954,0.362086,0.21532127
-5.944621,-0.6301443,-1.1988821000000003,0.15304792,0.67348766,0.27174777
-6.555505999999999,-0.5183255,-0.9341122,0.23076743,0.7277848000000001,0.38088320000000003
-6.982593,-0.8335461,-0.96129113,0.22704989,-0.029164452,0.29197612
-7.1889925,-0.97346324,-1.6266781000000001,0.22598523,-0.55403733,0.106726885
-7.697108999999999,-0.74342835,-2.3493824,0.23663174,-0.2926568,0.0646819
-8.029588,-0.45493662,-2.5428338,0.11206759,-0.25432938,-0.083828166
-7.616281,-0.68930024,-2.3158636,0.11737339,-0.42947316,-0.1258906
-8.28524,-0.40117243,-2.5544505,0.07852236,-0.41456807,-0.086481065
-9.716666,0.34770513,-3.2533658,-0.019408062,-0.19151498,-0.10937978
-9.603661,0.46373770000000003,-4.134834,-0.073705256,-0.021711895,-0.11417944
-9.108433999999999,-0.21440555,-4.587712000000001,-0.027925268,0.06824237,-0.061470497
-12.100631,-0.21236569,-1.4348163999999999,-0.0023736479,0.056531213,0.015166911000000002
-16.277842,2.7529392,-0.20041384,0.002391101,0.11295771,0.08543386
-16.008955,3.3684790000000002,2.064482,-0.027925268,0.062378067999999995,0.07105235
-11.481519,1.6450752,1.449373,-0.037507123999999996,-0.076532684,0.040718533
-12.776734,0.33940205,1.6256917,-0.08274606,-0.15105824,0.041259582999999996
-14.172217999999999,0.5750681,1.6442803,-0.23499113,-0.21067870000000002,0.031677727
-12.250382,0.22847387,0.7364276999999999,-0.41332890000000005,-0.25699973,-0.0007853982
-11.518103,-1.2650675,-0.21074721,-0.57035613,-0.4182856,-0.07105235
-10.635168,-1.1642907,-1.1009688,-0.55599207,-0.6003409000000001,-0.09979793
-9.316384,0.80912524,-1.2196924999999998,-0.4394041,-0.36718237,-0.15781267
-7.7059298,1.8071817,-1.3506075000000002,-0.48466048,-0.11486012,-0.21210986
-6.6103334,1.6618633000000003,-1.3955323,-0.41332890000000005,0.35089844,-0.18816395
-6.155981,1.2653164,-1.5034821000000003,-0.18390535,0.9417796999999999,-0.1344078
-5.958057,0.8487062,-1.6160191000000002,-0.21423917,1.0956304,-0.25736624
-5.9036610000000005,0.36351642,-2.0247571,-0.332939,0.6532593000000001,-0.25310764
-5.7889595,0.26522967,-2.389375,-0.035901424,0.64102453,-0.021013765
-5.969444,0.30041486,-2.5230672000000003,0.2589894,0.27691394,-0.08489282
-6.5986977,0.6464153,-2.172987,0.33299136,0.42863542,-0.051347587
-6.936146000000001,0.90947104,-0.90269065,0.093968526,0.0155334305,0.046582837
-6.606828,1.3685256000000001,-0.45651679999999994,-0.05773549,-0.08346164,0.0646819
-8.284234,0.71997476,-2.0961618000000004,0.013055063,-0.013718287,0.13123131
-9.212753999999999,0.3827275,-2.8124208,-0.017278758999999998,0.030979594,0.1258906
-9.572602,0.33718020000000004,-3.5863989999999997,-0.11948524,0.07782423,0.017296214
-11.884769,-0.21677102,-2.7422228,-0.17802358,0.005427974,-0.06518805
-17.199696,-1.6962439999999999,-0.4219637,-0.16526523,-0.047263514000000006,-0.087545715
-17.862202,-1.5685084999999999,3.5612025000000003,-0.13065535,0.0421497,-0.10990338
-12.069496000000001,-0.50600976,0.35902490000000004,-0.088610366,0.04108505,-0.10192723
-14.134371,0.8031302,1.1013998,-0.021537364,-0.01425934,-0.07796386
-14.979926999999998,1.1361157,1.0658507,0.12217305,-0.061627574000000004,-0.047088984
-12.758958999999999,0.6769940999999999,0.44224736,0.3611959,-0.13350023,-0.006091199
-11.860617,1.2650484,0.5264849,0.51504666,-0.17182766,0.018378316999999998
-11.13729,1.5347886,-0.7455831,0.65503955,-0.2064201,0.05988224599999999
-9.777353999999999,0.25460900000000003,-1.5448443,0.6167121,-0.38528144,0.108873636
-8.4993105,-1.132716,-1.4054538,0.4458269,-0.22984241,0.12376129599999999
-7.3654646999999995,-1.4103668,-1.3548308999999998,0.34842008,0.0070162233999999995,0.14186037
-6.605085400000001,-1.0495702,-1.5359187,0.21108012,0.14435618,0.19830431
-6.255915,-0.8637130999999999,-1.4677126,0.13016665,0.36686820000000003,0.26855382
-6.411471400000001,-0.8021246,-1.4063923,0.12430235,0.6521946,0.3180688
-6.8242216,-1.1190307,-1.202167,0.091839224,0.6048264,0.35107297
-6.8361545,-1.1253802,-1.3668688999999998,-0.09019861,0.038955748,0.2701595
-6.856438000000001,-0.95281565,-1.8848879,-0.12374385,-0.28733355,0.10140363
-7.1295399999999995,-0.7409384,-2.4182396,-0.13226105,-0.23516566,0.046041787
-6.997801299999999,-0.49193183,-2.5559826,-0.014608405500000001,-0.23516566,-0.023143066
-6.884776,-0.8372427,-2.2892208,0.020507618999999998,-0.38741073,-0.0641234
-8.486277000000001,-0.13486059,-2.8527298,-0.16313593,-0.279881,-0.12376129599999999
-10.364653,0.028328192999999998,-3.4165449999999997,-0.30738738,-0.059498273,-0.16685347
-10.145497,-0.32820675,-4.4241014000000005,-0.28663543,0.1635199,-0.17112954
-9.931742,-0.6301156,-4.42526,-0.088610366,0.23698081,-0.09021607
-13.356677,0.8963508,-2.1617246,-0.009826204,0.12306316,0.040194932
-16.899014,2.9523094,1.1133899999999999,-0.052935835,0.040561453,0.07319911
-15.253632000000001,3.203825,1.8047683999999997,-0.13226105,-0.06642723,0.019425515
-12.1588955,0.85038215,0.14120044,-0.20837486,-0.19524999,0.0050614546
-13.554092,-0.36748123,1.7994915,-0.332939,-0.2750988,0.042324234
-13.268196,-0.0328676,0.46369940000000004,-0.49211302,-0.37091738,0.0694641
-11.359358,-0.3577608,-0.3553283,-0.60974824,-0.42627922,0.027419122
-11.044931,-1.5665357,-0.586522,-0.6725626,-0.55723125,-0.021554817
-9.914514,-1.0114449,-1.0703038999999999,-0.67682123,-0.57053065,-0.046565384
-8.67469,0.9743443000000002,-1.1557578000000002,-0.49103093,-0.24368288,-0.06305875
-7.294912299999999,1.6596607,-1.2035365,-0.28609437,-0.04087561,-0.072640605
-6.327655,1.2473791,-1.5166023000000002,-0.16739453,0.295013,-0.10725048
-6.123908,0.71447766,-1.5643331,-0.093392566,0.73790777,-0.16526523
-6.164083,0.2895356,-1.6594499,-0.15514232,0.9013228999999999,-0.33135074
-6.424974,0.08605718,-1.9587251,-0.3457148,0.29874802,-0.36381388
-6.531899500000001,0.09904333,-2.216686,-0.22486822,0.3993488,-0.1311964
-6.8436913,0.5851908,-2.32952,0.376101,0.12786283,0.1258906
-7.253186,0.9561101000000001,-2.2127689999999998,0.34363788,0.43713516,-0.0752935
-6.958804600000001,0.47942454,-1.4474194,0.17914059999999998,0.20451768,0.02581342
-7.2041816999999995,-0.050642155,-0.99256897,-0.039618972999999995,-0.07600909,0.13920747
-9.354194999999999,-0.27893409999999996,-1.9758866999999998,-0.04548328,-0.044069562,0.1860521
-9.4486885,-0.35759795,-3.5755296000000003,0.017313666999999998,-0.0073303827000000005,0.21427408
-8.929396,0.3955317,-4.7073836,0.00082030473,0.013945181000000001,0.1296256
-10.621348,1.1314806,-3.4439347000000002,-0.08433431,-0.046198864000000006,0.032742377
-15.481760999999999,-0.86176896,-1.7794759999999998,-0.11948524,-0.086655594,-0.03324852
-17.472664,-2.4890885,4.233619,-0.13278465,-0.036617007,-0.072640605
-12.221758,-2.0877821,2.0866425,-0.11894419,-0.01691224,-0.08381071
-11.483626,-0.3126157,0.22684583,-0.048153635,-0.10049606,-0.073705256
-15.211618,1.8696129000000001,1.0716159,0.084910266,-0.18673277,-0.05454154
-13.624108999999999,1.585833,0.20582473,0.2962522,-0.28042206,-0.036983527
-12.281403,1.7012143,0.21421403,0.51131165,-0.27775168,-0.0028972465
-11.4781475,1.7468096000000002,-0.59106135,0.6316172,-0.39966294,0.042865288
-9.878638,0.38810009999999995,-1.674064,0.5379279,-0.49174652,0.070005156
-8.574661,-1.0732823999999999,-1.8008226999999999,0.376101,-0.18992673,0.11098549
-7.412572999999999,-1.4624263000000002,-1.6752133000000002,0.26804766,0.0421497,0.17221163
-6.712403,-0.99825764,-1.7040396,0.2653773,0.2364572,0.2536487
-6.5591836,-0.40943724,-1.5737278000000001,0.25846579999999997,0.55372316,0.26909485
-6.629583,-0.22192334,-1.2869697,0.25366616,0.7027743000000001,0.29518753
-6.710822599999999,-0.7517027,-1.1954249,0.13603096,0.34824553,0.20415117
-6.786900999999999,-1.0856172,-1.3258898000000001,0.07534587,-0.087720245,0.10567968
-6.7454815,-1.0774674,-1.8148241000000003,0.13655455,0.040561453,0.09077457
-7.064705,-0.6248961999999999,-1.9728127,0.027419122,0.060789815999999997,-0.071575955
-7.011008,-0.46706090000000006,-1.7383723999999998,0.005602507,-0.19205603,-0.22010347
-7.1835437,-0.674121,-2.0192697,0.02157227,-0.31820843,-0.15620697
-9.326527,-0.37941393,-2.7300603,0.00720821,-0.14786429999999998,-0.118420586
-10.37353,0.23348254,-3.2614104999999998,-0.04602433400000001,0.10177015,-0.13226105
-9.901566,-0.023013067,-4.1163034,-0.018867008,0.1693842,-0.093392566
-11.772243,0.07984184,-2.389557,0.059376102,0.24284512,-0.029513517000000003
-15.291403,2.5655596000000003,-2.076855,0.08545132,0.19174187,0.041800637
-15.962363,3.4069300000000005,1.1094157,0.025830872,0.07834783,0.05084144
-11.769943,1.1062936,1.2942383999999998,-0.050265484000000006,-0.043528512000000005,0.021031217999999997
-12.5289345,-0.5329972,0.93873775,-0.109362334,-0.14892894,0.029007372000000003
-13.764811499999999,0.19330785,1.558223,-0.20251055,-0.19470893,0.05510004599999999
-12.578628,0.79805446,0.31630278,-0.3845833,-0.2756224,0.05510004599999999
-11.020826,-0.21185812,-0.1408844,-0.56875044,-0.4273264,0.01144936
-10.762291000000001,-1.2697409,-0.5344433000000001,-0.6608515,-0.6269571999999999,-0.035918877
-9.999087,-0.22435585,-1.0653527,-0.52297044,-0.56574845,-0.056129787
-8.457633,1.1836072,-1.2480303,-0.34358552,-0.12604767,-0.071575955
-7.074904400000001,1.7266217000000001,-1.5119863000000002,-0.24509658,0.096446894,-0.078487456
-6.2912436,1.4784003000000001,-1.7108103,-0.083269656,0.54681164,-0.088610366
-6.0615825999999995,1.0498958,-1.790384,-0.00715585,0.8305324000000001,-0.16632988
-6.083006,0.58507586,-1.9904053,-0.030578168,0.6383542,-0.29515263
-6.077786,0.25314373,-2.2902452999999996,-0.04335398,0.3434459,-0.23179717
-6.0884743,0.11401188400000001,-2.8220263,0.1850049,0.30298916,-0.03164282
-6.589724,0.2214828,-2.954627,0.30370474,0.31417670000000003,-0.014084807
-7.1289077,0.768443,-2.2721741,0.024766222,0.10389945,0.043388885
-6.616969999999999,0.8694687,-0.8126878000000001,-0.22914428,-0.007871435,0.062011547
-7.748709700000001,0.36434004,-1.3722031000000001,-0.17270033,-0.0030717794,0.10035643
-9.642992,-0.43232578,-2.7204356,-0.12374385,-0.00041887903,0.13121386
-9.925642,-0.1842865,-3.9961142999999995,-0.15088372,0.018203784,0.057229348
-9.954889,0.21592827,-4.286990599999999,-0.18601719,0.004363323,-0.006091199
-14.484785999999998,-0.24372016,-1.6053506000000002,-0.18921115,-0.049916416,-0.040701076
-17.880905,-1.8588965,2.6846662,-0.17482963,-0.022235493999999998,-0.052935835
-14.850487,-1.2337608,1.2235328,-0.15618952,0.03790855,-0.07262315
-13.596135,1.4419701999999999,-0.10106404,-0.11147418,-0.081855945,-0.10775663
-14.934245,2.1737819,-0.018722659,0.027436575,-0.18034486,-0.11522663400000001
-12.975922,1.1308388999999999,-0.145261,0.22279128,-0.23462461,-0.04602433400000001
-11.836186,1.4801146,0.43994892,0.41655773,-0.28255135,0.060423300000000006
-11.263186,1.7376446,-0.28290844,0.61245346,-0.3969926,0.15304792
-9.948512,0.6359383000000001,-1.0888255,0.60447735,-0.46886525,0.16901769
-8.672297,-0.90057415,-1.2650675,0.42933354,-0.30808553,0.125367
-7.352019,-1.5543158000000001,-1.3929848999999999,0.41071087,-0.01584759,0.16210619
-6.404997,-1.5816671,-1.5031085,0.29359928,0.22209315,0.21108012
-6.2026580000000004,-0.93294376,-1.4695323,0.12325515,0.42915902,0.21373302
-6.2959747,-0.57323897,-1.1239723999999998,0.1871342,0.4754626,0.2664245
-6.831414,-0.7618733,-0.9182816999999999,0.16369443,0.025115287000000003,0.15037757
-7.0828915,-0.99976116,-1.1682364,0.107808985,-0.21813124,0.16369443
-7.33253,-0.9534956,-1.7777714,0.046582837,-0.24900612,0.108856186
-7.6046643,-0.5105491,-2.1833299999999998,0.19458675,-0.32140237,-0.061994094000000007
-7.256931,-0.8247163000000001,-2.1738586,0.27495918,-0.46087164,-0.11255628599999999
-6.718264,-1.1818258,-2.5070642999999997,0.13283701,-0.38154644,-0.09552187
-7.9373918,-0.0056886235,-2.604556,-0.024190264,-0.32087877,-0.11416198
-9.739402,0.7645644,-4.2748184,-0.09711012,-0.16011651,-0.111491635
-10.241524,-0.07195055,-4.221141,-0.057176985,-0.06695083,-0.060388394000000005
-13.289773,1.4596202,-0.7071130999999999,0.023177972,-0.11859512,0.0066671576
-17.621727,4.021234,-0.31005868,0.050858892999999995,-0.010524335,0.07267551
-16.07014,2.328754,0.45832682,-0.00022689281000000004,0.030979594,0.07958701
-13.698214000000002,0.19553925,0.20974164,-0.0731642,-0.035011306,0.04499459
-13.239878,0.37515226,2.1508743999999997,-0.15247196,-0.124441974,0.027960173999999997
-12.681453999999999,1.1667902,1.1379926999999999,-0.27384216,-0.19418533,0.008255407
-11.052305,0.3934152,0.0017334020000000002,-0.41809362,-0.2718874,-0.013543755
-9.862713000000001,-0.78825736,-0.115084484,-0.50487137,-0.41135666,-0.056653388
-9.460478,-1.2179592,-0.7821857,-0.5527807,-0.50345767,-0.061453044000000005
-9.003204,0.521821,-0.74382097,-0.4308869000000001,-0.37995818,-0.077422805
-7.483671000000001,1.780156,-0.82151765,-0.30045843,-0.06429793,-0.13917255
-6.282682,2.00342,-1.1295077,-0.14076081,0.15234978,-0.17804104
-5.9084682,1.683976,-1.2762436000000001,0.030630529,0.5899213000000001,-0.17057103
-6.0534134,1.224184,-1.2539296,0.09983283,0.8842885,-0.24989624
-6.3160667,0.68543124,-1.6233836000000001,0.1269727,0.8614072,-0.3696782
-6.2804794,0.5379196999999999,-2.0904446,0.2414314,0.50316095,-0.22595033
-6.6970325,0.7147170999999999,-2.2392106,0.42242205,0.4398055,-0.07209955
-7.365062700000001,1.0765576000000001,-2.23402,0.44849727,0.5510703,-0.10883873
-7.594417599999999,0.8267849,-1.8535622,0.29785788,0.30353022,0.04818854
-6.970871400000001,0.32404083,-0.6958508000000001,0.039147735,0.024050636,0.10726794
-8.438469,-0.40797198,-1.274175,0.020525072,0.09485865,0.14507176
-10.058442999999999,-0.122755505,-2.1983464,0.07002261,0.13212143,0.1966986
-9.921313,0.050555962999999995,-3.2680182,0.1269727,0.14489724,0.13069025
-10.096377,0.062096015,-3.6583307,0.080145516,0.07675958,0.030089477000000003
-15.231154,-0.6248771,-1.0461895,-0.04707153,0.02565634,-0.041224677
-17.720129,-1.3899298,2.1268365,-0.16578883,-0.004660029,-0.09073967
-12.572116000000001,-0.42399395,0.8706275,-0.22860323,0.07302458,-0.103515476
-12.92596,0.66056025,0.66008145,-0.19186404,0.0070336769999999995,-0.092327915
-15.565845000000001,1.6914173,1.0730046,-0.08433431,-0.13667673,-0.06410594
-13.644392999999999,1.4830356000000002,0.14351802,0.15571828,-0.28998646,-0.027384216
-12.030643,1.5437333999999998,0.48931736,0.4485147,-0.31394982,-0.00022689281000000004
-11.546813,2.1407897,-0.23144269,0.5714732,-0.4124213,0.051923542999999996
-9.95011,1.607151,-0.8430846,0.49323004,-0.61631066,0.07480481
-8.353791000000001,-0.015571888,-1.4309856,0.3175452,-0.43690827,0.08864527
-7.053644,-1.1767501,-1.604144,0.23717280000000002,-0.04618141,0.13548991
-6.2385135,-1.1628063,-1.533668,0.12164945,0.11561061,0.17327629
-6.0526567,-0.7062321,-1.5000631000000002,0.092903875,0.36634459999999996,0.21266837
-6.150417,-0.2553847,-1.1401571000000001,0.13231342,0.6862809,0.2659009
-6.455946,-0.384844,-0.9216335999999999,0.20790362,0.74803066,0.3154159
-6.654109,-1.0232148,-1.0046933,0.07534587,-0.008918633,0.15784758
-6.9205165,-1.3742718,-1.7714986000000001,0.20470966,-0.18990928,0.14453071
-7.7891045,-1.1531337,-2.3006651000000002,0.31808627,0.12041026,0.1269727
-7.960433,-0.6463004,-2.370097,0.14720106,-0.10793116,-0.12000884
-7.5417643,-0.27563006,-2.198768,0.058852499999999995,-0.388999,-0.27438322
-8.965538,0.05146576,-2.8944464,0.01891937,-0.38102284,-0.20783381
-10.474048,-0.22643402,-3.696025,-0.026302112000000002,-0.1483879,-0.16631243
-10.282254,-0.5816091,-3.8919663,-0.040683622999999995,0.06291912,-0.14608406
-10.181764,-0.5667171,-4.2373443,0.005078908,0.17790142,-0.076358154
-13.895842000000002,0.93699473,-1.9092035,0.10515609,0.23486896,-0.039095376
-16.542248,2.7530924999999997,-0.63549775,0.15997688,0.1709899,-0.005026548
-13.925289999999999,2.7610794999999997,1.4345099,0.11154399,0.09698795,-0.0044854963
-11.041982,0.630173,1.2588712,0.039147735,-0.036599554,-0.010349803000000001
-12.449149,-0.2895356,1.2899288,-0.030560715,-0.14467034,0.0029496064
-12.962734,1.0163482,1.4002823999999998,-0.17802358,-0.22504276,0.0018849556
-11.706085,1.2637937,0.30930212,-0.35262632,-0.29850367,-0.00715585
-10.794747000000001,-0.51927364,-0.06019023,-0.4404513,-0.43052036,-0.028448867000000003
-10.448392,-1.0939202,-0.65614533,-0.46867326,-0.5859594,-0.032166417999999995
-9.340567,0.15729906,-1.2076354,-0.41809362,-0.66634923,-0.062517695
-7.6914880000000005,1.3246733999999998,-1.1047901000000002,-0.37870154,-0.37515852,-0.10403907
-6.6652949999999995,1.513643,-1.308594,-0.31375784,0.10869910599999999,-0.081140354
-6.1904187,1.1903396000000002,-1.6682893,-0.12531464,0.6564707,-0.025254915
-6.158289,0.72105694,-1.7563769,0.026389378999999998,0.8161683000000001,-0.06784095
-6.0887423,0.30043402,-2.065449,0.04712389,0.59417987,-0.17004743
-5.9991894,0.07936299599999999,-2.4411473,0.15413003,0.25881487,-0.1381079
-6.153434,0.03874776,-2.6728961,0.16905259,0.30672416,-0.053983033
-6.7862306,0.6435518,-2.5065854,0.23451988,0.38498473,-0.048677232
-7.8433470000000005,1.3353803,-2.0499443999999998,0.10782644,0.18057176,0.12538445
-7.6012745,1.3166577,-0.7665659,-0.20303415,-0.07918559,0.13496631
-8.312716,0.358163,-1.5514139,-0.16524777,-0.037664205,0.1248434
-9.657386,-0.5708255999999999,-2.7727826,-0.07475245,-0.035534903,0.15252432
-10.295488,-0.18662323,-3.7890732000000003,-0.11946779,0.026197392000000003,0.08332202
-10.789968,0.5395956000000001,-4.090187,-0.22432716,0.022462387,-0.028972466000000002
-15.092799,-0.24322216,-2.033405,-0.30736995,-0.019041541999999998,-0.067299895
-16.745888,-1.1849192,1.6279998,-0.3377212,-0.07705629,-0.082205005
-13.177052999999999,-1.12448,0.43652043,-0.35102059999999996,-0.008918633,-0.09871582
-13.092825999999999,0.5331216999999999,0.04153461,-0.38508946,0.0006457718,-0.11575024
-14.856089,1.6283348999999998,0.6165931,-0.3244218,-0.072797686,-0.12161454
-13.422536,1.0508438,0.65078235,-0.17215927,-0.13987069,-0.082205005
-11.807714,0.71399885,0.9931148999999999,0.040735986,-0.18992673,-0.0018325957
-11.468523,1.3501670000000001,0.32549652,0.25953045,-0.26124087,0.060440753
-10.359777000000001,1.4455423,-0.93285763,0.35376078,-0.34482470000000004,0.078016214
-9.074886,0.27411693,-1.5656451,0.2579422,-0.42093852,0.062028999999999994
-7.9191093,-0.8582926,-1.5752795,0.22759093,-0.19310322,0.092903875
-6.626288400000001,-1.0968795,-1.4382832,0.22706734,0.00010471976000000001,0.15413003
-5.95437,-0.9860376000000001,-1.7073817999999998,0.15147713,0.19067723,0.15519467
-5.870822,-0.63535404,-1.6909288,0.05831145,0.46057492,0.15997688
-6.114073,-0.56389195,-1.3498796,0.09559168,0.7278023,0.22013837
-6.657470699999999,-0.7545566,-1.1898896,0.22226767,0.48612654,0.26485372
-7.056804,-1.0758296999999999,-1.4707773000000002,0.13976596,-0.04511676,0.19565141
-7.346675,-1.1378013,-2.081184,0.15254177,-0.41667992,0.06843436
-7.626672,-1.3525037,-2.3769155,0.16479398,-0.29637435,-0.011938052
-7.428748,-1.2633723,-2.0801878,0.15732397,-0.30543262,-0.110426985
-8.061775,-0.56148815,-2.098853,0.17277014,-0.4225442,-0.109362334
-9.890763,0.17147273,-2.8881829,0.020001473,-0.31660274,-0.08166396
-10.538874,-0.39052305,-3.7661655,-0.13435544,-0.11006046,-0.121056035
-10.002247,-0.8466376,-4.499366,-0.10986847400000001,0.13744467,-0.115209185
-10.021908,-0.8433624,-3.9203615,0.015201817,0.2364572,-0.026843164
-13.245145999999998,1.0003549,-2.03171,0.06949901,0.16992526,0.04553564
-17.466160000000002,2.6629555,2.0504136,0.0029670596000000004,0.1709899,0.07588691
-14.414703,3.207895,2.31028,-0.071017444,0.051749012999999996,0.042341687
-10.656466499999999,1.0181582,0.9267859,-0.1348965,-0.06747443,0.03223623
-12.644105,-0.3639857,1.7023061999999998,-0.22380356,-0.13667673,0.06735226
-12.796519,-0.1138395,0.91236323,-0.35634387,-0.17287487,0.06735226
-11.308494999999999,-0.24497472,0.024191012999999997,-0.46759117,-0.30543262,0.03382448
-11.046109,-1.4083364,-0.40197688,-0.5357288,-0.56573105,-0.008203047
-10.182463,-0.5509824000000001,-0.78129506,-0.5730090999999999,-0.75258595,-0.028972466000000002
-8.807665,1.2280626000000001,-0.982226,-0.39945349999999996,-0.51836276,-0.03481932
-7.1795306,1.7912458999999998,-1.1419959,-0.22591542,-0.27721065,-0.0694292
-6.859943400000001,1.2740697,-1.4908407,-0.067282446,0.24816836,-0.12692034
-6.6031889999999995,0.6128581999999999,-1.5731916000000001,0.045012042,0.62985444,-0.16578883
-6.3742747,0.41982806,-1.8132151,0.06791076,0.591527,-0.26584855
-6.0915099999999995,0.38777447,-2.2244718,0.07482226,0.24710372,-0.2669132
-6.026876000000001,0.32777578,-2.7635984000000002,0.11847295,0.42118284,-0.21102776
-6.5801473,0.5098212999999999,-2.782474,0.16957618,0.42118284,-0.1934523
-7.220453,0.67125756,-2.4549186,0.06736971,0.15767305,-0.019390607
-7.976628,0.5574276,-1.3654802,-0.18812904,-0.0935671,0.025307272999999998
-8.556303,0.10322839999999998,-0.52727026,-0.1982345,-0.08025024,0.048205994
-9.549953,-0.5324513000000001,-1.4982913999999998,-0.07579965,-0.10951941,0.12060225
-9.9497175,-0.5987037,-3.1066682,-0.019373154,-0.045657814000000005,0.10782644
-10.285174000000001,0.07413407,-4.1928506,-0.09337512,0.0070336769999999995,0.037018432999999996
-14.429039999999999,-0.048899174000000004,-1.9576237,-0.17907079,0.01288053,0.0024085543
-15.79226,-0.9098254000000001,0.27085125,-0.26583108,0.026738444,-0.04173082
-12.986696,-0.3689848,0.58157074,-0.29831168,0.07251843,-0.06675884
-13.385714000000002,0.86486226,0.7358051999999999,-0.2802126,-0.004660029,-0.072082095
-14.797813,1.3474184,0.93656385,-0.19025834,-0.08344419,-0.06995279
-13.317124,0.4900165,0.5898259,0.027977629,-0.1627694,-0.06462954
-11.719742,0.28924829999999996,0.81052345,0.2792352,-0.19736183,0.0013613568
-11.371701,1.3641204,0.7897897,0.4288274,-0.27295205,0.081210166
-9.903002,1.7104177,-0.63929975,0.41818088,-0.5204746,0.08866273
-8.572219,0.35252225,-1.5452944,0.28349382,-0.44436082,0.081210166
-7.3421164,-1.0234542,-1.5218216,0.2446428,-0.14199999,0.15254177
-6.4331336,-1.3377458999999998,-1.5268399,0.28616420000000004,0.05974262,0.20523326
-6.12862,-0.9357785,-1.2189169,0.22654374,0.415336,0.19566886
-6.1435885,-0.5442020000000001,-0.97490937,0.21483257,0.78689915,0.21162117
-6.5121427,-0.7997878,-0.99056745,0.4607669,0.7688001,0.23717280000000002
-6.884173,-1.1000782,-1.1369585,0.43360959999999993,-0.054157566,0.065240405
-7.3029660000000005,-1.0273136,-1.548627,0.43680355,-0.2867925,0.03488913
-7.777678999999999,-0.8530253000000001,-2.2036233,0.25370106,-0.14039429,-0.02417281
-7.854715,-1.0064362,-2.184556,0.09665633,-0.32299063,-0.22326252
-7.771406,-1.4693406999999998,-1.6574962,0.058852499999999995,-0.41348594,-0.18654078
-8.934357,-0.73105514,-1.8002865000000001,0.04022984,-0.230366,-0.11466813
-9.781875,0.4345859,-2.8134648999999996,0.012007865,-0.06534512,-0.11466813
-9.330136,-0.3126157,-3.94167,0.084421575,0.050684362999999996,-0.0704764
-9.397941000000001,-0.6894534999999999,-3.6468768,0.19462167,0.18537141,-0.013508848
-13.595322,1.497487,-0.26135105,0.22708479,0.18643607,0.051940999999999994
-17.549307000000002,3.2919123,1.3382918,0.21163863,0.14224434,0.09133308
-14.032483,2.4568052000000002,1.7130896,0.1254019,-0.0030543262,0.06791076
-12.415899000000001,1.0160705,1.1232445,0.03757694,-0.12229522,0.04448844
-13.751634,0.6872315999999999,1.7537432000000002,-0.09922197,-0.2197195,0.03968879
-13.49509,1.0978756,0.72195715,-0.29937634,-0.3330961,0.0061610119999999996
-11.544371,-0.11123461,0.4550803,-0.48727846,-0.47949430000000004,-0.066217795
-11.305152,-1.5717263000000001,-0.091583,-0.55489254,-0.6285454,-0.09016371
-10.034807,-0.55240935,-0.67307717,-0.47823766,-0.6743254,-0.09283406
-8.355064,1.4450157,-0.8326938,-0.43669882,-0.39697513,-0.16043067
-7.044153,1.9185026,-1.1902629999999998,-0.4574857,0.024609142999999997,-0.18441148
-6.3027835,1.4961175,-1.4074458,-0.2653075,0.55693454,-0.15138985
-6.0123672,1.0223145,-1.4071106000000002,-0.009250245,1.0200577,-0.16149531
-5.9654217,0.5006467,-1.5987139,0.040770892,0.972672,-0.27862436
-5.926492,0.2954062,-2.0044065,0.059934605,0.2881015,-0.25200808
-5.965192,0.19072211,-2.4060674,0.15149458,0.49251446,-0.027890362000000002
-6.5467625,0.6168325,-2.3445747000000003,0.37454766,0.3738146,-0.08644616
-7.625264,1.36458,-1.838632,0.43362704,0.44566983,0.017872171
-7.194891999999999,1.6413497,-0.66316515,0.20313887,0.06452482,0.12114330400000001
-7.3390994,1.0980575000000001,-1.2340386,0.09187413,-0.006789331,0.11262609999999999
-9.581835,-0.37813064,-2.2678068,0.13765411,0.04642576,0.12381366
-10.262217999999999,-0.4778635,-2.9111483,0.100391336,0.10391690599999999,0.10091494
-9.717155,0.15337256,-3.6663942000000005,-0.023090705,0.043772858,-0.010314896
-12.87187,0.40723455,-1.9414388999999999,-0.109851025,-0.061086524,-0.082187556
-16.756211999999998,-1.2070703999999999,0.39439207,-0.12582079,-0.1547758,-0.09922197
-16.00816,-2.2895465,2.8498278,-0.12156218,-0.10206685,-0.101874866
-11.650625999999999,-0.73731834,0.29085720000000004,-0.049165923,-0.019024088999999998,-0.10293952
-14.288912,1.2337799999999999,0.87843263,0.056758105999999996,-0.091420345,-0.09442231
-14.747535000000001,1.8254925,0.8939758,0.20685643,-0.1680752,-0.09176941
-12.151512,1.214502,0.6090849,0.39690533,-0.22930136,-0.04918338
-11.659092,1.4310143999999998,0.45098140000000003,0.5315749,-0.27454029999999996,0.020542525
-10.883849,1.4607121,-0.63051784,0.56353194,-0.48108256,0.057805302999999995
-9.494409,0.64706653,-1.0846308,0.39264673,-0.54016197,0.059411008
-8.178583,-0.6895397,-1.1122695,0.26221827,-0.297439,0.06525786
-6.9926777,-1.3578188,-1.2809266000000001,0.18343410000000002,-0.0009250244999999999,0.10464994
-6.2454279999999995,-1.2094454,-1.5370106000000001,0.14138912,0.24127431,0.1749169
-6.282788,-0.5086338,-1.3236104,0.15575318,0.48295006,0.24837779999999998
-6.505132,-0.40736863,-1.1439209,0.23401375,0.7134381999999999,0.31599185
-6.9495535,-0.97899866,-1.0603728000000001,0.2515892,0.49998447,0.36229545
-7.2536364,-0.89162946,-1.3900831,0.17706366,-0.0073129297,0.25530675
-7.4745919999999995,-0.7315723000000001,-1.8451060000000001,0.19036306,-0.21544345,0.16374679
-8.033246,-0.6280374,-2.2931283,0.09189159,-0.12974778,0.070581116
-7.6337494999999995,-0.48903963,-2.3412514,0.19196877,-0.20746729,0.006178465699999999
-7.4760865999999995,-0.491453,-2.2800173999999997,0.22656119,-0.31925562,-0.0049916417
-8.788664,-0.30535647,-2.6217658999999998,0.08018043,-0.26548204,-0.062482785
-10.351925,-0.15153381,-3.3155289,-0.06140068,-0.116430916,-0.088558
-10.011709,-0.5712182,-4.19128,-0.08588765599999999,0.07093018,-0.08058185
-10.172714,-1.1752082,-3.5632522000000004,0.02427753,0.19921188,-0.024155356
-14.007420999999999,1.0682832,-1.6347897,0.119572505,0.1699427,0.05248205
-16.709862,2.5885246,2.0332518,0.13767157,0.09541715,0.092415184
-13.754295999999998,2.7875210999999998,1.0785973999999998,0.09506808,-0.004660029,0.07164577
-11.77615,0.44584823,0.740699,0.019495327,-0.16966346,0.04982915
-13.219009,-0.07309977,2.037322,-0.16360717,-0.29583332,0.07592182
-12.43465,0.029745562000000003,0.91269845,-0.3909014,-0.36236525,0.08656833
-11.113252000000001,-0.3281014,0.06706638,-0.48567277,-0.45924848,0.012042772
-10.683139,-1.4280169,-0.68054706,-0.51494193,-0.6232047,-0.04277802
-9.576673,-0.7009456000000001,-1.0703709,-0.38025490000000006,-0.56358427,-0.039043017
-8.340622999999999,1.0574901,-1.127372,-0.24186772,-0.24792401,-0.0864287
-6.786738400000001,1.6615186000000002,-1.2902927,-0.20566959999999998,0.036320303,-0.08803441
-6.2317047,1.3492667999999999,-1.3635073999999998,-0.07098254,0.37222636,-0.10239847
-6.161277,0.8124005,-1.2858013000000001,0.029600783999999998,0.8097979000000001,-0.16308357
-6.3176856,0.40748355,-1.4378043,-0.0853466,0.6229604000000001,-0.24078563
-6.3723884,0.37841794,-2.0517159,-0.16360717,0.44462264,-0.13219124
-6.5237110000000005,0.33616507,-2.458577,0.18505725,0.36370915,-0.0028448866
-6.9358106,0.57214713,-2.5198205000000002,0.29311058,0.54257053,-0.064594634
-7.754264,0.83113277,-2.2037668,0.17013470000000003,0.26256734,0.10358529
-7.46174,0.89009714,-1.102731,-0.014556046000000001,-0.022218041,0.14566518
-7.654598,0.59077406,-1.0023181,-0.015620696000000002,0.08370599,0.17919296
-9.47466,-0.18272547,-2.2834842,-0.010297443,0.11245156,0.22444934
-9.795033,0.1925034,-3.1835508,-0.00710349,0.13000958,0.15948819
-9.6235895,0.8664712,-3.8466394,-0.06033603,0.089029245,0.054087754
-15.237283999999999,-0.6863026999999999,-0.4656914000000001,-0.15880750000000002,0.009180431999999999,-0.03317871
-17.465854999999998,-2.0408463,1.9322069,-0.23706807,-0.016353736,-0.08695231
-13.205708,-1.0202938,1.0959603,-0.2583611,0.09222319999999999,-0.105574965
-13.044645,0.06581181,0.967449,-0.22907446,0.0315381,-0.08215265
-15.643676000000001,1.3437122,1.6690744999999998,-0.104510315,-0.08981464,-0.064594634
-13.598806,1.2232744,0.5921914,0.14885913,-0.22022565,-0.02094395
-12.159805,1.0800818,0.44314757,0.41074579999999994,-0.25111797,0.043441243
-11.694527,1.4503499,-0.30445626,0.54490924,-0.31232667,0.07752752
-10.153789999999999,1.015266,-0.96248823,0.44963172,-0.5273861,0.07272787
-8.56087,-0.41222405,-1.3676158,0.32133257,-0.27186993,0.08498008
-7.2045164,-1.2281871000000002,-1.4897871999999999,0.26169467,0.06986553,0.13925982
-6.2614408,-1.1674318000000001,-1.5347407,0.19409807,0.28651324,0.1781283
-6.1080008,-0.58023953,-1.4485781999999998,0.1776047,0.5835683,0.23137829999999998
-6.162713500000001,-0.18922812,-1.0903673,0.19038051,0.8433431,0.28354618
-6.546198,-0.6884574,-0.84200245,0.33997267,0.77520543,0.36285394
-7.076839,-1.0761266,-0.86264044,0.28886944,-0.06691592,0.23296654
-7.305686,-1.4001867000000001,-1.3018711,0.26384142,-0.47308895,0.037070792000000005
-7.7146444,-1.5693226,-2.1228428,0.15418239,-0.12227777,-0.03584906
-7.862386,-0.7977097,-2.276043,-0.004956735,-0.13772394,-0.17690657
-7.602682000000001,-0.5954284000000001,-1.8849357,-0.07524114,-0.36768850000000003,-0.15508996
-8.452375,-0.2631515,-2.2557497000000004,-0.16838937,-0.3879169,-0.08693485
-9.644247,0.41976099999999994,-3.080361,-0.27057838,-0.21490239,-0.13165018
-9.360111999999999,0.17219098,-3.8574324,-0.29560640000000005,0.047507863,-0.12367403
-9.272323,-0.419943,-4.058191000000001,-0.19978784,0.11725122,-0.07202974
-13.220417999999999,0.5674545,-1.2916143999999998,-0.094911,0.12576842,-0.0028274334000000004
-17.109627,2.5893770000000003,0.46578714,-0.050195668,0.13960889,0.0429351
-14.511497,2.9556322,1.3110264999999999,-0.0874759,-0.011030481000000002,0.018971728
-10.647293,1.3250469999999999,0.8257027,-0.16252506,-0.1776396,0.0035430184000000003
-12.641682000000001,0.5133168,1.3854959,-0.32328734,-0.24951227,0.015777776
-13.680315,0.63998926,0.58976847,-0.45689228,-0.32829642,0.016842427
-11.867589,0.22334072,0.090318866,-0.48884928,-0.44221407,-0.0251851
-11.104911,-1.3185826999999999,-0.551988,-0.46807986,-0.59232986,-0.065641835
-10.306148,-0.9059275999999999,-1.4384364,-0.34936255,-0.5651725000000001,-0.07735299
-9.05058,0.96959424,-1.348424,-0.26366690000000004,-0.28729865,-0.10876892
-7.399089,1.8531121,-1.311534,-0.27590165,-0.02432989,-0.14123204
-6.684228,1.4822981000000002,-1.279289,-0.19392353,0.32538173,-0.16358972
-6.577677,0.9236064,-1.3060370000000001,-0.030508353999999998,0.8247030000000001,-0.18114772
-6.5498080000000005,0.48785213,-1.5615079,-0.09916960400000001,0.84973097,-0.28815386
-6.2817050000000005,0.22573490000000002,-2.1040533,-0.13058554,0.47975612,-0.29454178
-6.2831035,0.19034861,-2.0635433,-0.016126841,0.57292175,-0.09810495400000001
-6.6693935,0.4215423,-1.9359324,0.18240435,0.40364229999999995,-0.13165018
-7.1798663000000005,0.6206154,-1.4743111,0.2606649,0.36957347,-0.047001716
-6.892945,0.63999885,-0.626237,-0.035831608,0.09967575,0.022183135
-7.1675982000000005,0.6732495,-1.0069821,-0.18807667,0.019303342,0.024836035
-9.222896,0.19666931,-2.1556625,-0.13962634,0.0028099802,0.048258353
-9.843167,0.06119580000000001,-3.1370169999999997,-0.1390853,0.049654618,0.044540804
-9.750261,0.41995254,-3.9444472999999998,-0.17156586,0.08372344,-0.039025564
-12.659628999999999,0.18283083,-2.2661787999999996,-0.19127063,0.0916996,-0.09810495400000001
-16.036285,-1.283656,-0.32238403,-0.20615830000000002,0.062430426,-0.11248647
-16.06129,-1.3510672,2.3340402,-0.23172736,0.09063495,-0.12793264
-12.206472999999999,-0.12782164,0.17260279,-0.2684491,0.10925761,-0.14016739
-13.314444,1.2446496,0.5022173,-0.24928537,-0.0136833815,-0.13643239999999998
-13.441842999999999,1.0040611,0.20461805,-0.10609856,-0.10578441,-0.10609856
-12.04792,0.47651318,0.40399759999999996,0.1004437,-0.14090043,-0.059253927000000005
-11.660624,0.9730419,0.6659807,0.28675759999999995,-0.19360937,0.025900686000000003
-10.940285000000001,1.2485761999999998,-0.2216935,0.41558033,-0.2947512,0.102031946
-9.865575999999999,0.42310333,-0.8395795,0.38789943,-0.48371800000000004,0.12918927
-8.8788395,-0.7165845999999999,-1.0064170000000001,0.3016627,-0.33147293,0.13236576
-7.786758,-1.1722491000000002,-1.4494976000000002,0.34318408,-0.104178704,0.16536994
-6.8681602,-1.197915,-1.7540305,0.29740409999999995,0.11831587,0.16432275
-6.6651797,-0.72129637,-1.8128417000000001,0.16219345,0.35201547,0.1531352
-6.615035499999999,-0.5886384,-1.4562396,0.08073893,0.5415233,0.1728225
-6.755403,-0.7928255,-1.3336756,0.045081854000000005,0.46593308,0.18348646
-6.872412,-0.9258761000000001,-1.7093164,-0.035290558,0.062430426,0.13823007
-6.946584700000001,-0.98620045,-2.1306767000000004,0.094055794,-0.17177531,0.09138544
-7.508686,-1.0354348,-2.1500506,0.10470230000000001,-0.23513076,-0.015062191499999999
-7.746047,-1.4933306999999998,-1.9128234,0.11747811,-0.35063663,-0.09543460599999999
-7.85075,-1.2079896,-1.8631008000000002,0.18613936,-0.48425904,-0.043284167000000005
-9.36763,-0.18850987,-2.3251049999999998,0.14142403,-0.42570326,-0.01558579
-10.134723,-0.037148435,-3.6538775,0.039235003,-0.27878144,-0.034749504
-10.062542,-0.38120479999999995,-4.4743032,0.024312437000000003,-0.11695451,-0.019844393999999998
-10.33055,-0.68802655,-4.1728926,0.11588986,0.039531708,0.034976397
-13.617185000000001,1.1804466999999998,-2.3907637999999998,0.24204226,0.12150982,0.08180358
-15.72502,2.125285,0.33592567,0.27291712,0.13589133,0.1094845
-13.700532,1.7973654,1.1042633,0.2511005,0.015044739,0.09672615
-12.105350999999999,0.40924570000000005,0.42774808,0.16804029999999998,-0.1627345,0.07967428
-12.95945,0.22147323,1.4117553,0.023265239,-0.286234,0.086062185
-12.809277,0.45573149999999996,0.92086744,-0.18805923,-0.26759390000000005,0.072221726
-11.020319,0.055066638,0.029266722999999998,-0.36318555,-0.332014,0.02804744
-10.608067,-1.3324593999999998,-0.24331793,-0.44303438,-0.550791,-0.017715093
-9.931724,-1.2120598999999999,-0.6868294,-0.34988615,-0.59124774,-0.018779743
-8.84941,0.4482616,-1.1808393999999998,-0.20935224,-0.27078784,-0.07040658
-7.102111999999999,1.5259875,-1.5024285,-0.14653784,0.17261307,-0.08159414
-6.4506593,1.4883028,-1.4888008,0.059986967999999995,0.4552866,-0.108210415
-6.5727925,0.9399061,-1.3448135,0.18668042,0.8662418,-0.17741272
-6.680578999999999,0.32338962,-1.4330158000000002,0.032847095,0.90083426,-0.28333676
-6.3402486,0.08430462,-1.8822638999999999,-0.046460666,0.35201547,-0.17528342
-6.205455000000001,0.13109691,-2.5152812,0.108960904,0.27694884,-0.060824725999999996
-7.002063000000001,0.529109,-2.464754,0.25642377,0.4680624,-0.16728981
-8.262744,1.1897075000000001,-2.052032,0.05787512,0.19924679999999997,-0.06560693
-7.9437795,1.5105879999999998,-1.0479995,-0.10075786,-0.11321951,0.0046251225
-7.34203,1.2882241,-1.0131017,-0.025150195,-0.04881686,0.090338245
-8.903232000000001,-0.30953200000000003,-2.1928878,0.048275806,0.011327186999999999,0.18348646
-9.778207,-0.34345302,-2.8534,0.046146505,0.033143803,0.12227777
-9.328854,0.51867026,-4.0294223,-0.034208454,0.042743113,0.042428955
-13.920148000000001,0.0961703,-0.7379886999999999,-0.09222319999999999,0.015062191499999999,0.0024958209
-18.538275,-0.8709627000000001,1.3373723,-0.07998844,-0.00408407,-0.037943456
-14.029101999999998,-0.41104612,0.82641137,-0.050701816,-0.044540804,-0.048572514000000004
-12.318465,0.6438295999999999,-0.3035752,-0.002268928,-0.11215486,-0.044331364000000005
-14.845602,0.74641633,0.80155,0.12707742,-0.17922786,-0.02729695
-12.976525,0.6047275,0.85105246,0.33733723,-0.23724261,0.028588492000000004
-11.701958,0.5884469,0.7489638000000001,0.44701374,-0.2681175,0.072239175
-11.071038,1.3963271000000002,-0.27785190000000004,0.47947684,-0.30272737,0.08288568
-9.6279955,0.84567994,-1.2004911,0.44434336,-0.349572,0.06691592
-8.425081,-0.6844064999999999,-1.4900745000000002,0.43634978,-0.37247070000000004,0.07862708
-7.3637505,-1.2646365,-1.2493423000000001,0.46561894,-0.33999014,0.14461797
-6.652634,-0.8896375,-1.2291545,0.3921755,-0.28569293,0.17657496
-6.3419724,-0.43849325,-1.2506926,0.3554363,-0.20903808,0.18029252
-6.0965185,-0.6363022,-1.3985968999999998,0.34958944,0.01558579,0.17498670000000002
-6.2138724000000005,-1.247044,-1.1086112,0.29103366,0.3738495,0.17498670000000002
-6.623539999999999,-1.3841455,-0.98266655,0.18989182,0.63575363,0.23832470000000003
-6.7227364000000005,-1.2080088,-1.6391376,0.09300859,0.3131644,0.20746729
-7.0323644,-1.1169143,-2.1077784999999998,-0.17526597,-0.30220374,0.07756243
-7.470407000000001,-0.5471229999999999,-2.3258997999999997,-0.28386036,-0.38470548,0.07384488
-8.028027,-0.01388637,-2.3046393,-0.14919074,-0.18720402,0.045099307000000005
-8.828667,-0.010007763000000001,-2.6998456,0.004118977,-0.37564722,-0.09541715
-9.985382000000001,-1.0749296,-3.0837220000000003,-0.037402406,-0.6732259,-0.22956316
-11.110733,-1.4435408,-3.1882243,-0.24179791,-0.5092696,-0.23862141
-11.037375,-0.15093048,-4.5137887,-0.29822442,-0.29421017,-0.19069467
-10.331669999999999,-0.4750192,-5.9039383,-0.23914501,-0.09245009,-0.11990411599999999
-10.951758,-1.6213534,-4.869586,-0.16409585,-0.011536626000000001,-0.07785914
-14.720414000000002,1.4756519,-2.2599635,-0.13587388,-0.0035604715999999997,-0.00066322513
-17.973808,5.42891,2.9208686000000004,-0.14704399,0.025708699999999998,0.07065093
-12.830642,4.195618,2.0363452,-0.15769049999999998,-0.026441738,0.06958628
-11.884262,0.24220702,1.4958493999999998,-0.19601792,-0.05466371,0.06373943
-13.687469,-0.85686564,3.4296173999999997,-0.24659757,-0.11267845,0.06159267
-12.063319,0.35373852,1.6103305,-0.33868113,-0.13823007,0.052028265
-10.995074,0.33303344,0.325123,-0.45207518,-0.17390461,0.031258848
-10.226497,-0.88777953,0.17709431,-0.53351223,-0.31124458,0.022218041
-9.453764,-0.30072132,-0.3248836,-0.5430941,-0.45975462,0.02167699
-8.660219999999999,1.1117523,-0.40087554,-0.4132067,-0.40013418,-0.027803095
-7.6472526,1.6832675,-0.3979259,-0.21518165,-0.045081854000000005,-0.09061749
-7.043913400000001,1.2912217,-0.66496557,-0.111910515,0.23596852,-0.11990411599999999
-6.7583427,0.65236247,-0.8884308000000001,-0.07517133,0.36320302,-0.16301376
-6.7304745,0.2112835,-0.9780218,-0.08689994,0.66821676,-0.23221606
-6.498112,-0.079171464,-1.0270358,-0.21676989,0.72890186,-0.27321383
-6.5542994000000006,0.052892704000000006,-1.241068,-0.10126399999999999,0.41324160000000004,-0.07571238
-7.099038,0.52313304,-1.6959758000000003,0.32351422,0.47338566,0.050963614000000004
-7.6487947,0.8476049000000001,-2.1414218,0.42678535,0.71347314,-0.12842132
-7.7776027,0.7030813,-1.96993,0.3330961,0.5308768,-0.017156586
-7.124128999999999,0.32486445,-0.99195606,0.066409774,0.158249,0.08290314
-6.7111483,0.22828235,-0.59645313,-0.0054454273,0.1492082,0.11803662
-7.998989599999999,0.37092888,-1.5544307,0.053092916,0.16837192,0.13932963
-9.413197,0.46764505,-2.5054457,0.022218041,0.204029,0.08662069
-9.631433,0.15928145,-3.3384652000000004,-0.04909611,0.18486528,-0.018221237
-14.289094,-1.0313455,0.07943961,-0.15662585,0.14388494,-0.08635889
-18.478773,-2.1840767999999997,2.1422741000000003,-0.21306979999999998,0.060301125,-0.11618657
-12.975146,-0.30455202,1.6181643,-0.2375393,0.08000589,-0.12681562
-11.044424000000001,0.30606514,0.61183345,-0.21996385,-0.008342674,-0.11829842
-14.557541,1.084535,0.98685163,-0.08848819,-0.13344787,-0.09861110000000001
-13.809736,0.863081,0.25839183,0.12922418,-0.2271197,-0.07358308
-12.061250999999999,0.48904923,0.48896300000000004,0.35651842,-0.23884831,-0.026214845
-11.458582,1.5353919,0.14561534,0.5188864000000001,-0.32719687,0.037123155
-10.142959,1.6013187,-0.74652165,0.48534116,-0.5326744999999999,0.06799803
-8.797781,0.47931919,-1.1779758999999999,0.27508134,-0.4336794,0.07970919
-7.8014584000000005,-0.80035293,-1.4747038000000001,0.24101251,-0.14409438,0.12920672
-6.861054400000001,-1.1378108,-1.366074,0.17500417,0.043807764000000006,0.17393951
-6.523826000000001,-0.8075834,-1.5150412,0.1436057,0.30625293,0.19790289
-6.514623,-0.63134146,-1.3148956,0.18032742,0.56868064,0.24898867
-6.681863000000001,-0.7376248000000001,-1.0335099,0.18191567,0.43346998,0.21013764
-6.908411500000001,-1.0208493,-1.1794508,-0.005969026,-0.00034906584,0.11164871
-7.1788034,-0.8523358,-1.6602544,0.12870058,-0.10309660000000001,0.11698942
-7.736603999999999,-0.63949126,-2.1029902000000003,0.16489871,-0.023771385,0.030752702000000003
-7.923725599999999,-0.5371151999999999,-2.1240401,0.18352138,-0.27024677,-0.07623598
-7.6712039999999995,-1.0432974,-2.1394777,0.102607906,-0.40758675,-0.11243411
-8.916561999999999,-0.51627606,-2.4259584,-0.010227629,-0.20956168,-0.12149237
-10.412546,-0.33404857,-3.2636514,-0.10550515,-0.06689847,-0.12095132
-10.299837,-0.44307095,-3.8876472,-0.118822016,0.03848451,-0.08848819
-10.468465,-0.34349135,-3.6722744,0.024347342999999997,0.060318578,-0.014486233000000001
-14.628611,1.6070265,-1.6529281000000002,0.12337732,0.07309439,0.075450584
-16.492985,2.811492,0.81032234,0.13189453,0.10875147,0.08396779
-13.16355,2.0526544999999996,1.0354922,0.05363397,-0.017383479,0.041381758
-12.482275999999999,0.41575790000000007,1.4288021,-0.07197738,-0.16004670000000001,0.07492699
-13.985883,0.11184753,2.0653532,-0.20505874,-0.28674015,0.15158184
-12.212660000000001,0.115630366,0.6667181,-0.26892033,-0.3415784,0.18406242
-10.767089,-0.6217646,0.08720641,-0.379644,-0.4384616,0.14041173
-10.470199000000001,-1.7260088,-0.53522855,-0.50848424,-0.56728435,0.08876745
-9.574729,-0.44093534,-0.95069915,-0.45738098,-0.50818753,0.044593163
-8.319286,1.4800763000000001,-0.7762098000000001,-0.37646753,-0.21434389,-0.0394968
-6.909609,1.7453539,-1.0695187,-0.24390976,0.080546945,-0.093811445
-6.4572387,0.8736825,-1.3635745000000001,-0.08847074,0.41271800000000003,-0.12892747
-6.480146400000001,0.4622054,-1.5262653,-0.08262388400000001,0.68846256,-0.18322466
-6.526718,0.51409256,-1.7007738000000001,-0.15500268,0.53302354,-0.23059290000000002
-6.422015,0.84621626,-1.6656461,0.03820526,0.5457994,-0.11562806
-6.4408236,1.1408563,-1.8118266,0.24633577,0.5048016,0.047787115
-6.861629,0.9592513,-2.3038060000000002,0.297439,0.44837508,0.05311037
-7.4376354000000005,0.5382357,-1.6135004,0.04405211,0.17423622,0.029147000000000003
-7.120365,0.46094128,-0.9338056999999998,-0.22261675,0.086393796,0.0030717794
-7.924942,0.22943157,-1.2582200000000001,-0.2231578,0.0906524,0.059498273
-9.630677,0.28306168,-2.1614661,-0.19387117,0.059777527999999996,0.08079129
-9.882651,0.48428956,-3.2824888,-0.19013616,0.03424336,0.02755875
-10.404635,0.56849843,-3.0871985,-0.24071582,0.040090214,-0.0394968
-15.903131,-1.4594575,0.45780966,-0.25136232,0.027314402,-0.09431759
-16.87235,-1.8957194,2.1586697,-0.23965116,0.03689626,-0.10976376
-13.447820000000002,-0.8645079,0.74327517,-0.2263343,0.06351253400000001,-0.13798574
-13.762829,0.88776046,1.1773056,-0.18161896,-0.013648475,-0.15393804
-14.041428,2.0351958,1.2190508999999998,-0.06930702,-0.17814575,-0.14170328
-12.100822,1.3880911,0.46359405,0.046722464000000005,-0.2510656,-0.12519246
-11.347071000000001,1.4169556,0.7128591999999999,0.13030629,-0.26810002,-0.081541784
-10.811707499999999,1.3544095,-0.053974885,0.1515993,-0.296322,-0.032044247000000005
-9.638117,0.20308577,-0.5385326,0.1542522,-0.44217917,0.029164452
-8.4774475,-1.0774004,-0.6605124,0.14467034,-0.4325973,0.0930435
-7.3911880000000005,-1.2855235,-0.8144308000000001,0.17128661,-0.2808933,0.19470893
-6.662843,-0.8780781999999999,-0.9121620999999999,0.14306463,-0.108943455,0.27242845
-6.4696693,-0.5805077,-0.8161833000000001,0.17873918,0.16358972,0.29637435
-6.999707000000001,-0.49736187,-0.7949516,0.06482153,0.50267226,0.25220007
-7.181025,-0.7530243000000001,-0.83390045,0.096761055,0.6032905,0.22984241
-7.238447,-1.012393,-1.2606143,0.0871792,0.044889867,0.10369001
-7.1144185,-0.75201875,-1.8587433,0.10901327,-0.23298400000000002,0.029688051
-7.402814,-0.46789405,-2.3323834,0.096761055,-0.05677556,-0.008621926
-8.007867,-0.5997858,-2.0678241,-0.05279621,-0.089779735,-0.13583897
-8.283009,-1.1113309999999998,-1.7251372,-0.054925512999999995,-0.33093187,-0.18216002
-9.159593,-0.88013726,-1.7888134999999998,-0.055990162999999996,-0.39161697,-0.13318607
-10.138266999999999,-0.31778717,-2.6584737,-0.122539565,-0.23883085,-0.106569804
-10.063998,-0.11712434,-3.3360422,-0.14861478,-0.14034192,-0.08634144
-9.690713,-0.38927805,-4.7148156,-0.05386086,-0.018971728,-0.027785642000000003
-12.036255,0.24201548,-1.6357951000000002,0.07546803,0.0858702,0.028623400000000004
-15.366178,2.5182214,-0.45603797,0.1563815,0.12739158,0.08452629
-14.784348499999998,2.9993122000000003,1.9401749,0.20909044,0.07309439,0.09623746
-10.961096000000001,1.3156903999999998,0.4816272,0.20483184,-0.064751714,0.06855653
-12.507999,0.19045396,1.3933678999999999,0.09037315,-0.21167353,0.07546803
-13.681732,0.50237054,2.1540152999999997,-0.073565625,-0.32719687,0.08133234
-11.890678,0.45438117,0.8877700000000001,-0.21409954,-0.43525020000000003,0.04033456
-10.885095,-0.6304029000000001,0.46281832,-0.29394835,-0.54864424,-0.020333085
-10.570831,-1.5470756,-0.22905806,-0.26785567,-0.6167819,-0.044820055
-9.499494,-0.38004598,-0.76389396,-0.17894861,-0.46240753,-0.07195993
-7.9954557,1.1439687,-0.9256654000000001,-0.24710372,-0.16111134,-0.15554374
-7.161525999999999,1.2293651,-1.0398879,-0.23643975,0.14442599,-0.20875883
-6.696084,0.84648436,-1.0005752,-0.05757841,0.5644395000000001,-0.20130627
-6.5289782999999995,0.59344596,-1.223169,-0.08047713,0.89074624,-0.24815091
-6.377521499999999,0.40145975,-1.5769169,-0.19120082,0.6293831999999999,-0.21303488
-6.2233825,0.38081214,-1.6939647,-0.035220746000000004,0.8284729,-0.08100073
-6.555985000000001,0.6327109000000001,-1.7874343000000001,0.21919589999999997,0.65812874,-0.06398377
-7.3606095,1.0925221,-1.6254331,0.23677136,0.44626322,0.06749188
-7.520073,1.1752848999999999,-0.8683865,-0.020333085,0.1513375,0.09943141
-6.752769,1.4039981000000001,-0.7205971999999999,-0.1049641,0.10131636,0.09995501
-7.713984,0.5814271,-1.9409984,-0.064507365,0.09705776,0.13775884
-9.632104,0.16678967,-2.2820668,-0.12093386,0.103445664,0.11540117
-10.213635,0.42725965,-2.802413,-0.20395918,0.11461577,0.030770155
-12.034609,-0.1443129,-1.7662026999999998,-0.26731459999999996,0.10770427,-0.020315632
-16.141506,-1.7863714,0.6662872,-0.32215288,0.08267625,-0.0426733
-14.582106,-0.8195065,1.6896073,-0.3482281,0.09864601,-0.047472954000000005
-13.836820000000001,0.6297038,0.7631853,-0.31309462,0.076829396,-0.047472954000000005
-14.890573999999999,0.96119535,1.1106126,-0.19917697,-0.026965337000000002,-0.06557202
-13.704104000000001,0.49536030000000003,0.85826385,-0.022444934,-0.13714798,-0.06290167
-11.942786,0.27114815,0.74751765,0.20111428,-0.13875368,-0.0421497
-11.572766,1.2313954,0.4988367,0.37465240000000005,-0.14779449,0.005742133000000001
-10.596535000000001,1.6216408000000002,-0.59685534,0.46994734,-0.31335640000000003,0.07176794
-9.196962,0.5870966,-0.9998953000000002,0.47366490000000006,-0.3783001,0.08984955
-8.123449,-0.8777334999999999,-0.9898013000000001,0.4603655,-0.1690875,0.13245304
-7.0568423,-1.3050601000000002,-1.0937,0.3522947,-0.024836035,0.19420278
-6.622592,-0.9603718000000001,-1.2019563,0.23785347,0.25569072,0.22188371
-6.554098599999999,-0.60594374,-1.1321510000000001,0.19631463,0.59318507,0.19205603
-6.5262012,-0.6458311,-0.84937656,0.26872835,0.66877526,0.2075022
-6.497873,-0.9265465,-0.9024129000000001,0.17715092,0.3302163,0.16065755
-6.703880000000001,-1.0827921999999999,-1.3754593000000002,0.11859512,0.064577185,0.12711233
-7.0678463,-0.7757404999999999,-1.9815083999999998,0.17556266,0.035831608,0.0951728
-7.647521,-0.629541,-1.8905956999999998,-0.0043458696,0.020402899,-0.11559316
-7.74552,-1.0200161,-1.6759794999999997,0.023317598,-0.20102702,-0.17840755
-8.419537,-1.2169536,-1.9857125,0.13564698,-0.28726375,-0.038938295
-10.186475999999999,-0.48719132,-2.8769016,0.025987952999999998,-0.19463912,0.026511552
-10.464481,-0.027724855,-4.109848,-0.05438446,-0.046652652,0.008412487
-9.911832,-0.056110512,-4.425749,0.028099801,0.03424336,0.030229102999999997
-11.226412,0.30558634,-2.771729,0.123935826,0.09812241,0.07176794
-15.700994,2.3322303,-1.3238882,0.11913618,0.031573005,0.08346164
-16.855276,3.1354275,1.6209415,0.07176794,0.04808382,0.07442084
-11.847679,1.507332,0.7787476,0.068032935,-0.022165682000000003,0.042481314000000006
-11.653364999999999,-0.08042602,0.7155216,0.0014835298000000002,-0.13662437,0.032899458
-13.260860000000001,0.6373652,2.2829479999999998,-0.18160151,-0.22603759,0.043545965
-12.380973,0.6162963,1.1202756999999999,-0.35726890000000006,-0.3511428,0.0068242373
-10.836089999999999,-0.46743435,-0.18131769,-0.4222126,-0.39746383,-0.01977458
-10.136935000000001,-1.2296811,-0.26590005,-0.38494983,-0.47092474,-0.035744343
-9.720746,-0.30161193,-0.60344416,-0.34077555,-0.42566836,-0.077265725
-8.652683,0.9717969000000001,-0.93524224,-0.31787682,-0.22977260000000002,-0.15498523
-7.1396914,1.3386556,-1.4622252,-0.21940534,0.08215265,-0.16563174
-6.351156,1.0910378,-1.7086747,-0.06874852,0.43402848,-0.17254324
-6.1075125,0.74625355,-1.336271,-0.0027576203000000002,0.7677878,-0.23431045
-6.328938,0.5996135,-1.602966,-0.011798426,0.69593257,-0.32587042
-6.4688077,0.33440295,-2.2551080000000003,0.17929767,0.44465753,-0.24973916
-6.460887400000001,0.258162,-2.4335527000000003,0.38636354,0.35363862,-0.04373795
-6.8894687,0.71225584,-2.3271928,0.34857717,0.39887753,-0.16989034
-7.340105499999999,0.8987929,-1.8260385,0.2192308,0.25782004,-0.043720499999999995
-7.117253,0.70688325,-1.4827578000000001,-0.13795082,-0.040788345,0.014276793000000001
-7.6894765,0.7447691,-1.5629828000000001,-0.19809487,-0.07698647,0.030246556
-9.587178999999999,0.44223779999999996,-2.342439,-0.08843583599999999,-0.08817403,0.07763225
-10.022416,0.32633927,-3.339375,-0.08045968,-0.049846604,0.056862827000000005
-9.842008,0.48667416,-3.9560544,-0.13369222,-0.04930555,-0.052778757999999995
-14.106991,-0.5648401,-0.9398008,-0.20821778,-0.03600614,-0.088453285
-17.944494,-2.1712152999999996,1.9222278999999998,-0.26783824,-0.07220427,-0.08045968
-14.069459,-1.5427183,0.5739093000000001,-0.32054716,-0.013107423,-0.08951793599999999
-11.877289999999999,0.8333736999999999,-0.39250544,-0.33969343,-0.06527531,-0.09004153
-14.264443,2.1963162,0.17719008,-0.283808,-0.15683529,-0.09590584
-13.466579999999999,1.2634106999999999,0.114931256,-0.09962339999999999,-0.20582668,-0.072483525
-11.878247,0.66686183,0.7328555999999999,0.12925908,-0.15098843,-0.008063421
-11.239072,1.0882221,0.3853611,0.25169393,-0.19250982,0.087214105
-10.063596,1.4830835,-0.7281246,0.28096309999999997,-0.41023964,0.12871803
-8.818927,0.5956295,-1.4076756000000001,0.29375637,-0.41821578,0.1478992
-7.936089,-0.619562,-1.6829034999999999,0.30014428,-0.21964969,0.22561869999999998
-6.879528,-1.054617,-1.6594978999999999,0.3091851,-0.07752752,0.30492648
-6.2742643,-0.82547283,-1.6074096000000002,0.27138126,0.18701203,0.26925194
-6.1456094000000006,-0.5924213,-1.4214183,0.160675,0.61447805,0.20484929
-6.185928,-0.6296366999999999,-1.385534,0.19792034,0.7033851,0.22933626
-6.491878,-0.9890256,-1.5321646,0.21975441,0.22748621,0.13938199
-6.8570223,-0.9223326999999999,-2.0762708,0.3177023,-0.13076007,0.06857399
-7.44455,-0.72137296,-2.5016439999999998,0.37892842,-0.14618878,-0.010192723
-8.17641,-1.101055,-2.0113113,0.20964895,-0.10999065,-0.09375909
-8.229053,-1.545936,-1.5532048,0.18249163,-0.30695105,-0.13582152
-9.033658,-1.2945737,-1.7391098999999999,0.06965609,-0.32346186,-0.085241884
-10.4888735,-0.560339,-2.6774454,-0.0048694685,-0.16215853,-0.08897688
-9.994595,-0.4639963,-3.5708275,-0.018168878,-0.013648475,-0.069272116
-9.781222999999999,-0.42306499999999997,-4.5576596,0.053145275,0.08854055400000001,-0.013910273999999999
-11.5945635,0.11350431,-1.9578345000000001,0.12925908,0.17264797,0.04195771400000001
-15.017525,2.477175,-0.83481985,0.13512339,0.16306610000000002,0.09094911
-15.489057999999998,3.3608177,1.7356813000000002,0.087214105,0.09334021,0.117024325
-12.112726,1.8321292000000002,1.2839912,0.03556981,-0.059952057999999996,0.093060955
-12.446516,-0.13069469,1.1635821000000002,-0.09536479,-0.17441075,0.07230899
-13.312623,0.53025824,1.6006579,-0.280073,-0.23349014,0.04569272
-12.009651,0.8561953000000001,0.25288516,-0.3790855,-0.28726375,0.014817845
-10.885344,-0.20920534,0.029056031,-0.43179446,-0.4336445,-0.039461896
-10.483491,-1.1996387,-0.35313517,-0.50897294,-0.557144,-0.06234316
-9.418453999999999,0.18815552,-0.5407544,-0.43711769999999994,-0.41448078,-0.091106184
-7.870057000000001,1.7093833999999999,-0.8585128000000001,-0.37641516,-0.1754754,-0.15125023
-6.816656,1.7983136000000002,-1.2660635,-0.30616567,0.017749999,-0.20076522
-6.3312364,1.282162,-1.2436154,-0.17306685,0.3717377,-0.23429299999999997
-6.0669165000000005,0.9037154000000001,-1.3862427,-0.017645279,0.6996501,-0.31414179999999997
-6.0506554,0.3693008,-1.9581601999999998,0.11489502,0.5585926,-0.33915237
-6.0178165,0.30385295,-2.1791162,0.2836509,0.3903778,-0.17786649999999998
-6.4171886,0.6448639,-2.4290802000000005,0.49762827,0.23387411,-0.092170835
-7.027297999999999,1.1600002,-2.579762,0.43055528,0.38877209999999995,-0.19757128
-7.4771204,1.0415543,-2.390323,0.26659903,0.18435913,0.021205751000000002
-7.133074000000001,0.9398295,-1.4453222,-0.005934119,-0.08710938,0.14629349
-8.697617999999999,0.53578407,-1.7530727,-0.04478515,-0.09669124,0.16332792
-10.194951,-0.17134821,-2.507591,0.027593656,-0.03546509,0.18887953
-10.044702000000001,0.025503036,-3.5342822,0.023876105,0.011885692,0.14098770000000002
-10.495826,0.70955515,-3.682311,-0.043720499999999995,-0.022165682000000003,0.030246556
-15.552973999999999,-0.7869166,-0.7706168999999999,-0.14060372,-0.018971728,-0.019233529
-16.923683,-2.4141597999999997,2.0699885,-0.21832323,-0.028536132999999998,-0.043179445
-12.695446,-1.1434995000000001,0.55588573,-0.26302109999999995,0.04597197,-0.055414204
-11.789499000000001,0.9408254999999999,-0.30874667,-0.24919811,-0.020559978,-0.05914921
-14.625239,2.0026636000000004,0.91156834,-0.16135569,-0.09402089,-0.08309512599999999
-13.856748999999999,1.2428299999999999,0.503242,0.03452261,-0.14884168,-0.087371185
-12.095478,0.6247526,0.85438526,0.25277603,-0.17280506,-0.042114794000000004
-11.59192,1.4725489999999999,0.28086859999999997,0.38266343,-0.21006782,-0.0048520155
-10.413532,1.7049779999999999,-0.7376344,0.39969784,-0.38467056,0.0063006384
-8.982164,0.4449193,-1.2791454,0.29375637,-0.40118137,0.041434117
-7.6430006,-0.67867,-1.4557226,0.24745278,-0.19144517,0.10372492
-6.6497035,-0.8329332,-1.4863298999999999,0.20059069,-0.025359634,0.16652186
-6.289472,-0.49294698,-1.4201063,0.18729128,0.20406389,0.2192308
-5.993827,-0.31695402,-1.0572028999999998,0.19474384,0.53249997,0.23094197
-5.9708323,-0.67260784,-1.0435464,0.22509511,0.6442883,0.28736845
-6.5008516,-1.1736089,-1.1604983,0.14309955,0.24984388,0.23253022
-6.830303,-1.1391228,-1.6317921,0.18570304,-0.22232004,0.14631096
-7.262974000000001,-1.0786548999999999,-2.1786277000000003,0.30599109999999996,-0.14034192,0.051015973
-7.675677,-0.8948664000000001,-2.2295287,0.2799159,-0.00033161257000000006,-0.035185836
-7.7031713,-0.7121984,-1.7767848999999998,0.26022860000000003,-0.22657864,-0.077248275
-8.7132,-0.64491177,-2.175496,0.22668336,-0.43470916,-0.091088735
-10.405449,-0.36493382,-2.6949994999999998,0.07072074,-0.3426256,-0.107058495
-10.457815,-0.36139995,-3.4319925000000002,-0.015498524,-0.15203562,-0.091088735
-10.010617,-0.5710649999999999,-4.1458955,-0.006457718,-0.016301375,-0.047438048
-11.585954,-0.6497768,-2.7383057999999996,0.046233773,0.029461157999999998,0.017488198
-15.482210999999998,1.6329316999999999,-1.688755,0.115959674,0.075764745,0.09360201
-16.119144,3.2182953,1.921299,0.15056956,0.12847368,0.11276572
-11.323252,1.7942531000000004,1.5243403999999998,0.13192944,0.0028448866,0.07337364
-12.425581,-0.13899778,1.2290107,0.07497934,-0.14247122,0.060597833
-13.62183,-0.091132894,2.2227674,-0.057019908,-0.22444934,0.0888198
-12.285913,0.48737326,0.8864675,-0.20448278,-0.21964969,0.11650073
-11.046263,0.16669389999999998,0.08965807,-0.35405749999999997,-0.33623767,0.05581563
-10.4592905,-1.4073118,-0.08034941,-0.5116258,-0.5614026,0.0025830872
-9.797983,-0.7084251,-0.7073621,-0.47010443,-0.51136404,0.004712389
-8.493803999999999,1.0801489,-0.8902408000000002,-0.31520647,-0.21699679,-0.040526547
-7.0858026,1.7682903000000003,-0.96000785,-0.18423696,0.01829105,-0.08895943
-6.4940615,1.3314155,-1.1496669,-0.06447246,0.33075735,-0.14538592
-6.390785,0.6530425,-1.2899479999999999,0.012705997,0.7438419,-0.22362904
-6.225825,0.42916542,-1.5897881999999999,-0.06979571,0.7193549,-0.31679472
-6.0115147,0.61334664,-2.0218554,-0.13367477,0.29881779999999997,-0.26036823
-6.2586346,0.8953644000000001,-1.9297456999999998,0.11650073,0.38079593,-0.08044223
-6.925966000000001,0.9635321,-2.4327676,0.26820475,0.4808731,-0.16400859
-7.621472,0.97208416,-2.2298062,0.21551326,0.3462035,-0.02295108
-7.229311,0.8801756,-1.2603269,-0.030403635,0.0065798913,0.0861669
-7.723848299999999,0.5268297,-1.2627785,-0.1650907,0.008691739,0.11063642
-9.8210535,-0.08995495,-2.147168,-0.12941617,0.04223697,0.12288863
-9.681911999999999,0.16615759,-3.5127633,-0.10173524,0.10505137,0.09149016
-9.317801,0.5788126,-3.9741163,-0.15868534,0.12847368,0.0015184365
-14.412011999999999,-0.19837397,-0.6159994000000001,-0.20500638,0.13220869,-0.053284902
-16.9618,-1.4834665,1.1640896,-0.23001695,0.048624873,-0.080965824
-14.579979999999999,-0.8345517,1.9038979999999999,-0.25610963,0.09388126,-0.08415978
-11.584163,-0.079046965,0.44180682,-0.26462683,0.03478441,-0.06979571
-14.594948,1.064194,1.4268867,-0.18957767,-0.098820545,-0.06075491
-13.979514000000002,1.3150583999999998,0.46198517,0.007906342,-0.21964969,-0.03785619
-12.162525,0.8668063,0.5557612,0.2075371,-0.29150490000000007,0.021223204
-11.758269,1.4491049999999999,0.22678836,0.35124752,-0.30429816,0.07550294
-10.486517999999998,1.4173867,-0.7455161,0.40873864,-0.54490924,0.12980014
-9.024771000000001,0.017381905,-1.3707857,0.31665509999999997,-0.6279346,0.16973327
-7.844161,-1.1439112,-1.2205353,0.32304299999999997,-0.25319493,0.20486675
-6.8968906,-0.9593758,-1.3023499,0.30761427,-0.015760323,0.20647246
-6.4120264,-0.5304401999999999,-1.4525335,0.2666165,0.35843825,0.20594884
-6.0850263,-0.36113182,-1.2139176999999999,0.15430456,0.7119023,0.2054078
-6.271621,-0.63167655,-0.9379716,0.1968906,0.99244654,0.24425882
-6.765486999999999,-1.0583711999999998,-1.0275148,0.49656359999999994,0.45797440000000006,0.252235
-6.989412299999999,-1.1075959999999998,-1.6046227,0.5657833999999999,-0.090826936,0.15749851
-7.350534,-1.1761085,-2.180859,0.33262485,-0.39531708,-0.08470083
-8.005405999999999,-1.0428376,-2.0358758000000003,0.037192967,-0.10412634,-0.20074777
-8.1552925,-1.0751882,-1.5878919,-0.08895943,-0.22071433,-0.24492206
-8.754522999999999,-0.8138945,-1.5251161,-0.006457718,-0.29417524,-0.10812314599999999
-9.889969,0.22379082,-2.7022781000000005,0.05900958,-0.20528562,-0.06288421
-9.656179,0.26219383,-3.8298989999999997,0.01855285,-0.002984513,-0.08522443
-9.17346,-0.24933217,-5.038291,0.07391469,0.16786577,-0.054367005999999996
-9.778974,-1.1485847,-3.1756692,0.14791666,0.21577506,-5.2359880000000005e-05
-14.328501999999999,1.3129035,-0.5799331,0.17399187,0.19980529,0.08030259599999999
-16.191862,2.9260306000000003,3.016426,0.15695746,0.14657275,0.10266027
-12.089004,3.097034,0.9611569999999999,0.10372492,-0.024818582000000002,0.07019714
-11.341084,1.4912524,1.0367754999999998,-0.014433873,-0.14032447,0.05900958
-14.040212,0.19092321,1.7382096000000002,-0.20022418,-0.26542968,0.07178539
-13.352214000000002,0.34284967,1.1473781,-0.33063516,-0.37350047,0.053145275
-12.161415,-0.44390413,0.56078905,-0.39451423,-0.46825439999999996,0.019076448
-11.369192,-1.4906012,-0.52765334,-0.3881263,-0.59866536,0.011623893
-10.053694,-0.032111034,-1.0080068000000002,-0.29497808,-0.5507561,-0.016563175
-8.364478,1.5842048999999998,-1.0936139,-0.2582389,-0.31333897,-0.090024084
-7.3687973,1.5298374,-1.2317306000000001,-0.19807741,-0.0104370685,-0.14325662
-6.872077,1.0028736999999999,-1.2084398,-0.057019908,0.44786894,-0.15283848
-6.4859595,0.63977855,-1.4630296,0.06592108,0.79175115,-0.21991149
-6.1571107000000005,0.46415909999999994,-1.8962078000000002,0.0765676,0.7949451,-0.35938075
-6.1210830000000005,0.4158058,-2.0783490000000002,0.104265966,0.38666025,-0.33648202
-6.322972,0.5032515999999999,-2.0488238,0.2059314,0.37014943,-0.15496778
-6.838462400000001,0.8776473,-1.9828587,0.35976472,0.20406389,-0.08470083
-7.1516147,0.8490796999999999,-1.5459551999999999,0.33262485,0.4111472,-0.184778
-6.986088799999999,0.5498811,-1.0585243999999998,0.23413591,0.19448204,-0.019233529
-8.408992,0.14896722,-1.6325966,-0.032009337,-0.03440044,0.10744247
-9.90328,-0.17259322,-2.5336017999999996,-0.08150688,-0.048240899999999996,0.098401666
-9.831052,0.053917423,-3.432768,-0.03466224,0.0044331364,0.060597833
-9.333986999999999,1.0290853000000002,-4.683164,-0.052237704,0.00710349,-0.029880037999999998
-11.256952,1.5960419,-3.3475727999999996,-0.116116755,-0.022689281000000002,-0.095870934
-15.907601999999999,-0.4780742,-0.23636517,-0.12622221,-0.040788345,-0.10972885
-16.80745,-2.0532005,3.2570431,-0.10067059,-0.022148227000000003,-0.07990117
-11.539812,-1.2828131999999999,0.41622716,-0.04956735,0.001256637,-0.056496307
-11.0578985,0.75552386,-0.33919135,0.040910516,-0.07644542,-0.059672805999999995
-13.923729000000002,2.3182096000000003,0.95769024,0.18996164,-0.1648289,-0.07192502
-13.048812,1.6102059,-0.03032017,0.3485946,-0.19942132,-0.047438048
-11.877932000000001,1.1039951000000001,0.5050425000000001,0.45505969999999996,-0.1786519,-0.028797932000000002
-11.467432,1.2392101,-0.22956565,0.5093569,-0.27768190000000004,-0.013910273999999999
-10.364222,0.49446009999999996,-1.1761085,0.46144759999999996,-0.39105847,0.015899949
-8.854016,-0.6288227,-1.4632498999999999,0.30813786,-0.23349014,0.046233773
-7.596208,-0.79208815,-1.2871419,0.19900244,-0.08230973,0.068050385
-6.933339999999999,-0.69301605,-1.2717425,0.2144486,0.11089822,0.1495049
-6.5925303,-0.41524076,-1.0274286,0.21605429999999998,0.42231733,0.24212952
-6.369515,-0.7112885999999999,-0.8171123,0.19261454,0.7347836,0.26926940000000005
-6.612526400000001,-1.1198447,-0.95988333,0.2793923,0.7028441,0.33634240000000004
-6.840167,-1.0886818,-1.5590754999999998,0.11810643,0.11517428,0.25012314
-6.960039999999999,-0.74687606,-2.0352342,0.0094945915,-0.34049627,0.09998991
-7.351358,-0.33934456,-2.3632782000000003,-0.12515756,-0.38201767,0.030264008999999998
-7.459987599999999,0.092646025,-2.4628674999999998,-0.10759955,-0.10147344,-0.049043752
-7.641305,-0.27155992,-2.3547356,-0.014433873,-0.15097098,-0.051155599999999996
-9.119236,-1.1579221000000002,-2.2935302,-0.009651671,-0.30588642,-0.02560398
-10.249137,-0.51967585,-3.0282247000000004,-0.08683013,-0.22869049,-0.104929194
-9.387962,-0.18664239999999999,-4.572456,0.011082841000000001,0.07363544400000001,-0.10547025
-8.966830999999999,-1.0972531,-5.0806775,0.19209094,0.13857915,0.0052359877
-11.482208,-0.27839777,-1.1564378,0.2144486,0.11302752,0.09201376
-16.097828,2.3437892999999996,0.851541,0.19154988,0.06618288,0.0850848
-16.716604,4.0636019999999995,2.7589726000000003,0.16599827,-0.02427753,0.06487389
-10.634335,1.643112,0.5315894,0.086149454,-0.09295624,0.08030259599999999
-11.640532499999999,-0.31240502,1.2407423,-0.043703045999999995,-0.14831808,0.12182398
-13.924006,-0.8273116,1.3249129,-0.18957767,-0.18612191,0.13086478
-13.021364,-1.1837796,0.76717883,-0.3694862,-0.28831095,0.0861669
-12.09431,-1.517943,-0.39647022,-0.5446300000000001,-0.44162065,0.023352506000000002
-10.866152,-0.8346379,-0.9690579,-0.5664465999999999,-0.45280823,0.006318091999999999
-9.163385,0.64540017,-1.4324603999999999,-0.4818156,-0.32452652,-0.019233529
-7.896172999999999,0.8971360999999999,-1.7539252,-0.37376225,-0.12330751,-0.045308746
-7.0689282,0.4208719,-1.6526217,-0.28804913,0.32436943,-0.07885397
-6.7115029999999996,0.13435303,-1.7398951,-0.26942647,0.7736521,-0.15337953
-6.371105,0.2262808,-2.1644351000000004,-0.26995006,0.75502944,-0.28112018
-6.0385695,0.41525993,-2.2292507,-0.11344639999999999,0.3797313,-0.21565288
-5.8195767,0.66325134,-2.4413384999999996,0.042498767,0.36589083,0.00045378560999999995
-5.9446974,0.931105,-2.6367917000000003,0.15056956,0.26474899999999996,-0.15016812
-6.496963500000001,0.96656793,-2.4242442000000004,0.0888198,0.42709953,-0.15603243
-6.483929,1.0209546,-1.159081,-0.13793337,0.057683133,0.05422738
-7.780619000000001,0.587087,-1.2543508999999997,-0.25239205,-0.037070792000000005,0.1521578
-9.559711,0.042798746,-2.2055097000000004,-0.13048081,0.06726499,0.16441001
-9.6205635,0.38764042,-3.4843773999999996,-0.075118974,0.13912019,0.13992305
-9.277809,0.6363597,-4.460637,-0.09641199,0.16734217,0.03932227
-13.070914,0.36547968,-2.3563638,-0.11397,0.16521287,-0.03785619
-16.939495,-1.1591192,0.018665198,-0.13154547,0.10239847,-0.07777187
-15.808635999999998,-2.7312574,2.9309816000000004,-0.18318976,0.12899728,-0.07831292599999999
-9.811908,-1.15933,-0.21718283,-0.19755381,0.092816606,-0.06766641
-13.329066000000001,0.98218775,0.7320128,-0.120898955,-0.04024729,-0.08150688
-15.107517999999999,2.1728816,1.0010158000000002,0.030787607999999998,-0.20474458,-0.08150688
-12.6386175,0.98416054,0.38000768,0.24532348,-0.26384142,-0.056496307
-11.855129,1.040453,0.45402682,0.5237208999999999,-0.27235863,-0.043179445
-11.196867,0.86165404,-0.76619244,0.60039324,-0.36390114,0.0031241393
-9.725764,-0.43316856,-1.4094665000000002,0.45238933,-0.5677905,0.0063006384
-8.464478999999999,-1.2923038,-1.3292129,0.3294309,-0.40756929999999997,0.055274576
-7.391715,-1.1233594,-1.5174353999999999,0.20966639999999998,-0.22443189,0.15749851
-6.734152000000001,-0.58509505,-1.6748877,0.14098770000000002,0.010297443,0.24851742
-6.2979093,-0.36454114,-1.600993,0.16866861,0.39783034,0.2921681
-6.1319337,-0.69177103,-1.3796538999999999,0.16812757,0.7294778000000001,0.32623693
-6.4480059999999995,-1.1177473999999998,-1.3056347,0.073391095,0.49525464,0.30016172
-6.509652,-1.7801273000000002,-1.4931965,-0.08309512599999999,-0.28405234,0.15004596
-6.530779,-1.5207396,-2.1580951,-0.03520329,-0.34260812,0.0866905
-6.827727,-0.79588056,-2.3831403,-0.019216076000000002,0.03000221,-0.0016580628
-7.455161,-0.8606389000000001,-1.9895912,-0.10281735,-0.2425484,-0.170955
-8.206164999999999,-0.14122917,-2.2355332000000003,-0.15125023,-0.44961426,-0.16400859
-9.899985000000001,-0.14822981,-2.9041667,-0.22417009,-0.25691247,-0.107058495
-10.706305,-0.29873893,-3.7327614000000002,-0.31201252,-0.00832522,-0.13473941
-9.453812,-0.33719936,-4.481419,-0.26143286,0.22109829999999997,-0.11344639999999999
-9.505861,-0.7577936,-4.552776000000001,-0.14379768,0.23228587,-0.042114794000000004
-14.456582000000001,1.0432303,-2.0548093,-0.06127851,0.14603170000000001,0.049427725
-17.498627,3.3551290000000003,1.390064,-0.06181956,0.098663464,0.06379178
-12.174602,2.9273236000000002,1.3391918999999999,-0.07298967,-0.046635196,0.025481807000000002
-11.375167999999999,0.56110513,1.4250479999999999,-0.12144001,-0.19570377,0.021746803
-14.493051000000001,-0.4153174,2.1363845,-0.24919811,-0.27127653,0.06646214
-13.689632999999999,0.017669208,0.7000933000000001,-0.42380086,-0.26968828,0.0845612
-11.793608,-0.38642415,0.1575289,-0.5882807,-0.36711255,0.03398156
-11.203609,-1.9280602,-0.5993166,-0.6814464,-0.60985297,-0.046373397000000004
-10.046875,-0.8188074000000001,-1.241767,-0.55208254,-0.57843703,-0.055414204
-8.270636,1.0310006999999999,-1.3096473999999998,-0.39824924,-0.28885198,-0.07991862
-7.010874,1.4046303,-1.2993046,-0.33808774,-0.09615019,-0.13634512
-6.453839,0.85944176,-1.3627414,-0.2624975,0.4036772,-0.1714786
-6.3436193,0.25232014,-1.4733438,-0.22362904,0.85297734,-0.25769785
-6.19696,0.047395617,-1.8045194,-0.34447563,0.7273485,-0.3545811
-6.1458106,0.26358247,-2.2855625,-0.38227946,0.331822,-0.27366763
-6.0457807,0.48984408,-2.5839564999999998,-0.020821778,0.49631926,-0.054349552999999995
-6.4432754999999995,0.5288313,-2.4805272,0.23680627,0.6086312,-0.11876965
-7.214898,0.58636874,-1.7512531000000002,0.21551326,0.42818162,0.06913249
-7.0765899999999995,0.7947313,-0.52099746,-0.08735373,0.03265511,0.1362055
-7.539667,0.35036746,-1.0464480999999999,-0.18743089999999998,0.034260813,0.10266027
-9.578866,-0.35165074,-2.5585299999999997,-0.10653489999999999,0.07152359,0.11171853
-10.018154,-0.15128481,-3.8686469,-0.080965824,0.16840681,0.05688028
-10.122589,0.5932161,-4.448283,-0.15016812,0.16573647,-0.046896997999999995
-14.808176000000001,0.039475597,-1.742002,-0.19701277,0.08908161,-0.10279989
-17.025742,-1.6422979,1.268314,-0.22417009,-0.0072431164,-0.13048081
-13.448929999999999,-1.8398098999999999,1.9598168999999999,-0.21458822,0.03584906,-0.14112732
-11.6522255,-0.8368214,0.1807335,-0.17200220000000002,-0.03333579,-0.12355186
-14.892998,0.9370809999999999,0.86575294,-0.044244096,-0.19729201,-0.09267698
-14.079553,1.1926379999999999,0.16976805,0.18676768,-0.2978928,-0.045832347
-12.077895,0.7153396,0.28970799999999997,0.46624726,-0.30641,0.022287855
-11.595483,1.4135463,0.14631446,0.59400535,-0.37508872,0.11810643
-10.241878,1.1105074,-0.9298791999999999,0.5625894,-0.5353099,0.13194689
-8.92228,-0.20903295,-1.5644864,0.45188320000000004,-0.5597969,0.11971214
-7.7708892999999994,-1.2923996000000002,-1.3537583,0.38533378,-0.28246409999999994,0.16866861
-6.5984679999999996,-1.4720798000000002,-1.4166013000000002,0.33635986,-0.090826936,0.19422024
-6.1858125,-0.98098105,-1.51801,0.26183429999999996,0.19608775,0.2032785
-6.102399,-0.38138676,-1.266006,0.21766001,0.55061644,0.23095942
-6.2800293,-0.52310437,-1.0864408,0.24692918,0.5617866,0.28845057
-6.66609,-1.2077502,-1.2519183999999999,0.1340762,0.04330162,0.18837339
-7.035821400000001,-1.3333118,-1.8105527,0.048363075,-0.27234116,0.10266027
-7.4037433,-0.7152534,-2.3595145,0.008447394,-0.1850398,0.020158553
-7.722133599999999,-0.9391879000000001,-2.4366844,0.04145157,-0.20846212,-0.10864674
-7.8272580000000005,-0.9163855,-2.1997923999999998,0.16228071,-0.42619196,-0.10067059
-8.87929,-0.46691722,-2.4279215,0.09681341,-0.40489894,-0.05487315
-10.03636,-0.43019015,-3.0752083999999997,-0.042114794000000004,-0.27766442,-0.06234316
-9.954908999999999,-0.24841279999999996,-4.3743215,-0.044767695999999996,-0.11637855,-0.044226642999999996
-9.720622,-0.39265865,-4.649166,0.08084365,-0.012042772,-0.0011170107000000001
-13.052364,0.7754436,-1.7998459,0.13779375,-0.03705334,0.063268185
-17.137457,3.3801053,0.58878213,0.10374237,0.07152359,0.0840376
-14.929744,2.8332696,1.9631113000000002,0.049968775,0.033196162,0.05422738
-11.620239,0.6355457,0.6121208,0.0020594885999999997,-0.041852996,0.013770646999999999
-13.091141,-0.29382600000000003,1.7578228999999999,-0.105993845,-0.09986774,0.015899949
-13.42314,0.48982495,1.5055794,-0.24811599999999998,-0.15735888,0.026022859
-11.478885,0.35933137,0.4492576,-0.32583553,-0.25850073,-0.013351769
-10.784269,-0.98754114,0.036094986,-0.34234634,-0.32824406,-0.035709437000000004
-10.116671,-1.1486614,-0.41137174,-0.34339353,-0.37508872,-0.051679197999999996
-9.198887,0.511526,-0.63418573,-0.35777503,-0.3255737,-0.11768755
-7.757827000000001,1.4385321000000002,-1.134344,-0.40781364,-0.19675097,-0.21085322
-6.673023,1.46189,-1.5302492,-0.27527332,0.10292207,-0.19807741
-6.3268986,1.0176028,-1.4066413999999998,-0.07831292599999999,0.6059783000000001,-0.13739231
-6.2623695999999995,0.6693996999999999,-1.5361388999999999,-0.042638395,0.9668949,-0.20713568
-6.2446527000000005,0.6367044,-1.8046918,-0.16507325,0.7193549,-0.3071954
-6.17817,0.48051625,-2.0548668,-0.13739231,0.3898542,-0.18901916
-6.386581,0.32445264,-2.1793077000000003,0.09894271,0.36643186,0.15217526
-6.9101740000000005,0.49723738,-2.434884,0.31134927,0.25197318,0.035604715
-6.964914299999999,0.6229904,-1.9187516,0.25171140000000003,0.37227872,0.049968775
-6.6995416,0.9586766999999999,-1.1127387,0.012705997,0.020420352,0.11384783
-8.339139,0.73504865,-1.74046,-0.06553711,-0.12915437,0.1511106
-10.268319,0.43259394,-2.3317417999999996,-0.013351769,-0.08922123,0.17933258
-10.30949,0.7115663000000001,-3.407064,-0.019216076000000002,-0.043982297000000004,0.12131783
-9.5860195,0.699059,-3.8458734,-0.11609929999999999,-0.048240899999999996,0.008988446
-12.959852,-0.47482768,-1.4578198,-0.184778,-0.080704026,-0.047438048
-16.84389,-1.8874642,2.004368,-0.23108159,-0.10732029400000001,-0.07510152
-15.924735,-2.3324599999999998,2.8591458999999997,-0.23959879999999997,-0.06686357,-0.10012954
-10.590262,-0.28443116,-0.24231236,-0.15601498,-0.07805113,-0.11609929999999999
-13.578792000000002,1.2951768999999997,0.9679279000000001,-0.029862582999999998,-0.17919296,-0.11290534599999999
-14.930932,2.0715303,0.6820602,0.17985618,-0.29469883,-0.086812675
-12.969803,1.3155756,0.6004083,0.3911981,-0.32983232,-0.035709437000000004
-12.086955,1.4926028,0.08512823,0.49499282,-0.373483,0.05263913
-10.568294,1.1893723,-1.1786463,0.5296026999999999,-0.4815538,0.06487389
-9.074015,-0.033480518,-1.7008983,0.46731192,-0.32824406,0.087231554
-7.949075,-1.0916601000000001,-1.6032531,0.41088542,-0.095609136,0.1441991
-6.8953485,-1.2590723999999998,-1.5836781999999998,0.38852775,0.08110545,0.22191861
-6.4815062999999995,-0.9240086,-1.4152988000000002,0.36884043,0.34300956,0.23575908
-6.5143832999999995,-0.4660457,-1.0179476,0.330513,0.5500754,0.24267058
-6.5320907,-0.58179104,-1.0212419,0.36297613,0.47554985,0.28845057
-6.5347247,-1.1322659,-1.0637438,0.16016887,-0.11264355,0.13887584
-6.945407,-1.2441901000000002,-1.4607791,0.052098077,-0.21752039,0.026022859
-7.1687284,-0.89610183,-1.7499987000000001,0.088296205,-0.008307766999999999,-0.018151425
-7.1590557,-0.94353575,-1.7015303,0.16653931,-0.0503702,-0.082030475
-7.223910000000001,-0.71399885,-1.6745526000000002,0.29590312,-0.31173325,-0.06445501
-8.641134,-0.35418862,-2.039879,0.2613107,-0.42671555,-0.08309512599999999
-9.979502,-0.042904094000000004,-2.7757607,0.12662363,-0.37402406,-0.12035791
-9.727679,-0.30616096,-3.3545830000000003,0.024958208,-0.18983947,-0.0538085
-10.311625999999999,-0.56831646,-3.8393322999999997,0.0074001959999999995,-0.08496263,0.019634955
-14.321148,1.297236,-1.5915313,0.047315877,-0.018954275,0.0771261
-18.216829999999998,3.8769116,-0.1925034,0.047315877,0.08962265400000001,0.1404641
-14.147395000000001,2.8981428,0.7290248,0.019093903,0.10185742,0.1314233
-11.778927000000001,-0.055411402,1.0051816999999998,-0.025062927999999998,-0.008831366,0.079796456
-12.990124,-0.82780963,2.0164638,-0.12355186,-0.14245377,0.060615286
-12.423465,0.23582888,1.5501881000000002,-0.2789909,-0.22975515,0.05529203
-11.081763,0.5192257,0.30970433,-0.4131369000000001,-0.3037571,0.024417156000000002
-10.180606,-0.23217054,0.039533056000000004,-0.48073348,-0.45493752,-0.03890339
-9.767807000000001,-0.9962752,-0.28137615,-0.41366049999999993,-0.49804714,-0.07883652
-9.150496,0.4033368,-0.6418472,-0.31305972,-0.30482176,-0.10651744
-7.836835000000001,1.7714889999999999,-0.8387463,-0.32368878,-0.032794736,-0.16879079
-6.787820299999999,1.9720176,-1.3159682,-0.29974285,0.23973842,-0.22202334
-6.333631,1.5312451999999999,-1.2077407,-0.12566371,0.61343086,-0.20870647
-6.349605,0.9883265,-1.2379076,-0.031991884,1.0094809999999999,-0.2709973
-6.4088473,0.7150331,-1.7384297999999998,-0.19062486,0.7576823,-0.32742378
-6.396742,0.67314416,-2.0141747,-0.23214625,0.40369466,-0.23106414
-6.8207070000000005,0.77448595,-2.2101737999999997,-0.017610373000000002,0.48993137,0.007923795
-7.376028,1.0468024999999999,-1.8683776,0.25865778,0.4505393,-0.06710791
-7.572678,0.9975298,-0.9962848,0.29164450000000003,0.38400733,0.036669366
-7.1367035,0.6535405,-0.996122,0.10693632,-0.018413223,0.09789552
-8.273595,0.08249462,-1.9095291,0.019634955,-0.056740652999999995,0.083514005
-9.508774,0.013752295,-2.5982835,0.030281462000000002,0.012967796,0.08084365
-9.507528,0.86094534,-3.3728937999999995,-0.023998277000000002,0.077911496,0.03080506
-9.322054,1.2600684,-3.6709050000000003,-0.12407546,0.090687305,-0.057002455
-13.572757999999999,0.01844493,-1.1311646,-0.14749777,0.04118977,-0.10117674
-16.234306,-1.3930997999999999,1.1845648000000002,-0.15495034,-0.015219271000000001,-0.11714649999999999
-14.992635,-1.9674879,2.880378,-0.18102555,0.034260813,-0.120881505
-11.505327000000001,-0.7350199000000001,0.7245236999999999,-0.15282103,-0.046635196,-0.09745918
-14.783803,0.6390507,1.5394813,-0.035709437000000004,-0.11105530000000001,-0.07936012
-14.887597,1.2307249,0.8751956,0.1979727,-0.18236946,-0.05326745
-12.6742525,0.7643441,0.44746673,0.42952552,-0.19888027,0.015376351000000002
-12.016183,1.544873,0.13306974,0.5812470000000001,-0.26382396,0.09096656
-10.886080999999999,1.189832,-1.0969753,0.57697093,-0.44216170000000005,0.103201315
-9.274706,-0.25416845,-1.4687375,0.42259657,-0.30161035,0.10215412
-7.98879,-1.1508448,-1.199792,0.41994366,-0.071663216,0.13409364
-6.915536400000001,-1.0829836000000002,-1.3190807,0.40716785,0.06780604,0.19477874
-6.5539265,-0.7832391,-1.4034619,0.30124384,0.36058503,0.22298327
-6.3991265,-0.5757768,-0.9874837,0.20807815,0.5905496,0.22884756
-6.610486999999999,-0.85767967,-0.7017788,0.21020745,0.6384588999999999,0.29218557
-6.9929943,-1.1312124,-0.7689984000000001,0.15538666,0.31852257,0.24801129
-7.242785499999999,-0.67545223,-1.3360411,0.021223204,-0.10093239,0.124511786
-7.594475,-0.90927947,-1.779773,0.05263913,-0.27340582,0.032410762999999995
-7.5805983999999995,-1.0977798,-2.1145303,0.032951817,-0.20046851,-0.06604326
-7.1020546,-0.934524,-1.8409400000000002,0.11918853,-0.28351128,-0.076689765
-8.223499,-0.6012510999999999,-1.8523076,0.16283922,-0.41393974,0.0026005406
-9.521405,0.22146365,-2.5874042999999998,0.078731805,-0.40968114,-0.028780478999999998
-9.403888,0.44507250000000004,-4.000807,0.0004712389,-0.27818802,-0.027174776
-9.4382105,-0.071193986,-4.3609524,0.03508112,-0.11370819999999998,0.016441
-11.747582000000001,-0.06958508,-2.2515936,0.05370378,-0.08922123,0.078731805
-15.080693,2.0677667,-1.4165725,0.043057274000000006,0.012444196999999999,0.08192576
-16.367453,2.7597387,1.095759,0.034557517999999995,0.04225442,0.03721042
-12.240385,1.2552226,1.787827,0.015899949,-0.022671826000000003,-0.013875367
-11.792679,-0.03452439,1.0654676,-0.047944195999999994,-0.08922123,-0.017592918
-13.086601,0.17404889,1.5580314,-0.16346754,-0.13871877,-0.008552114
-12.169611999999999,0.18384597,0.7757404999999999,-0.26248008,-0.22869049,-0.037297685
-11.203589,-0.298375,0.36469436,-0.26673868,-0.3042807,-0.0522028
-10.583445,-1.0720756999999999,-0.45607626,-0.16879079,-0.21111503,-0.038362335
-9.630187,0.059749699999999996,-0.8064916,-0.15334463,-0.07803367,-0.076689765
-8.263712,1.3195306999999998,-1.3851702,-0.25661576,0.12156218,-0.14908603
-6.9323535000000005,1.4500148000000002,-1.5501403,-0.15227997,0.37388444,-0.13311626
-6.489072,1.061225,-1.3683724,-0.023474678,0.70659655,-0.06445501
-6.574545,0.6735464,-1.3955323,-0.09107128,0.78431606,-0.109693944
-6.711072,0.48793828,-1.490697,-0.16612044,0.6011960999999999,-0.14749777
-6.755307000000001,0.6208165,-1.7639616999999999,-0.07777187,0.42072907,-0.0074874623999999996
-7.0454464,0.6488191,-1.8175151000000003,0.043598324,0.34993850000000004,-0.034627332999999996
-7.508044,0.6538373000000001,-1.6064136,0.06169739,0.38294268,-0.045291292999999996
-7.1460505,0.75801384,-1.4182773000000002,-0.13311626,0.0821701,0.032951817
-6.709664,1.0411234,-1.4950832,-0.25609216,-0.092415184,-0.011222467
-7.790349000000001,0.6278459,-2.0902913,-0.16186184,-0.08655088,0.024958208
-9.497367,0.77528083,-2.1970632,-0.1123643,-0.07909832,0.078731805
-9.902495,1.3508948,-3.1483562000000003,-0.11608185,-0.04982915,-0.008552114
-10.72545,0.8440519000000001,-2.405665,-0.18102555,-0.03651229,-0.13259266
-14.867092999999999,-1.207099,-0.5600708000000001,-0.23479915,-0.029059732,-0.15814428
-16.85541,-1.8433726000000001,1.7809700000000002,-0.29387853,-0.047158795999999996,-0.14641567
-12.422986,-0.60185444,-0.41797015,-0.3284884,0.0060562924,-0.12620476
-13.573447,0.5590651999999999,0.037033513,-0.34658748,-0.056217055999999994,-0.10543534
-14.214882999999999,0.64659727,0.73324823,-0.29174924,-0.16639969,-0.08733627
-12.392982,0.37361038,0.7055425000000001,-0.15599753,-0.23134339,-0.06923721
-11.752350999999999,0.38720945,0.6347603,0.008988446,-0.26063000000000003,-0.01813397
-11.339888,1.001102,-0.33485305,0.19903734,-0.25583035,0.040404372
-10.031446,0.6682696,-1.1243364,0.31614894,-0.42671555,0.0718203
-8.864934,-0.6278459,-1.4005889,0.32412508,-0.4469439,0.084596105
-7.934116400000001,-1.0916313999999998,-1.5127141000000002,0.32679546,-0.21856758,0.15165167
-7.063307000000001,-0.8832976,-1.6184517,0.28792697,-0.0104370685,0.24801129
-6.807807,-0.5816091,-1.5719370000000001,0.19264944,0.20566959999999998,0.29007372
-6.590749000000001,-0.6291483,-1.4381204,0.1261175,0.45640358,0.2964616
-6.4789205,-1.0100466000000001,-1.3031735,0.082449354,0.72628385,0.33318335
-6.774748,-1.5522664,-1.3867121,0.17880899,0.56286865,0.35554102
-7.030056,-1.5289371999999999,-1.5839465,0.20648989999999998,-0.0045727626,0.23736478
-7.129243400000001,-1.2885401,-1.8408825,0.17294468,-0.37081265,0.06276204
-7.6396294000000005,-1.1355795,-1.8446175,0.06436774,-0.22921409,-0.04633849
-7.602797,-1.2309932,-1.5344151000000001,-0.023980823999999998,-0.19781561,-0.12831661
-8.21488,-0.6975555,-1.6904596,0.0020769418,-0.4469439,-0.109693944
-10.020031,-0.44601104,-2.7710202,-0.016004669,-0.39477602,-0.13631022
-10.312296,-0.47445416,-3.4896160000000003,-0.12618731,-0.1855634,-0.19113101
-9.946233,-0.25395778,-4.327711,-0.15067427,-0.03864159,-0.16877334
-10.221565,-0.5393945,-4.311603,-0.015463616999999999,0.13913764,-0.08731882
-13.710626000000001,0.98387325,-2.0363452,0.15219271,0.1487195,0.016458455
-15.801060999999999,2.2702012000000003,1.731161,0.1915848,0.09707521,0.08511971
-13.508277,2.6171978,1.3215516,0.16390386,-0.010960667,0.0718203
-10.969073,1.189832,0.616957,0.08937831,-0.16268215,0.06063274
-12.879560000000001,0.11229764,1.6095643,-0.055920347999999995,-0.2978928,0.079796456
-13.599611,0.06075526,1.0997525,-0.17941985,-0.36655405,0.09098402
-11.456418,-0.17497784,0.51336473,-0.29813713,-0.41552799999999995,0.043598324
-11.291975,-1.4948151,-0.42486545,-0.39341468,-0.5315749,-0.020786871999999998
-10.327867999999999,-1.0848223999999997,-0.919632,-0.28323203,-0.45598469999999997,-0.050073497
-8.851622,0.68003947,-0.86966026,-0.19167206,-0.26221827,-0.09850638
-7.586957000000001,1.3481558999999999,-1.0710988000000001,-0.23158774,-0.017889624,-0.13098696
-7.020028999999999,0.97456455,-1.2026075,-0.20284216,0.31002283,-0.15545648
-6.7963057000000004,0.38048655,-1.4448433,-0.04314454,0.7614173000000001,-0.16345008
-6.6300615999999994,0.15335341,-1.7225324,-0.035691983999999996,0.86842346,-0.26139796
-6.3700514,0.21272962,-1.9634848999999999,-0.050597094,0.35739106,-0.24064599
-6.330844,0.44447875,-2.0820267,0.14952235,0.48834312,-0.037821285
-6.4692097,0.5167166,-2.3052905,0.24003513,0.49525464,-0.11821115
-6.825303999999999,0.57847744,-1.8567799999999999,0.21235421,0.37814304,-0.039426986000000004
-6.674575,1.0033333,-0.6286695,-0.04314454,0.10452777,0.048921578
-7.544666,1.1985373,-0.98756033,-0.11288789999999999,0.007120943,0.06330309
-9.486708,0.28908548,-2.0848613,0.007923795,-0.0035081116999999998,0.13622294
-9.795091000000001,0.028452694,-2.7432091,0.07180285,-0.040770892,0.16283922
-9.871696,0.38566756,-3.5433227999999994,0.08937831,-0.056740652999999995,0.089919366
-12.931246,0.053457737000000005,-2.423861,-0.016004669,-0.049288097999999995,0.010594148000000001
-16.628813,-1.531724,-0.5678663,-0.13685127,-0.055152405,-0.041556288
-15.644375,-1.1858002,1.338378,-0.21989404,-0.05248205,-0.059655353
-12.210065,-0.16908811,-0.28172090000000005,-0.23904029999999998,-0.034924038,-0.058590703
-14.10542,1.0665212,0.46702254,-0.22361158,-0.11370819999999998,-0.051138148
-13.746184,0.7033686,0.541195,-0.11341149,-0.20846212,-0.044750242999999995
-12.099625,0.098870955,0.6900568,0.108542025,-0.20952678,-0.009616764
-11.475093,0.45976335,0.7339952,0.2799508,-0.20633282,0.05211553
-10.539574,1.2917962,-0.21307437,0.30976105,-0.31492722,0.08140215
-9.318396,0.76279265,-0.9396283999999999,0.28047442,-0.40329322,0.08724901
-8.219515,-0.48435658,-1.5728659999999999,0.2868623,-0.15948819,0.12718214
-7.259268,-0.93505067,-1.5601863,0.28581512,0.037454765,0.1953198
-6.687666,-0.8024215,-1.4409264,0.22884756,0.19502309,0.24853489
-6.5578046,-0.36252046,-1.2614379,0.11280063,0.43137556,0.23897047
-6.5149197999999995,-0.33806127,-1.1018881999999999,0.040927973,0.59800214,0.24375269
-6.646562599999999,-0.9912186,-1.0733206,-0.012287118,0.2077989,0.1287704
-6.9438844,-1.5375372,-1.1105456,-0.013351769,-0.079639375,0.04201007599999999
-7.2317146999999995,-1.5408603,-1.6614993999999998,0.11440633,0.03267256,0.027104963
-7.759627,-1.5316954,-2.0774105,0.11227703,-0.032794736,-0.09798279
-7.7661104000000005,-1.3840019,-1.8748035,0.1463284,-0.27180013,-0.17570229
-7.7677383,-1.252359,-1.6547285,0.07393215,-0.32237977,-0.14802137
-9.274285,-0.02294603,-2.5313703999999997,-0.026127578999999998,-0.20633282,-0.15760323
-10.070703,0.042128373,-3.2494586,-0.050073497,-0.10677924,-0.14535102
-9.7708235,-0.31330523,-3.6997695,-0.017086774,-0.0019198620999999999,-0.08415978
-11.689163,0.2689263,-1.9924066999999999,0.108542025,0.119973935,-0.006946410500000001
-15.872954,2.6413887000000003,-1.2507406,0.24801129,0.13966125,0.08032005
-15.386873000000001,2.6903741,0.7489063,0.24375269,0.155631,0.11492993
-13.084934,0.45254242,0.9211069,0.20916025,0.05503023,0.07288495
-13.224297,-0.46395797,1.4730086000000002,0.15803957,-0.07803367,0.04201007599999999
-13.130664000000001,0.8647282,1.6680787000000001,0.039880775,-0.17545795,0.041469023
-11.852984,0.7564911,0.42744163,-0.1192758,-0.20100957,0.04733333
-10.314748,-0.24508007,0.31606334,-0.25715682,-0.26595327,0.033475414
-10.186073,-1.4226825,0.13583744,-0.31305972,-0.41872194,-0.004834562
-9.7596,-0.6584821,-0.6025151999999999,-0.3135833,-0.50869364,-0.028239427
-8.690157000000001,1.0333374,-0.737146,-0.28270844,-0.43310344,-0.05487315
-7.343371,1.6790631999999999,-0.8730216999999999,-0.20231856,-0.21324433,-0.096918136
-6.8542547,1.330027,-1.0197862,-0.13418092,0.007644542,-0.15920894
-6.6643276,0.7950761,-1.1037941,-0.026651177999999998,0.4590565,-0.12725195
-6.5728974000000004,0.4357926,-1.3438174999999999,0.05424483,0.6640105,-0.19540706
-6.455898,0.3226618,-1.798189,0.07340855,0.5165476,-0.23479915
-6.4744196,0.6083571,-2.2130182,0.114388876,0.31000537,-0.13472196
-6.8908668,0.8688461999999999,-2.2809272000000003,0.12077679,0.5080304,-0.09107128
-7.2100334,1.1631893,-2.1666182999999997,0.20968385,0.5314528000000001,-0.13789846
-7.216976,0.8861419,-1.7692959,0.10693632,0.38505453,0.0015358897
-7.4460053,0.22911553,-1.07718,-0.1767844,0.17798868,0.07553785
-9.153751,-0.35982937,-1.6526026000000003,-0.29283133,0.10026917,0.13409364
-10.125567,0.0070581064,-2.5990016,-0.23905775,0.05183628,0.1915848
-10.176544999999999,0.5727984,-3.5997205,-0.15282103,0.04171337,0.16975072
-10.823735000000001,1.1314614,-3.8505945,-0.10917035,-0.017889624,0.0792554
-15.196918,-0.039791632,-1.7210383000000002,-0.17624335,-0.03705334,-0.010157816
-16.275993,-1.3914238,0.93143064,-0.21724114,-0.017889624,-0.051155599999999996
-12.82572,-0.855975,0.8651113000000001,-0.23851669,0.05609488,-0.076689765
-12.647886999999999,1.0533626,0.5448341,-0.23373449,0.05235988,-0.09852383
-13.802141,1.8411218999999996,0.44493845,-0.19807741,-0.041852996,-0.11449360000000001
-12.756584,0.9979799000000001,0.1822945,-0.059131755999999994,-0.13606587,-0.1123643
-11.587964999999999,0.46562436,0.18015888,0.17879152,-0.13341297,-0.07990117
-11.008989,0.7531680000000001,0.5309094,0.37044615,-0.1312662,-0.027715827999999998
-10.320895,1.1178143999999999,-0.020283677,0.39865065,-0.2771234,0.021240657000000003
-9.170779,0.27993962,-0.75052476,0.32836625,-0.43097416,0.04038692
-8.062828999999999,-0.8982949,-1.3615441000000001,0.23575908,-0.30960396,0.107459925
-7.163297999999999,-1.2668296000000001,-1.2712636999999998,0.23682372,-0.120637156,0.18837339
-6.821799,-0.8547299999999999,-1.419369,0.20647246,0.07524114,0.22085397
-6.622247,-0.25445575,-1.2242893999999998,0.15004596,0.35791466,0.2112721
-6.6397533,-0.39534974,-1.0021458,0.12875293,0.56765085,0.24268803
-6.8341145999999995,-1.0933936000000002,-1.0292481,0.10480702,0.5452932,0.25385815
-6.8573575,-1.073857,-1.4325371,-0.08044223,0.055012777,0.17718582
-7.031876,-0.70084983,-2.0569064999999997,-0.032515485,-0.14458308,0.15591027
-7.3816495,-0.5309956,-2.3211593999999995,0.11384783,-0.048764499999999995,0.089360856
-7.475042299999999,-0.91635674,-2.2080095,0.122382484,-0.13871877,-0.061784655
-8.015405,-0.8132815999999999,-2.0338647,0.15165167,-0.35112533,-0.07138397
-9.666273,-0.3463835,-2.4534152000000002,0.12077679,-0.38786453,-0.02453933
-10.581844,-0.44972685,-3.4225593,0.019634955,-0.29204595,-0.035709437000000004
-10.19023,-0.38449920000000004,-4.401500700000001,-0.054349552999999995,-0.124354705,-0.0075049159999999995
-10.334266,-0.54362744,-4.6020959999999995,-0.03572689,-0.08337438,0.05529203
-13.72004,0.6839851,-2.753782,-0.006440265,-0.004049164,0.08670796
-16.508987,2.340964,-0.094829544,-0.0037873646000000003,0.077911496,0.10691887
-13.837595,2.4997380000000002,1.4038545,-0.019757127,0.06832964,0.08297295
-10.953109,0.9264889999999999,0.6712861999999999,-0.018151425,-0.079639375,0.038257618
-12.438309,-0.055861514,1.2115235,-0.059672805999999995,-0.1717404,0.030281462000000002
-13.0759325,0.61461073,1.1730631999999999,-0.2390752,-0.2473306,0.019093903
-11.476280000000001,0.71367323,0.41464700000000004,-0.42858306,-0.36231290000000005,-0.014433873
-10.678246000000001,-0.36067212,-0.06588843,-0.51481974,-0.5166873,-0.038920842000000004
-10.391879,-0.9276095,-0.37909790000000004,-0.45146433,-0.54595643,-0.085748024
-9.477350999999999,0.23507229999999998,-0.95920336,-0.33435273,-0.35486034,-0.15229744
-7.8401483999999995,1.4213321,-1.2814629,-0.38119736,-0.15629423,-0.20446531
-6.732475999999999,1.5028309,-1.4520833,-0.33595842,0.1412495,-0.17997836
-6.330001,1.1266156,-1.2104223,-0.184778,0.5064247000000001,-0.14964452
-6.3666325,0.66634464,-1.1464204,-0.08363618,0.81252056,-0.22682299
-6.378613,0.26114038,-1.6654737000000002,-0.025080381000000002,0.79548615,-0.2997603
-6.330221,0.201745,-2.2752194,0.06539748599999999,0.3834663,-0.19542451
-6.741172,0.57328683,-2.384826,0.097337015,0.3919835,-0.1288751
-7.3714314,0.69213504,-2.2420166,0.17346828,0.44148102,-0.11238175
-7.0889916,0.6616903000000001,-1.6754527,0.010035643,0.20565215,-0.0085870195
-6.773838499999999,0.931105,-1.0467737,-0.20394172,0.039584067,-0.023474678
-8.374171,1.0292865,-1.7465317999999999,-0.14645058,0.04703662,-0.017627826
-10.437493,0.6028600000000001,-2.5900667,-0.09375909,0.025743606000000002,0.012705997
-10.263071,0.36115098,-3.6348580000000004,-0.13048081,0.0198793,-0.034121186
-10.192988,0.3748745,-3.4486752,-0.16613789,-0.041852996,-0.121963605
-14.513488,-0.7541831,-0.66317475,-0.20181242,-0.039723694,-0.12622221
-17.373466,-1.7236816000000001,1.7607437,-0.23801056,-0.07592182,-0.11716395
-13.317451,-1.0768162000000001,0.0625557,-0.25877997,-0.052499502999999996,-0.12781046
-13.068242,0.74773794,-0.0032561141999999997,-0.2454631,-0.08815658,-0.13580407
-14.356716,1.218256,0.40709090000000003,-0.15177383,-0.20526817,-0.12728687
-12.683571,0.79595715,0.550561,0.03398156,-0.26808256,-0.06340781
-11.397607,0.5267914,0.78695494,0.24000022,-0.29204595,0.03398156
-10.8337345,1.23084,0.13120225,0.33527774,-0.31972685,0.13459979
-9.975662,1.2640523000000001,-0.6983982,0.30600858,-0.47464228,0.1436406
-8.847255,-0.04468538,-1.1579508,0.26820475,-0.4272566,0.12501794
-7.8376875,-1.06881,-1.2955121,0.36880553,-0.17654005,0.17664477
-6.837859,-1.3504831,-1.259149,0.36295867,0.08428195,0.23146556
-6.461175,-1.0459789000000002,-1.2889712,0.26981044,0.34566244,0.22987731
-6.4657617,-0.7581191999999999,-1.1140987,0.16812757,0.6980619,0.2192308
-6.663819999999999,-0.8483135,-1.0181295,0.25968754,0.77897537,0.30014428
-7.004448,-1.0512270000000001,-1.1304941000000002,0.28363347,0.2541025,0.22348939999999998
-7.3459187,-1.2190317,-1.6864374,0.3342131,-0.13021901,0.115959674
-7.703507000000001,-1.1939118,-2.3467486,0.16865116,-0.1653525,-0.04639085
-8.069360000000001,-1.218639,-1.9848986000000002,0.13779375,-0.09136798,-0.13953908
-8.079588000000001,-1.3252002,-1.3999376000000001,0.22348939999999998,-0.20793852,-0.104929194
-8.764723,-0.69029623,-1.6460807000000002,0.15535176,-0.1823869,-0.06501351
-9.633531,0.2513337,-3.0589470000000003,0.043563418,-0.07113962,-0.13261011
-9.366079,-0.036458906,-4.09013,0.03769911,0.05820673,-0.14540339
-8.979693,-0.48970044,-4.506270400000001,0.18357372,0.16360717,-0.06766641
-11.62632,0.23561817,-1.0602962,0.29056242,0.07897615,0.02867576
-16.108784,2.3985496,0.9227732,0.25916395,0.06140068,0.063268185
-15.664275,3.0411723,1.5781524,0.19048524,0.03211406,0.051015973
-12.174209,1.2443433000000002,0.6763140999999999,0.101054564,-0.08498008,0.027052603999999997
-12.645982,-0.0028060044,1.4952077,-0.030944687999999998,-0.21432643,0.03452261
-13.286546,0.04450342,1.0460554,-0.17786649999999998,-0.25745353,0.049951322
-11.50207,-0.39788762,0.0030933088,-0.28806659999999995,-0.31920326,0.023317598
-10.930441,-1.2339046,-0.28911424,-0.3636568,-0.47783625,-0.025621433
-10.2623625,-0.8970594999999999,-0.745564,-0.41369540000000005,-0.62102306,-0.05703736
-9.215244,0.86705536,-0.78646654,-0.37962657,-0.5459739,-0.07192502
-7.765363000000001,1.8380956999999998,-0.8902983,-0.36311576,-0.44057345,-0.12144001
-6.862835400000001,1.5250393999999998,-1.3389812,-0.3636568,-0.19622737,-0.14327408
-6.762336299999999,0.8506311,-1.3140241000000001,-0.28434905,0.33927456,-0.077265725
-6.743489299999999,0.58568877,-1.3435398,-0.14327408,0.7773696,-0.06768387
-6.751734700000001,0.5508483000000001,-1.7347428,-0.13740978,0.63151246,-0.14166838
-6.681603999999999,0.75878954,-2.1688308999999997,-0.08100073,0.30094713,-0.07993608
-6.878676,0.85898215,-2.327442,0.094125606,0.420188,0.06592108
-7.193005599999999,0.9767673000000001,-2.3376317,0.19846138,0.38664278,-0.024033183
-7.364018400000001,1.0302536,-1.7578228999999999,0.19046777,0.30305898,0.093060955
-7.242374000000001,0.99924403,-1.0418895000000001,-0.06768387,-0.108926,0.13032374
-8.398849499999999,0.49487190000000003,-1.2742228999999998,-0.10972885,-0.17493436,0.12341223
-9.718084,0.09084559,-2.348482,-0.0038048178,-0.080721475,0.16013396
-9.905693,0.49920059999999994,-3.4134612,0.052080624000000006,-0.061557762,0.15322246
-9.799085,0.66034955,-3.717343,0.04888667,-0.029618237000000002,0.051539574000000005
-13.791857,-0.43291956,-1.8291988000000001,-0.0053930674,-0.023230333,-0.028291788
-16.0532,-1.5798762,0.4179127,-0.12784536,-0.019512782,-0.07674213
-14.184764000000001,-1.7918971999999997,2.1323814,-0.26783824,0.06138323,-0.11400491
-11.772155,-0.52016425,0.6078781999999999,-0.32906437,0.080546945,-0.120392814
-14.458067000000002,0.8770726999999999,1.3349111,-0.3067067,0.0038920840999999997,-0.10707595
-14.188001000000002,0.9760777,1.2257833,-0.16936675,-0.10307915,-0.07674213
-12.106319000000001,0.6005903,0.8409394,0.10636036,-0.19411552,-0.009128072
-11.630984,1.1443231000000003,0.6663255,0.30970868,-0.20474458,0.06750934
-10.806497,1.5588742,-0.2646072,0.350689,-0.32772046,0.0946492
-9.469231,0.46630429999999995,-1.0415832,0.38636354,-0.5049760999999999,0.10103711
-8.1086445,-0.85727745,-1.3533657,0.34217179999999997,-0.34529594,0.12126548
-6.8853793,-1.1656601,-1.5669858,0.2665816,-0.03387684,0.18779743
-6.3621693,-0.9592321,-1.6716986,0.2532822,0.15880750000000002,0.26019368
-6.189978599999999,-0.5223956,-1.3322583000000001,0.27031659999999996,0.41006509999999996,0.2830924
-6.339587,-0.41875547,-1.1465832,0.24263567,0.7566002,0.29000390000000004
-6.862614999999999,-0.87960094,-1.0979139,0.32887238,0.7810872,0.3139673
-7.162408,-1.2862129999999998,-1.1947354,0.26232300000000003,0.10983357,0.17982127
-7.2578883,-1.3931572,-1.8064634999999998,0.25539404,-0.23457225,0.05258677
-7.7294979999999995,-1.0947152,-2.1457794,0.29000390000000004,-0.017907077,0.035552356
-7.9093413,-0.90887725,-1.8315451,0.115942225,-0.055169857999999995,-0.13210396
-7.642656,-0.97978395,-1.4718307,0.054716073,-0.29152235,-0.21088813
-8.805319,-0.28585809999999995,-2.0599997,0.094631754,-0.3335848,-0.09698795
-10.167342,0.13065638,-2.8798895,0.096778505,-0.16376424,-0.08953539
-9.928831,-0.21972068,-3.745058,0.095713854,-0.021642083,-0.07035422
-9.843061,-0.5514899999999999,-4.189125,0.1585108,0.052866023,0.007871435
-13.446794,0.43678859999999997,-1.7505349,0.21067870000000002,0.09705776,0.056845374000000004
-16.574903,2.321638,-0.23770592,0.20909044,0.10983357,0.096761055
-14.894186,3.0591385,1.6352973,0.16065755,0.076829396,0.096761055
-11.00447,1.1655262,1.4989331,0.11487757400000001,-0.043458696,0.068032935
-12.150794,-0.00026815060000000003,1.0632075,0.023841197,-0.13821262,0.046739917
-13.237637,0.5908411,1.3444113000000002,-0.121474914,-0.19783308,0.019582594
-11.710357,0.7075345000000001,0.68190694,-0.27159068,-0.27022934,-0.017139133
-10.976591,-0.62430245,0.15462711,-0.33971090000000004,-0.39746383,-0.05544911
-10.621943,-0.94744307,-0.36963603,-0.34131658,-0.52735126,-0.10124655
-9.560908999999999,0.4839831,-0.8238065,-0.30085987,-0.53000414,-0.13583897
-7.970834,1.5567962,-1.0264804,-0.33227578,-0.34049627,-0.18481292
-7.1144853,1.3829675,-1.3152403999999998,-0.37592646,-0.035482544,-0.17416641
-6.6783576,0.960209,-1.3600406999999999,-0.23752186,0.48352602,-0.14116223
-6.3457550000000005,0.6777602,-1.5575048,-0.07728318,0.8662593000000001,-0.18003072
-6.1618614,0.41349778,-1.9539751,-0.046949357000000004,0.79758054,-0.29873055
-6.189413500000001,0.20208979,-2.250492,-0.005410521,0.30572933,-0.28221974
-6.443247,0.3647614,-2.2887707,-0.020333085,0.40793579999999996,-0.06717772
-6.9617352,0.7013478,-2.161696,0.2926568,0.19394098,-0.0400204
-7.553025999999999,1.0643375,-1.7599776999999999,0.2990447,0.40100685,0.0020071286999999998
-7.493382,1.1969571,-1.0259824,0.072815135,0.16678366,0.13775884
-8.418808,0.8640770000000001,-1.4215716,-0.12573352,0.008691739,0.14786429999999998
-9.788866,0.022246921,-2.471362,-0.12732176,0.033161256,0.13028882
-9.93745,0.08513781,-3.3874123,-0.11986921,0.0858702,0.10793116
-9.840264,0.71351045,-4.2666683,-0.15395549,0.08480555,0.011047933999999999
-12.804583000000001,0.8623148000000002,-2.463059,-0.22048745,0.034766957,-0.066636674
-15.436807,-0.7864281999999999,-0.016931795,-0.2582738,-0.013648475,-0.08792969
-16.0765,-2.4652712,2.862651,-0.27530822,0.0251851,-0.09325294
-11.537467,-0.63570845,0.7479678000000001,-0.23593360000000002,0.035290558,-0.074630275
-12.516015,1.1494561,0.13787729,-0.15022048,-0.022183135,-0.061854467
-14.2738285,1.8494058999999998,0.7815919,0.0052010813,-0.06955137,-0.06824237
-12.826369999999999,1.2046569999999999,0.5017768,0.20268509,-0.13823007,-0.043231804000000006
-11.95083,1.1034971000000002,0.72942704,0.37569958,-0.1701696,0.021694442
-11.18389,1.2892393,-0.30374759999999995,0.51995105,-0.27450538,0.07120943
-9.825287,0.6793595,-1.082706,0.45074874,-0.41449824,0.096761055
-8.431975999999999,-0.48200068,-1.5322412,0.35014796,-0.33145547,0.12870058
-7.281839999999999,-0.8984385,-1.4912716000000001,0.31766737,-0.19624482,0.18830357
-6.655019,-0.96621364,-1.4695513999999998,0.23675391,0.0038920840999999997,0.22823670000000001
-6.5734243,-0.5481477,-1.2668104,0.19790289,0.26951376,0.22771311
-6.367111,-0.529291,-1.036019,0.20268509,0.567616,0.24898867
-6.664203,-1.0043676,-1.046563,0.25111797,0.49734902,0.2851868
-6.9851413,-1.2267603,-1.3760723,0.13402383,-0.016318828,0.16062266
-7.0865789999999995,-0.9109649999999999,-1.9156389999999999,0.10580186,-0.24043655,0.05469862
-7.497385,-0.86726606,-2.4299712,0.1638166,-0.1552645,-0.031520646
-7.533078,-0.7472591,-2.0282430000000002,0.20162043,-0.1595231,-0.09433505
-7.671434,-0.8194969000000001,-1.909577,0.23303635,-0.36925929999999996,-0.07037167
-9.185834,-0.2027027,-2.421831,0.09728465,-0.3612657,-0.052813664
-10.399502,-0.21712537,-3.1247015,-0.06239552,-0.23830725,-0.08103564
-10.169534,-0.26643634,-3.7636849999999997,-0.13159783,-0.06796312,-0.055466562999999997
-10.095792999999999,-0.42843760000000003,-4.173151,-0.094876096,0.026249751,0.0025307273
-13.608239999999999,0.8124675,-2.016167,-0.0027750734999999996,0.06084218,0.06799803
-16.49715,2.3396235,-0.08692867,0.040858157,0.12365658,0.13187708
-14.079351999999998,2.77759,1.0228126,0.049898963,0.079482295,0.12868312
-11.377007,0.9856162,1.0129006,0.05682792,-0.062098815999999994,0.092484996
-12.763336,0.13170025,1.7126874,-0.023544492,-0.22020820000000002,0.08077384
-12.986284,0.39620209999999995,1.3379661,-0.21252874,-0.27024677,0.06958628
-11.26176,0.37048835,0.13594279,-0.36636207,-0.31815606,0.0344528
-10.492072,-0.7484466,-0.032877177,-0.38926077,-0.416645,0.00038397242
-10.00354,-1.2075874,-0.40162256,-0.3738146,-0.47839475,-0.024609142999999997
-9.420494,0.32134977,-0.7406702,-0.29715976,-0.36180675,-0.06986553
-7.753133999999999,1.705543,-0.9630724,-0.23382176,-0.19572122,-0.10658725
-6.640989,1.6932178,-1.2546479,-0.17418386,-0.013124876,-0.14224434
-6.3740354,1.1078354,-1.1235318,-0.094876096,0.44411647,-0.1614255
-6.540097,0.5476018,-1.2021478,-0.04909611,0.83536696,-0.26363197
-6.5670557,0.23938186,-1.720684,-0.08688249,0.70921457,-0.35571554
-6.517247,0.23212264,-2.3038924,-0.021956242999999997,0.23809782,-0.21731095
-6.7075667,0.6304603,-2.4019876,0.17393951,0.29771826,0.055745817999999996
-7.1318674,0.9686365,-2.3689668,0.4134685,0.33232814,-0.1007404
-7.223057700000001,0.6214677,-1.8176683,0.34480724,0.43292892,-0.052290063
-7.1478224,0.27477774,-0.96609867,0.039776053,0.11033971599999999,0.09194394
-9.09472,0.3013534,-1.282842,-0.10606366,0.035290558,0.20373228
-10.083247,0.40286753,-2.4323363,-0.061871924,0.019320795,0.25483552
-9.488087,0.51571107,-3.9670007000000007,0.011030481000000002,0.056583576,0.20533799
-9.335108,0.818635,-4.498963400000001,0.0073129297,0.046460666,0.09300859
-13.909652,0.16608098,-1.7154647,-0.09861110000000001,-0.02857104,-0.0033161256
-17.550648000000002,-1.3085461999999999,1.6267451000000002,-0.19495328,-0.06796312,-0.05921902
-14.958445999999999,-2.2723465,2.887915,-0.23647466,-0.0046251225,-0.08583529
-10.344187,-0.48175168,0.5311104999999999,-0.23223351,-0.07969173,-0.09543460599999999
-13.846348999999998,1.7395407999999999,0.9915825999999999,-0.16674876,-0.20371483,-0.07199483
-14.415967000000002,2.315126,0.41875547,-0.0033161256,-0.25427702,-0.075188786
-12.642582,1.3211875,0.43870395,0.24205971,-0.2851519,-0.051766466
-11.948943,1.1446391000000002,0.34961090000000006,0.38098790000000005,-0.3165678,-0.007592181999999999
-10.579087,0.9962848,-0.49638504,0.31871456,-0.54120916,0.003577925
-9.1650715,0.121079564,-1.2577028000000001,0.23460716,-0.530039,0.015812684
-7.937506,-0.85416496,-1.633334,0.19947368,-0.19732693,0.095137894
-7.035285000000001,-0.73413885,-1.5130205,0.16805775,-0.029112091,0.16379915
-6.689648599999999,-0.28279352,-1.4236498,0.15899949,0.19551179,0.21170844
-6.637752000000001,0.12010274,-1.0468407,0.13346533,0.53993505,0.20586158
-6.584993400000001,-0.28416303,-0.96298623,0.1579523,0.80768603,0.21223204
-6.8256583,-1.1388258999999998,-1.073129,0.17818066,0.32007593,0.11004301
-7.084079300000001,-1.1750454,-1.5398452,0.21704915,-0.10841985,0.015812684
-7.335431599999999,-0.89689666,-1.9661375,0.11482521,-0.24364796,-0.035273105
-7.6987567,-0.7542406,-1.9325516999999999,0.07916813,-0.007278023000000001,-0.08691739
-7.505822,-0.8012053000000001,-1.6773011999999998,-0.0038571777,-0.19465657,-0.2151991
-8.373509,-0.8422226999999999,-1.7824064,0.06956882,-0.38470548,-0.1412146
-10.379755000000001,-0.09955089999999998,-2.570616,0.058922317,-0.33307862,-0.099152155
-10.25858,-0.17642394,-3.2627509,0.002513274,-0.14995869,-0.11033971599999999
-9.612461,-0.5161133,-3.9267589999999997,0.1010022,0.021450097,-0.064001225
-11.035824,-0.36875495,-2.5802118999999997,0.25642377,0.1513375,0.008901179
-14.514454999999998,2.0001736,-1.6874238000000001,0.3527834,0.1390853,0.07808603
-15.567348499999998,2.9820740000000003,1.6131556,0.33892548,0.08691739,0.102573
-12.1463785,1.8969738,1.1771619,0.2670703,-0.033894293,0.07169812
-10.911048,0.2716461,1.1666658,0.18404497,-0.14835298,0.04775221
-13.202729000000001,0.34244746,1.7778863999999999,0.032847095,-0.24577726,0.06743952
-13.083163,0.5800672,1.6436481,-0.16835445,-0.3234968,0.054140113
-11.116717999999999,0.17396270000000003,0.6048424,-0.36318555,-0.45497242,0.008360127
-10.969705000000001,-1.1688492,-0.11432792,-0.43025857,-0.60828215,-0.026232297999999998
-10.2063,-0.5434838000000001,-0.5586055999999999,-0.31421164,-0.5917713000000001,-0.06827728
-8.624516999999999,0.844253,-0.9565314,-0.26471409999999995,-0.40228093,-0.1518611
-7.4490414000000005,1.3584604,-1.2796146000000002,-0.34562755,-0.06424557,-0.17315412
-6.7542919999999995,0.9826187,-1.354601,-0.26310837,0.30836478,-0.16144295
-6.493697,0.78460866,-1.5062498,-0.06349508,0.8524014000000001,-0.17050122
-6.361499,0.5500439,-1.6807104,-0.04485496,0.95673716,-0.23010421
-6.359114599999999,0.30539479999999997,-1.9106303,0.024853487999999996,0.48829076,-0.22319270000000002
-6.4350586,0.35255098,-2.2767422,0.06583382,0.50265485,-0.06723008
-6.9026464999999995,0.53552544,-2.4141884,0.2308547,0.3488215,-0.09011135
-7.3297143,0.6895205,-1.9971952000000002,0.24736552,0.42334706,-0.053930674000000005
-6.891576,1.0927712,-0.9048359,-0.047001716,0.17208946,0.022183135
-7.1446905,1.3172036,-0.76060915,-0.23757422,0.053372167000000005,0.038152896
-9.519096000000001,0.5184021,-1.8345906000000003,-0.20774654,0.023038346,0.058922317
-10.291188,0.016519992,-2.7274363,-0.18699458,0.026232297999999998,0.06956882
-9.959927,0.07561847,-3.5009932999999998,-0.2258456,0.054436818,-0.003874631
-12.45482,0.060266845,-1.8320622,-0.2897421,0.049654618,-0.08107054
-15.673986,-0.90098596,0.13406572,-0.30143583,0.00013962633999999998,-0.07894124
-16.255384,-1.6618057000000002,2.3137279,-0.31742302,-0.048275806,-0.07733554
-12.151262,-0.23893175,0.26162878,-0.34988615,0.00013962633999999998,-0.10075786
-13.181957,1.6132323,0.17991947,-0.3094294,-0.094055794,-0.11355112
-13.578254999999999,1.8641636000000001,0.40212053,-0.2088112,-0.21809635,-0.09543460599999999
-12.193899,1.000106,0.6122930999999999,-0.021973696,-0.25961772,-0.045396015
-11.537189,0.7694773,0.7665563,0.20584413,-0.24630086,0.038152896
-10.768208999999999,0.9757234,-0.07480443,0.29366909999999996,-0.35224235,0.11054915
-9.686059,0.6877201000000001,-0.78039485,0.24630086,-0.52578044,0.12971286
-8.787687,-0.26430073,-1.241566,0.24363051,-0.4272915,0.15793484
-7.888262700000001,-0.92735094,-1.2716755,0.25853562,-0.14889404,0.21701424
-6.824414,-1.2279476999999999,-1.5694853000000002,0.26759390000000005,0.10341076,0.26918212
-6.498524,-0.7945972,-1.6071223,0.23031364,0.42439425,0.29525736
-6.738883,-0.5860430999999999,-1.0832326,0.19252726,0.6841865,0.325085
-6.846344500000001,-0.8135689,-1.0643375,0.26120597,0.40044835,0.30218629999999996
-6.8894210000000005,-1.1129687,-1.2504053999999998,0.18668042,0.017174039,0.17390461
-7.0175676,-1.1329458000000001,-1.7969537,0.21329668,-0.10470230000000001,0.10841985
-7.662833999999999,-1.1292108,-2.257828,0.17229891,-0.0041015237,-0.0012217305
-8.043771000000001,-1.0004986999999999,-1.660944,0.20797344,-0.18987437,-0.064577185
-8.053165,-1.0845733999999998,-1.3368936000000002,0.18294542,-0.3447898,-0.008133234
-9.008375,-0.80765045,-2.0965354,0.034417894,-0.26441738,-0.019320795
-10.148628,-0.41729978,-2.9855025,-0.10182251,-0.11641346,-0.076270886
-9.91007,-0.5804119000000001,-4.132105,-0.09384635,0.017697638,-0.056583576
-10.372955000000001,-0.53384954,-2.993595,0.007819075,0.06881833,0.01685988
-14.507952,2.1132755000000003,-0.6568253000000001,0.08925614,0.04485496,0.08019788
-16.55807,3.1924956,0.88824886,0.11267845,0.10128146,0.10735519999999998
-12.431211,2.191863,1.1042536,0.077003926,0.051766466,0.09349729
-11.840247,0.34706348,1.29081,0.023771385,-0.104178704,0.07860963
-13.569253,0.29083803,1.9712324,-0.11194542,-0.25694737,0.07913323
-12.659360000000001,0.25491545,0.8704072,-0.31955233,-0.32669073,0.060510565
-10.775957,-0.08897811,0.041812338,-0.45263368,-0.39482838,0.013124876
-10.222025,-1.3052039,-0.28775429999999996,-0.5223770000000001,-0.533774,-0.043284167000000005
-9.679202,-0.71448725,-0.5341847,-0.4680624,-0.5699546999999999,-0.058712877000000004
-8.767816,1.1172398000000001,-0.7934193,-0.3131644,-0.34000759999999997,-0.07735299
-7.1528883,1.8234241000000002,-1.0505565000000001,-0.21628119999999998,-0.13824753,-0.11780973
-6.452479,1.5992309999999998,-1.3017178999999999,-0.13165018,0.13055062,-0.17263052
-6.448112,1.1449169,-1.1549916,-0.02677335,0.57505107,-0.18701203
-6.656637,0.7941854,-1.240005,0.033894293,0.8332202,-0.30571187
-6.607622999999999,0.69708616,-1.869048,0.034958944,0.62880725,-0.3562915
-6.562181,0.7371938,-2.2695022000000002,0.021642083,0.36264452,-0.18807667
-6.8738394,0.9058318999999999,-2.2143013,0.17549285,0.35732126,-0.008691739
-7.221860400000001,0.92555046,-2.2131042,0.3335848,0.45420447,-0.056059975
-7.3459277,0.7179158,-1.1809735000000001,0.24469516,0.31314698,0.036023594
-7.530367999999999,0.16127342,-0.83798015,-0.045413468,0.054436818,0.073809974
-9.347136,-0.22730552,-1.6498157,-0.06455973,0.09756391,0.1552645
-10.037239999999999,0.100355364,-2.6933427000000005,0.009389871999999999,0.046443213,0.17708111
-9.65798,0.76168174,-3.9052496,0.04187045,0.0033335788,0.087126836
-9.706046,1.0566665000000002,-3.9038608,-0.059253927000000005,-0.017418386,-0.023579397999999998
-14.460949,0.22666386,-0.9720651,-0.1470789,-0.039776053,-0.10077531
-16.970667000000002,-1.496673,2.9072310000000003,-0.17369516,-0.004642576,-0.11248647
-13.155429999999999,-1.8799846000000002,2.1331474999999998,-0.13323843,0.0033335788,-0.10238101
-12.654342999999999,0.14647727,0.91386676,-0.07096509,-0.09672615,-0.081088
-15.024085000000001,1.9743737000000001,0.97858685,0.061034165,-0.17976889999999998,-0.09705776
-13.716045999999999,1.9181865000000002,0.12273636,0.25427702,-0.2553591,-0.10449286599999999
-12.464674,1.5528505,0.67005086,0.41395718,-0.33468434,-0.062465332
-11.721436500000001,1.5856607,0.09627564,0.48635346,-0.43209115,-0.026249751
-10.054565,0.6705871999999999,-0.81151944,0.5092522,-0.5284508000000001,-0.0012217305
-8.504664,-0.9104190999999999,-1.3924676,0.44430846,-0.31232667,0.06316347
-7.3555717000000005,-1.2806298,-1.2887988000000001,0.28939304,-0.08662069,0.12278391400000001
-6.9260325,-0.70007414,-1.1318636,0.21806143,0.13428563,0.18345156
-6.7642136,-0.06492117,-0.98238885,0.22127284,0.44994587,0.22657864
-6.458838,0.033308133,-0.89322877,0.21753784,0.76188856,0.26651177
-6.632025,-0.8934585999999999,-0.7085592,0.23296654,0.6096435,0.28035223
-7.233822,-1.3587286,-0.8857301,0.12545426,-0.0977908,0.11159635
-7.346799400000001,-1.1119629999999998,-1.4293864,0.11639601,-0.21277308,0.047193702000000004
-7.3758173,-0.26024973,-1.7480354,0.23828979999999997,0.12044517,0.010454521999999999
-7.3097086,-0.14619954,-1.4251821000000002,0.1690875,-0.027000242999999997,-0.15296066
-7.363491499999999,-0.57593,-2.0248625,0.16536994,-0.32775540000000003,-0.14496705
-8.860643,-0.7609443,-2.6990887999999997,0.103602745,-0.32777283,-0.048101272
-10.024187,0.026642676,-2.9472144,0.021642083,-0.17818066,-0.041695915
-9.577860000000001,0.20985657,-3.5615282,0.012042772,-0.015289084,-0.013491395
-9.929894,-0.32977733,-3.869212,0.1020145,0.06719518,0.042376593
-14.381031,1.1540244,-1.5625136,0.16111134,0.08689994,0.10040879
-16.91111,3.1575403,0.32360032,0.1626996,0.1571669,0.13554227
-13.370477,2.7581491000000002,1.5896925,0.13927728,0.10712831,0.119572505
-10.880977,0.46060609999999996,1.689272,0.088715084,-0.04935791,0.08604473
-13.048362,-0.35772246,1.8519342,-0.04701917,-0.15741125,0.06527531
-13.318168,0.50497544,1.5363016999999999,-0.26207864,-0.222896,0.039200094
-11.470227000000001,0.60882634,0.40738779999999997,-0.41591197,-0.30965632,-0.005497787
-10.592255,-0.72395873,0.20916703,-0.42442918,-0.41718605,-0.03211406
-10.230203,-1.0878582,-0.35676476,-0.43029347,-0.5422912,-0.05820673
