accx,accy,accz,gyrx,gyry,gyrz
-7.811628999999999,0.034715924,-1.2544467,0.0888198,-0.02825688,-0.1635199
-7.799648299999999,-0.0050374004,-1.6636349999999998,0.29909706,-0.09800023599999999,-0.112399206
-7.4724565,-0.13212162,-1.7476044999999998,0.22670081,0.09255481,-0.23591615
-7.495603999999999,-0.0034859576000000002,-1.5481003999999998,0.49977502,-0.22469369,-0.23591615
-8.337147,0.8604378,-1.6587412,0.5514193000000001,-0.10012954,-0.28701940000000004
-9.697341,1.3436738000000001,-1.8559085,0.27726302,-0.13100441,-0.40041342
-10.314556,1.2875155,-2.4307373,0.028658306,-0.16613789,-0.35035738
-9.774098,0.57736653,-3.8701792,0.0068416907,-0.24066345,-0.153397
-9.684498,0.19734927,-3.3535774,0.18570304,-0.53344244,-0.022985986
-12.740409,0.9255984,-0.96998686,0.35445893,-0.6148795,0.0036128315
-16.07425,1.3901596999999999,0.24395958,0.3917217,-0.55260617,0.006806784000000001
-12.877425,2.2595422000000003,1.7996352999999998,0.3289073,-0.51853734,0.05045747
-13.09543,0.8396370000000001,2.025734,0.25490534,-0.50150293,0.120724425
-13.001636,0.3174137,2.58071,0.2144486,-0.49298569999999997,0.18832102
-12.579347,-0.8402116,0.63069016,0.16228071,-0.5089555,0.23251276
-12.417814,-0.86375135,-0.30107567,0.08349655,-0.48392743,0.24263567
-12.940813,-0.28963137,0.020015526999999998,-0.031468287000000005,-0.4871214,0.20856684
-12.433415,0.78475225,0.15999013,-0.20074777,-0.47115162,0.15746361
-10.635378999999999,1.2761382,0.12691185,-0.39077923,-0.34074062,0.14362314
-8.662652,1.5404006000000001,-0.345943,-0.5430243,-0.20818287,0.18887953
-7.544359,1.6188443000000001,-0.6830849,-0.47171015,0.04145157,0.22560126
-7.1892130000000005,1.4697813,-0.9149968,-0.16613789,0.1335526,0.20270254
-6.9945835999999995,1.2922176,-0.7910634,-0.05862561,0.23521802,0.097825706
-6.704157400000001,1.3649632,-0.47132254,-0.05914921,0.41514403,-0.035761796
-6.4904795,1.6097847,-0.25648606,-0.39451423,0.5860291999999999,-0.16193165
-6.791775,2.0003173,-0.31457895,-0.10386454,0.9240471,-0.21568778
-7.248695,2.2325451000000003,-1.1016488000000002,-0.49513245,-0.051679197999999996,0.08559094
-7.499664999999999,2.2702873,-1.6938785,-0.41580725,0.1335526,0.15905185
-8.118461,2.2230353,-1.798984,-0.11238175,0.6105162,0.10740756
-8.710374,1.3783036,-1.7317357,0.22403046,0.35232959999999997,0.31183797
-9.01596,0.51905334,-1.1513524,0.16866861,-0.042638395,0.37517598
-9.779423,0.70839643,-0.53968185,0.06539748599999999,-0.09107128,0.18833847
-9.803078,0.06417418,-2.2673569,0.08562585,-0.17146115,0.08932595
-8.982786,0.11339897,-3.7338727,-0.030927233,-0.20765927,0.031293754
-9.917578,0.5412140999999999,-1.8945988,-0.20340067,-0.10971139,0.012671091
-16.335419,0.5757479999999999,4.369878,-0.21778218,-0.04209734,0.0041538836
-19.260939999999998,-2.0062451,2.8370142000000005,-0.20659462,0.012182398,0.013194689499999999
-11.685188,-1.9110613999999997,1.7774265999999999,-0.19168949999999998,0.043057274000000006,0.028099801
-9.406589,2.0264907,3.4975457000000003,-0.17254324,0.021764256000000003,0.02490585
-11.955417,3.8657641000000003,3.7467246,-0.1789137,0.015376351000000002,-0.003822271
-11.769387,2.2812335,0.20764431,-0.1251401,0.024958208,-0.046931904
-11.042882,1.4351037,0.48614743,-0.020821778,0.021764256000000003,-0.05651376
-10.341467,0.8297537,0.78986627,0.05103342599999999,0.026546458,-0.05066691
-9.54394,-0.17388608,-0.08092402,0.12288863,0.036128316,-0.04108505
-8.386735,-0.6052063,-0.5437806,0.24425882,0.05635668,-0.06290167
-7.4942155,-0.14260823,-0.27060226,0.18305013,0.10587167,-0.10442304599999999
-6.9995065,0.40330806,-0.39679584,-0.04209734,0.13461724,-0.11826351
-6.74777,0.36880282,-0.34330934,-0.16880825,0.21073106,-0.07834783
-6.7268834,-0.21472159,-0.20533632,-0.04956735,0.32145473,0.046739917
-7.072175,-0.7844171,-0.164338,0.11863003,0.51841515,0.20004964
-7.6356744999999995,-0.76080066,-0.4159303,0.32571334,0.8953015,0.010000736
-7.836825999999999,-0.66795355,-0.8847533000000001,0.025481807000000002,-0.010698868,-0.27530822
-7.621261,-0.68505776,-1.2410201,0.11971214,-0.35404003,-0.07513642
-7.2963204,-0.7268126,-1.2134485000000002,0.25651103,0.30389673,-0.06609562
-7.5080633,-0.103094324,-1.125993,0.28258625,0.020158553,-0.32960543
-8.356933,0.75200915,-1.5657792,0.34220672,-0.25769785,-0.43340015
-9.588625,1.1658038,-1.8745353999999999,0.09468411,-0.14484487,-0.42701226
-10.414854,1.560828,-2.0576248,-0.14538592,-0.044226642999999996,-0.33279938
-9.736002000000001,1.0824951999999999,-3.5194862000000002,-0.03944444,-0.21937044,-0.21034709
-9.617739,-0.02297476,-3.426888,0.1378112,-0.50628513,-0.13423327
-12.715548,0.89101654,0.23930526,0.2580993,-0.52970743,-0.09964084599999999
-17.671343,1.8790748,0.27192387,0.27726302,-0.48073348,-0.08313003
-12.253084,2.429377,1.1242021,0.18889698,-0.49031535,-0.031503193
-10.8775,1.2962592,2.4036446,0.11756538,-0.46369907,0.04993387
-13.901079999999999,0.045987825999999996,3.7117693,0.10159562,-0.43762386,0.13404128
-13.632651000000001,-0.272939,1.0990056000000001,0.06752679,-0.44827035,0.17769197
-12.970033,-0.461717,0.17801368,-5.2359880000000005e-05,-0.48179814,0.18940313
-12.938122,-0.30119058,0.631916,-0.10438814,-0.5089555,0.16756906
-12.460068,0.9120472,0.5394998000000001,-0.26143286,-0.4626344,0.13936454
-10.583463,1.3521683999999998,0.36433047,-0.48233919999999997,-0.32794738,0.14416419
-8.789431,1.7243998,0.042252872000000004,-0.6809053,-0.05806710599999999,0.17928022
-7.753162400000001,1.5793781999999998,-0.5126465,-0.63034314,0.31134927,0.20163789999999998
-7.1453996,1.1931648000000001,-0.6810067,-0.2539803,0.38959240000000006,0.19312069
-6.539685700000001,1.1495806999999998,-0.36346853,-0.06553711,0.44230133,0.095713854
-6.0914717000000005,1.6057911,0.105268255,-0.06499606,0.60784584,-0.059166662
-6.134912,1.9133215000000001,0.19520405,-0.42324233,1.0278593,-0.15126769
-6.6972814,2.1130075,0.102500565,-0.33489376,0.9134005999999999,-0.16723745
-7.1574855,2.2864148999999996,-0.5543821999999999,-0.41580725,-0.060196407,0.25912905
-7.4355,2.330966,-1.1352826,-0.27419123,0.28632125,0.17343336
-7.9278917,2.1508743999999997,-1.508414,0.22989477,0.62967986,0.26445228
-8.086186,1.2555673,-1.8024412,0.31932545,0.20221385,0.37732273
-8.505162,0.47268248,-1.5053303,0.14578736,-0.071907565,0.25274113
-9.528588000000001,0.7876156999999999,-0.40676528,0.11171853,-0.09374163,0.11913618
-9.664195,-0.38040033,-1.982016,0.038798667,-0.14004523,0.025446901
-8.755117,-0.5187948,-3.8637337999999994,-0.12355186,-0.119816855,-0.053319807999999996
-12.610136,-0.61771363,2.161198,-0.19701277,-0.08894198,-0.0421497
-19.276283,-0.64498836,0.3758801,-0.18903661,-0.03944444,-0.013404128999999999
-17.703934,-2.2221064999999998,3.582875,-0.20392427,0.0068591437,-0.013927726999999999
-10.577344,-0.19564459,3.4057807999999996,-0.18744837,-5.2359880000000005e-05,-0.010751228
-11.095526,2.7726963,4.9590716,-0.14165092,-0.07351327,-0.019792033
-12.125664,2.5675802000000005,1.1885391,-0.09958848,-0.09904744,-0.059707712
-11.072723,1.3854383,-0.040136397000000004,-0.006440265,-0.08361872,-0.10602875
-10.559453999999999,1.4014125,0.7894066,0.0861669,-0.085748024,-0.107617
-9.442368,0.26293126,-0.09175538,0.1580221,-0.054349552999999995,-0.06822492
-8.869895,-0.6424505,-0.5799906,0.24160592,-0.005375614,-0.05544911
-8.271574000000001,-0.527299,-0.31192620000000004,0.25064674,0.15217526,-0.097511545
-7.466404400000001,0.08093359,-0.2868158,0.10000736,0.25546384,-0.13049826
-7.03495,0.27033409999999997,-0.458164,-0.08522443,0.31826079999999995,-0.12571606
-6.95189,0.06574478,-0.43464336,-0.07351327,0.42207298,-0.046931904
-7.100915,-0.4924107,-0.35173696,0.028134707000000002,0.5668655,0.054192472
-7.422283599999999,-0.9020011,-0.3579906,0.25225243,0.80321795,0.088784896
-7.802397,-0.7355754,-0.56922626,0.072326444,0.7419918000000001,-0.17469001
-7.846029,-0.5783338000000001,-1.0703614,0.1942377,-0.25874507,-0.08313003
-7.4711065,-0.5855355,-1.4163139999999999,0.35285320000000003,0.1404641,-0.10868165
-7.140753999999999,-0.59105176,-1.3276709999999998,0.2873859,0.114388876,-0.27796113
-7.445890400000001,0.02360683,-1.1248438,0.38161623,-0.05222025,-0.31841788
-8.3038,0.7665563,-2.0070019,0.19954349,0.02815216,-0.31789428
-9.531728999999999,0.8115099,-2.1434522,-0.13046336,0.08192576,-0.29178414
-10.06259,0.63452095,-3.1136496,-0.11664035,-0.061802108,-0.13316862
-9.452586,-0.059893347,-3.9052207,0.062220987,-0.34286994,-0.03415609
-10.763776,0.7376344,-0.9596631,0.21711896,-0.43069490000000005,-0.008604473
-16.417866,1.4748473999999998,0.58544934,0.2575757,-0.41207224,-0.0006283185
-14.665911999999999,2.0444088,1.4248661,0.18198548,-0.45305258,0.042481314000000006
-11.915358,1.9875703999999998,1.7856816999999998,0.08084365,-0.45146433,0.12339478
-13.259682999999999,0.48394477,3.1363944999999998,0.032934364,-0.46050513,0.20537289999999997
-13.456112,-0.26422408,1.2702388999999998,-0.0027227136,-0.49563859999999993,0.25167647
-12.522508,-1.3820864,-0.4902559,-0.049549895999999996,-0.50148547,0.25647613
-12.860761,-1.3872483,-0.3655946,-0.12941617,-0.46582840000000003,0.22080160000000001
-12.720087,0.465768,0.16383043,-0.2960253,-0.43175954,0.16863371
-10.86684,1.268084,0.2545611,-0.4865978,-0.34978142,0.17023942
-9.167925,1.3853713,-0.1721431,-0.6303257,-0.20977113,0.18727383
-8.131312,1.5031755,-0.6192842,-0.60372686,0.14791666,0.15959291
-7.531335,1.3506553999999997,-0.92065674,-0.33063516,0.24054128,0.09997246
-7.0859369999999995,1.303528,-0.7612795,-0.19966567,0.288468,-0.005410521
-6.7871785000000004,1.5478129999999999,-0.39287895,-0.1895602,0.42420226,-0.13529792
-6.620992,1.7426148999999997,-0.10274956,-0.6106383000000001,0.43856633,-0.23591615
-6.750317599999999,1.8898773999999998,-0.18124108,-0.27740264,1.0081545,-0.2263343
-7.120336999999999,1.9954425999999998,-0.9190190999999999,-0.42165410000000003,0.07126179,0.20856684
-7.240889500000001,1.8827428,-1.5748676000000001,-0.38280305,0.23043582,0.26232300000000003
-7.518051600000001,1.7546433999999997,-1.8715092,-0.15814428,0.6579019,0.18568558
-7.632361,0.90927947,-2.2152207,0.08030259599999999,0.397586,0.3714584
-7.9786963,0.079516225,-1.9865361000000001,-5.2359880000000005e-05,0.030281462000000002,0.3437775
-8.894316,0.31140903,-0.78559506,-0.10651744,-0.06339036,0.15906931
-9.275568,-0.041639958,-1.8578813000000003,-0.1123643,-0.21509437,0.07016224
-8.999718,0.2609967,-3.4689589,-0.23479915,-0.24970426,0.009477138000000001
-10.846404,0.43118617,-1.8260767,-0.3604454,-0.1922131,0.006806784000000001
-17.88938,-0.27424142,3.1440656000000002,-0.35564575,-0.104911745,0.022252947000000002
-20.993156,-2.3217533,2.4207007999999997,-0.31253612,-0.013892821000000001,0.025970499999999997
-11.728868499999999,-2.0614078,1.6830089,-0.311454,0.05422738,0.021729348
-10.327791,1.82148,4.3103676,-0.28591985,0.038798667,0.032899458
-12.576310000000001,3.7779832000000004,3.3003017999999997,-0.20978858,-0.0075049159999999995,0.04087561
-11.347195,2.5059533,-0.031948227,-0.1123643,0.028693212000000003,-0.003281219
-10.893445,2.1969674,0.15432066,-0.01282817,0.07180285,-0.036826447000000005
-10.182405000000001,0.8646803,0.15572846,0.05368633,0.045186576,-0.02617994
-9.453084,-0.5248856,-0.35334584,0.13939945,0.061679937000000004,0.007871435
-8.454941999999999,-1.0355688,-0.59788966,0.23254767,0.18252653,0.009477138000000001
-7.192909700000001,-0.75781274,-0.33761117,0.18783234,0.28473303,-0.026703538
-6.3676953,-0.21997924,-0.37114915,0.026005406000000002,0.28419197,-0.05864306
-6.233524299999999,-0.20124702,-0.42782468,-0.1288751,0.30335566,-0.04321435
-6.687378999999999,-0.5979949999999999,-0.22719058,-0.036250487000000005,0.35979962,0.07867944
-7.078716,-0.879352,-0.17552371,0.21818360000000003,0.59454644,0.18355627
-7.431123299999999,-0.6943471999999999,-0.61100024,0.5290617,1.0422233,-0.061837014
-7.94353,-0.5713906,-1.0773143,0.26928684,-0.032515485,-0.22314034
-7.748096,-0.5868475999999999,-1.6535123999999999,0.29803243,-0.096918136,-0.22153464
-7.0910697,-0.6098989,-1.9060526999999998,0.21498966,0.19156733,-0.4296826
-7.0435405,-0.45171880000000003,-1.9890357,0.25118777,-0.26248008,-0.4695983
-8.136646,0.3407428,-1.7866778000000003,0.19741419,-0.09426523,-0.4323355
-10.033391,0.99655294,-1.8308748,0.052621678,0.09149016,-0.43394122
-11.007208,0.77678436,-2.5756342,-0.06658431,0.046251226,-0.3695211
-10.315847999999999,-0.08273403,-3.6640959000000004,0.020699605,-0.1900838,-0.21088813
-9.549197,-0.7503045,-3.2250855,0.21233675,-0.51002014,-0.087388635
-12.11604,0.74643546,-1.0912868,0.29270917,-0.6068859000000001,-0.06503097
-16.346384,1.7824161,-1.1843925,0.21340140000000002,-0.5174552,-0.063425265
-12.624454,2.7522786,1.0205333,0.11278318,-0.45146433,-0.0016929694
-13.588254000000001,2.4705098,1.9807519,0.05529203,-0.3891735,0.095713854
-13.785584,1.4685555000000001,2.2667917999999996,0.02815216,-0.40727258,0.18355627
-12.381067999999999,-0.4900452,1.4698004999999998,-0.05222025,-0.51960194,0.22399555
-12.485608000000001,-1.3158245000000002,0.32165623,-0.16081464,-0.5100027,0.23146556
-12.321816,-1.0017915000000002,-0.41605482,-0.22895229,-0.4328242,0.22506021
-11.698979,0.6775783000000001,-0.37519056,-0.29656634,-0.38385025,0.20111428
-9.840446,1.6960716,-0.031804577,-0.4211305,-0.31838295,0.19366173
-8.4500475,1.7764498,-0.6883713,-0.51481974,-0.1251401,0.15852825
-7.501618400000001,1.5802306000000002,-1.0654293,-0.48288023,0.07819075,0.07707374
-7.09627,1.3900926000000002,-0.95113015,-0.30934215,0.04358087,-0.008604473
-6.8796334,1.4135941,-0.67175555,-0.1895602,0.0009948377,-0.086323984
-6.8743277,1.7903361,-0.5175881,-0.1182286,0.13887584,-0.18907152
-6.9990562999999995,1.9638296000000002,-0.6267636999999999,-0.4237834,0.59507,-0.25082126
-7.1696860000000004,1.7098527,-0.7399998999999999,-0.10067059,0.85058624,-0.19278906
-7.287241000000001,1.3933871,-0.7436678000000001,-0.41898373,0.17985618,0.20643754
-7.3465023,1.3933488,-1.4695705,-0.13739231,0.34487706,0.3112969
-7.470167999999999,1.0945716,-2.2034125,0.2208365,0.7223045,0.43799037
-7.675418,0.42430039999999997,-2.0596647,0.29749137,0.26982790000000006,0.45982444
-8.962579,-0.06294835,-1.7712686999999998,0.007923795,-0.14590952,0.32515484
-10.607463000000001,0.26873478,-1.2907238,-0.07192502,-0.30506609999999995,0.2538058
-10.663037,-0.12686396,-2.1310887000000003,-0.11609929999999999,-0.27473226,0.20378464
-9.572861999999999,0.29004318,-3.6370795,-0.19062486,-0.22947589,0.104754664
-11.348315,0.99015564,0.25773102,-0.20713568,-0.15175638,0.019582594
-18.171894,-0.17538963,1.5356601,-0.11929326,-0.046355944,-0.040544
-17.781622,-3.1485765,2.3355436000000003,-0.02666863,0.06647959,-0.05597271
-11.306752000000001,0.190521,3.2477152,0.014311700000000002,0.15484561,-0.05703736
-10.628427,4.1210723,5.041212000000001,0.048904125,0.09096656,-0.047996555
-12.256494,4.2396235,1.7831248,0.11384783,0.0026005406,-0.036826447000000005
-12.170914999999999,1.7519715,0.25869828,0.19901989999999997,0.033475414,-0.05757841
-11.496459,1.8332019,0.34804029999999997,0.2751337,0.12716469,-0.05864306
-10.229571,0.3349488,-0.32342792,0.33262485,0.17826793,-0.07141887400000001
-8.9765415,-0.36963603,-0.307042,0.45985934,0.06435029,-0.05544911
-7.8003955000000005,-0.46229163,-0.15671486,0.49392816,0.05370378,-0.04639085
-7.021657,-0.28799373,0.0005746083999999999,0.37149334,0.11386528,-0.107617
-6.5781074,-0.27850312,-0.11657847,0.12449434,0.1441991,-0.16776104
-6.494167,-0.77539575,-0.2249592,-0.14219198,0.1420698,-0.17681931
-6.7965064,-1.3110264999999999,-0.11195287,-0.11503465,0.26289895,-0.067701325
-6.7885865999999995,-1.4082502000000001,-0.32251814,0.09628981,0.52853805,0.05312782
-6.868256,-0.9084941999999999,-0.63159037,0.26076964,0.8782671000000001,-0.12199851
-7.129109,-0.24128765,-0.90802497,-0.09747664,-0.13100441,-0.30085987
-7.4867360000000005,0.10141838,-1.0397061,-0.006440265,-0.20020671,-0.18161896
-7.358828,0.36726096,-1.4713231000000002,0.103201315,0.2527935,-0.20076522
-7.087267999999999,0.34625903,-2.1181312,0.30281463,-0.060196407,-0.33651695
-8.178814,0.92045563,-2.2197313,0.46890014,-0.22149974,-0.4131718
-9.956566,1.8137515,-2.4278834,0.22139502,-0.12566371,-0.43657666
-10.988926,2.2490652,-2.501395,-0.011763518999999998,-0.004310963,-0.31202996
-10.201339,1.3832548,-3.8187230000000003,0.006318091999999999,-0.15282103,-0.09536479
-10.153943,0.28754359999999995,-3.5560982000000005,0.12768829,-0.48179814,0.008953539
-13.892029999999998,1.1816918,-1.4549085,0.26928684,-0.5472829,-0.0016929694
-17.1519,2.3049173,-1.0548468999999998,0.31986648,-0.50787336,-0.03361504
-12.291725999999999,2.3815603,0.46526999999999996,0.25598744,-0.51160836,-0.020315632
-11.763632000000001,0.8450190999999999,1.9515137999999999,0.19582593,-0.47380453,0.046739917
-13.227160000000001,-0.06061161,3.6676773999999996,0.18891443,-0.45092326,0.12552407
-12.576981,-0.68003947,1.7597,0.15803957,-0.51480234,0.19207348
-11.902716,-0.53941363,-0.11285309,0.098401666,-0.54035395,0.23038346
-12.677854,-0.22672133,0.026010606000000002,0.022828907000000002,-0.42324233,0.21389009999999997
-12.562549,0.8107533,-0.39488047,-0.06499606,-0.36629224,0.16119862
-10.691758,1.0507672,-0.13104902,-0.23373449,-0.3401996,0.13617058
-9.070730000000001,1.3315306,-0.033767822999999995,-0.43975314,-0.23745205,0.13777629
-7.8419490000000005,1.5023425,-0.48909712,-0.587216,-0.05274385,0.12500048
-7.236886,1.3195403,-0.72735846,-0.42271873,0.11651818,0.10051351
-6.757682300000001,1.2802178999999998,-0.40341341,-0.20659462,0.15484561,0.036617007
-6.582053,1.7216418000000002,-0.12350250000000002,-0.16348499,0.34222415,-0.061837014
-6.4698706,1.9178130000000002,-0.13248555,-0.16666149,0.6014579000000001,-0.06609562
-6.5624210000000005,1.8513308000000002,-0.29797277,-0.09000663,0.54079026,0.066985734
-6.8843255,1.9721519,-0.6586831999999999,-0.09906489,0.12768829,0.27296948
-7.2275777,2.0661959999999997,-1.3586041000000002,-0.045832347,0.31134927,0.24795893
-7.545183,1.8633881,-2.252168,0.23148301,0.5088332999999999,0.32993704
-8.137527,1.3080386,-2.1200368,0.34594172,0.25172883,0.3911632
-8.828169,0.3672993,-2.5649276000000003,0.20966639999999998,-0.06339036,0.30812043
-9.992402,0.50220776,-0.8892926999999999,0.17879152,-0.14430383,0.16491616
-10.442771,0.65965044,-1.6105411,0.2027549,-0.2550275,0.016406095
-9.869866,0.084955856,-3.1279287,0.11545353,-0.27312657,-0.07513642
-13.95156,-0.8408436,2.959013,0.0073827426000000005,-0.1789137,-0.07302458
-17.947885999999997,-1.2598481000000001,0.90589887,-0.041573743999999996,-0.057543505,-0.025638886
-16.068089999999998,-2.542173,1.9868522000000002,-0.051155599999999996,0.03614577,0.008953539
-11.821027,-0.31391814,2.3484533,-0.071907565,0.05370378,0.0062831854
-10.999212,2.9846406,4.659136,-0.07670722,0.020176006,-0.005934119
-11.704736,3.7895231,1.9010726999999998,-0.015481071,-0.020263273000000002,-0.009669124
-11.38758,2.2145502999999995,0.26606283,0.12503539,0.012723451,-0.01977458
-10.737095,1.9768157,0.85095674,0.23734732,0.046792275999999994,-0.005410521
-9.629067,0.43235450000000003,0.5920765,0.32145473,0.045710173,0.019058995
-8.873323,-0.48416504,-0.020082563,0.45401248,0.07393215,0.0057595866
-7.9252386,-0.4515273,-0.3545717,0.49021062,0.10480702,-0.050649453
-6.994382400000001,-0.21881089,-0.30622795,0.28579766,0.16762142,-0.11081095
-6.4032636,-0.08319372,-0.17495868,0.03932227,0.29431486,-0.11559316
-6.3189497,-0.24891078,-0.1493503,-0.05274385,0.34913567,-0.051714107
-6.6285289999999994,-0.7411012,-0.1451365,0.0749968,0.45507714,0.07070329
-6.9603467000000006,-0.93823016,-0.13994588,0.28579766,0.6339385000000001,0.18568558
-7.1338496,-0.77498394,-0.40407422,0.40236822,0.8569916,-0.0048694685
-7.400525599999999,-0.5050233000000001,-0.8655613999999999,0.12875293,0.045727625,-0.29497808
-7.4777045,-0.45305,-1.1506916,0.31986648,-0.26780329999999997,-0.2401573
-7.2362733,-0.21167617,-1.106581,0.26982790000000006,0.05263913,-0.33491123
-7.333420299999999,0.36305672,-1.4349505,0.37096974,0.08990191,-0.38336158
-8.125154499999999,1.0572315,-2.0400705,0.32997194,-0.014940018999999999,-0.3886848
-9.679547,1.3455989,-2.1647987,0.04464552,-0.021345377000000002,-0.44669956
-10.641489,1.2745483999999998,-2.899091,-0.14058627,0.08511971,-0.37962657
-10.084655,0.452801,-4.18697,-0.009634216999999999,-0.19860101,-0.1730843
-9.9230175,-0.41415859999999993,-3.5948076,0.17294468,-0.59890974,-0.051190507
-13.035978,0.5918275,-0.6376429,0.30070278,-0.54834753,-0.03947935
-17.198307,2.4478796000000003,1.0002784,0.25598744,-0.46954593,-0.02989749
-13.225379,3.6582158,1.9749004000000001,0.11545353,-0.44505897,0.039828412
-12.21855,1.3460106,2.8559859,-0.010698868,-0.45411720000000005,0.13564698
-13.560347,-0.31775844,2.4057417,-0.09906489,-0.4977679,0.23465952
-13.297951999999999,-1.6026785,0.22589771,-0.18582520000000002,-0.52651346,0.2724459
-12.141667,-1.7545093,-0.5819347,-0.26621506,-0.44666466,0.25115287
-12.8360815,-0.7543746,-0.22675006,-0.297631,-0.29016098,0.19153243
-12.56864,1.1840190000000002,0.56917834,-0.37852702,-0.28696704,0.15426965
-10.384418499999999,1.6356229,0.20250158,-0.5861339,-0.31784192,0.14948745
-8.263146,1.8052759999999999,-0.50189173,-0.7964111999999999,-0.17198475,0.13404128
-7.3562710000000004,1.7298874,-0.9610995999999999,-0.72027993,0.097354464,0.16280429999999999
-6.864071000000001,1.4947959,-0.9558707000000001,-0.4323005999999999,0.13835225,0.17130406
-6.3584156,1.407848,-0.62350756,-0.27792624,0.20701350000000002,0.062168628
-5.9527035,1.7721784,-0.205796,-0.16133824,0.43271947,-0.10655235
-5.721701599999999,1.8825321,-0.22857922,-0.46317548,0.62116265,-0.26357964
-5.953019599999999,1.7585125,-0.3953306,-0.26834437,0.8074766,-0.03148574
-6.5201199999999995,1.8266897000000002,-0.6947399000000001,-0.40674898,0.09044296,0.43533748
-7.089987799999999,1.6296566000000001,-1.2520046,-0.26886797,0.40238565,0.2500882
-7.958039299999999,0.99616987,-2.087332,0.124511786,0.7542439999999999,0.24478243
-9.093159,-0.06884766,-2.3449388,0.40769145,0.29592058,0.47472957
-10.590406,-0.46843037,-1.4906875,0.040927973,-0.096918136,0.4172384
-10.96735,-0.009442731999999999,-1.4499764,-0.07936012,-0.20231856,0.19100884
-10.141178,-0.5266382,-2.6818888,0.032410762999999995,-0.2555511,0.020664698000000002
-9.358934,0.10895533,-4.064598,-0.07829547,-0.27790877,-0.04373795
-13.238125,-0.350061,1.529215,-0.20127137,-0.18421949999999998,-0.040002946
-20.055874,-2.096765,0.86915267,-0.22575834,-0.07723082,0.004694935999999999
-16.580019,-3.2248267999999998,2.6903357999999997,-0.22202334,-0.013875367,0.03663446
-8.3735,-0.19141163,2.2946508,-0.22947589,0.02815216,0.044610616
-9.732938,4.148548,5.5361986,-0.21137683,-0.021327923999999998,0.039287362
-13.168291,4.380623,2.7114048,-0.13737486,-0.1150172,0.0036477381
-12.586002,1.1684086,-0.9292759,-0.01441642,-0.095853485,-0.049584802000000004
-11.231535000000001,1.2917676000000002,0.79700106,0.1447227,-0.017610373000000002,-0.063425265
-9.990142,0.40258023,1.1558535,0.26715755,0.040927973,-0.026162485
-9.24364,-0.55298394,-0.246756,0.4039739,0.038257618,0.010541788
-8.201338,-0.5989814,-0.71773374,0.38268090000000005,0.22778292,-0.038414698
-7.408034,-0.23062867,-0.6206441,0.25012314,0.29963812,-0.102293745
-6.7821507,-0.015188815,-0.5329972,0.067544244,0.29325023,-0.12730432
-6.453398,-0.1973301,-0.52734685,-0.005375614,0.36777577,-0.08843583599999999
-6.464507,-0.729178,-0.24191014,0.112259574,0.6291388000000001,0.0057595866
-6.499175,-1.0231861,-0.06954677,0.47424087,1.0911973,-0.1060113
-6.7158504,-1.0800627,-0.23788787,0.19210839999999998,0.37896335,-0.33065262
-7.072012400000001,-0.9915251,-0.56382495,0.35074136,-0.36042795,-0.22896974
-7.1650220000000004,-0.8456224,-1.0753318,0.22563617,0.06063274,-0.46958083
-6.9781976,-0.68285507,-1.4322784,0.37203437,-0.22999948,-0.52122515
-7.432195699999999,-0.063388884,-1.6144964,0.35020033,-0.20711823,-0.43819982
-9.131093,1.1687822,-2.0949266,0.02974041,-0.10756464,-0.37803832
-10.418493,1.2251896,-2.7480073,-0.14058627,-0.025062927999999998,-0.23750441
-9.9110565,0.51855534,-3.8192114999999998,-0.11449360000000001,-0.23319344,0.002565634
-8.935227000000001,-0.20823808,-3.7255309999999997,0.062203534000000005,-0.58294,0.09358455
-12.031937,1.5350567,-0.15670529,0.24799383,-0.66118306,0.029705504
-17.88329,3.288235,-0.5125507,0.28366837,-0.51426125,-0.0453262
-14.10339,2.4727507,1.233962,0.22085397,-0.39610246,-0.03202679
-14.438281,1.808398,3.5109148,0.19104373,-0.35084608,0.03769911
-14.7470665,0.92387456,3.4963102,0.15271631,-0.43228313,0.122871175
-13.350787,-0.55628794,1.1561217,0.07180285,-0.5217138,0.17078047
-12.900045,-1.1799008999999998,0.13232274,-0.017086774,-0.49616220000000005,0.19472638
-12.821564,-0.75332123,-0.43307278,-0.08787732599999999,-0.39182642,0.18727383
-12.050343,0.6755861999999999,-0.5789276,-0.20924753,-0.360969,0.13404128
-9.787171,1.338378,0.45396936,-0.46104616,-0.27632052,0.07389724
-7.528260700000001,1.5076001,0.43358034,-0.6489483,0.005794493,0.04569272
-6.387576999999999,1.5350281000000001,-0.23274513,-0.6580066,0.18252653,0.06857399
-6.1634603,1.3086706,-0.40011898,-0.49033279999999996,0.13939945,0.048328165
-6.229368,1.5791388000000002,-0.22623292,-0.38810885,0.23469442,-0.01977458
-6.413578,1.9214234000000001,-0.25115177,-0.5595351,0.37629297,-0.04108505
-6.608753,1.9807327000000001,-0.49352157,-0.23001695,0.7915068000000001,0.035552356
-7.143254,1.9085236,-0.81204623,-0.3284884,0.2842094,0.16865116
-7.4223313,1.7467712,-1.2028278000000001,-0.32583553,0.42154938,0.18142697
-7.2669387,1.7913512999999999,-1.6284593,-0.1272694,0.535467,0.34271285
-7.4586369999999995,1.5602151000000002,-1.9282038000000001,-0.0037699111,0.25066417,0.45610690000000004
-8.534774,0.84624493,-1.7036948,0.0025830872,-0.0016406095,0.38423422
-9.929349,0.41947374,-1.6533687,0.025481807000000002,-0.06551966,0.24956463
-10.449714,0.6906793000000001,-1.2539679,0.10053097,-0.16559684,0.11433652
-10.408485,0.18568471,-2.44697,0.031346112,-0.21350613,0.010541788
-12.446591999999999,-0.92104936,-0.017228676000000002,-0.090024084,-0.14590952,-0.020856684
-16.45346,-1.40509,0.5271170000000001,-0.12622221,-0.02666863,0.020123646000000002
-16.057287,-1.6049387,1.2543415,-0.12248721,0.06487389,0.056321774000000005
-13.686376999999998,-0.65867364,2.1611407000000002,-0.131528,0.087231554,0.052604225
-13.163081,1.8476724999999998,4.3238993,-0.11929326,0.029216811000000002,0.04195771400000001
-12.058598,2.748352,2.3874788,-0.056478854,-0.07829547,0.026511552
-10.434735,2.1463634999999996,0.68190694,0.05368633,-0.107041046,-0.019250982
-10.319048,1.9243443,1.1000303999999999,0.15430456,-0.02825688,-0.07621853
-9.6287985,0.95580363,0.719879,0.24425882,0.012705997,-0.1049641
-8.961037,-0.19037735,0.0034763808,0.32358405,-0.059131755999999994,-0.08471828
-8.251415,-0.6312456999999999,-0.2538237,0.41355577,0.0004712389,-0.05544911
-7.288514999999999,-0.5701648,-0.07218997,0.28473303,0.16816248,-0.06075491
-6.506233,-0.47261542,0.04414908,0.10533062,0.22352432,-0.07567748
-6.223919,-0.49558058,-0.04890875,0.026022859,0.30869640000000004,-0.06714281400000001
-6.62105,-0.68622607,0.015447388999999999,0.05422738,0.42526692,0.00095993106
-7.104372,-0.9196989999999999,0.044292733,0.24321163,0.57377696,0.061645027000000005
-7.2449884,-0.9343324000000001,-0.22684583,0.16336282,0.7483972,-0.17840755
-7.526977499999999,-0.70197034,-0.5442978,0.07126179,-0.1853016,-0.21301743
-7.814282,-0.25498247,-1.0558621000000001,0.27567476,0.037192967,-0.10283479999999999
-7.7434707,-0.13268666,-1.888326,0.31133184,0.24534093,-0.19172442
-7.3441944,-0.01226789,-2.0198827,0.5003161,0.019093903,-0.308836
-7.749485000000001,0.46950296,-1.606902,0.3336895,0.011117746999999999,-0.40358993
-9.238697,1.026059,-2.0595977,0.016441,-0.0010995574,-0.417954
-10.474489,1.099561,-2.6624098,-0.053284902,-0.06497861,-0.23431045
-10.257574,0.40081808,-3.9863362,0.021764256000000003,-0.26832690000000003,-0.08045968
-10.1850395,0.9055540999999999,-2.150472,0.19795524,-0.34924040000000006,-0.051714107
-15.004845000000001,2.560321,0.5229415,0.26502824,-0.357234,-0.049061205
-16.593847,2.4974107999999995,0.9802148999999999,0.1968906,-0.37107444,-0.014992378999999998
-12.208724,1.3021106000000002,0.8447127000000001,0.09681341,-0.36203364,0.055257123
-12.734250999999999,-0.18448761,3.205932,0.042533673,-0.35882223,0.13884094
-13.330072,-0.42747033,2.0769606,-0.017086774,-0.40727258,0.20326105
-12.391076,-1.1607952,-0.013953407,-0.07670722,-0.3934321,0.21975441
-12.962926,-0.8566358000000001,0.92068547,-0.15762068,-0.28749064,0.21017255
-13.372401000000002,0.2986623,0.57028925,-0.22149974,-0.23586379,0.17929767
-11.605519000000001,0.94221413,0.26995102,-0.33061773,-0.21296507,0.14629349
-9.897763000000001,1.189698,0.2516306,-0.44348815,-0.18050195,0.115942225
-8.435654,1.5208926999999999,-0.44990882,-0.55312973,-0.016022123,0.10316641
-7.440154,1.5493358,-0.8861228000000001,-0.5190784,0.13674654,0.08454375
-6.7750735,1.4432535,-0.6265816999999999,-0.32902947,0.11067133,0.04886922
-6.291828,1.5021316999999998,-0.16207787,-0.3284884,0.28047442,-0.023509584
-5.986596,1.7045279999999998,0.012660538999999998,-0.5547354,0.36512288,-0.036285397000000004
-6.0023212,1.8182237,-0.20899466,-0.12833406,0.60945153,0.051539574000000005
-6.399213,1.8130523999999997,-0.44190258,-0.18743089999999998,0.060091686,0.10264281
-6.851803299999999,1.712084,-0.8304623999999999,-0.18263125,0.24214698,0.065903634
-7.010644,1.5612589,-1.7019231,-0.04796165,0.30176744,0.21495475
-7.3741508,1.4327860000000001,-2.2243953,0.059550636,0.1420698,0.3996804
-8.086300999999999,0.36582443,-2.426619,-0.029338984,0.005794493,0.36878806
-9.394091,-0.058686674,-1.5393088,-0.1272694,-0.06339036,0.25860542
-10.375685,0.44825202,-1.0867857,-0.047420595,-0.104911745,0.1468171
-10.802026,-0.06703765,-2.690872,-0.13419837,-0.14590952,0.016406095
-12.245125,-1.0396199000000002,-1.6733363,-0.30986574,-0.17624335,-0.010210176
-17.253603,-0.6378536,1.6625528000000003,-0.32211795,-0.11503465,0.015323991
-17.387918,-1.2855809,-0.1326292,-0.29921925,-0.048485245999999996,0.043022364
-13.295538,-0.8390145,1.2665998,-0.25715682,-0.022392575,0.043022364
-12.640572,1.5031469,3.8150167,-0.20498893,-0.051679197999999996,-0.0021991148
-12.427199,2.529407,2.4802876,-0.14749777,-0.12035791,-0.062360615
-10.704772,2.319857,0.39252457,-0.037315138,-0.13046336,-0.09962339999999999
-10.350947999999999,2.4042668,0.8329332,0.07497934,-0.1123643,-0.09112364
-9.726148,1.7176291000000001,0.96180826,0.13035864,-0.101717785,-0.045867253
-9.453745,0.15511554,-0.018425776,0.16920967,-0.08522443,0.009477138000000001
-8.86571,-0.8000943,-0.35330755,0.27993336,-0.0010995574,0.059515726
-7.630024000000001,-0.5751639000000001,0.087378785,0.27673942,0.15751596,0.04515166599999999
-6.659979300000001,-0.3150961,-0.0323313,0.12927654,0.24799383,-0.0075398222999999995
-6.127902,-0.3160825,-0.18974528,0.046774823,0.30548498,-0.035220746000000004
-6.085639,-0.38680723,-0.12984234,0.049968775,0.3395538,-0.024574235
-6.508666000000001,-0.81992793,-0.009883264000000001,0.29644418,0.50885075,-0.0016755160999999998
-7.257362,-1.1432889,-0.18632635,0.17985618,0.7286924,-0.26199138
-7.828790700000001,-1.2302846,-0.47870627,-0.035709437000000004,-0.20340067,-0.3136182
-7.965422599999999,-1.1329075000000002,-0.85556316,0.15217526,0.10480702,-0.059166662
-7.6779649999999995,-0.94205135,-1.1680256000000002,0.24373522,0.23310618,-0.20182988
-7.215492,-0.500436,-1.3053571000000002,0.40929717,-0.17092009,-0.35140458
-7.320923,-0.009739612,-1.6747824,0.30974358,-0.09906489,-0.3636568
-8.743864,0.24011928,-2.1498399,0.060091686,-0.09320058,-0.32852334
-10.662003,0.66732144,-2.4749822999999997,0.00418879,-0.12620476,-0.18214256
-10.67068,0.44186428,-3.6516364,0.09522516,-0.34817573,-0.057560957999999995
-9.771686,0.94176406,-1.9104964,0.30335566,-0.45624653,-0.026162485
-14.171481,3.3230467000000004,0.0036487635,0.3773402,-0.45678756,-0.016598081
-16.807594,2.6306531000000004,-0.6741497,0.31028464,-0.41153118,0.014276793000000001
-12.099376,1.5151848999999997,0.42643607,0.23150048,-0.36308083,0.077091195
-13.463707000000001,0.6535979000000001,3.5039239999999996,0.16069247,-0.36255723,0.14629349
-13.947460000000001,0.17384778,2.6390998,0.11067133,-0.39449677,0.18622664
-12.448383,-0.5301146,0.6994708000000001,0.050492376,-0.40727258,0.16969836
-12.625459,-0.9811629999999999,1.06066,-0.045832347,-0.41153118,0.14735815
-12.759409,-0.010611101999999999,0.5666405,-0.15920894,-0.43069490000000005,0.14309955
-11.310985,0.8846767,0.39551255,-0.30984829999999997,-0.39449677,0.13034119
-9.536939,1.2601832,0.5669565,-0.46636942,-0.27419123,0.117006876
-7.8879657000000005,1.4744452,0.07729441,-0.5728171,-0.11288789999999999,0.08454375
-6.8497057,1.5816385,-0.25923458,-0.49670324,0.09416051,0.03556981
-6.5025177,1.6802795,-0.34062788,-0.28537878,0.1266411,-0.03415609
-6.247497,1.7582921000000002,-0.18188272,-0.27953193,0.27834509999999996,-0.12891002
-6.037602,1.8968207,-0.036985625,-0.52012557,0.50724506,-0.1603085
-6.294423,1.9520501000000001,-0.12210429,-0.16346754,0.94003433,-0.037873644
-7.088599,1.9147581000000002,-0.6355360999999999,-0.36629224,0.33742452,0.17716837
-7.547117699999999,1.7940615000000002,-1.3471693999999999,-0.37639770000000006,0.32251940000000007,0.25221753
-7.552605000000001,1.6764679,-1.7588093,-0.011763518999999998,0.6238156,0.3262195
-7.78105,1.6720338,-1.9847357,0.19050269,0.34009486,0.3874282
-8.435673,0.79775757,-1.7909491000000002,0.05742133,0.038798667,0.32780772
-9.245401,0.08221689,-1.0891031,-0.06286676,-0.05539675,0.23624776
-9.892572999999999,0.21416613,-0.79416627,-0.010698868,-0.17463765,0.15800466
-9.801563999999999,-0.28547505,-2.607439,-0.1272694,-0.22999948,0.056862827000000005
-11.004603,0.14969507,-2.1804187,-0.28005552,-0.16453218,0.019600047
-16.828787,-0.07608773,3.1584978,-0.26940903,-0.040491637000000004,0.039287362
-18.522512,-1.7636935,1.4514799999999999,-0.25504497,0.06647959,0.05312782
-13.3222,-1.5416743999999998,2.8744116,-0.2550275,0.113324225,0.051539574000000005
-12.060474000000001,2.254706,4.9746723,-0.21404718,0.060091686,0.03450516
-12.400729,3.6630998,2.5298092,-0.1251401,-0.032515485,0.004694935999999999
-11.245575,2.9906259,0.25562412,-0.0075049159999999995,-0.047944195999999994,-0.025097834
-11.053684,2.652268,0.68477046,0.14739305,0.013247048999999999,-0.042132247000000005
-10.026678,1.3285713,0.85736364,0.27248082,0.04944518,-0.043196898
-9.534162,-0.30562463,0.24462038,0.40289179999999997,0.046774823,-0.03255039
-8.489044,-0.80879,-0.12516886,0.5253441,0.15006341,-0.059707712
-7.255839,-0.51194733,0.0253115,0.40875609999999996,0.31773720000000005,-0.12306316
-6.5450196,-0.09425493,-0.18409495,0.20647246,0.3954567,-0.14913839
-6.269543,-0.111359105,-0.25870785,0.13674654,0.38641590000000003,-0.1129228
-6.3611164,-0.35354698,0.04099831,0.23682372,0.48755774,0.013753194
-6.6899643,-0.8970212,0.29664159999999995,0.5902878,0.7457268,0.044087015
-7.1932163000000005,-1.2869217,0.08107725,0.5136155,0.9565277,-0.3354523
-7.512181299999999,-1.2659293,-0.24686134,0.34700635,-0.3811799,-0.26942647
-7.454395,-1.26569,-0.8029195,0.50457466,0.23628268,-0.07993608
-6.9493046000000005,-1.0890169,-1.1067915000000002,0.60412824,0.29857346,-0.4051782
-6.880007000000001,-0.27990133,-1.3323636,0.63339746,-0.3093247,-0.55262357
-8.084702499999999,0.60263014,-1.8866883999999997,0.41247365,-0.22469369,-0.509514
-9.880957,0.9414001000000001,-2.1288857000000005,0.016441,0.06380924,-0.3886848
-10.608075,0.88882345,-3.1204686,-0.044767695999999996,-0.06339036,-0.20928243
-9.638577,0.1517445,-3.9822757000000006,0.14526375,-0.39927897,-0.035220746000000004
-10.543949000000001,1.0865175,-0.80114776,0.32784265,-0.5674938,-0.010733775
-16.60849,3.1221347,-0.15626475,0.3869395,-0.4982915,-0.06607816
-15.278569000000001,2.6459472,-0.32467290000000004,0.29166198,-0.42483059999999995,-0.06981317
-11.152880999999999,1.0884233,1.2468235,0.17294468,-0.36681584,-0.009128072
-14.159557000000001,1.0633799,3.355924,0.11278318,-0.33648202,0.07229154
-14.742957999999998,0.8549024,2.2902935,0.074455746,-0.41685444,0.14203489
-12.465947,-0.072927386,0.19830695,0.011641346,-0.46476373,0.17130406
-12.692065,-0.7484753000000001,0.21168573,-0.07564257,-0.44080037,0.17449802
-12.838773,0.309781,0.009931149,-0.15123278,-0.32902947,0.1505521
-11.185728999999998,1.3103945,0.28309998,-0.25663322,-0.2555511,0.10157816
-9.071342,1.6664218999999998,0.23611617,-0.39714968,-0.21457078,0.055274576
-7.420665700000001,1.9408453,-0.39808872,-0.5025675000000001,-0.10543534,0.041416664
-6.634917,1.784887,-0.79318947,-0.4583758,0.008464847,0.0052185343
-6.3783544999999995,1.5517588,-0.6543831999999999,-0.32477087,-0.048485245999999996,-0.040544
-6.4404697,1.5835537,-0.37044045,-0.2720619,-0.005899213,-0.10068805
-6.503178599999999,1.6906511999999998,-0.28750529999999996,-0.25715682,0.13514084,-0.19011872
-6.7159944000000005,1.7098143,-0.54513097,-0.48179814,0.39013344,-0.2316401
-7.1511455,1.531657,-0.8779537000000001,-0.18688986,0.5333376999999999,-0.10068805
-7.4090867,1.3135643999999997,-1.2392484,-0.50309116,0.12610003,0.21177825
-7.256576,1.2528378999999998,-1.5865704,-0.44827035,0.46891759999999993,0.27351055
-7.394578,1.2719915000000002,-1.7550839,-0.07298967,0.7568969,0.34536576
-8.338201,0.88460964,-1.8348491000000002,0.16282177,0.24801129,0.46675340000000004
-9.89085,0.27110982,-1.5380352,0.014835299,-0.18582520000000002,0.44865432
-10.938025,0.24441926,-1.0683982,0.017505653,-0.22361158,0.30225609999999997
-10.850062,-0.06487329,-2.5257967,0.22244221,-0.32262412,0.15533431
-10.0961275,0.38551435,-3.5817544000000003,0.26024604,-0.26567402,0.052080624000000006
-12.909583,0.6765918000000001,0.02684379,0.19210839999999998,-0.14856243,0.03502876
-17.698829999999997,-0.3647997,1.1930690000000002,0.17933258,-0.02453933,0.05206317
-16.426454999999997,-2.5409567,2.318114,0.17933258,0.056374136,0.064315386
-10.590798,-1.0527111999999998,3.0844789,0.19956094,0.0771261,0.05206317
-10.624174,3.172729,4.8371587,0.21020745,0.048904125,0.025446901
-12.501296,3.9459699999999995,2.2543612,0.22244221,-0.027715827999999998,-0.014451326
-11.956337,2.0267779999999997,0.061109602,0.27675685,-0.025586527,-0.05703736
-11.235548,1.549556,1.2129601,0.35925856,0.060091686,-0.07300712
-9.914753,0.44666225,1.7195923,0.41088542,0.10587167,-0.07033677
-9.536268,-0.73976046,0.7289003000000001,0.44655994,0.098419115,-0.04852015
-8.658697,-1.0726788999999999,-0.1828021,0.45720646,0.1420698,-0.04691445
-7.606628,-0.81723684,-0.22088905,0.3352952,0.17348573,-0.12623966
-6.9594655,-0.4855441,-0.15795985,0.097354464,0.22937118,-0.18479545
-6.6636667,-0.30826783,0.0022505496,-0.02719223,0.24588199,-0.12997466
-6.675772,-0.44560882,0.06829221,-0.0032463125,0.35393533,0.011082841000000001
-6.736057799999999,-0.66295445,0.061856594,0.10693632,0.57218874,0.19526744
-6.839564,-0.6241109,-0.20379445,0.3289073,0.9102241,0.19900244
-7.07637,-0.0737893,-0.6151565999999999,0.21978931,0.605734,-0.14008012
-7.250667599999999,0.25967512,-1.0117226000000001,0.20860176,-0.47115162,-0.13051572
-7.178343300000001,0.37172374,-0.9926934999999999,0.2575757,0.061156336,-0.1666964
-7.130881,0.37306452,-0.96890473,0.45081854,0.1378112,-0.15020303
-7.67605,1.2012764,-1.449239,0.5865528,0.090425506,-0.21779963
-8.893769,1.8936124,-2.2771924,0.37362263,-0.0522028,-0.3844262
-10.012589,2.221331,-2.9699209,0.16336282,0.0004712389,-0.39240238
-10.119371000000001,1.5384662,-4.0104218000000005,0.12770574,-0.07829547,-0.25506239999999997
-9.775774,0.5014033,-4.3784585,0.23362978,-0.36468655,-0.15072663
-11.334610000000001,0.37263355,-1.8166723000000002,0.42100832,-0.46369907,-0.09642944
-16.912746,1.4782472,-0.9130431999999998,0.46731192,-0.4328242,-0.07993608
-14.820520000000002,2.1155167,0.8411213,0.326778,-0.4227013,-0.024033183
-12.432084,1.3362231000000002,2.8165677000000002,0.17240362,-0.40460223,0.07442084
-12.625928,-0.17265068,3.5687876000000003,0.05422738,-0.42111304,0.1526814
-13.455413,-1.3175579,1.0080835,-0.03996804,-0.47115162,0.20910789
-12.5559025,-1.3801901,-0.7693719,-0.119816855,-0.49616220000000005,0.23307127
-12.970406,-0.59025687,-0.1427902,-0.17997836,-0.41259584,0.21975441
-12.371482,0.8318606,0.40846038,-0.21670008,-0.40034363,0.18994418
-10.846548,1.5344917,0.4759673,-0.3284884,-0.35456362,0.17236872
-9.165359,1.7914758000000002,0.02072421,-0.5345071,-0.18156660000000002,0.16172221
-8.113844,1.7609161,-0.93773216,-0.6622651999999999,0.084578656,0.16491616
-7.3235946,1.3412606000000002,-1.2191275,-0.4706106,0.2086192,0.14522885
-6.566078999999999,1.3586617,-0.64246964,-0.28857273,0.10002482,0.0877377
-6.1882358,1.7068264,-0.09755893,-0.23427555,0.24054128,-0.016580628
-6.031194999999999,1.9382595,0.078548975,-0.45731118,0.4428424,-0.07194247
-6.321333999999999,1.9773808000000002,-0.19013792,-0.35349899999999995,0.89318967,-0.023492131
-7.059955,2.1991508,-0.6497863,-0.63458425,0.41303217,0.29799749999999997
-7.403379400000001,2.1096842000000002,-1.2127973,-0.49670324,0.24108233,0.36400586
-7.4262104,1.8250903000000003,-1.833949,-0.22095868,0.61796874,0.27351055
-8.042535,1.0383749,-2.305798,0.11812388,0.35660568,0.39170423
-9.107543,-0.09316318,-2.4551868,0.0068591437,-0.18102555,0.41830307
-10.174849499999999,0.4870285,-1.3607876,-0.031450834,-0.20179497,0.19100884
-10.431988,0.59337896,-1.7078415,0.038781215,-0.27419123,0.039287362
-9.649389,0.32568806,-3.1642728,0.0004712389,-0.34178782,-0.06768387
-10.67812,0.8240938,-2.8535914,-0.10545279,-0.30986574,-0.10494665
-16.805725,-1.1474163999999998,1.8305109,-0.13685127,-0.14962707,-0.064489916
-19.033358,-2.0995903,1.745373,-0.13046336,-0.011746066000000001,-0.020839231
-12.324508,-2.46982,2.1054802,-0.15814428,0.048380528,-0.021903882000000003
-11.188718,1.7253575,4.206459,-0.1741315,0.010576695,-0.036285397000000004
-12.938621000000001,3.5456309999999998,3.8634562000000003,-0.1272694,-0.100653134,-0.040002946
-11.538098,2.1296422,-0.019239806,-0.02560398,-0.131528,-0.078330375
-10.330674,1.4942883,0.5892321999999999,0.10161307,-0.08042477,-0.12623966
-10.024935000000001,1.1511034,0.6636919,0.22563617,-0.044750242999999995,-0.14540339
-9.2296095,-0.4794916,-0.16162775,0.2719572,-0.0522028,-0.12889257
-8.427014999999999,-1.0074705,-0.6886777,0.30709067,0.015917404,-0.10068805
-7.401368,-0.9167973,-0.41409156,0.21924827,0.20701350000000002,-0.10281735
-6.5817274999999995,-0.42116883,-0.23434447,0.024958208,0.31347859999999994,-0.111334555
-6.3415794000000005,-0.35930264,-0.17360835,-0.10012954,0.31189033,-0.07300712
-6.7696533,-0.4481754,-0.084323786,-0.10332349,0.40610322,0.027052603999999997
-7.2554464,-0.8212782,-0.08582733599999999,0.01802925,0.5562189999999999,0.12552407
-7.5134163,-0.8701295,-0.25887066,0.30176744,0.80215335,0.08880235
-7.8569083,-0.5019875,-0.58555466,0.10107201,0.6477789,-0.13423327
-7.9043517,-0.15967411,-1.3254397,0.17507398,-0.14589207,-0.09909979
-7.4717383,-0.07363607,-1.9500103,0.25172883,0.084578656,-0.19118336
-7.1827297,-0.084477015,-1.9501156000000002,0.42579052,-0.08840092,-0.2508038
-7.569958,0.44307095,-1.7518468999999997,0.47424087,-0.02984513,-0.30457740000000005
-8.885800999999999,1.0467259,-1.9968886000000001,0.20380209999999999,-0.004310963,-0.43552947
-10.249961,1.1796136000000002,-2.1204677000000003,-0.07936012,0.013788101,-0.42647120000000005
-10.4136,0.33411562,-3.3188329,-0.10386454,-0.10917035,-0.22898720000000003
-9.694161,-0.19420807,-3.6491177,0.079779,-0.357234,-0.11559316
-10.561504,0.7561464,-1.2907046,0.25385815,-0.44772932,-0.102293745
-15.466179,1.2878507,0.09964667,0.26076964,-0.4221777,-0.08152433
-14.7162285,1.7538293999999999,1.4046111000000001,0.19795524,-0.424307,0.019600047
-13.110992999999999,1.1757636999999999,1.9097302,0.17133898,-0.46369907,0.15961036
-13.114996,0.32817802,2.9017630000000003,0.16920967,-0.48870963,0.2612758
-12.650378,-0.6750883000000001,0.50425714,0.07658505,-0.44985859999999994,0.30759683
-11.9091425,-1.4258142,-0.55951536,-0.09480628,-0.40460223,0.29056242
-12.928096,-1.1417563999999998,0.033174057,-0.22575834,-0.36681584,0.2676637
-12.956577000000001,0.260221,0.2898708,-0.32210052,-0.42750093,0.27459264
-11.1875105,0.94895625,0.3468049,-0.45465827,-0.4221777,0.2532822
-9.422697,1.2689652,0.00062249246,-0.5744228,-0.22574088,0.19685568
-8.019647,1.7864288000000001,-0.79713506,-0.5823989,0.05050983,0.16013396
-7.4818897,1.8138951,-0.86146253,-0.4344299,0.10054842,0.12924163
-7.215827,1.7196018,-0.679417,-0.40142572,0.026022859,0.026529005
-6.6696525,1.9518490000000002,-0.17085023,-0.3657512,0.2570521,-0.09855874
-6.2074565999999995,1.6574292000000002,-0.31933862,-0.62341416,0.59561104,-0.16936675
-6.2821264,1.1183412,-0.44398078,-0.15175638,1.0033723,-0.16084954
-7.0452449999999995,1.361276,-0.9511876,-0.50309116,0.34274775,0.21443115
-7.529611,1.4547553,-1.7151679,-0.45039967,0.20062560000000002,0.33738959999999996
-7.5005646,1.0534487,-2.3869808,-0.006440265,0.75637335,0.42256168
-7.804982000000001,0.703541,-2.081586,0.21605429999999998,0.267175,0.40235075
-8.5688095,0.6818878,-1.7469148999999997,0.03132866,-0.15069173,0.24902357
-9.881005,0.9464853999999999,-0.9300803,-0.08735373,-0.20231856,0.095713854
-9.792974000000001,-0.5797128,-2.2074637000000004,-0.13898057,-0.28536132,0.020664698000000002
-8.999516499999999,-0.7793222,-3.6945309999999996,-0.27152088,-0.3135833,-0.012322023999999999
-10.168883000000001,-0.055057064,-2.6947985,-0.3694862,-0.16346754,-0.014451326
-17.593409,0.41838196,4.0735044,-0.32531193,-0.042638395,-0.012322023999999999
-19.758417,-2.3936272,2.222116,-0.27792624,0.0036651914,-0.02989749
-12.615977,-1.9434310000000001,2.861473,-0.22202334,0.034540065,-0.05651376
-11.306637,3.2384546000000003,5.2289944,-0.118752204,-0.05806710599999999,-0.07407177
-12.477018,4.4089220000000005,2.0670867,-0.0027052604,-0.15601498,-0.091106184
-11.559312,2.7837577000000002,-0.22054428,0.13672909,-0.09054768,-0.10070549999999999
-11.025250999999999,2.7723037999999995,-0.061856594,0.26024604,0.013247048999999999,-0.10655235
-10.022866,0.8603228999999999,-0.017238252,0.31506684,-0.01282817,-0.12891002
-9.314173,-0.5906113000000001,-0.52894616,0.39543924,-0.036774087999999996,-0.14062117
-8.082107,-1.084219,-0.28455567,0.41353829999999997,0.12023573,-0.1619142
-6.932392,-1.0109948,0.059625197000000005,0.23947662,0.27249825,-0.18533652
-6.3022575,-0.69370556,-0.050067547999999996,-0.0011170107000000001,0.3219958,-0.18214256
-6.2829885,-0.6548429,0.025531767,-0.070842914,0.28899163,-0.10868165
-6.7378488,-0.82043546,0.33444124,0.029199357999999998,0.44017205,0.027576202999999997
-7.088972599999999,-1.1584584,0.21175277,0.25918138,0.67545986,0.1436406
-7.582236,-1.1430014,-0.17624198,0.37414622,1.0204066999999999,-0.09004153
-7.804638000000001,-0.6963583000000001,-0.64826363,0.16653931,-0.26940903,-0.19545943
-7.721272,-0.5987803,-1.1301493999999999,0.36245254,-0.07562511400000001,-0.15924384
-7.2394050000000005,-0.36012626,-1.4210066000000001,0.31932545,0.23310618,-0.26092672
-7.187805,0.5588546,-1.5926805,0.56206584,0.05263913,-0.29073694
-8.240421000000001,1.3693684,-2.2886653,0.42633158,-0.009634216999999999,-0.3588746
-10.03251,1.435343,-2.329041,0.12397074,0.038798667,-0.4658633
-10.640752,1.4836483999999999,-2.9273808,0.006318091999999999,0.009512044499999999,-0.37857938
-9.504272,0.29712042,-3.9298233999999996,0.09787806,-0.2885553,-0.17043139999999998
-9.445030000000001,-0.16723977,-2.3085465,0.30283207,-0.49298569999999997,-0.06396632
-13.619932999999998,1.2899575,-0.5570924,0.39969784,-0.53344244,-0.05703736
-16.075695,2.4532332,0.43719079999999994,0.31717870000000004,-0.5664465999999999,-0.04907866
-12.198725999999999,2.4195993,2.6186627999999996,0.18144442,-0.54887116,0.029181905
-13.025798,0.34493744,3.4810352,0.11491248,-0.5084144,0.14149384
-13.565710000000001,-0.33104149,1.7619218,0.09255481,-0.53129566,0.20643754
-12.273999,-1.2597045,-0.5220604999999999,0.04464552,-0.5600586999999999,0.24528857
-12.538885,-0.7650624,-0.1898985,-0.019216076000000002,-0.55312973,0.26073474
-13.686866,0.5547653,0.18264887,-0.14962707,-0.4982915,0.23411846
-12.318992,1.2950333,0.3367301,-0.33595842,-0.5414186,0.22347195
-10.401139,1.462752,0.21133139999999997,-0.48818603,-0.43814746,0.26021114
-8.932872,1.6764201,-0.5255369000000001,-0.63245493,-0.18317229999999998,0.30597368
-8.004909,1.4317997,-1.0430962,-0.55421185,0.1335526,0.2905275
-7.251309,1.2296525,-0.7085688,-0.23746950000000003,0.16549212,0.20856684
-6.5645275,1.4440389,-0.17332104,-0.1767844,0.18730873,0.03609341
-6.1440964000000005,1.6765254,0.17897137,-0.1869073,0.26928684,-0.1576556
-6.1640735,1.8784428,0.15213715,-0.6170088,0.8175995,-0.26464427
-6.711072,2.071224,-0.24132596,-0.38386770000000003,0.7766017,-0.1118756
-7.185353299999999,2.2190516,-0.9759628,-0.64842474,-0.14962707,0.4523719
-7.4985729999999995,2.1507401,-1.7607056,-0.48394490000000007,0.29112092,0.2942625
-7.623148,1.71195,-2.5251167000000003,0.17983873,0.6477789,0.31929052
-7.882459,0.3893738,-2.8287970000000002,0.36191148,0.14152876,0.41297979999999995
-8.3534565,-0.31783506,-1.7085502000000001,0.19530234,-0.1853016,0.2575408
-9.500125,0.21852358,-0.55381715,0.11489502,-0.27844983,0.16969836
-9.911095,-0.2110441,-2.5998445,0.061138883,-0.32157692,0.07920304
-8.991883999999999,0.8596334000000001,-3.8454325,-0.05808456,-0.26993263,0.04195771400000001
-12.443317,0.9669319,1.5860915,-0.043703045999999995,-0.14643313,0.03715806
-20.092216,-0.50310796,0.5331313,0.025481807000000002,-0.026127578999999998,0.031293754
-17.780307999999998,-3.4644193999999997,3.0224786,0.04783947400000001,0.020158553,0.007347836
-9.663179,-1.1339992,4.066408,0.04464552,0.023893557000000003,-0.016598081
-11.378128,3.3689961000000004,6.5510435,0.019634955,-0.026127578999999998,-0.040544
-13.129515,3.4419332000000002,1.6524013,0.062220987,-0.06658431,-0.052255157
-11.800483999999999,2.2454834,-0.31722215,0.19369663,-0.02719223,-0.053319807999999996
-10.985881,2.4564220000000003,0.16824535,0.32251940000000007,-0.016022123,-0.022985986
-9.762136,0.3000988,0.24683261,0.41353829999999997,-0.008028515,-0.01712168
-9.267427,-1.3202585,-0.20322941,0.5375789000000001,0.0042062434,-0.05438446
-7.957091,-1.3284084999999999,0.25893772,0.47157052,0.22724187,-0.12784536
-7.160799000000001,-0.6745807,0.123291805,0.17399187,0.38001055,-0.18373081
-6.6420617,-0.21659863,-0.1799865,-0.045291292999999996,0.3869395,-0.14859733
-6.4236336,-0.23390393,-0.20153432,-0.0059166662,0.42207298,0.015865043
-6.611693400000001,-0.67239714,-0.050278235,0.10266027,0.67172486,0.19205603
-7.0091405,-0.7697742,0.15480909,0.44495425,0.80534726,0.2772281
-7.3889947,-0.57648546,-0.18254352,0.42153192,0.99591976,-0.05757841
-7.5776577000000005,-0.5177413,-0.5714289,0.37840483,-0.23692845,-0.18107791
-7.27641,-0.44952570000000003,-0.77602786,0.41992623,-0.03996804,-0.42807690000000004
-6.754598599999999,0.01751598,-0.7268988000000001,0.18784979,-0.047944195999999994,-0.43605307
-6.7143474,1.2754582,-1.471802,0.36243507,-0.019216076000000002,-0.26837927
-8.190344,1.6540869999999999,-2.4410515,0.11969468,0.1420698,-0.3104417
-9.884978,1.6967994,-2.4961276000000003,-0.06393141,0.1984963,-0.39241982
-10.173921,1.1179485,-3.2923148,-0.07192502,-0.0069638634999999996,-0.25240952
-9.248888,-0.13446794,-3.759519,-0.0032637657,-0.2752559,-0.15660839
-9.887249,-0.27505547,-1.2550405,0.09255481,-0.38971457,-0.13796827
-14.722798999999998,1.8856157999999998,-0.20838174,0.047298424000000006,-0.3934321,-0.10815805
-15.241095999999999,2.6490693,1.9200922999999999,-0.07138397,-0.39823177,-0.05173156
-13.541413,3.0600772000000003,3.5777513999999995,-0.18584266,-0.40142572,0.030770155
-14.343692,0.49876967,4.0183897,-0.24757496,-0.4221777,0.12765338
-13.192244,-0.5376515000000001,0.88311565,-0.2832495,-0.47914523,0.20059069
-12.188315,-1.5463381999999999,-0.821192,-0.30508354,-0.46424013,0.22612485
-12.700761,-0.59007496,-0.1431158,-0.30508354,-0.33967596,0.22560126
-12.915999999999999,1.2050878999999999,0.17357005,-0.293896,-0.25183356,0.17236872
-11.10334,1.8709631999999998,0.45732126,-0.39399064,-0.2417281,0.10208431
-9.431833000000001,2.1384149,0.05341943,-0.5723109000000001,-0.18582520000000002,0.08346164
-8.351713,2.0563893,-0.5817336,-0.5818928000000001,0.040927973,0.082938045
-7.663657700000001,1.7849253,-0.8298591000000001,-0.41474259999999996,0.05635668,0.07867944
-7.2663546000000006,1.6015677,-0.6673981,-0.25237462,0.012705997,0.0052185343
-7.063201400000001,1.5102625,-0.38015133,-0.23321089,0.16655678,-0.06557202
-6.7316910000000005,1.4147242,-0.30317298,-0.47755697,0.40343285,-0.074612826
-6.539599,1.4086238000000002,-0.37869567,-0.14006267,0.86922634,0.0052185343
-6.7576529999999995,1.2622806,-0.3641581,-0.22097613,0.044121925,0.22879522
-6.7442746,1.1778419,-0.60703546,-0.1272694,0.17880899,0.18568558
-6.6937666,1.1419097,-1.7604182000000002,-0.07670722,0.43643704,0.18355627
-6.9442960000000005,0.68190694,-2.7137032000000003,0.0020594885999999997,0.28473303,0.32141984
-7.7323523000000005,0.23693977,-1.885702,-0.091088735,-0.037315138,0.3671998
-9.745685,-0.12258313,-1.1522430000000001,-0.15974998,-0.06232571,0.24263567
-10.704553,-0.26681942,-1.399114,-0.027209682000000002,-0.14110987,0.10369001
-10.330117999999999,-0.46041456,-3.093117,-0.038920842000000004,-0.18743089999999998,-0.020315632
-11.903089999999999,-0.3609594,-1.7868406000000003,-0.15283848,-0.20340067,-0.08367108599999999
-17.840462,-0.9878189,0.89349693,-0.18743089999999998,-0.14536847,-0.061313417
-18.215670000000003,-1.2613133,0.9547405999999999,-0.15816173,-0.02453933,-0.022444934
-12.722050999999999,-0.86615515,1.4574943,-0.14590952,0.048904125,-0.003281219
-11.669119,1.7793131999999998,3.4959557,-0.1288751,0.037192967,-0.005410521
-12.506333,2.9617999,3.5672266,-0.06447246,-0.042638395,-8.726646e-05
-11.096838,2.2540164000000003,0.35797146,0.028134707000000002,-0.11023499999999999,-0.008080875
-9.93859,1.8058792000000001,0.58756584,0.102136664,-0.07564257,-0.023509584
-9.952361,1.8529589,1.1117428999999999,0.16760397,-0.019216076000000002,-0.018727383
-9.337406,0.16513288,0.10484688,0.23415338,0.009512044499999999,-0.003822271
-9.055168,-0.63866764,-0.43522757,0.28152162,0.031346112,0.025446901
-8.152008,-0.81813705,-0.33982342,0.30920252,0.09522516,0.005742133000000001
-7.106182,-0.6308816999999999,-0.24233152,0.17027432,0.22244221,-0.07087782
-6.6116166,-0.6406596999999999,-0.26547867,-0.006981317,0.24853489,-0.11880456
-6.740731200000001,-0.7271287,-0.2697403,-0.08948303,0.31241393,-0.10442304599999999
-7.1692743000000005,-0.8306155999999999,-0.26450184,0.04410447,0.45827109999999993,-0.022985986
-7.355955000000001,-0.73973167,-0.3504824,0.25544637,0.6376735,0.06538004
-7.484887,-0.50811666,-0.75691247,0.39917424,1.000702,-0.11506956
-7.7395059999999996,-0.3311947,-0.9498755999999999,0.15430456,0.24799383,-0.31789428
-7.641640700000001,-0.2528181,-1.4901702,0.40662682,-0.16507325,-0.2502802
-7.3194669999999995,-0.27690378,-1.755716,0.3331659,0.10267772,-0.38070866
-7.3193717000000005,-0.05661808,-1.5563653,0.5375789000000001,-0.07510152,-0.34184018
-8.194088,0.49108908,-1.7925005,0.5620484,-0.0037699111,-0.3349287
-9.644955,0.73746204,-1.8023168,0.22670081,0.020699605,-0.45097563
-10.12415,0.46235865,-2.5146396,0.08084365,-0.023998277000000002,-0.37432078
-9.196242999999999,-0.07444052400000001,-3.8020976,0.123429686,-0.24970426,-0.15446164
-8.930612,-0.4718301,-3.3078003,0.2793923,-0.45465827,-0.08684758
-12.394418,1.4915015,-0.28484297,0.38639843,-0.45678756,-0.07993608
-16.398135999999997,2.173552,0.7017118,0.29642670000000004,-0.44507640000000004,-0.040544
-13.171778,2.6918583,2.2161114,0.16601571,-0.4535936,0.054192472
-13.828018,0.92154735,3.8079107000000003,0.121300384,-0.47541022,0.16491616
-13.988852,-0.032139762999999995,2.4116218,0.0749968,-0.5206492,0.24157102
-12.779895,-1.3450147,-0.022629995,-0.004310963,-0.5515415,0.26551694
-12.687708,-1.7409198000000001,-0.26699179999999995,-0.10279989,-0.48392743,0.24528857
-13.653711,-0.046294283,0.050306965,-0.19010127,-0.41846013,0.21547835
-12.501793,1.0802159,0.16956694,-0.33543482,-0.38971457,0.22558379999999997
-10.290221,1.6630125,0.29903579999999996,-0.52920127,-0.19753636,0.25647613
-8.669845,2.0548093,-0.45563576,-0.6122266,0.06169739,0.26021114
-7.843884,1.6638936000000002,-1.2285128,-0.49087384,0.17826793,0.21654299999999999
-7.402527,1.3567557,-0.99435985,-0.32635912,0.107477374,0.13297664
-7.008010400000001,1.4689577,-0.44809878,-0.31838295,0.26450464,0.006806784000000001
-6.449395,1.6643916,-0.25508782,-0.23427555,0.41462043,-0.11667526
-6.103691599999999,1.8094418999999997,-0.34580892,-0.48605675,0.67865384,-0.27796113
-6.376765,1.6442611,-0.61360514,-0.20713568,0.84686863,-0.23643975
-6.7501836,1.7915332,-0.7820899,-0.7501076,0.1425934,0.20643754
-6.793661999999999,1.7700237,-1.5702419,-0.6580066,0.30070278,0.38529888
-6.9416910000000005,1.2330233999999998,-2.1765783,-0.10067059,0.5732534,0.4172384
-7.784565,0.010065224000000001,-2.3313203,0.1425934,0.18784979,0.36452946
-9.503813000000001,-0.12813768,-1.0359902,0.098419115,-0.13311626,0.20537289999999997
-10.550614999999999,-0.08426632,-1.3271921999999998,0.036128316,-0.20659462,0.095713854
-10.220838,-0.6674171999999999,-2.9948783,0.007906342,-0.3088011,0.031293754
-9.224188999999999,0.57777834,-4.214015,-0.05862561,-0.27844983,-0.017139133
-10.97188,1.7817936,-2.2695692000000003,-0.09374163,-0.18743089999999998,-0.0027576203000000002
-18.083117,0.6603208,2.7802525,-0.028274333,-0.08361872,-0.02776819
-19.471467999999998,-3.130572,2.1741745,0.026005406000000002,-0.0011170107000000001,-0.05066691
-12.475275,-2.278648,3.433333,0.08562585,0.021764256000000003,-0.07089528
-10.882508999999999,3.0037463,5.610180000000001,0.12927654,-5.2359880000000005e-05,-0.09058259
-11.665278,4.098548,1.8586186999999998,0.23148301,-0.042638395,-0.102293745
-10.7741375,2.8957965,-0.09850703,0.37414622,-0.036774087999999996,-0.11773991
-11.20881,2.423861,-0.018732235,0.45985934,-0.066060714,-0.10815805
-10.096214999999999,0.39782056,0.33136709999999997,0.4790056,-0.07777187,-0.06717772
-10.030249000000001,-1.1136581,-0.0780414,0.5066864999999999,-0.057543505,-0.017139133
-8.718131,-1.8167393,-0.23875937,0.47157052,0.008447394,-0.003822271
-7.343955,-1.3370659,-0.033116598,0.29536206,0.034540065,-0.0400204
-6.9053183,-0.61479264,-0.10411904,0.10159562,0.06647959,-0.066636674
-6.775274799999999,-0.28717014,-0.15939638,-0.06766641,0.18784979,-0.051190507
-6.9878990000000005,-0.67772186,-0.12988067,-0.031468287000000005,0.39704496,0.008412487
-7.501139,-0.9231754000000001,-0.23017856,0.121300384,0.552484,0.08984955
-7.792188,-0.5373163000000001,-0.59366626,0.36297613,0.83409286,0.011082841000000001
-7.671214,-0.18885463,-1.2146839,0.026005406000000002,0.30974358,-0.22420500000000002
-7.4406137,-0.18206467,-1.5210458999999998,0.19847885,-0.35032248,-0.17575465
-7.2994905,-0.22637656,-1.4430715,0.24267058,0.083514005,-0.26518533
-7.715028,0.031325735,-1.2776035,0.24638812,-0.15282103,-0.29127800000000004
-8.620783,1.1608334999999999,-1.6511563999999999,0.35978216,-0.19062486,-0.27317894
-9.356904,1.7737683000000002,-2.211189,0.11543608,-0.16400859,-0.32960543
-9.543844,1.5623124,-2.8508334,0.038781215,-0.20073032,-0.27157325
-8.956622,0.69880044,-3.855862,0.15749851,-0.33648202,-0.12625712
-8.722057000000001,-0.026977865,-3.6555343000000002,0.31826079999999995,-0.5238606,-0.07780678
-10.983956,0.45236048,-0.08668925599999999,0.40502109999999997,-0.61967915,-0.08206538
-16.404984,1.3792517,0.5350179,0.35498253,-0.6100973000000001,-0.054925512999999995
-12.898369,2.596981,1.6794080000000002,0.31028464,-0.55525905,0.04515166599999999
-13.144522,1.892425,2.211869,0.29323277,-0.51799625,0.1579872
-13.888725,-0.031507692999999996,2.7216997000000003,0.26874580000000003,-0.5121494000000001,0.25860542
-13.473332000000001,-0.67943615,0.8600546999999998,0.18144442,-0.45039967,0.28042206
-13.140242,-0.92832774,0.03621948,0.03080506,-0.45146433,0.26125833
-13.348085999999999,-0.15006855,0.77559686,-0.13952161,-0.51534337,0.22666591
-12.564359,0.90149355,0.6855845,-0.29497808,-0.4908564,0.17556266
-11.068116999999999,1.2088037,0.5180382,-0.44561747,-0.30773646,0.11433652
-9.412987,1.3041025,-0.2486522,-0.57389915,0.0036651914,0.097843155
-8.210082,1.1102008999999997,-0.48708597,-0.5281366,0.24427629,0.122853726
-7.6343336,1.3948045,-0.32654995,-0.19488347,0.4044975,0.11114257
-7.130296,1.8555637999999999,-0.21465454,-0.05009095,0.5663244000000001,0.06270968
-6.4557257,2.1918726000000004,-0.21051736,-0.027733281000000002,0.69834113,-0.020315632
-6.1645427,2.0931642,-0.16402197,-0.34395203,1.1694579,-0.07993608
-6.631862,1.8576707,-0.32152212,0.108524576,0.98420864,-0.011274827
-7.003758400000001,1.8864777,-0.8062905,-0.010175269,-0.20073032,0.36027086
-6.9497643,2.0948594,-1.127104,-0.0479791,0.16814502,0.13030629
-7.075842999999999,2.178283,-1.496989,0.20432569,0.5801649,0.26818728
-7.433144,1.5872312,-1.5356505,0.27619836,0.072326444,0.41083306
-7.781480999999999,0.437775,-0.7782305,0.1495049,-0.1746551,0.26712263
-8.199529,0.5178084,0.25669673,0.11917108,-0.1789137,0.1515993
-8.806659,-0.6618914,-2.0925705000000003,0.03080506,-0.33381167,0.12604767
-8.3291025,-0.66047406,-3.9302065,-0.20073032,-0.37213909999999994,0.04886922
-12.045947,-0.32425153,2.1755633,-0.33435273,-0.2880317,0.019058995
-21.057243,-0.87206405,2.0495324,-0.28270844,-0.20127137,0.025987952999999998
-17.325468,-2.5575914,1.4561629999999999,-0.20713568,-0.080965824,0.022794
-10.298907,-0.44646114,2.375891,-0.1746551,-0.014957472,0.028640852999999997
-12.987931,2.426083,5.0387699999999995,-0.14805628,-0.05009095,0.033423055
-13.423417,3.0145487999999996,1.7490027,-0.117181405,-0.055414204,0.010000736
-10.832805,1.7074296000000002,0.26040295,-0.053825952,-0.051155599999999996,-0.034697145
-10.846575999999999,2.2748747000000002,0.8493094999999999,0.05900958,-0.03890339,-0.048537605
-10.047238,0.6829987,-0.46754929999999995,0.13672909,-0.06764896,-0.026720991
-8.998961,-0.6442604999999999,-0.91285163,0.18250908,-0.043703045999999995,0.010541788
-8.142047999999999,-0.80213416,-0.37316027,0.24265313,0.10000736,0.006806784000000001
-7.127758999999999,-0.26742277,-0.08118259,0.23148301,0.30761427,-0.035761796
-6.590337,0.13033077,-0.19492634,0.07976155,0.41088542,-0.07888888
-6.6234345,-0.16089036,-0.41528863,-0.13261011,0.4481482,-0.121474914
-6.817872500000001,-0.7769472,-0.30888075,-0.08470083,0.43004912,-0.07089528
-7.0870957,-1.0319966999999999,-0.3699425,0.011100293999999998,0.6206216,0.044593163
-7.755413000000001,-0.8775803,-0.61403614,0.3773402,0.95811594,0.01691224
-8.11599,-0.5862251,-0.83686924,0.13727015,0.81012946,-0.31895890000000005
-7.948912599999999,-0.45103887,-1.2431078000000002,0.15323989999999998,-0.36894515,-0.24708626
-7.431171000000001,-0.6591908000000001,-1.7371561999999998,0.16280429999999999,0.0728675,-0.40200168
-6.9917869999999995,-0.83250225,-1.3966146000000002,0.025464353999999998,-0.08255407,-0.4531049
-7.6545214999999995,0.18619227,-1.2535368999999998,0.25277603,-0.09374163,-0.3588746
-8.910242,0.9343133,-1.7365241000000002,0.020158553,-0.08255407,-0.3274761
-10.035584,1.0590034,-1.8517618000000002,-0.21352358,0.103201315,-0.287543
-10.076381,0.7075153000000001,-3.372961,-0.16294394,-0.096935585,-0.10974629999999999
-9.056796,-0.6405447,-3.449499,-0.00059341197,-0.4626344,-0.009145525
-10.566647,0.23270683,-0.5213326,0.21125466,-0.59412754,-0.021921335
-16.36366,2.3220596000000002,-0.49704584,0.25864035,-0.58081067,-0.038955748
-13.772014000000002,3.2033270000000003,1.3298929,0.20219639,-0.51321405,0.011588986
-13.041179,2.8718833999999998,2.5835924,0.18463838,-0.47753954,0.10314896
-14.071365,0.9143456,3.6691046000000003,0.17345083,-0.51108474,0.17128661
-13.663747,-0.22324495,1.8350503,0.118088976,-0.5983861,0.20163789999999998
-13.193306,-1.5906693,-0.47170562,0.023335052999999998,-0.6154205,0.20216149
-13.080577,-1.445437,-0.4035858,-0.1113171,-0.5329014,0.18992673
-12.883534,0.4055969,-0.12655750000000002,-0.28857273,-0.42697734,0.1425585
-10.630725,1.4210258,0.6029749,-0.50630254,-0.3045425,0.13721779
-8.78514,1.5722052,0.39988914,-0.6292785,0.0169646,0.16116370000000002
-7.6867757,1.3178644,-0.39630744,-0.44509387,0.38161623,0.15266395
-7.095341,0.99065363,-0.37163758,-0.10812314599999999,0.348071,0.122853726
-6.536008,1.339623,-0.07365522,-0.044244096,0.30016172,-0.015009831999999999
-6.3960233,1.7323006,0.034294546,-0.22258183,0.36084682,-0.18641862
-6.4622855,1.7895412,-0.065218054,-0.31840040000000003,0.9213941999999999,-0.20184733
-6.959637599999999,1.6769371,-0.58326584,-0.27900833,0.60784584,0.107948616
-7.3832393,1.606222,-1.2371415000000001,-0.28113765,0.04358087,0.39966294
-7.283985,1.7382096000000002,-1.2973125,-0.26623252,0.5477018,0.18992673
-7.2761993,1.751598,-1.7309791,0.1388584,0.7334746,0.26551694
-7.3401723,0.7112599000000001,-2.4016907,0.17612118,0.17720328,0.39433968
-8.323528,0.2794129,-1.4893083999999999,-0.13634512,-0.14590952,0.29372147
-9.882288,0.6095541999999999,-0.29457300000000003,-0.1741315,-0.14536847,0.145735
-9.851958,-0.40554905,-2.4175787,-0.20235348,-0.22202334,0.043528512000000005
-9.718333,0.1372165,-3.5064042,-0.35990435,-0.27419123,-0.037891097
-15.514025,-0.37499902,3.0152384999999997,-0.46478117,-0.23692845,-0.03843215
-19.71763,-0.74693346,1.3809948,-0.45628142,-0.09374163,-0.005427974
-14.2022705,-2.7620757,2.0102005000000003,-0.40411353,0.0169646,0.015306537
-9.332531,0.1280419,2.8610039,-0.37163296,0.05742133,0.025970499999999997
-12.510815,3.4525537,5.406480999999999,-0.31255355,0.010035643,0.04511676
-13.691730499999998,3.2215135,1.054483,-0.20182988,-0.08789478,0.06428047
-11.140278,1.755151,-0.47801673,-0.06768387,-0.048502699999999996,0.030752702000000003
-10.593903,2.1837418,0.91289955,0.07391469,0.03080506,-0.005427974
-9.972635,0.4283992999999999,-0.051446605,0.23574162,-0.017610373000000002,-0.020333085
-9.340959,-0.5326141,-0.56059754,0.39543924,-0.027733281000000002,-0.0155334305
-8.047803,-0.7444531,-0.3906284,0.40022144,0.18943803,-0.033108898
-6.877948,-0.5272031999999999,-0.11172303,0.22029546,0.33848915,-0.097511545
-6.1841464,-0.27704746,-0.013905523000000001,-0.038920842000000004,0.33635986,-0.14116223
-6.1733437,-0.49765876,0.01748725,-0.14273302,0.33635986,-0.121474914
-6.6434503,-1.065324,0.14622825,0.037175514,0.4124911,-0.01288053
-6.9797687999999996,-1.5088738000000002,0.027533319,0.27246335,0.8697499,-0.15927875
-7.313041,-1.40916,-0.28974628,-0.07033677,0.39065704,-0.48080329999999993
-7.767958599999999,-1.0112724,-0.63846654,-0.050631999999999996,-0.18210766,-0.29925415
-7.621242,-0.74681854,-1.3793761999999998,-0.06181956,0.36882296,-0.26200882
-6.933387799999999,-0.6492979,-1.9931442,0.25169393,-0.006981317,-0.28968975
-6.767450999999999,-0.18146133,-1.966741,0.5918585999999999,-0.23959879999999997,-0.34451053
-8.122684,0.49784073,-2.00342,0.39330995,-0.034644786000000004,-0.48078585
-10.113078999999999,0.8025076999999999,-1.616565,0.08402015,-0.07723082,-0.42542399999999997
-10.698452,0.7039719,-2.2862809,-0.056496307,-0.14910348,-0.19067723
-9.97296,0.094130434,-3.5394442,-0.023492131,-0.35084608,0.03926991
-12.278903,1.9391501,-0.5937045999999999,0.20432569,-0.6053151,0.07492699
-16.981413,2.7728398,-1.3455126,0.3347367,-0.6473601,-0.0038397241999999997
-13.844088000000001,2.2394118,-0.31097806,0.31824332,-0.54834753,-0.036826447000000005
-13.875778,0.6686814,0.82192945,0.30333823,-0.4408178,0.021170842999999998
-13.738226999999998,0.21143673,3.0317488,0.30440290000000003,-0.45465827,0.10421361
-12.407164999999999,0.08909303,2.9241822,0.2607522,-0.5462182,0.16543975
-11.886407,-0.7989164000000001,0.7262859,0.17558013,-0.5749638000000001,0.18619172
-12.544725999999999,-0.30431262,0.33316755,0.07285004,-0.5291838000000001,0.18140952
-12.715156,0.12640427,-0.52414817,-0.037332594,-0.5265309,0.17873918
-11.214269,0.5331408000000001,-0.07924808,-0.20872392,-0.48392743,0.18407987
-9.41355,0.96759266,0.60571384,-0.46158722,-0.26460937,0.18034486
-7.608428,1.1435665000000002,0.065658584,-0.5787163000000001,0.10533062,0.15104079
-6.684774000000001,1.1840285,-0.09330683,-0.36524504,0.326778,0.07386234
-6.5760674,1.3621476000000001,0.09234915,-0.12250466,0.27993336,-0.03630285
-6.744074,1.8978262,0.19731094,-0.19224802,0.33475414,-0.12840387
-6.7587839999999995,2.0968611,-0.13158533,-0.30935959999999996,0.67970103,-0.10869910599999999
-6.8679495,2.055154,-0.37377319999999997,-0.25399777,0.61901593,0.09995501
-7.5366693,1.9798613,-0.88643885,-0.25132743,0.0840376,0.30862656
-7.956124000000001,1.7647661000000001,-1.6209415,-0.103340946,0.51841515,0.34163076
-7.70977,1.6302886,-2.257761,0.22455406,0.49125782,0.40709805
-7.5849557,1.0532764,-2.5038272999999998,0.30600858,0.12077679,0.40444514
-7.820813,0.03364332,-2.3050417999999997,0.23626523,-0.060196407,0.26923448
-8.822566,0.38878006,-0.5598505,0.22722441,-0.15282103,0.18034486
-9.651334,0.60853904,-0.9921285,0.12712978,-0.2832495,0.060021874
-10.051884,0.33405817,-2.4971522999999998,-0.06501351,-0.244381,-0.012339477
-15.301142,-0.70768774,3.9646637000000005,-0.14006267,-0.11342895,0.0009424778
-19.257379999999998,-1.8116061999999997,1.2349291999999998,-0.13048081,-0.010698868,0.016388642
-14.927503,-2.6206741,1.6049387,-0.14379768,0.072326444,0.013177236
-12.945352999999999,0.014920665,4.758312999999999,-0.13740978,0.07285004,0.0073303827000000005
-12.278031,3.0145297,4.230535,-0.08683013,0.0073827426000000005,0.011065387
-11.105514999999999,3.1180357999999995,1.1546085,0.0073652896,-0.025080381000000002,-0.0049043754
-10.751373,3.0440936,0.6016916,0.1478992,0.049968775,-0.022985986
-10.310438000000001,2.25529,0.57946384,0.28576276,0.09361946,-0.042690754000000004
-9.464509,0.09089347,-0.049196057,0.36988762,0.043057274000000006,-0.04960226
-8.581536999999999,-0.60423905,-0.064930744,0.47474700000000003,0.046233773,-0.056007615999999996
-7.509135700000001,-0.58675176,0.079899296,0.43109632,0.14844026,-0.07143632
-6.4378934,-0.27258465,0.05353435,0.1516342,0.27089256,-0.10337585
-6.0130377,-0.16715358,-0.12002613,-0.054367005999999996,0.27780405,-0.10815805
-6.259755,-0.48411715,-0.005343858000000001,-0.043720499999999995,0.33583626,-0.028850293
-6.7563033,-0.9134263000000001,0.2005958,0.102119215,0.53119093,0.07068583
-7.192488000000001,-1.2991418,0.060965955,0.27298695,0.91127133,-0.068783425
-7.6600375,-1.0301867,-0.21452048,0.012147492,0.28258625,-0.29236009999999996
-7.8966618,-0.6183649,-0.68513435,0.1505521,-0.09906489,-0.1752485
-7.695864,-0.34797326,-1.2969007,0.087214105,0.33210126,-0.16193165
-7.358646,-0.16078499999999998,-1.6811988000000002,0.49179888,0.048904125,-0.15180874
-7.5892076,0.4452066,-1.5599469,0.7057762,-0.012304571,-0.24497442
-8.890839,1.0634757,-1.7835366999999998,0.38053414,0.012182398,-0.44565237
-10.28641,1.5673306,-1.6604747,0.12712978,-0.082030475,-0.48399726
-10.183335000000001,1.5611344999999999,-2.9736366000000003,0.019076448,-0.14110987,-0.25507987
-9.344675,0.5665352,-3.5320318,0.12234758,-0.37268016,-0.04907866
-12.172485,1.4420372,-0.5719652,0.22881266,-0.5494121999999999,-0.008080875
-16.706223,1.7087417,-0.46832502,0.21230185,-0.55208254,-0.024068091
-13.2507,1.9170468999999997,0.9154085999999999,0.11384783,-0.515867,-0.008604473
-12.8926325,0.36845806,1.5711133,0.00842994,-0.48872709999999997,0.059498273
-12.377917,-0.034237083,2.9839606,-0.03042109,-0.48713884,0.13082989
-12.094674000000001,-0.8323394000000001,1.6693907,-0.04956735,-0.5190609,0.18353882
-12.103034,-0.7779815,0.37728786,-0.09534734,-0.5286428000000001,0.22026055
-13.354091,0.59498787,0.64185673,-0.19170697,-0.5073672,0.22823670000000001
-13.426626,1.1107372,0.5872210999999999,-0.29550170000000003,-0.4871214,0.22080160000000001
-11.901222,1.2384151,0.27058309999999997,-0.40411353,-0.41633084,0.21865484
-10.125309,1.3793666,-0.08944737,-0.57444024,-0.29122564,0.21015509999999998
-8.381449,1.5793687,-0.5269063,-0.67399377,-0.044244096,0.18352138
-7.468242999999999,1.5521610000000001,-0.45339477,-0.47755697,0.26876324,0.1452114
-6.9660163,1.5817055,-0.12524548,-0.15550883,0.26928684,0.081855945
-6.522093,1.8075743999999998,0.17879897,-0.14273302,0.34061846,-0.05920157
-6.327032,2.0269023999999995,0.20520224,-0.410484,0.48860493,-0.14222687
-6.493946,1.9732723,-0.07602069,-0.012845623,0.8937132999999999,-0.10922269999999999
-6.9940953,1.7846667,-0.65437365,-0.22523473,0.22457151,0.2213252
-7.510716400000001,1.5220898,-1.2618593,-0.22736403,0.27302185,0.19312069
-7.5430284,1.3586233,-1.6856999,0.041975167,0.6882357,0.19790289
-7.3203,0.9312391,-2.139813,0.24851742,0.38587484,0.33843678
-7.350094,-0.27430847,-1.9467541000000002,0.0850848,-0.012304571,0.32724923
-8.306884,-0.4133254,-0.68583345,-0.042655847999999996,-0.053284902,0.2037672
-9.460171,0.06461471,-0.47477978,0.03450516,-0.17252579999999998,0.124441974
-9.479603,-0.34066617,-2.7393978,-0.043720499999999995,-0.20179497,0.017453292
-11.149596,0.07158663,-1.5629828000000001,-0.21139428,-0.13845697,-0.028309241000000002
-17.905191000000002,-0.067468606,2.2001948,-0.2475924,-0.027733281000000002,-0.01605703
-18.940807,-1.8350598000000002,1.2533166,-0.22896974,0.11013027,-0.0016929694
-12.304243,-1.3649056,2.0855029,-0.20980603,0.16653931,0.014782938999999998
-11.838628,2.6094499,5.112396700000001,-0.15924384,0.1383348,0.017976891000000002
-12.97528,4.1934733,2.918963,-0.08363618,0.026546458,0.008395034000000001
-11.289800999999999,2.5779326,-0.059222974000000005,0.03452261,-0.016022123,-0.021397736
-10.808441,2.5026305,0.59810984,0.16228071,0.04944518,-0.04108505
-9.9457445,1.1787709,0.9231754000000001,0.23732987,0.0707382,-0.05440191
-9.321537,-0.36158192,0.11185710000000001,0.25171140000000003,0.052098077,-0.07037167
-8.656342,-0.86973685,-0.24515668,0.3310366,0.019093903,-0.088453285
-7.3876157000000005,-0.6192651,-0.062728085,0.32728413,0.11491248,-0.12308062
-6.5219684,-0.18720742,0.009940726,0.12873548,0.27408649999999996,-0.16299629
-6.3961,-0.2511805,-0.042808328,-0.048502699999999996,0.31187287,-0.15287338
-6.6321683,-0.78907144,0.14462894,-0.09482374,0.32784265,-0.057595864000000004
-7.082498599999999,-1.2060743999999999,0.27708575,-0.009128072,0.482217,0.06747443
-7.4653215,-1.3227389999999999,-0.1117326,0.26022860000000003,0.68184775,0.12924163
-7.7763095,-0.7820803000000001,-0.46426442,0.23893557,0.9251118,-0.20929988
-7.861735,-0.3534895,-0.8018181999999999,0.07072074,-0.29122564,-0.24017476
-7.797876400000001,-0.2044361,-1.3153552,0.2682222,0.011117746999999999,-0.11719886
-7.594475,-0.025570073999999998,-1.5759593,0.25862288,0.213925,-0.24603906
-7.72041,0.8643834,-1.5730096000000002,0.5002986,-0.04796165,-0.3104417
-8.605633000000001,1.398415,-2.1932897999999996,0.42896703,-0.051679197999999996,-0.3839026
-10.039386,1.4301142,-2.4747522,0.11170107,0.025481807000000002,-0.43607049999999997
-10.577679,0.89462703,-3.1842308,0.007906342,0.0068416907,-0.29820696
-9.610650999999999,-0.025780762999999998,-3.6635501000000006,0.0765676,-0.31199506,-0.081541784
-9.871111,0.18036959,-1.8189229999999998,0.25012314,-0.54834753,0.0014835298000000002
-14.846742,1.9332794999999998,-0.8947706,0.30759683,-0.58561033,-0.007557275699999999
-15.076317000000001,2.1989403,0.009040506,0.21498966,-0.5275781,0.002024582
-11.2808075,1.9429425,1.6507063000000002,0.13514084,-0.47434560000000003,0.069097586
-12.679185,0.44980347,3.3845297999999997,0.10691887,-0.47860420000000004,0.14788175
-13.392532000000001,-0.14145902,2.6214880000000003,0.08775515,-0.5472829,0.20003219
-12.370706,-0.95469266,0.17384778,0.040910516,-0.57602847,0.21973695
-12.950889,-0.7936300000000001,0.26031676,-0.042655847999999996,-0.52492523,0.22026055
-13.641597,0.3331292,0.14480132,-0.13686872,-0.4285656,0.20270254
-12.488567,1.1645302,0.030262709,-0.25185102,-0.39184386,0.19205603
-10.387493,1.4611238000000002,0.16680883,-0.41100758,-0.29921925,0.20696114
-8.740656,1.5818299,-0.6017299,-0.5297248999999999,-0.06286676,0.18886207
-7.709531,1.3148093,-0.8539447,-0.47488663,0.15271631,0.13936454
-7.015346000000001,1.3451008999999998,-0.48889598,-0.31679472,0.06380924,0.08026769
-6.471997,1.6521332999999998,-0.12884636,-0.23535764,0.13301153,-0.011798426
-6.104209,1.9133502,-0.009050082,-0.16722,0.31986648,-0.10709339999999999
-6.0010185,1.8882206999999998,-0.18109742,-0.19703022,0.60945153,-0.1693842
-6.476153,1.7991947,-0.37949055,-0.03626794,0.54183745,-0.054925512999999995
-6.968764999999999,1.6773297999999999,-0.78166854,-0.25984463,0.05635668,0.24741787
-7.053117299999999,1.5856607,-1.3709773,-0.27314404,0.23682372,0.18886207
-6.983111,1.2444487,-1.9116265,-0.06394886,0.5929406999999999,0.2064201
-7.8091482999999995,0.33479559999999997,-2.4719942,0.27300440000000004,0.36936402,0.35440657
-9.988896,-0.023147142000000002,-1.2381375,0.12288863,-0.06339036,0.46780059999999996
-11.297022,0.20942561,-0.724495,-0.090024084,-0.24651030000000002,0.31342623
-10.726157,-0.08695739999999999,-2.5555902,0.021205751000000002,-0.33276448,0.17289232
-9.699581,0.6506099,-3.4240722999999997,0.036651913,-0.2922903,0.062168628
-13.344802,0.7649953,0.9580446,-0.03785619,-0.23479915,0.0073303827000000005
-18.102702999999998,-0.1884141,-0.41065347,-0.107058495,-0.12993976,-0.008080875
-16.795134,-2.6487436,1.6680211,-0.11344639999999999,0.0026005406,0.008936086
-10.57201,-1.0686567,2.3643123999999998,-0.1155757,0.036128316,0.031293754
-9.207056,2.6830572999999998,3.8446089999999997,-0.1288751,0.023893557000000003,0.031834807
-11.852409,4.558953,4.092466399999999,-0.09960594,-0.013892821000000001,0.023300145
-12.44325,2.5869157000000005,-0.028845342000000003,-0.01282817,-0.043703045999999995,0.005742133000000001
-11.211539,1.3403507,0.5494979999999999,0.09253736,-0.004834562,-0.024050636
-10.221719,0.8806065999999999,1.5166979999999999,0.19263199,0.035604715,-0.02776819
-9.48102,-0.20962672,0.62654346,0.24905849,0.06541494,0.0014835298000000002
-8.622995,-0.6752894,-0.15025052,0.32517229999999997,0.06435029,0.023841197
-7.633136299999999,-0.5785636,-0.41312429999999994,0.3289073,0.14313444,-0.016598081
-7.1797130000000005,-0.07667191,-0.16616717,0.16282177,0.14898129999999998,-0.08473573599999999
-6.9886174,0.105842866,-0.12446976,-0.08789478,0.16814502,-0.12199851
-6.9656615,-0.28008327,-0.120141044,-0.13686872,0.30709067,-0.07621853
-7.0522075,-0.6821655,-0.14136325,0.0094945915,0.53066736,-0.004886922
-7.1598315,-0.70718014,-0.34041718,0.21497220000000003,0.704729,0.061103977000000004
-7.368213000000001,-0.43543828,-0.56608504,0.31133184,1.0049605,-0.17364279999999999
-7.489609,-0.2636974,-0.85347545,-0.027209682000000002,-0.044767695999999996,-0.32854077
-7.404250599999999,-0.24691881,-1.2806681,0.113306776,-0.08361872,-0.2785022
-7.073544500000001,-0.35872802,-1.6372508999999997,0.047298424000000006,0.10161307,-0.4046546
-7.496503999999999,0.13542563,-1.3752773999999999,0.41460297,-0.095870934,-0.3998724
-8.764560000000001,1.2439889,-1.3848541,0.4699648,-0.06499606,-0.43341762
-9.826531,1.6850965,-1.2854756,0.17346828,-0.026127578999999998,-0.44936990000000004
-9.747255000000001,1.5022944999999999,-2.6412833,-0.02666863,0.07819075,-0.34503415
-9.240775,0.31642729999999997,-4.1891637,-0.06340781,-0.15123278,-0.09485865
-9.6846695,-0.16961482,-3.3601089,0.064332835,-0.47647488,0.0046774824
-13.854382999999999,1.3884741000000003,-1.1645205,0.17612118,-0.53876567,-0.021921335
-16.397562,1.9243443,0.68941516,0.17718582,-0.43175954,-0.04373795
-12.767377999999999,2.4988284,2.1089373,0.15217526,-0.39823177,-0.010210176
-12.909832000000002,0.8864963,3.2898629999999995,0.11597713,-0.4179191,0.06429793
-13.1217,0.62941647,3.545238,0.08988445,-0.48553315,0.14414674
-12.812953,-0.79278725,0.64447117,0.04410447,-0.5254488,0.18620917
-12.129955,-1.4278349,-0.34948640000000003,-0.02136283,-0.44720572,0.18247417
-12.900017,-0.27756462,-0.37036386,-0.10173524,-0.3694862,0.15105824
-12.754104,0.8582447,-0.0698245,-0.19861847,-0.31199506,0.1366942
-10.627075999999999,1.2848436,0.062488664000000006,-0.41420153,-0.27473226,0.16545722
-8.388066,1.4829206,-0.20626526,-0.6207438,-0.059672805999999995,0.17130406
-7.149039,1.6536176,-0.31446403,-0.56911695,0.26876324,0.13402383
-6.677092999999999,1.5981966,-0.27770826,-0.21139428,0.2762158,0.0850499
-6.7407985,1.6618153999999998,-0.060688224000000006,-0.105993845,0.31028464,-0.04373795
-6.768418,1.7556490000000002,-0.038058233,-0.12248721,0.48115236,-0.14116223
-6.601006,1.6558394,-0.28857790000000005,-0.5361128000000001,0.59081143,-0.18322466
-6.8146257,1.5981488000000001,-0.6959753000000001,-0.3588397,1.0086956,-0.087388635
-7.3304515,1.5136143,-1.0823323999999999,-0.5930629,0.027611108,0.37199947
-7.687686,1.5227313999999998,-1.6516066000000003,-0.45839328,0.28525662,0.39486328
-7.7841244000000005,1.0224487,-2.7541938,0.10053097,0.76115555,0.46034804
-7.753574400000001,0.017621325,-2.355655,0.29164450000000003,0.21287781,0.5114687
-8.718437,-0.46936888,-1.3309463,0.05103342599999999,-0.14749777,0.28363347
-9.856172,0.4046105,-0.023434447,-0.066060714,-0.11555825,0.094125606
-9.511713,0.09032845,-2.4492779,-0.07777187,-0.20552997,-0.018727383
-8.9652605,0.61259,-4.1876216,-0.20872392,-0.22734658,-0.018727383
-11.805186,-0.1598369,-0.47575662,-0.25769785,-0.08948303,0.037681658
-18.697289,-1.1474068000000002,2.9557667000000003,-0.20498893,-0.031450834,0.06005678
-18.3535,-2.5003417000000003,3.2068608,-0.16507325,-0.00057595863,0.043545965
-10.108559,-0.49773538,2.324607,-0.13313371,-0.005375614,0.016388642
-11.021467999999999,4.1387606,5.212857,-0.07723082,-0.09532988,-0.020839231
-13.319901000000002,4.0594263,1.6190838,0.00577704,-0.14430383,-0.06290167
-11.66116,2.2824020000000003,-0.9950302,0.1340762,-0.093724184,-0.07035422
-10.902878999999999,2.1673944,-0.13725479,0.26235790000000003,-0.0559378,-0.045343652000000005
-10.143706,0.15548903,-0.06007531,0.35498253,-0.011222467,-0.01818633
-9.576883,-1.0525006000000001,-0.7431985,0.44123667,-0.019739674,-0.010192723
-8.31284,-1.1648749,-0.5356787,0.3315602,0.12503539,-0.07728318
-7.1929765,-0.6497576,-0.24957158,0.09307841,0.22244221,-0.15074408
-6.602844,-0.30493513,-0.30936918,-0.08150688,0.21340140000000002,-0.15179129
-6.4937167,-0.32093796,-0.34534925,-0.06871361,0.33742452,-0.05597271
-6.6420710000000005,-0.6376046,-0.25354597,0.0776497,0.5402491999999999,0.066968285
-6.8092823000000005,-0.9520878,-0.39983168,0.36882296,0.8399397,0.013735741000000001
-7.112426299999999,-0.89870673,-0.5034719,0.020682152,0.45081854,-0.2934073
-7.187709299999999,-0.65086854,-0.7122463000000001,0.18624409,-0.28644344,-0.20610593
-6.921253699999999,-0.45587516,-1.0106213,0.25118777,0.21073106,-0.3040538
-6.6391406,-0.16400282,-1.1575103999999998,0.51628584,-0.08468337,-0.39772564
-6.982153,0.59485376,-1.6940798,0.65095544,-0.15282103,-0.39666098
-8.649101,1.475671,-2.2393734,0.3187844,-0.044226642999999996,-0.47120398
-10.088227,1.9056697,-2.576458,0.050492376,0.021764256000000003,-0.43926448
-9.869225,1.2775652,-3.9746716,0.046774823,-0.21776474,-0.19118336
-9.282607,0.07540777,-4.104323,0.16121607,-0.4828628,-0.04960226
-11.821774000000001,1.1821131999999999,-0.42527726,0.22935371,-0.5547354,-0.053319807999999996
-17.529427,2.0234356,0.24589409,0.14418165,-0.5052205,-0.05438446
-13.91986,1.8990137999999999,0.8032547,0.023876105,-0.47221628,0.0062831854
-13.137751000000002,0.70506364,3.0792212,-0.06925467,-0.43975314,0.09944886
-14.403039000000001,0.031804577,3.7699675999999998,-0.09428269,-0.45465827,0.17449802
-13.44801,-0.83972317,0.7129358,-0.12674580000000002,-0.5286428000000001,0.20643754
-12.503279,-1.2221825000000002,-0.0022697032,-0.19435987,-0.5206666,0.20217894
-13.626885999999999,0.1510071,0.16247052,-0.29283133,-0.41366049999999993,0.17716837
-13.027646,1.2485378999999999,0.21585165,-0.39877284,-0.31784192,0.15746361
-10.826761,1.4149444,-0.13369223,-0.5499358,-0.24277529,0.1446878
-8.941233,1.829419,-0.43301532,-0.7048512,-0.09000663,0.13404128
-7.702319,1.8633210999999998,-0.79716384,-0.6915518,0.22670081,0.09943141
-6.949774000000001,1.6875865,-0.7182605,-0.43123594,0.23202407,0.065903634
-6.488478,1.6627636000000001,-0.27121517,-0.31412435,0.22830652,0.0025481808
-6.290056,1.7056963,0.15063359,-0.41634828,0.46785295,-0.06930702
-6.252822,1.7727436,-0.020456059,-0.19594811,0.90755373,-0.0043458696
-6.492079299999999,1.607898,-0.45459187,-0.15175638,0.49394563,0.29586822
-6.8724985,1.4111041000000002,-0.9600844999999999,-0.14110987,0.06806784,0.29108602
-6.8765974000000005,1.3726724,-1.2292597,-0.07990117,0.6137100999999999,0.14097025
-6.7383466,1.2651153999999998,-1.7508893,0.19209094,0.59561104,0.30757937
-7.0613529999999995,0.49115613,-2.5266778,0.09147271,0.060091686,0.4411843
-8.179723,-0.2769517,-1.9737033,-0.11716395,-0.06551966,0.32620203
-9.90035,0.086239144,-0.42742246,-0.034644786000000004,-0.119816855,0.17769197
-10.103933,-0.43598413,-2.0031423999999998,-0.02401573,-0.23373449,0.029705504
-10.1081085,-0.52166784,-3.1689653,-0.17093755,-0.22308798,-0.053319807999999996
-16.605303,-1.446998,3.1267316000000003,-0.21458822,-0.15549138,-0.02989749
-19.979124,-1.7874535,0.8599302,-0.17732546,-0.020804325,0.016388642
-13.181315,-2.283762,0.841198,-0.16453218,0.06914994,0.04515166599999999
-11.080146000000001,1.4645907,3.8534675000000003,-0.14219198,0.08670796,0.05312782
-13.148353,3.7743824,4.228419000000001,-0.10545279,-0.003228859,0.049410272000000005
-12.516714,3.0927627,0.3271054,-0.027733281000000002,-0.095870934,0.043545965
-10.736289999999999,2.1854560000000003,0.084007755,0.088296205,-0.08787732599999999,0.014800391999999999
-10.454894,2.1537185,1.2706603,0.22563617,-0.031991884,-0.010733775
-9.612749,0.10919475,0.19102857,0.30922,0.015899949,-0.013927726999999999
-9.328365,-1.0092995999999999,-0.46381432,0.35339427,0.03080506,-0.008063421
-8.29316,-1.0814129,-0.19814414,0.37414622,0.08777261,-0.03309144
-7.037028,-0.6423260000000001,-0.112977594,0.23041837,0.22776547,-0.09271189
-6.437989,-0.48851289999999997,-0.23221841,-0.017104227,0.2676986,-0.12678072
-6.3721104,-0.5329876,-0.16904022,-0.15655604,0.29696777,-0.10177015
-6.890005,-0.8441093000000001,0.026345795,-0.09321803599999999,0.43537238,0.014800391999999999
-7.2940119999999995,-0.97132766,-0.012564771,0.12875293,0.65629613,0.1366942
-7.4196215,-0.78867877,-0.41774988,0.5343849,1.0528699,-0.011257373999999999
-7.5514364,-0.38799474,-0.7658571999999999,0.28951523,0.43751913,-0.32374109999999995
-7.4525559999999995,-0.25972298,-1.2738972,0.34485959999999993,-0.34606388,-0.23965116
-7.199603999999999,-0.23933399,-1.705591,0.2639636,0.21766001,-0.39667842
-7.071370599999999,0.19094236,-1.8053907999999999,0.44973645,-0.02666863,-0.4238183
-7.988656,1.0360572000000001,-2.1553466,0.54449034,-0.08948303,-0.3519631
-9.601687,1.3168492,-2.172853,0.21551326,0.02815216,-0.39400807
-10.260839,1.2361263,-2.7501237,0.014294246000000002,0.015899949,-0.36845645
-9.404060000000001,0.2200846,-3.7190665999999997,-0.011239921000000002,-0.28164378,-0.14327408
-8.842897,-0.46769294,-3.3160174,0.108524576,-0.5861339,-0.02883284
-11.184935000000001,0.7491074000000001,-0.21456836,0.23041837,-0.6883404000000001,-0.008604473
-17.09074,2.2987688,-1.1821802,0.21872467,-0.6404310999999999,-0.013386675
-12.955552,2.1530576,0.92833734,0.1388584,-0.58294,0.012130038000000001
-12.809516,1.1953578999999999,2.9518592,0.07871435,-0.5515415,0.08719665
-14.028307999999999,0.5910326,3.2805161,0.04410447,-0.5685759,0.16756906
-13.357844,-0.5429666,0.7773398,0.004171337,-0.6069033,0.21282545
-12.8089695,-1.0080354999999999,-0.27282408,-0.031991884,-0.5541944000000001,0.22240731
-13.556285999999998,0.15739483,-0.3930034,-0.07831292599999999,-0.47062802,0.19737929
-13.208676,1.2751997,-0.13763787,-0.17411405,-0.4285656,0.16332792
-11.336613,1.6387258000000002,0.19744502,-0.34021702,-0.38597956,0.1446878
-9.406914,1.8075361,-0.10983639,-0.5212077,-0.17359045,0.14575244
-7.982441000000001,1.7909107,-0.74613863,-0.537701,0.07393215,0.15905185
-7.333133,1.5509734,-0.7447595,-0.31679472,0.113324225,0.13456489
-6.9948516000000005,1.6140271000000002,-0.48260403,-0.15814428,0.17559758,0.032375857
-6.719107000000001,1.5980242,-0.3063046,-0.105993845,0.35232959999999997,-0.088453285
-6.3871269999999996,1.4763318,-0.19971472,-0.33595842,0.36884043,-0.16404349999999998
-6.528069,1.4063733,-0.25049096,-0.13100441,0.9437519,-0.1613906
-6.9926686,1.6751846000000001,-0.7644685999999999,-0.38493237,0.37042868,0.2500882
-7.0995455000000005,1.7257310000000001,-1.3287437,-0.34712854,0.030281462000000002,0.41297979999999995
-6.897187700000001,1.699864,-2.1068592,-0.177308,0.6057165,0.25860542
-7.096394500000001,1.0876858,-2.6390421,0.2751337,0.64352036,0.37732273
-8.392911999999999,0.28393316,-1.8671708999999999,0.24054128,0.0068591437,0.47312385
-9.862781,0.21950999,-0.21685721,0.013247048999999999,-0.11023499999999999,0.2676637
-10.04474,-0.17182708,-1.5562790000000002,0.0009948377,-0.12461651,0.13243559
-9.229935000000001,0.02846227,-3.0587842,0.035063665,-0.20127137,-0.005934119
-10.174648,0.852671,-3.11025,-0.044226642999999996,-0.15762068,-0.024574235
-16.865944,0.0075848307,3.1082006,-0.057543505,-0.0490263,0.022776546
-21.336082,-1.7130034,2.748352,-0.045291292999999996,0.028693212000000003,0.04834562
-11.988964999999999,-2.6010416000000003,1.4019104,-0.06977826,0.06489134,0.053668875
-8.463598,1.4543339,3.400839,-0.053825952,0.031346112,0.04939282
-12.105659,4.4014050000000005,4.8930016,-0.021886429,-0.07829547,0.028099801
-12.454024,3.1297099999999998,0.21026838,0.040910516,-0.07936012,-0.0155334305
-11.33982,1.860132,-0.41702205,0.16069247,-0.018675024,-0.029373892000000002
-10.746067,1.4098496,0.5192257,0.23841198,0.012705997,-0.036808994
-9.864618,-0.23101173,0.36767277,0.30494392,-0.0021816615,-0.044802602000000004
-9.14585,-0.9468876,-0.5648496999999999,0.43537238,-5.2359880000000005e-05,-0.061313417
-7.887937,-0.7904601,-0.4584992,0.2751337,0.17613862,-0.08580039
-6.874663000000001,-0.27654943,-0.36524028,0.05157448,0.23415338,-0.09164724
-6.4546529999999995,-0.077466786,-0.282171,-0.067125365,0.30496138,-0.07728318
-6.488727,-0.26110205,-0.020599712,0.0036477381,0.36297613,0.016388642
-6.6777062,-0.7247918999999999,-0.00707726,0.25490534,0.553025,0.0925199
-6.992812,-1.0068097,-0.18802145,0.31559044,0.79522437,-0.07621853
-7.488038,-0.7448170000000001,-0.48305413,0.16708037,-0.05274385,-0.14700909
-7.587541000000001,-0.34176752,-0.9323021,0.33049554,0.113324225,-0.17362535
-7.3565583,0.059098475,-1.4678563,0.23202407,0.11864748,-0.3029717
-7.0770979999999994,0.60184485,-1.6967708,0.6083694000000001,-0.10438814,-0.27263787
-7.7663693,1.0734451,-1.994935,0.5721713,0.10054842,-0.31895890000000005
-9.264861,1.2244043,-2.400532,0.29164450000000003,0.012182398,-0.40624285
-10.415486,1.0578923,-2.5756536,0.18250908,-0.09906489,-0.308836
-10.357901,0.6448064,-3.3371150000000003,0.17772688,-0.23054054,-0.11294025
-10.068912,0.84069043,-2.1678827000000003,0.28312729999999997,-0.3806563,-0.05386086
-14.031698,2.3757854,-0.81014997,0.3257308,-0.41898373,-0.063425265
-15.072668,1.9307225,-0.08468769999999999,0.25918138,-0.40301397,-0.02989749
-12.717827,1.7763349,1.448923,0.18144442,-0.357234,0.04939282
-13.504639000000001,0.05588067,3.1552994,0.12608258,-0.35616934,0.12978268
-12.703998,0.31728917,2.5270033,0.064332835,-0.4349535,0.17289232
-11.798414999999999,-1.0415926,-0.018981231,-0.005375614,-0.46795768,0.18407987
-12.724041999999999,-0.8194585999999999,0.1458835,-0.09320058,-0.40568432,0.16917476
-13.289227499999999,0.2830904,0.11658804,-0.17945476,-0.33861133,0.1452114
-12.059977,0.9032460999999999,-0.14412136,-0.2587625,-0.29921925,0.11859512
-10.550644,1.4644278,-0.12899959,-0.40729004,-0.3237062,0.07813839
-8.832075999999999,2.0533056,-0.6939546,-0.5888217,-0.29122564,0.06536258
-7.653171,1.943316,-1.0141360000000001,-0.6377782,-0.22895229,0.06005678
-6.977096,1.8235675999999998,-0.7484562,-0.46371654,-0.09745918,0.057386424000000005
-6.457143,1.8424819,-0.37237498,-0.30295426,0.12503539,0.047804568
-5.984671,1.9214714,-0.18848114,-0.20446531,0.41622612,-0.011798426
-5.764797,1.9260298999999999,-0.24622928,-0.40250784,0.51841515,-0.13103932
-6.0260525000000005,1.8572397,-0.68853414,-0.26036823,0.68078315,-0.081541784
-6.558686,1.6908907,-1.3432908000000001,-0.48713884,0.13194689,0.32461378
-6.7935953,1.6789579,-1.5882368,-0.5158844,0.37309903,0.396469
-7.2278457,1.8387948,-2.1378498,-0.07086037,0.60039324,0.36452946
-8.553438,1.2531443000000002,-2.2243185000000003,0.059027035,0.14899875,0.3671998
-9.933964,-0.002078167,-1.3871143,-0.07031932,-0.101717785,0.29693288
-10.421414,-0.21376391,-0.86554223,-0.09854129,-0.25715682,0.15852825
-10.232052000000001,-0.7087699000000001,-2.583152,-0.10545279,-0.40994292,0.009477138000000001
-9.514883,0.31651345,-4.1271152,-0.21991149,-0.41046652,-0.07194247
-12.951195,0.7739305000000001,0.13860512,-0.25769785,-0.23853415,-0.057054814
-18.285667,-0.25954103,0.24165156,-0.20020671,-0.07562511400000001,-0.009128072
-18.202148,-2.2553668,2.7035325,-0.17784905,0.015917404,0.023317598
-12.176546,-1.0237224,3.7737217000000003,-0.16081464,0.032410762999999995,0.03609341
-11.293928999999999,3.159465,4.85095,-0.11503465,-0.026127578999999998,0.031311207
-11.972091,3.855268,1.6632231,-0.02666863,-0.11342895,0.019058995
-11.2601795,2.7125828,0.005353435,0.10000736,-0.09426523,0.00041887903
-11.131573,2.340179,0.6139212,0.24853489,-0.050614547,0.012671091
-10.055655999999999,0.3001946,0.49135724,0.3565882,-0.016022123,0.044087015
-9.541085,-1.3038919,0.015820885,0.45347145,0.023893557000000003,0.061645027000000005
-8.316863,-1.4258142,0.053381122999999996,0.48008773,0.049968775,0.010541788
-7.20377,-0.9110415999999999,-0.025234886,0.31026718,0.17559758,-0.086323984
-6.6785297,-0.51616114,-0.26949134,0.06593854,0.25066417,-0.121457465
-6.451732,-0.43094670000000007,-0.31623575,-0.05806710599999999,0.34061846,-0.08791223
-6.5649104000000005,-0.56896764,-0.05737465,0.020699605,0.54344314,0.032899458
-6.6792191999999995,-0.7075824000000001,0.06297708,0.38481018,0.7553086999999999,0.13618805
-6.9103270000000006,-0.67662054,-0.106723934,0.46624726,1.0017667,-0.122522116
-7.247315400000001,-0.65098345,-0.28747659999999997,0.25918138,-0.21296507,-0.20769417
-7.315483599999999,-0.57310486,-0.66604775,0.34913567,-0.01441642,-0.22525219999999999
-7.050369,-0.5605591999999999,-0.77959996,0.31241393,0.14739305,-0.3593982
-7.072079,-0.067401566,-1.2675862,0.51468015,-0.035709437000000004,-0.39720201
-7.8701625,1.1526166000000002,-2.0802739,0.32836625,0.013770646999999999,-0.4754626
-9.377676,1.617063,-2.56374,0.008988446,0.16016887,-0.5409299
-9.9563265,1.356593,-3.3041419999999997,-0.1272694,0.021764256000000003,-0.33011156
-9.492301,0.113916114,-4.021196,-0.043161992,-0.20870647,-0.077265725
-10.005197,0.09713755,-1.3894031,0.09522516,-0.44718826,-0.030962141000000002
-15.062469,2.3681528999999997,0.15592957,0.103201315,-0.46582840000000003,-0.08419468
-16.323256,2.2877172999999997,0.917573,0.031869713,-0.4237834,-0.07887143
-12.500319000000001,1.8618462,2.3490949,-0.045308746,-0.41526620000000003,0.014800391999999999
-13.462271,0.81833816,3.7051038999999997,-0.12993976,-0.43655920000000004,0.13510594
-13.340109,0.32914525,1.7501231,-0.20340067,-0.51799625,0.21708405
-12.547944000000001,-0.6693039000000001,-0.20416793,-0.25930357,-0.5025675000000001,0.24263567
-13.093658999999999,-0.5094382000000001,0.18401834,-0.30134854,-0.37161550000000004,0.24795893
-13.751517999999999,0.58566964,0.08712979400000001,-0.32424727,-0.29548424,0.22240731
-11.954211,1.4759296,0.22465274,-0.46211082,-0.33861133,0.16172221
-9.647224000000001,1.6481206000000002,0.18205510000000003,-0.67025876,-0.33061773,0.097843155
-8.107505,1.7708378,-0.5155482,-0.787894,-0.10545279,0.06377433
-7.3431315,1.7485621,-0.6020171999999999,-0.62606704,0.010053096,0.08719665
-6.885044000000001,1.7542124,-0.45505154,-0.3678805,0.057962384000000006,0.039828412
-6.445469,1.9044917000000001,-0.28321490000000005,-0.26195645,0.41036183,-0.035744343
-6.0571384,1.8371476000000002,-0.21223160000000002,-0.516408,0.6712013000000001,-0.13369222
-5.9088607,1.6024871,-0.39447823,-0.14803882,1.0741628,-0.09271189
-6.194997,1.3399963,-0.54272723,-0.30400145,0.26183429999999996,0.28789207
-6.5137606,1.2510086,-0.8733473,-0.10386454,0.20488420000000002,0.3112969
-6.909934,1.2154021000000002,-1.8110508,0.2075371,0.69355893,0.34430109999999997
-7.741028999999999,0.78777856,-2.1906369999999997,0.35287067,0.397586,0.4060683
-8.796641000000001,0.12216175,-1.9602191000000002,0.046774823,-0.13046336,0.40287435
-10.196378,-0.055468865,-0.72786605,-0.17732546,-0.12781046,0.26338765
-10.27714,-0.32413658,-1.1846126000000001,-0.09054768,-0.19593066,0.123935826
-9.600518,-0.7462152,-3.4586349999999997,-0.067125365,-0.23586379,0.003630285
-11.429603,-0.19719604,-1.5049186,-0.14484487,-0.12674580000000002,-0.049061205
-19.190964,-0.99921525,1.0438144,-0.131528,-0.0037699111,-0.04426155
-20.166006,-1.6671879,2.1973407000000003,-0.11023499999999999,0.129294,-0.02029818
-12.106338000000001,-1.0793540000000001,2.8020012000000003,-0.14484487,0.20807815,-0.006475171500000001
-10.632822,2.9619436,5.590681,-0.14217453,0.1441991,-0.0038048178
-12.362902,4.4990879999999995,2.42728,-0.08255407,0.015917404,-0.0038048178
-11.551755,2.372721,-0.7366863,0.054768432,-0.010157816,-0.051173054
-10.6028185,2.1770093,0.26699179999999995,0.26235790000000003,0.021764256000000003,-0.06983062599999999
-9.717634,0.93187124,0.7106374,0.41620865,0.056897733,-0.06874852
-8.9596,-0.41219535,0.08769482,0.45188320000000004,0.0749968,-0.07141887400000001
-8.050599,-0.71437234,-0.21965364,0.44123667,0.09683087,-0.087388635
-7.082556200000001,-0.49831000000000003,-0.037952885,0.24799383,0.19901989999999997,-0.08897688
-6.4674190000000005,-0.082743615,-0.18197848,0.028134707000000002,0.29112092,-0.096446894
-6.288744,-0.07360734,-0.31617829999999997,-0.16613789,0.32731906,-0.10175269999999999
-6.706504,-0.56649685,-0.03250368,-0.11449360000000001,0.41781437,-0.08525933
-7.1414056,-1.1866524999999999,0.054329224,0.16655678,0.5146976,-0.060772362999999996
-7.6097592999999994,-1.5536357,-0.09143935,0.0861669,0.64725536,-0.19172442
-7.945742599999999,-0.9296110999999999,-0.5592951,-0.18263125,0.08564331,-0.29604274
-7.8617826,-0.22662555,-1.3104519,-0.026145032000000002,0.04038692,-0.09590584
-7.576403,-0.006023811,-1.9558138999999999,0.1968906,0.30496138,-0.21514674
-7.180699300000001,0.132294,-1.9685988,0.5375789000000001,-0.009093165,-0.38070866
-7.5079193,0.6212474,-1.9680338,0.6429793,-0.15814428,-0.40678388
-8.956996,0.9508523999999999,-2.1868353,0.27408649999999996,-0.10330604,-0.43605307
-10.459702499999999,0.8239789000000001,-2.3733049999999998,0.012182398,0.0068591437,-0.33491123
-10.360725,0.40702388,-3.5805572999999997,0.020158553,-0.16931438,-0.10547025
-9.727604,0.4960307,-2.2981942,0.18891443,-0.4221777,0.020664698000000002
-13.337264999999999,2.016818,-1.4294437,0.34168312,-0.48658034,0.031834807
-16.327038,2.2640912999999996,-0.13585658,0.35499996,-0.43814746,-0.007522369300000001
-12.531568,1.6238528,-0.42631155,0.28152162,-0.45465827,-0.005410521
-11.92729,0.42717347,2.1228428,0.24160592,-0.4998972,0.06483898
-13.687201500000002,-0.45457274,3.9540625,0.22404791,-0.49616220000000005,0.16439256
-13.178385999999998,-0.31589097,1.3204405000000001,0.19156733,-0.48232174,0.21708405
-12.379747,-0.10856268599999999,0.24397872,0.1362055,-0.45411720000000005,0.21868975
-13.147711,0.17968962,0.6077059,0.072326444,-0.3976907,0.20430824
-13.171354999999998,0.893133,-0.12654793,-0.018151425,-0.29122564,0.18514453
-11.211117,1.0482007,-0.25011745,-0.20125392,-0.26567402,0.18622664
-9.520007000000001,0.98675585,-0.2916808,-0.40303144,-0.2837731,0.20111428
-8.21917,0.9087431999999999,-0.74280584,-0.46743408,-0.11288789999999999,0.16706291
-7.4076889999999995,1.2734854,-0.7413981,-0.360969,0.056897733,0.07867944
-6.7643476,1.7981029,-0.42432916,-0.17250834,0.0792554,0.022270402
-6.140974,2.005661,-0.28055257,-0.16613789,0.10267772,-0.06555457
-5.7928,1.8892837,-0.28089732,-0.30187213,0.12290609,-0.11185815
-6.0928216,1.6253756000000001,-0.35314474,-0.2438574,0.37629297,-0.13901548
-6.8145585,1.5728563999999998,-0.46144885,-0.17252579999999998,0.25598744,-0.009669124
-7.317782000000001,1.6340139,-0.72562504,-0.1272694,-0.046355944,0.24211207
-7.351108999999999,1.7097089,-1.4218781,-0.10758209,0.24481733,0.22401302
-7.363109,1.2052219,-2.3893845000000002,-0.07936012,0.46413540000000003,0.18090338
-7.637082,0.5793202,-2.602842,-0.011222467,0.23842943,0.31131437
-9.056183,0.3217137,-1.5743505,-0.28270844,-0.15601498,0.39488074
-10.89581,0.35066438,-1.2528473999999998,-0.40568432,-0.17250834,0.29427996
-11.053473,0.116453975,-2.9304072999999997,-0.20125392,-0.22893484,0.16652186
-11.137798,0.68048,-3.5083292,-0.11128219,-0.22095868,0.06539748599999999
-15.508078,0.2825158,2.8578055,-0.18102555,-0.17517869,0.0094945915
-19.038404,-0.5495363,0.8369459,-0.2401224,-0.071907565,-6.981316999999999e-05
-15.637967999999999,-2.0969567,1.7862756000000002,-0.22361158,0.08990191,0.011623893
-10.825479,0.21894497,1.5605311000000002,-0.18688986,0.15165167,0.029722957
-10.022502000000001,3.4277307999999995,3.6185007000000007,-0.16666149,0.09683087,0.021729348
-11.54531,4.683422599999999,1.6321176000000002,-0.10384709,-0.005358161,-0.006457718
-10.779444,2.3891833,-0.14350845,0.043057274000000006,-0.017610373000000002,-0.03679154
-9.987594999999999,1.3931285,1.0534201,0.20542525,0.033475414,-0.056496307
-9.636086,0.71335715,1.7171215,0.30442032,0.06647959,-0.04373795
-9.2038,0.024133552000000003,0.58785313,0.30602604,0.08937831,-0.022444934
-8.603267,-0.29487947,-0.26436773,0.32147220000000004,0.11386528,-0.016039576
-7.625341000000001,-0.23376028,-0.3848344,0.36618754,0.18039723,-0.056496307
-6.993645,0.063867725,-0.13725479,0.2714336,0.24588199,-0.10547025
-6.792876700000001,0.025617959,-0.022428881,0.07553785,0.26823965,-0.11665781
-6.9271345,-0.5508675000000001,-0.049512092,-0.0591143,0.31295500000000004,-0.10386454
-7.208653999999999,-1.2400815,0.16191506,0.020699605,0.45455354,-0.053302355
-7.3990984,-1.4413095,0.09735782,0.20755455,0.6775892,-0.02401573
-7.618942999999999,-0.9835381,-0.32898244,0.36831683,0.8362222,-0.09908234
-7.876751,-0.36805585,-0.90906876,0.008464847,0.34648275,-0.3061482
-7.674498599999999,-0.07796478,-1.4623017,-0.058590703,-0.22734658,-0.1762608
-7.330787,-0.25911966,-1.5827876,0.092572264,0.11971214,-0.13048081
-7.3890715,0.036784515,-1.4292905,0.42367867,0.09309586,-0.19118336
-8.317762,0.76641273,-1.6467606,0.67706555,-0.09318313,-0.25610963
-9.631979,1.1313274,-1.7248979,0.51736796,-0.16824974,-0.38919097
-10.405306,1.1291246000000001,-2.2718868,0.31136674,-0.0559378,-0.34714597
-9.713841,0.6405543,-3.66264,0.27836257,-0.076689765,-0.14486232
-9.152755,0.08644984,-3.4364169,0.383763,-0.37585667,0.005253441
-12.151254,1.565128,-1.1947832,0.5615597,-0.47432813,0.038257618
-16.848914999999998,1.9129001,-1.0809053999999998,0.5977578,-0.3811799,0.004171337
-13.619914000000001,2.406211,0.6074377,0.4950103,-0.3817035,0.007906342
-11.937949,1.3187263,2.5548525,0.37896335,-0.39714968,0.078173295
-12.977942,-0.23534046,3.985407,0.32466614,-0.42589524,0.16386896
-12.884425,-1.2299013,1.5565568,0.26771605,-0.46954593,0.2080607
-12.252327000000001,-1.0101902,0.05050808,0.19905479999999998,-0.4674166,0.23841198
-12.940142999999999,-0.26254815,0.7511376999999999,0.108542025,-0.40566690000000005,0.2527586
-13.187426,1.0535253999999998,0.05083369,0.0058119465,-0.40407863,0.24532348
-11.638319000000001,1.6124181999999998,-0.31002995,-0.1943424,-0.39023817,0.26022860000000003
-9.666953,1.5699643,-0.31569943,-0.41257837,-0.31569517,0.24319418
-8.083236999999999,1.5391556,-0.72785646,-0.59198076,-0.19858356,0.1649336
-7.308942299999999,1.4776821000000002,-0.87763774,-0.5999569,0.013247048999999999,0.0808262
-6.7226786999999995,1.7060313999999999,-0.6700316999999999,-0.40406117,0.056915186,0.04464552
-6.0275083,2.0485556000000003,-0.36484759999999994,-0.2768441,0.15112805,-0.033056535
-5.5981703000000005,2.1729677000000005,-0.19102857,-0.16823229,0.35501742,-0.15070918
-5.7942743,2.1633622999999997,-0.2863657,-0.47645742,0.56475365,-0.29496065
-6.6399546,2.2410877,-0.46363238,-0.31517157,0.8474096999999999,-0.34234634
-7.337126700000001,2.1218374,-1.0793157,-0.89219487,0.30710813,-0.0016580628
-7.8030577,1.7373381999999997,-1.9463136000000003,-0.6755471,0.30710813,0.37095228
-8.240296,1.279854,-2.3288496,-0.13576916,0.6259623000000001,0.43750167
-9.034214,0.38565803,-2.3832555,0.23471187,0.3278601,0.37095228
-10.024799,0.10894576,-1.6520375,0.039357174,-0.17941985,0.31667253
-10.791250999999999,0.34679532,-1.5399027,-0.10276499,-0.28110272,0.18411478
-10.355276,0.080052525,-2.9414587000000005,-0.048467792999999995,-0.33061773,0.064332835
-9.528444,0.6350380999999999,-4.1224226999999996,-0.0042935097999999994,-0.27471483,-0.0021991148
-10.87026,1.2749507,-2.8347634999999998,-0.051661745,-0.12672836,0.009512044499999999
-17.042837,0.73503906,3.225028,-0.10222393,0.022305308,0.021223204
-18.730022,-2.0385,3.3828730000000005,-0.10224139,0.09789552,0.011100293999999998
-12.541366,-1.7944733,4.098068700000001,-0.10915289,0.07340855,0.0031241393
-10.150305,3.337651,5.060298400000001,-0.06496116,-0.027715827999999998,-0.018692477
-12.017131,4.526104,1.7293031000000003,0.07661995,-0.09053023,-0.041573743999999996
-12.225435000000001,2.5153196,-0.5356883000000001,0.2618692,-0.022916173999999997,-0.06660176
-11.303611,1.8538974999999998,0.10154288,0.3688579,0.09737192,-0.06819001599999999
-9.998406,0.4509431,0.774304,0.40505599999999997,0.18839084,-0.051155599999999996
-8.960289999999999,-0.36072958,0.12755350000000001,0.43060762,0.21820106,-0.06234316
-7.689543700000001,-0.89659977,-0.4490469,0.38004544,0.104824476,-0.13206907
-6.778971,-0.81377,-0.39805996,0.15221016,0.10323623,-0.22095868
-6.3235083,-0.39048472,-0.2019174,-0.12351695,0.0047472958,-0.1943424
-6.2601767,-0.39525396,-0.18036959,-0.062308256,0.18893189999999999,-0.1182286
-6.4101496,-0.82472587,-0.013627796000000001,0.08939576,0.44338346,-0.021868976000000002
-6.5302615,-1.1531337,0.0022409728,0.24109977,0.6712187,0.07019714
-6.806572,-1.0091656,-0.38170278,0.25973989999999997,0.8900132,-0.047420595
-7.093924,-0.40466797,-0.8977778000000001,0.03296927,0.020176006,-0.17411405
-7.133141,-0.13268666,-1.0224487,0.27783898,-0.22893484,-0.18688986
-7.067817,0.034438197000000004,-1.432652,0.30925488,-0.15599753,-0.29016098
-7.715726400000001,0.7825304,-1.8705994,0.54613096,-0.13576916,-0.293896
-9.204097,1.7697078000000002,-1.9072403000000002,0.4652175,-0.11074114,-0.38278562
-10.570362,1.9300234,-1.9743258000000001,0.10643018,-0.09637708,-0.4344299
-10.418733,1.4426502,-3.7603044999999997,-0.038344882000000004,0.0026179939,-0.26993263
-9.759253999999999,0.7072376,-4.860957599999999,0.12027064,-0.2518161,-0.09798279
-10.003003999999999,0.14509821,-3.9900904,0.3209486,-0.43706536,-0.07244862
-13.795198000000001,0.93265647,-0.99972284,0.40985566,-0.36999235,-0.07244862
-17.291517000000002,1.8216523,1.7858924999999999,0.31670743,-0.3162362,-0.034644786000000004
-13.795525,3.2257655,3.1078367,0.18149678,-0.35508722,0.06806784
-13.045717999999999,0.90277684,3.7161267,0.08248426,-0.3859621,0.17613862
-13.183825500000001,-0.014269442,2.2407334,0.019128809,-0.43333036,0.23256512
-12.416866,-1.5036927,-0.15870684,-0.047926743,-0.42694244,0.24588199
-12.070502000000001,-1.6391758,-0.15483782,-0.104353234,-0.33166492,0.23204152
-12.853328999999999,-0.24668896,0.48631024,-0.19697785,-0.27150342,0.19052014
-11.693588,1.1025107,0.8213357,-0.36199874,-0.28853783,0.17720328
-9.767625,1.6015103000000002,0.3371132,-0.53234285,-0.28002062,0.19477874
-8.178765,1.9748333999999999,-0.53585106,-0.5839696999999999,-0.14215706,0.20114920000000003
-7.499789,2.0167415,-1.0103818000000002,-0.48123965,-0.022375122,0.15591027
-7.2068725,1.7910736,-0.9886425,-0.29066715,-0.023980823999999998,0.07819075
-6.829135000000001,1.6629741999999998,-0.5339166,-0.26670375,0.07449065,-0.026127578999999998
-6.3366475,1.5288128,-0.14225389,-0.23635249,0.22354177,-0.13098696
-6.1371818,1.5379393999999997,-0.122880004,-0.5094442,0.5014156,-0.2470339
-6.539427,1.7099197,-0.24585579999999999,-0.26031587,0.70315826,-0.23905775
-6.961898,1.8582835,-0.79845667,-0.73675585,0.20331341,0.12025318
-7.205216,1.7211150000000002,-1.8431618000000003,-0.6169739000000001,0.12027064,0.4774348
-7.526325999999999,1.2836177,-2.4966257,-0.20282471,0.5030039000000001,0.3385066
-8.38979,0.33189383,-2.517072,0.17352064,0.32627186,0.3219958
-9.761859,-0.17253575,-1.282478,0.097930424,-0.06017895400000001,0.37151077
-10.705491,0.27857974,-0.931536,-0.085172065,-0.18952529999999998,0.21074851
-10.571952,0.037818807999999995,-2.4827392,-0.14426892,-0.29227284,0.119729586
-9.263406,0.49587747,-4.074251,-0.16449729,-0.32208306,0.06063274
-9.63851,1.7185580000000003,-4.010642,-0.19802506,-0.1826138,0.034016468
-16.77233,0.32909740000000004,5.369025700000001,-0.15702727,-0.055920347999999995,0.02391101
-20.885149,-2.5524970000000002,2.7546630000000003,-0.10220648,0.02284636,0.0036826448
-13.387763,-3.361526,3.1153545,-0.08464847,0.0691674,-0.022392575
-9.099336,2.0216448000000002,4.747003,-0.04845034,0.02232276,-0.033580136000000003
-11.091513,4.806465,3.5908809999999995,0.022881266,-0.090512775,-0.033562682999999996
-11.379947999999999,3.3293769999999996,0.36670549999999996,0.11974704,-0.068696156,-0.0564614
-11.123883,1.9025763,-0.45041640000000005,0.24272294,0.018064158,-0.061243605
-10.363666,0.6490201999999999,0.29530084,0.35131732,0.0755553,-0.059655353
-9.4481325,-0.5873456,0.3151344,0.40135592,0.07661995,-0.057526052
-8.001528,-1.243759,-0.0812209,0.41306707,0.14634585,-0.095853485
-6.9640913,-1.1197107,-0.057211846,0.20333086,0.20437805,-0.16025613
-6.368978500000001,-0.51207185,-0.14358507,-0.056426495,0.20224875,-0.14215706
-6.244097,-0.14706145,-0.33854014,-0.120305546,0.20118411,-0.06391396
-6.661933,-0.38380012,-0.09017521,0.04576253,0.29593801,0.07714355
-6.917097599999999,-0.81581944,-0.0023942017,0.28265607,0.5471956,0.18893189999999999
-7.080727,-1.0790476,-0.3212923,0.3348065,0.97624993,-0.020263273000000002
-7.3774357,-0.7440796,-0.5415300999999999,0.09313077,0.10217158,-0.20390682
-7.468329,-0.48435658,-1.1512950000000002,0.32204816,-0.24914575,-0.16503833
-7.130765400000001,-0.15674359,-1.6678296000000001,0.23739968,0.012740903500000001,-0.24171065
-7.216947599999999,0.4347487,-2.239747,0.52804935,0.034557517999999995,-0.29227284
-8.517669,1.266753,-2.299717,0.49823913,-0.08199557,-0.37425095
-10.325445,1.6998544999999998,-1.9930676,0.1916197,-0.051661745,-0.45462337
-11.148178999999999,1.6610205000000002,-2.3833895,0.0697259,-0.045256387,-0.36412805
-10.221096000000001,0.83596903,-3.4976125,0.13786356,-0.3146305,-0.18102555
-9.820393,-0.012334928,-3.1565826,0.28213248,-0.5775818,-0.10222393
-13.0755205,0.6404489999999999,-1.0014945,0.3300243,-0.5669353,-0.09105383
-17.36525,1.7794856,0.47063303,0.2501755,-0.47113420000000006,-0.062849306
-13.535982999999998,2.7679174,3.245283,0.122958444,-0.4471708,0.024975661
-12.795275,0.57831466,4.2175684,0.0010646508,-0.4806986,0.13357005
-13.386394000000001,-0.29305990000000004,2.7270339,-0.08995427,-0.49614474,0.21448351
-13.071603999999999,-1.1521473,0.18881632,-0.16128588,-0.5318193,0.26132816
-12.587036,-1.1081514,0.06487329,-0.22570598,-0.5062502000000001,0.28049186
-13.082081,0.20471382,0.5424015999999999,-0.30023155,-0.42107815,0.27410397
-12.173433000000001,1.1244223999999998,0.45570278,-0.4380951,-0.3933972,0.23418827
-10.084444,1.4286393,0.34585682,-0.5828876000000001,-0.31196016,0.19479620000000003
-8.302057000000001,1.8656194,-0.35386300000000004,-0.65954244,-0.012793263000000001,0.16392133
-7.34,1.8511393,-0.79783416,-0.47109926,0.24537584,0.14262831
-6.794351600000001,1.8322443,-0.7908430999999999,-0.2501755,0.15062192,0.056915186
-6.379331,1.9241625,-0.4923532,-0.2038719,0.23472933,-0.080389865
-6.1438184,1.8965333999999998,-0.08629661,-0.23739968,0.49076912,-0.17833774
-6.1796737,1.8280879,-0.06981492,-0.26720992,0.88203704,-0.22040018
-6.750030000000001,1.7164607,-0.34603876,-0.36569884,0.78567743,0.004223697
-7.1172338,1.4611238000000002,-0.8029195,-0.47534043,0.2006605,0.373675
-7.2635293,1.2164843,-1.4091219,-0.07291985,0.5993635,0.31723103
-7.632973700000001,0.78885114,-1.7822055,0.37102209999999997,0.63929665,0.3635521
-8.25923,-0.18170077,-2.090004,0.32684782,0.15008086,0.36674604
-9.728628,-0.14531846,-0.7004285,0.08197811,-0.040997785,0.23418827
-10.652167,0.22623292,-0.9576520000000001,0.014905112,-0.13468705,0.1399754
-9.874713,-0.3891631,-2.8242578999999997,-0.023404865,-0.14587462,0.03457497
-9.188391000000001,0.34695813,-3.6111937000000007,-0.10698868,-0.14906856,-0.017051866000000002
-14.217305999999999,-0.034304123,4.1010284,-0.10644763,-0.043127085999999995,0.009005899
-19.091518,-1.5634615,0.96970916,-0.058014743,0.079813905,0.028710665
-14.773249,-2.9160898,3.7181377,-0.037245326,0.11335913,0.016999507
-10.106135,1.3177303,5.068525,-0.011693706000000002,0.06012659,0.0090233525
-11.582467999999999,4.1052895,3.9694523999999998,0.07452556,-0.06761405599999999,0.0037000979999999998
-12.048772999999999,2.5730102,0.22637656,0.19217820000000002,-0.11819369,-0.026616272000000003
-11.5018215,1.6997586,-0.30773154,0.29703757,-0.046862092,-0.062290803
-10.547655,1.6825683,0.28511113,0.37901568,0.013805554,-0.075607665
-9.553726,0.0889015,-0.014566323999999999,0.5110324,-0.0053407075,-0.08571312
-8.66725,-0.7070460999999999,-0.5288503999999999,0.5482952,0.012217305,-0.09475392
-7.537828,-0.85050666,-0.17212395,0.36198127,0.13465215,-0.119258344
-6.667880499999999,-0.45789587,-0.03892014,0.09955358,0.19373155,-0.12404055
-6.267837999999999,-0.24595155,-0.16652152,-0.012740903500000001,0.22355922,-0.09848893
-6.4415708,-0.52684885,-0.08739794,0.050562188,0.34971163,-0.030351276
-6.782534,-1.0500298000000001,0.06870401,0.23474678,0.5482603,-0.0058643064
-6.9148474,-1.4135271,-0.10778695,0.11391764,0.82135195,-0.26830947
-7.2212477,-1.1037079,-0.6249345000000001,-0.03457497,-0.20601867,-0.27735028
-7.5369186,-0.6049956,-1.1393815,0.22889993,-0.042062435,-0.1293638
-7.2732205,-0.08780016,-2.0216832,0.35081118,0.19266689,-0.24541074
-7.328757,0.2667811,-2.239661,0.5067738,-0.042603485,-0.38540359999999996
-8.347892,0.94626516,-2.1117817999999997,0.34281757,-0.14693926,-0.45940557
-10.249463,1.1825249,-2.1697787999999996,-0.037768926,-0.064420104,-0.45567057
-11.075874,1.1398411,-2.6716322999999997,-0.17564994,-0.06070255,-0.2491283
-10.099939,0.52728945,-4.030715,-0.054803338,-0.3683692,-0.06122615
-10.009641,1.0168175,-2.648284,0.17194983,-0.54244834,-0.02289872
-14.489382999999998,2.7473273,-0.9144222,0.22837633,-0.49932125,-0.045779984
-16.053783,2.8501055,0.9598450000000001,0.14001031,-0.45247662,-0.030351276
-12.347588,1.5774821,1.7475566000000002,0.06867871,-0.40563196,0.05215044
-13.074582000000001,0.10714532,3.7139718999999998,0.027680922,-0.41201988,0.15275122
-13.733371,-0.37108213,2.1785033,-0.010088003,-0.47909287,0.22195353
-12.4866905,-0.6855557,-0.1359715,-0.050021138,-0.49188614,0.24218188
-12.922599,-0.47296977,0.3268277,-0.09154252,-0.42107815,0.22301817
-13.104932000000002,0.46318224,0.16605225,-0.1421047,-0.4562116,0.16872098
-11.471703,1.1103828000000002,0.4551952,-0.2634749,-0.5089030999999999,0.12721705
-9.451437,1.2567643999999998,0.41025126,-0.47479936,-0.43118358,0.09580112
-7.6714720000000005,1.4299705,-0.41289443,-0.6057514,-0.19270179999999998,0.06544985
-6.76045,1.4290893999999998,-0.64711446,-0.5109975,-0.02448697,0.010105456
-6.389483,1.5213716,-0.36121798,-0.27783898,-0.0058643064,-0.0628144
-6.2627239999999995,1.7025552,-0.1275056,-0.24003513,0.1399754,-0.1394518
-6.1445940000000006,1.8260577,-0.045518562,-0.39282125,0.3342829,-0.16927949
-6.3120255,1.8409494999999998,-0.16055515,-0.31936035,0.72394514,-0.14372787
-7.077939999999999,1.8769392,-0.49779284,-0.41572,0.42371359999999997,0.16926204
-7.876224499999999,1.6020178999999999,-1.4008857,-0.29541442,-0.0026703537,0.39016834
-8.024617,1.4770693000000001,-1.9883654,-0.036163222,0.58499944,0.28904396
-8.161173,1.2032683000000002,-2.6525072999999995,0.402438,0.55838317,0.42477822
-8.550267999999999,0.56279063,-2.1461432,0.37051594,0.022863812999999997,0.5051681
-9.445441,0.28014076,-1.092455,0.21294762,-0.14213961,0.30288443
-10.193505,0.36931998,-0.73365045,0.24488714,-0.24061109,0.13573426
-9.962072000000001,-0.33672053,-2.6432562,0.21240658,-0.30183724,0.03139847
-9.815833999999999,0.23162465,-3.4497477999999995,0.11873475,-0.25232226,0.0
-15.264396,-0.51953214,4.902348,0.10009463,-0.17088519,0.00424115
-19.975399,-1.8624973999999999,2.4360142000000002,0.08518952,-0.11978195,0.012758356499999998
-12.929714,-2.8302336,2.967546,0.045256387,-0.081454515,-0.0031939526
-8.686689999999999,1.0722767,3.9050580000000004,0.04633849,-0.08836602,-0.03885103
-11.868432,3.9069445,4.7730803,0.055920347999999995,-0.12669346,-0.044174284
-13.266262,2.3682485,1.1086493999999998,0.11074114,-0.114458695,-0.030874874
-12.293229,1.0113778,-0.007603985,0.24701644,-0.058555797,0.0074351025
-10.86369,1.12629,0.97070515,0.41203734,0.015411257,0.025534166
-9.817635000000001,-0.12460384,0.28672004,0.5467244000000001,0.05586799,0.018622663
-8.651525,-0.5980812,-0.39555085,0.5786465000000001,0.034051374,-0.019704766999999998
-7.509806,-0.33629912,-0.35436100000000004,0.46207592,-0.0069289569999999995,-0.085172065
-6.528451400000001,0.12659581,-0.35793316,0.36625734,0.0,-0.069184855
-5.701053599999999,0.13821247,-0.19676508,0.21507692,0.053738687,-0.028204521
-5.35536,-0.23520638,0.16653110000000002,0.1857903,0.18043214,0.021816615
-5.673961,-0.923501,0.31742325,0.22785273,0.37686893,0.13147566
-6.5475764000000005,-1.4724053,0.34363499999999997,0.34335864,0.5828701000000001,0.21238911
-7.242795500000001,-1.4558853999999999,-0.058073755,0.39819688,0.8937482,-0.10431833
-7.262045,-1.0906833,-0.76548374,0.09744173,-0.22835888,-0.3630285
-7.280480000000001,-0.46557647,-1.0445327,0.40830234,-0.45886450000000006,-0.073984504
-7.5319386,-0.10882126,-1.3681043,0.564806,0.44233623,-0.22251202
-8.694141,0.36542222,-1.4416063000000001,0.11873475,0.45724136,-0.70745176
-10.230404,1.2887988000000001,-1.3557311,0.019181168000000002,-0.34920546,-0.6286676
-11.127569,1.4924973999999998,-2.0405111000000002,-0.33478907,0.06386159,-0.3390651
-10.807618,1.3345662,-3.47663,-0.334248,0.26614526,-0.18629645
-10.197585,0.48728707,-4.447929,-0.09098402,-0.2986433,-0.09367182
-9.972204,-0.5039986,-3.7759051,0.07614872,-0.47535786,-0.073967054
-14.026268,2.0539186000000003,0.43969038,0.084665924,-0.3683692,-0.076113805
-17.091393,3.9216832999999998,3.2448905,0.022916173999999997,-0.3683692,-0.03778638
-10.661638,3.1641386000000002,2.2221737,-0.015934857,-0.39552653,0.03939208
