accx,accy,accz,gyrx,gyry,gyrz
-7.3553705,-1.2391908999999999,-2.0188962999999998,-0.42755329999999997,-0.56965804,0.05255186
-7.9299789999999994,-0.77650666,-2.7966957000000003,-0.3477045,-0.107058495,0.02432989
-9.040419,0.33465195,-2.241059,-0.2907544,0.59239966,-0.045378562000000004
-10.1108,1.6729243999999999,-1.1290864,-0.26572640000000003,0.37521088,-0.06295402
-11.137607000000001,1.3582785,-1.8884984,-0.28541368,0.08988445,-0.013962634
-11.976554,-1.1834252,-3.156707,-0.43341762,-0.076183625,0.059463367
-11.749009,-1.9219118000000002,-4.728089,-0.5814041,-0.25078636,0.0993965
-11.375638,0.19522321,-3.9922546999999997,-0.6101321999999999,-0.43231806,0.13400638
-12.605682,0.76647013,-0.81411475,-0.47972120000000007,-0.42964769999999997,0.16060519
-14.507675,-1.6138451999999999,1.8464180000000001,-0.28756043,-0.34554029999999997,0.15315264
-16.144295,-3.7013687999999996,3.5798870000000003,-0.13636257,-0.29604274,0.11430161400000001
-11.281249,-2.3100982000000005,3.1130655,-0.05279621,-0.33969343,0.07225663
-10.251407,-0.20990445,1.9565895,-0.01712168,-0.37747982,0.040317107000000005
-11.691241,0.7569412,0.32106245,-0.013404128999999999,-0.33063516,0.040840704
-11.150812,0.35459086,-0.93573064,-0.03309144,-0.11398745,0.06691592
-10.573475,-0.5865411,-1.3036523000000002,-0.14648548,0.0132295955,0.07969173
-10.0274725,-1.0980575000000001,-1.4511638999999998,-0.27584928,0.03291691,0.07171558
-8.787094,-1.2145115,-1.0930010000000001,-0.30085987,0.07443829,0.062674776
-7.440125500000001,-1.5476024,-0.39486134,-0.17842501,-0.027209682000000002,0.09087929
-6.293734,-1.4992491000000001,0.0064164605,0.01584759,0.03132866,0.11482521
-5.976962,-1.4199148000000001,0.11251791,0.058451075,0.27672195,0.116430916
-6.1642364999999995,-1.6388886000000003,-0.057930104,-0.08740609,0.5625894,0.14091788
-6.5388427,-1.8839111000000002,-0.43430820000000003,-0.044802602000000004,0.39330995,0.16966346
-6.948337599999999,-1.6183655000000001,-0.89888865,0.07389724,0.12075933,0.11377801
-7.347144,-1.0282905,-1.7719296000000002,-0.1619142,0.041434117,0.03286455
-7.8321423999999995,-0.38122395,-2.6303275,-0.43127087,0.24000022,0.043493606
-8.360457,-0.36572868,-2.8199098,-0.2247286,0.44280749999999997,0.09833185
-9.355411,-1.0154288,-3.2000325000000003,0.011588986,0.11170107,-0.020367993
-10.960033000000001,-2.2638807,-2.5234885,0.20802579999999998,-0.053825952,-0.14919074
-11.473752000000001,-2.6824060000000003,-2.7499037,0.21069615,-0.042114794000000004,-0.18113028
-11.145391,-1.9985073,-4.6445694,0.1414764,0.00842994,-0.14013249
-11.275944,-0.98495543,-5.179204,0.08346164,-0.028815385,-0.11564551
-11.599888,-1.2884731000000003,-2.0908468,0.025970499999999997,-0.016563175,-0.12096877
-13.463870000000002,0.2975993,2.9857419,-0.02883284,-0.03679154,-0.13693853
-13.861517999999998,2.7082443,3.2055488,-0.09697049,-0.056496307,-0.13693853
-12.957208999999999,-0.23401885,3.4239767,-0.13903293,-0.09908234,-0.15610225
-12.847114999999999,-3.713943,2.44426,-0.19865337,-0.09588839,-0.16887806
-14.568076000000001,-3.2925348,2.3879576,-0.28701940000000004,-0.07246607,-0.17900097
-13.450999,-1.4852287,1.6803273999999997,-0.36632717,0.00577704,-0.1662077
-12.117992999999998,-1.0039654,0.58594733,-0.36793286,0.07391469,-0.18006562
-11.073891999999999,-0.42177215,-0.5887246,-0.24656266,0.16280429999999999,-0.18963002
-9.18614,0.11886732,-1.0328299,-0.07941248,0.2123193,-0.22369885
-7.542578,0.20126617,-0.8923476999999999,0.045134213,0.21497220000000003,-0.25459117
-6.629276299999999,0.27789020000000003,-0.81275487,0.0903906,0.23839453,-0.23966861
-6.0242043,0.37195359999999994,-0.51988655,0.1579872,0.31133184,-0.17739527
-5.5000844,-0.10043198,-0.31372663,0.15105824,0.23520057,-0.11725122
-5.274589499999999,-0.05690539,-0.40129694,0.072815135,0.2671401,-0.06721263
-5.779967,0.2710715,-0.5685846,0.06482153,0.29962066,-0.06721263
-6.4796963,0.36411977,-0.7964264,0.045675267,0.23467697,-0.11032226
-7.1716875999999985,0.021298817999999997,-0.83200425,-0.0075398222999999995,0.26820475,-0.110845864
-7.6535254,-0.9739325000000001,-1.3352559,-0.048537605,-0.07459537,-0.07305948400000001
-7.519067,-1.2472736999999998,-1.9785109,-0.32108822,-0.5334599,0.03817035
-7.703344,-0.62302876,-2.4694562,-0.4531049,-1.1653215000000001,0.13718288
-8.325491,0.7405074,-2.2197313,-0.21942279,-0.65376544,0.097267196
-9.555996,1.2607483,-1.9784437,-0.036285397000000004,0.07017968599999999,-0.102869704
-11.563879,0.23512976,-2.5851824,0.10262536,0.5641776999999999,-0.18964748
-12.601133,-1.3814065,-3.439338,0.18566813,0.48806387,-0.11671016
-11.23212,-1.3102987,-4.707929599999999,0.12604767,0.05953318,0.0041015237
-9.880697999999999,0.8096999,-4.546263,-0.05120796,-0.42858306,0.07810348
-10.605375,1.7715752,-1.8975773,-0.10869910599999999,-0.587216,0.13346533
-10.899958,0.7992706999999999,-0.35352784,0.04194026,-0.57763416,0.1712517
-13.755073000000001,-2.1276505,2.7833552000000004,0.22877775,-0.39557886,0.18296286
-15.047939999999999,-6.0026946,4.437864,0.37252307,-0.26942647,0.16594589999999998
-13.342599,-3.9692035000000003,4.643008,0.46460664,-0.24865706,0.12068952
-11.486432,-0.44342533,2.5385432,0.49654618,-0.21832323,0.076515235
-10.813757,1.1412010000000001,0.066386424,0.40924479999999996,-0.18957767,0.071174525
-11.269631,0.11076535,-1.1062936,0.2149373,-0.09321803599999999,0.09194394
-11.028075999999999,-1.4497563,-2.0967462,0.0009424778,-0.05169665,0.10204939999999998
-9.855156,-2.0332997,-2.3175297,-0.12625712,0.051557027000000005,0.09885545
-8.748747999999999,-2.2107964,-1.3859267,-0.11826351,0.14257595,0.09780825
-7.338621000000001,-1.9457006000000001,-0.15687767,0.021170842999999998,0.11276572,0.11004301
-6.643766,-1.1953194999999999,0.2104599,0.07068583,0.2580993,0.105243355
-6.7582759999999995,-0.9153033000000002,0.14767437,-0.036826447000000005,0.42044982,0.11803662
-6.666328999999999,-1.1325723,-0.28915253,-0.028309241000000002,0.35231215,0.19415042
-6.745318400000001,-1.5376617,-0.85017145,0.21121974,0.22668336,0.25055948
-7.0942397,-1.5866758,-1.6262662,0.5146452,0.16228071,0.16592845
-7.40563,-0.8244385000000001,-2.391003,0.28468066,-0.13580407,0.054681167
-7.606273700000001,-0.23341551,-2.5468848,-0.13105677,-0.2624975,-0.002268928
-8.081225,-0.28939193,-2.6941377999999996,-0.11986921,0.37095228,0.16114625
-9.014907000000001,-0.8830103000000001,-2.77985,0.07546803,0.23626523,0.06319837
-10.520745,-1.5189103000000002,-2.1435957,0.23783602,0.06859144,-0.093811445
-11.121163000000001,-1.4642937,-3.4663062000000004,0.32354912,0.10372492,-0.16941911
-11.59601,-1.1689451000000002,-4.5739017,0.3464304,0.1452463,-0.13215633
-11.293277999999999,-0.70967966,-4.437337,0.37358773,-0.02401573,-0.110845864
-10.571636,-1.6579273,-2.4700406000000004,0.32939598,-0.038920842000000004,-0.10819296
-11.733158999999999,-0.80771744,3.1426387000000005,0.2617994,-0.09375909,-0.12096877
-14.029620000000001,2.3272597999999998,3.4132888,0.18407987,-0.14699163,-0.150779
-14.130234,0.66916025,4.7600083,0.13191198,-0.19703022,-0.17207201
-13.454647,-3.1199417,2.9659847999999998,0.047804568,-0.22310543,-0.16303120000000001
-15.159894,-3.2257655,1.9375125,-0.091106184,-0.10758209,-0.12681562
-13.290845999999998,-2.3642359,0.76778215,-0.19120082,-0.0027227136,-0.09807005
-11.807053999999999,-1.5620538,0.3196355,-0.19652407,0.10531317,-0.09115855
-11.157392,-0.49110820000000005,-0.9701784,-0.05333726,0.18889698,-0.13535029
-9.140047000000001,0.37467340000000005,-1.4129428999999998,0.11220722,0.05953318,-0.19549432
-7.452297,0.75975686,-1.0949738000000002,0.18620917,-0.08044223,-0.2242399
-6.4329805,0.37952885,-0.6394051,0.15479325,0.11170107,-0.19123572
-5.650852700000001,0.21020134,-0.23112665,0.11168362,0.32888985,-0.13000958
-5.3179812,-0.12538913,-0.193576,0.015323991,0.41725585,-0.054436818
-5.0543227,-0.17299543,-0.31950143,-0.019250982,0.4657062,-0.013439035
-5.669412,0.26447308,-0.5709405,0.032358404,0.19687314,-0.05708972
-6.339281,0.500436,-0.7182605,0.15905185,-0.039461896,-0.043249257
-6.878445599999999,-0.060573302,-0.9920230999999999,0.16702801,-0.42060688,-0.0054628807
-7.389684700000001,-1.0168366,-1.3490657,-0.07675958,-0.5967979,0.080232784
-7.9549747,-0.86785024,-1.7967047999999999,-0.07782423,-0.19383627,0.0344528
-8.698891999999999,0.44766784,-1.9858179,0.055780724000000004,0.53490853,-0.034191
-9.024080999999999,1.5779226,-2.2178736,0.036075957,0.39330995,-0.040055305
-10.433616,0.83370894,-2.445926,0.023317598,0.17612118,0.0067718774
-12.327419,-0.7657805999999999,-3.4783727999999994,-0.09164724,0.04569272,0.090338245
-12.746825,-1.1307911,-4.3865894999999995,-0.24123941,-0.18531907,0.12388347
-11.967399,0.21378306,-3.888442,-0.30403635,-0.38493237,0.14465289
-13.380417999999999,-0.17264110000000002,-0.51664,-0.22046999999999997,-0.39344957,0.20586158
-14.426692999999998,-2.1639369999999998,1.3998706,-0.063442715,-0.31307715,0.21863739
-15.349379999999998,-3.8581027999999997,2.9360093999999997,0.080808744,-0.23429299999999997,0.21490239
-10.716868,-3.084163,3.2142732000000005,0.13243559,-0.29550170000000003,0.19521508
-10.231554,-0.59267986,2.1057672999999997,0.14308210000000002,-0.31307715,0.13611823
-12.446621,0.48624322,0.8749754000000001,0.12870058,-0.23481660000000001,0.097267196
-11.694335,0.24333708,-0.3412408,0.10210176,-0.09482374,0.06691592
-10.662816000000001,-0.7495288,-1.0993983999999999,0.030229102999999997,0.028134707000000002,0.056286868
-9.920031,-1.4840506000000002,-1.2926389999999999,-0.07195993,0.049427725,0.041364305
-8.662184,-1.7693726000000003,-1.0076716000000001,-0.112416655,0.05581563,0.029653143
-7.428030000000001,-1.6770233,-0.37235585,-0.028850293,-0.024556782000000003,0.032847095
-6.440843,-0.96667325,0.14732958,0.084002696,-0.013910273999999999,0.044034656
-6.216382,-0.77348995,0.17554286,0.029164452,0.18942058,0.024870941
-6.435298400000001,-1.2259078,-0.11723927,-0.122522116,0.32571334,0.047769662000000004
-6.4883055999999995,-1.7669209,-0.6095063000000001,-0.11826351,0.27246335,0.115366265
-6.7791630000000005,-1.9057175,-1.0902333,-0.0352382,0.06859144,0.11801916
-7.0814743,-1.6054751,-1.8691436999999997,-0.28382543,-0.06340781,0.03338815
-7.626777000000001,-0.63260555,-2.3813207000000003,-0.42807690000000004,0.11276572,0.019024088999999998
-8.178784,-0.27338909999999994,-2.4474103,-0.2332458,0.28152162,0.06426302
-8.8211775,-0.6994325,-2.8382206,0.058974676,0.06592108,-0.012915436
-10.151367,-1.5629253,-2.5063462000000003,0.2532822,-0.20181242,-0.11831587
-11.20632,-2.2133722000000002,-2.7206366,0.34697145,-0.19170697,-0.16194909999999998
-11.174936,-1.9453942,-4.365118,0.301174,-0.085241884,-0.12522738
-11.424114999999999,-0.85544825,-5.0119643,0.24528857,-0.07140142,-0.09435249999999999
-11.311397,-0.6940312,-3.881365,0.18353882,-0.042114794000000004,-0.103934355
-12.513775,-1.365011,1.2962784,0.14627604,-0.029338984,-0.10819296
-14.096207000000001,1.1862598999999998,3.168228,0.11592477,-0.0458498,-0.08051204
-13.330925,0.5272415,3.3084322999999998,0.09037315,-0.13208652,-0.05656612
-12.812733999999999,-3.4215345,3.123485,0.06377433,-0.09801769,-0.05921902
-14.880213000000001,-3.794561,2.2626548,-0.0155334305,-0.100146994,-0.035796702
-14.166595999999998,-2.1600582999999998,2.1357715,-0.09271189,-0.06288421,-0.014503686000000002
-12.233787,-1.626908,1.4316176,-0.08580039,-0.055431657,-0.035796702
-11.428913,-1.4595245000000001,-0.033346443999999996,0.015323991,0.07550294,-0.08955284
-9.962666,-0.91379976,-0.95471185,0.16278686,0.14151129,-0.14917329
-8.182385,-0.39773437,-1.0132933000000002,0.28680995,0.111177474,-0.17739527
-6.797828,0.04603571,-0.78779775,0.31662017,0.11863003,-0.17367771
-6.027786,0.3765409,-0.41891828,0.29585075,0.2607522,-0.13906783
-5.4936110000000005,0.23317608,-0.22979549,0.24528857,0.27726302,-0.079970986
-5.247717,-0.07218039,-0.27236438,0.15639895,0.31133184,-0.015568336499999998
-5.9191655999999995,0.03400724,-0.53186715,0.08398525,0.28736845,-0.037926003
-6.311767,0.2649998,-0.6461376,-0.006475171500000001,0.14470525,-0.06613053
-6.60951,-0.12978488,-0.65237206,-0.15180874,0.05368633,-0.06721263
-6.9115148,-0.67094153,-1.0088017,-0.36686820000000003,-0.35618679999999997,0.002513274
-7.1522083,-1.0683023999999999,-1.5530995,-0.31843530000000003,-0.82569784,0.10843731
-7.907895,-0.5455141,-1.866443,-0.21249384,-0.054367005999999996,0.009424778
-8.697474,0.5963094,-1.9015803,-0.20184733,0.68289495,-0.11510447
-9.436354,0.8487349000000001,-1.9134363999999997,-0.24602161,0.637115,-0.10606366
-11.410229,0.15698302,-2.1661587000000004,-0.29873055,0.31984904,-0.010786135
-12.584432000000001,-0.8116821999999999,-3.4916462999999998,-0.49836132,0.061662484000000004,0.08768534
-11.167045,-0.7256155,-4.5996255999999995,-0.6798581,-0.21991149,0.14091788
-10.716763,0.53615755,-3.1546195,-0.70383894,-0.42219514,0.18137461
-11.987423,0.20198444,-0.24866179,-0.55637604,-0.40409607,0.20959659
-14.3702,-2.2181609,2.154954,-0.36100390000000004,-0.31946507,0.22022565
-16.476053,-5.3360624,4.4087024,-0.18959512,-0.27740264,0.1622109
-10.397932,-3.0005188,3.450715,-0.05440191,-0.29284879999999996,0.14730579
-10.805703,0.057786454,1.6279709,0.011065387,-0.27262044,0.12974778
-11.735199,1.2319126,-0.41389045,0.006806784000000001,-0.23961625,0.120148465
-11.201857,0.27905858,-0.94192684,-0.074630275,-0.16083209,0.11695451
-10.92637,-1.2401677,-1.5695428999999999,-0.12732176,-0.08470083,0.11056661
-10.050753,-1.8673718999999998,-1.5760359,-0.09164724,-0.016563175,0.10684906
-8.848317999999999,-1.7880856,-0.67343146,0.062692225,-0.019233529,0.12068952
-7.7685523000000005,-1.9331933000000001,0.14302003,0.23092452,-0.025080381000000002,0.14358823
-7.098741,-1.672235,0.37874356,0.27668706,0.16919221,0.14943509
-6.806457000000001,-1.525231,0.31637940000000003,0.1409528,0.41619122,0.13559464
-6.8470335,-1.8253872,-0.17655802,-0.028309241000000002,0.5572661999999999,0.17978637
-6.6336436,-2.1577599999999997,-0.6767738,-0.02883284,0.42205550000000003,0.20586158
-6.802291,-2.1780245,-1.293884,-0.34929276,-0.11238175,0.11164871
-7.0313106,-1.5557618,-2.148863,-0.47865656,-0.06553711,0.086079635
-7.151969,-1.06881,-2.3151452999999997,-0.23804545,0.26129323,0.086079635
-7.606867299999999,-0.95351475,-2.3712556,-0.15074408,0.088278756,0.018483037
-8.533644,-1.523488,-2.2872,-0.01605703,-0.15283848,-0.08957029999999999
-10.122560499999999,-2.4240717999999997,-1.8041555,0.11007792,-0.19170697,-0.17048377
-10.781989999999999,-2.4356022,-3.4314945,0.11168362,-0.19435987,-0.18165387
-11.040967,-1.9471085,-5.146432,0.012130038000000001,-0.120898955,-0.14652039
-11.668133000000001,-0.75473857,-5.2036347,-0.063442715,-0.041591197,-0.14119713
-13.42585,-0.7026695,-1.2094933,-0.11880456,0.011100293999999998,-0.16514306
-15.405376,1.2895458,2.0418806000000003,-0.17790142,0.011100293999999998,-0.16674876
-12.822578,1.3478589,2.8463132,-0.20238838,-0.053302355,-0.19549432
-12.021908999999999,-1.7660973000000002,2.7288535,-0.26040313,-0.18584266,-0.21626374
-13.884492999999999,-3.436982,2.388197,-0.33599332,-0.14592698,-0.21998130000000002
-14.294093,-2.6192182999999996,2.2233994,-0.40732494,-0.07353072,-0.21039943
-12.55845,-1.184402,1.6971443,-0.42010075,0.015358897,-0.18591247
-11.846912,-1.0090315,0.5932161,-0.36632717,0.11491248,-0.15875515
-10.646622,-0.38846403,-0.59745866,-0.22685789999999997,0.19580849,-0.17845991
-8.780122,0.05926128,-0.9554396999999999,-0.07567748,0.24425882,-0.22317526
-7.382453999999999,0.23614490000000002,-0.8204833,0.00095993106,0.12660618,-0.23860396
-6.5592312999999995,0.49857813,-0.87163305,0.045134213,0.04675737,-0.20879374
-5.897024,-0.13252385,-0.60176826,0.09997246,0.121300384,-0.14597934
-5.567132,-0.4324024,-0.5993835999999999,0.11433652,0.19154988,-0.09061749
-5.5705795,-0.23851994,-0.42904097,0.106883965,0.2836509,-0.07093018
-6.0235724,0.28550375,-0.55711156,0.077597335,0.29962066,-0.12470377
-6.652634,0.20151517,-0.6008393,0.11220722,0.2879095,-0.13267992
-7.3806534,-0.5038741,-0.85268056,0.08559094,0.038781215,-0.118839465
-7.6246133,-1.2592542,-1.2514108,-0.07302458,-0.40516073,-0.059236474000000004
-7.8318458,-1.5301917999999999,-1.9952703,-0.11986921,-0.7554309,0.040317107000000005
-8.221219999999999,-0.7065672,-2.5260646,0.18514453,-0.18584266,-0.01982694
-8.849908000000001,0.5474773000000001,-2.0518022,0.20109683,0.4183205,-0.10499900599999999
-9.590435000000001,0.79845667,-1.6407273,0.07867944,0.34805354,-0.09115855
-11.200219,-0.4717152,-2.1682465,-0.007557275699999999,0.055274576,-0.00066322513
-11.997518,-2.00659,-3.3948345,-0.14116223,-0.13208652,0.12229522
-11.033142999999999,-1.2163216000000001,-4.711071,-0.22579324,-0.33169982,0.17659241
-11.119861,0.9205993,-3.0542066,-0.16193165,-0.40303144,0.20425588
-12.17395,0.18594328,-0.47194505,-0.010733775,-0.35566318,0.23727751
-14.528964000000002,-1.9495601999999999,2.4267247000000003,0.10210176,-0.29071948,0.25644124
-15.699288000000001,-4.5160294,3.9301297999999996,0.1537286,-0.35831609999999997,0.25802946
-10.732553999999999,-2.94256,3.7199190000000004,0.17289232,-0.40144318,0.24898867
-11.567097,-0.6905452,1.8542421999999998,0.18407987,-0.41741294,0.18989182
-11.979896,0.8040304,-0.28050467,0.17662732,-0.31201252,0.1707281
-11.179332,0.36956897,-1.39943,0.13137093,-0.17254324,0.15582299
-10.689584,-0.85433733,-1.420978,0.068032935,-0.09269444,0.13081242
-9.730898,-1.423985,-0.9773514000000001,-0.044279,0.068050385,0.11110766
-8.289492999999998,-1.6997205000000002,-0.56550086,-0.075694926,0.0829555,0.11376056
-7.2270894,-1.7789397,-0.11851299,0.062168628,0.07230899,0.13985324
-6.815076400000001,-1.6737194,-0.09664913,0.11965977400000001,0.3571118,0.12868312
-6.4638944,-1.4538838,-0.28853962,-0.025638886,0.59665823,0.14252359
-6.301194000000001,-1.4234774,-0.4717535,-0.12358677,0.6525437,0.21490239
-6.290056,-1.6626198,-0.8514069,0.005742133000000001,0.47155306,0.22183135
-6.821396400000001,-1.6127917999999999,-1.3052614,0.16331045,0.09201376,0.11695451
-7.28229,-1.0217592,-1.9410366999999997,-0.042690754000000004,-0.19542451,0.031782445
-7.559127,-0.6458024,-2.0985560000000003,-0.28434905,0.11170107,0.06480408
-8.153148,-0.80534244,-2.744464,-0.1619142,0.40341540000000004,0.11430161400000001
-9.495558,-1.3568132,-2.8199002999999996,0.054192472,0.19793779,0.06000442
-10.976639,-1.6426904999999998,-1.9532471999999999,0.16863371,0.045169123,-0.06560693
-11.382581,-1.3959346000000001,-3.8016474000000002,0.21282545,0.051557027000000005,-0.11936307
-11.833533000000001,-1.2599726,-4.9880895999999995,0.2037672,0.08189085,-0.09861110000000001
-11.637017,-0.81244844,-5.128016000000001,0.23198916,0.01855285,-0.08955284
-10.904814,-1.5481770000000001,-2.7726482999999997,0.2122844,0.016423548,-0.11138691
-12.659466,-0.33066799999999996,3.2338195,0.20057324,-0.028815385,-0.14173819
-13.11762,2.502314,3.8931157999999995,0.13510594,-0.084177226,-0.18963002
-12.606794,-0.06677908,3.3776536,0.096778505,-0.15337953,-0.21998130000000002
-13.177389999999999,-3.0217602,2.8042037,0.04087561,-0.22258183,-0.21465804
-15.397217000000001,-3.0178529999999997,2.5204337000000003,-0.08792969,-0.121963605,-0.18645352
-14.109117499999998,-1.5812266000000001,1.5016817,-0.19652407,-0.03626794,-0.1550376
-12.566313000000001,-1.3167152,0.6542587,-0.20397663,0.07443829,-0.13587388
-11.06577,-0.86289907,-0.89709777,-0.09112364,0.23893557,-0.15184364
-8.983246000000001,-0.07351156,-1.4294917999999999,0.07707374,0.26555184,-0.19175932
-7.50701,0.40186197,-1.1686482,0.18195057,0.19422024,-0.20614083
-6.5244102,0.17872237,-0.8510334,0.21814871,0.17772688,-0.18856537
-5.5286136,0.29385474,-0.5863305,0.20856684,0.29536206,-0.13800319
-5.1463556,-0.11604217,-0.42370665,0.17608626,0.36456436,-0.07038913
-5.020727,-0.32234573,-0.50592357,0.15959291,0.34433600000000003,-0.046984263
-5.4342055,0.115793176,-0.7019512,0.15374605,0.32517229999999997,-0.09752899999999999
-6.152983,0.62938774,-0.76878774,0.06962118,0.24797638,-0.11616912
-6.8748546,0.23856784,-0.78350735,-0.06290167,-0.03520329,-0.110845864
-7.117483,-0.5444798000000001,-1.4003398,-0.375909,-0.3620511,-0.005986479
-7.417447599999999,-0.8468004000000001,-2.1025400000000003,-0.4126482,-0.75703657,0.07864454
-8.069742999999999,-0.25223392,-2.5079167,-0.17894861,-0.07831292599999999,0.003036873
-8.913986,0.90977746,-2.4009917,-0.10602875,0.45186573,-0.12524483
-10.310007,0.6986472,-2.3052142000000004,-0.12571606,0.53649676,-0.14439109
-12.251436,-0.39823237,-3.133378,-0.1677785,0.34060100000000004,-0.07677703
-12.573601,-0.99183154,-4.256172,-0.29286626,0.04782202,-0.0065275314
-10.771131,-0.39067626,-4.931797,-0.39667842,-0.20926498,0.044558257000000004
-10.884625,0.6811887,-3.101449,-0.39454913,-0.38866737,0.08662069
-12.102211,0.49803227,-0.57738566,-0.22207569,-0.46106362,0.13133602
-14.297329999999999,-1.7898381,2.408404,-0.0027576203000000002,-0.43497095,0.16062266
-15.249599,-4.7116546999999995,4.2849793,0.13775884,-0.36311576,0.14943509
-11.568888000000001,-2.794292,3.9247289,0.26871088,-0.36363935,0.15156439
-11.659312,-0.043603204000000007,1.4804306999999999,0.3352603,-0.23429299999999997,0.14784685
-11.38509,0.8538298000000001,-0.8164610999999999,0.25541148,-0.15709709,0.0988729
-11.058003999999999,-0.2548484,-1.4935701000000001,0.15105824,-0.104929194,0.097267196
-10.894853999999999,-1.6113169,-1.6941276,-0.0011519173,-0.06447246,0.10897836
-9.999777,-1.8015602,-1.6666995,-0.021397736,-0.12622221,0.10204939999999998
-8.90146,-1.5464436000000001,-0.97427726,0.0871792,-0.19435987,0.11163126
-7.8261476,-1.5246563999999998,-0.12855905,0.24528857,-0.100146994,0.12281882
-6.76158,-1.5175695,-0.047156196,0.21868975,0.28578022,0.0898321
-6.3042397,-1.3427354,-0.25562412,0.044069562,0.41460297,0.05948082
-6.1672144,-1.704662,-0.48785213,-0.060248765999999995,0.25171140000000003,0.12548918
-6.322780000000001,-2.1409237,-1.1171728,-0.07195993,0.012164945,0.16966346
-6.4917435999999995,-1.7928357,-1.8256075,-0.29712486,-0.17680185,0.09407324
-7.046317599999999,-1.062087,-2.3434925,-0.41104248,0.06592108,0.04829326
-7.447595,-0.5409938,-2.4963767999999997,-0.17948966,0.27193975,0.091402896
-8.138686,-0.657103,-2.3483672,0.15479325,0.13618805,0.044034656
-8.935802,-1.2269709,-2.232622,0.41404447,-0.11931071,-0.04590216
-10.125136,-1.8150251,-2.4713428,0.49122292,-0.09641199,-0.09115855
-10.42287,-1.7419158,-4.722812,0.44970155,-0.06181956,-0.07998844
-11.160629,-1.5998438999999998,-5.38999,0.3112969,0.045169123,-0.038990654
-11.588157,-0.6514526999999999,-4.802347,0.23570672,0.040369466,-0.03260275
-12.487112,-1.1323999,-0.36929125,0.17821556,0.04462807,-0.053354714000000004
-13.826016000000001,0.8106767,2.0539856,0.1489464,0.025464353999999998,-0.06825983
-12.818565,0.8709051999999999,3.8625752999999996,0.11220722,-0.02242748,-0.09274679400000001
-12.575746,-3.2132196,2.9784155,0.066968285,-0.1757372,-0.0959582
-13.926392000000002,-4.2486258,2.2966812,0.027576202999999997,-0.2300344,-0.10606366
-14.787347,-2.5503612,2.3382921000000003,-0.0394968,-0.15922639,-0.0916996
-13.375792,-1.0371683,1.3064584,-0.11028735,-0.057560957999999995,-0.09435249999999999
-12.24072,-0.91137683,0.37115872,-0.12891002,0.015882496,-0.10925761
-11.202058000000001,-0.6566241999999999,-1.0768067,-0.072483525,0.13992305,-0.14332643
-9.318597,-0.42012495,-1.3574166,0.045675267,0.1585457,-0.18697712
-7.824768,0.14435121,-1.041698,0.1515993,0.112242125,-0.2088112
-6.807539,0.38002685,-0.8775228,0.18247417,0.18516198,-0.16355479999999997
-6.0745015,0.20427328,-0.76662344,0.19737929,0.26181683,-0.10660471
-5.8240300000000005,-0.10339121,-0.5912242,0.13828243,0.30120890000000006,-0.07147123
-5.3652053,-0.17333063,-0.35299152,0.086132,0.37999308,-0.049637165
-5.7808194,0.2959425,-0.40566397,0.10316641,0.35178855,-0.117774814
-6.260943,0.46749184,-0.6466164000000001,0.12604767,0.26448720000000003,-0.09807005
-6.780398399999999,-0.11134953,-0.9063585999999999,-0.04108505,-0.025080381000000002,-0.052307516
-7.01095,-0.7507736999999999,-1.4722903999999999,-0.20982349,-0.5733756,0.041905355
-7.1518635999999995,-0.8700625,-2.1279762000000004,-0.27422613,-0.80812234,0.086638145
-7.684850999999999,0.04123773,-2.211409,-0.17469001,-0.025080381000000002,-0.011309733999999998
-8.741125,1.0902524,-2.094505,-0.18798941,0.33581880000000003,-0.10072295
-10.321011,0.6740731,-1.8506604,-0.20024163,0.28099802,-0.08422959
-12.063463,-0.7779335999999999,-2.915793,-0.2832844,0.0824319,0.036041047
-12.431653,-1.2225752,-4.0861073,-0.44350561,-0.14857988,0.14145893
-11.3340645,-0.30359435,-4.6851462999999995,-0.53347737,-0.35992178,0.20746729
-11.603863,1.0551438,-2.355473,-0.4578871,-0.44135886,0.2511005
-13.0946455,-0.21812135,0.28006414,-0.23059290000000002,-0.34873423,0.27719320000000003
-15.402033,-2.1724317,2.6644113,0.010541788,-0.17893115,0.26494098
-14.173616,-3.9708984,3.3024278,0.1366942,-0.13048081,0.21598449999999997
-9.603785,-1.7779245,3.3229794999999998,0.18833847,-0.17041394,0.20053834
-11.059297,-0.19775148,1.0562546999999998,0.19631463,-0.09854129,0.16805775
-11.069946,0.8592694,-0.46602657,0.14840534,-0.08098327,0.12494812
-10.959095,0.12948800000000002,-0.93007076,0.061645027000000005,0.002042035,0.13027138
-10.460372999999999,-0.99634224,-1.3245011999999998,0.022776546,0.027070057,0.13505358
-9.670487,-1.8423764999999999,-1.0630735,0.055780724000000004,-0.02295108,0.13505358
-8.610009,-2.1800451,-0.32953793,0.18034486,-0.091088735,0.13133602
-7.5107355,-2.0570025000000003,0.22989126,0.3070383,-0.08789478,0.12068952
-6.914627,-1.7601978999999999,0.34896928,0.2857453,0.117024325,0.10259046
-7.0700397,-1.6417807,0.0038019924,0.15959291,0.34166566,0.11269591
-6.9977054999999995,-1.5849711000000002,-0.45840344,0.10423106,0.35765287,0.17765707
-6.843126299999999,-1.5369722,-1.1945821,0.28255135,0.32304299999999997,0.22396065
-6.910298299999999,-1.4809766000000002,-1.8552956999999999,0.5029515,0.38639843,0.24153611
-7.334302,-1.0302155000000002,-2.6296284,0.2719223,0.23148301,0.07705629
-7.8702106,-0.6772047,-2.6980068999999998,-0.15233234,-0.42645374,0.004118977
-8.574173,-0.87483174,-2.2982996,-0.20875883,-0.101211645,0.08820894
-9.273826,-1.5738428999999998,-2.1099523999999996,0.0909142,0.10372492,0.09567895
-10.108741,-2.0623367,-2.2443821,0.34855970000000003,-0.10173524,-0.018221237
-10.390844,-1.8705802,-3.9306373999999997,0.4933522,-0.09747664,-0.09276425
-11.173817,-1.2906376,-4.861915,0.43957862,0.05475098,-0.089029245
-11.137242,0.13511917,-5.1683345,0.37784633,-0.0085870195,-0.05708972
-9.936050999999999,-0.6410044,-4.0491505,0.30597368,-0.032009337,-0.030997047000000003
-9.579229,-2.1317205,0.26325685,0.19579104,-0.046373397000000004,-0.07360053
-12.291822,0.06356127,3.0852162999999995,0.05258677,-0.07246607,-0.11032226
-14.61597,2.478104,4.3491344000000005,-0.08047713,-0.14912093,-0.13959143
-13.951529999999998,-0.4887619000000001,4.467781,-0.15660839,-0.19861847,-0.16941911
-15.333147,-3.4761796,2.9665402999999997,-0.24602161,-0.15870279,-0.16194909999999998
-15.663873,-3.461422,1.8293424999999999,-0.36740926,-0.051173054,-0.13428563
-12.393191999999999,-1.6698025,0.6706063,-0.39774308,0.030264008999999998,-0.084247045
-11.696557,-1.0261452,-0.59934527,-0.3349287,0.19048524,-0.089029245
-10.32441,-0.11362881,-1.5515577,-0.19973548,0.30600858,-0.13535029
-8.521844999999999,0.8055723000000001,-1.4834665,-0.053319807999999996,0.30174997,-0.16941911
-7.033388599999999,1.1592628999999999,-1.1145009,0.02438225,0.16760397,-0.17685421
-6.189442,0.8207131999999999,-0.9178315999999999,0.060580377000000005,0.143117,-0.118839465
-5.617103599999999,0.46780786,-0.5465005000000001,0.12871803,0.17186257,-0.038467057
-5.28521,-0.18139431,-0.42693406,0.19577359,0.23520057,-0.011850785
-5.5165185999999995,-0.39745665,-0.47851473,0.20324358,0.2777866,-0.041119955
-6.4654555,0.10764331,-0.41067263,0.16811012,0.227748,-0.112975165
-7.31985,0.11733504,-0.5084518,0.12020083,0.112242125,-0.12948598
-7.366059,-0.64744,-1.0681587,0.07813839,-0.2300344,-0.09328785
-7.2490587,-1.2531157,-1.9079872,-0.23750441,-0.551559,0.02115339
-7.7957315000000005,-1.1638981000000002,-2.5598326,-0.06822492,-0.33330554,0.055745817999999996
-8.70052,-0.21560265,-2.8167400000000002,-0.058660515,0.273528,-0.007051130300000001
-9.501936,0.9018765999999999,-2.5429294,-0.07567748,0.2213601,-0.08210029
-10.668801,0.71577054,-1.8852136000000002,-0.10814059999999999,0.12395328,-0.093811445
-11.908491,-1.3341258999999999,-2.2639859,-0.20395918,-0.01282817,-0.047507863
-11.495462,-2.10322,-3.7299843,-0.32002357,-0.12622221,-0.002268928
-10.639372999999999,-0.6664787,-3.9328114999999997,-0.40146065,-0.3034953,0.05255186
-11.335261000000001,0.58355314,-1.5856031000000002,-0.37803832,-0.35992178,0.10046115
-13.621916,-0.3302083,1.3328617,-0.24069835,-0.39664352,0.13135348
-16.014519,-2.6026312999999996,3.5720242999999994,-0.09697049,-0.41954225,0.13027138
-13.314932,-2.8855588,2.9268446,-0.003281219,-0.39451423,0.120148465
-11.818192,-0.8565975,2.4541717,0.080808744,-0.29178414,0.09407324
-12.337695,0.6256049,0.41399579999999997,0.11007792,-0.14538592,0.05893977
-11.014152000000001,0.31286472,-1.0836923,0.044610616,-0.02295108,0.062133722
-10.368886,-0.29529124,-1.2370648000000002,-0.09377654,0.039304815,0.07278023
-9.91618,-0.81303257,-1.5754997,-0.2609442,0.096272364,0.09194394
-8.94309,-1.0827538,-1.4669465,-0.31468287,0.1404641,0.102607906
-7.5857982999999995,-1.1944673000000001,-0.9443593000000001,-0.22687535,-0.016039576,0.12068952
-6.45699,-1.1376097,-0.24734019,-0.045867253,0.012688544,0.1643402
-5.882016999999999,-1.0376183,-0.051867984000000006,-0.051190507,0.26235790000000003,0.1600816
-5.823034,-1.125677,-0.14262737,-0.19758873,0.43589598,0.14517649
-6.2526493,-1.8414571,-0.3804195,-0.17523105,0.4593183,0.1728574
-7.015403699999999,-2.0390172,-0.9520112,0.027576202999999997,0.22561869999999998,0.16540486
-7.5206757,-1.2460383,-1.8943976999999999,-0.009145525,0.022270402,0.07649778
-7.6417365,-0.15407167,-2.7163656,-0.3791204,-0.068207465,-0.008656833000000001
-7.799485000000001,-0.026910827999999998,-2.9750638,-0.5255012,0.28949776,0.06372197
-8.687362,-0.5754895000000001,-3.257589,-0.32641149999999997,0.21977186,0.06319837
-10.360257,-1.8097580000000002,-2.2105474,-0.025115287000000003,-0.120898955,-0.037926003
-11.486613,-2.3970652,-2.5706642000000004,0.12657128,-0.15337953,-0.14013249
-11.320907,-2.4019685,-4.8272949999999994,0.0930435,-0.11025245,-0.13587388
-11.317947,-1.5317048999999998,-5.351835299999999,0.050981067000000005,-0.045308746,-0.09222319999999999
-10.863192999999999,-0.98787636,-4.2241282,0.056845374000000004,-0.08257153,-0.07038913
-11.257374,-1.3701155,0.5693603,0.03396411,-0.05169665,-0.09222319999999999
-12.90175,1.175917,2.6787286,-0.024574235,-0.069272116,-0.10978121
-13.302147,2.6657328999999996,2.6611453999999997,-0.08686504,-0.10279989,-0.12948598
-12.591452,-1.5865418,2.8540895,-0.11294025,-0.14592698,-0.1678134
-14.145679999999999,-3.9583432999999997,2.3399205000000003,-0.14168583,-0.14964452,-0.18324211
-15.06652,-2.878271,2.0019548,-0.21462314,-0.120898955,-0.18006562
-13.530984,-1.1976372,0.95929915,-0.28169614,-0.02401573,-0.18484782
-12.131352,-0.8234905,-0.17049589999999998,-0.23856905,0.097337015,-0.17898351
-10.573781,-0.35925475,-1.1562270000000001,-0.06504842,0.19634955,-0.17845991
-8.669031,0.14617081,-1.3210248,0.11859512,0.26022860000000003,-0.19549432
-7.2619395,0.23006363,-1.2051646,0.24528857,0.24745278,-0.20614083
-6.4617496,0.31051838,-1.0629969,0.30438542,0.19847885,-0.18484782
-5.8328114,0.193576,-0.71225584,0.36772340000000003,0.19474384,-0.13480923
-5.3553885999999995,-0.22461443,-0.42234677,0.36081192,0.19847885,-0.08264134
-5.303703,-0.29439107,-0.5500343000000001,0.2767045,0.22828907,-0.059760075
-5.6710400000000005,0.06601293400000001,-0.7775696999999999,0.19844393,0.18196803,-0.102869704
-6.283362400000001,0.22064005,-0.75884706,0.21973695,0.10266027,-0.13000958
-7.092851,-0.2635633,-0.9017234000000001,0.23996532,-0.31627113,-0.08637635
-7.473586999999999,-0.8913996,-1.3434536,0.13562953,-0.6202201999999999,-0.011850785
-7.600345,-0.943258,-1.9917843000000002,-0.107634455,-0.4211305,0.027523842000000003
-8.102457000000001,-0.097127974,-2.3316076,0.039287362,0.29056242,-0.055484015
-8.820306,0.78128546,-2.1677008,0.122853726,0.39276890000000003,-0.07838274
-9.742399,0.7490021,-1.9244785,0.18620917,0.30122638,-0.07199483
-11.295469,-0.07771579,-2.6040772999999997,0.10901327,0.09360201,0.007836528
-12.066317,-0.9481709,-3.7126883999999998,-0.097511545,-0.19277161,0.06426302
-10.892689,-0.33357933,-4.557966,-0.21514674,-0.44242352,0.11910127
-11.770633,0.94621724,-1.8473468999999998,-0.15659094,-0.5142962000000001,0.1707281
-14.174823000000002,-0.7818888,0.9437655999999999,0.030229102999999997,-0.46106362,0.21650809
-15.572137,-3.0685333999999997,2.031825,0.21015509999999998,-0.32478833,0.18669787
-14.064306,-3.906303,2.6118827000000002,0.29319787,-0.28539625,0.14837044
-11.165063,-1.3396995,2.8476636,0.34271285,-0.27155578,0.10950196
-12.232983,0.4131722,1.4520833,0.3437775,-0.23748694,0.070109874
-11.523809,0.766451,-0.3828041,0.2665816,-0.17893115,0.057334065
-10.80055,-0.49671066,-1.535459,0.18514453,-0.120898955,0.06426302
-10.345442,-1.4545350000000001,-1.9653907,0.10262536,-0.15816173,0.08449139
-9.461339,-1.5762466,-1.5196285,0.06536258,-0.06501351,0.11058406
-8.157007,-1.5609429,-0.5016236,0.1388235,0.05475098,0.13452998
-6.863745,-1.5240818,0.22206700000000001,0.21973695,0.16173966,0.15528195
-6.1723576,-1.2701719,0.28401935,0.17289232,0.3187844,0.14889404
-6.234865,-1.3581348999999998,-0.08602846,0.05045747,0.28949776,0.18085101
-6.1840987,-1.323936,-0.5656158,0.056845374000000004,0.13353515,0.2340661
-6.4323387,-1.5210172,-1.0662049999999998,-0.030962141000000002,0.010559242,0.16753416
-6.905978999999999,-1.4221078999999999,-1.7674667000000002,-0.25773278,-0.027209682000000002,0.081297435
-7.513905,-1.1285022,-2.1625962000000003,-0.27317894,0.4699648,0.14145893
-8.295324,-0.9631395,-1.72236,-0.06983062599999999,0.36349973,0.115366265
-8.651083999999999,-0.8903556999999999,-2.2689752999999997,0.20430824,0.0845612,0.013159783000000001
-9.140535,-1.2897756,-3.0501745,0.45022514,-0.010175269,-0.075188786
-10.190478,-1.7523353,-3.101698,0.56948346,0.039304815,-0.08583529
-11.030891,-1.6755773,-4.236779,0.5258328,0.026005406000000002,-0.061348322999999996
-11.792066,-1.0811641,-4.702298000000001,0.40392154,-0.012845623,-0.041119955
-11.645225,-0.7581095999999999,-2.4964054,0.30916762,0.014294246000000002,-0.050160762000000005
-13.869907000000001,0.40250359999999996,2.4417315,0.24370033,-0.0016580628,-0.07464773
-14.210717,2.0391512,3.3300376000000003,0.21760765,-0.042655847999999996,-0.08848819
-13.105343,-1.2014871,2.1514585,0.2075022,-0.12622221,-0.13533282
-13.654008,-4.2860613,2.433093,0.16704546,-0.17254324,-0.14597934
-14.73182,-3.2327662,2.534253,0.056845374000000004,-0.14645058,-0.16674876
-12.809783,-1.3638618,1.7682521,-0.06822492,-0.07937758,-0.1529083
-11.925835000000001,-0.8326266999999999,0.8936118000000001,-0.15126769,0.08349655,-0.14491469
-11.160695,-0.41495347,-0.5788126,-0.14913839,0.24904104,-0.1571669
-9.520485,-0.10329544,-1.1813757,-0.038955748,0.27300440000000004,-0.18378317
-7.858517,0.26063278,-0.94385177,0.096778505,0.16121607,-0.21678734
-6.9236007,0.3063046,-0.6547088000000001,0.115942225,-0.0021991148,-0.24607398
-6.0981083,0.31053755,-0.34562695,0.07813839,0.09147271,-0.20453514
-5.653428599999999,-0.057183113,-0.35535700000000003,0.022776546,0.30759683,-0.102869704
-5.255713500000001,-0.24473529,-0.3975141,-0.037350047000000004,0.3922453,-0.056548666
-5.602777,-0.112288065,-0.5496608000000001,0.0014835298000000002,0.4342903,-0.08316494
-6.174656,0.37384978,-0.90876234,-0.009145525,0.10850712,-0.10445795
-6.6549516,0.35418862,-1.282143,-0.20291197,-0.34182274,-0.08529424
-7.091271000000001,-0.18949628,-1.6757113000000001,-0.47439793,-0.49459141,0.017418386
-7.581910000000001,-0.60045624,-2.0001066,-0.36259216,-0.4301713,0.06534512
-8.229139,-0.43162668,-2.3876128,-0.22951079999999996,0.29749137,-0.042708207000000005
-8.525733,0.5388199,-2.2156613,-0.2587974,0.39170423,-0.08316494
-9.079597,1.3885221,-1.9074988000000002,-0.269985,0.24265313,-0.06347763
-10.820518,0.43603203,-2.0900998,-0.3711268,0.040369466,-0.009180431999999999
-11.759744,-1.6200413999999999,-3.4104349999999997,-0.50633746,-0.1698729,0.024347342999999997
-10.865528999999999,-1.4995268999999998,-4.217482,-0.53773594,-0.40783107,0.07384488
-11.692381,0.4977641,-2.0019646,-0.39133772,-0.5275956,0.13027138
-14.398298,-0.99423534,0.9175443000000001,-0.14168583,-0.41900119999999996,0.15262905
-16.196095,-2.9205334,2.5761898,0.06483898,-0.35672784,0.13027138
-15.326051000000001,-4.0348907,3.4221760999999997,0.16332792,-0.32744122,0.12868312
-11.100716,-0.9661753000000001,2.6389658,0.15906931,-0.2832495,0.12177162
-12.313005,0.5700403,0.3847961,0.118088976,-0.19648917,0.10421361
-11.855272,0.6080409999999999,-0.72056854,0.042481314000000006,-0.08948303,0.10473721
-11.304961,-0.93026227,-0.99484825,-0.052255157,0.00577704,0.11484266
-10.64283,-1.9758486000000002,-1.3908492000000001,-0.07621853,0.0888198,0.12016592
-9.323357000000001,-1.9704279999999998,-1.0270934,-0.019250982,0.13514084,0.13400638
-7.978763000000001,-1.9233962,-0.09336429,0.11220722,0.1558928,0.14465289
-6.529524299999999,-1.6426139,0.5697721,0.21121974,0.27033404,0.14891149
-5.811494000000001,-1.4861193000000001,0.548435,0.07335619,0.36828193,0.13878858
-5.8209457,-1.4776438,0.15179239,-0.03042109,0.4422839,0.16594589999999998
-5.9800262,-1.404046,-0.50857633,0.021205751000000002,0.32571334,0.23462461
-6.4620557000000005,-1.6054559,-0.9833274,0.118088976,-0.0048520155,0.18299778
-7.071619500000001,-1.5686523,-1.9945423999999998,0.061645027000000005,0.11810643,-0.023544492
-7.39589,-1.0302441,-2.6087031,-0.24282765,0.1383348,-0.12201597
-7.556742,-0.8460534,-2.5853547999999997,-0.17575465,0.4177969,0.05469862
-8.182788,-0.9755893,-2.7592982999999998,0.16758652,0.13939945,0.017959438
-9.511071000000001,-1.5658558999999999,-2.6103982999999995,0.41725585,0.027070057,-0.056007615999999996
-10.659829,-1.7661354999999999,-3.3426120000000004,0.5593779999999999,0.078173295,-0.11988667
-11.233048,-1.6469522,-4.743632,0.5721538,0.10372492,-0.13266248
-11.682478999999999,-0.5630875,-5.0752,0.5295678,0.051557027000000005,-0.112975165
-11.349848,-1.1235605,-3.7887475,0.47260025,0.0068416907,-0.07836528
-12.333471000000001,-2.205347,1.9935178,0.42097342,0.00045378560999999995,-0.061854467
-13.75896,1.1944481000000002,2.9269689999999997,0.31983158,0.014835299,-0.0389732
-14.273589000000001,0.9057648000000001,2.7913902000000004,0.2767045,0.009512044499999999,-0.013962634
-13.485514000000002,-3.4490773999999997,2.169884,0.20271999,0.0132295955,-0.03577925
-14.626169,-3.7006025,1.9071827000000001,0.12873548,0.024417156000000002,-0.019268433999999997
-14.087731,-2.5319545,1.2780536,0.06218608,0.05742133,-0.026197392000000003
-12.368552000000001,-1.8814117,0.31494287,0.04462807,0.11969468,-0.07143632
-11.49505,-1.6227132,-0.78046185,0.08241445,0.23947662,-0.117757365
-10.035574,-0.7902876999999999,-1.4076469999999999,0.12500048,0.38426915,-0.17257816
-8.211097,0.23512976,-1.1793071000000002,0.13512339,0.39491564,-0.20186478
-6.6388240000000005,0.44543642,-1.0159651,0.07017968599999999,0.16495107,-0.18961257
-6.0070043,0.33975637,-0.71419996,-0.0032637657,0.11491248,-0.12733923
-5.779421,0.03512773,-0.45577937,-0.012304571,0.1511106,-0.038955748
-5.6902037000000005,0.1961809,-0.517636,-0.12304571,0.21711896,-0.06346017
-6.053126,0.22756408,-0.678239,-0.18586011,0.34061846,-0.11082841
-6.239922,0.27710490000000004,-0.8868792999999999,-0.280073,0.032934364,-0.1613906
-6.529601,-0.32037294,-1.1963538999999999,-0.46799257,-0.23801056,-0.13957398
-6.777065299999999,-0.7988109999999999,-1.6283062,-0.48874456,-0.46903977,0.0035953782000000003
-7.121303999999999,-0.82684237,-2.5908518,-0.39025563,-0.5041558,0.15318754
-7.862108,-0.17797537,-3.2471504,-0.28752553,0.20912535,0.043528512000000005
-8.50544,0.9490806999999999,-3.0754862000000003,-0.21406463,0.37840483,0.012653636999999999
-8.9213705,1.7104656000000003,-2.5664307999999996,-0.060231313,0.2075371,0.0020071286999999998
-10.233383,1.0936139,-2.0290763,-0.03042109,-0.016022123,0.017976891000000002
-11.454483,-1.0947343999999999,-3.302447,-0.12198106,-0.16454963,-0.010751228
-11.45659,-1.8301470000000002,-4.279568,-0.15444419,-0.30934215,-0.0027750734999999996
-11.789480000000001,0.041467573,-2.713885,-0.06661922,-0.41100758,0.0030717794
-13.821669,-0.3666672,0.5562592,0.05899213,-0.37906805,0.0312763
-16.64609,-2.721623,2.1147888,0.11328932,-0.30347785,0.07492699
-16.361591,-4.656406400000001,2.1738873,0.09307841,-0.33328807,0.145735
-11.017752,-1.8825033,2.1778138,0.069115035,-0.3487168,0.18779743
-11.635725,0.10784442,0.6760172,0.06700319,-0.26886797,0.2144137
-11.449648,0.11468226,-0.5996709,0.04569272,-0.16985545,0.22877775
-11.119257000000001,-1.5636052,-0.95690495,0.021223204,-0.06445501,0.25115287
-10.348324,-2.1958659,-1.230524,-0.031468287000000005,-0.005375614,0.25274113
-9.271938,-1.8881919999999999,-1.0122685,-0.06234316,0.0009948377,0.24155357
-7.7612453,-1.5496806,-0.28269777,-0.030403635,0.09468411,0.26019368
-6.494023,-1.1863268999999999,0.04215710599999999,0.05368633,0.1511106,0.26764625
-6.0316453,-1.0047315,-0.32188603,-0.015498524,0.27834509999999996,0.21654299999999999
-6.269523599999999,-0.92866296,-0.6940312,-0.19807741,0.37735763,0.17821556
-6.352746,-0.9334896999999999,-0.9019245000000001,-0.19224802,0.47315875,0.22984241
-6.677256599999999,-1.3812723999999998,-1.4514225,0.14098770000000002,0.196367,0.26338765
-7.1836199999999995,-1.3928603000000002,-2.158593,0.29323277,0.2826037,0.17022195
-7.5048259999999996,-0.935089,-2.798228,-0.0016580628,-0.059672805999999995,0.0041538836
-7.874223,-0.9609751,-2.9151032000000003,-0.33009413,-0.16453218,-0.034697145
-8.456750999999999,-1.0211366,-2.5882852,-0.30295426,0.35074136,0.059498273
-8.982766,-1.2083153,-3.1137167999999997,-0.001134464,0.17666222,-0.0022340214000000002
-9.970366,-1.525001,-3.0615040000000002,0.24692918,0.032934364,-0.10283479999999999
-11.017828999999999,-1.9176693,-4.0619836000000005,0.38479275,0.048380528,-0.13690363
-11.717222,-1.8901361,-4.7529407,0.39756855,0.046774823,-0.11561061
-11.306962,-1.1784357,-4.57327,0.34114206,-0.07510152,-0.09538224
-10.60027,-1.7545668,-1.4135654,0.26289895,-0.08894198,-0.07567748
-11.331374,-0.20860201,0.70747703,0.15323989999999998,-0.059672805999999995,-0.06503097
-13.179793,2.0921397,1.6521332999999998,0.07552039599999999,-0.09320058,-0.05438446
-12.947632,1.0881551999999999,2.2934153,0.006318091999999999,-0.15707964,-0.045867253
-12.067638,-2.7382581000000004,1.5542200000000002,-0.046896997999999995,-0.14110987,-0.06876597599999999
-14.916020000000001,-3.2098584,2.0920246,-0.09428269,-0.09958848,-0.102293745
-14.576205999999999,-2.5868392000000004,0.74492234,-0.120898955,-0.071907565,-0.12093386
-12.642257,-1.4357262,-0.46467623,-0.10971139,0.05635668,-0.15072663
-11.615852,-0.7595174,-1.7348290000000002,-0.05808456,0.21233675,-0.18959512
-9.69553,0.17379032,-1.96993,0.012164945,0.29218557,-0.21994638
-7.8499360000000005,0.7313233,-1.5735841999999998,0.020699605,0.1553692,-0.22792254
-6.5497217,0.76671916,-1.2691758999999998,0.036669366,0.042533673,-0.17788395
-5.7923207,0.10686758,-0.96998686,0.18144442,0.17720328,-0.05757841
-5.1748943,-0.13026373,-0.68302745,0.24160592,0.22298327,-0.012339477
-5.142879499999999,-0.19317377,-0.6571318,0.23628268,0.20223129999999997,-0.051714107
-5.7721805999999996,0.028950687000000003,-0.74603325,0.12182398,0.02867576,-0.120392814
-6.65952,0.08127836,-0.84579486,-0.07403687,-0.119816855,-0.13316862
-7.1073318,-0.38250723,-1.2288097,-0.35725144,-0.18050195,-0.025638886
-7.399797400000001,-0.97768664,-1.9542145,-0.50628513,-0.23373449,0.058451075
-7.703191,-1.0491583,-2.710562,-0.31464794,-0.28590238,0.07976155
-8.129445,-0.29660326,-3.1015735,-0.23586379,0.06593854,-0.009128072
-8.6416025,0.9645664,-2.539731,-0.13526301,0.17774433,-0.02776819
-9.440472,1.0341514,-1.8634646000000001,-0.08415978,0.20542525,-0.03947935
-11.201531,-0.66463995,-2.7536001,-0.15016812,0.1420698,-0.03309144
-11.991349000000001,-1.8142782,-4.0901012,-0.3066718,0.022305308,-0.037350047000000004
-11.2264595,0.0062345015000000005,-4.6188839999999995,-0.45305258,-0.10117674,-0.0027401668
-11.514875,1.1463726,-2.0312216,-0.43814746,-0.18528415,0.026511552
-12.982864999999999,0.21068974,0.027973852999999996,-0.29283133,-0.20870647,0.07122689
-15.074593,-2.5219657000000004,1.9531802,-0.21776474,-0.24383995,0.10957177
-15.248566,-3.789686,2.9352338,-0.16933185,-0.20711823,0.12445943
-12.465191,-1.3356198000000001,1.6017976,-0.09320058,-0.07936012,0.13671164
-12.137137,0.31643686,0.23716962,-0.005899213,0.05211553,0.13884094
-10.768736,0.49583918,-1.2741462,0.067544244,0.16123351,0.13245304
-10.405008,-0.35343206,-1.6380745,0.11491248,0.16229817,0.12233013
-10.148858,-0.88777953,-1.9729085,0.09096656,-0.1123643,0.11756538
-8.891845,-1.0841998,-1.7490505,0.084578656,-0.14643313,0.122871175
-7.667162400000001,-1.2342492,-0.8181754,0.17242108,0.08086111,0.17664477
-6.733060000000001,-1.1378875,-0.4692348,0.20488420000000002,0.27249825,0.18250908
-6.265961,-0.9314976999999999,-0.5822890000000001,0.055309486,0.35979962,0.15800466
-6.013315,-1.3597821,-0.6030803000000001,0.043074727,0.40290925,0.18090338
-6.0590544,-1.8872821,-0.85694224,0.34861207,0.077667154,0.21656045
-6.329034,-1.7050834,-1.3401208,0.41942006,-0.10117674,0.11116002
-6.690213000000001,-1.2165322,-2.4627142,-0.06710791,-0.12779301,-0.078330375
-7.380883,-0.7038474,-3.0166654999999998,-0.27632052,0.32253686,0.033440508
-8.807847,-1.051926,-2.3805162999999996,0.10906562,0.32040754,0.046233773
-9.344234,-1.8070095000000002,-2.6795044,0.5290791,-0.07403687,-0.09962339999999999
-9.57063,-1.7660111,-3.3051283,0.6195744000000001,-0.16879079,-0.1783901
-10.338508000000001,-1.5639788000000001,-4.6271877,0.5663419,-0.10224139,-0.12304571
-11.187797999999999,-2.1213488999999996,-5.269217,0.4620061,-0.14217453,-0.06501351
-11.353649,-1.958074,-4.592414,0.36884043,-0.23638739,-0.054890607
-11.401264,-1.059348,-0.41117063,0.3326423,-0.23851669,-0.048502699999999996
-13.356351,1.5692651000000002,0.7382856,0.32625440000000006,-0.25661576,-0.038920842000000004
-14.873691,2.4446714,0.9109554,0.31669,-0.25396284,-0.0479791
-12.476626,-2.2056441,0.9980181999999999,0.28262118,-0.244381,-0.06979571
-12.156089999999999,-3.5312178,1.208909,0.20062560000000002,-0.21083577,-0.07831292599999999
-15.070303,-1.8434396,1.3291937,0.0824668,-0.15920894,-0.06979571
-14.022148999999999,-0.57649505,0.101332195,-0.021851522999999998,-0.09107128,-0.06021386
-12.205362,-0.18208383,-0.80952746,-0.06817256,0.013264502,-0.076183625
-11.374814,-0.07008307,-1.6295893999999997,-0.06497861,0.092572264,-0.11079349999999999
-9.39798,0.13362518,-1.7847049,-0.085730575,0.16709782,-0.15070918
-7.696343400000001,0.044158656,-1.3072342,-0.15812683,0.15166911,-0.16561429
-6.603524,0.31098765,-1.0915643999999998,-0.23371704,0.1463284,-0.13315117
-6.0228252,0.25664884,-0.9705998,-0.19912462,0.17880899,-0.09747664
-5.511701,0.25040478,-1.0338546,-0.12938125,0.15112805,-0.09428269
-5.5309606,0.42673293,-1.1188296,-0.07082546,0.25385815,-0.08950049
-5.9812330000000005,0.82149845,-1.1824195,-0.118752204,0.10641272,-0.17680185
-6.3366375,0.60562766,-1.2015924,-0.3380528,-0.018657569,-0.18106046
-6.6079965,0.062239666,-1.3388280000000001,-0.50787336,0.0095294975,-0.03626794
-6.7154869999999995,-0.15216587,-1.8545008,-0.44984117,-0.57707566,0.061138883
-7.0195026,0.19863255,-2.6281822,-0.24916321,-0.5978276,0.048363075
-7.5770836,1.0396869,-3.171551,-0.19167206,0.15432201,-0.026145032000000002
-8.408417,1.5293777,-2.6026504,-0.15280357,0.30550244,0.019093903
-9.676654,0.30171728,-1.7911884999999999,-0.09744173,0.21181315,0.03452261
-11.619291,-1.1924179,-2.125649,-0.19326031,0.03827507,0.08030259599999999
-12.2965145,-1.4901798000000002,-3.5700898000000003,-0.41097268,-0.14641567,0.10372492
-10.993025999999999,-0.100029744,-4.614249,-0.47804567,-0.29546678,0.12501794
-11.456486,1.1962773000000002,-2.2134874,-0.34337607,-0.33911747,0.12768829
-13.292244,-0.63557434,-0.07014053,-0.09477138,-0.24809855,0.12662363
-16.997866000000002,-3.4702422999999993,2.9801203999999997,0.051068332,-0.21083577,0.11704178
-14.779579,-4.1429267,2.9262028,0.093654364,-0.2885553,0.11704178
-10.9392605,-0.7327598000000001,1.8827523000000002,0.09417797,-0.2816263,0.13672909
-11.254767999999999,1.1314423,-0.08882488,0.06543239,-0.21190043,0.14418165
-11.309280000000001,1.0921869,-0.92544514,0.04201007599999999,-0.14854497,0.15908676
-11.27352,-0.8904515,-1.5274241000000002,0.017523106,-0.09318313,0.15748106
-10.778379,-1.7590294999999998,-2.0360675,0.0004886922000000001,0.055850536,0.15643387
-9.33235,-1.6988202000000001,-1.1991024,0.021781709,0.23150048,0.16173966
-7.815967,-1.5583858,-0.0649116,0.12398819,0.24003513,0.16175711
-6.894956,-1.5748388999999998,0.44396162,0.14634585,0.39706240000000004,0.15217526
-6.5106387,-1.3271443,0.068560354,-0.029827677,0.46041787,0.12449434
-6.2841377,-1.2860215,-0.4510197,-0.08253662,0.41942006,0.16441001
-6.12115,-1.4807371999999999,-1.0158694,0.16125096,0.042533673,0.20699605
-6.325394599999999,-1.4960409,-1.3882347,0.20490165,-0.03090978,0.102136664
-6.902665600000001,-1.1649611,-1.896361,-0.1293638,-0.12086405,0.0073827426000000005
-7.356357000000001,-1.0887585,-2.331531,-0.17941985,0.27356290000000005,0.13887584
-7.849323299999999,-1.0464864999999999,-2.6516453999999996,0.12931144,0.20064305,0.046233773
-8.660574,-0.98759866,-3.1239638,0.38908625,-0.07030186,-0.0490263
-9.928257,-1.0042335,-2.8434591,0.56370646,-0.13683382,-0.11609929999999999
-10.618639,-0.99527925,-4.2182674,0.5503895999999999,-0.13257521,-0.13739231
-11.196283,-1.6574388999999998,-5.266037,0.40666172,-0.07401941,-0.14217453
-11.625448,-1.3959823999999998,-4.9665894999999995,0.2623928,-0.08307767,-0.11449360000000001
-11.808615,-1.6339085,-1.2337226000000001,0.15859807,-0.12938125,-0.09480628
-14.245079,1.1738195,2.2088041,0.06277949,-0.1192758,-0.07829547
-14.910715,2.2402832999999998,1.3732950000000002,-0.017575465,-0.115540795,-0.07777187
-12.023087,-2.0966694,1.3673669,-0.08093092,-0.15493287,-0.09107128
-12.613019,-3.5670349999999997,1.7870034,-0.1176701,-0.15334463,-0.101717785
-14.372747,-2.3378901,1.6930933000000001,-0.1810081,-0.13363986,-0.086812675
-12.868030000000001,-0.94762504,0.41107485,-0.24116959999999998,-0.10702359,-0.06234316
-11.619406,-0.55233276,-0.43235450000000003,-0.2592512,-0.03143338,-0.047420595
-10.928937,0.09166919400000001,-1.0582372,-0.26031587,0.11014773,-0.07564257
-9.398429,0.53026783,-1.6181835,-0.23052308,0.19106120000000001,-0.11770499999999999
-7.8977146,0.883288,-1.3647908000000002,-0.22678809,0.16283922,-0.15655604
-7.034087700000001,0.9849363000000001,-0.9646813,-0.31408945,0.13357005,-0.18582520000000002
-6.558063000000001,0.6156834,-0.7243897,-0.2731091,0.078731805,-0.1166229
-6.1307173,0.31528762,-0.65522593,-0.1293638,-0.01813397,-0.07723082
-5.904475,0.17061082,-0.6364171,-0.061767202,0.10801843,-0.111840695
-6.182796,0.34058958,-0.77157456,-0.05644395,0.19905479999999998,-0.13311626
-6.6457295,0.50398904,-0.7419918000000001,-0.1857903,0.18041469,-0.16720255
-7.030917999999999,0.025991452999999998,-0.83868885,-0.24647539999999998,0.078731805,-0.13365729999999998
-7.242776400000001,-0.37585136,-1.3521973,-0.42587778,-0.16983798,-0.059131755999999994
-7.436812,-0.69888663,-2.0042245,-0.5919633000000001,-0.75752527,0.0723439
-7.7123175,-0.644385,-2.810764,-0.21560052,-0.80808747,0.09096656
-8.204661,0.13306016,-3.29627,-0.06494370000000001,-0.2773677,0.02549926
-9.553659,1.400742,-2.0071838,0.13252285,0.14582226,-0.041556288
-10.895936,0.06905836,-1.4959548,0.17243853,0.2474877,-0.034121186
-11.535254,-2.541943,-2.8003829,0.100042276,0.1282468,0.0009948377
-10.956431,-1.5609142,-4.65022,-0.03354523,-0.14374532,0.060091686
-10.331421,0.85845536,-4.6089244,-0.13416345,-0.36945128,0.09576622
-10.707904,1.8618462,-1.8541368000000003,-0.08412487,-0.4642052,0.11173598
-11.812484,0.39984125,0.8187021,0.144234,-0.45942299999999997,0.11013027
-15.126048999999998,-3.3383312000000007,4.089239,0.39283872,-0.41416663,0.09789552
-15.534355999999999,-4.0772777,4.4122458,0.50675637,-0.40406117,0.107477374
-13.031908,-2.2392874,3.020726,0.53496087,-0.39660862,0.07021459
-11.330426,0.32963368,0.8544905999999999,0.44924775,-0.31196016,0.0766025
-10.672394,1.0414203000000002,-0.79705846,0.2980848,-0.31834805,0.093636915
-11.015108999999999,0.20672494,-1.0918421999999999,0.14795156,-0.3141069,0.07019714
-10.697283,-0.76671916,-1.6671208999999998,0.0047647487,-0.13309881,0.06702064
-9.184072,-1.3617165,-1.6474023000000002,-0.03673918,0.027104963,0.0766025
-7.732649,-1.8344947,-0.7247248000000001,0.08728392,0.16817993,0.045727625
-6.772487599999999,-1.9444748,-0.06894343,0.012217305,0.39866809999999997,-0.010681415
-6.654578,-1.6016443,-0.24963863,-0.21027727,0.42369613,-0.025062927999999998
-6.988914,-0.98779976,-0.73898476,-0.25179866,0.3119078,0.04944518
-6.8710523,-0.78116095,-1.0593768,-0.07878416,-0.030368729,0.06808529
-7.1328059999999995,-0.7819559,-1.615952,-0.19589576,-0.07986627,-0.009616764
-7.342662299999999,-0.39016867,-1.6768701000000001,-0.5291315,0.17722073,-0.0037699111
-7.542013000000001,-0.3930034,-1.7943201000000002,-0.40030873,0.22832397,0.027628561
-7.885859,-0.6128581999999999,-2.3840694,-0.13414600000000002,-0.0032114058000000003,-0.014940018999999999
-8.636249000000001,-1.2159767,-2.3553197,0.01860521,-0.15493287,-0.12246975
-9.904669,-1.4454945,-2.433208,0.05215044,-0.06496116,-0.15069173
-10.504627000000001,-1.2704113000000001,-4.576421,0.029251719,-0.056985,-0.13578662
-11.268664999999999,-1.0641173000000002,-4.762709,-0.058032195999999994,-0.0575086,-0.120881505
-11.849737,-0.94423485,-2.4637103,-0.12669346,-0.054855697,-0.1272694
-13.364616,0.06589801,2.980264,-0.16395622,-0.07295476,-0.14056882
-13.793178,2.4799235,2.7177830000000003,-0.17619099,-0.07986627,-0.110758595
-12.871946000000001,0.3317406,2.5090467999999997,-0.15172148,-0.053791045999999995,-0.07562511400000001
-12.396918,-2.6809119999999997,2.4261692000000004,-0.15650368,-0.06389651,-0.046355944
-14.173176000000002,-3.100951,2.4563265,-0.18950784,-0.050056044,-0.02984513
-13.661285999999999,-1.489998,2.264618,-0.21612412,0.002094395,-0.04420919
-12.599639999999999,-0.8394359,1.1786367,-0.19750145,0.0015533429999999998,-0.048485245999999996
-11.576971,-0.7072472,0.3002329,-0.095294975,0.04626868,-0.07456046
-10.30225,-0.47340070000000006,-0.6149747,0.05108579,0.09578366599999999,-0.12672836
-8.387692999999999,-0.41698372,-0.7136158,0.116029486,0.08513716,-0.14695673
-6.9848723,-0.35415033,-0.5169176999999999,0.08354891,0.02125811,-0.16132078
-6.2526975,0.1479042,-0.15183069,0.10218903,0.14315191,-0.13524556
-5.8480196,0.26213634,-0.03798162,0.17085028,0.22992967,-0.09265953
-5.6553535,0.46298113,-0.14597927,0.18310249,0.29700267,-0.08787732599999999
-5.7785974,0.32713416,-0.2261563,0.27307420000000004,0.35555848,-0.076689765
-6.028686,0.33423057,-0.38379052,0.27199212,0.22034782,-0.096918136
-6.8269896999999995,-0.009854534,-0.40098090000000003,0.039898228,0.083531454,-0.08840092
-7.0861573,-0.6046220999999999,-0.7526508000000001,-0.33164746,0.004223697,-0.019198623
-7.508638,-0.8543565000000001,-1.5410614,-0.40615556,-0.43013638,0.06223844
-8.311078,-0.34078109999999995,-2.4079158,-0.081437066,-0.25926867,-3.4906585e-05
-8.747503,0.6031951999999999,-2.2746353,-0.011187561,0.025516712999999996,-0.041556288
-8.867242,1.0552875,-1.6316773,-0.008517206999999999,0.17296213,-0.0543321
-9.996013,0.2868158,-1.6624284,-0.021834067999999998,0.1282468,-0.009616764
-11.697188,-1.343013,-2.730539,-0.12191125,0.020717058,0.06595599
-12.112841,-1.3681233999999998,-3.6664038,-0.23687609,-0.09902998,0.1436755
-11.171259,0.26247156,-2.8526053,-0.26455700000000004,-0.14002776,0.18306759
-11.640216,0.61824995,-0.05956774,-0.179926,-0.15919147,0.1974491
-13.175589000000002,-0.7570945,1.3902649999999999,0.029251719,-0.13470452,0.17296213
-16.184803,-3.3459065000000003,4.4222345,0.22568853,-0.068696156,0.13144074
-14.850323999999999,-3.0356562,3.8890263999999997,0.28637362,-0.015987216000000002,0.12292354
-12.121048,-0.70341647,1.4338393999999999,0.24113469,0.018064158,0.11440633
-10.418197,1.1507011999999999,-0.24099077,0.11976449,0.113882735,0.1261175
-10.235566,1.0979618,-0.37615782,-0.039933134,0.17989108,0.1266411
-10.534678,-0.12768757,-0.7622563,-0.09368927,0.038292522999999995,0.10641272
-10.0027075,-1.1834921999999999,-0.9237309000000001,-0.028745572999999996,-0.14268066,0.07075564599999999
-8.677516,-1.620616,-0.6432071,0.10751228,-0.13203415,0.05852089
-7.4200716,-1.6327114,-0.19265662,0.20813051,0.073426,0.093654364
-6.398350700000001,-1.7507647000000002,0.30024245,0.17990854,0.42636648,0.054262288
-6.1639967,-1.6313037000000001,0.13288777,-0.023422317999999998,0.5242969,0.032428216
-6.3859487,-1.3855628999999998,-0.5166304,-0.07559021,0.39547417,0.10321877
-6.320702,-1.0914208,-1.1737621999999999,0.16873842,0.12719959,0.16870353
-6.4032445,-0.5734496,-1.9602383,0.15542157,0.07023205,0.11280063
-6.924098,-0.43561062,-2.4577918,-0.069202304,-0.11712904,-0.015987216000000002
-7.9645324,-0.82121116,-1.7452772,-0.26136306,0.12027064,-0.018116517
-8.860231,-1.1460469,-1.7036948,0.010105456,0.08567821,-0.021851522999999998
-9.256367,-1.4355155000000002,-2.135647,0.32630676,-0.16077973,-0.09850638
-10.10086,-1.4082791000000001,-2.7614052000000004,0.39390334,-0.12777555,-0.17463765
-10.3545685,-1.3018425,-4.527617,0.33108896,0.007958702,-0.18580775
-11.394026,-1.1525878999999999,-4.92381,0.25497514,0.0084823,-0.1719673
-10.874914,-0.42585188,-4.230899,0.24699899999999997,0.03244567,-0.14426892
-10.819417,-1.3505883,1.078042,0.25071654,0.011676253000000001,-0.14002776
-12.753634,0.52264464,2.2940473999999997,0.20333086,0.022863812999999997,-0.124581605
-13.325935000000001,1.604594,3.0808012000000002,0.11604694,-0.04632104,-0.11819369
-13.456879,-2.1294892000000005,3.2291555,0.07824311,-0.08838347,-0.12938125
-14.823719,-3.576018,2.3251912999999997,0.061208695,-0.07028441,-0.12351695
-15.146486,-2.4675599999999998,1.7774265999999999,0.007976155,-0.07880162,-0.11234684
-13.466628,-0.88383394,0.6530233,0.007976155,-0.067631505,-0.1176701
-12.613038000000001,-0.6821081,-0.25606465,0.06279694,0.020734511,-0.15493287
-11.3375025,-0.57917655,-1.2091868000000001,0.14318681,0.15699236,-0.20816542
-9.39229,0.055315635999999994,-1.255347,0.24380504,0.18521434,-0.2347817
-7.814713,0.08957188,-0.7983226,0.29171434,0.11974704,-0.22678809
-6.8671546,0.33427843,-0.8819952,0.25975734,0.14901622,-0.16877334
-5.9783983,0.7080516,-0.7690559,0.21291271,0.14156365,-0.10702359
-5.2433114000000005,0.13287818,-0.43028593,0.17619099,0.16338027,-0.037821285
-5.2339263,-0.101427965,-0.41440758,0.24804619,0.16020377,-0.055379298
-5.6833367,0.23465092,-0.49556142,0.27094492,0.29860840000000005,-0.10915289
-6.017826,0.050642155,-0.57438815,0.09581858,0.14742796,-0.104353234
-6.4278949999999995,-0.39079118,-0.82129735,-0.16076228,-0.35400513,-0.025045475
-6.701303500000001,-0.624743,-1.5196477,-0.27680922,-0.8868716,0.077667154
-6.858123299999999,-0.36945403,-2.3225672000000004,-0.052167892,-0.52914894,0.09950122
-7.761331599999999,0.70599264,-2.2268949,0.05162684,0.15753342,-0.025569074
-9.261136,1.4030883,-2.1672027000000003,0.04098033,0.4327544,-0.08093092
-11.398564,0.42614874,-2.2105951,0.04256858,0.26719245,-0.041538835
-12.872291,-1.2764541999999999,-3.0648942000000003,-0.10538298,-0.109135434,0.029234264
-11.127589,-0.9857599,-4.0416612999999995,-0.31833062,-0.4407829000000001,0.07714355
-9.904707,0.6184797,-3.4202415999999998,-0.3209835,-0.614321,0.11814134
-12.231335000000001,0.36372712,-0.6495373000000001,-0.10218903,-0.61538565,0.18414968
-14.570796,-1.6077256000000002,1.5880644,0.17247343,-0.3992615,0.20437805
-16.508978,-4.4257292999999995,3.8943415,0.32630676,-0.3130248,0.17085028
-14.360125,-4.142562399999999,4.104514,0.38327432,-0.3715806,0.14475761
-12.185386,-0.6610008,2.3630388,0.40828487,-0.40352009999999994,0.15275122
-11.643866000000001,1.3512683,-0.14276145,0.3939208,-0.3236713,0.16872098
-11.557185,0.4959541,-0.8161546,0.28106782,-0.2374346,0.15488052
-10.731779,-1.134708,-1.8670654999999998,0.057473693,-0.16077973,0.15699236
-9.558132,-1.7735767,-1.8321868000000001,-0.08995427,0.1378461,0.17563248
-8.268165,-2.0549817,-0.6353254,-0.12189379,0.33320079999999996,0.17828538
-6.908411500000001,-2.1796238,0.57708883,-0.15809192,0.39868554,0.15807447
-6.0130663,-1.3946321000000002,0.80204797,-0.27998573,0.37632790000000005,0.11974704
-6.0746355,-0.90457726,0.38991013,-0.33534756,0.32574826,0.15913913
-6.3912260000000005,-1.3439611999999999,-0.09465716,-0.21771237,0.2639985,0.2613456
-6.7400417,-1.7509468000000001,-0.45190078,-0.07185520000000001,0.24270548,0.28316220000000003
-6.9450330000000005,-1.7483706,-1.3061231000000002,-0.23952898,-0.006405358000000001,0.11761774
-7.058777,-1.345053,-2.1107473,-0.40135592,0.039898228,0.073967054
-7.146634599999999,-0.46747264,-2.3200197,-0.3758043,0.3433237,0.122940995
-7.3745246,0.4206804,-3.0801404,-0.11177088,0.11974704,0.0686438
-8.804715,-0.112824365,-3.1821525,0.16660912,-0.065484755,-0.04845034
-10.741269,-1.3537774,-3.3690345,0.29171434,-0.030351276,-0.10967649
-11.83203,-1.8104186999999998,-3.9560160000000004,0.33217105,-0.0596379,-0.12618731
-12.007132,-1.017009,-3.961992,0.3204599,-0.08838347,-0.09742427599999999
-11.269881,-0.81739,-2.9466877,0.29756117,-0.07506661,-0.06496116
-12.772818,-1.894982,2.0119436,0.28106782,0.02232276,-0.059096847
-14.348595000000001,0.34563655,3.6739311000000003,0.27148595,0.024993114,-0.055379298
-13.400816,1.0521176,3.89166,0.22729422,-0.050056044,-0.07614872
-12.790716,-2.6299443,2.94935,0.201219,-0.15278612,-0.13468705
-14.409847000000001,-3.9248532999999997,2.596435,0.17512634,-0.17994344,-0.16449729
-13.852352999999999,-2.5534353,2.2784467,0.103271134,-0.08677777,-0.15013322
-12.766783,-1.3663518,1.3323445,0.0090408055,0.006894050600000001,-0.12990485
-12.128155,-1.256956,0.22569661,-0.019687313999999997,0.09526007,-0.13522811
-10.564788,-0.9116736999999999,-0.79644555,0.023422317999999998,0.21076596,-0.17194983
-8.378921,0.06865613,-0.55713075,0.111247286,0.18414968,-0.22146483
-7.1122727,0.48589844,-0.18476534,0.18950784,0.13678145,-0.22092378
-6.6356163,0.50987875,-0.26893590000000006,0.2602984,0.18414968,-0.15810938
-5.911035,0.32397377,-0.2554613,0.23795820000000004,0.19320795,-0.062290803
-5.288255,0.077687055,-0.17913418,0.19802506,0.24537584,-0.0047996556
-5.255196,-0.19943699,-0.21505678,0.1868375,0.2943498,-0.089448124
-5.543659,-0.03422751,-0.40956170000000003,0.08943067,0.32416,-0.16184439
-6.2860246,0.21967278,-0.70167345,-0.12082914,0.28796187,-0.15917403
-6.903403,0.03700478,-0.9720745999999999,-0.42106068,-0.20868902,-0.048991393
-7.147956,-0.33193213,-1.6372125,-0.5179439,-0.9326515999999999,0.015393803999999999
-7.6394953999999995,-0.21571757,-2.0332615,-0.30766663,-0.77134824,0.06277949
-8.694046,0.56189996,-1.6906703,-0.080372415,0.11814134,-0.09955358
-9.865211500000001,1.0096828000000002,-1.3271731000000002,0.03991568,0.5434781,-0.17301449
-11.822194,-0.020733787,-1.9477788,-0.01595231,0.44233623,-0.14852752
-12.285501,-1.1555375,-3.3293097,-0.19320795,0.08461356,-0.058555797
-10.431192,-0.30739632,-4.648065,-0.39283872,-0.28002062,0.004223697
-9.994585,1.3895372,-3.4984267,-0.42903683,-0.5302136,0.05799729
-11.252432,0.8744773000000001,-1.2477238000000002,-0.32044244,-0.6084567,0.12719959
-13.897566000000001,-1.3859076000000001,1.912086,-0.16235052,-0.49933869999999997,0.17243853
-15.743725,-4.6408343,4.2994213,-0.021816615,-0.41149628,0.18575539
-14.853608,-5.319121,4.872287,0.09049532,-0.3263242,0.17085028
-11.674013,-1.461574,3.629361,0.20867157,-0.27735028,0.15807447
-11.8187275,0.93698525,0.77146924,0.2533869,-0.16449729,0.16765633
-11.685898,0.86594445,-0.9582744000000001,0.14107497,0.02019346,0.16446237
-11.062563,-1.4539222,-1.9103814,-0.034592427,0.15966272,0.15275122
-9.517795,-1.9221131,-2.196862,-0.14744541,0.28316220000000003,0.15275122
-8.34181,-1.8804922,-1.1217601000000001,-0.16446237,0.257087,0.16179202
-7.335431599999999,-1.937024,-0.002528277,-0.06227334599999999,0.16446237,0.19214329
-6.3750887,-1.5076863,0.44584823,-0.10060078,0.21556562,0.18627898
-5.8655550000000005,-1.1351198,0.5365885,-0.19216076,0.24111724,0.2027898
-5.905183999999999,-1.0254557,0.19343235,-0.12561135,0.34278268,0.25867525
-6.2844057,-1.8074499,-0.11047804,0.10485938,0.15966272,0.25973989999999997
-6.84328,-2.330114,-0.9754457000000001,-0.00424115,0.0686438,0.05906194
-7.1511070000000005,-1.8182718,-2.127909,-0.37740999999999997,-0.030892327,-0.055902895
-7.2602253,-0.78107476,-2.502314,-0.44713590000000003,0.3598171,0.024452062000000004
-7.794792999999999,-0.49287996,-3.1550407000000003,-0.17884389,0.14742796,0.0686438
-9.368041999999999,-1.1036313,-2.9313457,0.08250172,-0.07241371,-0.094230324
-11.135144,-1.6144101999999998,-2.7635121,0.18524924,-0.11658800000000001,-0.17887879999999998
-11.396295,-1.9842281000000002,-3.875839,0.03939208,-0.08625417,-0.19484855
-11.431557000000002,-1.6131748,-4.086941,-0.080372415,-0.053773593,-0.16716763
-10.854208999999999,-1.3405998,-3.286693,-0.11016518,-0.030892327,-0.1187173
-10.841242,-2.0934708,1.5059242,-0.14318681,-0.013857913999999999,-0.09955358
-12.929312,-0.06527551,3.4564996,-0.21610667,-0.044732787,-0.08358382
-13.976295,1.907039,4.557238,-0.2565634,-0.080389865,-0.06815511
-14.04274,-1.6285167999999999,3.2378418,-0.27253315,-0.08518952,-0.070266955
-15.673565,-3.705142,2.2254104999999997,-0.27679175,-0.053249995999999994,-0.062290803
-14.199454999999999,-2.9169037,1.549489,-0.25923374,-0.020769417,-0.05857325
-12.645082,-1.5745611000000002,0.7488584,-0.22142991,-0.017051866000000002,-0.09157742599999999
-12.093755,-1.067632,-0.53988296,-0.15383331,0.02019346,-0.14322172
-10.327188,0.029419951,-0.7412257,-0.052674035999999994,0.08354891,-0.1815317
-8.495672,0.18748516,-0.61741674,0.0031939526,0.12081169,-0.20655972
-7.0060953999999995,0.25093150000000003,-0.79137945,0.056950092,0.18627898,-0.1831374
-6.1935797,0.34566525,-0.56368124,0.21771237,0.20970131,-0.07721337
-5.7614455,-0.10092997,-0.19283858,0.24965189999999998,0.17137387,-0.045256387
-5.388745,-0.23063825,-0.020044256,0.25549874,0.24535839999999998,-0.07508406
-5.757078,0.06527551,0.034419045,0.201219,0.27145106,-0.14107497
-6.070901,0.10351569999999999,-0.20850624,-0.032986722999999996,-0.17249089999999997,-0.15013322
-6.380902,-0.3146843,-0.6204526,-0.36089918,-0.4407829000000001,0.002635447
-6.427876,-0.83300984,-1.4173867,-0.15489797,-0.84267986,0.21341886
-6.6602573000000005,-0.97389424,-2.1514487,-0.06653195,-0.15865043,0.08620181
-7.4144883,-0.58620596,-2.3189664,-0.0010471975,0.6494021,-0.039409533
-8.940562,0.49106990000000006,-1.4148104,-0.037245326,0.58074087,-0.013334315
-10.0051,1.0409127,-1.7396845,-0.10379473,0.23366468,0.09843657
-11.073489,-0.9641546,-2.4925938,-0.26827455,-0.11819369,0.18840829
-11.315122,-1.9362962,-3.3644089999999998,-0.42371359999999997,-0.24754004,0.19373155
-10.630035000000001,-0.3677494,-3.819307,-0.35185838,-0.28214994,0.18095574
-12.961921,0.9432771999999999,0.35983893,-0.07824311,-0.19856611,0.16125096
-15.549756,-1.6818213,2.588582,0.19003145,-0.14374532,0.13624041
-17.651041,-3.7345523999999997,3.8801102999999997,0.37154570000000003,-0.08998918,0.094701566
-11.292952,-2.7935066,4.1955029999999995,0.39763835,-0.104353234,0.088872164
-10.89855,-0.3223745,1.8470308999999998,0.31618384,-0.13096951,0.08194321
-11.888667,1.3266463,-0.21430978,0.21931808,-0.08677777,0.08833111
-12.23393,0.075379044,-0.50277275,0.15863298,-0.065484755,0.11974704
-11.531568,-1.5083662,-0.57817096,0.15650368,-0.050056044,0.12932889
-10.33098,-1.8439758000000002,-0.65204644,0.21984167,-0.004276057,0.12985249
-9.099613,-2.1450419999999997,0.11292013,0.23581143,0.04680973,0.16125096
-7.939766400000001,-2.2276227000000004,0.7700902,0.3034255,0.15646876,0.18999654
-7.145332000000001,-2.1732647000000003,0.8855576999999999,0.26083946,0.33852407,0.16976817
-6.6874075,-1.7660015,0.35719573,0.113900185,0.39973277,0.16496852
-6.541792,-1.2551937,-0.47000095,0.0697259,0.41784927,0.249617
-6.350936,-1.1984608,-1.2740409,0.27839747,0.26345745,0.32627186
-6.4504867,-1.1515822,-1.6497389999999998,0.24167573,0.391233,0.16392133
-6.6492443,-0.70936364,-2.0638595,-0.08463102,-0.12299335,-0.050056044
-6.648555,-0.5901899,-1.696541,-0.24858725,-0.013334315,-0.05539675
-7.269141,-0.702612,-1.7160488,-0.07665486,0.26132816,0.016999507
-8.344023,-1.2602121000000002,-2.3999764999999997,0.24698155,0.04680973,-0.05644395
-9.672938,-1.6686150000000002,-2.5080602,0.41467276,-0.0090582585,-0.15652113
-10.547398,-1.8319378000000002,-4.0937786,0.47961646,-0.027698375,-0.20071286
-11.3940735,-0.95761365,-5.02225,0.34014723,-0.05057964,-0.19378391
-11.087586,-0.20256862,-4.867996,0.1868375,-0.10702359,-0.16716763
-10.386746,-1.4737653,-0.9269870000000001,0.05588544,-0.12299335,-0.13524556
-11.904364,0.21181025,1.8840835,-0.069202304,-0.075607665,-0.10915289
-14.024351999999999,2.5120635,2.5635676,-0.17193238,-0.09796533,-0.14109242
-13.210879,0.13495636,3.791678,-0.23900539,-0.19058995,-0.15280357
-15.021116000000001,-3.4066233999999995,3.7022307,-0.32684782,-0.17303194,-0.15599753
-16.533045,-2.9926562000000003,2.4803642999999997,-0.40882593,-0.038344882000000004,-0.124599054
-14.357969,-1.8047587999999999,0.6988579,-0.45673522,0.073426,-0.14641567
-13.091954,-0.7143053,-0.28671044,-0.3976558,0.23471187,-0.19593066
-11.6208515,0.095614836,-1.3509331,-0.27413887,0.42795473,-0.19858356
-9.573274000000001,0.7106566,-1.4455997999999999,-0.15224507,0.43966588,-0.19380136
-7.6668754,0.8619988000000001,-0.9433538,-0.124023095,0.29539698,-0.19645426
-6.417686499999999,0.5350944999999999,-0.59339815,-0.10114183,0.19851375,-0.14589207
-5.696457,0.13153745,-0.15617856,0.0021118484,0.07023205,-0.04420919
-4.9723644,-0.09273222,-0.054530337000000005,0.040439277999999995,0.05958554,-0.037297685
-4.802356700000001,-0.08511866,0.1490151,0.08941322,0.15486306,-0.06604326
-5.170892,0.5008287,0.14082696,0.0090233525,0.17776178,-0.15812683
-5.737685,0.49175945,0.14783718,-0.17247343,0.24535839999999998,-0.21881193
-6.644235000000001,-0.48255616,-0.28051424,-0.41147882,0.114947386,-0.18580775
-7.238696000000001,-1.1616379,-1.5248001,-0.70532244,-0.32792990000000005,-0.08147197
-7.8619164999999995,-1.2605089,-2.687999,-0.68402946,-1.0918256000000002,0.14475761
-8.614942,-0.72068346,-3.3235064,-0.39657372,-1.0188884,0.18999654
-9.792017,0.6388304,-2.8632832,-0.15437438,-0.1703616,0.0004712389
-11.102305,0.8317936,-2.0058908,0.00424115,0.6110747,-0.14428636
-12.001797999999999,-1.331291,-2.1210616,-0.05375614,0.58178806,-0.11499974
-11.556399,-2.0409898999999996,-3.4044877999999996,-0.25764552,-0.014398966000000001,-0.011205014
-10.278912,-0.38922059999999997,-4.798373000000001,-0.42266637,-0.33644712,0.09098402
-10.071104,1.9586964,-3.6614525,-0.4333129,-0.3774449,0.17722073
-10.356904,1.9235398999999997,-1.1152861,-0.2491283,-0.34602898,0.2043606
-11.895275,-0.32268095,1.6333723,-0.059096847,-0.19484855,0.14847516
-15.819773999999999,-4.339328,5.1828145999999995,0.07824311,-0.08998918,0.08140215
-15.362385999999999,-5.2900844000000005,5.237718,0.15700983,-0.09531243,0.031346112
-11.744067,-2.5497767999999996,4.359142299999999,0.16713274,-0.11393509,0.004729842299999999
-10.574461,0.30253133,0.57397634,0.11709414,-0.07827802,0.027104963
-11.068749,0.5924213,-1.8225523999999997,0.04256858,-0.035691983999999996,0.06436774
-10.841338,-0.5342996,-2.4148207000000004,-0.03726278,0.09630727,0.078731805
-9.896395,-1.0035824,-1.9002109,-0.07984881,0.14102261,0.11067133
-8.957264,-1.3874495,-0.9681481,-0.04738569,-0.017051866000000002,0.14528121
-7.829777,-2.045874,-0.07707414,0.04415683,0.040945426,0.17455038
-7.0370474000000005,-2.2705363999999997,0.056244586,0.002635447,0.18734364,0.14580481
-7.055052000000001,-1.7914086999999999,-0.20285593,-0.052708942,0.23099433,0.14580481
-6.932717299999999,-1.3366923000000002,-0.7616339,-0.03460988,0.20863666,0.16603318
-6.908890700000001,-1.3721169,-1.1858194,0.16287413,0.23099433,0.18413223
-7.1675024,-1.2496871,-1.6209798999999998,0.08567821,0.22780037,0.08566076
-7.301961,-0.45111549999999995,-2.0090609,-0.20334831,-0.09424778,-0.019198623
-7.268834599999999,-0.19227354,-2.4288697,-0.33536503,0.068626344,0.03508112
-8.1771755,-0.25847802,-2.7255974,-0.096359625,0.31136674,0.08618436
-9.568925,-1.0348122,-2.2063143,0.103777274,0.042551125999999995,-0.010681415
-10.860224,-1.9150933,-2.5410812000000003,0.17191494,-1.7453292e-05,-0.08307767
-11.320523,-2.1823435,-4.294901,0.19266689,-0.003228859,-0.1123643
-11.529555,-1.3083451000000001,-4.86905,0.17245598,-0.006946410500000001,-0.11821115
-10.803355999999999,-0.82185286,-4.644598,0.18308504,-0.11180579,-0.16931438
-10.840276,-2.0689158,-0.6006094,0.14636332,-0.039950587,-0.22787018
-12.921353,-0.13276328,2.2839632,0.08939576,-0.047944195999999994,-0.25556856
-13.957267000000002,2.0843344,3.2381002999999997,0.08089601,-0.116605446,-0.23905775
-13.217966,-0.32750762,3.5843594,0.09951867,-0.19910716,-0.22202334
-13.014316,-2.7470974999999997,2.6973748,0.08354891,-0.22094123,-0.21563543
-14.358659,-2.6837661,1.7868214,0.053738687,-0.16664404,-0.1762259
-13.050419999999999,-1.4616697,0.8473463,0.04202753,-0.12086405,-0.15920894
-11.979388,-0.92347234,-0.06559155,0.09258971,-0.039950587,-0.16186184
-10.858136,-0.75121427,-1.0175644,0.193749,0.044139378,-0.19912462
-8.890073,-0.3529724,-1.2109968999999998,0.2693392,0.08194321,-0.21882938
-7.216928,-0.03148854,-1.0290567,0.27731538,0.12772319,-0.21031217
-6.325309,0.22447078,-0.6318682,0.30447268,0.24642304,-0.17996089
-5.9743185,-0.1474924,-0.43850285,0.29754373,0.30977848,-0.14536847
-5.564163,-0.026020184,-0.54356045,0.24059364,0.25494024,-0.120881505
-5.581842,0.08574115,-0.66766626,0.25228733,0.18095574,-0.12140510000000002
-6.216727,0.24395958,-0.9442156999999999,0.24218188,0.13943435,-0.14695673
-6.967596,0.15932932,-0.9880966,0.17989108,0.012740903500000001,-0.14695673
-7.339626299999999,-0.43349418,-1.3479834,0.0707731,-0.22572343,-0.08840092
-7.3455449999999995,-0.722187,-1.8791706999999997,0.03351032,-0.3779685,0.0015358897
-7.4270434000000005,-0.2956169,-2.4619575,0.105906576,-0.06496116,-0.036774087999999996
-7.969014,0.4881107,-2.2238877,0.17032668,0.5466546,-0.08414232
-8.71365,0.84524894,-1.7491366999999998,0.21130702,0.31456068,-0.07990117
-10.178105,0.14098975,-1.6079267,0.06597344599999999,0.13730505,0.007923795
-11.630878,-0.64089906,-2.2008843,-0.15439183,-0.10489429,0.097354464
-11.864658,-0.9489945,-3.0735135,-0.23902284,-0.41203734,0.16016887
-11.033593,-0.060286,-3.146996,-0.14161602,-0.42641884,0.2075371
-12.771189999999999,-0.19872832,0.1721431,0.0084823,-0.25075147,0.21766001
-15.098975,-2.156984,1.9450303,0.12079424,-0.32208306,0.22563617
-16.470201,-4.119339,2.913073,0.19853120000000002,-0.36999235,0.21340140000000002
-11.391909,-2.8158397999999996,2.3751822,0.20437805,-0.3061133,0.19263199
-11.07552,-0.94862103,1.6528227,0.1341111,-0.25235716,0.21179570000000003
-11.762895,0.16524779999999997,-0.14776056,0.03296927,-0.20868902,0.24801129
-11.385836999999999,-0.005975927,-1.1017733,-0.08093092,-0.13842206,0.28314477
-11.174199,-1.1489198999999999,-0.95075667,-0.20390682,-0.09637708,0.29590312
-10.015856,-2.0633519000000002,-0.8274457000000001,-0.2635098,-0.07295476,0.29803243
-8.217532,-2.1431169999999997,-0.55721694,-0.22092378,-0.034103733,0.29963812
-7.3356614,-1.6113936000000002,-0.22131042,-0.15332717,0.046792275999999994,0.30016172
-7.204822999999999,-1.5316858,-0.10209834,-0.06709046,0.17828538,0.27993336
-6.7390075,-1.5692747,-0.21304564,-0.07827802,0.24003513,0.22190116
-6.760469400000001,-1.3662081,-0.71321356,-0.09210102,0.24268803,0.24160592
-6.877402,-0.9261251,-1.1906748,0.050527282,0.24162339,0.30283207
-6.821224000000001,-0.7079463,-1.6451517,0.23151793,0.22033036,0.30815533
-7.0204887000000005,-0.62315327,-2.1496196,0.28687978,0.05211553,0.20701350000000002
-7.339396499999999,-0.58886826,-2.2510571,-0.10222393,-0.18900171,0.11545353
-7.7692704,-0.711461,-1.9301288,-0.44184756,0.018587757,0.16121607
-8.401569,-1.1144530000000001,-2.1538048,-0.25979227,0.12770574,0.12555899
-9.419316,-1.9471372,-2.1220865,0.0691674,-0.012269665,-0.02560398
-10.681788000000001,-2.122345,-2.5367813,0.2528284,0.001012291,-0.14430383
-11.517135000000001,-1.6476896,-3.5233552,0.28955013,0.0095294975,-0.21884683
-11.635715,-1.0714723,-3.8114638,0.26132816,0.016458455,-0.21191788
-10.983381,-1.8216428,-3.4256716,0.22141246,0.001012291,-0.17252579999999998
-11.849269,-2.643687,0.34331894,0.14795156,-0.041015237999999996,-0.11555825
-13.007631,0.38583037,1.5674647,0.119729586,-0.022916173999999997,-0.06764896
-14.04299,1.6670539,2.1780722000000003,0.07449065,-0.01972222,-0.011763518999999998
-12.760098,-1.0710509,2.1665992999999997,0.033492867,-0.0064228117,0.021746803
-12.046713,-3.0615807,1.7608683,0.0015533429999999998,0.09311332,0.049968775
-13.131469000000001,-2.9408267,2.0097983,-0.008011062,0.107477374,0.04783947400000001
-13.094157000000001,-1.7303088,1.1787229,0.0031590459999999996,0.11014773,-5.2359880000000005e-05
-12.158857000000001,-1.3076364,0.0995126,0.024975661,0.1325054,-0.06873106
-10.936233999999999,-1.0067618,-0.97326213,0.010611602,0.21287781,-0.10279989
-9.030335000000001,-0.4649061,-1.1291917999999999,-0.025045475,0.22458896,-0.09854129
-7.6133504,0.23023601,-0.99626565,-0.06443755,0.15751596,-0.07777187
-6.551695,-0.12827174,-0.7395019,0.018064158,0.088854715,-0.019757127
-5.8779473,0.086938255,-0.587403,0.16179202,0.18467329999999998,0.048904125
-5.52758,0.25541344,-0.4137755,0.14315191,0.2751686,0.031869713
-5.651503599999999,0.33661518,-0.40127778,0.16339773,0.33531266,0.010053096
-6.097917,-0.012708423,-0.5207102,0.11918853,0.09311332,-0.07244862
-6.4383054,-0.13963942,-0.89908975,-0.08040732,-0.06923721,-0.121963605
-6.828617599999999,-0.35874718,-1.2516599,-0.44025929999999996,-0.13098696,-0.07405432
-7.270098700000001,-0.5127422,-1.9868906000000002,-0.660101,-0.6478662,0.009512044499999999
-8.006632000000002,-0.49801308,-2.5040286,-0.40512583,-0.6670299,0.041975167
-8.693883,-0.07472782,-2.3768293999999996,-0.30398400000000003,-0.03197443,-0.06499606
-9.747608999999999,0.7529094,-1.1239915,-0.35189328,0.26504570000000005,-0.056478854
-10.521549,0.9310763000000001,-1.6357761999999998,-0.38489747,0.27091,-0.031450834
-11.662711999999999,-1.4800476,-2.8451831000000003,-0.49028045,0.07714355,0.011641346
-11.832958999999999,-2.3806696,-3.9239528,-0.62763786,-0.11395255,0.06752679
-11.049097999999999,-0.12949759,-4.213278,-0.73994976,-0.236911,0.09307841
-11.341639500000001,1.8808848999999999,-1.5385236,-0.6888465,-0.28323203,0.10480702
-12.358112,0.8570093000000001,1.1182836999999999,-0.51265556,-0.29494318,0.10585422
-14.996485,-2.3504259999999997,3.7345907999999994,-0.34763467,-0.27630308,0.09255481
-14.676935,-3.3825665000000003,4.114426,-0.19113101,-0.26619762,0.06965609
-11.2346,-1.1250354,2.2036808,-0.08093092,-0.18102555,0.07285004
-11.428377000000001,0.75882787,-0.08878657,-0.044750242999999995,-0.16027358,0.08402015
-11.089704,1.152042,-1.123934,-0.10967649,-0.21935298,0.113306776
-11.039099,-0.21591869,-1.4307557,-0.24701644,-0.15067427,0.15695746
-10.327791,-1.1842296,-1.8737693,-0.2518161,0.25494024,0.1968906
-9.040189999999999,-1.4394516000000002,-1.5439537,-0.043668135999999996,0.19477874,0.19209094
-8.006766,-1.6479673,-0.47296017,0.08299041,0.32892475,0.19102629
-7.1365595,-1.5505328999999999,0.21411824,-0.0005585053599999999,0.447101,0.16121607
-6.51423,-1.6006483,0.28748617,-0.08094837,0.54452527,0.17879152
-6.092736,-1.9010824,0.11137827,0.13196434,0.41303217,0.21764256
-6.0508947,-1.9511307,-0.34690067,-0.068696156,0.11334168,0.11065388
-6.302209400000001,-1.3971891,-1.0251014,-0.39767328,-0.020786871999999998,0.056339227
-6.8953104000000005,-1.1416511999999999,-1.3537583,-0.3332706,0.5019218,0.11863003
-6.794227,-0.82411295,-2.199304,-0.19113101,0.26823965,0.05742133
-6.748316,-0.5535873,-3.4003794000000003,0.05372123400000001,-0.13576916,-0.095870934
-8.888158,-1.5435992,-2.216571,0.27410397,-0.20231856,-0.16826719
-11.247337,-2.2680175,-2.9560537,0.29539698,-0.20338322,-0.1714786
-11.755339,-2.0309630000000003,-5.0449085,0.25387558,-0.20231856,-0.15283848
-11.646938,-1.3804775,-5.2606835,0.21448351,-0.18900171,-0.17306685
-11.817358,-0.45712015,-1.1407796000000001,0.14741051,-0.15173893,-0.17571975
-15.338003,1.7780396,2.8382017999999998,0.0718203,-0.08840092,-0.16029103
-15.089360000000001,3.047158,2.7196982000000003,-0.018657569,-0.17783159,-0.15177383
-12.780172,-1.1342483,2.1756398999999997,-0.08201302,-0.22732913,-0.101211645
-14.765348000000001,-3.3564220000000002,1.819871,-0.13418092,-0.1879545,-0.03520329
-14.971059,-2.455005,1.5991448,-0.16718508,-0.19912462,-0.05808456
-14.176815,-0.47684836,0.84546924,-0.16027358,-0.19805996,-0.12037536
-12.974542999999999,0.28444073,-0.41000226,-0.13470452,-0.14217453,-0.17306685
-11.097288,0.30260795,-1.1916803999999999,-0.08520697,-0.045814894,-0.21778218
-8.961688,0.30791348,-1.2777472,-0.053791045999999995,0.15751596,-0.22151719
-7.367188499999999,0.7566539000000001,-1.0574998,-0.028239427,0.17455038,-0.22949335
-6.4660683,0.3335027,-0.87150854,0.05263913,0.20594884,-0.21032962
-5.5040593,0.41207084,-0.7026886,0.17561503,0.2762158,-0.17041394
-4.886268599999999,0.7052265,-0.5416449999999999,0.20277235,0.29433233,-0.17041394
-4.308452,0.63080513,-0.28059086,0.17667969,0.23097688,-0.18903661
-4.3466926,0.15745229,-0.06877105,0.07661995,0.10641272,-0.22310543
-5.0326314000000005,-0.22429839,-0.18111658,0.06649704,0.0004886922000000001,-0.19755381
-5.9696736,-0.17845422,-0.49799395,0.026040312000000003,-0.23212878,-0.09801769
-6.7859435,-0.075321585,-1.0642705,-0.2768441,-0.4966858,0.05422738
-7.5942929999999995,-0.09357498,-2.056514,-0.25607470000000004,-0.65425414,0.097337015
-8.527917,0.38559097,-2.2836567999999997,-0.056985,-0.13418092,-0.028815385
-9.385164999999999,0.9189328999999999,-1.721182,0.06808529,0.18678513,-0.043720499999999995
-10.352969,0.67405397,-1.885386,0.16283922,0.2527935,-0.051173054
-12.286985000000001,-0.93796206,-2.8636088,0.17188002,0.1287704,-0.009651671
-12.762934,-1.7790067999999999,-4.571354400000001,0.10906562,-0.06923721,0.046233773
-11.4618,0.4907539000000001,-5.1168685,-0.048485245999999996,-0.23799309,0.08189085
-12.189455,2.2952254,-1.5592765,-0.110758595,-0.2880317,0.10798352
-12.087721,1.3649056,1.175917,-0.036233034,-0.21242402,0.14365806
-13.974295000000001,-2.157827,3.6176102,0.1266411,-0.15175638,0.15535176
-14.352502,-4.260788400000001,4.249689,0.23523548,-0.18901916,0.12182398
-12.014937,-1.9259436999999997,3.2164757,0.30017918,-0.1847431,0.07072074
-12.103791000000001,0.06115749,1.5788323999999998,0.28579766,-0.10756464,0.035587262
-11.504475,1.2916048,-0.05422388,0.1984963,-0.101717785,0.019076448
-11.27736,0.5827774,-0.28785008,0.097354464,-0.17304939,0.014817845
-11.176393,-0.49491019999999997,-1.0741538,0.06435029,-0.20392427,0.025987952999999998
-9.878169999999999,-1.2438452,-1.5917419,0.07501425,-0.09213593,0.049951322
-8.444291999999999,-1.8388331000000002,-0.77647793,0.17400932,0.06328564,0.09998991
-7.297824,-1.4219356,-0.039992746,0.25439918,0.43219587,0.08030259599999999
-6.975764999999999,-0.9257133,0.14834474,0.11599458,0.5482428,0.020682152
-6.7871690000000005,-0.8818610999999998,-0.16751749999999999,-0.025045475,0.38800415,0.08402015
-6.4072094,-1.0814801,-0.60903704,0.22830652,0.07819075,0.16812757
-6.3446155,-1.2586223,-1.1119535,0.21926571,-0.10384709,0.04515166599999999
-6.743365,-0.9631969000000001,-1.6202329,-0.1879545,0.14686945,-0.059166662
-7.270549000000001,-0.59697986,-1.5742258999999998,-0.057002455,0.5551543000000001,0.15481070000000002
-7.955281299999999,-0.5458014,-1.5969038,0.35393533,0.11545353,0.051015973
-8.510612,-0.92154735,-2.2000509999999998,0.6775892,-0.06232571,-0.093235485
-9.687084,-1.2899383,-1.8244487,0.87509066,0.0074001959999999995,-0.12304571
-10.016497,-0.9423674000000001,-3.9927144,0.9512044,0.030281462000000002,-0.09855874
-11.098666999999999,-1.0511598999999998,-5.2404575,0.9043773,-0.010157816,-0.07192502
-11.982758500000001,-0.8308646000000001,-3.9402239999999997,0.8564504999999999,-0.03996804,-0.05808456
-12.445328,-0.62339264,2.7107055,0.81864667,-0.0538085,-0.052255157
-14.143134,2.5861497000000004,3.8442547,0.72921604,-0.028780478999999998,-0.03626794
-13.993391,1.6044312,2.8190098,0.6712013000000001,-0.05806710599999999,-0.053302355
-13.243785,-4.392326000000001,2.141575,0.6036047,-0.1166229,-0.06501351
-13.837776999999999,-4.2946805999999995,2.541311,0.5365141999999999,-0.104911745,-0.053302355
-13.807639000000002,-1.9374262999999998,2.1953967,0.40238565,-0.06764896,-0.042132247000000005
-13.189523999999999,-0.11842679,1.2604799999999998,0.33370695,-0.057002455,-0.069272116
-11.992547,0.18036959,0.051781796,0.288468,0.045727625,-0.15283848
-10.610575,0.20273143,-1.026672,0.21978931,0.12131783,-0.20556487
-8.49548,0.29989770000000004,-0.795938,0.18413223,0.079796456,-0.24335125
-7.1282570000000005,0.37989277,-0.45208272,0.20223129999999997,0.028693212000000003,-0.21567033
-6.224100599999999,0.7583585999999999,-0.5047073000000001,0.20807815,0.10054842,-0.17786649999999998
-5.6724385999999996,0.5017672000000001,-0.41480023,0.10002482,0.19530234,-0.12144001
-5.416412,0.52672434,-0.3181128,0.09361946,0.2613107,-0.07674213
-5.430796599999999,0.6003604,-0.25897600000000004,0.13514084,0.31241393,-0.13208652
-5.84417,0.8209909,-0.43414540000000007,0.09309586,0.26504570000000005,-0.13315117
-6.4091535,0.3267032,-0.46208093,-0.09532988,-0.09745918,-0.078330375
-6.788241999999999,-0.123129,-1.3517375,-0.34978142,-0.64095473,0.11435397
-7.1770124000000015,0.010189722,-2.2363087999999998,-0.24596925,-1.1237826000000002,0.23572417
-7.955865400000001,1.0142412,-2.1351109,0.034016468,-0.21882938,0.11967722
-9.121363,1.9729275000000002,-1.4153944999999999,0.19156733,0.34861207,-0.012863076000000001
-10.206425,1.1526836,-1.5092473,0.16390386,0.45029494,-0.0458498
-12.046675,-0.88442767,-2.4903624,0.078731805,0.23630013,0.028117253999999998
-12.215782,-1.5265621,-3.5448932999999996,-0.1182286,-0.016004669,0.11061897
-10.843483,-0.21024922,-4.2756133,-0.24918066,-0.22043508,0.14416419
-11.572460000000001,1.3101455,-2.1442087000000005,-0.24277529,-0.2885553,0.15161675
-13.022464999999999,0.71728367,0.41415859999999993,-0.10225884,-0.2635447,0.16704546
-15.237409,-2.3123294999999997,3.1802947999999995,0.05529203,-0.18847811,0.18355627
-15.163322,-4.9410195,4.930408,0.13941689999999998,-0.17783159,0.16865116
-11.049433,-2.7043946,4.5619309999999995,0.18146189,-0.23425809,0.14629349
-11.496391000000001,0.044187385999999995,2.2633443,0.18678513,-0.25715682,0.1526814
-11.793302,1.2758893,-0.061396908,0.12610003,-0.1922131,0.16704546
-11.505182000000001,0.29148924,-0.7824920999999999,0.026546458,-0.15495034,0.18462093
-10.393661,-0.94460833,-1.3191285,-0.07297221599999999,-0.15866788,0.16812757
-8.922644,-1.2576646,-1.2091292,-0.15760323,-0.032515485,0.15748106
-7.611972,-1.6610397000000001,-0.4405331,-0.13845697,0.0749968,0.16652186
-6.673138000000001,-1.6700131999999999,0.41560468,-0.06604326,0.18306759,0.16280429999999999
-6.035811,-1.1076918,0.5536352,-0.18636626,0.24959953,0.121806525
-5.9910016,-0.78988546,0.27656859999999994,-0.33859387,0.20062560000000002,0.16758652
-6.194671,-1.0574709,-0.30757829999999997,-0.18050195,0.14739305,0.25221753
-6.6883655,-1.3289543,-0.9927031,0.06328564,0.18465583,0.16811012
-7.2572947,-1.1286361999999999,-1.7266313000000002,-0.13100441,0.030822514,0.028117253999999998
-7.7406454,-0.69210625,-2.0258776999999997,-0.52012557,0.048921578,-0.023492131
-8.203330000000001,-0.568077,-1.7253479,-0.5041558,0.3869395,0.07655014
-8.896135000000001,-0.67187047,-2.6840436000000003,-0.31251866,0.19901989999999997,-0.006998770400000001
-10.351303,-1.2679023,-2.6765356,-0.11342895,-0.02560398,-0.13210396
-11.585973,-1.289517,-3.1490264,0.020158553,-0.035709437000000004,-0.19224802
-12.183633,-1.1571368,-4.4220809999999995,0.030281462000000002,-0.02932153,-0.20661208
-12.471157,-0.7744285,-4.1834364,0.013247048999999999,-0.08468337,-0.20182988
-11.774579,-1.3966336000000001,-1.7321092,0.0015358897,-0.11555825,-0.20715313
-12.961088,-0.56053054,3.0600579,-0.014957472,-0.041556288,-0.19385372
-13.482113,2.2235717999999998,2.6150908,-0.026127578999999998,-0.049008845999999995,-0.15498523
-12.756249,0.23699723,2.9955199,-0.0032463125,-0.070842914,-0.12784536
-11.369902,-3.1710339,2.5608191000000002,-0.0027052604,-0.14482743,-0.14433873
-13.2807045,-2.8922436,2.4455430000000002,-0.06658431,-0.108629294,-0.12304571
-13.37854,-1.5423352,2.0536792,-0.12566371,-0.09904744,-0.102276295
-12.276969,-0.7355754,1.1422065000000001,-0.15282103,-0.09745918,-0.12463396
-11.355632,-0.83360356,0.11394484,-0.08522443,-0.030386182,-0.1645671
-9.884538000000001,-0.77386343,-0.44946826,0.031346112,0.03508112,-0.20395918
-7.99265,-0.51579726,-0.425555,0.122382484,0.042533673,-0.23535764
-6.70885,-0.23351127,-0.21562181,0.2054078,0.17135642,-0.2162114
-6.106047,0.20552784,-0.17576315,0.28419197,0.29379126,-0.14646803
-5.9037370000000005,0.22917299,-0.022380996,0.31187287,0.19317304,-0.06876597599999999
-5.4882092,0.31610164,-0.2723165,0.24851742,0.18305013,-0.045343652000000005
-5.809272,0.25203282,-0.50426674,0.16601571,0.21820106,-0.09642944
-6.2983785,0.21272004,-0.6620925,-0.0016406095,-0.06551966,-0.122522116
-6.8112449999999995,-0.24598986,-0.720693,-0.28218484,-0.1879545,-0.014992378999999998
-7.1348357,-0.7973075,-0.8967722,-0.26567402,-0.6388254,0.14575244
-7.5099115,-0.8358733,-1.4090738,-0.14110987,-0.35829863,0.055257123
-8.24155,-0.2856187,-1.70448,0.016441,0.5748416000000001,-0.06822492
-8.973784,0.603923,-1.5107414,-0.015481071,0.5817706,-0.087388635
-9.608669,0.91474783,-1.8129085999999999,-0.061261058,0.46252970000000004,-0.034679692000000005
-11.713315,-0.39196909999999996,-1.9233099999999999,-0.25183356,0.22085397,0.06272713
-12.400442,-1.2090143999999998,-3.3254599999999996,-0.43549454,-0.06232571,0.122853726
-11.274736,-0.1346116,-3.9393620000000005,-0.5206666,-0.23586379,0.14947
-12.601488,0.60195017,-0.6059629,-0.42271873,-0.29921925,0.16598082
-14.611248000000002,-1.4361666000000002,1.6290148000000002,-0.20074777,-0.22841124,0.17343336
-16.582031,-3.7247744,3.7923962999999996,0.0009948377,-0.13419837,0.16332792
-12.248046,-3.9309726,3.5100815,0.08988445,-0.09000663,0.13510594
-9.369546000000001,-0.44160572,2.727896,0.09468411,-0.08468337,0.121806525
-10.828007000000001,1.1966987,0.7041921999999999,0.06647959,-0.050614547,0.12658873
-10.641394,0.80154043,-0.68782544,-0.011222467,-0.00057595863,0.14575244
-10.742773,-0.67835397,-1.0990343,-0.07670722,-0.059131755999999994,0.18034486
-10.186859,-1.721498,-1.2630085,-0.031991884,-0.33487633,0.20165534
-9.071994,-1.7773404,-0.7985715999999999,0.11384783,-0.44292966,0.20324358
-8.038877000000001,-1.7902978999999999,0.1673547,0.25225243,-0.32316515,0.18142697
-7.318452400000001,-1.7760955000000003,0.7459758000000001,0.25864035,0.09096656,0.13191198
-6.874595599999999,-1.6198306999999998,0.5885235,0.13674654,0.38426915,0.059515726
-6.866331,-1.5027447,-0.1380784,0.013770646999999999,0.34061846,0.11274827
-6.767029300000001,-1.4818958999999998,-0.76279265,0.15695746,-0.20446531,0.19259708
-6.712853,-1.341749,-1.1859343,0.019617502,-0.1836959,0.08506735
-7.053031,-1.2286851,-1.9930101999999998,-0.06819001599999999,0.17294468,0.04834562
-7.634601600000001,-1.2748358,-2.1183226000000004,0.06913249,0.51309186,0.05099852
-8.471729,-1.5358803,-1.1724596999999999,0.17453292,0.37309903,0.021188296000000002
-8.744438,-1.7550457,-1.1893053,0.28845057,0.073391095,-0.017662732
-9.117782,-1.7554287,-1.6634052,0.39330995,0.017505653,-0.06290167
-9.849755,-1.1609292,-3.3545735,0.41034436,-0.0032463125,-0.08951793599999999
-11.204654,-1.0792103000000002,-4.7229843,0.29270917,0.011117746999999999,-0.06981317
-12.768412,-0.89502925,-4.8838267,0.2091428,0.015376351000000002,-0.05864306
-13.260228,-1.3783611,-0.9319574,0.17188002,0.032410762999999995,-0.07780678
-14.172841,0.82448643,2.6492417,0.16601571,0.015376351000000002,-0.103358395
-12.695532,1.6033203999999999,4.0220194,0.16866861,-0.008028515,-0.10815805
-11.666848,-1.8026520000000001,2.5971916,0.129294,-0.10543534,-0.12304571
-13.530438,-3.3606644,2.2145599999999996,0.062220987,-0.15440927,-0.112399206
-14.177438,-2.0118093,2.2015355,-0.020804325,-0.09958848,-0.07674213
-13.123423999999998,-0.6464632,1.8550658,-0.11503465,-0.07616617,-0.09377654
-12.668009,-0.62799907,0.99406296,-0.16720255,0.0036651914,-0.13262758
-11.557176,-0.21886835,-0.4715811,-0.16133824,0.11705923,-0.18905406
-9.6629505,0.20056707,-0.5977076,-0.16507325,0.1463284,-0.24123941
-8.125796000000001,0.15734693,-0.5658744000000001,-0.17092009,0.12184144,-0.27103218
-6.927747200000001,0.18058027,-0.44472775,-0.11929326,0.16282177,-0.24228661
-6.257993,-0.13075213,-0.31169632,-0.034121186,0.27408649999999996,-0.19278906
-5.673645,0.11151233,-0.24567384,-0.0048520155,0.31986648,-0.14807373
-5.422053,0.25428337,-0.233789,0.033475414,0.4034503,-0.11452851
-5.6388335,0.57817096,-0.29976365,-0.021886429,0.38533378,-0.14913839
-5.8559684999999995,0.5800384,-0.48769888,-0.24652776,0.21766001,-0.14755014
-6.339674,0.15513470000000001,-0.6510121,-0.5611234,-0.08735373,-0.037873644
-6.610208999999999,-0.23150015,-1.4508767,-0.6590712,-0.6665238,0.1484228
-6.8366622999999995,-0.17544709,-2.315509,-0.41846013,-0.72933817,0.15426965
-7.6498094,0.541511,-2.3898153,-0.21352358,0.14898129999999998,-0.03255039
-8.722344,1.4238988000000001,-1.4261013999999999,-0.08098327,0.527997,-0.13690363
-10.01078,0.7307008,-1.3404847,-0.018168878,0.4667883,-0.10868165
-11.876178999999999,-1.2184571000000002,-2.5157792999999997,-0.06447246,0.24479988,-0.033632495
-12.026669,-1.6960716,-4.0409913,-0.16826719,-0.022933627,0.031293754
-10.59145,0.10004891,-4.416057,-0.24279276,-0.27473226,0.065903634
-11.433375999999999,1.2704879,-1.7396078000000001,-0.16029103,-0.39982003,0.097843155
-13.990307000000001,-0.46247357,1.4091791999999999,0.025464353999999998,-0.38864990000000005,0.11805407
-16.771383,-4.0670209999999996,4.1896996,0.18411478,-0.36042795,0.11381292
-14.6478405,-5.044344000000001,4.987122,0.28099802,-0.32742378,0.10210176
-11.256272000000001,-1.57074,3.76425,0.30867893,-0.26940903,0.07442084
-11.660232,0.5005701,0.86466116,0.27300440000000004,-0.19062486,0.09358455
-11.384018,0.39913258,-0.38126227,0.21764256,-0.15974998,0.15426965
-11.359568,-1.1461043,-0.8919551,0.12821189,-0.24863960000000002,0.16650441
-10.435081,-1.8161743000000001,-1.640938,0.039304815,-0.3614926,0.13721779
-9.013575999999999,-1.7782023999999998,-1.5214959,0.038257618,-0.1836959,0.15852825
-7.805519,-1.7577941000000004,-0.4244728,0.09574876,0.11918853,0.17610373
-6.765305000000001,-1.464265,0.27777526,0.037192967,0.4124911,0.13510594
-6.149392,-1.2798828000000002,0.32500809999999997,-0.17945476,0.31347859999999994,0.122853726
-6.001517,-1.077113,-0.0013311761,-0.16828464,0.17240362,0.23570672
-5.997964,-1.1835496,-0.6418663,0.1362055,0.05635668,0.26073474
-6.7074137,-1.3155371999999999,-1.1484315,0.102136664,0.11171853,0.10049606
-7.462305000000001,-1.1576158,-1.5703186000000002,-0.21884683,0.04944518,-0.018727383
-7.9519773,-1.0095007,-1.3383875,-0.25291565,0.27354544,0.018517943000000002
-8.582945,-1.1714351,-1.3706996,-0.13206907,0.06593854,-0.033632495
-9.017330000000001,-1.3449285,-2.827466,0.014835299,-0.11449360000000001,-0.1118756
-10.103675,-1.3788973,-3.1349964,0.06859144,-0.10012954,-0.15713198
-11.088544,-1.2813193999999999,-4.945683,0.06700319,-0.059131755999999994,-0.15446164
-12.277092999999999,-1.5484548,-4.819442,0.059550636,-0.1123643,-0.15500268
-11.926561999999999,-1.3926018,-2.9840853,0.020141099,-0.15707964,-0.15713198
-12.333528999999999,-1.0888636999999999,3.6497976999999997,-0.06447246,-0.16187929,-0.13903293
-13.670758,1.6279422,3.5558589,-0.13100441,-0.15123278,-0.09697049
-12.967006,0.9191244000000001,3.5461957,-0.17997836,-0.1895602,-0.05544911
-12.825863,-2.8280119999999997,2.9306943,-0.22684044,-0.23586379,0.021170842999999998
-14.711431,-3.506069,2.8802533,-0.18371336,-0.21085322,0.054192472
-14.407549,-2.3426402000000004,2.4358225,-0.13632767,-0.20552997,0.00041887903
-12.632048,-1.1794795,1.2676915000000002,-0.08791223,-0.17359045,-0.11030481
-11.77386,-0.6412151,0.15566142,-0.019233529,-0.086812675,-0.19652407
-10.311702,-0.26757598,-0.5385804,0.055274576,0.045710173,-0.24497442
-8.488757000000001,0.24038742,-0.66013885,0.1649336,0.15004596,-0.27530822
-7.2105502999999995,0.33283234,-0.27452874,0.23626523,0.15856317,-0.30246556
-6.6268826,0.17517896,-0.09871773,0.17238617,0.21286036,-0.32215288
-6.132317,0.31002995,-0.12723745,0.06593854,0.24054128,-0.29021335
-6.2158169999999995,0.33534145,0.20379445,0.0025830872,0.28099802,-0.22739895
-6.0399959999999995,-0.1497238,0.13710156,-0.10332349,0.41940263,-0.18533652
-5.79325,-0.37860948,0.0002777274,-0.1741315,0.48541096,-0.18533652
-6.088532,-0.5103479999999999,-0.27108109999999996,-0.119834304,0.25385815,-0.19174187
-6.696888400000001,-1.1469855,-0.70106053,-0.091088735,-0.1900838,-0.107617
-6.9877844,-1.0571549999999998,-1.2460288,-0.20659462,-0.7229503,0.02703515
-7.552461599999999,-0.6683941,-1.4044003,-0.17893115,-1.0726968000000001,0.17713347
-8.333508,-0.13463075,-1.6516927,0.016423548,-0.2832495,0.061627574000000004
-8.708467500000001,0.41047153,-2.5243217999999996,0.16547467,0.6616194000000001,-0.18322466
-9.56045,0.92556965,-2.4650988999999996,0.17079791,0.72762775,-0.17151349999999999
-11.031802,0.8120653,-2.5280664,0.13512339,0.53386134,0.010000736
-11.889826,-0.5699541,-3.6629848,-0.06021386,0.18146189,0.16224581
-11.347607,-0.86636585,-4.3329787,-0.26516786,-0.1943424,0.22558379999999997
-11.1353655,0.8041835999999999,-2.8057747,-0.34554029999999997,-0.3806563,0.24102996
-13.204223999999998,0.13731226,1.3567557,-0.20394172,-0.43069490000000005,0.24849997
-14.386460999999999,-3.6941574,3.8277445,0.028134707000000002,-0.34126422,0.23411846
-16.102222,-6.6743635999999995,4.697012,0.22244221,-0.22947589,0.18568558
-11.174686999999999,-3.272797,5.772047,0.28684485,-0.17517869,0.15214035
-11.010159,0.46418783,3.373363,0.2580993,-0.16453218,0.14041173
-11.86735,1.224481,0.5726739000000001,0.16280429999999999,-0.21085322,0.16437511
-11.223348,0.22709481,-0.92596227,0.04888667,-0.18849556,0.18193312
-10.824387,-1.4119469,-1.4029063999999998,-0.10279989,-0.12568116,0.18247417
-9.989817,-1.9003737,-1.3415287,-0.23481660000000001,-0.14271557,0.16650441
-8.795235,-1.7209425999999999,-0.49102202,-0.26995006,-0.059131755999999994,0.14734070000000002
-7.7697306,-1.5035491,0.7816015000000001,-0.19490092,-0.026127578999999998,0.13988814
-6.846889999999999,-1.5700887,1.2542266000000002,-0.13419837,-0.04103269,0.1579872
-6.188293,-1.800095,1.0419278,-0.14486232,0.114388876,0.18193312
-6.2983403,-1.59586,0.43076476,-0.19914207,0.16549212,0.1579872
-6.838089,-1.5263323,-0.39063793,-0.17200220000000002,0.24427629,0.21282545
-7.5208960000000005,-1.4399781999999999,-0.9821110999999999,0.07178539,0.19634955,0.2186723
-7.908699,-0.9433729,-1.4854872,-0.040526547,-0.0016406095,0.06588618
-8.178019,-0.5339261,-2.2905042,-0.30295426,0.1383348,0.048328165
-8.322341,-0.674686,-2.6298199,-0.13899802,0.38107517,0.065903634
-8.431975999999999,-0.7867634,-2.8799756000000003,-0.012845623,0.21446607,-0.023527037
-9.131495,-0.88755935,-2.5953912999999997,0.09520771,-0.06127851,-0.07515388
-10.374602000000001,-1.3917686000000002,-2.0738192,0.16599827,-0.06021386,-0.13531537
-11.080146000000001,-1.4746367,-3.2302568,0.2208365,-0.07670722,-0.15554374
-11.709973,-1.6625048999999998,-3.5801265,0.24851742,-0.044767695999999996,-0.14116223
-11.935392,-1.6351153,-2.969557,0.29590312,-0.09532988,-0.15713198
-12.882309,-1.5338693,2.1172020000000003,0.31984904,-0.07031932,-0.19174187
-14.406457000000001,1.4053293,3.034574,0.34805354,-0.013892821000000001,-0.18961257
-12.548672,0.16093823,2.4897400000000003,0.34540066,-0.07936012,-0.17043139999999998
-11.430617999999999,-3.0925903,2.6224265,0.28098056,-0.061802108,-0.13690363
-14.004462,-2.7077367000000003,2.2811475,0.1580221,0.048380528,-0.082606435
-13.446679999999999,-1.6294745000000002,1.9811923999999999,0.035587262,0.12662363,-0.06876597599999999
-12.065292,-1.6250596000000002,1.5650896,-0.03679154,0.15908676,-0.08740609
-11.270494,-1.5110573,0.63450176,-0.042114794000000004,0.20169024,-0.11561061
-10.004066,-0.8176007,-0.23108836,0.03345796,0.19743164,-0.15074408
-8.247374,-0.68803614,-0.19846974,0.11065388,0.104265966,-0.17894861
-6.710057000000001,-0.20942561,0.0383168,0.1516342,0.13887584,-0.15020303
-5.9650483,-0.020925324,0.24643998,0.24052383,0.19634955,-0.070912726
-5.6843133,0.17370412,0.006703765,0.22828907,0.22298327,-0.004363323
-5.360857,0.40999267,-0.09746317,0.18409733,0.30016172,-0.007557275699999999
-5.6469355000000006,0.6487616,-0.26489446,0.090931654,0.2873859,-0.061854467
-6.0159583,0.45350969999999996,-0.47192588,0.016947147,0.18305013,-0.09112364
-6.640787599999999,-0.02761951,-0.80115736,-0.19703022,-0.14749777,-0.021921335
-7.1846642,-0.55481315,-1.3428982,-0.32372367,-0.64097214,0.14041173
-8.097478,-0.7683281,-1.8780502000000001,-0.23109904,-0.5685759,0.11112511
-9.052859,-0.49840575,-2.3941154,-0.09162979,0.32251940000000007,-0.07517133
-9.600462,0.24141213,-1.7180026000000002,-0.14753269,0.5460961,-0.11243411
-10.137567500000001,0.9782228999999999,-1.4947193,-0.26089182,0.29164450000000003,-0.03947935
-11.756843,-0.0060046576,-2.123293,-0.45945793,-0.048485245999999996,0.08239699
-11.900926,-1.927227,-3.4560970999999996,-0.59946823,-0.23746950000000003,0.14467034
-10.684507,-0.6987526,-4.140006,-0.5739166,-0.3029368,0.16809265
-11.626866,1.0036014000000002,-1.0433451999999999,-0.41050145,-0.2789909,0.17873918
-13.772569,-0.7454682,1.5168896,-0.22577579999999997,-0.22575834,0.17128661
-16.13372,-2.8881542999999996,3.991345,-0.09962339999999999,-0.21565288,0.1499936
-13.375266,-3.6381714,4.2141395,-0.06607816,-0.25130996,0.109536864
-9.908644,-1.4553298000000001,3.236482,-0.078330375,-0.2960253,0.0914378
-10.924551,0.49341622,0.4046967,-0.112399206,-0.28166124,0.08398525
-11.137376,0.7056574000000001,-1.1733311000000002,-0.13367477,-0.2539803,0.10101966
-11.043610000000001,-0.55634546,-0.9910174999999999,-0.15924384,-0.21778218,0.111666165
-10.352843,-1.3871621,-0.7235469,-0.25452137,0.050492376,0.11965977400000001
-9.026897,-1.7008505,-0.23361662,-0.27370253,0.1452463,0.13135348
-7.975115,-2.1268554,0.4521402,-0.15337953,0.00418879,0.1547758
-7.431918,-2.302389,0.59119546,-0.12517501,0.10691887,0.1563815
-7.119963,-1.8834993000000002,0.26660874,-0.27155578,0.28312729999999997,0.12231267
-7.119886999999999,-1.5092473,-0.27312094,-0.21884683,0.4124911,0.16650441
-6.983944,-1.4597639,-0.7902876999999999,0.041434117,0.13672909,0.16861627
-6.856428599999999,-1.2019563,-1.0856459999999999,-0.101211645,-0.12674580000000002,0.07014478
-7.233668300000001,-1.0359615,-1.6954491000000003,-0.26677358,0.13459979,0.05682792
-7.022978999999999,-1.2816927,-1.9452792,-0.06714281400000001,0.41140902,0.09941395
-7.111057000000001,-1.1549629,-2.281684,0.03769911,0.19156733,0.05363397
-8.158578,-0.9970892,-2.380076,0.15109316,-0.067125365,-0.021397736
-10.323061000000001,-1.2205161,-1.4125503000000001,0.2133665,-0.017627826,-0.07995354
-11.260475999999999,-1.1169333000000001,-3.3713903,0.23732987,-0.0021816615,-0.101787604
-11.569913,-1.6383713,-4.8487849999999995,0.20858429999999997,-0.045832347,-0.11243411
-12.015042999999999,-2.0243165000000003,-4.0954065,0.23785347,-0.06393141,-0.15128514
-13.471302,-1.6203766000000002,0.93780875,0.24371777,-0.06977826,-0.18587756
-15.70266,1.062949,3.1985674,0.19580849,-0.06286676,-0.18161896
-12.849508,0.36343023,3.138109,0.1649336,-0.11609929999999999,-0.18483037
-11.99496,-2.207272,2.6429687000000004,0.13990559,-0.19861847,-0.16140805
-14.171854000000002,-2.7007265,2.5855367,0.054733526,-0.12409291,-0.10550515
-13.957066000000001,-2.0977040000000002,2.6294560000000002,-0.06181956,-0.029338984,-0.049619712
-12.515871,-1.3145891,1.5811882,-0.14966199,0.064332835,-0.06239552
-11.474575,-1.1894107,0.30535647,-0.13634512,0.16653931,-0.06717772
-9.855203999999999,-0.5301433000000001,-0.7039814999999999,0.016406095,0.20380209999999999,-0.08847074
-7.992755000000001,-0.11519941,-0.6922116,0.13351768,0.15643387,-0.14917329
-6.680522,-0.01730529,-0.3664565,0.14522885,0.088296205,-0.16992526
-5.9220862,0.15993267,-0.15776831,0.252235,0.15056956,-0.106569804
-5.566749,0.03235045,-0.09354625,0.30546752,0.17931512,-0.030979594
-5.2576957,0.2230151,-0.17173129999999998,0.23626523,0.31346112,-0.040561453
-5.5054955,0.5539896,-0.44328165,0.12980014,0.33688346,-0.085817836
-5.9301505,0.6812845000000001,-0.81321454,0.054209925,0.19795524,-0.15234978
-6.522112,-0.0070102224,-0.90819734,-0.06503097,-0.23801056,-0.14597934
-7.380978999999999,-0.6483498000000001,-0.9445030000000001,-0.52600735,-0.29283133,0.016371188999999998
-7.839555000000001,-1.2355804,-1.2334256000000001,-0.57819265,-0.60264474,0.1552994
-8.219619999999999,-0.9059659,-1.905976,-0.4227362,-0.23108159,0.06588618
-9.197719000000001,0.18625931,-1.6025445,-0.27211428,0.25542894,-0.05602507
-9.962666,1.4935893,-1.2856767,-0.13582152,0.51468015,-0.07251843
-11.3939,0.24370101,-2.0126522000000002,-0.08100073,0.39437459999999996,-0.008639379
-11.81482,-2.4568627,-3.5184038,-0.18479545,0.11810643,0.081855945
-10.978813,-1.6547956000000001,-5.117175,-0.34875170000000005,-0.24972170000000002,0.13987069
-11.135499000000001,1.3910503,-2.7721982000000005,-0.41423646,-0.54834753,0.19149752
-12.498969,2.1881473,0.9341984,-0.2790258,-0.5547354,0.26124087
-13.938219,-1.0740293,3.1469579,-0.028291788,-0.38545597,0.23940681
-14.906118,-4.033348999999999,4.278084,0.20697859,-0.25717425,0.17181021
-13.398632999999998,-3.238713,3.9634093999999997,0.35548866,-0.22149974,0.11590732
-11.719416,-0.6612977,2.3096577999999996,0.361894,-0.13952161,0.07386234
-11.142624,0.9659359000000001,0.47964480000000004,0.23357742,-0.068207465,0.06161012
-11.56817,0.34694853,-0.23516805,0.040352013,-0.06873106,0.065327674
-11.232388,-0.91467124,-1.3075405,-0.043196898,-0.004310963,0.07119198
-9.935841,-1.3443251,-1.7106858,-0.07674213,0.08084365,0.07438593
-8.584342999999999,-1.634148,-0.7496533000000001,0.044087015,0.073391095,0.0898321
-6.9999080000000005,-1.6868203999999998,0.5674258000000001,0.17023942,0.36617008,0.0946143
-5.7652187,-1.6291776000000002,1.1754381999999999,0.04886922,0.48752280000000003,0.07490953
-5.8314037,-1.6433897000000002,0.9444264000000001,-0.02989749,0.34220672,0.13826498
-6.022949700000001,-1.6464063999999998,0.06875189999999999,0.17023942,0.21711896,0.20853193
-6.2765336,-1.4853436000000002,-0.8843607,0.27989846,0.2836509,0.08716174
-6.977489500000001,-1.1380503,-1.8005162000000001,-0.07195993,0.05900958,-0.027820547999999997
-7.449233,-0.725309,-2.0565617,-0.2832844,0.40821505,0.07703883
-7.9024363,-0.47516283,-1.8314973,-0.12732176,0.30227357,0.09567895
-8.677545,-1.014385,-2.625175,0.13191198,-0.026686084,-0.04431391
-10.631644,-1.7182515,-1.8998948,0.25167647,-0.069272116,-0.1529083
-11.610422999999999,-1.5050431,-3.3101275,0.22560126,-0.024556782000000003,-0.15557864
-12.198908,-1.0677181,-4.9421782,0.1446878,-0.013369222,-0.123098075
-11.937892,-0.81377,-4.241845,0.1425585,-0.043179445,-0.11671016
-10.954833,-1.1424556000000001,-0.43003693,0.11859512,-0.08257153,-0.12789772
-12.922063,0.7455927,3.49134,0.057910025,-0.076183625,-0.12629202
-13.300834,2.6415226,3.0250163,-0.0006283185,-0.14432128,-0.12896238
-12.308304,-1.0585916000000002,2.7650349999999997,-0.058119465,-0.18584266,-0.11992157
-13.919113000000001,-3.4439059999999997,2.8278396,-0.14702654,-0.14645058,-0.08850565
-14.9499035,-2.71604,2.5681643,-0.24443336,-0.09056514,-0.06080727
-13.659993,-0.8572583,1.3460873,-0.28277823,-0.04691445,-0.08850565
-12.273138000000001,-0.531417,0.11951855,-0.19174187,0.030264008999999998,-0.13215633
-10.772692,-0.29107746,-0.8302804,-0.029373892000000002,0.13512339,-0.17580701
-8.781022,-0.0066941883,-0.9365159,0.097825706,0.20380209999999999,-0.21465804
-7.279340299999999,0.22238302,-0.7682323,0.17287487,0.15161675,-0.21626374
-6.252803,0.19362389,-0.45720634,0.2202431,0.26021114,-0.17688912
-5.570235,0.086114645,-0.23389435,0.29106855,0.252235,-0.11725122
-5.0953207,0.2945634,-0.13290693,0.28359854,0.24211207,-0.09862856
-5.181655999999999,0.3770772,-0.15498146,0.26869345,0.30333823,-0.10449286599999999
-5.6314782999999995,0.40266642,-0.37857115,0.21546089999999998,0.27672195,-0.1433439
-6.085074400000001,0.020159177,-0.30166940000000003,0.12337732,0.06379178,-0.14493214
-6.765401,-0.6075143,-0.49381846,-0.1688606,-0.09642944,-0.06403613
-7.167474,-0.9449627,-1.3976775,-0.44992843,-0.60533255,0.0956615
-7.865268700000001,-0.7712681,-2.292927,-0.18641862,-0.7644890999999999,0.15102334
-8.912980000000001,0.28807992,-2.1926577000000003,0.017976891000000002,-0.09695304,0.059445914
-9.458093,1.0307709,-2.0649223,0.18512708,0.3954218,-0.075206235
-11.05063,0.5032515999999999,-1.7237102999999998,0.2628466,0.5987701,-0.07466519
-12.539889,-1.2140326000000001,-2.956188,0.26282912,0.40341540000000004,0.029112091
-12.07576,-1.6729724,-4.302658,0.12496557,0.016406095,0.12280136
-11.023344999999999,0.19565415,-4.005538,-0.06557202,-0.27101472,0.1776396
-11.589057,1.4274135000000001,-1.1610059,-0.083688535,-0.38334409999999997,0.21755528
-11.849556,0.7162877,0.85337013,0.10367256,-0.34662238,0.2356369
-14.467404,-3.1756307999999995,3.7751292999999997,0.31021482,-0.22205824,0.19785053
-15.047932000000001,-4.8343434,4.8728995,0.41880920000000005,-0.15498523,0.14461797
-12.439582000000001,-2.2456367000000004,4.1703453,0.42678535,-0.18586011,0.087126836
-11.320896000000001,0.47950113,1.7031968000000002,0.34960690000000005,-0.20448278,0.073809974
-10.846433,0.9411607,-0.37705806,0.23727751,-0.19331266,0.08232718
-10.934348,-0.2793746,-1.1976372,0.106325455,-0.28806659999999995,0.102031946
-10.149443,-1.1192893,-1.9863542,0.05576327,-0.31681216,0.12386601400000001
-8.920556,-1.2045708000000002,-1.8538016,0.03234095,-0.23802800000000002,0.14194763
-7.7372746,-1.3474184,-0.38820544,0.13772394,-0.011780973,0.18240435
-6.6626710000000005,-1.5876048,0.6207399,0.19043288,0.48645815,0.15791739999999999
-6.1531462999999995,-1.6883528,0.63300776,-0.023544492,0.5386085999999999,0.12756611
-6.3491645,-1.3814735,-0.05817909999999999,-0.054419365,0.08028515,0.19465657
-6.695060000000001,-1.4198766,-0.82259977,0.24951227,-0.19704767,0.2271197
-7.090562299999999,-1.2133718999999998,-1.3306494,0.14411184,-0.014451326,0.10255554
-7.501197,-0.53194374,-1.7074968999999998,-0.20081758,0.12126548,0.05784021
-8.14926,-0.33190337,-1.3860033999999999,-0.2263692,0.4278849,0.14727089
-8.71524,-0.78968436,-1.4191391000000002,-0.10978121,0.12606514,0.069027774
-9.211892,-1.4151264,-2.1745672000000003,0.08396779,-0.103358395,-0.06138323
-10.357594500000001,-1.615205,-2.3951116000000003,0.21331415,-0.03947935,-0.12100368
-10.93114,-1.119069,-4.495554,0.30380946,-0.03361504,-0.12260938
-12.171028999999999,-0.8610507,-5.4336696,0.28625146,-0.0027401668,-0.117268674
-12.332111,-1.1061212,-3.770954,0.26600564,-0.03415609,-0.14016739
-12.613248,-0.5696093000000001,2.6173797000000003,0.24205971,-0.04852015,-0.15294321
-13.504226999999998,2.4208540000000003,2.8107831,0.20479694,-0.036808994,-0.14123204
-12.422182000000001,1.300492,2.463509,0.20160298,-0.09058259,-0.14442599
-11.735534,-2.7574022,1.918857,0.19202112,-0.1773429,-0.148161
-13.518391000000001,-3.3409455,2.7140383999999997,0.11269591,-0.15498523,-0.11515682
-13.89609,-1.8200433999999996,2.7201197,-0.015027285,-0.07672467,-0.07096509
-13.316951999999999,-0.3609211,1.8622866999999999,-0.07572984,-0.06768387,-0.096516706
-12.021219,-0.27456704,0.5999295,-0.010786135,0.03876376,-0.14177309
-10.460316,-0.24910232,-0.6040188,0.14676474,0.080808744,-0.19659388
-8.667097,-0.19644904,-0.7367916,0.28197540000000004,0.026511552,-0.24239133
-7.1447,-0.123895146,-0.5455428000000001,0.3155206,0.025987952999999998,-0.24185027
-6.122893,0.020733787,-0.34796370000000004,0.28675759999999995,0.17078047,-0.20512855
-5.4533496,-0.13379756,-0.2797864,0.25003588,0.21762510000000002,-0.11089822
-4.851112400000001,0.12670116,-0.29724494,0.20106193,0.24050637,-0.055012777
-5.2786303,0.50108725,-0.29478368,0.13559464,0.24476497,-0.114633225
-5.8159849999999995,0.883968,-0.52603483,0.08662069,0.2532822,-0.17955947
-6.314103599999999,0.61465865,-0.41152495,0.008360127,-0.0027401668,-0.12739158
-6.863707000000001,-0.39740875,-0.74334216,-0.29717723,-0.41530108,0.026424285
-7.217321000000001,-0.96141565,-1.2680075000000002,-0.26043802,-0.78579956,0.08230973
-7.9129515,-0.5738423,-1.4742632,-0.0959582,-0.17201965,0.0067195175
-8.959515,0.5523136,-1.3579338,-0.025150195,0.39488074,-0.11089822
-9.9179325,0.8074206,-1.6048238000000001,-0.0017278759,0.41032690000000005,-0.14442599
-11.9221,0.20531715,-2.0701704,-0.06880088,0.27405159999999995,-0.05927138
-13.023184,-0.9600462,-3.3005126000000002,-0.22212805,0.10264281,0.040264744
-11.364203,-0.6621213,-4.6049404,-0.3498687,-0.19172442,0.079656824
-11.388011,0.79414713,-3.1287427000000005,-0.37542033,-0.40571925,0.108926
-13.242348999999999,0.57332516,-0.10150458,-0.2732313,-0.5015377999999999,0.15842354
-14.942260999999998,-1.8346863000000002,2.4810347999999998,-0.12470377,-0.46108109999999997,0.1802576
-14.888468,-4.564871299999999,3.8136666,-0.0033335788,-0.4131718,0.16215853
-10.204728999999999,-2.8288738999999996,3.7433248,0.08874999,-0.40358993,0.14353588
-11.13389,-0.28696904,2.5691125,0.15208799,-0.3279997,0.13447762
-11.840094,0.94253975,0.3008937,0.13292427,-0.24602161,0.14725342
-11.417871,0.16627252,-0.5182201,0.048275806,-0.21301743,0.15577063
-10.802677000000001,-1.2520813,-1.0823994,-0.08904669999999999,-0.17894861,0.14138912
-9.492982000000001,-1.7603703999999998,-1.3768288,-0.24075072,0.06483898,0.14671238
-8.22165,-1.8389577000000001,-0.8782889000000002,-0.16409585,0.15426965,0.15950564
-7.286178,-1.7842165,0.022419303999999998,0.00996583,0.18195057,0.17654005
-6.2958503,-1.1342578,0.5213997,-0.12044517,0.29321529999999996,0.15311773
-6.0318656,-1.0262698000000001,0.53945196,-0.23329817,0.26234043,0.18931587
-6.067903500000001,-1.35666,0.26963502,-0.09649926,0.020647245,0.21378538
-6.378948,-1.5417126,-0.2005958,-0.2780135,-0.11613421,0.12383111
-6.9799023,-1.5166788,-0.8607347,-0.24607398,0.5237035,0.20739748
-7.3946357,-1.3622433,-1.443876,-0.02994985,0.5061455,0.17706366
-7.5850325,-1.3416628000000002,-1.5955343000000002,0.08182103,0.12711233,0.077510074
-7.968545,-1.2367584999999999,-2.8379237999999996,0.19360937,-0.12891002,-0.04117232
-9.579460000000001,-1.2776513,-2.4935036,0.24630086,-0.10442304599999999,-0.10292207
-11.503679,-1.467071,-2.643036,0.21649064,-0.08206538,-0.079499744
-11.848474000000001,-1.6936584,-4.284041,0.16432275,-0.07780678,-0.05555383
-12.409808,-1.70018,-3.502564,0.18828613,-0.05757841,-0.07098254
-14.632681,-0.61844146,2.3251722000000004,0.21649064,-0.10177015,-0.091751955
-16.204464,2.0581517,3.7285862,0.23832470000000003,-0.09697049,-0.08588765599999999
-12.3213,-0.08520485,1.9673443,0.20636773,-0.16297884,-0.08536405
-12.329334,-3.231703,1.9839791000000002,0.12067206,-0.20823523,-0.08962265400000001
-14.198967000000001,-3.1220677,2.0464296,0.015271631,-0.19333012,-0.08110545
-13.377007500000001,-1.3599353,2.1681507,-0.11086331,-0.15126769,-0.076846845
-12.437619,-1.0050763,1.7538772,-0.17582446,-0.08792969,-0.098663464
-11.559111,-0.66295445,0.7205302,-0.13641493,-0.0059515727,-0.13327335
-9.951986999999999,-0.29101044,0.061942786,-0.034208454,0.04621632,-0.19341739
-8.1076,-0.36106476,-0.24101950000000003,0.029112091,0.042481314000000006,-0.25303784
-6.8319216,-0.279547,-0.21976857,0.10576695,0.16224581,-0.24664994
-6.0096765,-0.16756539,0.027629087000000004,0.16910495,0.37943459999999996,-0.17957693
-5.6077375,0.097951576,0.015524004,0.18933332,0.32993704,-0.11410963
-5.344241,0.39647022,-0.09788454,0.13397147,0.2937389,-0.13220869
-5.554232,0.707343,-0.22905806,0.08660324,0.24157102,-0.2077989
-5.908592700000001,0.7262859,-0.41951203,0.033911746,0.22240731,-0.24186772
-6.411700700000001,0.264837,-0.5682494,-0.23757422,0.08719665,-0.15191346
-6.790042,-0.20856370000000002,-0.8940428,-0.44464007,-0.47066295,0.002984513
-7.1817910000000005,-0.49643293,-1.5204809,-0.28281316,-0.8044397,0.068451814
-8.076264,-0.17171215,-1.9008907,-0.06455973,-0.059184115,-0.05820673
-8.825947,0.78518325,-1.3239169,0.053075462999999996,0.5907765,-0.16467181
-9.644859,0.84761447,-1.4016806,0.08180358,0.6935066,-0.14657275
-11.600903500000001,-0.76072407,-2.0939113999999996,0.044540804,0.42308527,-0.007120943
-12.140556,-1.7274261999999998,-3.6521343999999996,-0.10660471,0.021711895,0.110514246
-10.860194,-0.16223110000000002,-4.1094174,-0.27429596,-0.34077555,0.15522958
-11.537313000000001,1.6380361,-0.90339935,-0.24396212,-0.4818505,0.17013470000000003
-13.267353,0.46700340000000007,1.4014603,-0.047525316,-0.44352308,0.17119935
-15.550322,-3.239173,3.6855574,0.19465657,-0.3604803,0.14458308
-15.337620000000001,-4.9456739999999995,5.3740825999999995,0.38044688,-0.26518533,0.08922123
-11.581539,-1.9760879,4.2232857,0.47146579999999993,-0.18746582,0.041852996
-11.474681,0.6118814,1.4009336000000001,0.42357394,-0.12945107,0.030141836
-11.460421,1.1988821000000003,-0.13533944,0.23458971,-0.103358395,0.044505894000000004
-11.536155,0.0030166940000000003,-0.57340175,0.029112091,-0.13370967,0.064734265
-10.589382,-1.2516886,-1.5754997,-0.061365776,-0.07674213,0.08176868
-9.149958999999999,-1.6027361,-1.3038343000000001,-0.07253588,0.08506735,0.088697635
-7.7815194000000005,-1.9639444,0.06601293400000001,0.047211155,0.21015509999999998,0.11370819999999998
-6.5410832999999995,-1.9623644,0.92148036,0.054140113,0.41671482,0.08817403
-6.076149,-1.7908436999999997,1.0708307,-0.13854423,0.37411132,0.077510074
-5.9766072999999995,-1.4900361999999998,0.70640445,-0.091176,0.16598082,0.1871691
-6.1638436,-1.4839933,0.124086685,0.26600564,0.07548549,0.25691247
-6.780628,-1.2302846,-0.76841426,0.25960028,0.400204,0.11370819999999998
-7.240467999999999,-0.82952386,-1.9254456999999998,-0.21839304,0.104754664,-0.031066861
-7.5181284,-0.673374,-1.7215938999999998,-0.4867025,0.3155555,0.070598565
-7.769031,-0.6562124,-1.8444642,-0.29665359999999996,0.37411132,0.11637855
