accx,accy,accz,gyrx,gyry,gyrz
-13.918462,-1.7122277,2.1281962000000005,-0.18893189999999999,-0.1678134,0.16968091
-11.950677,-0.68573767,2.7257795,-0.044680428,-0.2742785,0.15636405
-11.333787,1.877466,1.6817734,0.10489429,-0.2263692,0.13028882
-11.7185545,1.0342472,0.31854376,0.2518161,-0.26684338,0.14412929
-11.825422,-0.19704281,0.05572744,0.25075147,-0.35519195,0.13508849
-11.048511999999999,-0.09156385,-0.62013656,0.22519983,-0.30675906,0.1483879
-9.745128999999999,0.024353819,-1.1054030000000001,0.19058995,-0.22956316,0.18299778
-9.172617,-0.021423317,-0.4551473,0.07295476,-0.20029399,0.23994787
-8.880735000000001,0.070025615,0.049895164000000006,0.040474183999999996,-0.09382889999999999,0.31979668
-8.38775,-0.24933217,-0.16296852,0.20284216,0.2883633,0.38207003
-7.7470717,-0.79629236,0.051456182999999996,0.29492575,0.5907241,0.40283945
-7.2021804000000005,-1.2429259,0.16036363,0.30876620000000005,0.2995334,0.40123373
-7.035141499999999,-1.4551958,-0.14709018,0.2651155,-0.11831587,0.3410897
-7.2832384,-1.7239784,-0.436779,0.33751178,-0.01665044,0.34267795
-7.279589,-1.343626,-0.8941576999999999,0.2938611,0.40706313,0.36397097
-7.4278674,-0.6750978,-1.226607,0.043668135999999996,0.5098107,0.34267795
-7.536334,-0.31980790000000003,-1.7582251,-0.06277949,-0.03741986,0.30967376
-7.687887,0.10061393,-1.6413019,-0.15540412,0.08766789,0.21546089999999998
-7.779325999999999,0.48259446,-0.38658696,-0.18573794,-0.2104169,0.17819811
-7.528395,0.8441764,-0.9284905999999999,-0.2560049,-0.40896556,0.11006046
-8.727008999999999,0.34454477,-2.5103682999999997,-0.17402677,0.033911746,0.05630432
-10.886091,-1.0633511999999998,-2.4034817000000004,-0.16338027,0.2511005,-0.020350538
-12.564972000000001,-1.5560588,-1.1193277,-0.28049186,0.06585127,-0.15927875
-11.474471000000001,0.18159541,-2.802298,-0.24109977,0.24151866,-0.21731095
-11.3899355,0.44744757,-4.4990597,-0.10588913,0.1776396,-0.1731192
-13.098822,1.263449,-4.5003519999999995,0.07401941,0.027523842000000003,-0.16353735
-11.591872,0.7128304,-3.6597192,0.14480996,-0.06349508,-0.17737779999999997
-11.433702,-0.07953538,-0.7997112,0.16345008,-0.08850565,-0.19654153
-11.697706,2.4144185,1.9231569,0.08093092,-0.2817485,-0.21092305
-11.756584,4.3697343,3.085513,0.06976081,-0.28759536,-0.20825268
-12.086131,2.594606,2.7807503,0.08147197,-0.21626374,-0.18483037
-11.61795,-0.08018660000000001,0.15545073,0.06815511,-0.24233897,-0.1662077
-10.630177999999999,-1.1337407,-0.26028803,0.029304077999999997,-0.2609791,-0.18376571
-10.584373,-0.09618945,-0.05467399,0.0048171086,-0.23490386,-0.18111281
-10.3402605,0.9411799000000001,-0.38820544,0.056985,-0.1390853,-0.16779596
-9.656505000000001,0.9084941999999999,-0.16169481,0.14480996,-0.048048913,-0.19921188
-8.806027,0.41759664,0.036458906,0.21029472,0.004642576,-0.25829127
-7.9117255,0.2818167,-0.44615468,0.15173893,-0.07199483,-0.3179117
-7.1598125,1.1224306,-0.67170763,-0.054785885,0.053075462999999996,-0.38392007
-6.648592999999999,1.6313323999999998,-0.56494546,-0.26665140000000004,0.31124458,-0.43343505
-7.063508000000001,1.9798706999999998,-0.5753170999999999,-0.29752627,0.17816322,-0.38871974
-7.341235,2.2144163,-0.49159664,-0.1388933,0.1627345,-0.2748021
-7.4765368,1.9165584999999998,-0.86365557,-0.23684117,0.32189107,-0.2748021
-7.740387400000001,1.5306802,-1.1171536,-0.21022491,0.840376,-0.33494613
-7.750644,1.2264442,-1.5327296000000001,-0.3268129,0.72326446,-0.33335790000000004
-7.628674,1.0860674,-1.7049014999999998,-0.2645221,0.36342990000000003,-0.295013
-7.758678999999999,1.1060925,-1.5434268999999998,0.14002776,0.12227777,-0.16194909999999998
-7.5540223,1.2236766000000001,-2.3614585,0.23849924,-0.3051708,-0.084753186
-7.292987299999999,1.5243594999999999,-3.533286,0.26830947,-0.13482669,-0.08316494
-8.936923,2.7368982,-2.740863,0.16983798,0.07543313,-0.06026622
-12.075425,3.310999,-1.1141656999999998,0.006946410500000001,0.011013027,0.008918633
-12.591691,1.3005973999999998,-1.9080255000000002,-0.09152506,-0.019303342,0.09515535
-11.069955,0.16810168,-4.378630599999999,-0.116535634,-0.0017453292000000002,0.12548918
-11.207239,0.73352593,-3.8711655,-0.063844144,0.027523842000000003,0.12335987400000001
-11.515373,1.4539795,-3.1650102,0.018116517,-0.060301125,0.12814207
-13.860809,0.44371262,-0.17176002,0.08625417,-0.14706144,0.14465289
-15.159539,-1.6346555,2.0199401000000003,0.15545648,-0.2104169,0.15584044
-13.07735,-2.587634,2.3771357999999996,0.19324285,-0.22638665,0.15369369
-11.296581,-0.16203,2.7847152000000004,0.2629862,-0.24820328,0.13720033
-11.886550999999999,1.1455107,0.30839235,0.3976558,-0.28120744,0.11004301
-12.620364,-0.101868495,-0.22207657,0.40990803,-0.2732313,0.13667673
-12.178548,-0.7975085999999999,-0.85432774,0.3907443,-0.24127431,0.16435766
-10.236688000000001,-0.6220135999999999,-1.2919687,0.35828119999999997,-0.14173819,0.20427333
-9.154566,-0.7366384,-0.6208452,0.31356585,-0.10021680599999999,0.24898867
-8.729413000000001,-0.5823465,-0.30389124,0.22626448,-0.07466519,0.2851868
-8.25809,-0.33931586,-0.4496215,0.1852667,0.07597418,0.33044317
-7.500392,-0.623,-0.5604826,0.28269097,0.29740409999999995,0.39803979999999994
-6.8581047,-0.9228115,-0.5399691,0.29014352,0.17444566,0.40283945
-6.6925693,-1.4821545,-0.3664565,0.19165461,-0.24448572,0.4230678
-7.2100234,-2.0753038,-0.24685177,0.11393509,-0.18219492,0.43371433
-7.268825,-1.4542667999999999,-0.95493215,0.34709364,0.3511777,0.49333477
-7.435136,-0.8075738,-1.2231976,0.36838666,0.5688901,0.50237554
-7.62717,-0.63875383,-1.6029468,0.13789846,0.0136833815,0.49014083
-7.437626,-0.3019663,-2.0631697,0.10754719,-0.14758503,0.45340163
-7.197363,-0.14425544,-1.984391,-0.20331341,-0.011850785,0.32457888
-7.428748,-0.19292477,-1.4605683,-0.3273365,-0.40631264,0.20427333
-8.378105999999999,0.02075294,-1.5005037,-0.4252844,-0.20455259,0.11590732
-10.051741,-0.92106855,-1.7525556,-0.35768777,0.24525367,0.050963614000000004
-12.065435,-0.89550805,-0.52645624,-0.33478907,0.1728574,-0.013421582
-11.465449000000001,1.0573658000000001,-1.6136344999999999,-0.42741367,-0.012915436,-0.12468632
-10.866401,1.4402655,-3.6650345,-0.51684433,0.1068316,-0.1731192
-12.759112,0.12731408,-4.749694,-0.5152561,0.13452998,-0.17631316
-13.427985000000001,-0.55593365,-3.9486227,-0.47054076,0.014765485,-0.17577212
-11.191657000000001,-1.2258408,-2.8984107999999997,-0.40505599999999997,-0.024626596,-0.17366026
-12.3482485,0.9325799000000001,-0.64317834,-0.37843975,-0.20615830000000002,-0.18643607
-11.6368265,3.6249652,1.8768721999999998,-0.30497882,-0.19177678,-0.20772909
-11.075108,3.7459202000000005,2.8453939999999998,-0.27145106,-0.13376203,-0.20559978
-11.136496000000001,1.2172313,1.5146486000000001,-0.30232593,-0.19868828,-0.21144664
-11.2812,-0.36577654,0.3712928,-0.28103292,-0.25830874,-0.23008676
-10.909487,-0.59548587,-0.24439053,-0.20224875,-0.24127431,-0.22689279999999998
-10.665536,0.03244622,-0.53225017,-0.1325054,-0.17793632,-0.18376571
-9.875986,0.81302303,-0.6172826,-0.11068878,-0.12524483,-0.15236725
-9.215129,0.8667488999999999,-0.0952605,-0.087790065,-0.07093018,-0.19601792
-8.430444999999999,1.0356358,-0.0068953009999999995,-0.07501425,-0.012391837,-0.26254988
-7.532311999999999,1.1417851,-0.1388158,-0.06597344599999999,0.10204939999999998,-0.3179117
-7.14697,0.65134734,-0.23036051,-0.12772319,0.20106193,-0.34026940000000006
-7.175729,0.6286695,-0.4720407999999999,-0.26665140000000004,0.23726006,-0.34400440000000004
-7.316163,1.1939309,-0.8528146000000001,-0.253352,0.02432989,-0.29874802
-7.434983,1.4473716,-0.7512909000000001,-0.09258971,0.08075638,-0.19495328
-7.622726400000001,1.5395386999999998,-0.80356115,-0.21235421,0.31285027,-0.24073327
-7.877028999999999,1.3061231000000002,-1.2298152,-0.28742080000000003,0.5518557,-0.32217032
-7.8756785,1.1067245,-1.5943947,-0.4465774,0.55133206,-0.37807322
-7.6887490000000005,0.7568646,-1.6384096000000001,-0.21183062,0.36288884,-0.2795843
-7.6771226,0.46739605,-1.7893976000000003,-0.029234264,0.0067718774,-0.11508701
-7.7356753,0.51078856,-2.110163,0.17568484,0.16592845,-0.016615533999999998
-8.426374000000001,1.0254462,-2.8656582999999998,-0.08140215,0.07384488,-0.06717772
-10.109565,2.2010472,-2.951505,-0.24589944,-0.008115780999999999,-0.0011693706
-11.940085,2.6537237,-1.9607363000000002,-0.25068164,0.04935791,0.08131489
-11.863738,0.73061454,-2.716375,-0.20331341,0.04775221,0.12390092
-10.890706,-0.17424041,-3.9439108,-0.14688691,0.065327674,0.13187708
-10.80826,0.37850413,-2.8436124,-0.104824476,-0.03260275,0.14678219
-11.881859,0.46799940000000007,-0.7703486999999999,-0.11121238,-0.111927964,0.1723338
-14.704391500000002,-0.01250731,0.8866685999999999,-0.12931144,-0.18058921,0.19788542
-13.774761999999999,-0.7727621,2.2515457000000003,-0.04574508,-0.2796192,0.19629718
-12.343086999999999,0.17503529999999998,2.4626088,0.13842206,-0.28014278,0.19736183
-11.850761,1.5868768999999998,-0.74354327,0.29173177,-0.28120744,0.21013764
-12.319978,-0.27364767,-0.3664948,0.39660862,-0.27694884,0.18404497
-12.534564999999999,-0.79388857,-0.264588,0.4514294,-0.31792918,0.16701056
-11.415496000000001,-0.34430537,-1.0062829,0.47432813,-0.27481955,0.15584044
-9.991291,-0.23949678,-1.0590703000000001,0.37583920000000004,-0.16728981,0.17765707
-9.299328,-0.06637685,-0.39530185,0.2459518,-0.048572514000000004,0.226631
-8.628617,-0.20448397,-0.6662584,0.23265238,0.19680333,0.28625146
-7.99626,-0.5204229,-0.47744215,0.34815827,0.3682121,0.33629003
-7.081244,-0.7152917,0.16601394,0.49401546,0.2878397,0.35599482
-6.7431160000000006,-1.4750581,-0.082485035,0.40990803,-0.14599679999999998,0.31127948
-6.649263400000001,-1.6300204,-0.5207485,0.40938443,-0.15292574,0.33203143
-6.9394693,-1.3716285,-0.610598,0.47804567,0.4682893,0.32777283
-7.4417634,-1.3344610000000001,-0.8194299,0.29492575,0.54920274,0.29798007
-7.422476,-1.0049325999999998,-1.4259003000000001,0.24436355,0.13824753,0.26495844
-7.2026496,-0.21011515,-2.0903392,-0.16444492,-0.17580701,0.18884462
-6.7973685,0.26662788,-1.9163287,-0.3273365,-0.7847873000000001,0.06321582
-6.986567999999999,0.3795863,-1.4284477,-0.3124314,-0.25726154,-0.0006457718
-8.24789,0.009548075999999999,-1.2702006000000001,-0.34491196,0.42144465,0.039793506
-9.955848,-1.0954719,-1.3633063,-0.383763,0.17870426,-0.015550883500000001
-11.997335000000001,-1.7537432000000002,-0.98107684,-0.26132816,-0.009721484,-0.12468632
-11.893063,0.5132402,-1.9426074,-0.17137387,0.17018706,-0.17844246
-11.528953999999999,1.2489401000000002,-3.8880017,-0.09311332,0.04244641,-0.21303488
-12.802889,1.2181506000000002,-4.0956554,-0.011676253000000001,-0.08316494,-0.22954570000000005
-12.498413000000001,0.67599803,-2.4777308,0.015987216000000002,-0.23649211,-0.25509733
-14.536856,2.7829626,-1.1307718999999998,0.021851522999999998,-0.30782372,-0.28119
-13.692995000000002,4.5051117,2.3334465,-0.032428216,-0.39671335,-0.30354765
-10.783542,2.8357596000000003,3.3486550000000004,-0.13730505,-0.3296578,-0.30087729999999996
-11.254597,-0.6752894,0.8506024,-0.23525293,-0.25406757,-0.26096162
-12.074667999999999,0.077189066,0.118886486,-0.19160224,-0.2657613,-0.20877628
-11.54984,0.5249431,0.18249564,-0.10643018,-0.25513223,-0.14863224
-10.4665785,0.4717152,-0.6819261,0.010140363000000001,-0.15823156,-0.14491469
-9.388325,0.7874146,-0.81842434,0.12245230000000001,-0.064018674,-0.17153096
-8.537531,1.1333385,-0.35499308,0.21668263,-0.0027925267,-0.23061036
-7.8589387,1.2141283999999999,-0.35279042,0.29972538,-0.007592181999999999,-0.2801079
-7.137498399999999,1.1453478000000001,-0.36272156,0.23317600000000002,0.10791371,-0.31471777
-6.6034765,1.8002577000000002,-0.5416163,-0.05958554,0.2665467,-0.34133404
-6.6435747,2.1526651,-0.58144623,-0.3268129,0.23300146,-0.39084902
-6.842475,2.435813,-0.55123144,-0.41624358,0.11801916,-0.34611624
-7.4325886,2.0873897,-0.28762025,-0.3395887,0.33094934,-0.28490755
-7.688422999999999,1.3987693,-0.76857704,-0.3033906,0.68547803,-0.29768336
-7.8869886,0.82241786,-1.1546085,-0.22300072,0.7679971999999999,-0.3093945
-7.787246700000001,0.737146,-1.4275476,-0.39440949999999997,0.53056264,-0.31951743
-7.8003089999999995,0.82539624,-1.3571388999999998,-0.30126128,0.2340661,-0.24870941
-7.9076557,1.1235893,-0.38809052,-0.09311332,-0.13428563,-0.117757365
-7.848327,1.2234083,-2.1545612999999997,0.10702359,0.089273594,-0.07677703
-8.743710499999999,1.5430438999999998,-3.4919624,-0.036163222,0.00038397242,-0.12788028
-10.430464,2.7623724999999997,-2.6876829,-0.16018632,0.10897836,-0.016615533999999998
-11.693893,3.079336,-2.4248474,-0.23151793,0.16594589999999998,0.0850499
-11.028632,0.95722103,-3.6184814,-0.26771605,0.15954055,0.11486012
-10.74286,0.25507826,-3.46939,-0.22780037,0.11004301,0.14252359
-11.405650999999999,0.967449,-1.5889742,-0.04626868,-0.026755897,0.16915731
-12.656305,-0.020714633,-0.98767525,0.14587462,-0.18645352,0.1574287
-15.205231,-1.2685821000000002,0.8853662,0.2688505,-0.30941197,0.145735
-13.947785999999999,-2.1143196,2.7703404,0.38329175,-0.33124605,0.13081242
-11.227657,0.43069769999999996,2.6795904999999998,0.46739918,-0.36264452,0.12496557
-10.832422,2.2921417,-0.44448835,0.5823815,-0.42971750000000003,0.085573494
-11.780421,0.3184384,-0.25094107,0.60847414,-0.46272168,0.11805407
-12.555319,-1.0757914,-0.7579851,0.5690821,-0.3349636,0.14945254
-11.635111,-1.4877281,-1.3361561000000002,0.480175,-0.25246188,0.18938568
-10.6865,-1.8481131000000002,-0.48373409999999994,0.39235002,-0.14919074,0.24261822
-9.981475,-1.2738686000000001,0.11677958,0.2523397,-0.06560693,0.2804046
-9.154967,-0.85645384,0.14797124,0.22519983,0.09407324,0.34002504
-8.359269,-0.66858566,0.0046926355,0.45197046,0.48534116,0.41135666
-7.661474,-0.9482761999999999,-0.060094465,0.60208625,0.4225093,0.43212608
-7.331237299999999,-1.1955878,-0.16485515,0.3779685,-0.038990654,0.39112827
-7.1856313,-1.7731936000000001,0.008916007,0.36412805,-0.11138691,0.42146212
-6.927478999999999,-1.7580241,-0.7662403,0.5956983,0.45233697,0.4922701
-6.787064,-1.2125483,-1.0946194,0.5030737,0.67004937,0.49439943
-6.917001700000001,-0.7566731,-1.3168684,0.29279643,0.20744984,0.48108256
-6.7744800000000005,-0.14405432,-1.7506785,0.17835520000000002,0.11269591,0.45713663
-6.827659599999999,0.31870654,-1.5209213,-0.23790583,-0.10606366,0.36451203
-7.424419400000001,0.6624373,-0.72684133,-0.39334485,-0.5484348000000001,0.25007078
-7.9350357,0.85458636,-1.6714976000000001,-0.43221334,-0.20774654,0.1436057
-9.582965,-0.31800744,-2.649912,-0.35501742,0.22076669999999998,0.071733035
-12.104108,-2.430038,-1.4837538000000001,-0.39707986,0.10046115,-0.021938787999999997
-11.66275,-0.088604614,-1.4926028,-0.5285555000000001,0.07119198,-0.15234978
-11.027702,0.6728856,-3.7926357000000004,-0.5519778000000001,0.21863739,-0.18322466
-12.459655,0.48964298,-4.883797599999999,-0.48757517,0.15901695,-0.19121827
-12.672729499999999,0.7333248,-4.222289599999999,-0.3832394,0.045622908,-0.19867083
-11.681683999999999,0.035769373,-2.1245189,-0.26080456,0.02380629,-0.2231578
-12.822502,2.4889162000000002,-0.93308747,-0.23577653,-0.06934193,-0.2401922
-11.763833,3.6569324,1.9679189,-0.29433233,-0.23436281,-0.2907544
-11.515630999999999,3.1290299999999998,3.7772937000000004,-0.30497882,-0.15557864,-0.30620056
-11.504608000000001,0.39504328,1.2670403000000001,-0.33904767,-0.14226179,-0.27478462
-11.135375,-0.26419538,-0.09074024,-0.3081728,-0.20772909,-0.2646792
-10.430186,0.055851936,-0.46553814,-0.25441664,-0.16514306,-0.26893779999999995
-10.35114,0.13969688,-0.55790645,-0.17563248,-0.12150982,-0.26574382
-9.72653,0.7974224,-0.6998156,-0.06010914,-0.10819296,-0.22900465
-9.291016,0.95791054,-0.030731974,0.038885936,-0.12096877,-0.23699826
-8.706408999999999,0.24737849999999997,-0.2179777,0.06815511,-0.10979866,-0.28916615
-7.954706699999999,0.74293035,-0.845316,0.08040732,-0.08210029,-0.33494613
-7.1945570000000005,1.1714063,-1.1517834999999998,-0.12665854,0.002513274,-0.3700796
-7.036567999999999,1.0940161,-0.8982279000000001,-0.35182348,0.14357078,-0.369556
-7.4538107,1.6963494,-0.74661744,-0.42847833,0.067456976,-0.27639034
-7.348743400000001,1.6819842,-0.74611944,-0.28900906,0.033911746,-0.1795071
-7.341972999999999,1.3048591999999999,-0.92889285,-0.28742080000000003,0.097267196,-0.19760618
-7.598813000000001,0.99112284,-1.131787,-0.24589944,0.5002287999999999,-0.24658011
-7.711168300000001,0.65008324,-1.4684117,-0.26080456,0.58381265,-0.26787314
-7.535203999999999,0.30691752,-1.639262,-0.11334168,0.50237554,-0.20718804
-7.622966,0.24441926,-1.3964611,0.1176701,0.071174525,-0.08527679
-8.207754,0.9959399999999999,-1.009836,0.20390682,0.029129544,0.0339292
-8.695319,1.5173397,-2.725818,0.19484855,0.14358823,-0.005969026
-10.112581,2.1819603,-3.050682,0.020245818,-0.03260275,-0.030455995
-11.948848,2.6880276000000003,-2.6463783,-0.04574508,-0.018762288999999998,0.05256932
-11.950389999999999,1.4267813999999999,-2.7479308,-0.07449065,0.015812684,0.09889036
-11.111931,0.25468558,-3.4317625,-0.004223697,-0.012374383999999999,0.12123057
-11.010186000000001,0.25619873,-2.9641175,0.07827802,0.044034656,0.11964232
-11.654676,0.6227796999999999,-1.4116213,0.12618731,-0.09168214,0.12337732
-13.730123999999998,0.03523307,-0.69040155,0.12884021,-0.1704663,0.12231267
-13.3748255,-0.851608,0.23516805,0.15013322,-0.2748021,0.14199999
-11.624051,-1.8144984,2.118974,0.19432496,-0.28864256,0.14467034
-11.502127999999999,0.26268223,1.3630381999999999,0.29972538,-0.24659757,0.12337732
-12.797792999999999,0.6078495,0.15687767,0.39660862,-0.29876545,0.1414764
-13.042739,-0.81634617,-0.28240088,0.43333036,-0.20933479,0.1526465
-12.324939,-0.6616903000000001,-0.66085714,0.35241687,-0.16036086,0.18832102
-10.724961,-0.45698604,-0.81803167,0.24755749999999999,-0.07625344,0.21067870000000002
-9.632353,-0.87533927,-0.5199919,0.11712904,-0.079970986,0.24687682
-9.016199,-0.47210786,-0.5863783,0.03302163,-0.025150195,0.2867925
-8.044775999999999,-0.4166294,-0.8080814000000001,0.07986627,0.1600816,0.34641296
-7.241272400000001,-0.49963158,-0.35039622,0.22413518,0.42357394,0.38154644
-6.5171795,-0.73711723,-0.18356824,0.3108955,0.39324012,0.37941712
-6.5112133000000005,-1.4175973,-0.018061858,0.11393509,-0.007592181999999999,0.34215435
-6.6165009999999995,-1.5338215,-0.44863509999999995,0.19538961,0.06478662,0.3538655
-6.9027133,-1.2471875,-0.9845818999999999,0.28214994,0.44699627,0.36822957
-7.2993179999999995,-1.0378289,-1.5821842,0.20816542,0.35971236,0.37144098
-7.2939067,-0.2911158,-2.1142335,0.09157742599999999,-0.10499900599999999,0.35014796
-7.4758277,0.050632577000000005,-2.078665,-0.37418115,-0.34454545,0.24687682
-7.784631699999999,-0.067870826,-1.4967591999999998,-0.5322905,-0.7959574,0.1585108
-8.222828,-0.11482591,-1.0309145,-0.5525189,-0.18324211,0.049916416
-8.875928,0.050939035,-1.4569484,-0.31723103,0.49118802,0.07440338
-10.176631,-0.64690375,-2.2372472,-0.26719245,0.21331415,0.04618141
-12.004518,-0.9688089,-1.8485726999999998,-0.30232593,0.042970005,-0.07410668
-11.329612,0.22007503,-2.4850185000000002,-0.32148966,0.24738297,-0.15608479
-12.0263815,0.11786176,-3.7328093,-0.27836257,0.15371114,-0.17790142
-12.348315,0.5297219,-4.3375463,-0.23471187,0.029129544,-0.16619025
-12.500788,-0.37789120000000004,-3.1353602,-0.12665854,-0.016091935,-0.17737779999999997
-14.628601999999999,1.8249947,-0.6416556,-0.08833111,-0.10925761,-0.20877628
-13.197759,4.8916316,2.1634486,-0.11601204,-0.28333676,-0.28757790000000005
-9.85713,3.2051847,2.6725132,-0.14741051,-0.23488641,-0.32323498
-10.312814,-0.14656344,1.5238423,-0.12985249,-0.25511476,-0.30033624
-10.888859,-0.2437393,0.3266553,-0.04520403,-0.28438395,-0.27639034
-10.729873,0.24097162,-0.46611276,0.011728613,-0.32857567,-0.25136232
-10.916248,0.5681536,-0.80392504,0.041538835,-0.3456101,-0.2380629
-10.423119999999999,0.93865156,-0.7241981,0.04579744,-0.25244442,-0.21251129
-9.532179,1.4328148,-0.28253496,0.08998918,-0.12522738,-0.21994638
-9.120061,0.9650451999999999,0.03139277,0.16503833,-0.06880088,-0.25083873
-8.29002,0.7021236,-0.6137775,0.2731091,-0.030473447999999997,-0.27851963
-7.42961,0.8633013,-0.7163739,0.19591321,0.04564036,-0.30620056
-6.9629607,0.728297,-0.6690931999999999,-0.029775318,0.23195426,-0.33494613
-7.18951,1.207597,-0.39715976,-0.2474877,0.18510962,-0.33281684
-7.47012,1.3953025,-0.4910795,-0.23790583,0.03764675,-0.23326325
-7.553389999999999,1.5587881000000001,-1.0137817,-0.15859807,0.20320868,-0.20345303
-7.5519443,1.3454169,-1.2717136999999998,-0.14795156,0.62214005,-0.25668558
-7.430089,1.0914208,-1.6585208999999999,-0.19638444,0.67430794,-0.2822372
-7.3291683,0.5806226,-1.6546328000000001,-0.06330309,0.5832890000000001,-0.22954570000000005
-7.180632000000001,0.28753406,-1.4931582,0.2603333,0.17339846,-0.10922269999999999
-7.552644,0.9042708,-0.6180679,0.2432989,-0.08103564,-0.004363323
-7.82338,1.3687173000000001,-2.163554,0.20762436,0.10046115,-0.044296455
-9.066794,1.5458976999999998,-2.9490914,0.046862092,-0.07517133,-0.015009831999999999
-11.1999035,2.7964373,-2.641542,-0.039357174,-0.08051204,0.116448365
-12.507214,2.5685092999999997,-1.478094,-0.040945426,-0.021956242999999997,0.15531684
-11.619798,0.35117194,-2.922439,0.030892327,-0.015568336499999998,0.16596335
-11.081275,0.13590446,-3.7655525,0.06709046,0.030194197000000002,0.17713347
-11.907179,0.16298766,-2.358011,0.037821285,-0.08848819,0.20374973
-14.541307999999999,-0.6247526,-0.7897801,-0.023387412000000003,-0.18004817,0.20587903
-14.567060000000001,-1.2202383999999997,0.5255369000000001,-0.023387412000000003,-0.2918365,0.2213252
-11.4009495,-0.5964818000000001,1.8541942999999999,0.055379298,-0.34719834,0.22558379999999997
-11.389332000000001,1.4862628999999998,1.1444285,0.24649285,-0.26628488,0.21120229999999998
-13.084503999999999,0.64047766,0.30426475,0.3838328,-0.29450685,0.20854940000000002
-13.156138,-0.79055583,-0.088671654,0.42055455,-0.25405014,0.18032742
-11.845303999999999,-0.33538935,-0.10191637,0.3188891,-0.18165387,0.17980382
-10.152507,-0.34670913,-0.7085496,0.19113101,-0.08794714,0.20909044
-9.272418,-0.60475624,-0.78419685,0.015463616999999999,-0.036861353,0.25487044
-8.735006,-0.022936452000000003,-0.8935351999999999,-0.111753434,0.03551745,0.31182054
-7.9157767,-0.057144806,-0.88112366,-0.051068332,0.20587903,0.36292377
-7.2273674,-0.48634854,-0.38336915,0.030892327,0.13133602,0.39379865
-6.6903095,-1.0693462,0.034198776,0.14480996,0.11590732,0.39006364
-7.020613000000001,-1.6112115,0.14228262,0.07295476,-0.06934193,0.32299063
-7.262494599999999,-1.5671103000000002,-0.24739765,0.1219287,0.016894788,0.32511994
-7.4343604999999995,-1.3033938,-0.84311336,0.20923007,0.47256535,0.30543262
-7.362812,-0.66822165,-1.3876506000000002,0.048467792999999995,0.24527112,0.26604053
-7.2961089999999995,0.0336529,-2.1186388,0.11979939999999999,-0.040055305,0.26869345
-7.1676173,0.33581072,-2.4542577000000003,-0.113882735,0.091420345,0.20055579
-7.152495399999999,0.23123199,-1.9891984,-0.38269836,-0.42226496,0.10793116
-7.853125,-0.21853316,-1.7142099999999998,-0.5408076999999999,-0.25776768,0.037664205
-9.354471,-0.87750363,-1.3892787,-0.42369613,0.45233697,0.028623400000000004
-10.483625,-1.5093238000000002,-1.1761085,-0.41889647,0.2681524,0.022759092999999998
-11.804372,-0.9933639000000001,-1.4155287,-0.43593088,0.071733035,-0.08421214
-11.768459,0.61563545,-2.6239302,-0.4173082,0.1707281,-0.1635199
-12.327735,-0.10348698,-3.9990062999999996,-0.36246997,0.10684906,-0.18748327
-13.349944,-0.26709715,-3.487222,-0.26345745,0.038711403,-0.19334757
-11.591814,-0.96698934,-1.4294628999999999,-0.16285667,-0.038449604,-0.20771164
-13.691195,1.7024498,-1.3049548999999998,-0.04893903,-0.111910515,-0.22900465
-13.208504000000001,5.047619,1.249419,0.015987216000000002,-0.25296799999999997,-0.2540152
-10.845082000000001,4.2481089999999995,2.600898,0.04527384,-0.30993557,-0.26733208
-10.548105,0.7282108,1.5878538,0.018657569,-0.3397458,-0.22635175
-10.87681,-0.40267600000000003,0.26048914,-0.009005899,-0.31525883,-0.19067723
-10.586097,0.206792,0.13284945,-0.037227873,-0.27960175,-0.18483037
-10.626664,0.256419,-0.20779754,-0.03668682,-0.25830874,-0.16406095
-9.861257,0.7166324000000001,-0.45115378,0.03143338,-0.19177678,-0.1603434
-9.162677,1.184038,-0.04684974,0.099571034,-0.11245156,-0.17418386
-8.771264,1.000489,-0.050335698,0.18793705,-0.06986553,-0.22687535
-8.297384,0.5124549,-0.4144267,0.23211133,-0.052813664,-0.2907544
-7.766235000000001,0.78320086,-0.30609390000000003,0.22572343,0.055745817999999996,-0.31258845
-7.398198,0.92334783,-0.33891362,0.03143338,0.21437879,-0.3338815
-7.3273106,1.4255652,-0.42210734,-0.24216443,0.21544345,-0.34559265
-7.345238,1.8175821,-0.80205756,-0.36353463,-0.024068091,-0.31257102
-7.421239999999999,1.9556127,-1.1552885,-0.30072020000000005,0.11217231,-0.29874802
-7.7322372999999995,1.5617952,-1.155461,-0.36088172,0.3937812,-0.35037485
-7.660832400000001,0.92188257,-1.2455498999999999,-0.16605063,0.8010014,-0.40201914
-7.577773,0.5212846999999999,-1.3804392,-0.30710813,0.56360173,-0.39241982
-7.541678,0.43874225,-1.4150403,-0.16976817,0.19682078,-0.30194196
-7.6631884999999995,0.9264986,-0.89901316,0.1847431,-0.14545573,-0.15713198
-7.885466,1.2434718999999999,-1.5073032,0.28108528,0.048310712,-0.026720991
-8.7603655,0.96847373,-3.1597524,0.21242402,0.07812094,-0.12306316
-10.890611,2.2820096000000003,-3.3179517,0.036756635,0.07703883,-0.069848076
-12.418121000000001,2.7105810000000004,-2.3058558,-0.059044488,0.105260804,0.07120943
-11.113511,0.8690568999999999,-3.6297343,-0.17776178,0.16753416,0.11857767
-10.880697999999999,0.05809291,-3.7640107000000005,-0.249617,0.11697197,0.11646582
-11.351677,0.6862835999999999,-2.330219,-0.24057618,0.022218041,0.145735
-12.615116,0.5239184,-1.3650494,-0.14795156,-0.06347763,0.17608626
-15.101408,-0.6479285,0.5743977,-0.0718203,-0.14226179,0.18832102
-13.478341,-2.1593306,2.2262722999999998,0.055379298,-0.26787314,0.19631463
-11.283776,-0.8116727,3.1643397999999996,0.24436355,-0.256162,0.17448056
-9.946442999999999,2.3184299999999998,0.2497248,0.43545964,-0.32325244,0.20909044
-11.090766,1.0487274,-0.23961172,0.54831266,-0.32538173,0.20535544
-12.07892,-0.69670314,-0.34501404,0.526496,-0.3381401,0.20003219
-11.645924,-0.6040858,-1.4216195,0.48816859999999995,-0.32484066,0.21706660000000003
-10.654686,-0.68081516,-1.2976477,0.45568800000000004,-0.18163641,0.2538058
-10.119582000000001,-0.76738954,-0.31082484,0.34763467,-0.21092305,0.32300809999999996
-9.50704,-0.43464336,-0.17350301,0.37903315,0.012112585,0.41615630000000003
-8.77563,-0.65612614,-0.09966583,0.49933869999999997,0.39697513,0.46565384
-7.942515400000001,-1.1538233,0.20493408,0.59676296,0.43210859999999995,0.48642325
-7.256385000000001,-1.3838773000000002,0.35545275,0.38276815,0.13667673,0.42095596
-7.069005000000001,-1.5602629,-0.00566947,0.13096951,-0.18271852,0.35227725
-6.9872,-1.5943468,-0.41923428,0.19113101,0.29105112,0.3597298
-6.9926686,-1.472367,-0.97277373,0.10702359,0.46404815,0.31394982
-7.0314546,-1.0684938,-1.1279947,-0.16018632,-0.12362167,0.258588
-6.957521400000001,-0.64029574,-1.5175887,-0.4487067,-0.34559265,0.19524999
-6.774719,-0.3438744,-1.2227284,-0.6781477,-0.56545174,0.07546803
-6.760440299999999,0.04229118,-0.7316872,-0.7643844,-0.07197738,0.025429446
-7.5837107,0.37142688,-1.6753091,-0.58817595,0.48427650000000005,0.07600909
-9.2929125,-0.40425617,-2.719382,-0.43966588,0.26975808,0.10314896
-11.523791000000001,-1.8614343,-2.5740733,-0.27836257,0.09833185,0.024888393999999998
-12.620842999999999,-0.24070346,-1.3123194999999999,-0.19160224,0.16968091,-0.07408923
-12.350106,0.934658,-2.9860293999999996,-0.14475761,0.12123057,-0.12412781
-12.9882765,0.9305879000000001,-4.3970666,-0.04893903,-0.010227629,-0.14489724
-13.503201999999998,0.5589599000000001,-3.460608,0.06283186,-0.035255652,-0.13744467
-15.303526000000002,2.0936146,0.26602453,0.09105383,-0.10712831,-0.16353735
-15.088335999999998,4.470348400000001,1.9750439999999998,0.08625417,-0.17578956,-0.21676989
-9.895897,2.3569862999999995,0.9871389000000002,0.07028441,-0.2226342,-0.24549802
-9.154555,0.5671193,1.3933678999999999,0.085730575,-0.20505874,-0.2364572
-10.120702,0.28453649999999997,1.4540945,0.08731882,-0.284925,-0.22635175
-10.340606,-0.49179775,0.5211986,0.09264208,-0.31632346,-0.20397663
-10.272744,-0.5119282,-0.52515376,0.067631505,-0.33068752,-0.17416641
-10.190987,0.2176042,-0.40623856,0.023980823999999998,-0.28490755,-0.15660839
-9.434361,1.1977617,0.08055052,0.05804965,-0.18537141,-0.19333012
-9.132098,1.4807466999999999,0.116798736,0.12938125,-0.13692108,-0.24390976
-8.492683,1.1708604,-0.44771573,0.16290903,-0.09274679400000001,-0.30885348
-7.811495,0.80075514,-0.44993752,0.17303194,0.0919614,-0.3477045
-7.3016252999999995,0.82953346,-0.26409003,-0.009005899,0.31873202,-0.35250413
-7.195313499999999,1.2381661,-0.18756177,-0.23312363,0.43743187,-0.3599567
-7.421642299999999,1.8283752,-0.51529926,-0.3161664,0.1702045,-0.3019245
-7.543057000000001,2.0587358,-0.73897517,-0.13091715,0.26443484,-0.23006929999999998
-7.661953,1.9596158,-1.1475600000000001,-0.14582226,0.41880920000000005,-0.25029767
-7.4644985,1.6393291,-1.4970368,-0.104824476,0.7296873,-0.31257102
-7.5340357000000004,0.9886041999999999,-1.571439,-0.1974491,0.62109286,-0.3301465
-7.555957,0.7117579,-1.5151561000000002,-0.04733333,0.41455059999999994,-0.2625324
-7.6797085,1.0529603,-0.7694773,0.14268066,-0.02300344,-0.14383258
-7.7756967999999995,1.3095133999999997,-0.8458235000000001,0.19591321,-0.061871924,-0.009686577
-8.1989155,0.9708488000000001,-3.0079314999999998,0.21188296,0.10419615,-0.0421497
-10.1047945,1.9217682,-3.0527124,0.11819369,-0.015550883500000001,0.0009424778
-11.930154,2.7153982999999995,-2.350675,0.016528267,0.011047933999999999,0.11698942
-11.434813,0.91662496,-2.8012064,0.015463616999999999,0.06960373,0.1579872
-10.816544,0.14408305,-4.1796727,0.08518952,0.09515535,0.17182766
-10.981619,0.013637373000000001,-3.800958,0.121387646,0.08077384,0.18673277
-12.210706,0.39628828,-1.5770031,0.14535102,-0.043772858,0.18992673
-14.496986999999999,0.09707051,0.46461877,0.16184439,-0.17791887,0.20374973
-13.934138,-1.0136858,1.1920635,0.2353053,-0.2944894,0.23090705
-11.599983,-1.1790295,2.4080209999999997,0.31569517,-0.26522022,0.22771311
-11.786233,1.1927530000000002,1.8297447,0.508397,-0.33068752,0.20961404
-13.060534,1.0108128,0.53573614,0.5802522,-0.3498687,0.22771311
-12.695341,-0.49915275,-0.16197254,0.55682987,-0.33442253,0.21760765
-11.614407,-0.5784104,-0.43145427,0.44984117,-0.25244442,0.22984241
-10.100381,-0.6401521,-0.9095189,0.30344296,-0.10126399999999999,0.24155357
-9.296311,-0.6171965,-0.7076303,0.12564625,-0.04803146,0.28680995
-8.538144,-0.20108421,-0.63033587,-0.019652408,0.049375363,0.32194343
-7.809474000000001,-0.45606667,-0.5137574,0.009599311,0.24207717,0.38102284
-7.290190700000001,-0.7511473000000001,-0.03702393,0.15386823,0.34000759999999997,0.42360887
-6.953882000000001,-0.7872996999999999,0.051800948,0.29066715,0.1547758,0.43107888
-7.328316,-1.5803263,0.22881866,0.17142624,-0.18802431,0.36240017
-7.470101,-1.6909096999999997,-0.7143149000000001,0.22465879,-0.07784168400000001,0.34801865
-7.587867,-1.2106808,-1.0489190000000002,0.33698818,0.48321185,0.36824703
-7.6380115,-0.49487190000000003,-1.5865704,0.24116959999999998,0.36451203,0.32140237
-7.461846,0.40097132,-2.1131127,-0.027646014,-0.1624727,0.28733355
-7.1819057,0.68929064,-2.4433307999999996,-0.58552307,-0.24178046,0.20163789999999998
-7.1884947,0.29140308,-2.1289434,-0.7686430000000001,-0.48186794,0.11859512
-7.713457000000001,0.008523358,-1.7778192,-0.7377680999999999,-0.09222319999999999,0.028082347999999997
-8.932767,-0.20434034,-1.536206,-0.5466546,0.5002462999999999,0.057910025
-10.395873,-1.3065445,-1.3320668,-0.46361179999999996,0.17659241,0.04246386
-11.814045,-1.7414752,-0.79354376,-0.3614053,0.035534903,-0.07621853
-11.353964999999999,0.68862987,-1.6513671000000003,-0.2964616,0.16488126,-0.13105677
-12.256828,0.92570376,-3.6970400000000003,-0.16711527,0.12655382,-0.1651256
-12.657015,0.34330934,-4.759672599999999,-0.09204867,-0.0006457718,-0.17044885
-11.547379,-0.91710377,-4.3344054000000005,-0.02019346,-0.10126399999999999,-0.16831955
-13.976612,1.605724,-1.174356,0.017592918,-0.17791887,-0.18428932
-14.068960999999998,5.463568,2.1643488,0.012793263000000001,-0.33389893,-0.2231578
-10.2843895,4.131673999999999,2.7367642000000005,0.008011062,-0.32056463,-0.24336872
-10.670296,0.71465003,1.7266026,0.0016231562,-0.31684709999999994,-0.21249384
-10.743155999999999,-0.057949256,0.5397201,0.025045475,-0.29503044,-0.19545943
-10.396332000000001,-0.63162875,0.1594634,0.017592918,-0.32004103,-0.18587756
-10.822884,-0.10112151,-0.19009005,0.015987216000000002,-0.36421529999999996,-0.17948966
-10.655489999999999,0.82391185,-0.68863946,0.04314454,-0.29129544,-0.18374826
-9.872164999999999,1.5632700000000002,-0.5961754,0.089448124,-0.114039816,-0.20717058
-9.330597000000001,1.4154328,-0.399372,0.14800392,0.055745817999999996,-0.25881487
-8.396753,0.86274576,-0.5018534,0.19910716,0.037123155,-0.31152382
-7.352775599999999,0.7268222,-0.48132074,0.28214994,0.050440013,-0.33972833
-6.8340955,0.58559304,-0.38493016,0.12777555,0.16915731,-0.33653438
-6.7344394,1.239373,-0.3414419,-0.12559389,0.20322613,-0.33812264
-6.9364333,1.6571418999999998,-0.56390154,-0.30232593,0.12922418,-0.2907544
-7.1590943,1.8796686000000002,-0.8240841999999998,-0.28262118,0.23301889999999997,-0.24975662
-7.482158,1.664449,-0.9606015999999999,-0.39440949999999997,0.3671649,-0.31204742
-7.3786902,1.2913367,-0.9996845999999999,-0.18467329999999998,0.7312755,-0.2976659
-7.1301436,0.8052083000000001,-1.4456764,-0.28422686,0.49652870000000005,-0.25349160000000004
-7.286533,0.8012627,-2.4614403,-0.274645,0.30754447,-0.21355848
-7.941557400000001,1.3409636,-1.4428608,0.09477138,0.023823743999999997,-0.055466562999999997
-8.34365,1.6282678,-0.9390825,0.099571034,-0.027262043,0.08239699
-9.203896,1.7671028000000002,-1.9749196,0.23371704,-0.018744836,0.044069562
-10.925661999999999,2.3482428,-2.6367917000000003,0.24808110000000003,0.015306537,0.056845374000000004
-12.261817,2.7935642999999994,-2.8186266,0.17568484,0.04244641,0.13615313
-11.700683999999999,1.8911512,-4.2986073,0.16238543,0.082920596,0.19205603
-10.745128999999999,1.5003697,-4.571862,0.06976081,0.12709488,0.18938568
-11.809352,1.3606153,-1.3932242,0.004276057,0.048310712,0.17235126
-11.340912,0.7117387,-2.1001937,0.020245818,-0.031520646,0.15053464
-13.113522,-0.5749531999999999,-0.29779079999999997,0.08253662,-0.10231119999999999,0.12765338
-13.486892999999998,-1.9382308999999998,1.5914162,0.17781414,-0.12362167,0.11379547
-12.11716,-2.5786127999999997,3.4659996,0.27417377,-0.075694926,0.07440338
-12.109297999999999,1.1879168,2.7271009999999998,0.34018213,-0.19654153,0.08611455
-12.353572999999999,1.5912438999999998,0.95608133,0.39128536,-0.21092305,0.10527826
-12.360344,-0.26506686,0.07199843,0.41416663,-0.21944025,0.12763593
-11.334908,-0.8866974,-0.8230499,0.39767328,-0.23006929999999998,0.12763593
-9.640703,-0.8833837999999999,-1.4772416000000002,0.36093408,-0.14224434,0.14734070000000002
-8.940332000000001,-0.6954581,-0.8314775,0.28853783,-0.008639379,0.19151498
-8.503697,-0.41855437,-0.45419922,0.20603612,0.13987069,0.26125833
-7.927815,-0.50907433,-0.3686879,0.120322995,0.35918877,0.30065042
-7.6742115,-0.8028907,-0.4241089,0.04579744,0.43956116,0.30916762
-7.8133526,-1.2114948,-0.6347699,0.08040732,0.38261107,0.32087877
-8.007838000000001,-1.325861,-0.9674586,0.34018213,0.01584759,0.35814157
-7.872814999999999,-0.9355104,-0.8810950000000001,0.5403365,-0.08688249,0.4135034000000001
-8.096950999999999,-0.63090086,-0.6402287,0.73036796,0.39858085,0.39805725
-7.738596,-0.5247133,-0.78481936,0.4642052,0.62482786,0.3464304
-7.414009,-0.66977316,-1.124164,-0.023387412000000003,0.1654223,0.27349308
-6.814118400000001,-0.33829114,-1.4804785,-0.39760345,-0.020333085,0.15746361
-6.3673415,0.061856594,-1.9123256000000002,-0.5785941,-0.21942279,0.097825706
-6.239395,-0.079774804,-2.3487885,-0.45670029999999995,-0.3099181,0.060039327
-6.849858800000001,-0.116415665,-2.7008605,-0.4593532,0.19949113,0.04087561
-8.796584,-0.9347441999999999,-2.1644634999999997,-0.31881928,0.2889218,0.11540117
-11.7094755,-1.3772215,0.8230690999999999,-0.26080456,0.04033456,0.035011306
-12.562961,-0.21260512,-0.054061074,-0.29113838,0.06747443,-0.074612826
-11.365266,0.79366827,-3.996507,-0.35875243,0.12124802,-0.13370967
-13.066958999999999,0.9931244,-6.1584900000000005,-0.41198498,-0.054942965999999996,-0.12786283
-12.274248,0.65260196,-6.677782499999999,-0.46467647,-0.08740609,-0.10815805
-12.607703,-0.68603456,-3.6239116,-0.4487067,-0.09859365,-0.10283479999999999
-14.987434,2.4788895,1.4729128,-0.41411427,-0.18430677,-0.10976376
-12.25022,3.7326273999999997,2.1622803,-0.3832394,-0.20825268,-0.14755014
-11.268032,1.8849741000000002,2.4488564,-0.35075882,-0.15873769,-0.18694222
-11.94495,0.09796116,1.7354515,-0.30604348,-0.14756759,-0.21249384
-11.598883,-0.35525164,0.84241426,-0.26719245,-0.11030481,-0.22314034
-11.419441,0.534788,0.046667777,-0.23897047,-0.15980235,-0.20929988
-11.370609,1.1590523000000001,-0.9157629999999999,-0.19851375,-0.11829842,-0.19971803
-10.009812,1.4238126,-1.2485473999999999,-0.14528121,-0.0389732,-0.1677785
-9.028871,1.5216205,-0.7537520999999999,-0.1868026,-0.08527679,-0.16032594
-8.555919,1.0954527,-0.18735108,-0.2725157,-0.18535396,-0.20504127
-7.8700285,0.590391,-0.22154985,-0.3598171,-0.18748327,-0.269985
-6.995742999999999,0.47408065,-0.5380441999999999,-0.36514032,0.026494099,-0.3067067
-6.683155,0.7034931,-0.83810467,-0.42795473,0.16009904,-0.29180159999999994
-6.7830699999999995,0.9675735000000001,-1.0951749,-0.40879099999999996,0.1590344,-0.28169614
-7.1457057,1.2705071000000001,-1.3108063,-0.25228733,-0.024068091,-0.21303488
-7.604195,1.3239648000000002,-1.024364,-0.1319818,0.070668384,-0.18748327
-7.850156299999999,1.1702092,-1.3091973999999997,-0.25387558,0.24687682,-0.24762732
-7.9380429999999995,1.1602397,-2.03895,-0.19160224,0.81327105,-0.33279938
-7.776644999999999,1.2457415,-2.648514,-0.3614053,0.49600512,-0.40252528
-7.680513,1.5420479,-2.5339177000000004,-0.17030923,0.26391125,-0.33599332
-7.576327,1.5685277,-2.1102302,0.15439183,0.035011306,-0.18587756
-7.6768546,1.5228271,-1.4556746,0.13683382,-0.07410668,-0.10550515
-8.36557,1.4528590000000001,-2.4137287,0.014922565,-0.009686577,-0.11826351
-10.167542999999998,1.489883,-1.7879131999999998,-0.17456783,-0.11615166,-0.060789815999999997
-11.568294,0.64801466,-1.3632776000000002,-0.22673573,-0.09114109,0.05630432
-10.94426,-0.088777,-3.161122,-0.16924457,-0.019809486,0.13295919
-10.169898,0.34221762,-4.4121690000000005,-0.044139378,0.060562924000000004,0.15744615
-10.803011999999999,1.1087069999999999,-3.1469579,0.027174776,0.008395034000000001,0.15214035
-11.271336999999999,1.5952853,-2.9391127,0.07134906,-0.13746212,0.1452114
-14.115017000000002,1.1072704,0.19296308,0.1267109,-0.27371999999999996,0.13723524
-13.537056,-0.87896895,0.7743135,0.2518161,-0.27319640000000006,0.09943141
-12.436001,-1.7854232,1.7677636000000003,0.37264526,-0.25829127,0.09145525
-12.423474,1.3028097,0.68013525,0.47752208,-0.30353022,0.12339478
-12.982387,1.184268,-0.2691274,0.5515066,-0.28703684,0.1585108
-12.978114999999999,0.0361716,-0.47053728,0.49827406,-0.3338815,0.19364429
-12.153189,-0.071375936,-0.8116248,0.42694244,-0.20771164,0.20537289999999997
-10.544716000000001,-0.33763990000000005,-1.3240318000000002,0.36360446,-0.07304203,0.23251276
-9.555585,-0.7774069,-0.7209515999999999,0.30557224,-0.054419365,0.2905275
-8.787994,-0.8023161999999999,-0.27881914,0.30398400000000003,0.09302605,0.350689
-7.7974935,-0.6407554,-0.12044749999999999,0.36573374,0.31979668,0.38955748
-6.939057400000001,-0.6076866999999999,0.28014076,0.5099852,0.44596654,0.4108505
-6.6066556,-0.8978735000000001,-0.07211336,0.505203,0.040858157,0.36985272
-6.468098599999999,-0.9693548000000001,-0.32666490000000004,0.23797564,-0.26893779999999995,0.29054496
-6.535586400000001,-0.93122953,-0.7155599,0.31834805,0.115383714,0.34058356
-6.825955,-1.0960847,-1.0854353,0.5504419,0.56414276,0.37678167
-7.1199155,-0.8141339,-1.3971316,0.35082862,0.61044633,0.32033774
-7.208050699999999,-0.21548773,-1.8586186999999998,0.09264208,-0.2604206,0.2575408
-7.253090400000001,0.14556746,-1.7001417,-0.1325054,-0.2817136,0.16863371
-7.5925884,0.096313946,-1.3716382,-0.29433233,-0.48239154,0.17076302
-8.302766,0.25221479999999996,-1.8758379,-0.36620498,-0.42650609999999994,0.120724425
-9.413713000000001,-0.11933658,-2.4284866000000003,-0.28635618,0.35705945,0.088784896
-11.104394000000001,-1.4888487,-2.4020164,-0.22725932,0.3320489,0.07442084
-12.611074,-0.6327013000000001,-1.5974688999999997,-0.30178487,0.0025307273,-0.06291912
-11.354683999999999,1.1844786,-3.0543597,-0.29274407,0.13135348,-0.11667526
-10.950695,0.49202758,-4.675195700000001,-0.18147933,0.17446311,-0.12412781
-12.704227000000001,-0.30143000000000003,-5.4563856,-0.06277949,-0.07410668,-0.15020303
-12.118654,-0.21249019,-4.561194,0.0053407075,-0.15873769,-0.18907152
-12.88139,0.99513555,-0.1789139,0.03143338,-0.22794,-0.20610593
-12.895275,4.620426,2.5974502999999998,-0.028169613,-0.24179791,-0.23326325
-11.924925,5.220155,3.3288693,-0.1282468,-0.19441223,-0.26785567
-11.789346,2.1476564,2.7750041000000003,-0.182544,-0.17578956,-0.27743754
-11.602503,-0.42597637,0.080722906,-0.28316220000000003,-0.28012535,-0.2609442
-10.656496,-0.44831905,-0.68711674,-0.31349605,-0.28117254,-0.2311165
-10.399733,-0.13623007,-0.46512634,-0.28316220000000003,-0.20666444,-0.18641862
-9.918372999999999,0.7491936,-0.5571786999999999,-0.24322908,-0.09911725,-0.15659094
-9.169706,0.98614293,-0.40380606,-0.19266689,-0.056531213,-0.16617279999999998
-8.615946000000001,0.79783416,-0.110133275,-0.113882735,-0.060789815999999997,-0.22739895
-8.02091,1.07379,-0.39054218,-0.044139378,-0.08527679,-0.29660127
-7.164217999999999,1.2589958,-0.9253780999999999,-0.06756169,0.020647245,-0.32534683
-6.797789999999999,1.7230016,-1.2013049999999998,-0.22992967,0.092484996,-0.31524137
-6.954389599999999,2.0586495,-1.5175598999999997,-0.16870353,0.20481439,-0.25933847
-7.023016999999999,2.1511614,-1.6821948,0.03143338,0.100478604,-0.16458455
-7.293495,1.8752633,-1.0726597,0.14693926,0.15371114,-0.19013616
-7.583767999999999,1.4759773999999999,-0.88725287,-0.0031590459999999996,0.5327268000000001,-0.25134486
-7.924136999999999,1.166503,-1.1432216999999998,-0.13730505,0.85905105,-0.32269390000000003
-7.919732000000001,1.1501649999999999,-1.4226633,-0.24429373,0.4800179,-0.3604803
-7.8148465,0.6497959,-1.6324242,0.15652113,0.1675516,-0.22046999999999997
-7.78377,0.11056423,-1.683459,0.32421237,-0.15662585,-0.11508701
-8.225806,0.19449538,-1.7275124,0.4551644,-0.021397736,-0.013927726999999999
-9.044288,1.0920242,-2.3010004,0.39180896,0.014241886,-0.009145525
-10.905378,2.6500556,-1.6974220000000002,0.20655972,-0.09220574,0.062168628
-12.240108,2.7049022000000003,-1.4428416000000002,0.16716763,0.04511676,0.1436057
-10.792621,0.37432864,-3.5686822,0.19804251,0.09941395,0.16809265
-10.11488,-0.20416793,-4.865027400000001,0.26565656,0.10580186,0.17182766
-10.121527,0.37901172,-4.7361045,0.25340435,0.0035953782000000003,0.17767452
-12.1418495,1.3096763,-1.299477,0.2805617,-0.121474914,0.18992673
-14.0525465,0.37298790000000004,2.092015,0.33112386,-0.13585643,0.17980382
-12.771419,-1.7697078000000002,2.1222682,0.41364303,-0.25083873,0.1515993
-13.014669999999999,-0.87232256,3.4923644,0.52117276,-0.32482323,0.120724425
-12.6149235,1.6318113,0.31027895,0.6063448,-0.30141836,0.13402383
-12.561974000000001,0.48763183,-0.7793797,0.6010215999999999,-0.24392721,0.12657128
-12.720355,-0.22042936,-0.46136266,0.5115909000000001,-0.18802431,0.14627604
-11.605079,-0.09586384,-1.1840956,0.4450415,-0.10498156,0.19151498
-10.282358,-0.40416998,-1.2731981,0.29014352,-0.07995354,0.24209462
-9.473425,-0.06931692,-0.6877871,0.11021754,-0.10232865,0.26178193
-8.674806,-0.13237062,-0.30178434,0.052185345,0.10686651,0.2942625
-7.741823700000001,-0.15341087,-0.39077204,0.20071286,0.45500734,0.34217179999999997
-7.207178999999999,-0.732348,-0.03037763,0.29599038,0.49120545,0.32726669999999997
-6.909436,-1.3594372,-0.08040687,-0.03562217,-0.19493583,0.23464206
-6.7229276,-1.5282285,-0.522501,-0.19106120000000001,-0.2753257,0.25432938
-6.710439999999999,-1.0886436000000002,-0.9180613999999999,0.16770868,0.62428683,0.3528183
-6.9269232999999995,-0.31070036,-1.3047346000000002,0.3380528,1.0725049,0.37252307
-7.03268,0.0867946,-1.8333839,0.14215706,0.124441974,0.29213320000000004
-6.9447556,0.16313133,-2.4600997000000002,-0.46947609999999995,-0.52551866,0.13082989
-7.0479937,0.1310203,-1.8977592,-0.831981,-1.0221695,0.06749188
-7.323011,0.49591577,-1.0757818000000001,-0.7201927,-0.8007221,-0.0022165682
-7.691841999999999,0.8737687,-2.1843164,-0.4205022,0.39325759999999993,-0.0032986724
-9.324783,-0.3276034,-3.4404871,-0.20490165,0.36131805,0.057910025
-12.403832000000001,-2.170143,-2.1440268,-0.15859807,-0.008098328,-0.021397736
-12.237082000000001,0.29107746,-0.6622075,-0.22141246,0.11964232,-0.08047713
-11.457633999999999,1.4235923000000001,-3.0500597999999997,-0.13943435,0.23408356,-0.11986921
-12.725527,1.7778479999999999,-5.1491523,-0.011135201,0.0020071286999999998,-0.13370967
-12.391555,0.08019618,-6.724384,0.10808824,-0.08529424,-0.14755014
-14.115283999999999,-0.76877815,-3.3885424,0.15332717,-0.06825983,-0.17203711
-14.847354999999999,3.2104232,2.2498984,0.15226252,-0.12362167,-0.20610593
-12.076066,5.306068,5.6643267,0.11979939999999999,-0.17205456,-0.23858652
-10.060302,1.4616601,3.2742624,0.08040732,-0.14543828,-0.2364572
-10.314691,-0.6778751000000001,0.97677684,0.002687807,-0.20772909,-0.21036454
-10.158586999999999,-0.9426450999999999,-0.3434147,-0.044680428,-0.22422245,-0.19067723
-10.267658,-0.71738905,-0.50810707,-0.112818085,-0.20931734,-0.18694222
-10.298706,0.3457323,-0.5544588,-0.118664935,-0.11189306,-0.19333012
-10.029139,1.2663316,-0.10145669,-0.09737192,-0.044820055,-0.21142918
-9.427303,1.2527901000000001,0.25798002,-0.044139378,0.029147000000000003,-0.25507987
-8.688366,1.0753222,-0.24095245,0.026633725,0.041922808,-0.2848901
-7.945532000000001,0.8694304,-0.3373047,-0.09204867,0.11857767,-0.31363568
-7.296885499999999,1.0291811,-0.43251732,-0.36246997,0.24101251,-0.36473890000000003
-6.98538,1.3964611,-0.7931703,-0.46467647,0.10899581,-0.31576496
-6.980228,2.0371017,-0.95133126,-0.29113838,0.21120229999999998,-0.19013616
-7.0767145000000005,2.0292199,-1.1243172,-0.19053759,0.22982496,-0.16458455
-7.0818566999999994,1.9124404,-1.3828526,-0.3523645,0.6019291,-0.22581069
-7.0748467,1.3326221999999999,-1.5822513,-0.34171802,0.68551296,-0.31576496
-6.8560452000000005,0.89969313,-1.9070008999999999,-0.38802159999999997,0.5252743000000001,-0.3061831
-6.9358587,0.67843056,-1.4143219999999999,-0.21928316,0.07972664,-0.20877628
-7.437894,1.0482198,-0.83059645,0.07773697,-0.18057176,-0.059184115
-7.768983400000001,1.1906364999999999,-2.6024876,0.25501007,0.15318754,0.02490585
-9.491641,1.630231,-3.0188203,0.16823229,0.037664205,0.0062657319999999996
-11.836396,2.2417773999999997,-2.420337,0.0032114058000000003,-0.10711086,0.058974676
-12.751968,1.0183306,-2.1067824,-0.0718203,-0.0070336769999999995,0.12924163
-11.537457,-0.10145669,-4.4030137,-0.08513716,0.06960373,0.14786429999999998
-11.014132,0.06675992,-5.369447,-0.0760789,0.06960373,0.15266395
-10.955445,0.91148216,-4.098098,-0.06010914,-0.02300344,0.16170475
-13.141275,0.7897131,0.12609781,-0.036163222,-0.14011504,0.19099139
-14.136219,-0.7724652,1.7095557000000001,0.03249803,-0.24551547,0.19364429
-12.004259,-1.7145452,2.5130882000000003,0.1831374,-0.30726522,0.18673277
-11.5603075,-0.6623798000000001,2.4629726,0.38435640000000004,-0.36369172,0.16702801
-12.415678999999999,1.4958205,0.0015993267000000001,0.568541,-0.41852996,0.18619172
-12.921019,0.5397967,-0.38420233,0.6308318,-0.3535688,0.16969836
-12.807513,-0.42761400000000005,-0.7825592,0.56269413,-0.29714229999999997,0.18833847
-11.581586999999999,-0.69342786,-1.7102165,0.47059312,-0.18217747,0.22984241
-10.104135000000001,-0.6492979,-1.5803455,0.3188891,-0.14597934,0.27616346
-9.2154455,-0.45124,-0.97935295,0.11606439,-0.14278539,0.31288517
-8.345747,-0.2562179,-0.99078774,0.13096951,0.17446311,0.350689
-7.3743234,-0.29677567,-0.46349830000000003,0.31995377,0.53646183,0.39753366
-6.685579,-0.74273884,0.026862944,0.3800978,0.37622318,0.39379865
-6.815938,-1.5315708000000001,0.120179355,0.11287044,-0.11562806,0.30756193
-6.911447,-2.0254562,-0.5699062,0.13151056,-0.26628488,0.30171508
-6.976005000000001,-1.7425479,-1.0234159,0.44291220000000003,0.32138494,0.346954
-7.411759,-0.960841,-1.4126365,0.33325318,0.5731835999999999,0.32407275
-7.6959505,-0.16184804,-1.9695948,0.26724482,0.061086524,0.3155555
-7.504989,0.17400101,-2.4800386000000003,0.04579744,-0.011292281000000001,0.283616
-7.1120149999999995,0.31867779999999996,-1.7100825000000002,-0.26558676,-0.38392007,0.16650441
-7.2234406,0.49160624,-0.77589375,-0.30445522,-0.61814326,0.08452629
-7.860863,0.44174936,-2.1398609,-0.26345745,0.32192597,0.025970499999999997
-9.664943,-0.7587704000000001,-3.0668957000000003,-0.22087142,0.29424506,0.059498273
-11.895227,-2.0772285,-1.3301705,-0.29433233,-0.006510078000000001,-0.0373675
-11.189263,0.121941485,-1.3437888999999998,-0.28742080000000003,0.15423475,-0.13158037
-10.490808,-0.02557965,-4.109312,-0.2618692,0.1680752,-0.15926129
-12.433013,-0.17960344,-4.0075107,-0.1995784,0.014241886,-0.17577212
-12.250642,0.47724104,-2.7915914,-0.11068878,-0.057613317000000004,-0.18748327
-13.3154,1.354582,-2.0305896,-0.027646014,-0.21464059,-0.20504127
-14.060093,4.177901,0.7239396,0.0021467548999999997,-0.42224750000000005,-0.25242698
-11.276211,4.461796,1.9308566999999999,0.014398966000000001,-0.42385322,-0.269985
-10.631663,1.4194934,2.1342585,0.0016231562,-0.40573668,-0.26520279999999996
-11.729999000000001,-0.11820653,0.52827585,-0.04201007599999999,-0.41852996,-0.23698081
-11.176909,0.5540374,-0.5138723,-0.07927285,-0.3514395,-0.21727604
-11.115656,0.7567401,-0.25911966,-0.07714355,-0.29290116,-0.18961257
-10.751939,1.0435559,-0.7911974,-0.041486476,-0.19280653,-0.1693842
-9.685456,1.3750666,-0.55275416,0.0575086,-0.11988667,-0.18854792
-9.088389,1.1889988999999999,-0.4180755,0.15280357,-0.08210029,-0.24762732
-8.539045,0.6213814999999999,-0.7328939,0.23052308,-0.005969026,-0.30246556
-7.454146000000001,0.7910251,-0.7081187,0.15173893,0.095696405,-0.34451053
-6.9150386,0.9234148000000001,-0.29771420000000004,-0.15592772,0.31714377,-0.39880773
-6.988061999999999,1.4744643,-0.25784594,-0.37631044,0.2942276,-0.41744784
-7.110137,1.9151218999999997,-0.6698689,-0.38962729999999995,0.13561209,-0.33334044
-7.2829223,2.0368814,-0.7711435999999999,-0.3315951,0.35438909999999996,-0.31363568
-7.422724700000001,1.7355471999999998,-1.0702752,-0.33745942,0.86009824,-0.34876913
-7.400985,1.0279937,-1.3977828,-0.22141246,1.013408,-0.362086
-7.1244645,0.6165451999999999,-1.5501881000000002,-0.16605063,0.60032344,-0.32375857
-6.958527,0.6865038,-1.6856712,0.067631505,0.16968091,-0.18961257
-7.172808,1.0261644,-1.2477909,0.1831374,-0.16619025,-0.05386086
-7.3782783,1.2565249,-2.564918,0.29705504,0.110601515,-0.038955748
-8.344166,1.4832653999999998,-3.412494,0.07986627,-0.023544492,-0.07675958
-10.815710000000001,2.6152153,-2.2217617,-0.09258971,-0.07888888,0.021170842999999998
-12.310918,2.692998,-1.898123,-0.13304645,0.0019896755,0.11698942
-11.075338,1.0056509,-3.4671773999999997,-0.09152506,0.004660029,0.15105824
-10.773859,0.1746618,-4.0375724,-0.015934857,0.04618141,0.15957545
-11.751757000000001,0.8204642,-2.5158176,0.01972222,-0.11828096,0.16704546
-14.16901,-0.4201058,-1.4638532,0.08199557,-0.1603434,0.16543975
-15.165304999999998,-1.2440368,0.98684204,0.18633135,-0.21409954,0.17715092
-12.688809,-1.7703972,2.4260254,0.31782445,-0.2801079,0.18779743
-12.114546,1.0370245,2.3972759999999997,0.46952847,-0.35623914,0.19470893
-12.982463000000001,1.4592372,-0.43481576,0.5908986999999999,-0.33334044,0.17980382
-13.083824,-0.22121467,-0.63547856,0.572276,-0.3599567,0.19366173
-12.605635000000001,-0.74144596,-0.78836274,0.48497462,-0.2401922,0.2122844
-10.858624,-1.0599706,-1.3557311,0.34922293,-0.13159783,0.25806439999999997
-9.580703999999999,-0.94273126,-0.8814589,0.21774727,-0.059725165,0.27138126
-8.833292,-0.5875563,-0.5578489999999999,0.121387646,-0.006510078000000001,0.301174
-7.9688897,-0.42395565,-0.21155167,0.18367845,0.24047147,0.34110716
-7.2420387,-0.45336604,-0.1189631,0.34922293,0.40390408,0.39060467
-6.6959023,-0.793381,-0.09050082400000001,0.35241687,0.19629718,0.37889352
-6.529247,-1.5354495000000001,0.011032481,0.09424778,-0.29820696,0.33258995
-6.960211999999999,-2.0053833,-0.46284708,0.24649285,-0.011815879,0.35761797
-6.8809743,-1.4421713,-0.82039714,0.44930010000000004,0.6136403,0.378911
-7.249978,-0.53145534,-1.2267313999999998,0.2539454,0.60992277,0.34271285
-7.293677000000001,0.066961035,-1.9382595,0.07773697,-0.13852678,0.29585075
-7.137009599999999,0.21601444,-2.3018718,-0.29806733,-0.019809486,0.19524999
-7.1538463000000005,-0.031354465,-2.093921,-0.43008402,-0.3743382,0.13137093
-7.603534700000001,-0.12878889,-1.9478746999999998,-0.42901940000000005,-0.32590532,0.06429793
-8.581029,-0.22955605,-2.2422752,-0.22354177,0.32457888,0.031293754
-10.194108,-1.6208552999999999,-2.3444502000000003,-0.21076596,0.1436057,-0.0027576203000000002
-12.332476,-1.371485,-0.57249194,-0.33691835,-0.019268433999999997,-0.10389945
-11.274526,0.5962137,-1.6606853,-0.46308820000000006,0.1499936,-0.16458455
-11.185654,0.6324811,-4.495382,-0.5051332000000001,0.14467034,-0.17629571
-12.881179,0.29014853,-5.0638323,-0.43167228,0.052045718,-0.14755014
-11.531032000000002,-0.5913295,-3.9076245000000003,-0.29326767,0.11431906,-0.13370967
-12.947536,0.9272743,-1.1689258999999999,-0.24216443,-0.116692714,-0.18268362
-12.897651,3.9596074,1.7428255000000001,-0.24909338,-0.18163641,-0.23965116
-11.75215,4.471478,3.010134,-0.29752627,-0.15873769,-0.26359707
-11.343076,1.2208417999999999,1.6736237,-0.34171802,-0.20186478,-0.25560346
-11.336238,-0.20262608,-0.14036727,-0.33213615,-0.25881487,-0.25668558
-10.842324000000001,-0.059720967,-0.3276513,-0.30072020000000005,-0.26200882,-0.2577502
-10.86778,0.44620258,-0.5485116,-0.26132816,-0.19015363,-0.24389231
-10.283125,1.4743973,-0.84727925,-0.18360864,-0.08953539,-0.22420500000000002
-9.730074,1.8420221999999997,-0.1757344,-0.05745624,-0.024068091,-0.24123941
-9.427888000000001,0.9765565999999999,-0.13859555,0.07934267,0.077597335,-0.26839674
-8.594533,0.8327321,-0.28415343,0.13309881,0.09515535,-0.28808406
-7.4966669999999995,0.35243607,-0.44948742,0.017051866000000002,0.10899581,-0.31576496
-6.927028699999999,0.38383842,-0.5414821999999999,-0.2474877,0.23568927,-0.3588746
-6.943214,1.1738771000000001,-0.56469643,-0.38430405,0.08611455,-0.32269390000000003
-7.1688336999999995,1.7812573,-0.66033036,-0.18467329999999998,0.048310712,-0.22046999999999997
-7.3395399999999995,1.8558318999999999,-0.8006977,-0.1261175,0.11590732,-0.22581069
-7.3726473,1.7258938999999998,-1.284585,-0.24483478,0.5833065,-0.263056
-7.3149853,0.88900536,-1.8194784,-0.20118411,0.7099999,-0.31415927
-6.7784925000000005,0.17909586,-1.7765360000000001,-0.13943435,0.47949430000000004,-0.27370253
-6.9712353,-0.13778153,-1.6164596000000002,0.01972222,0.07440338,-0.16831955
-7.602251,0.25679252,-1.3776715,0.17729054,-0.0032986724,-0.03415609
-7.6988716,0.6798958,-3.087141,0.325277,0.23303635,0.008936086
-8.985536,1.5505903,-3.8710410000000004,0.08518952,-0.08101819,-0.049061205
-11.750904,2.6401818,-2.5799534,-0.06277949,-0.16353735,0.012653636999999999
-12.584988000000001,1.9652853,-1.9768636000000002,-0.15166911,-0.02565634,0.07442084
-11.221614,-0.13492763,-3.8693748,-0.13304645,0.07600909,0.0882613
-10.596028,-0.024066515,-4.7461314,-0.09791297,0.07014478,0.10262536
-11.016603,1.3187166000000001,-2.837311,-0.07927285,-0.06611307,0.11540117
-13.37539,0.2894111,-0.80204797,-0.12346459,-0.17790142,0.13297664
-14.110104000000002,-1.268084,1.0718553,-0.09791297,-0.2881015,0.16811012
-12.300575,-1.9588305,3.0394006,1.7453292e-05,-0.35198054,0.2037672
-12.725804,0.17652929,1.5717552,0.15439183,-0.3338815,0.20270254
-13.549353,1.2622135,-0.7288716,0.43174209999999996,-0.30620056,0.15852825
-13.212604,-0.14256035,-0.9129953000000002,0.5371425,-0.32269390000000003,0.19685568
-12.270073,-0.05761407,-1.1895063999999997,0.55311227,-0.22581069,0.20109683
-10.761669,-0.24487895,-1.6699462,0.44132397,-0.09433505,0.23197171
-9.740389,-0.68422455,-1.3112371999999999,0.29227284,-0.05440191,0.25593507
-8.825008,-0.43742067,-1.1565431000000002,0.16610299,-0.0368439,0.29106855
-7.768255,-0.3885598,-1.1533923000000001,0.17781414,0.19736183,0.346954
-6.8701043,-0.46673527,-0.66282994,0.36093408,0.44223154,0.4065919
-6.298331,-0.8436113000000001,-0.11837891,0.43067744,0.15318754,0.3980747
-6.2518926,-1.1024821000000002,0.26533502,0.20603612,-0.29820696,0.33419564
-6.6782713000000005,-1.9178130000000002,0.3326025,0.26672122,-0.036320303,0.36452946
-6.759367500000001,-2.0457400000000003,-0.5822316,0.45568800000000004,0.50504595,0.37091738
-7.128093700000001,-1.3967962999999999,-1.1676713,0.29279643,0.5934119000000001,0.35388297
-7.205934,-0.6530233,-2.0333476000000004,0.13044591,-0.23858652,0.3155555
-7.271228999999999,0.09065405,-2.4877097999999997,-0.23897047,-0.28756043,0.26764625
-7.605353999999999,0.2153728,-2.3147523,-0.3481059,-0.7650650999999999,0.21814871
-8.2626295,0.24439053,-1.6486665,-0.42102578,-0.30620056,0.12817699
-8.921446000000001,0.1703714,-2.0524437,-0.31510174,0.41667992,0.11753047
-10.485157000000001,-0.7524784999999999,-2.6185384,-0.27358037,0.18247417,0.08559094
-12.195863000000001,-1.6520088,-2.0090034,-0.253352,-0.022462387,-0.05438446
-11.162516,0.19289604,-2.4875085,-0.21608922,0.12550662,-0.11721631
-11.22012,0.37145559999999994,-4.4500647,-0.10962413,0.023300145,-0.13955653
-12.787336,0.17935443,-4.827218,-0.0015533429999999998,-0.057072267,-0.14861478
-12.140902,-0.30867007,-3.0036025,0.005881759300000001,-0.11243411,-0.18641862
-13.829329999999999,2.1117241,-0.26552656,-0.0004886922000000001,-0.14383258,-0.21888174
-13.075415,4.6973085,2.3665917000000003,-0.055850536,-0.25987953,-0.25666812
-11.296322,4.0880995,2.9537744999999997,-0.11814134,-0.31204742,-0.28701940000000004
-11.313829,-0.16180016,1.2103933999999998,-0.203837,-0.390308,-0.26307347
-11.91394,-0.5848076999999999,0.13475525,-0.26878070000000004,-0.46057492,-0.23272221
-11.405861999999999,-0.13726437,-0.23004448,-0.24642304,-0.34559265,-0.23113395
-11.060752,0.27338909999999994,-0.6175987,-0.20757201,-0.24603906,-0.23165755
-10.416818,0.9613485999999999,-0.2500217,-0.15166911,-0.15767305,-0.21622884
-9.616924000000001,1.1174697,-0.041563342999999996,-0.023387412000000003,-0.054942965999999996,-0.23591615
-8.552203,1.1503948,-0.6098989,0.16451474,0.06908013,-0.2609442
-7.689255999999999,0.98251337,-0.51268476,0.3066369,0.19470893,-0.25614452
-6.978638,0.9951739,-0.5798373,0.14215706,0.24900612,-0.2364572
-6.7728806,1.0716159,-0.7005816999999999,-0.039880775,0.32192597,-0.23006929999999998
-6.8288283,1.5945861000000001,-0.76029307,-0.1282468,-0.016615533999999998,-0.21303488
-6.7979145,2.007088,-0.8798883,-0.083531454,0.06693338,-0.21197024
-6.938291,2.134996,-1.0302248999999999,-0.23418827,0.45978954,-0.25987953
-7.4933147,1.8228973000000002,-1.5523236999999999,-0.19373155,0.9697573,-0.29607764
-7.4351745,1.083769,-2.151966,-0.42741367,0.6354744000000001,-0.28862509999999997
-6.9442863,0.4678366,-2.2239454,-0.15966272,0.18671532,-0.16619025
-7.1144567,0.10853395,-1.0395911,0.30983084,-0.19654153,-0.0022340214000000002
-7.506588499999999,0.57048076,-1.0598173999999998,0.40884337,0.09567895,0.053651422000000004
-8.204747,0.85019064,-3.0236947999999995,0.1176701,0.0014660766,-0.09431759
-10.061211,1.7497688999999998,-3.3043622999999998,-0.09152506,0.03820526,-0.032567844
-12.049278999999999,2.9276395,-2.0000012,-0.249617,0.107390106,0.0871792
-11.383127,1.3848541,-3.059828,-0.37631044,0.08079129,0.12391838
-10.55118,0.6333813,-3.8165873999999995,-0.40505599999999997,0.1606401,0.12924163
-11.251714,0.79644555,-2.7427973999999997,-0.23951153,0.039252456,0.1563815
-13.183929999999998,-0.13522452,-1.1399944,-0.0760789,-0.11189306,0.17980382
-16.03846,-1.2658048000000002,1.4658068000000002,0.040474183999999996,-0.19971803,0.19844393
-14.940671,-2.6041830000000004,3.2690141,0.16716763,-0.20186478,0.16809265
-11.49168,0.17392439,1.7541453999999999,0.30504864,-0.27478462,0.14414674
-10.530159,3.4951227,-0.43728656,0.5009444000000001,-0.411601,0.1425585
-11.504992,1.7495676,-0.14283808,0.5605649,-0.31525883,0.11753047
-12.6535,-0.36883157,-0.7153491999999999,0.53979546,-0.27851963,0.12604767
-12.135548,-1.1185998,-1.8281741000000002,0.41790164,-0.19814722,0.17395696
-10.603757,-1.2362125,-1.0397444,0.27256808,-0.09327039,0.22238985
-9.918871000000001,-0.6492213000000001,0.18699673,0.09370673,0.01850049,0.24900612
-9.127148,-0.38094622,0.17936401,0.016528267,0.086638145,0.2750988
-8.136445,-0.2980877,0.04379474,0.15599753,0.21439624,0.33524284
-7.4054575,-0.7222253000000001,0.06838798,0.3667984,0.26549947,0.3762406
-6.8581332999999995,-1.4139676,0.14618038,0.23956390000000002,-0.012897983,0.29372147
-6.786709299999999,-2.3109603,-0.08724471,0.1267109,-0.29129544,0.28733355
-6.6849084,-1.9532856,-0.7784506999999999,0.37370990000000004,0.31393236,0.32459635
-6.935839,-0.9829252,-1.1335587999999999,0.2518161,0.6157696,0.301174
-6.751668,-0.15348749,-1.8404898999999997,0.1810081,0.1505172,0.27935740000000003
-6.4326067,0.20451272,-2.3851132,0.08731882,0.085573494,0.21015509999999998
-6.4721212,0.36721307,-2.2210245,-0.3938859,-0.40575415,0.14947
-7.169571400000001,-0.17769764,-1.5987617,-0.46202356,-0.89336425,0.05736897
-8.419096000000001,-0.44561842,-0.8851171999999998,-0.41676718,0.039252456,0.028099801
-9.588289,-0.64737296,-1.1034589,-0.3853687,0.29424506,0.043528512000000005
-11.312507,-1.1964687,-1.6580421000000003,-0.38802159999999997,-0.00012217305000000001,-0.05333726
-11.966163,0.32829294,-1.3460298000000002,-0.3922802,0.10471976,-0.14437364
-10.810941999999999,0.91966075,-3.5634725,-0.41783180000000003,0.20320868,-0.18907152
-12.31677,-0.031747114,-4.470473,-0.37631044,0.21706660000000003,-0.20610593
-12.142405,-0.13126929,-3.0144053,-0.33213615,0.07438593,-0.17896606
-11.891435000000001,-0.27734432,-1.6428245,-0.24589944,-0.030997047000000003,-0.18907152
-14.224239,3.383275,0.020312406,-0.21767746,-0.18589501,-0.23804545
-12.196063,5.610831299999999,2.6427294999999997,-0.25706956,-0.31525883,-0.2785022
-11.193036,2.9170377,3.0957792,-0.2794272,-0.28066638,-0.28117254
-12.290280000000001,-0.8317936,0.896868,-0.2474877,-0.24445081,-0.26359707
-11.706047,-0.15602534,0.2250837,-0.182544,-0.25829127,-0.24284512
-11.127225,0.54584926,-0.19289604,-0.094719015,-0.25455627,-0.23113395
-10.457107,1.0880593,-0.87094355,-0.032428216,-0.19069467,-0.19706513
-9.912397,1.5873654,-0.3763781,0.033562682999999996,-0.19334757,-0.19545943
-9.1556,1.6997970000000002,-0.4201345,0.11341149,-0.12362167,-0.24710372
-8.484467,0.9837392,-0.5376419,0.22146483,-0.011292281000000001,-0.28063148
-7.7568116,0.7699465,-0.8350688,0.3151541,0.085573494,-0.27797859999999996
-7.204813499999999,0.5460695,-0.66712034,0.17409660000000002,0.230366,-0.2907544
-7.1214666,0.8480167,-0.5000434,-0.09843657,0.25537658,-0.32108822
-7.2697825,1.2315582,-0.67675465,-0.26345745,0.027541295,-0.30937707
-7.441878,1.5490581,-0.6790914,-0.1868026,0.1622109,-0.24764477
-7.5406146,1.4946713,-0.8389379000000001,-0.30710813,0.25750586,-0.2801079
-7.728741599999999,1.0657261999999998,-1.2644928,-0.21076596,0.97134554,-0.33546972
-7.358282000000001,0.5716683000000001,-1.5462521,-0.28103292,0.94420564,-0.32534683
-6.961802499999999,0.28003540000000005,-1.5701557,-0.26719245,0.39165187,-0.29447195
-7.3782973,0.4932247,-0.72584534,-0.013264502,-0.029914944,-0.19278906
-7.582552000000001,1.0049518,-1.5478129999999999,0.10861184,-0.15927875,-0.06398377
-8.001068,0.9399923000000001,-3.4986277,0.2629862,-0.04590216,-0.0032986724
-10.1599865,2.1100962000000005,-3.3310527999999997,0.2353053,-0.08955284,0.018517943000000002
-12.120493,2.8305497,-2.3032317000000004,0.08253662,-0.11136946,0.06749188
-11.780046,1.1017542,-2.7934299,0.028763026,-0.15397294,0.11805407
-10.760156,0.21521957,-4.411460400000001,0.07134906,-0.058677968,0.16331045
-10.785534,0.4403416,-3.6507937999999993,0.13948672,-0.04803146,0.17076302
-11.7095995,1.5728182,-2.8391113,0.16451474,-0.15076154,0.19151498
-13.935719,0.31813195,-0.75530356,0.20655972,-0.1667313,0.21174334
-13.826754000000001,-1.7422701,1.7868214,0.22519983,-0.3423987,0.24422392
-12.2589445,-2.8407395,2.862948,0.28214994,-0.3046123,0.25752333
-12.465468,0.63297904,2.7926736,0.35667548,-0.29981264,0.25645867
-13.119048000000001,1.1926188,0.31330523,0.5786639,-0.35145694,0.23197171
-13.138881,-0.39984125,-0.20165882,0.6420019,-0.39669588,0.26764625
-12.011766999999999,-0.75810003,-0.5416641999999999,0.64254296,-0.27106708,0.27829275
-10.35113,-0.9161269000000001,-0.99486744,0.6058038,-0.12149237,0.29745647
-9.462277,-0.5100703,-0.5674833,0.43919465,-0.07623598,0.29798007
-8.678263000000001,0.015016433000000001,-0.5665926,0.28482029999999997,-0.0033161256,0.33258995
-7.9665337,-0.146755,-0.63528705,0.35721654,0.41455059999999994,0.37411132
-7.2480720000000005,-0.70985204,-0.5099362000000001,0.41310197,0.54815555,0.39327505
-6.875075,-0.98685163,-0.5473049,0.27576202,0.085573494,0.34749505
-6.839477499999999,-1.2699995000000002,-0.3187736,0.15706217,-0.23966861,0.34430109999999997
-7.37304,-1.9357216,0.15824716,0.30504864,0.21546089999999998,0.36824703
-7.215961,-1.9862776000000002,-0.68937683,0.19271925,0.6434331,0.3549476
-7.336005999999999,-1.0766149999999999,-0.8204259,0.025045475,0.19895008,0.31662017
-7.119034299999999,-0.34848082,-1.520433,-0.016458455,-0.07517133,0.26071727
-6.837696,0.18036959,-1.9649022,-0.52057934,-0.3785968,0.17873918
-6.7771897,0.25533682,-1.4889828,-0.7707723000000001,-0.6389127,0.046198864000000006
-7.0154705,0.5759013000000001,-2.1035457,-0.7771602,0.31393236,-0.015009831999999999
-8.841749,-0.057958834,-2.6900866000000003,-0.588717,0.49974012,0.029164452
-11.000246,-1.9121531000000003,-1.8717582,-0.48703409999999997,0.08344419,-0.03630285
-11.966556,-0.17099388,-1.0787698000000001,-0.51206213,0.117513016,-0.15022048
-10.8382635,0.81422967,-3.5135965,-0.46628216,0.18032742,-0.19333012
-12.9513,0.6575436,-4.0005293,-0.29007372,-0.008098328,-0.18268362
-13.057124,0.7790253,-3.2851129,-0.18360864,-0.08529424,-0.1677785
-12.439353,-0.15858233,-1.6405836,-0.1261175,-0.12894492,-0.18535396
-14.459876999999999,2.8566275,-0.06824432,-0.07288495,-0.19760618,-0.21036454
-12.510317,5.1698474999999995,1.4214375,-0.0739496,-0.18324211,-0.23858652
-10.3750725,2.376705,2.2986348,-0.079813905,-0.21731095,-0.25507987
-11.873277999999999,-0.5293005000000001,1.7189793999999998,-0.102695175,-0.26309094,-0.24710372
-11.414538,-0.33664393,0.730854,-0.15008086,-0.28651324,-0.22581069
-11.008558,-0.33164479999999996,0.021040246000000002,-0.14315191,-0.22635175,-0.20929988
-11.304032000000001,0.06906793,-0.18908447,-0.14847516,-0.11723377,-0.16990781
-10.396563,0.7793701,-0.12350250000000002,-0.09843657,-0.054419365,-0.17683676
-9.606677000000001,0.78117055,-0.014250289,-0.018064158,0.06801548,-0.21729349
-8.682927000000001,0.62368,-0.30071172,0.03249803,0.20587903,-0.26733208
-7.7446394,0.48212520000000003,-0.2956169,-0.007941248,0.24207717,-0.30937707
-6.8104119999999995,0.6534446999999999,-0.63709706,-0.1995784,0.2633702,-0.36953858
-6.5145845,0.9517239,-0.6295218,-0.33426547,0.20001473,-0.40041342
-6.631278,1.5195136999999999,-0.8602940999999998,-0.23738223,-0.052290063,-0.30511847
-6.886902,1.9624409999999999,-0.9282895,-0.14049901,0.19203858,-0.24710372
-7.214237,1.7084831000000003,-1.0364978,-0.23738223,0.68231905,-0.27904323
-7.438737,1.4457052,-1.6896168000000003,-0.22354177,1.0426946,-0.31789428
-7.0642166,1.1346216999999998,-1.8511008999999998,-0.42741367,0.5987352,-0.3061831
-6.977173,0.77602786,-1.7828567,-0.1261175,0.3538655,-0.19174187
-7.4571724,0.5868667,-1.3007698,0.12777555,-0.07464773,-0.06557202
-7.731489999999999,0.74181944,-2.646656,0.16557938,0.016371188999999998,0.035011306
-8.588154,1.2989215,-3.4728087999999997,0.121387646,0.03499385,-0.02724459
-10.770278,2.2681517999999996,-2.1167423999999997,-0.021781709,-0.10817551,-0.00010471976000000001
-12.851174,2.4454472000000003,-0.9294195,-0.068626344,-0.1688606,0.087720245
-11.581261,0.37804443,-3.1354177000000005,-0.002094395,-0.036320303,0.13456489
-10.791223,0.2615426,-4.5886309999999995,0.089448124,0.049898963,0.15479325
-11.121728,1.1453764,-4.118487,0.14215706,-0.08688249,0.16969836
-12.724089999999999,1.0431536,-2.0728424,0.19591321,-0.18856537,0.19099139
-15.359532000000002,-0.87606716,1.8468106,0.26618016,-0.21889919,0.18832102
-13.692927,-2.5265055,1.5658462,0.3689277,-0.33868113,0.20163789999999998
-11.997010000000001,-1.3309749,2.8328385,0.47698104,-0.33068752,0.18193312
-11.934856,1.6157126,1.1382896999999998,0.60847414,-0.32429963,0.14467034
-12.779291,0.6825103,-0.15785451,0.6196441999999999,-0.38392007,0.17022195
-12.369337,-0.62979954,-0.34202608,0.52063173,-0.33653438,0.18247417
-11.115503,-0.67085534,-0.67094153,0.41310197,-0.1752485,0.25274113
-9.92252,-0.9224572,-1.0918133999999997,0.325277,-0.15502015,0.32194343
-9.399617,-0.82974416,-0.58204,0.18687241,-0.060789815999999997,0.35814157
-8.614654,-0.52672434,-0.542574,0.105417885,0.16116370000000002,0.37995818
-8.016917,-0.49423984,-0.3537768,0.18633135,0.40603340000000004,0.40018654
-7.567525999999999,-1.091957,-0.062661044,0.26405087,0.46352455,0.41456807
-7.032211,-1.3655378,-0.23864445,0.11712904,0.19149752,0.346954
-7.1955724000000005,-1.7032734,-0.24124934,-0.016458455,-0.21251129,0.29319787
-7.009437599999999,-1.5304312,-1.3008273000000001,0.027698375,0.16116370000000002,0.30384436
-7.030659700000001,-0.7467611,-1.1935956,0.027698375,0.59234726,0.3379132
-7.471758,-0.116540164,-1.3843371000000002,-0.012199851999999999,0.15423475,0.32513738
-7.1552444,0.16308345,-2.1387882,-0.2512227,-0.20771164,0.25912905
-6.782706699999999,0.37970123,-2.3557317,-0.5455899000000001,-0.4201182,0.17395696
-6.8862314,0.39224684,-1.7364379,-0.69305277,-0.32749358,0.04033456
-7.3047759999999995,0.33935416,-2.0585058000000003,-0.6211800999999999,0.3283139,0.00413643
-8.419105,-0.25589228,-2.7080338,-0.41092032,0.35705945,0.06695083
-10.622200999999999,-2.0364602,-2.068102,-0.28848547,-0.09752899999999999,-0.02724459
-12.201464999999999,-0.3463835,-1.1154969,-0.2964616,-0.051225413,-0.14755014
-11.592878,1.0383844,-2.772409,-0.2623928,0.0983493,-0.17044885
-13.381067999999999,1.2502426000000002,-3.4969517999999997,-0.14369296,-0.052813664,-0.15128514
-12.710597,0.35446635,-4.23632,-0.0036826448,-0.101787604,-0.13212143
-13.247875,-0.14421713,-2.2461154,0.061767202,-0.13639748,-0.13903293
-14.247520000000002,2.3790127999999995,1.3027617,0.03728023,-0.19069467,-0.17097245
-11.594966000000001,3.8675167999999998,0.8570572,-0.0015533429999999998,-0.1752485,-0.18961257
-10.021410000000001,1.9168075,2.2453687,-0.019652408,-0.12255702,-0.20078267
-11.883562,0.25855464,1.6216408000000002,-0.0063529983,-0.12788028,-0.19439477
-11.836319999999999,0.051963754,0.7667765999999999,-0.0084823,-0.22422245,-0.17364279999999999
-10.973842999999999,-0.26519135,-0.06055415,-0.023387412000000003,-0.2231578,-0.18161896
-11.13568,0.15939638,-0.031048007000000002,-0.08140215,-0.13585643,-0.19545943
-10.059324,0.69620514,-0.33803257,-0.14741051,-0.051749012999999996,-0.20929988
-9.192431,0.9267955,0.008542512,-0.17722073,-0.026738444,-0.25562093
-8.343544,0.7633194000000001,-0.32148382,-0.15592772,0.031799898,-0.31363568
-7.535702000000001,0.6456491999999999,-0.7611167,-0.14421655,0.066409774,-0.36686820000000003
-6.867173700000001,0.78675383,-1.2594553999999998,-0.12133529,0.13402383,-0.3844262
-6.820353,1.1658517,-1.1854361999999998,-0.29167940000000003,0.10367256,-0.38283798
-7.103979600000001,1.5477748,-1.1147977,-0.3640757,0.18032742,-0.36686820000000003
-7.071744,1.8905478999999998,-1.0484016999999999,-0.23205897,0.22397809999999999,-0.2540152
-7.056469,1.7546912000000001,-1.2836177,-0.1341111,0.37515852,-0.22952825
-7.371842999999999,1.503032,-1.6680211,0.014398966000000001,0.82496476,-0.25668558
-7.647817999999999,1.3874686,-1.9767678,-0.028710665,0.6636789000000001,-0.26307347
-7.6837306,1.2009028,-2.1912404999999997,0.08998918,0.23143066,-0.18800686
-7.673023700000001,1.1427333,-2.3140247000000005,0.56960565,0.0019896755,-0.05120796
-7.8347664,1.0352912,-2.1700566,0.5387308000000001,-0.19706513,0.017976891000000002
-8.388776,1.0674596,-1.6453816000000003,0.36625734,0.12123057,-0.08899434
-9.056144999999999,1.3666198,-2.6615384,0.062308256,-0.041102502,-0.11615166
-10.876954,1.8205798,-1.6866863999999997,-0.14421655,-0.17151349999999999,0.008395034000000001
-11.892000000000001,1.4632976999999998,-2.1654882,-0.24855234,-0.1555612,0.10634291
-11.5430975,-0.16732597,-3.6732705,-0.16976817,-0.030979594,0.145735
-11.092308000000001,-0.10654198,-4.1091776,-0.13836971,-0.027803095,0.12124802
-11.568811,0.77208215,-3.234375,-0.114947386,-0.18643607,0.110601515
-14.450559,-0.34488955,0.61923635,-0.08620181,-0.22528710000000002,0.11965977400000001
-14.87076,-1.5485984,2.0440834,-0.02391101,-0.24551547,0.13562953
-11.669416,-0.9603813,1.3682478999999999,0.084665924,-0.19388862,0.1579872
-11.620785,1.8994255000000002,1.3871621,0.22252949,-0.26574382,0.17341591
-13.363314,1.9296787,-0.2880033,0.41736057,-0.27586675,0.15105824
-13.539345,0.33275574,-0.6585683000000001,0.40564942,-0.31152382,0.22293091
-12.459579,0.0053247046,-0.6757681999999999,0.36147514,-0.13159783,0.23303635
-10.738934,-0.32118696,-1.0440155999999998,0.3194127,-0.009162978,0.2671052
-9.386286,-0.41286573,-0.8405466999999999,0.28534390000000004,0.024347342999999997,0.31820843
-8.697838,-0.3306967,-0.41367975,0.24436355,0.100478604,0.36559412
-7.814539999999999,-0.25967512,-0.33356017,0.2496868,0.35173622,0.37357026
-7.119724000000001,-0.33671093,0.26925190000000004,0.30291936,0.49918163,0.3836932
-6.723215,-0.5716683000000001,0.18609652,0.41257837,0.46300095,0.39275143
-6.474889,-1.1484123,0.062086437,0.30291936,-0.050684362999999996,0.35707690000000003
-6.818581,-2.0864892,-0.22389616,0.24649285,0.025411992999999997,0.33684856
-6.589858500000001,-1.9424733,-1.375421,0.48656288,0.5002462999999999,0.38475785
-7.054247,-0.82850873,-1.3780736999999998,0.57812285,0.5763775,0.40339795
-7.769634700000001,-0.013915100000000001,-1.5789089,0.39713222,0.44223154,0.34749505
-7.8032875,0.14614208,-1.9918513,0.16290903,-0.07730063,0.22080160000000001
-7.38005,-0.06187575,-2.0636773,-0.20703095,-0.21144664,0.1409528
-7.238093400000001,0.09026141,-2.0168276,-0.19479620000000003,-0.7826405,0.12604767
-8.03225,0.22876118,-2.3512402000000003,-0.1995784,-0.18695967,0.035011306
-9.6527605,-0.888584,-2.4053299999999997,-0.14795156,0.29956833,-0.01446878
-11.920089,-1.568384,-0.9659549999999999,-0.09417797,-0.0043807765,-0.06876597599999999
-12.235051,0.5405437,-1.258469,0.008011062,-0.041643556,-0.10815805
-11.004076,0.75102276,-3.647413,0.08093092,0.163293,-0.12838642
-11.155754,-0.81790715,-4.952531,0.07401941,0.04457571,-0.16193165
-12.232168,-1.0039846,-5.3503419999999995,0.04420919,0.04511676,-0.16884315
-11.073863000000001,-0.7627735,-4.2907066,-0.015934857,-0.035255652,-0.17364279999999999
-13.836341000000001,2.4566998,0.23087765,-0.0755553,-0.116692714,-0.18109536
-12.921248,6.010835,4.2965290000000005,-0.14421655,-0.14278539,-0.20558234
-11.404396,4.530864,3.4609525000000003,-0.21928316,-0.20771164,-0.21888174
-11.116288,-0.1570309,0.69454837,-0.2618692,-0.19547687,-0.21781708
-10.69489,-1.2292789,-0.05114015,-0.31403708,-0.17898351,-0.20504127
-11.129341,0.09787496,0.25749162,-0.32414255,-0.19973548,-0.20610593
-11.596517,1.5454093,-0.6374514,-0.3310715,-0.13479178,-0.19706513
-10.437159,1.8262491,-1.4982818000000002,-0.32414255,-0.023544492,-0.20610593
-9.499646,1.4488081,-1.0429046,-0.26026350000000004,-0.008098328,-0.24389231
-8.666205999999999,1.2234561000000002,-0.9955091,-0.15166911,0.021170842999999998,-0.28701940000000004
-7.7120395,1.1809543,-0.8904801999999999,-0.10749483,0.10101966,-0.34131658
-7.019301400000001,1.1268166000000002,-0.82209224,-0.14901622,0.14093533,-0.38177332
-7.004198599999999,1.3206607,-0.7694101999999999,-0.29061478,0.20320868,-0.40041342
-7.0570436,1.7074393,-0.8414278000000001,-0.25813420000000004,0.27401668,-0.35676274
-7.278995500000001,2.2754781000000004,-1.0427324,-0.0670381,0.08398525,-0.24549802
-7.412333500000001,2.176703,-1.1218846000000002,0.09264208,0.17765707,-0.18800686
-7.416786699999999,1.4972476000000001,-1.7303374,0.03302163,0.4576777,-0.18641862
-7.487282,0.8568752000000001,-2.0484312,0.008011062,0.86915654,-0.21514674
-7.5123534,0.38144422,-2.072555,-0.11014773,0.35067156,-0.20132373
-7.4595666,0.4428986,-2.4247806,0.24275784,0.087702796,-0.12838642
-7.675552400000001,0.6862931,-2.5613363,0.39287362,-0.28862509999999997,-0.05066691
-7.826674499999999,1.1524633999999998,-2.464409,0.32899457,-0.19547687,-0.017662732
-8.296071000000001,1.71987,-2.7274075,0.2603333,0.08503244,-0.058660515
-10.560508,1.9722762999999999,-2.142619,0.0053407075,-0.15182619,-0.0032986724
-12.355516999999999,1.477184,-2.255788,-0.13836971,-0.12520991,0.096761055
-11.736453,-0.11027693,-2.9423494,-0.15486306,0.010524335,0.14362314
-10.928133,0.14277104,-4.617916999999999,-0.12398819,0.039793506,0.15001105
-10.932672,0.79405135,-4.9345360000000005,-0.06597344599999999,-0.08049458,0.14892894
-12.489017500000001,1.6382756,-2.3086042,0.026110126,-0.17470746,0.15905185
-14.808079999999999,0.13752295,1.4007516000000002,0.12564625,-0.21731095,0.16331045
-12.789404,-2.0025008,0.6004275,0.21933553,-0.2705435,0.1563815
-11.452875,-1.1338652,2.2506263,0.33325318,-0.20292944,0.13988814
-12.08388,1.7536953999999998,0.64067876,0.5009444000000001,-0.23912756,0.09197885
-12.363169000000001,1.3189657,-0.87233216,0.50413835,-0.27584928,0.14947
-12.298516000000001,0.3234758,-0.8275606,0.3992615,-0.1752485,0.16863371
-11.799938000000001,-0.41905233,-1.4150690000000001,0.2731091,-0.068783425,0.19737929
-10.42468,-0.95790094,-1.8925878,0.17994344,-0.029914944,0.25806439999999997
-9.831942999999999,-0.94571924,-0.79625404,0.10489429,-0.042167153,0.31342623
-9.085038,-0.62829596,-0.41787440000000003,0.120322995,0.048310712,0.3464304
-8.162495,-0.5476018,-0.30420727,0.28747317,0.37463492,0.4220206
-7.48756,-0.6922499,0.1021558,0.45568800000000004,0.6801897,0.47472957
-6.9771442,-0.729542,0.10914686,0.29227284,0.163293,0.4065919
-7.093205499999999,-1.4118031999999998,0.16260460000000002,-0.05000368,-0.38976693,0.31449088
-6.864406,-1.5346258999999998,-0.81340605,0.086795226,0.2926568,0.333131
-6.85232,-0.71217924,-1.1781867,0.38063887,0.886732,0.4108505
-6.989928999999999,-0.097376965,-1.4552532,0.4274835,0.6136403,0.39060467
-6.995655999999999,0.1492258,-1.9689628000000001,-0.04733333,-0.107634455,0.23677136
-6.641448,0.18737979999999999,-2.1604989,-0.4902281,-0.32962290000000005,0.08133234
-6.528777,0.0062728086,-1.5222622,-0.65737826,-1.1376928999999998,-0.017139133
-7.244165,0.10476069,-1.5265813,-0.50780356,-0.697451,-0.05279621
-8.809992,-0.19432299,-2.6222157000000004,-0.32201326,0.35653585,-0.0373675
-11.305583,-1.7153688999999999,-2.7499703999999996,-0.21928316,0.20587903,-0.027785642000000003
-12.712646000000001,0.03853707,-1.2454829,-0.17722073,-0.07942993,-0.075694926
-11.358419,1.8146805,-2.4696092999999997,-0.1303761,0.10686651,-0.09005899
-12.292626,0.6234597,-3.8558235,-0.011676253000000001,0.14786429999999998,-0.096446894
-11.963118,-0.55643165,-5.9215406999999995,0.08892453,-0.054942965999999996,-0.09964084599999999
-11.244071,-2.5603497,-7.0293474,0.14906856,-0.07197738,-0.10815805
-13.959029000000001,-0.6583001,-2.5687869,0.22891739,-0.20451768,-0.14542083
-13.09747,4.4276643,2.6465793,0.27150342,-0.18376571,-0.17469001
-10.669463,5.275796,4.8299093,0.20655972,-0.05974262,-0.17683676
-10.090009,2.4783244,2.3586526,0.11074114,-0.05014331,-0.17364279999999999
-10.813307,-0.40080854,0.16196296,-0.0026179939,-0.08527679,-0.15872024
-11.195689,-1.3986733999999998,-0.42370665,-0.11014773,-0.14489724,-0.15020303
-11.453277,0.08371087,-0.696071,-0.14582226,-0.13266248,-0.12999213
-11.312803,1.2374288,-1.1989969999999999,-0.18627898,-0.053878315,-0.11828096
-10.161662,1.4108169,-1.0175453,-0.23738223,-0.05120796,-0.14702654
-9.140353,1.0242203,-0.6952762,-0.24855234,-0.059184115,-0.20343557
-8.111086,0.53774726,-0.7693814999999999,-0.21395992,-0.02300344,-0.2742436
-7.384321000000001,0.28046638,-0.77079886,-0.22567107,-0.010751228,-0.34184018
-6.972518400000001,0.94888914,-0.8810375,-0.30019662,0.0983493,-0.3652625
-6.984528,1.9084947,-0.9387857,-0.43434262,0.0914378,-0.3844262
-7.056172,2.502621,-1.0850233999999999,-0.40559706,0.18938568,-0.34609878
-7.324159599999999,2.572589,-1.2199031999999999,-0.15699236,0.2202431,-0.27956682
-7.6380490000000005,2.004234,-1.3102316999999999,-0.043074727,0.31021482,-0.31363568
-7.727334,1.2169728000000002,-1.6139122,-0.20118411,0.78984874,-0.32374109999999995
-7.595155,0.9569528,-2.1293933,-0.17402677,1.1635412,-0.33332297
-7.637810000000001,1.1846893,-2.5236322999999996,-0.23364723,0.33576643,-0.33812264
-7.945158,1.1377151,-2.5979676,0.13576916,-0.15660839,-0.20929988
-7.74055,0.8711158999999999,-2.7067695,0.2736327,-0.32482323,-0.11719886
-7.862472,0.99514514,-2.4962234,0.3236713,0.025429446,-0.08473573599999999
-8.842016000000001,1.6427096999999997,-2.3826232000000003,0.13576916,0.2234545,-0.08899434
-10.979904,1.7456028000000001,-1.8836046000000002,-0.17456783,-0.09327039,-0.05386086
-11.516589,1.040003,-2.0893433,-0.2794272,-0.11136946,0.04087561
-10.184111,-0.12298535,-4.0801888,-0.18893189999999999,-0.012356931000000002,0.088784896
-10.044078,0.49517837,-5.647156,-0.06649704,0.1483879,0.081873395
-10.454482,1.5107317,-5.055912,-0.0047472958,0.00413643,0.0903906
-12.536518,1.4742345,-1.7976528000000003,0.11979939999999999,-0.11295771,0.09358455
-13.773554999999998,-1.0474919,2.1623282,0.24701644,-0.10018189999999999,0.087720245
-12.613277,-3.1250079,2.7855961,0.3455054,-0.15234978,0.11381292
-12.787546,-0.89113146,3.0767791,0.45888197,-0.16992526,0.07600909
-12.852774,2.002405,-0.6154727,0.547248,-0.2364572,0.12391838
-13.417135,1.4189955,-1.8351077,0.5115909000000001,-0.20877628,0.17928022
-13.624425,0.27008513,-1.6631943999999999,0.45568800000000004,-0.118822016,0.22666591
-11.993744,-0.5753362,-2.2954552,0.35667548,-0.09007644,0.26338765
-10.385769999999999,-1.3580104,-2.0847653999999998,0.28801423,-0.0959233,0.29106855
-9.435433,-1.1636777,-1.082457,0.23904029999999998,-0.020874137,0.30810297
-8.169667,-0.88690805,-0.23458388,0.24488714,0.25645867,0.34271285
-7.0161123,-0.7333344,-0.19240762,0.34763467,0.31288517,0.4113741
-6.466394,-0.78412026,-0.39400896,0.44132397,0.12603022,0.40552726
-6.1870675,-1.1299579,-0.26797822,0.030368729,-0.22422245,0.2820103
-6.461893,-1.4261397,-1.0138199,-0.12718214,-0.07942993,0.26286402
-6.5111275,-0.9182338,-1.5623506999999999,0.2816263,0.43052036,0.28468066
-7.013603,-0.3907433,-1.9512455000000002,0.40512583,0.7249051,0.33206636
-7.151422999999999,0.0074603325,-2.314877,0.26830947,0.025953045,0.29319787
-6.946048299999999,0.114394955,-2.467876,-0.22460642,-0.23699826,0.18512708
-7.023592,-0.05617755,-2.3225672000000004,-0.6408849,-0.701186,0.08932595
-7.6735024,-0.47351563,-2.2375347999999997,-0.69464105,-1.1648326999999998,0.029164452
-8.745626,0.06419334,-1.9095387,-0.3853687,-0.03843215,-0.0016929694
-10.3571825,-0.006445190999999999,-1.8073925,-0.116535634,0.34002504,0.053651422000000004
-12.704352,-0.6623031999999999,-2.2739074,0.006946410500000001,-0.008621926,-0.019268433999999997
-11.549121000000001,1.3857161,-2.217318,0.052185345,-0.11721631,-0.11986921
-10.542149,0.7929022,-3.82988,0.14002776,-0.12308062,-0.122522116
-11.9018545,-0.3763781,-5.619861599999999,0.24169320000000002,-0.1752485,-0.11506956
-11.592705,-1.046994,-5.98717,0.30983084,-0.07143632,-0.12199851
-13.226413,-1.2073958999999999,-3.9293447,0.28747317,-0.068783425,-0.13316862
-14.147682000000001,2.1604607000000002,-0.30198544,0.22413518,-0.16458455,-0.15126769
-12.039014,4.1364717,3.7308557,0.13363986,-0.24338616,-0.17523105
-9.70369,1.8850220000000002,4.00684,0.03515093,-0.30300662,-0.15926129
-10.352921,-0.38138676,0.9379908000000001,-0.06543239,-0.3509159,-0.14542083
-11.070214,-0.6125229999999999,-0.41930133,-0.16125096,-0.30778882,-0.14381513
-11.614636,-0.36742377,-0.9310284,-0.21341886,-0.26200882,-0.14275047
-11.629845,-0.29999346,-0.919134,-0.24109977,-0.12573352,-0.14275047
-10.215580000000001,0.64328367,-0.44434470000000004,-0.23364723,-0.011292281000000001,-0.17575465
-9.062399000000001,1.1754381999999999,-0.24859476,-0.12079424,0.08611455,-0.22685789999999997
-8.185814,1.3857161,-0.97816545,-0.02232276,0.20854940000000002,-0.27263787
-7.650547,1.0974351,-1.3410403,-0.19266689,0.2186723,-0.32428217
-7.3750224,0.76989865,-1.307215,-0.3645993,0.35173622,-0.34077555
-7.236503599999999,1.1842008999999998,-1.1763288,-0.32574826,0.24633577,-0.26466173
-7.001958,1.9571545,-1.3852468999999998,-0.10323623,0.11911872,-0.17097245
-6.8177958,2.0890560000000002,-1.5937339,-0.094719015,0.32192597,-0.16884315
-6.893787400000001,1.885635,-1.7650534,-0.10323623,0.8547925,-0.19598302
-6.9061704,1.178675,-2.0104208,-0.2751686,0.6461209,-0.22579324
-6.9005394,0.6863985,-2.2095512999999998,-0.23045327,0.13774139,-0.19278906
-6.860278,0.5559719,-2.0972347,0.19271925,-0.14863224,-0.09164724
-7.2954965,0.6791775,-1.8524512999999998,0.26565656,-0.20984094,-0.004886922
-7.45405,0.8152161,-3.0905218,0.15812683,0.1563815,-0.07302458
-8.796478,1.3056252,-3.0328310000000003,-0.24109977,-0.10444049999999999,-0.07141887400000001
-11.208561,2.609048,-1.8679754000000002,-0.36353463,-0.19865337,0.08026769
-12.136016999999999,1.5823757999999999,-1.8743439,-0.39866809999999997,-0.019268433999999997,0.1579872
-11.061844,0.24113442,-4.1942105000000005,-0.29433233,0.057910025,0.17982127
-10.938571000000001,0.25839183,-4.9676046,-0.19638444,-0.01288053,0.16704546
-11.679414,0.7341675999999999,-4.205453400000001,-0.13782865,-0.12627457,0.1558579
-14.587114000000001,-0.37116832,0.4643219,-0.08194321,-0.2838429,0.16278686
-14.619522,-1.3683246,2.1467083,0.0021467548999999997,-0.2801079,0.17130406
-12.073347,-1.2747973999999997,1.6285839,0.09477138,-0.25188592,0.14042918
-12.098073,0.99436945,0.5257954,0.2523397,-0.27159068,0.1366942
-13.465,1.6012037000000001,-0.7772249,0.34922293,-0.23965116,0.16065755
-13.639039000000002,-0.10251971,-0.65190285,0.40831977,-0.18587756,0.19153243
-12.826706,-0.9416491,-0.92007256,0.35295793,-0.09698795,0.22240731
-11.06645,-0.8599973,-1.4387141,0.2496868,0.029164452,0.24370033
-9.556054,-0.95381165,-0.9887094999999999,0.13096951,0.05576327,0.26712263
-8.778483999999999,-0.8316978,-0.5113344,0.04527384,0.06695083,0.29213320000000004
-7.6983923999999995,-0.8115576999999999,-0.36821866,0.07347836,0.20003219,0.32726669999999997
-6.623578,-0.6160568000000001,-0.16040193,0.20123646,0.43744934,0.37836993
-6.03788,-0.9019245000000001,0.15709795,0.33166492,0.24368288,0.41456807
-6.214208,-1.6507158,-0.048659757000000005,0.13576916,-0.112416655,0.36985272
-6.3094779999999995,-1.7205979,-0.54431695,0.13309881,0.009459685,0.3528183
-6.6632929999999995,-1.5701653999999998,-0.971251,0.22732913,0.392734,0.3379132
-7.0800089999999996,-1.1965933000000002,-1.6990404,0.04527384,0.57744217,0.32991958
-7.211603599999999,-0.44291773,-2.3070621,-0.044139378,-0.005427974,0.27989846
-7.2845216,0.2646455,-2.2605765,-0.3273365,-0.08740609,0.17130406
-7.3503046,0.32694259999999997,-1.9784917000000002,-0.5014156,-0.8358556,0.09623746
-7.708305,-0.019287689,-1.5444708,-0.45402995,-0.8619483,-0.027785642000000003
-8.761035000000001,-0.33783144,-1.6437153000000002,-0.45670029999999995,0.17767452,-0.06290167
-10.131103,-0.78666764,-2.2931378,-0.54293704,0.38528144,-0.05386086
-11.9637785,-1.4881879,-2.4308426,-0.51419145,0.12657128,-0.13796827
-11.802744,-0.03635356,-3.2456565,-0.35182348,0.1499936,-0.19120082
-11.236103,0.25439829999999997,-5.0034410000000005,-0.21341886,0.12763593,-0.20558234
-12.456792,0.3275172,-5.0993433,-0.14688691,0.033946656,-0.2225993
-11.57606,-0.16622464,-4.5009365,-0.11014773,-0.010751228,-0.22046999999999997
-13.872531,0.9346771999999999,-1.3094081,-0.07288495,-0.09700539999999999,-0.21355848
-14.626044,4.2817907,2.3661993,-0.059044488,-0.18535396,-0.2263343
-11.982836,5.294059,4.319168599999999,-0.0776846,-0.25881487,-0.25240952
-10.376555999999999,0.63002944,1.9052866000000002,-0.08087855599999999,-0.24603906,-0.27265534
-11.096426,-1.1902918,-0.23173000000000002,-0.09204867,-0.30033624,-0.2832844
-11.660471000000001,0.18916109,-0.24408408,-0.0782082,-0.29927159999999997,-0.26359707
-11.287713,0.25738627,-0.6526976999999999,-0.08140215,-0.23380429999999996,-0.24336872
-10.177436,0.5710554,-1.2490168,-0.08140215,-0.17044885,-0.19439477
-9.3419075,0.68632185,-0.7980832,-0.03190462,-0.06558947,-0.20982349
-8.679785,0.521438,-0.56489754,0.023980823999999998,-0.05014331,-0.24390976
-7.896393300000001,0.6381218000000001,-0.56371963,0.089448124,-0.01288053,-0.27689648
-6.9780254,0.73813236,-0.68930024,0.09105383,0.05417502,-0.28541368
-6.4802423,0.9689525999999999,-0.66266716,-0.11707669,0.045134213,-0.29127800000000004
-6.6303296000000005,1.4203553,-0.6538182,-0.2517463,0.0919614,-0.2955366
-7.096117,1.8055346,-0.6780666999999999,-0.24696408,0.10101966,-0.21514674
-7.4714413,1.7172843,-0.71376896,-0.09684832,0.28785715,-0.21142918
-7.806352,1.7190846999999998,-1.1223443000000002,-0.068626344,0.57798326,-0.26199138
-7.754072,1.2950428999999999,-1.6253948,-0.10588913,0.6019466,-0.3109653
-7.622764599999999,0.6937727,-2.0824766,-0.16498597,0.46991244,-0.29073694
-7.4945602,0.5043721,-2.2081914,0.086795226,0.12763593,-0.17736036
-7.7517643,0.70673007,-1.216561,0.30557224,-0.18428932,-0.0400204
-8.207467,1.4545542,-1.4603576999999999,0.32101840000000004,0.20270254,-0.05544911
-9.086024,1.5614504999999999,-2.55287,0.03249803,-0.025115287000000003,-0.096446894
-10.713861,2.1441226,-2.5438582999999997,-0.09737192,0.019041541999999998,0.03874631
-11.911096,2.5049957999999997,-2.6673036,-0.20703095,0.1436057,0.11965977400000001
-11.248688000000001,0.33097446,-3.3100989999999997,-0.3161664,0.21706660000000003,0.12658873
-10.983821,-0.24719654,-4.2330822999999995,-0.30072020000000005,0.19683823,0.12871803
-10.812358999999999,0.397064,-3.6202724,-0.15592772,0.08611455,0.16278686
-12.730871,0.04891833,-0.98376787,0.0016231562,-0.02459169,0.2122844
-15.100757000000002,-0.7897321999999999,1.3864439,0.121387646,-0.11030481,0.2144137
-12.610078,-1.32249,2.8302913,0.23265238,-0.23006929999999998,0.20003219
-10.628186,1.1623275,0.964825,0.40619048,-0.30511847,0.16863371
-11.329784,1.953841,-0.6719853,0.5350132,-0.34772193,0.17289232
-11.714762,0.43084136,-0.8195927,0.6345494,-0.31098276,0.14201744
-12.373206,-0.28650934,-1.192188,0.62337923,-0.295013,0.13297664
-12.059163,-0.52017385,-2.0010355,0.5121145,-0.2231578,0.16969836
-11.134675999999999,-0.8247833000000001,-1.2959334999999998,0.36786306,-0.15500268,0.21973695
-10.190584,-0.9442923000000001,-0.6911198000000001,0.2432989,-0.046408303,0.27296948
-9.184856,-1.0852916000000001,-0.5318096,0.31995377,0.19470893,0.34749505
-8.203157000000001,-1.1614847,-0.51936936,0.51052624,0.5439144,0.42894956
-7.3973937,-1.0414873,-0.19062634,0.57812285,0.42573816,0.42414989999999997
-7.0475144,-1.3529251,0.074718244,0.21401227,-0.21357594,0.34110716
-6.5322537,-1.3895851000000001,-0.28126124,0.023980823999999998,-0.05120796,0.3155555
-6.3809495,-1.2353121999999999,-0.74764216,0.19804251,0.5433908000000001,0.36081192
-6.422331,-1.0973583,-1.3693781,0.28588492,0.73768085,0.4049862
-6.4707704,-0.5439339,-2.1433372000000004,0.17409660000000002,-0.06876597599999999,0.36665878
-6.2922974,0.05105396,-2.3552146,-0.23418827,-0.2944894,0.24315926
-6.559854,0.05540183,-1.6959567,-0.49183378,-0.4169068,0.17821556
-7.4152064,-0.020465635,-1.1842104,-0.36301103,-0.89121747,0.15959291
-8.4651985,0.10239522,-2.0376953999999996,-0.29274407,-0.21036454,0.07761479
-9.9202795,-0.64730597,-2.770829,-0.14953981,0.20374973,0.0903906
-12.422813,-1.0408648,-2.2040349999999997,-0.12292354,-0.14117968,0.011065387
-11.746997,0.95996,-2.6064622,-0.17669713,-0.19973548,-0.05386086
-11.303026,1.1151328999999999,-4.6184053,-0.17137387,0.01956514,-0.10389945
-13.145441,0.6554175,-5.3687,-0.08939576,-0.009686577,-0.12784536
-12.258207,-0.23294625,-5.8863745000000005,0.013334315,-0.07304203,-0.14329153
-12.11921,-1.3904374,-3.3833709,0.034627332999999996,-0.11082841,-0.1677785
-13.883085000000001,2.43045,1.7461583999999999,-0.0010297442999999999,-0.16725489999999998,-0.21249384
-12.449131,5.0206313,3.6998462999999995,-0.052132983,-0.24977407,-0.25614452
-10.555902,3.3990386,2.4275675,-0.11068878,-0.27319640000000006,-0.28169614
-11.207201,-0.23097342,0.7559739999999999,-0.17350318,-0.31897637,-0.2545388
-11.352079,-1.2645600000000001,-0.43169373,-0.21448351,-0.29394835,-0.2332458
-11.108024,-0.29775250000000003,-0.69259465,-0.22886503,-0.20451768,-0.22579324
-10.307192,0.77720577,-1.1134091999999998,-0.22992967,-0.13053317,-0.19704767
-9.633233,1.2436728000000001,-0.5926128,-0.15859807,-0.106569804,-0.17842501
-8.874674,1.2724895,-0.16474023,-0.06436774,-0.05227261,-0.20662953
-8.041108,1.0403668,-0.64276654,-0.010070549,0.07120943,-0.24815091
-7.2536554,0.89993256,-1.0025766999999999,0.028239427,0.27242845,-0.27211428
-6.872958000000001,1.0750349,-1.2022626,-0.16285667,0.29105112,-0.28221974
-6.8385487000000005,1.5995948,-0.9136943999999999,-0.3353301,0.18406242,-0.31841788
-7.2011075,2.1460187000000004,-0.7663456,-0.22780037,0.048310712,-0.2545388
-7.322943700000001,2.0534112,-0.77091384,-0.12398819,0.24261822,-0.22526965
-7.6842284,1.7826746999999998,-1.2108626,-0.0755553,0.6796661,-0.26892033
-7.7904353,1.372433,-1.5091228,-0.22141246,0.6945538,-0.33599332
-7.5015893,0.71109706,-1.7202531000000003,-0.42847833,0.47577676,-0.35993925
-7.287039999999999,0.5154046,-1.7891582,-0.15699236,0.12070697,-0.23750441
-7.306596300000001,0.5989909999999999,-1.6440599999999999,0.22252949,-0.22207569,-0.07035422
-7.7978864,1.0500586,-1.9915258000000002,0.43706536,0.1563815,0.0009424778
-8.509932000000001,1.3554821000000001,-3.6280584000000005,0.12831661,-0.08367108599999999,-0.059707712
-10.204538000000001,2.195981,-2.9758682,0.03408628,-0.056531213,0.06642723
-11.843091000000001,2.1152102999999998,-1.9704568,-0.039357174,-0.005427974,0.15959291
-11.062389,0.5820879,-3.1445637000000004,-0.043615777,0.08079129,0.17928022
-11.226269,0.32535285,-3.144803,0.006405358000000001,0.145735,0.18353882
-11.043312,0.43460506,-3.1604803,0.10009463,-0.05066691,0.20217894
-13.168818,-0.21664654,-1.6160382,0.19751891,-0.13583897,0.21389009999999997
-15.396689000000002,-0.9320052,1.423918,0.26192155,-0.21622884,0.22080160000000001
-13.893858999999999,-2.0607946,4.216467,0.36412805,-0.24923302,0.22879522
-12.393059,0.3811665,1.7524023999999998,0.52117276,-0.24178046,0.19898498
-12.151541,2.0938826,-0.8335844000000001,0.6436076000000001,-0.32375857,0.21121974
-12.925509,0.38166448,-0.08176678,0.6888465,-0.25722662,0.19737929
-12.601353999999999,-0.45403640000000006,-0.7575541,0.62816143,-0.14596188,0.21760765
-10.783992,-0.6608666999999999,-1.3072437,0.5350132,-0.058660515,0.24102996
-9.732171000000001,-0.50149906,-0.6663925,0.37903315,-0.028309241000000002,0.26977554
-8.916132000000001,-0.27052563,-0.32060274,0.2518161,0.14734070000000002,0.29639181
-8.065567,-0.3037763,-0.33616507,0.29440212,0.38475785,0.32887238
-7.382272,-0.47347733,-0.46697468,0.42055455,0.57265997,0.37304667
-6.951938,-0.86966026,-0.30789435,0.28640854,0.301174,0.32300809999999996
-6.824451400000001,-1.6257205,-0.07676768,-0.113882735,-0.30085987,0.22347195
-6.972461,-2.0637252,-0.80136806,0.044732787,0.060021874,0.28202775
-7.1094,-1.670061,-0.9796116,0.29440212,0.73502797,0.30970868
-7.252898700000001,-0.70538926,-1.5763519,0.24169320000000002,0.5854358000000001,0.27989846
-7.1044965,0.21067059,-2.2609402999999997,0.22945844,-0.20451768,0.24795893
-6.788059700000001,0.49324387,-2.4827297,-0.02391101,-0.09646435,0.14201744
-6.822814,0.29369193,-1.9696810000000002,-0.20331341,-0.6692465,0.10262536
-7.273699799999999,0.06372407,-1.9965056,-0.26825709999999997,-0.362086,0.02490585
-8.011085000000001,0.08390239999999999,-2.9104588,-0.2554813,0.40179226,0.021711895
-10.127474000000001,-1.1902056,-3.2142253,-0.29220300000000005,0.163293,0.017453292
-12.660031,-0.9429994,-1.224184,-0.274645,-0.08953539,-0.08686504
-11.206004,1.0004125,-2.0179002,-0.25813420000000004,0.04724606,-0.19652407
-11.486632,0.75940245,-4.0109487,-0.22354177,-0.025132742000000003,-0.21514674
-13.443048999999998,0.29996476,-4.6386127,-0.12505284,-0.14861478,-0.20343557
-11.933956,-0.9032460999999999,-3.2780644999999997,-0.10323623,-0.15608479,-0.19811232
-14.542707,0.6941556999999999,-0.780414,-0.119729586,-0.23858652,-0.22046999999999997
-14.037913,4.380412000000001,1.9109273,-0.13624041,-0.2785022,-0.25082126
-11.088372,3.9709557999999996,1.7879418999999999,-0.1388933,-0.2742436,-0.27583185
-10.576252,0.578238,0.7330854,-0.15753342,-0.24125686,-0.24178046
-11.110064,-0.37250906,0.04229118,-0.17189747,-0.20292944,-0.19811232
-10.945141,0.20292296,-0.47932875,-0.16231562,-0.23273966,-0.15926129
-10.951758,0.36833355,-0.86506337,-0.15592772,-0.13690363,-0.13316862
-10.529297,0.8238639000000001,-0.9582649,-0.13995795,-0.06558947,-0.13477433
-9.769817,1.2206503,-0.30346027,-0.07661995,-0.0352382,-0.18001325
-9.067091,0.9384696,-0.62961763,0.028239427,-0.0070162233999999995,-0.23804545
-8.247786,0.7900961,-0.68546957,0.09531243,0.04405211,-0.2832844
-7.3695254,0.81829983,-0.5530893,0.10861184,0.17500417,-0.27317894
-6.7989679999999995,0.77551067,-0.66381633,-0.104824476,0.20854940000000002,-0.20397663
-6.791546,1.4866556,-0.99225295,-0.20011945,0.26604053,-0.17416641
-6.97836,1.8197465,-1.2962017,-0.16018632,0.19524999,-0.13529792
-7.130976700000001,1.6479578000000001,-1.3908684,-0.15221016,0.24420647,-0.15606734
-7.310934,1.1986523999999998,-1.6591531000000002,-0.23045327,0.5550845,-0.26199138
-7.4188557,0.6507344,-2.0866043999999997,-0.21076596,0.9548696,-0.36421529999999996
-7.318902499999999,0.25364172,-2.0584580000000003,-0.4045324,0.5476494000000001,-0.4126482
-7.6318529999999996,-0.014978126000000001,-1.7244381000000002,-0.28794440000000004,0.34747759,-0.32960543
-8.161891,0.11617625,-1.3945937,-0.044139378,0.11325441,-0.16404349999999998
-8.664875,0.7614519000000001,-1.7609737,0.29705504,0.18936822,-0.004886922
-9.027165,1.4286106,-2.7400298,0.44238859999999997,0.107948616,-0.0016929694
-10.695205,2.405646,-2.0760794,0.30024898,0.0030717794,-0.038414698
-12.164633,1.6934189,-2.6352022,0.32314770000000004,0.013194689499999999,0.03396411
-11.173155,0.33580115,-5.1537967,0.27204448,0.01425934,0.055780724000000004
-10.30972,0.72956115,-4.457745,0.18154915,-0.09379399599999999,0.029705504
-11.093562,1.2982512,-2.3373826,0.17941985,-0.15554374,-0.0016929694
-11.349454,0.42172426,-3.5111830000000004,0.22891739,-0.10498156,0.012671091
-12.967483999999999,-0.08460151,0.26682898,0.28801423,-0.06611307,0.058974676
-13.375476,-2.8762887000000004,2.1658235,0.32686526,-0.102852255,0.11061897
-14.324882,-2.1886832999999997,3.8109273999999997,0.3151541,-0.11456341,0.15053464
-12.845638000000001,1.5543348999999997,0.22313960000000002,0.28002062,-0.14542083,0.18833847
-12.261751,1.1587936,-1.2234371000000002,0.30557224,-0.15502015,0.21814871
-12.590772,-0.52395666,-0.6510984000000001,0.37318629999999997,-0.12362167,0.26071727
-11.803348,-1.1277361000000001,-2.0599901999999997,0.39500290000000005,-0.053878315,0.30171508
-9.896672,-0.9312007999999999,-1.6810648000000001,0.32260665,-0.042167153,0.33206636
-8.510046,0.004156334,-0.5262168,0.24010494,0.036599554,0.34749505
-7.480989999999999,0.15561354,-0.54065865,0.2816263,0.27029914,0.4023333
-7.172511,-0.33546597,-0.87444866,0.39873790000000003,0.43477896,0.46354198
-6.8292303,-0.7513388000000001,-1.1478856000000002,0.37850955,0.22984241,0.46886525
-6.570121,-0.9891501,-1.3584222,0.17516124,0.01956514,0.3480361
-6.6783094,-1.0976169,-1.4618995000000001,0.16397369,0.31873202,0.28468066
-7.0919223,-1.1674318000000001,-1.135972,0.10915289,0.63866836,0.31607914
-7.604415400000001,-1.0516961999999999,-1.2750274,0.033562682999999996,0.31127948,0.25699973
-7.670696700000001,-0.67687917,-2.1622898999999998,-0.18414968,-0.1555612,0.19577359
-7.3950377000000005,-0.48726794,-2.8956242000000003,-0.44924775,-0.411601,0.055257123
-7.0707580000000005,-0.5121485,-3.0759747,-0.6041456999999999,-0.5271069,-0.08580039
-7.066831,-0.42792046,-2.838738,-0.59829885,-0.004363323,-0.012339477
-7.5293527000000005,-0.36563290000000004,-3.1242034,-0.23099433,0.082920596,0.19844393
-9.107313000000001,-1.4374307,-2.7099203999999997,0.09264208,-0.20664698,0.10101966
-11.803969,-0.9123344999999999,-0.87165225,0.054314647,-0.2364572,-0.0352382
-12.146849000000001,0.8983810999999999,-3.3183540000000002,-0.116535634,0.0052010813,-0.11400491
-12.477219999999999,1.0941598,-4.767181,-0.20490165,-0.046949357000000004,-0.11454595599999999
-12.884339,-0.15611152,-4.512246599999999,-0.22247712,-0.14011504,-0.09538224
-13.663125,-0.16350482,-2.6633196,-0.17402677,-0.22155209,-0.10602875
-15.502245000000002,2.9705052000000003,-0.38020879999999996,-0.15433946,-0.34026940000000006,-0.15234978
-12.677557,2.902577,-0.84228015,-0.18627898,-0.39563122,-0.17894861
-9.6032095,-0.3740988,-0.39229473,-0.23364723,-0.4249004,-0.19600047
-10.663707,0.1933653,1.5243499,-0.21661282,-0.38659042,-0.17203711
-11.3248415,0.8644026,0.48655924,-0.23151793,-0.32908183,-0.14275047
-10.532323,0.56846964,-1.3716955,-0.19851375,-0.30300662,-0.1118756
-10.700578,0.76081985,-1.5186995,-0.12931144,-0.15022048,-0.13849187
-10.342855,0.8754063,-1.580039,-0.08620181,-0.03843215,-0.17894861
-9.828753,0.9422908000000001,-1.152358,0.027698375,0.037140608,-0.20717058
-9.153474000000001,1.0173729999999999,-0.92505246,0.15280357,0.10634291,-0.22101104
-8.211594999999999,0.8778867,-0.9132443000000001,0.19591321,0.057892572,-0.23752186
-7.330901600000001,0.8852513000000001,-0.92195916,0.056985,0.07812094,-0.23698081
-6.795577499999999,1.1357039,-0.93645847,-0.09046041,0.15849335,-0.23165755
-6.734832000000001,1.4642171999999998,-0.8068364,-0.19373155,0.022235493999999998,-0.20237093
-6.5998087,1.5909853,-1.1724789,-0.16018632,0.03181735,-0.19387117
-6.688872999999999,0.8525752000000001,-1.3797593000000001,-0.26132816,0.25220007,-0.21835814
-6.7479043,0.49932513,-2.160317,-0.30445522,0.7190582,-0.25614452
-6.692713,0.25180298,-2.4465103,-0.36194637,0.7025299,-0.25668558
-6.7885100000000005,0.20779754,-2.020237,-0.19586085,0.30382693,-0.19280653
-7.252305000000001,0.71066606,-1.8579197,0.11074114,0.13667673,-0.04321435
-7.793614999999999,1.2705357,-1.5487803999999998,0.028239427,-0.045361105,0.008936086
-8.369660000000001,1.1756775,-2.6445491000000003,0.041015237999999996,0.08079129,-0.0400204
-9.928937,1.4743302,-2.69499,-0.08087855599999999,-0.029932396,-0.017662732
-11.965866,2.5430443,-2.5109717999999996,-0.12772319,-0.07942993,0.06429793
-12.2826185,1.9061868000000002,-2.6960435,-0.084596105,-0.06026622,0.10847221
-11.612318,0.40922654,-4.4501599999999994,-0.08513716,-0.106569804,0.08984955
-11.388566,0.46139140000000006,-3.516431,-0.09630727,-0.16140805,0.06323328
-12.189293,1.1297281000000001,-1.9280313999999998,-0.09791297,-0.19814722,0.04939282
-13.811192499999999,0.16440505,-1.6318687,-0.17776178,-0.22581069,0.060580377000000005
-14.047749,-0.40266642,0.05329493,-0.21395992,-0.21303488,0.08506735
-11.922463,-0.6587980999999999,1.0001921999999999,-0.17137387,-0.20238838,0.11486012
-11.260563000000001,0.68473214,1.3219441,-0.079813905,-0.20825268,0.15479325
-12.1246395,0.29063693,-0.59325445,0.030368729,-0.17523105,0.20909044
-12.1539545,-0.54839665,-0.5226255,0.09157742599999999,-0.17257816,0.2186723
-11.556275,-0.3435871,-0.8769099,0.13896312,-0.19760618,0.24902357
-10.16105,-0.6058288000000001,-1.6172737,0.16557938,-0.11082841,0.30171508
-9.240556,-0.41801804,-0.9673341000000001,0.15652113,-0.014486233000000001,0.3379132
-8.729269,0.16032532,-0.8777908999999999,0.104353234,0.16702801,0.38954005
-8.074579,0.14423628,-1.0919762,0.13203415,0.40922734,0.4049862
-7.444300699999999,-0.10885957,-0.87333775,0.30024898,0.5944765999999999,0.46141270000000006
-7.13248,-0.46291409999999994,-0.8549120000000001,0.39500290000000005,0.4124213,0.54445547
-7.006277000000001,-0.9437943000000001,-0.7029759,0.12777555,0.12337732,0.39540434
-7.162599,-1.3314347,-0.94155335,0.16132078,0.3623827,0.29639181
-7.128773700000001,-1.5936955,-1.1332618,0.18633135,0.44436082,0.32567844
-7.163212,-1.5856128,-1.4819916000000002,0.321542,0.12018337,0.28148670000000003
-7.084347200000001,-1.3673764,-1.8573258999999998,0.11499974,-0.2907544,0.24582963
-6.7876,-0.63959664,-2.464706,-0.25494024,-0.7176794,0.06908013
-6.6617417,-0.4231608,-2.58252,-0.35875243,-0.53881806,-0.10709339999999999
-6.807442999999999,-0.52736604,-2.4402470000000003,-0.2517463,0.25591764,0.06749188
-7.937257300000001,-1.0277733,-2.7762206000000003,-0.034557517999999995,0.42147955,0.20909044
-9.641326,-1.1401379999999999,-2.3023027999999996,0.187396,0.020106193,0.03981096
-12.104108,-0.29487947,-2.300828,0.27150342,-0.0980526,-0.08206538
-12.011461,0.37255695,-3.9835207,0.2651155,-0.11562806,-0.11454595599999999
-12.638512,-0.37905002,-3.6803572,0.23052308,-0.14756759,-0.11454595599999999
-12.936715,-0.60890293,-2.4531276,0.23052308,-0.14224434,-0.11454595599999999
-15.476779999999998,3.0858578999999997,-1.4527537,0.21720622,-0.26839674,-0.17043139999999998
-16.371187,7.269907000000001,1.0249386,0.20177752,-0.38763762,-0.22366394
-11.460967,2.1050205,-0.25835349999999996,0.16238543,-0.4648161,-0.26146778
-9.593116,-2.0530472,0.8060607,0.13629276,-0.5351005,-0.24762732
-11.509051,-1.3831208000000002,0.7616434,0.067631505,-0.43767622,-0.20717058
-11.910483000000001,0.8353944,-0.82498443,-0.029775318,-0.40573668,-0.15713198
-11.328769,1.8573643,-1.3766469,-0.04201007599999999,-0.3040538,-0.12519246
-10.705672999999999,1.5531954,-1.6533208,-0.039357174,-0.17257816,-0.15393804
-9.863613,1.3301227,-0.87106806,-0.029775318,-0.030455995,-0.20662953
-9.034271,1.1131792999999999,-0.7494426,0.023980823999999998,0.049375363,-0.25240952
-7.957388000000001,0.9686556999999999,-0.79934734,0.090512775,0.11218976,-0.263056
-7.0391636,0.98355716,-0.95151323,0.052185345,0.20322613,-0.24549802
-6.4164224,1.2401198,-0.9844478999999999,-0.069690995,0.35175365,-0.22046999999999997
-6.199833,1.739148,-0.9283948000000001,-0.20596631,0.22558379999999997,-0.22898720000000003
-6.58257,2.349746,-1.3018328000000001,-0.24377014,0.112730816,-0.28647834
-6.6719217,2.320307,-1.392755,-0.31403708,0.19577359,-0.34663984
-6.873389200000001,1.5323848999999998,-1.3510768,-0.30178487,0.9090896,-0.37006217
-6.8345075,1.0424641,-1.911952,-0.14369296,0.7094589,-0.41104248
-6.743556,0.8538011000000001,-2.1375432,-0.37791613,0.20216149,-0.44671702
-6.937429400000001,1.1181018,-2.2960587,-0.16711527,0.16118115,-0.32267648
-7.347642,1.6369253000000001,-1.589453,0.013857913999999999,0.029688051,-0.16032594
-8.17618,1.5584049999999998,-2.3943455,0.2736327,0.16650441,-0.0070162233999999995
-9.739708,1.7495389,-2.451538,0.2736327,0.06482153,0.017453292
-11.502588000000001,2.3815413,-2.958266,0.16503833,-0.043755405,0.03715806
-11.851835000000001,1.8674581000000001,-3.4146392,0.12245230000000001,0.023300145,0.09836676
-10.783014999999999,0.75619423,-5.2452745,0.018116517,0.005742133000000001,0.0946492
-10.460372999999999,1.5493643999999998,-2.771547,-0.10323623,-0.11986921,0.05258677
-11.782728,1.8707334,-2.9032473999999997,-0.16817993,-0.21197024,0.031834807
-11.925365,0.23317608,-2.1806200000000002,-0.18308504,-0.24017476,0.054716073
-13.340539999999999,-1.6115371,1.5818491000000001,-0.12505284,-0.15180874,0.10264281
-14.332917000000002,-2.9326863,2.9751787,-0.020717058,-0.09698795,0.18353882
-14.210506,-0.17353174,1.8484578,0.12299335,-0.092729345,0.2532822
-13.052824000000001,2.3157772999999997,-0.46052948,0.23371704,-0.12573352,0.2830924
-12.299339999999999,0.9962752,-1.1278796,0.28002062,-0.13105677,0.28202775
-11.602302,-0.40542454,-1.2596948000000001,0.27682668,-0.17790142,0.29693288
-10.419595,-0.7795425,-2.1027987,0.2502104,-0.10389945,0.30225609999999997
-9.114925999999999,-0.09489658,-1.6020370000000002,0.22359413,-0.09431759,0.34538320000000006
-8.048166,0.42857167,-1.0055169,0.30717796,0.073879786,0.43320817
-7.232711,0.33279404,-0.45183375,0.48549825,0.4763178,0.48165852
-6.7924557,-0.17945978,-0.27777526,0.547248,0.5455201,0.45875978
-6.7913255999999995,-0.8668254999999999,-0.44295606,0.3822271,0.27989846,0.40180970000000005
-7.027825,-1.3295481000000002,-0.5980045,0.16983798,0.16491616,0.29906216
-7.0247693,-1.5983787,-1.0165684000000001,0.086795226,0.5481729999999999,0.26977554
-7.0200105,-1.561891,-1.2451093,-0.032428216,0.6125931,0.3065147
-7.002207,-1.1890466999999998,-1.8945221999999997,0.05857325,0.0041538836,0.28576276
-7.131187,-0.77619064,-2.2100875,-0.09843657,-0.40093702,0.19153243
-7.440489299999999,-0.596884,-1.9257808999999997,-0.28955013,-0.6889164000000001,0.0068242373
-7.253847,0.00014365209999999998,-1.3959727,-0.33265975,-0.40519562,-0.07408923
-7.6207633,0.33186507,-2.4245985,-0.04787438,0.1579872,0.07496189
-8.832479,-0.33968934,-3.5740163000000003,0.14002776,0.06429793,0.11061897
-10.670861,-1.3741856000000001,-3.2814546,0.11979939999999999,-0.11665781,-0.07993608
-12.07507,0.46741520000000003,-3.1858206,0.10754719,0.00041887903,-0.20289452
-11.108139,0.7214975,-5.674057,0.10222393,-0.11081095,-0.23750441
-13.398709,0.5797033,-4.4200697,0.12564625,-0.24495696,-0.2247286
-13.658279,0.31285512,-2.1166947,0.115540795,-0.27211428,-0.24921556
-14.268082000000001,2.701895,-1.0979905,0.06602581,-0.32639402,-0.30243066
-14.036226999999998,4.5974994,0.706912,0.04207989,-0.34184018,-0.28434905
-11.92255,1.6320411,1.2810704,-0.016458455,-0.37910298,-0.25240952
-11.456992,-1.8237782999999999,0.8288918,-0.15753342,-0.36580357,-0.19863592
-11.429056,-1.508213,-0.4506175,-0.24429373,-0.2934073,-0.15020303
-11.456245,0.6891086999999999,-1.0786357,-0.23525293,-0.20554742,-0.112399206
-11.257374,1.1956643,-1.0633224,-0.21502456,-0.09803514,-0.14062117
-10.1467705,1.192504,-1.3349495,-0.18202038,-0.05651376,-0.18107791
-9.547329,0.7651677,-0.63881135,-0.0718203,-0.01870993,-0.21514674
-8.484045,0.6144670999999999,-0.7152151,0.015463616999999999,0.021711895,-0.24495696
-7.3075633,0.90140736,-0.43763134,0.050597094,0.0946492,-0.25719172
-6.781385,1.5472671999999998,-0.40711963,-0.02391101,0.16543975,-0.24228661
-6.4740839999999995,1.996994,-1.0230423,-0.24377014,0.16491616,-0.25719172
-6.4694777000000006,2.5693327999999998,-1.6025254,-0.25015804,-0.05173156,-0.24282765
-6.6602473,2.2229397,-0.9929425,-0.054262288,0.042481314000000006,-0.26890287
-6.983608199999999,1.2185816999999999,-0.96249783,-0.057979837,0.64400905,-0.29391345
-7.12275,0.85056406,-1.7487728999999999,-0.12185889,0.81754714,-0.33437017
-6.9105086,0.7642196,-1.815389,-0.35342917,0.34431854,-0.39292598
-6.895214999999999,0.5657499,-1.3807074,-0.25441664,0.26392868,-0.28700194
-7.036539599999999,0.61824036,-1.4986266000000001,-0.052656583,0.1510757,-0.15498523
-7.8118777,0.4013927,-1.6877971999999999,0.08998918,0.23146556,-0.024033183
-8.663074499999999,0.4120804,-3.3425736000000006,-0.0015533429999999998,0.043022364,-0.042655847999999996
-10.06915,1.7846284,-4.281532,-0.14369296,-0.14646803,0.022794
-11.97505,2.5758355,-2.5794172000000004,-0.18573794,-0.019250982,0.07442084
-11.489181,0.5210166,-3.1746347000000004,-0.21661282,0.0015009831,0.078155845
-10.817674,0.18199764,-4.164436,-0.1974491,-0.014992378999999998,0.06592108
-11.601467999999999,0.8057542,-2.6793704,-0.13304645,-0.050125855999999996,0.0786969
-12.306072,0.004003105,-2.8984012999999997,-0.15060446,-0.09909979,0.106901415
-13.989838,-0.809154,1.1106893,-0.14582226,-0.11400491,0.13086478
-14.656489,-1.1952333,2.6374621,-0.09524262,-0.079395026,0.17503907
-13.968243,0.9315839,2.1472830000000003,0.009075712,-0.06928957,0.2133665
-13.364873999999999,1.9944562,-0.20127574,0.12884021,-0.10388199999999999,0.22987731
-12.394418,-0.16507542,-0.7235948,0.22146483,-0.054367005999999996,0.21762510000000002
-11.775335,-0.93755025,-0.7561846999999999,0.33911747,-0.051173054,0.22828907
-10.972866,-0.57987565,-1.4856979,0.37051594,-0.034679692000000005,0.27937484
-9.523569,-0.12899959,-0.78335404,0.3380528,-0.023492131,0.33101913
-8.612527,0.39054218,-0.15980819,0.24010494,-0.051714107,0.35444146
-7.9087477,0.27298690000000003,-0.25385243,0.16770868,0.11541862,0.37306413
-7.28705,-0.3018897,-0.080655865,0.22252949,0.33580133,0.42151445
-6.991519,-0.86924845,-0.28182626,0.36573374,0.44813073,0.4832642
-6.878599,-1.4464521000000001,-0.66304064,0.3343178,0.13512339,0.40287435
-6.881711500000001,-1.8717868000000002,-0.9157533999999999,0.18420205,0.039828412,0.23040092
-7.075373599999999,-1.8173715,-0.86275536,0.21881193,0.51572734,0.28843309999999994
-7.4558789999999995,-1.5631073,-1.3229688,0.24649285,0.8308639999999999,0.34431854
-7.544532000000001,-1.1491498,-2.2033455,0.20923007,0.55618405,0.2799159
-7.5449532999999995,-0.4799321,-2.6975279999999997,0.15119787,-0.18160151,0.26021114
-7.3005433,0.20331562,-2.8785486000000002,-0.28794440000000004,-0.30935959999999996,0.13564698
-7.1212277,0.10461704,-2.6311607000000006,-0.37098718,-0.7889761,0.10585422
-7.4078326,0.19425595,-2.2959914,-0.26080456,-0.5142962000000001,-0.02401573
-8.312831,0.029908367,-2.1717037999999995,-0.17935003,0.13992305,0.021746803
-10.414145,-0.6981684,-1.5007911,-0.117600285,0.16013396,0.012164945
-12.255899000000001,0.3294517,-2.2599635,-0.14156365,-0.121963605,-0.12409291
-10.598863,0.677607,-5.354527,-0.0755553,0.06112143,-0.22471114
-11.069994,-0.2941995,-5.6572113,-0.031887166,0.0009948377,-0.24972170000000002
-13.213885999999999,0.1990252,-4.739743700000001,-0.015393803999999999,-0.1757372,-0.24706881
-12.159144,-0.54804236,-4.5549307,0.023439772,-0.27740264,-0.26462683
-13.394649,1.4279306999999999,-2.1549252999999995,-0.007941248,-0.3018896,-0.31785935
-13.679070000000001,5.326007,2.4720132,-0.10428342,-0.37800342,-0.35777503
-11.828419,4.0571660000000005,3.0276403,-0.22725932,-0.39824924,-0.32798228
-11.448526,-0.2858102,0.46856442,-0.34808847,-0.29230773,-0.28965485
-11.434277,-1.4512885,-0.80060184,-0.32361895,-0.34075809999999995,-0.21565288
-11.51791,-0.39092526,-0.87979245,-0.30604348,-0.25239205,-0.17732546
-11.058836999999999,0.84476054,-1.4161128,-0.29539698,-0.15657349,-0.19277161
-10.297854,0.95367754,-1.6112307,-0.24642304,-0.06501351,-0.22204079
-9.517833,0.88741565,-0.81332946,-0.15805702,-0.048502699999999996,-0.26143286
-8.401810000000001,0.7813525,-0.6663829000000001,0.003228859,0.09360201,-0.27049112
-7.213433,0.9731568000000002,-1.0874273,0.019198623,0.13992305,-0.25982717
-6.5434585,1.8519915,-1.2065628000000002,-0.16444492,0.24319418,-0.26089182
-6.558284,2.2221544,-1.5617473,-0.31456068,0.227748,-0.29230773
-6.9917107000000005,2.3357639999999997,-1.3111031000000002,-0.28740337,0.1383348,-0.27262044
-7.409968400000001,1.4728842,-0.972247,-0.16657422,0.28098056,-0.27262044
-7.3102255000000005,0.8558888000000001,-1.4783046999999998,-0.37257543,0.35445893,-0.2875081
-7.236934,0.7527753,-2.173552,-0.3491531,0.9352171999999999,-0.28804913
-6.946498399999999,0.41702205,-2.1216936,-0.36725217,0.6626666,-0.25452137
-6.656417,0.19674593,-1.7900009999999997,-0.32414255,0.42366123,-0.26621506
-6.9766655,0.5336963,-1.1942756,-0.12131783,0.028658306,-0.14964452
-7.472275,0.84897435,-2.7453928,-0.03668682,0.15643387,-0.06925467
-8.293639,0.9900406999999999,-3.5024107000000004,0.14748032,0.22403046,-0.03572689
-10.625458,2.4150407000000005,-2.66014,0.2773677,0.10266027,0.06380924
-12.555797,2.800287,-2.410099,0.17516124,-0.032515485,0.13301153
-11.868441,0.7071323,-4.0878506,0.12938125,-0.05169665,0.13725269
-10.747189,-0.23692062,-5.753343,0.1150172,-0.04956735,0.10372492
-10.536298,0.78769237,-3.5585692000000004,0.08414232,-0.16454963,0.09201376
-11.25474,2.0161860000000003,-1.5474492,0.08360127,-0.21617648,0.11384783
-13.069554,0.1560828,-1.5664496,0.14695673,-0.16348499,0.1425934
-13.240711,-2.24375,0.7238534000000001,0.20551252,-0.15762068,0.17186257
-11.747515,-2.969059,2.257531,0.20764183,-0.16242033,0.20486675
-12.944549,-0.6560783,0.9160406999999999,0.21402973,-0.18476056,0.23893557
-13.9296,0.49536990000000003,-0.2566297,0.2539454,-0.1741315,0.26022860000000003
-13.429220999999998,0.06200025,-1.7479588,0.3726627,-0.13365729999999998,0.29164450000000003
-12.180377,-0.5535778,-1.5456775,0.48178068,-0.091088735,0.30442032
-10.585149000000001,-0.92675716,-1.8561957999999998,0.45783478,-0.06340781,0.3310366
-9.377877,-0.46158296,-1.0537553,0.33646458,-0.011763518999999998,0.33901274
-8.191607000000001,0.10027875,-0.4715428,0.17941985,0.06806784,0.34752995
-7.108873,-0.07096414,-0.2359821,0.21083577,0.26183429999999996,0.38426915
-6.491552400000001,-0.53242254,-0.8575456,0.34976399999999996,0.37788123,0.43750167
-6.303999999999999,-1.0407212,-1.2701911,0.38011527,0.15323989999999998,0.44975388
-6.546111,-1.1466886,-1.4479845,0.3034604,0.09787806,0.38107517
-6.912586699999999,-1.3210343,-1.2589,0.3018547,0.3336895,0.35339427
-7.4147563,-1.5112298000000002,-1.0997238999999999,0.24010494,0.60039324,0.3123965
-7.6301103,-1.4405528,-2.0433936000000004,0.18154915,0.41034436,0.23734732
-7.740377400000001,-1.0976553,-2.8388815,0.047944195999999994,-0.2960253,0.23893557
-7.460696,-0.31955890000000003,-3.1853225,-0.3688579,-0.5313131,0.1404641
-6.905615299999999,0.06571605,-3.129164,-0.7340331,-0.872525,0.024417156000000002
-6.9087369999999995,0.42358217,-2.6126103,-0.66376615,-0.44933500000000004,-0.08257153
-8.050523,0.08660307,-2.6444247000000005,-0.46520007,0.15004596,0.04464552
-9.810308000000001,-1.1344493999999998,-2.3319522999999998,-0.33691835,0.19050269,-0.0075049159999999995
-11.764216000000001,-1.3813107,-2.0919385,-0.25281096,-0.0490263,-0.15549138
-11.189022999999999,-0.018789696,-4.401443,-0.23204152,0.06700319,-0.24863960000000002
-11.740791999999999,0.041170694,-5.61719,-0.25865778,0.08670796,-0.28005552
-13.287004999999999,0.38547605,-5.3164783,-0.21181315,-0.07031932,-0.29337240000000003
-13.936782000000001,-0.013311761,-3.8609757000000005,-0.107477374,-0.13632767,-0.27260298
