accx,accy,accz,gyrx,gyry,gyrz
-5.328593,-0.6241588,0.028682537,0.05368633,0.36543703,0.5770930999999999
-5.9274306,-1.1034108,0.24231236,0.40341540000000004,0.106726885,0.37215656
-6.924721000000001,-1.7323103,0.068627395,0.33527774,-0.53258723,-0.09946632
-7.354853599999999,-1.6000259,-0.28553249999999997,0.09892526,-0.60711277,-0.10267772
-7.694811,-1.0336056,-0.039734174,-0.2534567,0.13069025,-0.10904817
-7.069963,0.014432248,-0.13805924,-0.26729718,0.319116,-0.20167279
-7.424027000000001,1.3841933000000002,-1.1183412,-0.13899802,0.14292501,-0.33848915
-9.722949,1.6465404,-1.901657,-0.14912093,0.007173303000000001,-0.27406904
-13.0127735,1.8472224,-3.521114,-0.26303858,0.030072022,-0.028134707000000002
-12.670910000000001,0.8858450000000001,-4.636103599999999,-0.39451423,0.12430235,0.20074777
-11.618409,-1.7502955000000002,-1.4970177,-0.48235664,0.10937978,0.32796479999999995
-14.162507999999999,-0.81728464,3.0476656,-0.5547529,0.031136672999999997,0.39770818
-18.485870000000002,2.2050982000000006,3.5132897000000005,-0.5414359999999999,-0.018360863999999998,0.46424013
-14.228616,4.265806700000001,4.7839599999999995,-0.46371654,-0.0652055,0.43497095
-10.118078,1.0879827,3.3399591,-0.37695622,-0.2563016,0.33222342
-11.3571825,-0.2401097,3.0242693,-0.34608135,-0.42664573,0.14964452
-13.005016,-0.19764613,2.08602,-0.38652062,-0.51075315,-0.021205751000000002
-12.297367,-0.15754806,1.0483539000000002,-0.45254642,-0.5070356,-0.19741419
-10.815385000000001,0.119030125,1.2385972,-0.52600735,-0.34840262,-0.34220672
-9.171783999999999,0.74694306,0.61112475,-0.7064569,0.042847835,-0.35604715
-7.7040143,0.8109448,0.49898994,-0.72987926,0.21319197,-0.30229104
-6.3824629999999996,0.5795691999999999,0.31288385,-0.4227362,0.17858209,-0.25970498
-5.2832565,0.21938549,0.4093319,-0.09428269,0.24884905,-0.24799383
-4.799685,0.27964276,0.5453416999999999,0.041434117,0.40215877,-0.49764574
-5.092524500000001,0.76589555,0.42872489999999996,-0.11079349999999999,0.4096113,-0.68875927
-5.807998,1.4028393,0.26815059999999996,-0.24387486,0.25843089999999996,-0.28419197
-6.4213734,1.8580921000000001,-0.23772508,-0.32052973,-0.34360296,0.07937758
-6.71859,1.9178321,-0.25130498,-0.038920842000000004,-0.33508575,-0.007906342
-6.538804,1.0047123,-1.350617,0.32836625,0.19350465,-0.16228071
-6.3705206,0.037205893999999996,-2.1646360000000002,0.30813786,0.35585517,-0.122365035
-8.629144,-0.050852842999999995,-0.75589734,0.20380209999999999,0.20999801,0.0490263
-12.582400999999999,-0.10801680400000001,0.7753574000000001,0.17186257,0.03965388,0.07564257
-14.075014000000001,-0.02570415,-1.7824064,0.19900244,-0.04017748,-0.002042035
-11.338757000000001,1.0258197,-3.8641074,0.21710149999999998,0.0055850535,-0.2054078
-11.64803,1.6515394,0.052433018,0.24797638,0.019966567,-0.34007740000000003
-18.602802,-0.7613466,2.5742838,0.21498966,0.042847835,-0.37946948
-19.741083,-3.0418427,4.437634,0.07017968599999999,0.022619467,-0.33742452
-12.434842,-2.6658957,6.732246000000001,-0.13528048,-0.0055676005,-0.2879095
-8.202699,0.26791117,3.62146,-0.33224088,-0.03005457,-0.24054128
-9.963039,1.5852008999999998,1.4983776000000002,-0.41474259999999996,-0.061470497,-0.17027432
-11.7378235,0.49997634,1.4289937,-0.28804913,-0.045500733,-0.06593854
-11.713114,-1.2670881999999999,1.815073,-0.027209682000000002,-0.030595621,0.07244862
-10.415439,-1.2261376,1.8108686999999999,0.27300440000000004,-0.0055676005,0.25450389999999995
-9.011775,-0.86768746,1.2707465,0.52159166,0.05401794,0.410484
-8.130728,-0.5867135,1.199993,0.53810245,0.071593404,0.46691048
-7.2793117,-0.06870401,0.56869954,0.103183866,0.034854226,0.33808774
-6.823656599999999,0.3100108,-0.04374685,-0.11931071,-0.08702212,0.2326873
-6.228190000000001,0.050000507,-0.49937302,0.014817845,-0.060946897,0.38119736
-5.847972,-0.64734423,-0.53023905,0.09307841,-0.07424631,0.297631
-5.9134293,-1.417693,-0.33073503,0.17292722,-0.33882076,-0.23628268
-6.434446,-1.8589442999999999,-0.28779262,0.20539035,-0.46816713,-0.2879095
-6.961237400000001,-2.3377368,-0.45597089999999996,0.10850712,-0.0061086523,0.19381881
-7.2829604,-2.831718,-0.26367822,0.13779375,0.032742377,0.11290534599999999
-6.872183000000001,-2.4711703999999997,-0.02567542,0.33953634,-0.25949556,-0.27886869999999997
-7.5467343,-0.59742033,-0.6127431999999999,0.38266343,-0.24778439,-0.23680627
-10.284925,0.26771006,-0.8806736,0.28578022,-0.12267919999999999,0.057019908
-14.3901005,1.8380287,-2.297629,0.18835594,-0.098733276,0.2534567
-12.987492,0.34365416,-3.5690462999999997,0.04782202,-0.04923574,0.30827752
-13.490867999999999,-1.8243339,2.2863476,0.026005406000000002,-0.06679375,0.34074062
-17.699854000000002,-0.40471584,2.9413152,0.053145275,-0.08222246,0.45413467
-16.815369,0.40587464,4.139996,0.12288863,-0.072658055,0.4967207
-11.099835,-0.69689465,2.1106706,0.15482816,-0.1865757,0.48872709999999997
-10.431364,-0.53962433,3.5611260000000002,0.07124434,-0.25150195,0.40249038
-13.819898,-0.1131404,3.9104593,-0.18425441,-0.31379274,0.2390752
-13.743991000000001,-1.1201321000000002,2.6153877,-0.44135886,-0.33189179999999996,0.017104227
-11.199616,-0.40170875,2.4985507,-0.55208254,-0.2956937,-0.18730873
-9.40746,0.9056116,1.3558651000000002,-0.6095736999999999,-0.2003987,-0.33049554
-7.911639699999999,1.1287704,0.6402383,-0.63618994,0.06574655,-0.3858574
-6.9409056,0.84068084,0.6470281999999999,-0.40941933,0.17221163,-0.29003882
-5.7385855,0.46613193,0.54398173,-0.076183625,0.24619615,-0.20380209999999999
-4.834803,0.15395674,0.57021266,-0.009110618000000001,0.5203525,-0.28258625
-4.5449033,0.5797033,0.072860345,-0.27633798,0.8019439,-0.59932864
-4.615025,1.4094665000000002,-0.77168953,-0.76501274,0.6363819000000001,-0.6440439
-5.2069483,2.3180757,-1.4843763,-0.6058561,0.36808994,-0.0073827426000000005
-6.528414,2.5226936,-0.9201204,-0.54195964,-0.42823398,0.20341812
-7.797962700000001,2.1528661000000002,-0.3803716,-0.011239921000000002,0.14931291,-0.08562585
-7.447653,1.1160235,-1.1056902,0.07178539,0.45006806,-0.11543608
-7.501139,-0.41721359999999996,-0.102558024,0.011623893,0.255778,0.12674580000000002
-10.230185,-1.0364403,1.3839252,0.079237945,-0.09820968,0.19542451
-12.606286,-0.9033514000000001,-0.2812804,0.18516198,-0.21530381,0.01282817
-10.849881,0.60694927,-3.5393962999999995,0.34433600000000003,-0.25204299999999996,-0.23893557
-8.892619999999999,3.1248259999999997,-4.4351726,0.58601177,-0.17538814,-0.4092797
-13.393892000000001,2.7760959,3.1983947999999995,0.70151764,-0.12161454,-0.4641005
-21.700346,-0.90289176,2.7770536,0.6674488000000001,-0.051888637,-0.43057272
-18.2071,-5.440814,8.357880999999999,0.50083965,-0.027925268,-0.30440290000000003
-8.875114,-2.7161932,4.8963339999999995,0.26981044,-0.10992084,-0.20273745
-10.362162,0.62760645,2.0625856,0.1558928,-0.13334316,-0.16228071
-14.492237,0.5910422,2.4012119999999997,0.16441001,-0.12482595,-0.096272364
-13.19638,-0.1614075,2.0013897000000003,0.33527774,-0.11470304,0.008045968
-10.213271,-0.29210216,2.3370952999999997,0.59079397,-0.09553932400000001,0.14112732
-8.611647,-0.7657615,2.2279482,0.72548103,0.015166911000000002,0.26940903
-7.845521499999999,-1.0599896999999998,2.164339,0.7132288,0.27867672,0.33169982
-6.6968217,-0.93552953,1.4569005,0.35285320000000003,0.2515194,0.26195645
-6.202687,-0.6083188,0.4947474,-0.16348499,-0.016231561000000002,0.18636626
-6.283525,-0.26274925,-0.41588240000000004,-0.12037536,-0.13812536,0.37906805
-5.7903385,-0.43970950000000003,-0.6160856,0.25755823,0.07531096,0.6180909000000001
-5.45742,-1.2430886,-0.28370333,0.62433916,0.06361725,0.43603559999999997
-6.022930000000001,-1.9061581000000003,0.09849746,0.5998522,-0.70771354,-0.014835299
-6.885006,-2.2020049999999998,0.08870038400000001,0.2128429,-0.9105208,0.07192502
-7.305906299999999,-2.194487,-0.1671057,-0.21406463,-0.2568252,0.35990435
-7.241397,-1.0520889,-0.070590645,-0.21245892,0.08065166,0.18797196
-7.538163000000001,0.9885084000000001,-1.4110945,0.038240165,0.03911283,-0.12288863
-10.315093,1.1782537,-1.8412273000000001,0.029722957,-0.09819222,-0.20647246
-14.516121,0.25000256,-0.87553084,-0.20448278,-0.10618583,-0.09894271
-14.810284,-0.23097342,-1.7242466,-0.38015017,-0.0108908545,0.15816173
-12.052153,-2.1180255,-0.6255283,-0.45254642,0.082780965,0.33808774
-13.593588,-2.3803918,2.7600455000000004,-0.42432445,0.16634732,0.3748269
-18.471094,1.0849086000000001,3.8964673999999997,-0.38760272,0.2536487,0.37535050000000003
-14.96785,3.9976656000000004,4.21753,-0.34927529999999996,0.32710959999999994,0.38173842
-9.402642,2.1909148999999997,2.379367,-0.34554029999999997,0.31381020000000004,0.3604454
-8.200878,-0.3302083,3.7272741999999996,-0.31733575,0.21053907,0.32211795
-10.761056,-1.3415382,3.0066671,-0.34554029999999997,0.03913028,0.24919811
-12.414099,-0.24952370000000001,2.226416,-0.48022735,-0.06627015,0.06979571
-11.620536,0.44696873,1.9886622,-0.76607734,0.0630762,-0.12981759
-9.794046,1.2303897,1.6069306,-0.90182906,0.4271867999999999,-0.17133898
-8.470714,1.2057966,1.421361,-0.7554309,0.66247463,-0.078173295
-7.331687,0.47148535,1.4246936000000001,-0.34766957,0.61563,0.03837979
-6.1380725,-0.09139147,1.1166462,0.06272713,0.47190213,0.018692477
-5.5073724,-0.283416,0.75420225,0.18144442,0.48574257,-0.24745278
-5.3388305,0.3295475,0.6610678000000001,-0.14751522,0.43624505,-0.54874897
-5.5674386,1.2154788,0.63969237,-0.33330554,0.41654027,-0.31346112
-5.739639,2.389308,-0.12324393,-0.24600416,-0.2563016,0.12674580000000002
-5.8880887,2.4696574,-1.182228,0.2650108,-0.21265091,0.20765927
-5.8823047,1.2973603999999999,-1.578411,0.62379813,0.22223277,-0.0020594885999999997
-6.61516,-0.24735935,-1.3307163999999998,0.31185544,0.28080603,-0.0169646
-8.912042,-0.89613056,-0.17448942,-0.02029818,0.03965388,0.22684044
-12.348009,-0.62831515,1.2392676,-0.026145032000000002,-0.29782298,0.25452137
-13.989742000000001,-0.07038952400000001,-1.032265,0.09147271,-0.36756635,0.022410028
-11.85195,1.6083385000000001,-3.3505513999999996,0.12075933,-0.27385962,-0.20167279
-11.245709,3.203193,-2.2575693,0.102119215,-0.33880332,-0.37681657
-17.089697,0.658099,1.8025466,-0.013369222,-0.3840597,-0.41034436
-17.965708,-1.967373,2.3716004,-0.22097613,-0.30421090000000006,-0.31771973
-12.146014,-1.8569811999999999,5.8558536,-0.42006585,-0.2802475,-0.2708751
-8.252057,0.14089398,2.3668025000000004,-0.53398347,-0.21743312,-0.27193975
-10.527238,1.3202394,1.2709763,-0.44668213,-0.1998751,-0.27673942
-14.613776000000001,0.65779257,2.3659885,-0.19383627,-0.14983651,-0.18783234
-13.975185,-0.25071123,2.6242845,0.07763225,-0.12482595,-0.043039817
-10.827222,-0.21160911,2.4225106,0.29323277,-0.1344078,0.1789137
-9.333661,-0.63908905,1.3224708,0.25010568,-0.10618583,0.31201252
-8.1760645,-0.360969,0.44257298,0.09307841,-0.13493139999999998,0.27207938
-7.0057789999999995,0.350061,-0.082389265,-0.14112732,-0.15622441,0.10812314599999999
-6.161976,0.74256647,-0.7089614000000001,-0.10653489999999999,-0.22595033,0.13793337
-5.050243,0.35652536,-0.72576874,0.19261454,-0.04230678,0.33915237
-4.8140693,-0.82121116,-0.29613402,0.70738196,0.15943582,0.43338272
-5.194489,-2.2574257999999996,0.26797822,0.8276875,-0.0050440015999999996,0.19062486
-6.068736599999999,-2.8292568,0.43297702,0.6387031999999999,-0.93713707,0.03466224
-7.0456667,-2.7200525,-0.2042254,0.2580993,-0.8557,0.054349552999999995
-7.607039500000001,-2.0011408,-0.047395617,-0.11079349999999999,-0.06518805,0.17945476
-7.572429,-0.30344114,-0.7972117,0.118088976,0.14451326,0.050631999999999996
-8.579784,0.7447883000000001,-0.6765055999999999,0.5040336,-0.026860617000000003,-0.0824319
-11.832787,0.14036727,-0.42872489999999996,0.6685135,-0.38725364,-0.15695746
-15.076854,-0.7959954,-1.085215,0.5178741,-0.44474480000000005,0.08309512599999999
-13.910178,-2.3157772999999997,-2.3937418,0.23945917,-0.24404939,0.34341097
-12.85469,-3.8763084,1.2484422,0.07604399,-0.09712757,0.4796863
-15.740019,-1.513873,2.1642911,0.040369466,-0.07744026,0.5366538000000001
-18.201574,4.1671557,5.1520443,0.19741419,-0.07318166,0.5382421
-13.1524315,4.898211,4.314744,0.40235075,-0.035918877,0.47808059999999997
-7.723636999999999,0.87581813,3.1847193,0.47741735,-0.06305875,0.3588397
-7.9581539999999995,-1.6588848999999999,4.4522379999999995,0.32569590000000004,-0.15248941,0.22310543
-11.021381,-1.8923580000000002,4.2212744,-0.00059341197,-0.18496999,0.11931071
-12.547906,-0.46581590000000006,2.9206673999999997,-0.32798228,-0.048153635,-0.053162728
-11.167294,1.032648,2.4016043999999996,-0.5765695,-0.0045204028,-0.22403046
-9.178191,1.7717284,1.4541423,-0.6308666999999999,0.023684117999999997,-0.22828907
-7.729105499999999,1.5582519,1.3520727,-0.42219514,0.22437952,-0.11756538
-6.483,0.9789125,1.4034427,-0.010716322,0.28878218,-0.07604399
-5.163661,0.07111737,1.5195615,0.11969468,0.3212453,-0.18144442
-4.2581739999999995,-0.23006363,1.0087538,-0.13261011,0.44689155,-0.42791983
-4.2447376,0.58140796,0.35415033,-0.6814464,0.746041,-0.5625894
-4.9339037,2.0006812,-0.33504459999999997,-1.5086801,0.71783644,-0.5104215
-5.8223057,3.4592001000000003,-0.9925403,-1.4751348,0.35691983,-0.108524576
-6.9369698,3.9835303,-1.1674607,-1.1780972,-0.10725048,-0.19050269
-8.175365,2.7533223999999996,-1.0605357,-0.45041713,0.08756317,0.07086037
-8.668466,-0.21971111,-0.5945186,0.06965609,0.43303365,0.055955257
-9.5134945,-1.5478034999999999,1.2876112,0.20486675,0.68963194,0.077248275
-12.574223,-0.32964328,1.8078139,0.14418165,0.7055842,0.08789478
-13.275426999999999,0.9084271999999999,-1.3795677,0.11063642,0.6837675999999999,-0.028134707000000002
-11.146694,2.5386775000000004,-3.64069,0.0850848,0.6502224,-0.2708751
-9.487858000000001,3.9572992,-5.2633743,0.11011282,0.53736943,-0.5498135999999999
-11.491373,4.5536375,-1.1909333,0.18303268,0.4415683,-0.65469044
-17.549059,1.5139878,7.063508000000001,0.19847885,0.37128390000000006,-0.63339746
-14.464426000000001,-5.379886,7.300687,0.22029546,0.27813566,-0.5540722
-11.968547000000001,-5.7585334999999995,8.4724,0.23839453,0.16421802,-0.44973645
-9.425609,-2.4364736000000002,4.113842,0.23307127,0.062011547,-0.36617008
-10.133726,2.3700012999999998,1.9933932,0.35285320000000003,-0.044436082,-0.18517943
-10.615488000000001,3.2353325,1.5200883,0.67490137,-0.019425515,0.091088735
-10.513926,1.3801328000000002,1.2268465,0.8745321,-0.058276545,0.30347785
-9.389867,-0.4879,0.81491923,0.88037896,-0.0630762,0.34499922
-7.943061,-1.0746518,0.42441535,0.6019815,-0.09553932400000001,0.22256438
-7.333688700000001,-1.0660901000000003,0.40631518,0.12873548,-0.08808677,0.076183625
-6.869472,-0.6657795999999999,0.84699196,0.09892526,0.04923574,0.17039649
-6.671309,-0.41560468,0.9366979,0.3858574,0.41175807,0.2960253
-6.0971413,-0.17411593,-0.062268399999999995,0.6914121999999999,0.106726885,0.23481660000000001
-5.63823,-1.0058233,-0.78757745,0.453454,-0.32391566,-0.23202407
-6.4169106,-1.8157816999999998,-0.7971064,0.6184748999999999,-0.7779805000000001,-0.09787806
-7.665678,-2.3099258,-0.5540949000000001,0.43376666,-0.30421090000000006,0.16613789
-8.679689,-2.4586153,-0.44662395,0.34485959999999993,0.047106437,0.20659462
-8.878629,-1.4938861,-1.1663976,0.3906396,0.08223991,-0.021223204
-9.706888000000001,0.035865142999999995,-1.5567962,0.32836625,0.120567344,-0.07604399
-12.876524,1.5135568000000001,-1.9366889999999999,0.18676768,0.27867672,0.05808456
-13.750437,1.4033949,-4.2710447,0.024399703,0.29995229999999995,0.35086355
-11.360056,-2.0396492,-4.1923046,-0.15496778,0.4266632000000001,0.540895
-12.558228999999999,-3.8685224000000002,1.760083,-0.33969343,0.38620645,0.59466857
-16.604832000000002,-0.84645563,2.1928494,-0.33756414,0.1823171,0.59625685
-16.049187,3.7900788999999997,5.600037599999999,-0.22364649,-0.17325884,0.53876567
-12.267363000000001,2.8386326,3.5065574999999995,0.022811454,-0.40268236,0.42645374
-11.447167,1.0826387,3.3000239999999996,0.028658306,-0.5261819000000001,0.31785935
-13.554131,-0.6875573,2.8776867000000004,-0.22842869,-0.66245717,0.22310543
-13.586443,-0.7825592,2.0894773,-0.5701816,-0.6023130999999999,0.043703045999999995
-12.229152000000001,-0.5640546999999999,1.6915227,-0.8060105,-0.37660715,-0.25490534
-9.962676,1.2700187,0.5381111999999999,-0.8107926999999999,-0.16739453,-0.42205550000000003
-7.742408,2.2274024,0.23269725,-0.7591659000000001,-0.057752945,-0.45347145
-6.4097857000000005,1.7888134999999998,0.20737618,-0.5765695,0.042324234,-0.40289179999999997
-5.1797886,1.1090229999999999,-0.38413528,-0.36950365,0.11737339,-0.46783552
-3.5219567000000005,0.21682848,-0.6569785,-0.41367793,0.21319197,-0.79096574
-2.4730092999999997,-0.18617313,-0.10245268,-0.78204715,0.26535985,-1.0906563
-2.945864,0.85037255,-0.5613637,-1.0444921999999999,0.024748769,-0.8953015
-4.466,2.9764714,-1.2647802,-0.8107926999999999,-0.64702845,-0.4524068
-6.1296062000000004,4.1165137000000005,-1.4577143999999997,-0.44296455,-0.95951223,-0.36669368
-8.233362,3.2231796000000004,-1.5954386,0.26181683,0.009843656999999999,-0.42844343
-9.447329,0.4326514,-1.5049186,0.28204522,0.41814598,-0.1968906
-9.940237,-1.7739406999999998,-0.92746586,0.07178539,0.2573837,0.181043
-11.3943405,-1.7898381,0.048267104000000005,0.086149454,0.09447467,0.40941933
-12.196313,0.18019720000000003,-1.5616037,0.41566762,-0.18816395,0.35299283
-11.220483999999999,2.0736852,-3.6963027000000004,0.7414508000000001,-0.17006488,0.06394886
-11.029206,3.5313613,-4.249994999999999,0.85695666,-0.051888637,-0.12768829
-16.572636,1.7233653999999998,3.4286597000000003,0.7803018,-0.073705256,-0.18676768
-18.882063,-3.9525015,3.5935245000000005,0.59878755,-0.1397136,-0.20860176
-14.085547,-5.704339,8.040591000000001,0.40235075,-0.11789699,-0.2208365
-9.03317,-1.843861,4.816023,0.24319418,-0.13864896,-0.160675
-10.158809,1.0802254999999998,1.1469566999999998,0.24425882,-0.10299188,-0.019617502
-12.304598,0.90119666,0.98688036,0.40182716,-0.013020156000000001,0.16615534
-12.469414,-0.9618561,2.2035754,0.47848199999999996,0.016231561000000002,0.43816492
-10.703489,-1.7159818,3.0036313999999997,0.45134214,-0.10458013,0.53078955
-8.361749,-1.7580241,2.3989327,0.3379481,-0.12534955,0.46636942
-7.9114,-0.8327321,1.8282316000000003,0.16973327,-0.29517007,0.37002724
-7.5250716,0.79576564,0.7525455,-0.06660176,-0.53258723,0.24972170000000002
-6.4491844,1.7519619999999998,0.24979186,0.0132295955,-0.40854666,0.35512215
-5.653649,1.0322744000000001,-0.26139897,0.17451547,0.010384709,0.4344299
-5.76066,-0.77859443,0.21673271,0.47102946,0.5267229,0.42271873
-6.4589047,-2.1596658,0.80365694,0.6557550999999999,0.26909485,0.25504497
-7.340670599999999,-2.66376,0.27376259999999997,0.5934643000000001,-0.23607324,-0.07658505
-7.6791339999999995,-1.8073541000000002,-0.80503595,0.68183035,-0.7258126,0.184778
-6.2923545999999995,-0.3626066,-0.8717863000000001,0.029722957,-0.34892622,0.05222025
-5.6662807,0.4225383,-0.3046478,-0.5637937,0.0652055,-0.09307841
-7.5602089999999995,0.3804195,1.1764245,-0.8336914000000001,0.24460789999999996,-0.2533171
-11.359032000000001,-0.02864423,1.8080819,-0.9747488999999999,0.051888637,-0.21019000000000002
-14.320189000000001,1.1941321000000003,-1.0433546999999999,-0.9358979,-0.0662527,0.010698868
-12.951329,-0.60452634,-3.6959769999999996,-0.7373318,-0.05030039,0.28272587
-11.569491000000001,-3.932936,-2.5236992999999996,-0.5531472,0.02528982,0.47223374
-14.318551999999999,-2.9011310000000003,1.5448443,-0.22204079,0.0077143554,0.5616644000000001
-17.5954,2.772495,2.1863372,0.08775515,-0.008237954,0.5616644000000001
-14.822474,6.258740400000001,5.543218599999999,0.30759683,0.0008028514599999999,0.5451536
-11.7846155,5.613053,3.37185,0.27726302,-0.02794272,0.37322122
-9.933639,1.5360718999999998,2.0850816,0.1500285,-0.1285435,0.11770499999999999
-10.902619999999999,-0.7753287,2.7786338,-0.11664035,-0.18764035,-0.045169123
-12.1382675,-0.54105127,1.4335715,-0.41634828,-0.18177605,-0.24212952
-11.290365,-0.93765557,2.3962414,-0.6005329,-0.20732766,-0.44921285
-9.367322999999999,-0.84079576,2.0010643,-0.54091245,-0.22807963,-0.54874897
-7.4146795,-0.29857612,1.7238634999999998,-0.53717744,-0.102450825,-0.5977229000000001
-5.7131205000000005,-0.723681,1.9941209999999998,-0.42805946,-0.0662527,-0.591335
-3.9180632000000006,-1.110584,1.7034075,-0.3790855,-0.034313172,-0.524262
-3.0215306,-0.7885926,1.1802743999999998,-0.6431189,-0.00026179937,-0.5748416000000001
-2.6888992999999997,1.0344388,0.6928340999999999,-1.2100368000000001,-0.17592919,-0.7127051999999999
-3.8679574,2.6745243,0.21566011,-1.1839615,0.041783184,-0.3123965
-6.1372294,3.4331799,-0.6865038,-0.19064231,-0.9839992000000001,0.59253925
-7.977231,3.0837798,-1.9820639,0.86069167,-1.0297617000000001,0.0053930674
-9.319938,2.1385009999999998,-2.049274,0.9980315999999999,-0.007173303000000001,-0.8053298000000001
-9.78041,0.85841703,-1.4888582000000001,0.5577898,0.25523695,-0.6083694000000001
-9.900789999999999,-0.21068974,-1.0936903999999998,0.1478992,0.15622441,-0.18783234
-11.644324000000001,0.9776100000000001,0.84933823,0.19634955,-0.019425515,-0.14418165
-13.388616,1.6544029999999998,0.09931148599999999,0.5785591999999999,0.10459758,-0.29003882
-12.088353,1.4343089,-2.7387562,0.8015948,0.18551105,-0.42950806
-12.453047999999999,1.2455691,-0.027485436000000002,0.8101119999999999,0.26961845,-0.3858574
-19.123120999999998,-2.342142,4.268105,0.545555,0.2536487,-0.25384068
-26.683638000000002,-6.647443300000001,11.922789,0.07976155,0.2621659,-0.23574162
-8.784316,-3.2701921,9.95149,-0.38386770000000003,0.29571113,-0.24373522
-4.3818007,0.93337476,3.7857404000000003,-0.73467886,0.29836404,-0.22244221
-10.514338,2.063572,1.3708049,-0.85231405,0.37821284,-0.09414306
-13.631167000000001,-1.269942,2.1122127,-0.8012108,0.2579073,0.08576548
-11.338547,-3.4491252999999995,4.2563830000000005,-0.5111022,0.16741198,0.2300344
-8.090707,-2.6685102,3.8034574999999995,-0.13686872,0.15250687,0.31201252
-6.434628,-2.032725,2.346787,0.049427725,0.15676548,0.39025563
-6.202017,-0.81502455,1.4434451000000001,0.098401666,0.19031070000000003,0.38493237
-5.3161526,0.83376634,0.5844246,-0.1650907,0.12430235,0.28218484
-3.7539072,2.0043490000000004,0.20780712,-0.19703022,0.11205014,0.26940903
-3.3846064,1.5062306,0.15230954,0.25968754,0.26110125,0.44507640000000004
-4.150263,0.12641385,0.47273034,0.8223642,0.5597270999999999,0.5967979
-5.6577477,-1.0648451,0.29507098,0.9836501,0.36863098,0.39664352
-7.1195509999999995,-1.358221,0.31431079999999995,0.85536844,-0.38512436,0.020280726000000002
-8.213711,-1.5515385,-0.27911603,0.49071679999999995,-0.51927036,0.051155599999999996
-9.156384,-2.094553,-0.70640445,-0.02136283,-0.18444639999999998,0.16613789
-10.0933895,-2.6040106,-0.71498525,-0.20235348,0.09342747,0.053284902
-10.506542,-2.085024,-1.1246332,-0.13580407,0.097686075,-0.035046212
-12.154242,-2.4225013,-0.64517033,-0.25558603,-0.033265974,0.1698729
-14.035644,-1.3949768999999999,-0.8978351999999999,-0.2917667,-0.007696901999999999,0.2997603
-12.527613,-1.0917082,-2.7371185000000002,-0.39770818,0.07532841,0.49991465
-11.185921,-3.6129269999999996,0.3930513,-0.45574036,0.010367256,0.653748
-14.093631,-3.4248480000000003,3.3018053,-0.44828779999999996,-0.13386676,0.7202974
-18.617264000000002,1.9939773999999997,5.601436,-0.28220227,-0.15037757,0.7485019
-14.897575,5.941757,5.3316,0.037716564,-0.12906710000000002,0.5568821999999999
-9.983533999999999,3.1203822999999997,3.1272392000000004,0.21551326,-0.1977458,0.29550170000000003
-9.850655999999999,0.62182206,3.8414872000000004,0.17558013,-0.34573227,0.119834304
-13.607053,-2.0482588,2.429789,0.053145275,-0.5331108,0.07457792
-12.343803999999999,-2.2335602999999997,1.5829600000000001,-0.041050144,-0.5432163000000001,-0.061662484000000004
-9.513599000000001,-0.6429389,1.3560758,-0.068207465,-0.53098154,-0.2660929
-7.958402599999999,0.59666383,0.9644802,-0.22736403,-0.18071139,-0.36829937
-6.7736564,0.77989686,0.85889596,-0.37322122,0.18870499999999998,-0.33210126
-5.4352207,0.80496895,0.9708775,-0.25665066,0.52565825,-0.2144486
-4.241041,0.11983459,1.399564,-0.23216370000000003,0.67950904,-0.30813786
-3.6943010999999997,-0.20929153,1.4347492,-0.68835783,0.42346925,-0.6956708
-4.633364,0.07413407,0.70590645,-0.97422534,0.08117526,-0.6727895
-5.8768744,1.1053549999999999,-0.32056445,-0.5771106,-0.38247144,0.08044223
-6.9762535,1.949359,-1.3448901000000002,0.26820475,-0.5384340999999999,0.18423696
-7.6205240000000005,2.530173,-1.1163014,0.8069181,0.40055305,-0.44868925
-8.129435,2.5098991,-0.24219745,0.50083965,0.5384340999999999,-0.29537952
-8.494148,0.33992878,-1.2513726,0.112242125,0.2451315,0.09267698
-9.7955885,0.07673895,-0.45228383,0.05794493,-0.08756317,0.16880825
-12.414204,0.8333736999999999,0.11558248,0.20326105,-0.0061086523,-0.08084365
-12.279171,1.093068,-2.792932,0.30281463,0.1338842,-0.29003882
-11.838686000000001,2.3450534,-1.2862705,0.3533768,0.17112954,-0.39226276
-18.210203,0.25215733,5.588948,0.35124752,0.23022638,-0.4481482
-23.689486,-3.842464,8.652224,0.23467697,0.32018065,-0.45560074
-11.403898,-3.575022,10.050936,0.13140585,0.34733796,-0.39865065
-4.9751706,0.28393316,3.7037440000000004,0.053145275,0.35585517,-0.3438124
-9.930871,1.6153008999999998,1.1046655,0.11969468,0.32817426,-0.28419197
-14.627978,1.252493,1.6952002,0.2650108,0.25045475,-0.16441001
-12.778744999999999,-0.6901622,2.6131467999999995,0.5120098,0.16421802,0.095870934
-8.629411,-1.0463619,2.9156107999999996,0.67490137,0.25949556,0.38758525
-7.208108,-1.2750944,2.252896,0.697259,0.22116812,0.46050513
-6.2639116999999995,-0.65169215,2.004282,0.37521088,0.19402826,0.32850587
-5.192985500000001,-0.22150196,1.371169,-0.10653489999999999,0.21903881,0.18371336
-4.923906,-0.01301488,0.6497768,-0.24972170000000002,0.1865757,0.27047366
-4.9593587,-0.33826238,0.33284193,0.04462807,0.3814068,0.4408178
-5.096049,-1.1117332,0.60544574,0.49284607,0.43038073,0.37161550000000004
-5.7774196,-1.9869671999999998,0.68984616,0.57536525,-0.47987828,-0.1495049
-6.7345733999999995,-2.3086712000000005,0.6077633000000001,0.36349973,-1.1351796,-0.43111378
-8.127434,-2.1404257,0.36049974,-0.27155578,-0.6193475,-0.09787806
-8.443344,-1.5761412000000001,-0.5363778,-0.49352676,0.00026179937,0.013892821000000001
-8.330874,-0.15449305,-1.7163553,-0.40303144,-0.04017748,-0.1473756
-9.736577,0.46930185,-1.9776968000000001,-0.3497989,-0.16154768,-0.1452463
-13.469682999999998,-0.099062495,-3.4890415999999997,-0.47010443,-0.11417944,0.10067059
-14.569664999999999,-0.8152256999999999,-4.783883,-0.61863196,-0.07904596,0.36629224
-11.776523,-3.1797202,-3.054695,-0.60105646,-0.16261232,0.5174727
-12.320772,-2.6936111,3.21525,-0.49033279999999996,-0.22170918,0.57016414
-17.866404,2.0045403999999998,6.5032554000000005,-0.4211305,-0.28239426,0.56538194
-18.497314000000003,8.178123,6.0165714999999995,-0.25558603,-0.29197612,0.50469685
-13.848886499999999,3.1272583,3.1143777000000004,-0.11931071,-0.3728896,0.45518187
-12.241448,-0.033394326,4.1993339999999995,-0.050108402999999996,-0.28984684,0.33381167
-13.300567000000001,-1.3304770000000001,2.759624,-0.07298967,0.040718533,0.1155757
-11.487198,-1.2292119,1.9253213,-0.077248275,0.23394394,-0.020699605
-9.801058,-0.56535727,1.5225686,-0.012845623,0.17219418,-0.038257618
-7.802903999999999,0.7684525999999999,0.88242614,0.043039817,0.31592205,-0.048363075
-6.226294,1.0124984000000001,1.167001,0.062203534000000005,0.75562286,-0.13939945
-4.784525,0.58073753,1.1289235,0.1436406,0.8759283999999999,-0.23043582
-3.7001622000000003,0.17694108,1.3178549,0.31346112,0.7322005,-0.1425934
-2.9069054,-0.20838174,1.3842125,0.32250193,0.42079887,-0.23148301
-3.0703626,0.2593974,1.4951596999999999,-0.1762608,-0.008779005999999999,-0.6158394
-4.1357346,1.2517174,0.8274553,-0.7639481,0.012496557,-0.43804273
-6.508733,1.5578783,0.012641385,-0.5803045,-0.47509608,0.33648202
-9.696143,0.96679777,-0.68998975,0.26448720000000003,-0.62575287,-0.06913249
-10.145334,0.73174465,-1.2799976999999998,0.5641776999999999,0.16048302,-0.4657062
-7.983255000000001,0.89960694,-1.0580744,0.29056242,0.24937265,-0.11971214
-7.3478723,0.07351156,-1.6096983999999999,0.0866905,-0.012496557,0.16613789
-9.758173,0.22562957,-1.6011943000000002,0.22987731,-0.45432666,0.07351327
-12.718353,2.1596754000000002,-0.4046967,0.5354321,-0.36011377,-0.12714724
-12.739125999999999,2.7103607999999997,-2.8299751,0.6078284,-0.27707103,-0.25864035
-12.591949000000001,3.1764064,-1.1574624,0.46729445,-0.26696557,-0.32784265
-18.083242000000002,0.16460615,4.3671484000000005,0.18196803,-0.21425661,-0.32251940000000007
-24.930687,-3.3835626000000003,7.1674929999999994,-0.13740978,-0.17912313,-0.25385815
-9.9861,-2.3104906,6.004256,-0.34447563,-0.16367698,-0.21179570000000003
-7.1206336,-0.56641066,1.8659354,-0.43603559999999997,-0.120567344,-0.21924827
-10.612892,2.452381,1.6445484000000001,-0.37322122,-0.07691666,-0.2165779
-13.775364999999999,1.0635715000000001,1.9813073,-0.1762608,0.024207717000000004,-0.09520771
-12.034283,-1.0343238000000001,3.3423343,0.15056956,0.016214108,0.15229744
-8.762347,-0.86147213,2.8730803,0.42044982,-0.0018500489999999999,0.3497989
-7.731260300000001,-0.23830926,1.7100538,0.524262,0.112573735,0.35831609999999997
-7.019589,0.5139393,0.78016496,0.15535176,0.09073967,0.16559684
-6.512315,1.2002133,-0.3459813,-0.22417009,-0.0077143554,0.028797932000000002
-6.204775,1.0044921999999998,-0.6337548000000001,-0.083112575,-0.034330625,0.1853016
-5.5315733,-0.12101252400000001,-0.48701890000000003,0.3187844,0.26535985,0.42645374
-5.2019873,-1.2752955,-0.4303338,0.8015948,0.54588664,0.3694862
-5.190045,-2.1067922,-0.0033901897,0.6387031999999999,-0.16154768,-0.06806784
-6.4082627,-2.6246772000000003,0.19359516,0.48593456,-0.7795861999999999,0.10918779999999999
-7.3973746,-2.5205486,0.2983367,0.1521578,-0.33721507,0.28166124
-7.0338197000000005,-1.3802860000000001,0.64049685,0.18942058,-0.07531096,0.15974998
-6.263691400000001,0.4775858,-0.19219694,0.4486718,0.09979793,-0.08349655
-8.889173,1.0745274,-1.0457201999999999,0.42844343,0.08489282,-0.26448720000000003
-13.691204,0.972994,-0.78835315,0.09786061,-0.01569051,-0.18198548
-15.050297,0.31134197,-2.0309534,-0.19010127,-0.018901916,0.06819001599999999
-12.28915,-1.9007566999999999,-2.230055,-0.29550170000000003,0.035395276,0.25343925
-12.038324000000001,-2.699539,2.430402,-0.23375195,0.05668829400000001,0.33967596
-17.851208,-0.41290402,4.183427,-0.08204792400000001,0.051888637,0.35192817
-18.598589,4.447986,5.5049686,0.111177474,0.07105235,0.3024132
-12.491392,2.7144885,4.0878596,0.15482816,0.037524577,0.23746950000000003
-9.112293,0.34185370000000004,2.8502781,0.14418165,-0.055623643,0.14432128
-8.871331,-1.2703058999999999,3.1437304,0.011623893,-0.13599606,0.047438048
-10.894326,-0.58607185,2.4505515,-0.18106046,-0.2605602,-0.03932227
-11.755272,0.8622956,2.0038893,-0.35140458,-0.32869786,-0.26450464
-10.517862,1.0092901,2.0005279,-0.5488886,-0.14505431,-0.47635272
-8.718619,1.1789048999999998,1.4519875,-0.8853183000000001,0.25310764,-0.4593183
-7.104276,1.1204673,1.2780726999999998,-0.9342921999999999,0.46816713,-0.23574162
-5.813802,0.6283247,1.4452552,-0.5366538000000001,0.6182829000000001,-0.037716564
-4.9526553,0.16106275,1.3271731000000002,-0.2577153,0.66141,-0.1516342
-4.868369599999999,0.76989865,0.2596081,-0.39877284,0.8370774,-0.5136155
-4.9118580000000005,1.341069,-0.5511644,-0.92418677,0.7439117,-0.6456321999999999
-5.445219,1.8698236000000001,-1.3146274,-0.82889175,0.28185323,0.045291292999999996
-6.234903299999999,2.0788567,-1.5336393999999998,-0.46584582,-0.26375416,0.40994292
-6.413463,2.420442,-1.0947152,0.14576989999999998,0.30421090000000006,0.01282817
-6.357850599999999,2.1766837000000003,-1.5254321000000002,-0.010716322,0.5980545,-0.035063665
-7.184616,0.35092294,-1.563318,-0.6393839,0.41174063,0.27686158
-9.897103,-1.2507979999999999,0.18285954,-0.93696254,0.24460789999999996,0.31147146
-13.100553999999999,0.0065888427,-0.28367459999999994,-0.8363443000000002,0.067875855,0.075118974
-12.970377000000001,1.0838264,-2.8914104,-0.5499531999999999,0.003979351,-0.23148301
-10.676339,1.8378946,-3.8468022000000004,-0.28113765,-0.09501573,-0.36084682
-14.499495999999999,-0.44897985,3.5020082,-0.027750734,-0.15090117,-0.35285320000000003
-22.322598,-4.2212934,5.2234106,0.16386896,-0.19029325,-0.30920252
-17.673796,-6.2396727,8.346254,0.27193975,-0.23872614,-0.27300440000000004
-8.591583,-0.8648048,4.485469999999999,0.34007740000000003,-0.28398252,-0.22457151
-10.9783535,2.1078074,0.5023418,0.53597313,-0.28717646,-0.1404641
-13.908646,2.5786607000000004,0.39306090000000005,0.92563534,-0.20839229999999997,0.0048520155
-13.265132000000001,-0.81412435,0.97169155,1.2833581,-0.062535144,0.20020671
-9.797945,-1.7601788,1.7056581000000002,1.3647951,0.11365584,0.2891138
-7.694600599999999,-2.0423691,1.5263323,1.3216854,0.33297393,0.38652062
-7.2484074000000005,-2.0592146000000002,1.190828,0.91551244,0.38673005,0.33702308
-6.636497,-1.499814,1.2571378,0.25916395,0.3100752,0.12728687
-5.9487195,-0.51437986,0.7952197,0.16386896,0.24780184,0.23375195
-5.3079834,-0.27108109999999996,0.20682073,0.33314845,0.5996602,0.47488663
-5.228879,-0.8000081,0.10207918,0.45026004,0.45699700000000004,0.46691048
-5.764490599999999,-1.8308653000000001,0.65846294,0.19954349,-0.055623643,-0.22615977
-6.44862,-2.3498228,0.83101785,0.43535492,-0.5895373,-0.45612434
-6.795712,-2.0053546000000004,0.055306062,0.28098056,-0.17697638,0.06340781
-6.5460157,-1.7012909999999999,-0.12695014,0.0068416907,0.1301492,0.18851301
-6.27459,-1.2728534,-1.3281691,0.015358897,0.08810422,-0.15748106
-7.4067216,0.16057433,-2.3502634,-0.018151425,-0.14557791,-0.03345796
-11.145938000000001,0.08910261,-2.6273682000000003,-0.16189674,-0.16687092,0.22258183
-13.848925,1.0001825,-4.164465,-0.47914523,-0.024731316,0.45839328
-12.133928,-1.9073839,-4.3275003,-0.88105965,0.14824827,0.5536882
-12.681349,-3.7670845999999996,1.7913512999999999,-1.133382,0.28506464,0.5467593000000001
-18.447477,0.45436203,4.5744767,-1.1679918,0.14398967,0.562188
-18.738909,5.065585,4.0529720000000005,-1.0503391000000002,-0.058276545,0.57285196
-12.717500999999999,1.8875502,2.778538,-0.91512847,-0.30845204,0.46903977
-10.596583,0.42404184,3.1420355,-0.75490725,-0.51714104,0.22736403
-15.4000025,-0.123042814,3.9170387000000004,-0.76447165,-0.60815996,-0.03398156
-15.399505,-0.43720037,2.2734287,-0.94813263,-0.5671795999999999,-0.24638812
-12.201685000000001,0.17115669,1.6029084999999998,-0.9412037,-0.42982224,-0.34646532
-9.963968,1.9054589,-0.08685206,-0.812922,-0.3925769,-0.34166566
-7.623263000000001,1.7735193,-0.59916335,-0.75490725,-0.17167059,-0.32304299999999997
-6.112042400000001,1.2299205,-0.35949418,-0.64364254,0.25844836,-0.39704496
-5.3206153,0.6530999,-0.019517532,-0.43071234,0.66088635,-0.40289179999999997
-4.4169187999999995,0.16598521,0.12446018,-0.20607102,0.594878,-0.34965926
-3.8706962999999996,0.33135749999999997,0.34395102,-0.16722,0.20999801,-0.44547784
-3.6572292,1.1059201,0.8578998999999999,-0.26302109999999995,0.022095867999999998,-0.49338713
-4.6716432999999995,1.4198766,0.23690148,-0.34286994,0.08119272,-0.09307841
-5.580654,2.1963353,-0.30697498,-0.40249038,-0.3009995,0.21886429
-6.615524000000001,2.028722,-0.7489254,-0.22256438,-0.17537068,0.26569146
-7.327282,0.7577648,-1.2962973,0.23361231,0.37236598,0.20128882
-7.347392999999999,-0.49695966,-1.1656123,0.30813786,0.4420919,0.34608135
-8.214554,-1.6294745000000002,-0.38755423,0.43057272,0.25579545,0.5435828
-11.058186,-2.1372272999999997,-0.23593421,0.6498908,0.018378316999999998,0.39931387
-13.559791,-1.3935117,-1.5537028,0.8425925999999999,-0.016737707,0.06021386
-13.472892000000002,1.1858577,-3.8016667,0.8431335999999999,0.07319911,-0.22455406
-12.680104,3.0038326,-1.5705771000000002,0.6674663000000001,0.08864527,-0.42896703
-17.084612,1.0992163000000001,3.2927265,0.50083965,0.1855285,-0.48272318
-17.113985,-3.029144,2.4950264,0.24905849,0.1796642,-0.4342903
-11.939079,-3.7746408,4.7237315,0.035587262,0.16795303,-0.50775117
-8.810298,-0.5563836999999999,4.037448,0.0036477381,0.1184555,-0.5641776999999999
-11.936752,0.79818857,3.6972413,-0.0048520155,0.07532841,-0.5849470999999999
-13.714246,-0.185723,3.0173933999999996,0.11065388,0.07958701,-0.37892842
-11.911182,-1.0718745,3.1430027000000003,0.31187287,-0.038030725,-0.07178539
-10.196991,-0.7815919,2.6701095,0.48008773,-0.29300588,0.2401573
-9.401608,-0.5306029999999999,1.2901396,0.5844235,-0.18388788,0.4876799
-8.656628999999999,0.43179908,0.54824346,0.6104987,0.059376102,0.6026621999999999
-7.929577,0.77311647,-0.017056294,0.40289179999999997,-0.11255628599999999,0.44296455
-7.120489599999999,1.0915548000000002,-0.49037079999999994,0.37095228,-0.25415483,0.27262044
-5.2416162,1.3988553999999997,-0.23666205,0.70525265,-0.012479104,0.22418754
-5.23452,0.86603063,-0.49828124,0.9746093000000001,0.09929178,0.34821063
-5.8064947,-0.38670188,-0.43249816,1.0965205,-0.04335398,0.35407495
-6.9276705000000005,-1.257406,-0.21347660000000002,1.0560638,-0.025254915,-0.21868975
-7.927556,-1.2799114999999999,-0.5288313,0.8314225000000001,-0.7066314,-0.54447293
-7.491111999999999,-1.5088066999999998,-0.5992208000000001,0.09681341,-0.48518407,-0.43535492
-6.1511254,-1.6235944,-2.285256,-0.54834753,-0.092327915,-0.31131437
-5.1402745,-1.5966356000000002,-2.9548376,-0.5733756,0.117931895,-0.336866
-8.437597,-2.7223509999999997,-0.7766503,-0.49778536,0.016790068000000002,-0.16865116
-12.962802,-2.6895409,-0.7608486,-0.5749638000000001,-0.050806534,0.07778932
-14.235301000000002,-1.4214472,-3.4319540999999996,-0.7096509,0.09238028,0.26464427
-12.478761,-2.833509,-4.490086,-0.8501848,0.16477653,0.29497808
-11.939702,-2.8642697,2.28924,-0.9422684000000001,0.040735986,0.34236377
-14.255795,3.344853,1.3923048999999998,-0.93322754,-0.057194438,0.372174
-16.000631,7.5051136,2.9781953999999997,-0.7516959,-0.17165314,0.36791540000000006
-15.206054,4.8284154,3.1537287,-0.4408178,-0.22912683,0.3152239
-12.967350999999999,2.0072603,3.7046057999999995,-0.23959879999999997,-0.42449898,0.07194247
-14.330484,0.392515,4.4120919999999995,-0.18423696,-0.49689522,-0.049951322
-13.840545,-0.44835737,2.6701286,-0.20020671,-0.38669515,-0.13032374
-11.26263,0.42716387,1.8073925,-0.17519616,-0.36966074,-0.20858429999999997
-9.157237,0.64330286,0.90719175,-0.14964452,-0.41863468,-0.2570172
-7.531814,0.44345403,0.3643592,-0.15336208,-0.27171287,-0.19154988
-6.700384,0.24825957,0.38940254,-0.21937044,0.16584119,-0.11063642
-5.8906746,-0.24537694,0.17734331,-0.11344639999999999,0.27230626,-0.057927478
-5.66832,-1.0935086,-0.10483730599999999,0.08775515,0.29414034,-0.14309955
-4.4401236,-0.7879031,0.56967634,0.25277603,0.4362625,-0.37997562
-4.8275437000000005,0.32292035,0.7409001000000001,0.0819083,0.2520779,-0.6195221
-5.1010766,1.2669636,0.24959074,-0.055414204,0.03275983,-0.34910077
-6.048950700000001,1.5404198,-0.5917892,-0.10279989,-0.6118601,0.04639085
-7.3296375,1.4153083999999998,-0.6706063,0.78457785,-0.54159313,0.29126054
-7.3441944,1.4974296,-0.028318617,1.4494436000000002,-0.05185373,0.11826351
-6.258807,-0.031239542999999998,-0.8203492,1.296675,0.013613568000000001,0.33491123
-6.172807700000001,-0.9816035,-1.3525037,1.0682986,-0.22432716,0.41901866
-9.673859,-0.38442259999999995,-0.5188714,0.88411397,-0.59908426,0.20076522
-12.638695,-0.91268885,-1.441319,0.55833083,-0.41757002,-0.11861257
-12.475725,0.46021345,-3.427836,0.45773005,-0.012461651,-0.40765655
-13.485514000000002,1.9901946,-0.5831221999999999,0.5828178,0.1743584,-0.6147399
-18.382402,0.25436,3.7281265,0.60091686,0.29253465,-0.6275156999999999
-21.090132,-3.1824877000000003,6.565198,0.1452463,0.2994636,-0.42097342
-14.706566,-4.367014,8.855242,-0.46743408,0.1802227,-0.19846138
-8.233295,-1.9418794999999998,4.305521499999999,-0.71923274,-0.08805186,-0.13138838
-12.174583,0.90598506,2.8406534,-0.68835783,-0.25520205,-0.049410272000000005
-14.641692,2.6355470000000003,0.8354615,-0.59625685,-0.37231365,0.09112364
-12.018939999999999,3.4419522000000002,1.5861491,-0.44348815,-0.41648793,0.26570892
-7.8678737000000005,2.2031443,1.2057773999999999,-0.20713568,-0.19929914,0.52602476
-7.047208,-0.82141227,2.3906965000000002,0.048363075,0.13018411,0.65750045
-6.5034757,-1.2211291000000002,2.0323708,0.326778,0.47300169999999997,0.58990383
-6.2715445,-0.8023256999999999,0.62368,0.5136155,0.5592384,0.3567453
-6.1392026,0.148814,-1.0514472,0.9421461999999999,0.62577033,0.2247286
-5.4907856,1.5689587999999999,-1.2407328000000002,1.4515729,0.79346156,0.21088813
-4.649559,1.417377,-0.19212031,1.8859504,0.631111,0.31576496
-4.934038,-0.7031579000000001,-0.17069700000000002,2.0807815,-0.24507913,0.24336872
-6.490978,-2.6152917999999996,0.027360937000000002,1.4531785,-0.9387078999999999,-0.21921335
-8.121151,-3.2167727999999998,0.55669975,0.41514403,-1.3869258999999998,-0.20217894
-8.435654,-2.6091914000000003,0.012679692,-0.49352676,0.28775242,0.097511545
-7.2918186,-1.0560536,-0.5256997,-0.6590712,0.56616735,-0.015341444
-7.0227394,-1.4580497,-0.9114629999999999,-0.41474259999999996,0.14402457,-0.15905185
-9.558361999999999,-2.9552302000000004,-0.24049276,-0.43284166,-0.028955012999999998,0.0421497
-12.329908999999999,-2.7826464,-0.8945599,-0.6335196,0.10410889,0.30990067
-11.797217,-3.1579232000000004,-2.2934634999999997,-0.90287626,0.25157174,0.35248670000000004
-11.874752,-3.797271,1.2510948,-1.0120118,0.23026128,0.2790258
-15.941628,0.7869358,6.7974067,-0.8714778000000001,0.11156145,0.33651695
-20.673538,12.127905,2.9569634999999996,-0.5004383,0.06471681,0.48982665
-14.332112,11.7492,3.4654345999999996,-0.4131369000000001,0.08068657,0.48930305
-9.243773,3.3411372000000004,1.994552,-0.25717425,-0.17161822,0.354616
-13.344859,-0.50736964,5.373355,-0.027209682000000002,-0.23602088,0.16830209999999998
-15.508164,0.19889113,2.6239493,-0.041050144,-0.30576423,-0.062168628
-12.497503,2.0897741,1.9132544999999999,0.03239331,-0.27436575,-0.34855970000000003
-9.105235,2.8778207,0.46770249999999997,0.111177474,-0.10028662,-0.5950350999999999
-7.1831317,2.619525,-0.34922785,-0.005375614,0.25583035,-0.68233645
-6.856658500000001,1.4372393,0.13905524,-0.23640485,0.45544368,-0.6291039
-6.734861,-0.3043892,0.9786347,-0.3045425,0.68540823,-0.48589966
-5.7138777,-2.252781,0.63111156,-0.33967596,0.7599338000000001,-0.47951177
-4.7524524,-1.9731287,-1.0073938,-0.43123594,0.71787137,-0.55831337
-4.950213,-0.2834256,0.38811925,-0.5366364,0.8600110000000001,-0.53967327
-5.1367215999999996,1.1329266000000002,1.1301206,-0.83527964,1.086258,-0.5822593
-5.2793584000000005,2.2829576,0.28474718,-1.0189232,0.66945595,-0.39859828
-5.3888693,2.9129965,-0.325621,-0.9497209000000001,-0.38613665,-0.088784896
-5.6274467,2.1315482000000006,-1.1144530000000001,-0.28857273,-0.6315474,0.32161182
-6.1364822,0.5937716,-2.4533098,0.8111941,0.13552481,0.24815091
-8.081877,1.6612407999999999,-1.1512088,1.064581,0.46874309999999997,0.18853046
-12.134006,1.4408784,-0.27456704,0.89956015,0.25528932,0.12093386
-13.0252905,0.38208586,-1.902538,0.5274559,0.16692328,0.013927726999999999
-11.990564,0.31684867,-4.074021299999999,0.34700635,0.20153317,-0.20003219
-10.094375999999999,1.5962238000000002,-5.052484,0.49073422,0.19514526,-0.5199685000000001
-9.858680999999999,2.702441,-2.4578203999999997,0.7180284,0.27180013,-0.7121466999999999
-15.994895999999999,0.7665276,4.1406765,0.6147573000000001,0.28670523,-0.61631066
-20.363346,-5.2956486,5.9244330000000005,0.40608576,0.08175122,-0.5636191999999999
-18.035425,-7.602213000000001,8.972184,0.05422738,-0.05024803,-0.43959609999999993
-8.236361,-1.0452031,5.402554,-0.27633798,-0.15936601,-0.24261822
-10.917876,2.1716273,2.2412026000000003,-0.45678756,-0.53625244,-0.06483898
-13.267804,2.6393967000000003,-0.30567253,-0.44242352,-0.63739425,0.06291912
-11.875998,1.5202798,-0.022390574,-0.16561429,-0.5186944,0.2934073
-9.831272,0.30543309999999996,0.97338665,0.30068532,-0.22111577,0.58670986
-8.048263,-1.4177889,1.0065894,0.5216090999999999,-0.15936601,0.61706114
-7.5026044999999995,-2.2336464,1.0612155,0.457189,-0.10452777,0.49197340000000006
-7.086952,-0.7349912,0.11939405,0.51841515,-0.04066617,0.32162929999999995
-6.0633636,1.048306,-0.5745414000000001,0.92830575,0.21697932,0.31417670000000003
-5.339443,1.2515832,-1.5236987,1.354166,0.4676959,0.49516737
-5.641017,0.6909666,-1.4339448000000001,1.8066427,-0.09868091,0.56224036
-6.0642834,-0.69099534,-1.5586636,1.4265623,-0.37761945,-0.043528512000000005
-6.4227333,-1.8595093,-0.58988345,0.65203756,-0.8939751,-0.53007394
-8.4758,-2.5282867,-0.108371146,-0.08841838,0.018954275,0.23326325
-8.789765,-2.0459986,-1.7524407,-0.516408,0.48740065,0.13264503
-7.509021000000001,-1.6750792,-2.2973995,-0.33115876,0.3170565,-0.30969122
-8.129924,-2.882638,-1.6364752,-0.4173955,0.08974483,-0.022235493999999998
-10.017387,-2.6089616,-1.0762223999999998,-0.55899405,0.21059142,0.40201914
-10.888246,-1.5670336,-2.7834988,-0.7011162,0.31225684,0.61280257
-10.442675,-2.8150737,-2.518796,-0.85390234,0.38093555,0.5308244000000001
-12.680372,-1.7976528000000003,3.4625998,-0.8331504000000001,0.14350097,0.44032910000000003
-17.951963,3.760563,3.6823205999999997,-0.51321405,-0.012444196999999999,0.39296088
-20.50491,8.557594,3.4073224000000004,-0.48288023,-0.21951006,0.49942598
-12.341631,3.3390398,1.4570823999999998,-0.6713060000000001,-0.47076765,0.54255307
-11.1088085,1.1425706,1.9203603999999999,-0.8320857,-0.7667406,0.35569809999999996
-15.238874,0.78745294,1.7329041,-0.8677428,-0.85671234,0.046408303
-14.654382,0.40194815,0.5099267,-0.80759877,-0.65921086,-0.1366942
-11.262267,0.22833979,0.22357056,-0.5605823,-0.42976987,-0.23090705
-8.317285,1.2568887,-0.5962424,-0.19914207,-0.268484,-0.29530972
-6.713169000000001,1.5965111,-0.43895295,-0.06551966,0.022148227000000003,-0.35440657
-5.8464775,0.8180221,0.59381944,-0.15601498,0.37987092,-0.41030946
-4.6497884,-1.0397731,1.4323742,-0.17252579999999998,0.6534861999999999,-0.41722095
-4.671882,-1.3812532,0.10616848,-0.015481071,0.59864795,-0.43319073
-4.810343700000001,0.06770802,0.30472443,0.06435029,0.55286795,-0.5689424
-4.860086,1.6064903,0.21960576,-0.46689302,0.27447048,-0.68710124
-5.726116,1.986019,0.11920252,-0.47966883,0.17545795,0.004886922
-7.389454400000001,2.3507326,-0.16100527,0.099483766,-0.7140491,1.257981
-8.261978,1.7116914,0.3764451,1.1311305,-0.12316789,0.61280257
-8.712921000000001,0.7438019,0.031143775,1.5218573,0.7429168,-0.05630432
-7.333123700000001,-0.8738644,-2.2875352,1.4814006000000002,0.89409727,0.16032594
-6.9338765,-0.53108186,-3.5093632000000006,1.2317312,0.45652577,0.22635175
-9.495203,1.2858491,-2.1319792,1.068316,0.27714083,-0.03820526
-11.048015,1.5103295,-1.8682052,0.8766789,0.239337,-0.37089992
-10.016306,1.312147,-3.2220017999999997,0.64191467,0.13925982,-0.51836276
-11.970587,-0.31769142,1.1468321000000001,0.42952552,0.042376593,-0.551367
-21.68417,-3.7056400000000003,4.1624726999999995,0.099483766,0.06260496,-0.5833065
-27.341093,-6.852722,9.848222999999999,-0.33913493,0.16481145,-0.53007394
-7.966897500000001,-0.91704625,7.958451299999999,-0.78628826,0.119572505,-0.38580504
-8.737351,2.4510688999999997,3.9551637000000004,-1.0018888000000001,-0.14072590000000001,-0.26017624
-14.186688,1.4854393,0.61880535,-0.9843133,-0.20193459,-0.17554522
-12.991867,0.87591386,-0.51405424,-0.7506311999999999,-0.21844539999999998,-0.021694442
-9.357383,1.1407988000000002,0.19318335,-0.47221628,-0.36962584,0.19547687
-7.6418610000000005,1.3936745000000001,0.23560860000000003,-0.16133824,-0.3227812,0.44460517
-7.327914,1.6028606,0.38629007,0.12290609,-0.19767599,0.57236326
-6.940896,1.8493674999999998,-0.44035116,0.28099802,-0.24506168,0.46961573
-6.3816776,1.0241437,-1.1763096000000002,0.5647361999999999,-0.24399702,0.30778882
-6.816216000000001,0.546692,-1.46302,1.1545527,-0.022549653,0.38231438
-6.8421974,1.0472716999999998,-1.6301832,1.5511264999999999,0.18610446,0.499967
-6.5563583,-0.070303336,-1.3416244,1.5506029,0.09508554,0.3099181
-6.506741000000001,-1.5639404,-1.2532593,1.3041274999999999,-0.2583611,-0.4225442
-7.145016,-2.681985,-1.1128058,0.7835131999999999,-0.67196923,-0.56946605
-7.746047,-3.6213546,-0.5061247,0.4002389,0.06846926,-0.17022195
-7.1380729999999994,-2.9517539,-0.49904740000000003,0.43697807,0.2494599,-0.28359854
-6.7940645,-2.2842886,-0.35404497,0.5359906,0.0024609142000000003,-0.3639884
-8.714473,-3.2512205,0.89270204,0.30602604,-0.19767599,-0.163293
-11.069227,-2.425202,0.274998,-0.16933185,-0.2732662,0.123604216
-11.3756275,-0.58597606,-2.264321,-0.696334,-0.31319934,0.3423987
-10.636146,-1.8006791000000002,-2.6975853,-1.1237826000000002,-0.2775248,0.5393591
-12.302807000000001,-1.6387543999999998,1.2101636,-1.278157,-0.22109829999999997,0.6085614
-15.886285,3.1978586,1.1453764,-1.3393831,-0.33501595,0.6053674
-17.662477,6.247353599999999,1.9898593,-1.1024896,-0.29721212,0.47548005
-11.593232,2.580164,1.8038298,-0.59625685,-0.34086279999999997,0.1752485
-12.77342,-0.8389187,4.232795200000001,-0.18317229999999998,-0.41167079999999995,0.04590216
-16.548607,-0.5944899,2.8485732000000006,-0.027733281000000002,-0.37599629999999995,-0.03926991
-13.564216,1.0259346,1.3775950000000001,0.04038692,-0.25569072,-0.12761848
-11.519855,2.5340328,-0.005401319,0.030281462000000002,-0.28497735,-0.21226694
-10.280415,3.4134326,-1.1033343,-0.121946156,-0.31000537,-0.24314182
-8.763199,1.8346289,-1.1769705,-0.35990435,-0.10663961599999999,-0.2846632
-7.7126813,0.7514633000000001,-1.1831762,-0.42804200000000003,0.20207421,-0.34747759
-6.187719,1.1793071000000002,-0.69723946,-0.24970426,0.28513443,-0.26602307
-4.4924607000000005,0.67301005,0.42984540000000004,-0.13259266,0.32505012,-0.21704915
-4.771835299999999,-0.7877211,1.2971785,-0.16879079,0.472513,-0.27401668
-4.839792299999999,-1.4464043,1.1213771000000001,-0.40674898,0.765292,-0.39271653
-5.0452824,0.18369274,0.3758322,-0.8027991,0.77487385,-0.43158500000000005
-6.0913086,2.0017824,-0.07793605,-0.7910879,0.53691566,-0.100478604
-7.6173253,2.5996816000000003,-0.7194096999999999,-0.46424013,-0.3147876,0.34772193
-7.735005,1.8710591,-1.3857256000000002,0.82822853,0.13767157,0.32590532
-6.8605947,0.8943684000000001,-1.3186496,1.5463443000000001,0.8541815999999999,-0.03499385
-8.098225,0.7858248999999999,-0.054453722999999996,1.7097595,0.9233839,0.045361105
-10.948808999999999,0.42646480000000003,1.441003,1.7337228,0.6380574999999999,0.110845864
-12.192203999999998,-1.0598748,-1.1981064,1.7976018,0.36285394,0.04003785
-11.201446,-0.53600425,-3.7624497000000003,1.7944078,0.14353588,-0.16275196
-9.736472000000001,1.5690928,-4.8596067000000005,1.7129533,0.0035255651,-0.40922734
-11.856661,2.2888951,-0.15252979999999997,1.5287688,-0.118350774,-0.4587249
-16.537489,0.82553035,2.6321087000000003,1.2370545,-0.13751449,-0.39484584
-22.874147,-5.6336427,11.311885,0.6680073000000001,-0.24717353,-0.27401668
-12.655387,-4.9344209999999995,8.346743,-0.0011170107000000001,-0.4105887,-0.13880603
-8.062368,1.2906183999999998,3.2988748999999995,-0.48233919999999997,-0.46169195,-0.03021165
-10.95172,0.9657443000000001,1.4749431999999998,-0.7447669,-0.3685437,0.061871924
-12.350059,-0.9062148999999999,1.026605,-0.74956656,-0.30253538,0.15875515
-10.522822999999999,-0.25046223,1.635757,-0.54674184,-0.19765854,0.26893779999999995
-8.196377,0.08659349400000001,0.9724959999999999,-0.37533304,-0.08641125,0.38819614
-7.6608806,0.01226789,0.36988499999999996,-0.26035076,-0.020402899,0.42065924
-7.9077225,0.2221915,-0.49772578,-0.23160519,0.15098843,0.33229324
-7.6517729999999995,0.78294224,-1.7518566000000002,-0.15549138,0.08391543,0.20505874
-7.429208,1.7146984,-3.1526656,0.35445893,0.13821262,0.20240583
-7.153136999999999,2.1641955000000004,-3.2654132999999996,0.8835904,0.2909813,0.29129544
-7.040800999999999,0.27614722,-2.5653296,1.2993453000000001,0.09189159,0.44354049999999995
-7.535242,-1.7752430000000001,-1.7588476999999998,1.4153921999999999,-0.14016739,0.10019935
-7.764530000000001,-2.1845844,-0.9431622,0.8042826,-1.026498,-0.5833065
-7.2703,-1.9038403999999998,-0.49047616,-0.03944444,-0.64322364,-0.31447342
-6.2665167,-1.4057316,-0.32551566,-0.46530476,0.22816689999999998,-0.047769662000000004
-5.8236275,-0.75138664,-0.8955368,-0.41526620000000003,0.24148375,-0.37461746
-6.875697,-1.1313847,-1.2639757,-0.40194932,-0.19074704,-0.42891467
-9.779183,-2.2465273999999997,-0.46574885,-0.7112391,-0.20884609,-0.06853908
-10.767328,-1.386894,-2.324243,-1.016794,-0.20565215,0.31845278
-9.469633,-1.7203488,-3.1407616000000003,-1.4910871,-0.09121091,0.45472807
-11.424872,-2.577109,3.0265486,-1.6193863000000002,-0.07202974,0.46909213
-15.909911,1.3820481000000002,3.5354507000000006,-1.4559536,-0.095452055,0.5548053000000001
-22.818983,8.748949,3.7967057,-1.0854552,-0.08854055400000001,0.5830098000000001
-15.27992,6.259832,2.4670331,-0.44240606,-0.12686798,0.38126716
-9.704953999999999,0.65986115,2.5683656000000004,0.09149016,-0.27272514,0.17737779999999997
-13.42564,-0.8006880999999999,2.7893982000000004,0.2639636,-0.22003366,0.065065876
-14.761316,0.22569661,1.5736896,0.32039008,-0.081629045,-0.050440013
-12.475046,1.2342110000000002,0.7158663000000001,0.35287067,-0.014014994,-0.18936822
-9.748606,1.6064903,-0.06901047,0.348071,-0.0832173,-0.3107384
-7.934010499999999,1.8719976000000003,-1.0143466,0.213925,0.040805798,-0.44223154
-7.087928999999999,0.36738548,0.07090668,-0.057002455,0.24947736,-0.52686256
-6.289472,-0.59814817,0.21589954,-0.26673868,0.39905208,-0.44647267
-5.002914,-1.1744421999999999,0.41378509999999996,-0.33435273,0.35007814,-0.3538655
-5.538899400000001,-1.2371510000000001,1.4574463,-0.3614926,0.31016245,-0.4848001
-6.1070433,-0.82820225,1.2144443999999999,-0.5563236999999999,0.27768190000000004,-0.61044633
-5.666405,-0.1826297,0.35024297,-1.1131360000000001,0.055710907999999996,-0.6370626
-6.0528,1.0212610999999998,-0.46311525,-0.88264793,-0.023596851000000002,0.0033161256
-7.1774435,1.8802911,-0.6365128999999999,-0.7453079,-0.638965,0.60484385
-7.139739,1.9343522000000002,-0.30382420000000004,0.05422738,0.049323004000000004,0.46430993
-5.9865484,1.1971009,-0.7839478,0.5226737,0.64285713,0.05708972
-6.6158304,0.90090936,-1.6107998,0.3832045,0.7008893,0.15981979999999998
-9.721743,1.3937606000000002,-0.91227704,0.36884043,0.42088616,0.21624629
-12.325638,0.602793,-1.2443911,0.64990824,0.2356369,0.14172074
-12.196648,-0.79995066,-3.5194572999999996,1.1050378,0.23828979999999997,-0.01743584
-10.59575,-0.06758352,-4.1840589999999995,1.3978168,0.1749518,-0.28305749999999996
-13.255172,-0.50826985,0.53623414,1.3728062,0.018971728,-0.49811697
-19.1831,-1.4384556,3.1775272,1.0161480999999999,0.04452335,-0.45818383
-19.450982999999997,-3.4740824999999997,7.1033669999999995,0.9820793,-0.0225322,-0.49225265
-9.3606,-1.6084535,7.0082307,0.48062876,-0.13165018,-0.39803979999999994
-7.537866,1.4569386999999998,3.0457597,-0.09213593,-0.26420793,-0.21598449999999997
-11.650089999999999,1.0224869,1.7798686000000001,-0.43975314,-0.37013197,-0.09728465
-12.756115,-1.1094921999999998,1.2351974,-0.63458425,-0.33445746,0.08264134
-10.654398,-1.9178991,2.3804781000000004,-0.6675884,-0.38343138,0.24659757
-9.056536999999999,-2.257646,2.2942774,-0.43175954,-0.32702234,0.4605924
-8.687868,-2.153077,0.9766044,-0.13952161,-0.04860742,0.59793234
-8.864943499999999,-0.6191214,0.4319906,-0.14484487,0.025900686000000003,0.53298867
-8.478338,2.0263948,-0.97056144,-0.23214625,0.06583382,0.37648496
-7.835312400000001,1.7999512999999998,-2.2286954,0.15591027,0.26916468,0.40788344
-8.372073,0.706663,-2.848018,0.56793016,0.54225636,0.5372298000000001
-8.060081,1.0063788,-2.7532650000000003,1.3531014,0.40865138,0.5665164
-7.049985400000001,0.7608869,-2.2940667,1.635775,0.12437216,-0.07384488
-6.1875653,-0.19786641,-1.8358164000000001,1.2306665,-1.0019935,-0.71530575
-6.304967400000001,-1.1333194,-0.79615825,0.7265630999999999,-0.6240599,-0.27719320000000003
-6.5001426,-1.6947118000000003,-0.35310644,0.40716785,0.26279423,0.10445795
-5.8091955,-1.3105669,-0.75421184,0.54876643,0.44910812,-0.26602307
-7.184952,-2.0753417,0.4451683,0.74944437,0.046670105,-0.34906584
-9.9354,-2.6452196,0.51005113,0.707923,0.040805798,0.041643556
-10.859563,-0.020072987,-1.8284901000000002,0.52853805,0.00034906584,0.43929937
-9.316203,-1.9302917000000002,-3.0922167000000003,0.15591027,0.06422812,0.44462264
-10.179619,-3.969299,4.071321,-0.21617648,0.13288938,0.34559265
-15.635085,-1.3063722,2.8492724999999997,-0.37213909999999994,0.103620194,0.35306266
-22.034336,6.329416999999999,4.568204,-0.44347072,-0.05232497,0.49572587
-14.439881,4.3027635,3.6621803999999996,-0.49031535,-0.29827678,0.58142155
-10.3617115,0.5851236999999999,2.512207,-0.26834437,-0.45849799999999996,0.44036403
-13.0433235,-0.4720887,2.4415112,-0.14749777,-0.47075020000000006,0.13746212
-15.320631,-0.26878265,1.4416063000000001,-0.07138397,-0.3978129,-0.19788542
-13.446584,0.13512874,0.8115865,0.09309586,-0.278572,-0.3629063
-10.198352,1.2215216999999998,-0.4748085,0.1441991,-0.24556783,-0.43902013
-7.695807,2.4768974999999998,-1.0260782,-0.19168949999999998,-0.090669855,-0.4741536
-6.830178699999999,2.2022824,-0.73143816,-0.6037094,-0.043284167000000005,-0.51621604
-6.887390600000001,0.88752097,-0.043133937000000004,-0.8986177,0.11852531,-0.5896769000000001
-6.7472916,0.74592793,-2.2806973,-1.0316991,0.37936476,-0.5662545999999999
-6.338017,1.3774321000000003,-0.8245439,-1.1322998,0.4320737,-0.6487563000000001
-5.54772,1.4533857,0.56966674,-1.2840213,0.5598318,-0.78663737
-5.06185,1.3181611999999998,0.33599266,-1.4245552,0.22870794,-0.93090624
-5.435747599999999,1.5921825,0.0875799,-0.93427473,-0.044348817,-0.5577373999999999
-6.589896700000001,1.6832866999999998,0.40388265,-0.7985405,-1.0440559,-0.12281882
-6.739132000000001,1.5062498,-0.6705201,0.10480702,-0.5543166,0.2657613
-6.4923663000000005,1.8469349999999998,-2.0604212,0.9426872,0.41449824,0.24979152
-7.386648700000001,2.646244,-0.8034941,1.1918155000000001,0.3697829,0.45259878
-9.666072,2.2192144,-0.3672993,1.3222265,0.18879226,0.45846307
-11.748453,0.15429193,-1.5880548,1.6123526000000001,0.028553586000000002,0.30674163
-10.762099000000001,0.1721431,-4.227394,1.8157008999999997,0.13397147,-0.03338815
-9.424469,1.6479099,-5.535949700000001,1.5990357,0.19943877,-0.38845792
-11.999299,1.7137696,0.6038846999999999,1.332873,0.20158553,-0.48638836
-19.039170000000002,-1.5941169,3.9986233999999996,0.97036815,0.34477234,-0.37674677
-21.702835,-9.121611999999999,5.6604867,0.53864354,0.49328240000000007,-0.18030997
-12.457357,-5.705143,8.496514,-0.10917035,0.39001128,-0.054157566
-7.9286766,0.25277025,5.027325599999999,-0.59890974,0.1616524,-0.042970005
-11.199989,-0.2830138,3.0764055,-0.77777106,0.115872405,-0.017959438
-12.215800999999999,-2.8295252,2.5011267999999998,-0.7639305999999999,0.009930924,-0.0067718774
-10.455680000000001,-2.5561453999999997,3.2719638,-0.6383018,-0.18540633,0.09967575
-8.770525,-0.7748786,2.308384,-0.37107444,-0.36800268,0.31792918
-9.013355,1.0560441,0.75137717,-0.004834562,-0.11301007,0.57663935
-9.507614,1.0128049000000001,0.11242213,0.23362978,0.29045770000000004,0.6511649
-9.0159025,1.1534977,-0.22888568,0.213925,0.18933332,0.49305552
-8.856354,1.4783525,-1.5560969999999998,0.20966639999999998,0.047734755999999996,0.2918365
-7.8676434,2.1652967999999997,-2.3391159,0.66055477,0.113743104,0.3738146
-6.2829885,1.3960111000000002,-2.2303330000000003,1.1295247,0.39533454,0.53777087
-5.7695374,-0.5838404,-1.5618718,1.6224581,0.7466693,0.6154904
-6.244441999999999,-1.808714,-1.4294628999999999,1.8263474999999998,0.41345105,0.35838592
-6.962836299999999,-2.6707797,-0.8221593,1.6442921000000001,-0.041154865,-0.2787989
-7.231121000000001,-3.3428612,0.5638536,1.3999461000000002,-0.5649630999999999,-0.52099824
-5.9639372999999996,-2.1942186,-0.6556185999999999,0.62009805,0.08819149,-0.19999728
-4.6718345,-0.62440777,-2.0627294,0.27567476,0.51670474,0.047507863
-7.242153599999999,-2.2647614,-0.85923105,0.123429686,0.5156400999999999,-0.24738297
-11.496813000000001,-1.7608683,-0.06238332,-0.09320058,0.13662437,-0.20959659
-12.830689,0.19954234,-1.4694076999999999,-0.6239376999999999,0.047193702000000004,-0.05148721
-10.494294,-0.98977256,-2.8011298,-1.1525282,-0.028379052999999998,0.09754645
-9.147383,-3.375585,-2.4287167000000003,-1.5757356000000002,-0.21628119999999998,0.24181537
-12.122217,-3.3530697999999997,0.76180625,-1.6268388,-0.23438026,0.35306266
-17.070715,3.2333214,2.777772,-1.458624,-0.12845623,0.40364229999999995
-16.520884,6.5413804,4.476803,-1.1120714,-0.16198401,0.348263
-12.19547,2.2318556,1.5238614,-0.61594415,-0.18753563,0.33656928
-11.911555,-0.6241205,1.3176823999999998,-0.18688986,-0.25940830000000004,0.31154126
-14.399543,-0.30918720000000005,0.6828934,-0.048485245999999996,-0.23917992,0.27586675
-14.275534,1.4103572,-0.70173097,-0.016022123,-0.17795376,0.17526597
-11.799497,3.0038993,-1.4915589,-0.020280726000000002,-0.22853342,0.023020892999999997
-10.439867999999999,2.5211136,-2.3476295,-0.14643313,-0.33606315,-0.12760103
-9.4524145,0.68955886,-2.0116944,-0.3284884,-0.14442599,-0.3022212
-8.532351,-0.45435244,-0.9523368000000001,-0.4535936,0.21114993,-0.39856339
-7.5539837,-0.78085446,-0.44167277,-0.45039967,0.28356364,-0.39908698
-7.0145610000000005,-0.8898193999999999,0.21532492,-0.34978142,0.15100588,-0.4155978
-6.4247445999999995,-0.80475825,1.5093813,-0.34925783,-0.03741986,-0.56784284
-5.078504,-0.48511317,1.1846126000000001,-0.3694862,-0.36693802,-0.71370006
-4.6467338,0.6073036999999999,0.06542874,-0.360969,-0.83164936,-0.51834536
-5.1634693,1.707152,-0.7157226999999999,-0.22947589,-1.0168986,0.08157669
-6.4080234,2.5543354,-1.3333883999999998,0.146852,-0.33871606,0.19975293
-6.5773600000000005,2.392794,-1.53227,0.2027549,0.19198622,0.19495328
-5.8330417,0.8085315,-2.2796056,0.005253441,0.12651892,0.48827332
-6.985523700000001,0.4582598,-2.344881,-0.07244862,-0.11407472,0.47069785
-10.3688755,1.2765309,-1.1115032,0.26343998,-0.08319984400000001,0.24818581
-12.634528,0.31865865,-1.3663421999999998,0.71272266,0.113743104,-0.14678219
-12.311444999999999,-0.7021236,-3.380297,0.8564504999999999,0.035482544,-0.41772709999999996
-13.538072,-0.50477433,-0.2056715,0.79096574,0.07860963,-0.43104395
-17.7097,-0.7371747,3.5300781999999997,0.6137100999999999,0.15365879,-0.4001691
-19.889657999999997,-2.9363349999999997,4.635107499999999,0.42207298,0.19252726,-0.40015164
-9.649639,-1.4129525,3.417608,0.14100514,0.24308945,-0.41879174
-9.373586999999999,1.8366592000000002,2.844417,-0.10384709,0.3288026,-0.33946654
-13.34617,2.2045232999999995,2.346088,-0.1746551,0.36765359999999997,-0.20373228
-12.868164,-0.8410639000000001,2.4663055,-0.06658431,0.39587557,-0.14678219
-10.329123,-1.8777150000000002,3.8168937999999994,0.11597713,0.44643778,-0.06373943
-9.147574,-2.1642911,1.8883452,0.29857346,0.4677308,0.111910515
-9.393421,-0.8234713,0.22541888,0.5695184,0.44804347,0.2897072
-8.545433000000001,0.73934865,-0.24495557,0.73295105,0.49488809999999994,0.415336
-7.737408599999999,1.1877251,-0.35287657,0.6222273,0.23830725,0.4169417
-7.535672999999999,1.2063042,-1.0247949,0.40982077,-0.0076096356,0.3690324
-7.1129723,0.34896928,-1.1261271000000002,0.49340457,0.037088245,0.45739844
-7.1679716,-0.8609358,-0.83180314,0.7010115,0.29047516,0.5015727
-7.085026700000001,-1.1393335,-0.39014953,0.9708918,0.5023407,0.5409648
-6.890762,-1.3893073999999999,-0.08650729,1.0310533000000002,0.35168386,0.36264452
-6.863400500000001,-1.6009357,-0.32383972,0.8175819999999999,-0.0070860367,-0.012095132
-6.9973516,-1.7647372,-0.39819407,0.3310366,-0.22533946,-0.20533799
-6.172386,-1.7320038,-0.6218986999999999,-0.37906805,0.11267845,-0.15475835
-6.566299400000001,-0.9636279000000001,-1.4100698,-0.60103905,0.2899341,-0.12601277
-9.2413025,-1.0281851,-0.88371897,-0.57602847,0.10840239999999998,-0.28038713
-12.160907,-1.2581818,-0.57161087,-0.69207543,-0.17743017,-0.36023596
-12.26605,0.8351455,-2.0347555,-0.97740185,-0.2641905,-0.1031315
-10.218655,0.9141828000000002,-3.5023150000000003,-1.2036314,-0.22746876,0.18856537
-9.866333000000001,-1.1085728000000001,-1.5752506000000002,-1.1716919,-0.2769663,0.348263
-12.452683,-0.9599312,-0.5556654999999999,-0.9103288,-0.31209978,0.39723694
-16.165132999999997,2.1897273,0.29359615,-0.51160836,-0.26312584,0.45259878
-15.342476000000001,5.0950812999999995,0.9856736999999999,-0.1767844,-0.25994933,0.49146727
-11.368263,2.0659375,0.06789956,0.04145157,-0.30466467,0.43184683
-10.6979065,-0.36258748,1.109521,0.061679937000000004,-0.33552209999999993,0.36690313
-11.524299000000001,-0.5619575,0.31750947,0.02708751,-0.26631978,0.20985839
-12.569856,0.44264,-0.51030016,0.021764256000000003,-0.13643239999999998,-0.04935791
-12.124506,1.6400568,-0.43664494,0.11704178,-0.10183996,-0.23034856
-11.105926,1.2227571000000002,-0.6932459,0.26183429999999996,0.059445914,-0.25963518
-9.570822,-0.1830415,0.035759795,0.38959240000000006,0.59229493,-0.33522537
-7.596352,-1.1678053999999998,0.9814120000000001,0.48541096,0.9580112,-0.30700340000000004
-6.638671400000001,-1.8891592000000001,1.0225826999999998,0.44708353,0.83023566,-0.31712633
-6.3703769999999995,-1.3967294,0.45410344,0.17559758,0.6082647,-0.48321185
-6.448064,0.045614332,-0.34211227,-0.21830578,0.38521162,-0.63439226
-6.4341870000000005,1.2752188,-1.0692697,-0.5499358,0.29366909999999996,-0.5226039000000001
-6.284195400000001,1.757593,-1.4573983999999998,-0.6542716,-0.052866023,-0.11910127
-6.6357217,1.5835825000000001,-1.7719008,-0.32264155,-0.5969026,0.52553606
-7.5002103,0.44085872,-1.0416884,0.3289073,-0.16945402,0.36690313
-6.539771599999999,-1.5056368,-1.1420629999999998,0.37096974,0.34049627,0.06293657400000001
-6.3145823,-1.5650514,-2.3634887000000004,-0.09852383,0.33997267,0.16407839999999999
-8.883886,0.91755384,-1.8721794999999999,-0.32264155,0.14727089,0.21731095
-11.779357000000001,2.5732305,-1.6479194,-0.16187929,-0.056059975,0.016091935
-11.208637,1.9238751,-3.4224348,0.046251226,-0.06244788,-0.2287603
-9.599627499999999,1.7953831999999998,-3.132765,0.21766001,0.0030194195,-0.43849653
-12.011403,1.1881945,-0.98365295,0.28579766,-0.00017453292,-0.48853509999999994
-16.70426,-0.9152745999999999,0.04672524,0.16762142,-0.043284167000000005,-0.38313466
-21.269292999999998,-3.8245167999999996,5.5908537,-0.023998277000000002,-0.042219516,-0.26602307
-10.439917,-1.9866032999999998,4.157780000000001,-0.1746551,-0.017191493999999998,-0.19627973
-8.666272,1.3588243999999998,0.094321966,-0.19114846,-0.08319984400000001,-0.12707742
-11.014793,3.3607983999999997,-1.4857363000000001,-0.011222467,-0.094387405,-0.0019896755
-13.067591,1.6412636000000003,-0.5455331999999999,0.27780405,-0.080546945,0.14545573
-12.754707000000002,-1.0316615,1.2488443999999999,0.5237384,-0.13219124,0.30567697
-10.606323,-1.1789623,1.117623,0.6813066999999999,-0.012409291000000001,0.44355798
-9.138725,-0.47491384,0.61403614,0.6190334,0.09030333,0.37966147
-8.891672999999999,0.0303489,-0.31794040000000007,0.08564331,0.03600614,0.075188786
-8.360256,0.8723609,-1.1274201000000001,-0.31199506,0.21486749,-0.26176447
-7.136186599999999,0.7477858000000001,-1.7189316000000003,-0.1964717,0.5071229,-0.039776053
-6.527829,-0.42809284,-1.7838143,0.033999015,0.77752674,0.23061036
-6.190343,-1.5466256,-1.3989128,0.23628268,0.8201301999999999,0.2833193
-6.1632112999999995,-2.0549529,-0.58197296,0.2054078,0.5587496999999999,-0.0019896755
-6.477599,-2.1397746,-0.66007185,0.5104390000000001,-0.12419763,-0.13880603
-6.728770299999999,-2.2165136000000003,-0.29143178,0.49127528,-0.5319589,-0.02274164
-6.4257406999999995,-1.143825,-1.1366903,0.1314233,-0.36534977,-0.010506882
-5.997053599999999,0.74811137,-2.0300724999999997,0.104265966,0.0019373155,0.13372713
-7.986329,1.117192,-1.9979997,0.17613862,-0.052866023,0.050160762000000005
-11.695282,0.83220536,-2.4793012,0.1340762,-0.23759167,-0.062674776
-12.096397,0.78016496,-3.6724277,0.06593854,-0.25727898,0.036320303
-9.879664,-1.4598597,-4.4577065000000005,-0.110776044,-0.13590878,0.23434536
-9.265628,-3.7291799,-3.7072108,-0.24863960000000002,-0.07202974,0.33068752
-12.885785,-2.2184672,-1.2095987,-0.3109304,-0.13325588,0.36742672
-17.450607,2.467723,1.6472778000000001,-0.29070204,-0.14709635,0.39243728
-16.840069,4.41441,1.1605558,-0.17198475,-0.20724039,0.37274995
-13.366654999999998,0.41720402,0.41520244,-0.10225884,-0.26633725,0.24977407
-10.492158,-2.5746384,0.9411128000000001,-0.16772614,-0.3328692,0.107651904
-11.135067999999999,-2.788881,-0.48905879999999996,-0.35351643,-0.3733259,-0.027000242999999997
-12.308897,-0.53065085,-0.96467173,-0.5919982,-0.39142498,-0.18298031
-12.261952,1.6717561,-0.71394134,-0.77138317,-0.38025490000000006,-0.35971236
-10.770766,2.0099037,-0.91665363,-0.92469287,-0.16893041,-0.44861943
-9.092335,1.16657,-0.77049243,-0.99869484,0.23722515,-0.42200315
-7.675322,0.5628768,-0.8367735000000001,-0.82780963,0.44376743,-0.31499702
-6.4679837,0.46918693,-0.48237416,-0.52492523,0.53159237,-0.25591764
-5.613541000000001,0.44051394,-0.40292498,-0.34499922,0.58217204,-0.43158500000000005
-4.9561796,0.9509578000000002,-0.8348485999999999,-0.47647488,0.61091757,-0.55347884
-5.16164,1.9206956999999998,-1.3422278,-0.64842474,0.55716145,-0.1675516
-5.704023,2.7710202,-1.9453942,-0.6351079000000001,-0.19767599,0.19015363
-6.302477400000001,2.858064,-2.2999947,-0.36842155,-0.44413394,0.28119
-6.5305777,2.2349968,-1.7482078,0.19476129,0.21167353,0.07143632
-6.1143217000000005,0.47417644,-2.2286665,0.11810643,0.4198215,0.13000958
-7.147208999999999,-0.5754319999999999,-1.7892348999999999,-0.101717785,0.21060888,0.2944894
-10.223586,0.0096821515,-0.8552280000000001,-0.09852383,0.08391543,0.30674163
-12.007199,-0.33898064,-2.346605,0.07126179,-0.017732546000000002,0.12042772
-10.446658,0.32632968,-4.484531400000001,0.30974358,0.07007497,-0.1531701
-10.386229,1.9280602,-3.3284957000000004,0.5322555999999999,0.21060888,-0.33522537
-16.384413000000002,0.867448,-0.2735998,0.68078315,0.2361605,-0.39858085
-20.638583999999998,-1.9705716,1.5108179,0.6861064,0.21964969,-0.3437426
-15.159051000000002,-3.5538763999999996,4.531333,0.6525611,0.12224286,-0.26443484
-9.457824,-0.32915485,1.0415735000000002,0.7515736999999999,0.00726057,-0.20214403
-11.047249,1.8231462,-0.9866601,1.0305122,-0.12793264,-0.1505172
-12.486997,1.5689491000000002,-0.25854504,1.3318083,-0.21949259999999998,-0.06428047
-12.268742999999999,0.16391663,0.90457726,1.5404799,-0.21736329999999998,0.10658725
-10.888800999999999,-0.55246687,1.2393154,1.6373632,-0.24984388,0.27106708
-9.486804,-1.3214653,0.89031744,1.6362985,-0.35203290000000004,0.4052131
-8.762739999999999,-1.3500328000000001,0.010304645,1.5484736000000001,-0.35311502,0.524454
-7.758305,-0.7873188,-0.6538469,1.3834527,-0.3296927,0.56171674
-7.080889699999999,-0.1658703,-1.1991311000000002,1.1886215,-0.07311184,0.37062067
-6.463492400000001,-0.10964486,-1.1096358,1.0480877,0.27288222,0.1747249
-6.0016313,-0.8977586,-0.6555899000000001,0.9107476999999999,0.5374566999999999,0.32217032
-6.0835996,-2.1258214,-0.587403,0.85112727,0.77274454,0.49305552
-6.641381299999999,-2.625855,-1.1614081,0.52215016,0.38201767,0.16299629
-7.004169999999999,-2.3517189999999997,-2.2933388,0.43217844,-0.4494572,-0.21546089999999998
-7.2162294000000005,-1.7791312,-3.1038525000000003,0.34435347,-0.26794294,-0.12229522
-7.2663827,-1.2083153,-3.046392,0.067544244,0.28778735,0.005969026
-7.579114,-0.03413174,-2.3951689999999997,0.25118777,0.21699679,-0.11857767
-8.58873,0.6808727,-1.7475853,0.3997153,0.030141836,-0.28998646
-9.659283,0.70767814,-2.1274493,0.2575757,-0.19767599,-0.26869345
-10.972655,1.0311157,-4.6122575,-0.12035791,-0.12315043,-0.014765485
-10.550558,-0.32034418,-6.068487,-0.424307,-0.11515682,0.20666444
-10.197489,-2.3547835,-3.7944841,-0.6116855,-0.09492846,0.344528
-14.757074,-0.5657595,-0.8821674999999999,-0.6883404000000001,-0.081629045,0.44299948
-19.535401999999998,6.446905,2.8160791,-0.7128274,-0.077911496,0.4509931
-15.635334,5.4262857,1.8327421999999998,-0.68249357,-0.19022344,0.40840703
-10.783033999999999,-1.1885583,-0.011769895,-0.7043102,-0.31798154,0.2817136
-11.492887,-1.9861148999999998,0.9760011000000001,-0.88371253,-0.25143212,0.08422959
-12.568237,-0.50010085,0.25681165,-1.0268993,-0.119415425,-0.1031315
-11.863289,1.3881103000000001,-0.5044582999999999,-1.1418816999999999,0.07433357,-0.25591764
-11.13528,2.07267,-0.8790934000000001,-1.0732204,0.19783308,-0.3576005
-9.807503,1.7733756,-1.1970721000000002,-0.89648837,0.29152235,-0.5087635
-7.925746000000001,1.0983161,-0.74237496,-0.87358963,0.42566836,-0.6487738000000001
-6.6005745,0.8144021,-0.37978742,-0.851232,0.6364518,-0.67060786
-5.8003654000000004,0.8550173000000001,0.020839132,-0.6058387,0.7296174,-0.57265997
-5.6681957,1.3588915000000001,-0.15689681,-0.23853415,0.62102306,-0.55827844
-5.295218,1.649672,-0.65488124,-0.14643313,0.6518979,-0.77440256
-5.405810400000001,2.2712545,-1.3087281000000002,-0.31838295,1.0692409999999999,-0.8627686
-6.363587,2.0519266,-1.6713346999999998,-0.42484805,0.9031555,-0.33896038
-7.212983,1.173676,-2.4825478,-0.26035076,-0.3147876,0.41852996
-7.2304125,-0.095049806,-2.1844313,0.28206265,-0.596379,0.51860714
-6.2560972999999995,-0.30513623,-1.8276569999999999,0.78457785,0.24626596,0.17259560000000002
-6.1141114000000005,-0.54283255,-2.9686089,0.74253285,0.40861648,0.21464059
-7.777669400000001,-0.014729128999999999,-3.8914876000000005,0.31241393,0.19357447,0.21570525
-11.445673,0.575863,-2.3249805,0.06380924,0.077510074,0.22368139
-11.97415,-0.7048434,-3.295628,0.19530234,0.07646287,0.13850933
-8.482014999999999,-1.4007611999999998,-5.481984,0.43697807,-0.034260813,-0.04724606
-9.999135,-0.7174369,-6.801563000000001,0.6360678000000001,-0.17266542,-0.1436057
-19.01636,0.15883134,-4.528307,0.71698123,-0.30572933,-0.15636405
-24.834326,-3.1745296,2.3709203999999997,0.707923,-0.38025490000000006,-0.14306463
-15.476177999999999,-5.4423842,5.91953,0.60784584,-0.3925071,-0.112730816
-8.008998,1.7129651000000001,3.3892224000000004,0.464659,-0.37121409999999994,-0.07120943
-11.435291000000001,2.6850972,-1.3570718000000002,0.37575194,-0.3462035,0.017139133
-12.051731,1.3097625,-2.7518572999999997,0.40929717,-0.28338912,0.15927875
-11.402443,-0.18058984,-0.6781050000000001,0.4774348,-0.15296066,0.3136531
-10.415610000000001,-1.4296256999999999,0.4881394,0.53970814,-0.08588765599999999,0.3546509
-8.824568,-1.7512723000000001,0.35554853,0.52480304,0.010978121,0.48186794
-7.6624894,-1.1678819999999999,0.18565598,0.50989795,0.08550368,0.5409473000000001
-6.8516593,-0.48245079999999996,-0.3184384,0.48541096,-0.034260813,0.42596504
-5.933186,-0.11848425,-0.9667594999999999,0.33210126,-0.16999507,0.25935593
-5.9992947999999995,-0.22748747,-1.4330063999999998,0.26982790000000006,-0.0012391837,0.23273966
-6.634659,-0.6183744000000001,-1.9445801999999999,0.34913567,0.20367992,0.5505291999999999
-7.4604473,-1.1741643999999998,-1.9768444,0.43643704,0.52466345,0.7735823000000001
-7.878475,-1.7860839,-1.9356546000000001,0.26289895,0.07218682,0.31684709999999994
-7.5775619999999995,-2.0650086,-2.351834,0.26715755,-1.1420213,-0.30063295
-6.641228,-1.1759936000000002,-3.1581147,0.06541494,-0.8934165999999999,-0.25324726
-6.181685,0.0051810527,-2.9263752,-0.49457395,0.25637139999999997,0.17470746
-6.2322025000000005,0.7438689,-2.9424354999999998,-0.3237062,0.41235150000000004,0.07782423
-7.941002,-0.008973468,-2.3672812000000003,-0.066060714,-0.12527974,-0.17980382
-10.398832,-1.2281008999999998,-1.9765476000000002,-0.07564257,-0.23174481,-0.17128661
-11.857811,0.023587676000000002,-3.7509574999999997,-0.1746551,-0.12421508,-0.008395034000000001
-10.173499000000001,0.0030645782,-5.3701086,-0.34712854,-0.053948127,0.14330898
-9.3245535,-1.9278016,-4.998825,-0.52811915,-0.05820673,0.18802431
-15.095039000000002,-1.3351984,-2.3113623,-0.5680348000000001,-0.148161,0.19547687
-21.38976,5.3083089999999995,1.4200393,-0.5430243,-0.25464353,0.18057176
-16.581896,4.4114985,1.1879838,-0.46050513,-0.29562387,0.17683676
-10.725219000000001,-2.6762577999999997,-0.25850675,-0.37906805,-0.381337,0.17151349999999999
-12.758098,-1.7113466,1.6020465,-0.39556143,-0.49897218,0.116692714
-13.815875,-0.3013917,0.38175067,-0.45039967,-0.5234766,0.004886922
-12.181622500000001,0.35188059999999993,-0.17979497,-0.5323778,-0.47980845,-0.07972664
-10.935708,1.3633926,-0.041563342999999996,-0.60955626,-0.43776348,-0.20800833
-9.5324955,1.4890211000000002,-0.65807027,-0.61381483,-0.30787608,-0.3490833
-7.743164500000001,1.1144339,-0.63897413,-0.57655203,-0.012444196999999999,-0.36027086
-6.3387923,0.5388199,-0.03583641,-0.42804200000000003,0.28831095,-0.26656413
-5.0095606,0.18468872,-0.13542563,-0.1767844,0.45706683,-0.24420647
-4.286990599999999,0.35313517,-0.013656527,-0.06871361,0.59332466,-0.40818015
-4.590068,0.75089824,-0.45370123,-0.09639453,0.8275653000000001,-0.6743254
-5.3366370000000005,1.2745101,-1.1682268,-0.3524518,1.0005623,-0.74459237
-6.330011,1.4576666,-1.646981,-0.37852702,0.373483,-0.061627574000000004
-7.583653,1.368631,-2.246537,-0.34552282,-0.74118894,0.69212776
-8.043387,0.9303292999999999,-2.2915382,0.28899163,-0.41380012,0.24125686
-7.414009,-0.05139872400000001,-1.9678613999999999,0.49979250000000003,0.6838375,-0.12550662
-6.962683,-0.57650465,-2.6795235,0.14952235,0.5214694999999999,0.0011693706
-7.959916000000001,-0.3345849,-2.7112706,-0.19807741,0.15310028,0.11454595599999999
-9.59506,0.29253313,-2.2620418,-0.3487168,0.015236723999999998,0.08527679
-9.897467,0.90838885,-3.0811749,-0.20446531,0.1786519,-0.05417502
-8.313089,1.1736856000000002,-4.394892700000001,0.044121925,0.08709193,-0.17235126
-11.441181,0.32353327,-3.8078244,0.25970498,-0.04597197,-0.17713347
-22.168776,-2.424809,0.69791937,0.39810959999999995,-0.11571533,-0.18406242
-27.058905,-6.351147,4.259045599999999,0.4130147,-0.109851025,-0.19949113
-9.311233,0.19078913,6.08381,0.3390302,-0.10665707,-0.16543975
-8.852225,4.2692447,1.2736962,0.29909706,-0.037454765,-0.059498273
-13.09365,3.7109167999999997,-1.795316,0.31293753,0.018413223,0.10550515
-13.533838000000001,0.089523986,-1.6787279999999998,0.41781437,-0.012426743999999998,0.18961257
-10.917225,-1.6831238000000002,0.025828648,0.6073221999999999,0.034382987999999996,0.28756043
-9.197872,-1.1140507,0.260719,0.77180207,0.123290055,0.4488463
-8.393410000000001,-1.0020308,0.25326824,0.74785614,0.16533504,0.48665014
-7.391742999999999,-0.8297154,0.42683828,0.5216090999999999,0.029600783999999998,0.34505159999999996
-6.287097,-0.6230671,0.08849928,0.20647246,-0.009232792,0.11721631
-5.6596246,-0.588715,-0.58457786,0.16069247,0.12596041,0.14489724
-5.454231,-0.86413443,-1.1957985,0.37309903,0.27766442,0.41266564
-6.09875,-1.3641491000000001,-1.3347962,0.5391845999999999,0.15948819,0.4722861
-7.1871634,-1.681352,-1.7295042,0.3911981,-0.6453704,0.08101819
-7.0297303,-1.6857479,-2.1252081,0.40556216,-1.1441506000000001,-0.14254104
-6.526191000000001,-1.2935296,-2.2680848,0.06274459,-0.44893359999999993,0.0389732
-6.3930169999999995,-0.3908199,-2.3902562,-0.09906489,0.06899287,0.056531213
-6.8714642999999995,0.5475826,-2.4666789000000002,0.13939945,-0.20247565,-0.1563815
-8.993599,0.35499308,-2.0538131999999996,0.19901989999999997,-0.40475932,-0.2234545
-11.913749000000001,0.2814336,-2.3156527999999996,0.17294468,-0.38240165,-0.14041173
-12.373723,0.5713331,-4.493121599999999,0.06913249,-0.20725785,-0.0099832835
-10.423328999999999,-1.7303088,-4.861446,-0.033580136000000003,-0.13646729999999999,0.07143632
-12.751049,-2.7372718,-2.3277867000000003,-0.046896997999999995,-0.15030776,0.10337585
-18.139803,0.9072587999999999,-0.8790934000000001,-0.0069638634999999996,-0.18811159,0.0959233
-18.224434,4.974605599999999,1.4373924999999999,0.067544244,-0.17638297,0.09485865
-10.858317,1.0776781000000002,-0.39593393,0.10958923,-0.20621064,0.05386086
-9.507135,-1.1461235,0.31587183,0.06435029,-0.2136632,-0.005742133000000001
-11.673898,0.16357185,1.0580551999999999,-0.058608155999999995,-0.2812598,-0.046722464000000005
-12.969897999999999,0.421504,0.5345869000000001,-0.20498893,-0.35578537,-0.11220722
-12.237186,0.7717757,0.727301,-0.28166124,-0.48247883,-0.20163789999999998
-10.609053,1.0971574,0.21802559999999999,-0.37959164,-0.49525464,-0.29159215
-9.738261999999999,0.94438803,-0.16327497,-0.65640086,-0.30361748,-0.36452946
-8.648431,0.7456119000000001,-0.25267446,-0.80386376,0.044505894000000004,-0.33098423
-7.211632300000001,0.51607496,-0.10519164,-0.6697177,0.42510983,-0.2538058
-6.3019986,0.56900597,0.12600204,-0.3843913,0.71842986,-0.17076302
-5.782878,0.7977959,-0.04862145,-0.16081464,0.9670171000000001,-0.32194343
-5.4660487,1.3796636,-0.67753994,-0.1895602,1.0857344,-0.6812544
-5.5926347000000005,1.9905776000000002,-1.3072916,-0.42858306,1.0346311,-0.5582959
-6.0389237,2.14305,-1.7208948,-0.57070524,0.28883454,-0.29000390000000004
-6.7250442999999995,2.0138876,-1.1614465,-0.763407,-0.32758084,-0.19364429
-6.6155148,1.2984712999999999,-1.4635372,-0.34180528,0.2329491,-0.24635322
-6.567591999999999,-0.5761215000000001,-3.1343357999999997,-0.20820032,0.5140169,-0.22718951
-7.4642015,-1.8874546000000003,-2.8389293999999996,-0.29283133,0.24466026,0.038955748
-9.711648,-1.6944436,-2.2121274,-0.31890655,0.08283333,0.09752899999999999
-11.784155,-0.93787587,-2.756473,-0.24863960000000002,-0.08058185,0.061854467
-10.534238,0.5415684000000001,-4.2515945,-0.11449360000000001,-0.0795172,-0.0073303827000000005
-9.827394,2.0251593999999997,-4.535547,0.04358087,-0.033196162,-0.112730816
-16.133596,1.493388,-2.396615,0.2112721,-0.044383723,-0.17660987
-19.530307999999998,-1.3616303,-1.200539,0.326778,-0.05129523,-0.16863371
-17.361382,-3.2391443,3.171666,0.4172733,-0.06887069,-0.12817699
-10.821169,-0.17692193,3.7989469,0.47689375,-0.10293952,-0.109536864
-10.768344,1.7694874,0.98857546,0.55194294,-0.13700834,-0.04300491
-11.127646,1.8586953999999998,0.16209704,0.69514716,-0.18278833,0.12732176
-10.928649,0.35716704,-0.013848063,0.8697499,-0.20460495,0.3040538
-10.973335,-1.6673125,0.55394167,1.0305122,-0.20621064,0.43607049999999997
-9.937833,-2.1599338,0.69959533,1.1076907,-0.2008874,0.5361477
-8.796058,-2.0989869999999997,0.534788,0.9735620999999999,-0.24506168,0.47600365
-7.774739299999999,-1.5085483,0.35117194,0.68662995,-0.11838568,0.2928837
-6.860001,-0.8138945,0.16880079999999997,0.40715042,0.37294194,0.12999213
-6.2271943,-0.59297675,-0.11933658,0.27248082,0.864287,0.3056595
-5.794705400000001,-1.1272476999999999,-0.51525134,0.35445893,1.0484717,0.70862114
-5.99149,-1.7521151000000001,-0.80543816,0.47369979999999995,0.42830379999999996,0.62557834
-6.393831,-1.8715283,-1.3142636,0.46038294,-0.8066736999999999,-0.18034486
-6.620782000000001,-1.6501603999999999,-2.251172,0.36458182,-0.68582714,-0.24848253
-6.722544999999999,-1.4237168,-2.2354564999999997,-0.048502699999999996,0.34793139,0.13903293
-7.2081366,-0.7287088,-1.9610523000000002,0.13887584,0.32716197,-0.03926991
-7.5627947,0.49162537,-2.1035936,0.29909706,-0.18224728,-0.16011651
-8.529964999999999,1.0358370000000001,-2.3529832,0.38001055,-0.56658626,-0.01584759
-10.360572,1.086393,-4.3731914000000005,0.29644418,-0.44043383,0.24178046
-11.32105,0.3617639,-6.3629265,0.11864748,-0.40636500000000003,0.5111371
-11.157746000000001,-2.0243742,-4.683173,0.067544244,-0.49951324,0.6181258000000001
-15.018118,-1.8162893,-0.47003925,0.13727015,-0.5958729,0.5398826999999999
-20.923073000000002,4.234289599999999,2.1327932,0.15643387,-0.50377184,0.46375144
-16.189035,4.8318825,1.6730968999999998,0.09574876,-0.46385616,0.43235296
-10.772136,-1.1128441,0.73892725,0.018570304,-0.53092915,0.34824553
-12.872282,-2.229701,1.6361303,-0.12301081,-0.540511,0.15234978
-15.437266000000001,-2.0885580000000004,-0.39957312,-0.28218484,-0.49312532,-0.031293754
-13.900467,-0.24541526,0.09585425,-0.42324233,-0.42339942,-0.20216149
-11.434142,0.6827880000000001,-0.17115669,-0.5696405999999999,-0.268484,-0.41243875
-9.940927,1.2401103,-1.1123941000000002,-0.5850867,0.024260076000000002,-0.57958895
-7.761858500000001,1.278657,-0.56371963,-0.33063516,0.3500607,-0.53593826
-5.1485389999999995,0.59934527,-0.07785944,-0.02666863,0.59013075,-0.28520426
-3.5529761,-0.12001654,-0.51919705,0.053162728,0.7860265000000001,-0.17448056
-3.4963677000000004,0.43270886,-0.8766035,-0.023474678,0.7743153,-0.51890385
-3.8506427000000003,1.3595618,-1.0790378999999999,-0.33009413,0.620482,-0.7046766999999999
-4.884985400000001,1.7296191000000003,-1.4827386,-0.42271873,0.21059142,-0.21547835
-6.1399493,2.276407,-1.7513393,-0.5680523000000001,-0.66720444,0.43341762
-6.8423414000000005,2.7615297,-1.8055439999999998,-0.22362904,-0.04544837400000001,0.20610593
-6.650805,2.3866072,-1.8385936,-0.36203364,0.528381,-0.01584759
-6.5862283999999995,0.5590460999999999,-0.85388726,-0.5957332,0.45492005,0.17310175
-7.929854400000001,-1.3843944,-0.23912328,-0.6207438,0.2441192,0.16725489999999998
-10.492177,-1.1528081000000001,-1.210585,-0.5174727,0.26647687,0.028850293
-10.985201,0.7501704,-3.9201126000000004,-0.27633798,0.38412952,-0.1627694
-9.332187,2.9098268,-4.255358,-0.09428269,0.3952996,-0.23144811
-12.028604,2.5986376,-1.7539922,0.03345796,0.32290336,-0.18460347
-20.155529,-1.1231296,0.18862478,0.07497934,0.23719025,-0.120724425
-21.564835000000002,-4.4057713,3.031318,0.09574876,0.11690215,-0.043528512000000005
-9.449292,-1.8517331000000001,3.6668540000000003,0.1404641,0.028536132999999998,0.03630285
-10.510181,0.9630341,0.90426123,0.20966639999999998,-0.06461209,0.08634144
-14.5341835,1.3874878000000002,0.18822256,0.36562902,-0.11677998,0.18161896
-14.034235,-0.08304049,-0.14980042,0.5540722,-0.12210324,0.35089844
-11.512528,-1.6087023999999999,0.7331236999999999,0.72602206,-0.09229301,0.49782026
-9.782019,-2.0631316,0.42290223,0.87613785,-0.12849113,0.5372123000000001
-9.18932,-1.3740228,-0.17625156,0.8543038000000001,-0.09655161,0.5409473000000001
-8.162417999999999,-0.82463014,-0.26001987,0.5828178,-0.14552556,0.47813293
-7.070709700000001,-0.25514528,-0.46004108,0.08883726,-0.001256637,0.2801079
-6.017759,0.08199662,-0.57250154,-5.2359880000000005e-05,0.18024015,0.39615482
-5.154649299999999,-0.2522818,-0.58498013,0.13088223,0.05035275,0.56967545
-5.234089,-1.0613496,-0.52353525,0.21338396,-0.49101347,0.15660839
-5.947494,-1.8050556,-0.54532254,0.27567476,-0.808262,-0.5561666000000001
-6.6860479999999995,-1.9704088,-1.3099444,0.02974041,0.018936822,-0.19792034
-6.368931,-2.0044448,-1.8948766,0.20273745,0.24518386,-0.07707374
-6.445382,-1.6566439,-1.7199561999999997,0.54396677,0.015219271000000001,-0.43319073
-7.05894,-0.04459919,-2.5570936,0.6099751,-0.05503023,-0.392734
-9.188314,0.7274925999999999,-3.0125666,0.58761746,0.06738716,-0.18193312
-12.410430999999999,0.42792046,-3.7661559999999996,0.45773005,0.15362388,0.0016929694
-13.055812,-0.33825279999999996,-5.195762599999999,0.27619836,0.21696188,0.12732176
-11.919457000000001,-1.3116874,-2.5949507,0.14898129999999998,0.17917550000000002,0.18428932
-15.483359,1.1555088,1.0182156999999998,0.087231554,0.12061971,0.24497442
-18.184995999999998,4.446032499999999,3.127316,0.04358087,0.041835542999999996,0.3104417
-11.668189,-0.16484559,0.2587366,-0.02453933,-0.09335766,0.27797859999999996
-11.009411,-0.839455,2.4355830000000003,-0.1762608,-0.23495622,0.16193165
-14.371185999999998,-0.20598753,1.6758070999999999,-0.36842155,-0.34939745,0.003822271
-14.992759,-0.15582421,0.18831833,-0.60425043,-0.43671629999999995,-0.0946492
-12.167122,0.4495832,0.46295244,-0.8022755,-0.49953067,-0.14575244
-10.799132,0.6568156999999999,-0.4504068,-0.81718063,-0.36006144,-0.30810297
-9.039978999999999,0.30465737,-0.8164036,-0.78843504,-0.05129523,-0.4933522
-7.26735,-0.046610318,-0.60225666,-0.63458425,0.27019440000000006,-0.59288836
-5.6588106,-0.08959103,-0.35612315,-0.28963740000000004,0.4847303,-0.53380895
-4.4652057,0.5606837,-0.62163055,0.010576695,0.57255524,-0.5178391999999999
-4.1209097,1.4956098999999998,-0.90805364,-0.096935585,0.37133625,-0.78028435
-4.517274400000001,2.0325432,-1.3888668,-0.5116258,0.21005037,-0.7877194000000001
-5.337691,2.2902262,-1.7551701000000002,-0.5531472,-0.31693435,-0.15959291
-6.2292247000000005,1.9444270000000001,-2.8212697999999996,-0.5350481,-0.78005743,0.6133436
-6.76565,1.4260823,-2.9635236000000003,0.043039817,-0.18385299,0.049061205
-6.6276484,1.6034351999999998,-2.0127479999999998,0.05475098,0.31492722,-0.16170475
-6.480357,0.616574,-3.0313849999999998,-0.25930357,0.09080948,0.15020303
-7.796334700000001,-0.83329713,-2.6792076000000002,-0.43868852,-0.23869123,0.2263343
-10.461091,-0.9518675999999999,-1.9926462,-0.38919097,-0.14287265,0.10869910599999999
-11.956767999999999,-0.41794145,-3.4087782,-0.15922639,0.068451814,-0.10634291
-10.506418,1.2044846000000002,-4.600506299999999,0.0861669,0.016283922,-0.23092452
-14.815052,-0.18615398,-1.3056731000000001,0.29057986,-0.011920598000000001,-0.25699973
-23.551647,-2.8540895,1.0994749,0.3959803,-0.020961404,-0.21495475
-20.927687,-4.0410295,4.6393595,0.42631412,0.00083775807,-0.15746361
-6.068601999999999,1.6905171,3.9437767999999997,0.41886157,0.0019198620999999999,-0.0893085
-8.872193,2.2861946,0.5675981999999999,0.4699648,-0.028955012999999998,0.022985986
-14.438817000000002,0.8892544,-0.088767424,0.59507,-0.025220007000000003,0.17310175
-14.894846,-0.92035985,0.23093513,0.71589917,0.005637413399999999,0.33012903
-10.401418,-1.4530793,1.9477023,0.79522437,0.048747044,0.4488463
-9.256089,-1.4421138999999998,1.4807466999999999,0.7968126,0.22975515,0.5712812
-8.569450999999999,-1.3389142,1.0216346,0.7180284,0.34100243,0.5973564
-7.4448657,-1.123982,0.6185851,0.52054447,0.1940806,0.51326644
-6.724220799999999,-0.855975,0.14707102,0.3310366,0.08761553,0.3482281
-6.134979,-0.72076964,-0.21462582,0.40875609999999996,0.21270327,0.34025192
-5.7553067,-0.97935295,-0.58106315,0.6317917,0.49857074,0.51272535
-5.8070884000000005,-1.5256332000000001,-0.70726633,0.8271639000000001,0.6396283,0.54147094
-6.2078204,-1.7614811999999997,-0.8890629000000001,0.50083965,-0.055571284000000006,0.037350047000000004
-6.3252416,-1.7244095000000002,-1.301488,0.7196342,-1.0366383,-0.17767452
-6.1333222,-1.3363093000000001,-1.4215811,0.52958524,-0.275954,-0.095696405
-5.875342400000001,-0.009260771999999999,-2.033501,0.41992623,0.2446428,-0.057910025
-6.577417999999999,0.98276234,-2.617054,0.6930179,0.09028588,-0.21654299999999999
-8.659923,0.27291983,-1.7410827000000002,0.8745321,-0.0683471,-0.24102996
-11.761823,-0.28624117,-2.307522,0.8819847,-0.15990707,-0.12339478
-12.220331,-0.36450285,-4.597873,0.7707374,-0.07419395,0.058119465
-10.100649,-2.7550654,-5.142046499999999,0.6493671999999999,0.059934605,0.17629571
-11.599466,-3.3647153,-2.4723678,0.53119093,-0.0017976891000000001,0.2790258
-18.881467999999998,1.4444697,-0.5593334,0.3837281,-0.061418135,0.34396950000000004
-19.949061999999998,7.6981053,3.1208706000000004,0.23415338,-0.13966125,0.36315066
-12.8598795,2.135082,1.4205469,0.06859144,-0.32438690000000003,0.33067009999999997
-12.402118,-0.781908,1.9319005,-0.14538592,-0.51070076,0.19598302
-13.935804999999998,-0.90727794,1.7151773999999997,-0.46104616,-0.68477994,0.008080875
-13.742123999999999,-0.54492986,0.01883758,-0.8246332000000001,-0.7135255,-0.16811012
-11.929312,0.82209224,-0.30169815,-1.0423455,-0.5980196,-0.32833135
-9.689354,1.1059583,-0.55253386,-1.0540566,-0.34302699999999997,-0.42947316
-8.1460705,0.88881385,-0.70198953,-0.9731431999999999,-0.017767452,-0.5178391999999999
-6.6199580000000005,0.7787284000000001,-0.55563676,-0.69526935,0.36920694,-0.51199234
-5.065575,1.1306665,-0.61612386,-0.24652776,0.39849359999999995,-0.47312385
-4.1738214,1.3687268,-0.6046986999999999,0.046774823,0.28455848,-0.5913001
-3.9724019999999998,1.4364348999999998,-0.75243056,-0.008045968,0.4075344,-0.9809623
-4.3656354,1.7366964,-0.8287959999999999,-0.4695634,0.5837428000000001,-1.046447
-5.425577,2.1369877,-1.6380745,-0.6697177,0.19406316,-0.5237035
-6.543257,2.2477148,-2.6828084,-0.8751953000000001,-0.63580596,0.13795082
-7.384550999999999,2.1435096000000002,-2.9790764,-0.34341097,-0.30202922,0.20982349
-7.3470197,1.4530793,-2.458941,-0.02666863,0.25422466,-0.043528512000000005
-6.6548944,-1.1772098999999998,-2.1415465,-0.042114794000000004,0.26700047,0.122522116
-8.771569,-2.637673,-2.0736182,-0.10225884,0.15201817,0.19598302
-11.9515295,-1.6088844999999998,-1.1319115,-0.15442674,-0.020961404,0.18854792
-12.165313000000001,-0.40486908,-2.8819196,-0.14538592,0.11529645,0.063442715
-10.020462,1.2243851000000001,-3.7531218999999996,-0.07298967,0.13285446,-0.058451075
-13.073031,1.4040748,-1.9078723000000002,0.027070057,0.12966052,-0.08452629
-18.910505,0.8204259,-1.1185614,0.12875293,0.1168847,-0.07333873
-20.427328,-1.5206819999999999,3.2284276000000003,0.23680627,0.10356784,-0.058451075
-11.988764,-1.9544346000000001,5.739093,0.28525662,0.1104968,-0.019058995
-9.627085000000001,0.029400798,2.570568,0.36775833,0.054070299999999995,0.05864306
-11.4928,0.70084983,0.46034753,0.53970814,-0.022567106,0.20821778
-12.527851,0.39528272,-0.8859695,0.771261,-0.07792895,0.36367425
-11.224333999999999,-0.06601293400000001,-0.123512074,0.9708918,0.01574287,0.5121843
-9.489676,-0.8176581999999999,0.19354728,0.9267,0.14137167,0.5020789000000001
-8.371374000000001,-1.3325936,0.1723155,0.5050983,0.118490405,0.27904323
-7.2992125,-1.4911758999999998,0.18179652,-0.030927233,0.26328292,0.11721631
-6.4629655,-1.4699633,0.14692737,-0.23001695,0.55765015,0.26518533
-5.6553435,-1.4026287,-0.25475264,-0.21032962,0.8674635,0.55957
-4.9986143,-1.3032407,-0.7332099,-0.030403635,0.5017647,0.5505118
-5.2596107000000005,-1.3282553,-0.81311876,-0.012304571,-0.6118601,0.048537605
-6.0865297,-1.4651365,-0.90895385,0.11011282,-0.86842346,-0.20909044
-6.6087823000000006,-1.7891008000000002,-0.97807926,-0.096935585,0.1855634,0.12465142
-6.732428,-1.0950121000000002,-1.4051474,0.05900958,0.38624138,-0.0014835298000000002
-6.718311999999999,0.7947217,-2.8012927000000003,0.27141616,0.02586578,-0.19472638
-8.586815,1.5933509,-3.1324012000000003,0.32997194,-0.17959438,-0.20004964
-11.576808,1.5582327,-3.107128,0.25597,-0.09655161,0.036285397000000004
-12.208772,0.93006116,-4.4241495,-0.0032463125,0.09878564,0.3019245
-10.535703999999999,-0.9775716999999998,-4.2240806,-0.23959879999999997,0.16905259,0.41158354
-12.411216,-2.4927087,-0.82481205,-0.43816492,0.16744688,0.40093702
-18.118092,0.46096045,1.8795728999999999,-0.56592304,0.16638224,0.38922587
-17.73274,3.9609385,2.710514,-0.6713234,0.12007865,0.35728636
-10.847658000000001,0.28091648,0.9067225,-0.78204715,0.017872171,0.26892033
-11.652598,-0.80132014,1.6501028999999998,-0.88105965,-0.097092666,0.1613906
-13.671418,-0.9888245000000001,0.5306316999999999,-0.9545206,-0.2110103,0.038955748
-13.965254000000002,-0.20682073,0.056934115,-1.0402162,-0.27967155,-0.097843155
-12.45503,0.54663455,0.050785805999999996,-1.1456167,-0.0726057,-0.24050637
-10.980777,1.5268878000000001,-1.1719905000000002,-1.2196187,0.28829348,-0.32728413
-8.985573,1.5353729,-1.3142636,-0.94174474,0.43893287,-0.3070383
-7.0144934999999995,1.1428770000000001,-1.4488081,-0.45945793,0.525187,-0.15692255
-5.495382299999999,0.77339417,-1.2962208,-0.12248721,0.7551515999999999,-0.13137093
-4.8728805,0.38658696,-1.6851733,-0.06553711,0.6694385,-0.39381608
-4.5709333,0.26320896,-1.9676316000000003,-0.13845697,0.5129348,-0.46408305
-4.961131,1.0243257,-1.9841516,0.015899949,0.017872171,-0.056321774000000005
-5.535538,1.9171906000000003,-1.9843624,-0.13313371,-0.45640358,0.34557518
-5.8712626,2.5101577999999996,-1.8139621,-0.13686872,-0.035342917,-0.04300491
-5.520052400000001,1.9535346000000002,-1.6537422,-0.55047685,0.16001178,-0.015323991
-5.8239339999999995,-0.38866514,-2.5129924,-0.9135228000000001,-0.060353484000000006,0.3147003
-8.196214,-1.3747793,-1.4291277,-0.89648837,-0.35102059999999996,0.2502802
-11.525372,-0.7837563,-0.8693728999999999,-0.61276764,-0.17533578,0.06876597599999999
-11.733082000000001,0.16367720000000002,-4.2298265,-0.32477087,-0.10135127,-0.07229154
-10.0493355,2.3625119,-5.211248,-0.12674580000000002,-0.30524063,-0.16491616
-11.911528,2.0130063999999996,-2.5728185000000003,-0.05222025,-0.40477675,-0.17928022
-18.543734,-0.35356614,0.5616797,-0.11290534599999999,-0.41594687,-0.13775884
-16.635841,-3.9738480000000003,1.0224869,-0.17306685,-0.33505085,-0.10901327
-8.380415,0.5634514,-0.16895403,-0.12355186,-0.27382470000000003,-0.09943141
-12.463745,1.9843526999999999,-0.964959,0.08349655,-0.19504054,-0.032882
-16.468067,0.87034976,-1.1313657,0.40662682,-0.14447835,0.045343652000000005
-14.372488,-0.44545559999999995,-0.008896854000000001,0.7563559,-0.09337512,0.15074408
-10.701708,-0.2033635,1.6053313999999999,1.0038959,-0.11625638,0.26199138
-10.634805,-1.0460651,0.047951072000000004,1.1044966999999999,-0.028431414,0.305101
-9.472028,-1.7787578000000002,-0.7995196999999999,1.0076135,-0.04759513,0.21568778
-7.795933,-1.1861928999999998,-1.2234371000000002,0.66479594,0.08705702400000001,-0.10103711
-6.6378856,0.09088389599999999,-1.4304302,0.47102946,0.39102358,-0.20697859
-5.6720076,0.7730686,-1.4772032,0.39756855,0.090268426,0.12625712
-5.3486943,-0.022246921,-1.2453008999999997,0.457189,-0.8136026999999999,-0.036617007
-5.587492,-1.4384075,-0.9245162,0.5663244000000001,-1.3943784,-0.76005596
-5.9571185,-2.7144213,-0.6712384,0.24692918,-0.4686558,-0.24370033
-6.308137400000001,-3.062749,-1.0630639,0.17505652,0.33300883,0.16830209999999998
-6.4078703,-2.301776,-0.9580446,0.5673891,0.16479398,-0.11381292
-6.5442634,0.03331771,-1.6398175,0.66160196,-0.27436575,-0.24954717
-7.642215299999999,1.3906098999999998,-2.4021792,0.5679126999999999,-0.29192376,-0.16172221
-9.565430000000001,0.29338548,-3.2921996,0.29377383,-0.28288296,0.07141887400000001
-11.537706,-0.3605093,-5.5163839999999995,-0.07298967,-0.24507913,0.21727604
-12.422603,-1.5840901,-3.5557822999999997,-0.33115876,-0.29405308,0.19863592
-16.552217000000002,1.0169516,2.2633348,-0.41526620000000003,-0.26050785,0.18853046
-21.047771,6.5145464,3.7555928,-0.4301713,-0.24562019,0.2247286
-14.057057,0.17588763,-0.25368962,-0.44774675,-0.2653075,0.21779963
-10.666178,-1.3622911,1.5153763999999998,-0.5142787,-0.26211354,0.11294025
-13.374087,-0.58256674,2.0855508,-0.64948934,-0.31641075,-0.07707374
-14.194369,-0.12252566,-0.40508935,-0.78843504,-0.47078509999999996,-0.2745752
-12.0534935,0.8217571,0.08363426,-0.9161931000000001,-0.48729593,-0.44704863
-10.63447,1.5037694,-0.7942142,-0.9561088,-0.10719812,-0.56948346
-8.664883999999999,1.6098708000000002,-1.4166492,-1.0136,0.35430184,-0.5503198
-6.8358191999999995,0.8617210999999999,-0.9206759,-0.69581044,0.53583354,-0.4049862
-5.499089,-0.14486836,-0.31127498,-0.21404718,0.5656263000000001,-0.32354912
-4.600296,-0.36222357,-0.28375122,-0.111840695,0.46767843,-0.6040759
-4.2122150000000005,0.24850856,-0.66684264,-0.40622538,0.31011009999999994,-0.7557974000000001
-4.3952947,0.9401934000000001,-1.0213568000000002,-0.5275956,-0.37177259999999995,-0.23518312
-4.9975033,1.4959451000000001,-1.1451178999999998,-0.14325662,-0.50645965,0.55316466
-5.9297867,2.3035285,-1.6057528,0.27300440000000004,0.38624138,-0.09997246
-6.5290550000000005,2.5587504,-1.215632,-0.04956735,0.56243235,-0.17982127
-6.222405999999999,0.60644174,-1.9095578000000002,-0.42432445,0.3681423,0.14913839
-7.343572,-2.0686,-2.120238,-0.5057615,0.04235914,0.17043139999999998
-10.345039,-2.1213298,-0.11700942,-0.30986574,0.15840608,0.061837014
-12.359732000000001,-1.1007198,-1.8971846,-0.07670722,0.19992746,-0.08452629
-11.138458,0.76548374,-3.3573508000000003,0.18037978,0.13072516,-0.14149384
-14.200738000000001,0.40028179999999997,-0.85869485,0.35339427,0.09663888,-0.12500048
-23.56768,-2.130217,3.730214,0.38692203,0.075363316,-0.10848966
-18.720839,-2.871232,6.42508,0.30867893,0.113149695,-0.06642723
-6.199977,2.018829,1.2491508,0.26235790000000003,0.124337256,0.01446878
-10.526338,2.0443703999999996,-0.43569684,0.32039008,0.064175755,0.11878711
-15.366169000000001,0.7997304000000001,-0.018933348,0.43963100000000005,0.0040317103000000005,0.23272221
-13.797573000000002,-1.3770491000000002,1.2073097,0.5157448,-0.02469641,0.32587042
-10.542982,-1.5383226,2.2207656000000005,0.59507,0.1237962,0.4046546
-9.476088,-1.5813415000000002,1.4854777,0.6813066999999999,0.44638540000000004,0.4536285
-8.899564,-1.4251341999999998,1.0432974,0.52693236,0.48045424,0.43819982
-7.794142,-1.0602004999999999,0.58225065,0.12875293,0.39795253,0.26679102
-6.809177,-0.8267273999999999,0.11050677,-0.15655604,0.48790678,0.20715313
-6.1736217,-0.95014375,-0.35761714,-0.043179445,0.63802254,0.4408527
-5.9359446,-1.3016317,-0.30300057,0.48486993,0.6284407,0.62184334
-6.071006,-1.7095749,-0.12751518,0.73879784,-0.31536356,0.21886429
-5.8245087,-1.8507848999999998,-0.13719733,0.7095111999999999,-1.239463,-0.6631728
-5.519362999999999,-1.3686789,-0.49242026,0.50776863,-0.55702186,-0.16385151
-4.7835765,-0.2428391,-1.1374661,0.29962066,0.22654374,0.22898720000000003
-4.2886953000000005,0.7321852,-2.5010692999999997,0.44973645,0.09079203,-0.007347836
-5.7819395,0.6438486999999999,-2.8449914,0.6184923000000001,-0.13170254,-0.18886207
-8.8672905,0.13096283,-3.0631511000000002,0.704729,-0.21687461,-0.09997246
-11.867703,0.5770218,-3.6534464,0.61369264,-0.10986847400000001,0.07941248
-10.729021000000001,-0.83778864,-3.6762582999999998,0.41088542,-0.091245815,0.13849187
-9.782401,-2.4000435,-0.40004236,0.18144442,-0.127985,0.17469001
-15.930807999999999,-0.63507634,1.3041216999999998,0.031869713,-0.20781635,0.23272221
-22.960520000000002,6.182528,4.194833,-0.058608155999999995,-0.2695661,0.29286626
-14.979515,2.055202,2.3451874,-0.02666863,-0.3361155,0.26679102
-11.95513,-1.4119469,2.2594466,0.00577704,-0.43139303,0.15606734
-14.152491,-1.9537740000000001,1.2102977,-0.08948303,-0.5335995,0.037873644
-15.441107999999998,-0.06539044,0.18283083,-0.25663322,-0.5831145000000001,-0.044087015
-13.865387,1.5864267,0.36027947,-0.44242352,-0.5117829,-0.13617058
-11.6447935,1.4896913999999999,0.13522452,-0.60850906,-0.30471703,-0.2612758
-9.842017,1.4305642,-0.35215834,-0.57176983,0.011484266000000002,-0.36400586
-8.253598,1.3048973,-0.26344836,-0.28218484,0.38411206,-0.35548866
-6.699953,1.0899843,-0.33085954,0.122365035,0.73809975,-0.32300809999999996
-5.40355,0.8198608000000001,-0.54416376,0.41620865,1.1378848999999998,-0.44011968
-4.6366587,0.67105645,-0.16488388,0.37788123,1.3172698,-0.53489107
-4.659796,0.7823389000000001,-0.36538392,0.38639843,0.98935735,-0.32887238
-4.652872599999999,1.1860589,-0.6728856,0.5663244000000001,0.20364502,0.21195279
-4.543744599999999,1.7259609,-0.69738305,0.79522437,0.06365216,0.5201779000000001
-4.5981603,1.8372624,-0.44226652,1.1635935,0.5549798,0.15926129
-5.4919443,1.3180846000000002,-0.20040427,1.060846,0.6422812,0.14116223
-7.478011,0.5412811,0.09867942,0.9320233,0.46183157,0.26731459999999996
-9.944605000000001,-0.39716935,-0.026135106,0.792554,0.12859586,0.29180159999999994
-10.45026,-1.2648568,-1.4390205,0.7334746,0.10196213400000001,0.21088813
-8.675514,-0.40188113,-2.9770272,0.82342887,0.18448131,0.10389945
-9.653182000000001,0.76089644,-2.3506944,0.9288293,0.059393555,0.08473573599999999
-15.056196,-0.6587694000000001,0.66906446,0.9703507,-0.0023561944,0.10388199999999999
-20.282164,-4.0379267,1.2052124,0.91711813,-0.015114551,0.11773991
-13.599075,-3.2059894,3.0803993,0.80320054,-0.018849555,0.13796827
-8.470963000000001,1.144888,1.8677646,0.7196342,-0.06462954,0.14859733
-11.901097,1.8585709,-0.066233195,0.7100523,-0.13702579999999998,0.16564920000000002
-14.990278,0.9446275,-0.79248077,0.7579616,-0.21420425,0.21301743
-15.004271,-0.85747856,-1.2420161,0.77606064,-0.24614379,0.28541368
-11.959028,-0.65632725,-0.25289473,0.7584852,-0.26265459999999996,0.36259216
-11.050303,-0.53198206,-0.7483125,0.7648731,-0.1348965,0.44830528
-9.983036,-0.34401807,-1.0580648000000001,0.7270867,-0.0012740904,0.41688934
-8.273882,0.23330058,-1.2768086,0.55354863,0.0024260078,0.33916983
-6.984758,0.87794423,-1.4470938,0.32145473,0.09717993400000001,0.18374826
-6.253808,0.8378747999999999,-1.58273,0.1511106,0.35856044,0.03415609
-5.949993599999999,0.053122547,-1.5768691000000001,0.023876105,0.4895125,0.11772246
-6.278373,-0.91358906,-1.3154894,-0.14964452,0.19673352,0.08152433
-6.7796803,-1.3679799,-1.3917781999999999,-0.15390313,-0.14500195,-0.032358404
-6.7855315,-1.0619433999999999,-1.8132726000000003,-0.014433873,0.01839577,-0.015323991
-6.6035914,-0.62297124,-1.6411198,-0.011763518999999998,0.17809339999999999,0.051190507
-6.4739213,-0.013838486,-1.7142006,-0.029338984,0.033841934,-0.004694935999999999
-7.4109545,0.51955134,-2.3913574,-0.019216076000000002,-0.071017444,-0.09358455
-9.160274000000001,0.64699954,-2.6151674,-0.090024084,-0.20038125,-0.069097586
-10.479393,0.5588354,-2.9836732999999995,-0.21991149,-0.15671311,0.059707712
-10.824645,-0.12074438,-4.0665326,-0.2672797,-0.18332939,0.15924384
-11.046885000000001,-0.9962752,-4.105654,-0.15655604,-0.23390903,0.26572640000000003
-14.103504999999998,0.5132211,-2.7551994,0.00577704,-0.42606977,0.30990067
-16.081068,2.4890885,-1.8409974999999998,0.1383348,-0.5554336,0.31202996
-15.344075,1.4917027,-0.8355667999999999,0.24212952,-0.6970147,0.28169614
-13.723162,0.94522125,-0.9434495,0.27248082,-0.7986976,0.22418754
-12.285032000000001,0.9411031999999999,0.14783718,0.16708037,-0.8343721,0.11719886
-11.193439,0.9856065999999999,0.41735724,-0.06553711,-0.73694783,0.0016755160999999998
-10.592896000000001,1.0399263,0.05959647,-0.32957053,-0.5964139,-0.11168362
-10.304941,1.2169632,-0.52087295,-0.50682616,-0.551175,-0.22401302
-9.637016000000001,1.354716,-0.2587749,-0.5126904999999999,-0.61079544,-0.35496506
-8.945877000000001,0.9478549000000001,-0.1852729,-0.46903977,-0.32175145,-0.48111746
-7.833512,0.28807992,-0.43881887,-0.42484805,0.030647982,-0.50028116
-6.739314,0.033039982999999995,-0.58453,-0.2997603,0.1796991,-0.37252307
-6.2700315,0.2658426,-0.4330536,-0.19435987,0.18928096,-0.2830924
-5.928254,1.2340482,-0.5880159,-0.20500638,0.13124876,-0.45291293
-5.914865499999999,2.3338392000000003,-1.5658845,-0.20552997,-0.03960152,-0.5332854
-6.2107987,2.8205326,-2.6649380000000003,-0.11876965,-0.3382448,-0.23305382
-7.3101587,2.665848,-3.381877,0.146852,-0.5181707999999999,-0.03450516
-8.402316,2.1448312,-3.332001,0.28525662,0.065240405,-0.36932912
-8.585262,1.6401814,-1.6284593,-0.004310963,0.4421268,-0.3975511
-7.833416000000001,0.11226889999999999,-1.4243298,-0.4865978,0.28775242,-0.055257123
-8.310897,-0.34080023,-1.8502581999999999,-0.6878168,0.12486085,0.12784536
-10.35316,0.8859886999999999,-1.7363994999999999,-0.62767273,0.080145516,0.093235485
-11.455115,2.2587762000000002,-2.4066422000000003,-0.52227235,0.123272605,-0.05045747
-11.190106,2.463126,-2.3867316,-0.40674898,0.17383479,-0.12925908
-13.879942999999999,0.94086385,-0.026748022000000003,-0.33435273,0.17277014,-0.13884094
-19.354343,-2.0365846000000003,2.4969799999999998,-0.38067377,0.13391912,-0.1510757
-16.858014999999998,-3.8207053999999996,2.7955465,-0.516408,0.07695156,-0.18301523
-8.859408,-0.44259214,0.9335088,-0.60637975,0.0024260078,-0.18034486
-9.275262,1.975657,-1.3784758999999998,-0.5723109000000001,-0.0726057,-0.12711233
-11.960263000000001,1.9203317,-0.023942016,-0.33967596,-0.1327672,-0.051539574000000005
-12.271452,0.47702074,1.1403676999999999,0.012705997,-0.15086626,0.036285397000000004
-10.639871000000001,-0.8325405,2.1692712000000003,0.37308156,-0.15086626,0.13742723
-9.648786999999999,-1.390016,1.8232421000000003,0.5748416000000001,-0.13437290000000002,0.28167868
-9.061192,-1.0108799000000002,1.052606,0.5849470999999999,0.08759808,0.45629890000000006
-7.763352,-0.073425375,0.26964456,0.44921285,0.22015584,0.56648153
-6.468884,0.44176853,-0.21350533,0.11863003,0.10089748,0.5403888000000001
-5.8177567,-0.0008140285499999999,-0.44873086,-0.29550170000000003,0.074298665,0.43765876
-5.7055169999999995,-1.0359806999999999,-0.48156014,-0.29496065,0.4437325,0.5388006
-6.014292,-2.0026348,-0.086401954,0.05742133,0.8903448,0.7277848000000001
-6.848986999999999,-2.833145,0.25322992,0.33262485,0.6406755000000001,0.6553711
-7.412553999999999,-2.913188,0.1052108,0.2575757,-0.27914795,0.19172442
-7.3986387,-2.2024548,-0.7421833000000001,0.3331659,-0.7380125,-0.06270968
-6.97973,-1.7957374,-1.2170876,0.037716564,-0.038013272,0.09962339999999999
-6.8501080000000005,-1.5414158000000002,-1.6353738000000002,-0.121963605,0.20099212,0.07035422
-8.233372,-0.06653008,-2.0107272000000003,-0.036250487000000005,0.08600982,-0.23570672
-10.472429,1.019815,-2.2842505,0.079779,-0.014590953,-0.19524999
-12.439994,1.6729436000000002,-2.9884042999999996,0.14898129999999998,0.0013613568,-0.019058995
-11.220761,0.72672635,-4.2753644,0.14898129999999998,0.05778785,0.12306316
-9.851077,-2.9236555,-3.5302982000000003,0.06806784,0.11262609999999999,0.24017476
-12.700637,-3.9633517,-1.3859843,-0.006981317,0.09452703,0.2891487
-18.686161,-0.1370441,0.118694946,-0.046373397000000004,0.006684611,0.2981895
-17.03577,5.066916,3.0864995,-0.09267698,-0.04865978,0.29551914
-11.078047999999999,2.9309432999999996,1.9123734000000001,-0.1826487,-0.17428859,0.24975662
-10.066067,0.27927884,2.1040628,-0.33702308,-0.29724702,0.14966199
-12.319806,-0.72603685,1.2296525,-0.50682616,-0.34943238,0.05384341
-13.402052,-0.87162346,0.5130391,-0.67823493,-0.40051815,-0.057386424000000005
-11.853041000000001,0.22477724,0.7769376,-0.78311175,-0.41011748,-0.19100884
-10.070549,0.90368664,0.23053289999999999,-0.7873704,-0.41648793,-0.38158134
-8.596017999999999,1.1718373,-0.10547895,-0.68888146,-0.19238764,-0.48272318
-7.481611999999999,1.0637629,-0.17883729999999998,-0.5291838000000001,0.16798794,-0.48909359999999996
-6.263117,0.82260936,-0.10447339,-0.34128168,0.3915646,-0.42575562
-5.5787005,0.8972701999999999,-0.29959124,-0.1805194,0.5267753000000001,-0.37358773
-5.5194488,1.1648749,-0.6898078000000001,-0.20659462,0.5139819999999999,-0.62378067
-5.761972,1.6624379,-1.1147596000000002,-0.44668213,0.37453020000000004,-0.89367837
-6.4772735,2.1050684,-1.4492868,-0.653748,0.00029670597999999996,-0.73504543
-7.3721395,2.026366,-2.0414974999999997,-0.42538909999999996,-0.883346,0.21940534
-7.738614999999999,1.7040587999999999,-2.6782974999999998,0.14898129999999998,-0.4548327999999999,0.24389231
-7.551532300000001,1.4436941,-2.0173066000000004,0.11756538,0.46396090000000006,-0.2532822
-7.130286999999999,0.41853517,-1.1831954,-0.39983746,0.62098813,-0.15533431
-7.392184299999999,-0.75927794,-1.6105603000000002,-0.6159616,0.23931955,-0.014800391999999999
-9.432006,-0.34946725,-1.6637689999999998,-0.53876567,0.020525072,-0.11116002
-10.857207,0.9898013000000001,-2.7703881,-0.35512215,0.1807463,-0.23731242
-9.70481,1.529349,-3.8062828,-0.05169665,0.17437585,-0.28042206
-10.293573,1.9808667000000002,-2.5655596000000003,0.26555184,0.14508922,-0.269793
-17.220516,-0.13615346,1.1589563999999999,0.43856633,0.13657202,-0.2750988
-26.584726,-5.59999,6.4362845,0.40289179999999997,0.13763666,-0.28841567
-9.346829,-2.810994,5.425472,0.21977186,0.06578146,-0.26499334
-6.7490726,2.1567925999999997,0.8301655000000001,0.015358897,-0.021519909,-0.23465952
-12.388663000000001,2.7513878,-0.6748871,-0.08309512599999999,-0.10560987,-0.17503907
-15.187225,0.9756468,0.10833284,-0.027209682000000002,-0.14767231,-0.03715806
-11.996263,-2.0137055,1.9987179,0.16282177,-0.16151276,0.12306316
-10.371758,-2.2787914000000002,2.0912778000000003,0.44282493,-0.11253883,0.24921556
-10.185058999999999,-2.096392,1.7331147,0.71537554,0.020525072,0.33864623
-9.03995,-1.3177112,1.2234371000000002,0.89743084,0.1802227,0.4365941
-7.5147767000000005,-0.46808556,0.5681345,0.9511870000000001,0.21003293,0.50047314
-6.812336999999999,-0.026767176,-0.17604086,0.92298245,0.28082347,0.51111966
-6.578212700000001,-0.27670267,-1.0331459,0.8495216,0.4314803,0.47331583
-6.323872,-1.0180815,-1.2109584999999998,0.7233516999999999,0.5991715,0.4738569
-6.4744196,-1.7554957999999998,-0.7937065999999999,0.5657833999999999,0.33833209999999997,0.54838246
-6.933742,-1.8006696,-0.4241472,0.16601571,-0.664028,0.21301743
-7.1526966,-1.4815989999999999,-0.33611718,-0.0032463125,-1.1303276000000002,-0.15426965
-7.016639,-1.0331938,-0.85814893,-0.26195645,-0.21313961,0.15126769
-6.984269599999999,-0.47931919,-1.6789865000000002,-0.20394172,0.2435607,0.32161182
-7.560142,-0.6220519,-2.2057302000000005,0.18730873,0.036494836,0.10868165
-8.835868,-1.123685,-2.1733317000000003,0.5290617,-0.25094345,-0.15852825
-9.998713,-1.2057966,-2.691552,0.60465187,-0.28927088,-0.12925908
-10.117006,-0.83265543,-3.8258193,0.5375789000000001,-0.23975588,0.024574235
-10.022109,-0.8366394,-4.9721727,0.40130356,-0.17270033,0.1773429
-11.569338,-0.70449865,-3.2013828999999996,0.31719613,-0.15458381,0.26518533
-17.383705,3.2038154999999997,0.5899025999999999,0.28578022,-0.24242623,0.27742007
-19.064905,6.673052,3.2562964,0.24373522,-0.25146705,0.27689648
-13.454954,-0.67913926,2.519677,0.15643387,-0.30843458,0.2225993
-11.798884,-2.323477,2.072756,-0.096935585,-0.38508946,0.13049826
-11.592352,-1.3308122,2.0598657,-0.42964769999999997,-0.4058414,0.047996555
-12.07779,-0.4926022,1.4814937,-0.78150606,-0.39360666,-0.076026544
-11.869025,0.9324935999999999,0.6547566999999999,-1.0253111,-0.3973242,-0.23785347
-10.622086999999999,0.8943300999999999,0.25822902,-1.102507,-0.34674457,-0.37198200000000003
-8.923314,0.8418300999999999,-0.17899053,-1.0428866,-0.16257742,-0.47633526
-7.663092599999999,0.6985323,0.07641334,-0.86880744,0.30637509999999996,-0.54925513
-6.4619599999999995,0.5252496,-0.08359595,-0.58241636,0.6492101,-0.44385470000000005
-5.383918,0.71469796,-0.39118382,-0.3088011,0.74129367,-0.33471924
-5.282078299999999,1.3633926,-0.55512923,-0.22949335,0.7545930999999999,-0.6008994000000001
-5.658111,2.1172116,-1.3466042999999999,-0.39664352,0.86212283,-0.95914567
-6.262571,2.6218805,-1.9033234,-0.8533787,0.76845104,-1.0485764
-6.8848142999999995,2.8006412999999997,-2.1910777,-0.99869484,0.23345524,-0.52211523
-7.4440427,2.5271375,-2.0489483,-1.2494288999999998,-0.90038043,-0.057927478
-7.1515183,2.1878022999999995,-1.34806,-0.8347386,-0.50433034,-0.13458234
-6.523491,0.84847635,-0.16874333,-0.40994292,0.38889426,-0.26872835
-7.385892,-1.5112298000000002,-0.2336741,-0.4232598,0.35749578,-0.1446878
-10.52379,-2.1956363,-0.9824941999999999,-0.5031085999999999,0.10782644,-0.08932595
-11.822951,-0.9085421,-2.813704,-0.48713884,0.03010693,-0.041416664
-10.017991,1.3715998999999999,-3.8846784,-0.26782078,0.0024260078,-0.0946492
-8.398399000000001,3.7004879,-4.5975184,0.09468411,-0.06356489,-0.16652186
-10.352796000000001,3.7921855000000004,-3.759586,0.42844343,-0.12424999,-0.17769197
-18.097244,0.15754806,-0.9764129,0.62275094,-0.14554301,-0.17503907
-20.496778,-5.593353,4.336253599999999,0.6121044,-0.15193091,-0.16013396
-12.477103999999999,-4.9445434,7.216689,0.48486993,-0.1263793,-0.11009537
-10.402529,0.081345394,3.0636107999999997,0.38852775,-0.11253883,-0.03663446
-12.918739,0.66026336,0.3319896,0.38639843,-0.121056035,0.05810201
-13.356026000000002,-1.2273444,-0.037818807999999995,0.49286354,-0.12264428,0.1603085
-12.055131,-2.9796796000000003,1.0914495000000002,0.67650706,-0.10243337599999999,0.31841788
-10.591641000000001,-3.2534137000000003,1.6506488000000001,0.8489805,-0.118926734,0.5185721999999999
-9.497347999999999,-3.0741262000000003,1.810323,0.95385736,-0.08646361,0.7320260000000001
-8.405353,-2.3601658,1.5424213,0.930435,-0.03375467,0.7581187
-7.297747,-1.3389908000000001,0.7485615,0.5759063,-0.08485791,0.63887775
-6.5938134,-0.6123889,-0.084007755,0.24851742,-0.0044854963,0.4802448
-6.10351,-0.63946253,-0.65306157,0.16814502,0.12273155,0.52496016
-5.9274783,-0.9843808000000001,-0.7973266,0.20912535,0.31117475,0.75705403
-5.995435700000001,-1.5876333999999999,-0.8441859,0.3986332,0.06895796,0.63727206
-6.233619999999999,-2.05864,-0.97458375,0.37308156,-0.7193898,-0.053668875
-6.760967,-1.9547795,-1.2996206,0.20273745,-0.7720813,-0.11061897
-7.178037,-1.6834494999999998,-1.1482303,-0.16880825,0.04342379,0.39240238
-7.0913477,-0.8080909000000001,-1.1042441,0.08136725,0.22120303,0.20024163
-7.226447599999999,0.6504088000000001,-1.9668845000000001,0.35178855,-0.02417281,-0.086655594
-8.862502000000001,0.62421626,-2.0900328,0.44334853,-0.13116150000000001,-0.09836676
-11.210447,0.6375568,-2.5463772000000002,0.33210126,-0.030560715,0.005934119
-11.906031,0.49962202,-4.90819,0.10000736,0.039147735,0.18373081
-10.884472,-1.2903981000000002,-3.9180536,-0.18797196,0.063111104,0.32906437
-13.582028,-1.1715883,0.6735846999999999,-0.38599703,0.04129449,0.41743040000000003
-20.66422,2.3607116,2.8965435,-0.45519933,0.009878564,0.45202282
-18.729457999999997,3.946765,3.123533,-0.40835467,-0.030560715,0.40571925
-11.060867,-1.5510309,1.3008176000000002,-0.40036106,-0.07953466,0.26092672
-10.908547,-2.3503304,2.9814515,-0.51321405,-0.096028015,0.08791223
-13.557129000000002,-1.5115458000000002,1.8764029999999998,-0.69261646,-0.1285086,-0.062168628
-12.577546,0.33154905,1.108956,-0.9140638000000001,-0.14021975,-0.19579104
-10.512221,1.0148925,0.7814196,-1.074285,-0.17907079,-0.36561158
-9.064160000000001,1.4419701999999999,-0.21404162,-1.0732204,-0.068364546,-0.57641244
-7.477389,1.6392523999999997,-0.43291956,-1.0844079,0.4607669,-0.72546357
-6.0941339999999995,1.304524,-0.24201548,-1.0593799,0.9595471,-0.7749611
-4.9539194,0.7820133,0.16341862,-0.89648837,1.0175619,-0.6551965999999999
-4.096029,0.40768465,0.22084117,-0.7367906999999999,1.1160508,-0.5508608
-3.9029608000000002,0.8359978000000001,-0.26646507,-0.84060293,1.2235805,-0.71321136
-4.843135,1.9463328000000002,-0.7152917,-1.2520818,1.2651019,-0.894202
-6.25173,2.7169304,-1.0929531000000001,-1.0460806,0.6177942,-0.38104028
-7.2043729999999995,2.6472304,-1.6877589,-0.90128803,-0.41861722,0.4908913
-7.298006,2.213535,-1.7258459,-0.29496065,0.10782644,-0.077091195
-6.4393199999999995,1.2445827,-1.1396495,-0.37693876,0.39847612,-0.24050637
-6.066466999999999,-0.5176456,-2.0515435,-1.0918605,-0.0800757,0.024033183
-8.29906,-0.96168375,-2.3036625,-1.5379492000000001,-0.3840248,0.20450023
-11.415918,0.51924485,-1.0702943,-1.3750577,-0.41915828,0.12571606
-11.640284,1.0905589,-3.0597131,-1.0024298,-0.40905282,-0.07016224
-9.749372,1.615751,-4.021138,-0.5632526,-0.52297044,-0.23092452
-12.986495,-0.7207216999999999,-1.5486654,-0.27420866,-0.5985607,-0.26925194
-24.075422,-4.650104499999999,3.18266,-0.16507325,-0.5160415,-0.22560126
-24.657010999999997,-7.942716000000001,5.246883400000001,-0.15816173,-0.42074654,-0.18407987
-9.41151,0.4096479,4.9423885,-0.21139428,-0.30098203,-0.120741874
-12.616667,2.6260467,-0.9310763000000001,-0.15868534,-0.18226473,-0.061103977000000004
-14.568879999999998,1.2507885,-3.8265665,0.102136664,-0.06195919,0.01605703
-12.649123,-1.8925014999999998,-1.6894444,0.49499282,0.13390166,0.13475688
-9.869589,-3.348521,0.66822165,0.87559676,0.23664919,0.34342843
