accx,accy,accz,gyrx,gyry,gyrz
-7.8014107,-1.1909333,1.4095719,0.6504319000000001,-0.08964011,0.18161896
-7.682160400000001,-0.92528236,1.0730141000000002,0.64669687,-0.005009094699999999,0.2934073
-7.520743400000001,-1.1802169,0.99945474,0.6168866,0.051940999999999994,0.31895890000000005
-7.3028035000000004,-1.4660368000000001,0.7541734999999999,0.545555,0.16479398,0.25614452
-7.3981595,-1.7389566000000003,0.58198255,0.44601887,0.277647,0.17629571
-7.2732399999999995,-1.9701982,0.6322608000000001,0.36404076,0.4612905,0.24760985
-7.386035400000001,-1.8526141999999999,0.13404657,0.41833797,0.37400659999999997,0.42914155
-7.709358,-1.3452636999999998,-0.48350424,0.40662682,0.37346554,0.49621457
-8.234636,-0.6861686,-0.9481709,0.3336895,0.26860616,0.38709658
-8.5178795,-0.53952855,-1.2050687,0.0866905,-0.029478611000000002,0.1613906
-8.932699000000001,-0.058303602,-1.1949938999999998,-0.09374163,0.20205677,0.052255157
-8.51427,0.0043191398,-1.4369999,0.29590312,0.13711306,0.28009045
-8.567507,-0.6047658,-1.214569,0.20114920000000003,0.24092525,0.13903293
-9.480618,-0.8638566999999999,-0.82996434,-0.0490263,0.034906585,-0.044069562
-10.206693,0.0024037785000000002,-1.4704708,-0.31998867,-0.010314896,0.0059515727
-10.942919,1.3916537,-2.5025058,-0.56538194,-0.06887069,0.12465142
-11.726168,1.2697793,-2.2236197,-0.8193099,-0.13700834,0.20343557
-12.848657000000001,0.10267294,0.27777526,-1.0114707,-0.191323,0.21462314
-14.316942999999998,-0.7705403000000001,3.3399975,-1.0503391000000002,-0.18917623,0.17948966
-14.61865,0.38290945,2.5356224,-1.0045591999999999,-0.17854719,0.1677785
-12.753461999999999,-0.738592,3.5865142,-0.9609084999999999,-0.16255997,0.13264503
-10.255496,-2.1462486000000003,2.967632,-1.0120118,-0.15617207,0.05544911
-11.134551,-1.6367816000000002,1.0857992,-1.1083538999999998,-0.08325221,0.034679692000000005
-12.526061,-0.56923586,1.1041771,-1.1583923999999999,-0.07367035,-0.006806784000000001
-11.997556,0.65156764,1.2042258999999997,-1.1168711,-0.01298525,-0.033423055
-10.5557,0.86762995,0.87843263,-0.9545206,0.059393555,-0.04939282
-9.530656,0.634473,0.6295314000000001,-0.77140063,-0.0065973448,-0.16065755
-8.449291,0.28959304,0.95724016,-0.69314003,0.051940999999999994,-0.28893927
-7.4537625,-0.13145125,1.1621839,-0.64364254,0.17172295,-0.32407275
-6.817825,-0.08203493,1.2067448,-0.27207938,0.06684611,-0.20909044
-6.553303700000001,0.6140649,0.9134263000000001,-0.031468287000000005,-0.0071383966,-0.13723524
-6.4612703,1.2452816999999998,0.49725652,0.048904125,0.10782644,-0.15746361
-7.074205,1.4541807,0.25979963,-5.2359880000000005e-05,0.36707765,-0.19312069
-7.0804205,1.1288086000000002,0.03932237,-0.10971139,0.11369075,-0.2075022
-7.1459455,0.27502674,0.026058491,0.041975167,-0.45959756,-0.066968285
-7.3414744999999995,-0.2922171,-0.15010688,-0.35618679999999997,-0.20038125,0.15072663
-7.320549499999999,-0.72610396,-0.49584875,-0.30560714,0.45279077,0.09857619599999999
-6.798364,-1.4634702,-0.9497607,-0.5116258,0.63058746,-0.06855653
-7.471451299999999,-1.8365346000000002,-1.7358154,-0.75595444,0.0067020644999999995,-0.030229102999999997
-9.596785,-0.1345637,-0.3430891,-0.72242665,-0.28127727,0.1613906
-10.353285000000001,0.20676325,-0.48758397,-0.66706485,-0.21313961,0.22101104
-10.360735,-0.35755008,-1.1910100000000001,-0.44614106,-0.22218041,0.07621853
-10.754208,0.09968498,-3.3350177000000003,-0.12674580000000002,-0.11732103,-0.07867944
-13.006807,-0.08629661,-1.7026892,0.10904817,-0.012461651,-0.18088593
-16.804479999999998,-1.9342374,3.3687758000000003,0.18037978,0.012548917,-0.20270254
-16.94343,-4.4680305,3.8665206,0.1495049,-0.023631757000000003,-0.1537286
-11.510154,0.6415407,2.5747533,0.10533062,-0.10135127,-0.10901327
-10.048186,3.5050057999999997,1.283292,0.12555899,-0.138073,-0.0925199
-12.864514,2.6192853,2.8373396,0.22457151,-0.15566592,-0.11754792
-14.7429285,-0.5099362000000001,2.9742115,0.40502109999999997,-0.07527605,-0.2665816
-12.678668,-2.1116857999999996,2.8856547000000004,0.48593456,0.03382448,-0.29108602
-9.805089,-2.0236845000000003,3.2924870999999998,0.45505969999999996,0.15360643,-0.2186723
-9.175385,-1.1565717,2.9532862,0.32836625,0.15414748,-0.11061897
-9.243179,-0.63976896,1.6923080000000001,0.21605429999999998,0.08972738,0.02724459
-8.702463999999999,-0.42817906,0.89759576,0.12714724,-0.09496336400000001,0.1725607
-7.8485759999999996,-0.21659863,0.62051004,0.18250908,-0.09070476,0.27689648
-7.084251400000001,-0.6867624,0.6258443,0.2533171,-0.11253883,0.30085987
-6.752185000000001,-1.3360987,0.8329619,0.24212952,0.10463249,0.18107791
-6.734564,-1.9958926,1.2155458000000001,0.1425934,0.4378682,-0.016929694
-6.460179,-2.059253,1.1779376,0.11278318,0.54539794,0.04108505
-6.6217203,-1.0119236999999999,0.31348717,0.20273745,0.20470966,0.18320721
-6.930649000000001,-0.38739142,-0.90437615,0.19634955,-0.0683471,0.23218115
-7.5713854000000005,-0.32642543,-1.7874631999999997,0.29270917,-0.14074335,0.18694222
-8.162389,-0.29464003,-1.8463892,0.30068532,-0.019373154,-0.057910025
-8.316001,-0.5355063,-1.0657837,0.5450314,0.084404126,0.060248765999999995
-8.167233999999999,-0.3986633,-0.7940609000000001,0.99696696,0.11901400000000001,0.17894861
-9.2022,-0.25328737,-0.07688261,0.92830575,0.08281587,0.00061086525
-9.781616,-0.47153324,-1.1431835,0.771261,-0.106150925,-0.12658873
-10.637668,-0.66428566,-2.4056365,0.58122957,-0.05396558,-0.029705504
-11.786242999999999,1.0759926000000002,-3.3263123,0.28897417,-0.042271875,0.12943362
-12.893006,0.46079764,-2.3632495,0.05742133,-0.10880382,0.24443336
-14.535734,-0.29223627,0.81306136,-0.053825952,-0.14980161,0.24441591
-14.339190499999999,-0.56957096,4.9247775,-0.07192502,-0.119991384,0.17681931
-13.700915,-1.241633,3.654088,-0.07031932,-0.1375494,0.09484119
-11.831427,-2.1791832,4.396913,-0.080965824,-0.17002997,-0.011065387
-9.858824,-2.4343092,2.7177062000000003,-0.18371336,-0.16044812,-0.025970499999999997
-11.967944000000001,-1.705543,0.8287959999999999,-0.34021702,-0.14341371,0.0022165682
-12.992116000000001,-0.5196279,1.7945403999999998,-0.47169268,-0.124773584,0.01818633
-12.055619,0.14106636,1.5386672,-0.50523794,-0.027907815,-0.04621632
-10.7184,0.44773486,0.74533415,-0.43603559999999997,0.057264253,-0.11061897
-9.841510000000001,0.9360850000000001,0.44564712,-0.32583553,0.062046453,-0.19207348
-8.407421000000001,0.92827034,0.73489547,-0.32105333,0.037035886000000004,-0.29213320000000004
-6.892092699999999,0.6373460999999999,1.2032108,-0.38226202,0.078016214,-0.31236157
-5.8854456,0.83159244,1.1147212,-0.39451423,0.039147735,-0.2570172
-5.600411,0.89559424,1.1067341999999998,-0.38706166,-0.041207224,-0.17982127
-6.162493,1.8836238,0.7480923,-0.36683330000000003,-0.027366763,-0.08133234
-6.486926599999999,2.2963076,0.56891024,-0.4088783,0.23558454,-0.028117253999999998
-6.3361974000000005,1.5871164,0.6244460999999999,-0.5446300000000001,0.33885568,-0.066968285
-6.361212,0.5152035,0.49510175,-0.39451423,-0.11519173,-0.017994344
-6.8595796,0.07873092599999999,0.19409314,-0.27101472,-0.5394638,0.110269904
-7.471508999999999,-0.051504068,-1.0032854,-0.29337240000000003,-0.44310418,0.17469001
-7.7845364,-0.45043552,-1.6817639,-0.10386454,0.22706734,-0.040893063
-8.662997,-0.06340804,-1.8957577,-0.09641199,0.33672637,-0.115942225
-10.354204,0.63390803,-1.6584252,-0.11716395,0.078016214,0.005934119
-12.03072,0.8731174999999999,-1.7229153999999998,-0.12835151,-0.011938052,0.09430013599999999
-12.999605,0.52066225,-1.8061186999999999,-0.07457792,-0.06250024,0.07887143
-12.171097,0.28744784,-3.4700122,0.121300384,-0.020437805,-0.059515726
-11.942048,1.0947726999999998,-3.7956622,0.32039008,0.10037389,-0.16652186
-15.242178,0.6686718,0.23461261,0.42312017,0.06736971,-0.22399555
-17.134382000000002,-3.4565759,2.7695932,0.43856633,0.013596115,-0.22347195
-14.292206,-4.958679,4.509622599999999,0.43963100000000005,-0.09763372,-0.17023942
-7.664548399999999,-1.4419607,3.8338447,0.44015458,-0.15086626,-0.12765338
-9.80008,1.3136985,4.0538435,0.44601887,-0.22113322,-0.12445943
-12.886809,2.4806707,4.0113506,0.53332025,-0.28872982,-0.14522885
-13.591911999999999,1.140885,2.9758012000000003,0.62807417,-0.23017402,-0.13777629
-11.376068,-0.9348304000000001,3.0359244,0.71376985,-0.09496336400000001,-0.08719665
-9.739096,-1.9079201000000001,3.1065054,0.7483797,0.04448844,-0.02438225
-9.110445,-1.5788611000000001,2.1345744,0.74251544,0.08388052,0.03148574
-8.2678385,-1.2436059,1.2666188,0.7233516999999999,0.024260076000000002,0.12304571
-7.6653332999999995,-0.39352056,0.97587657,0.6823714,0.02104867,0.25240952
-7.057657000000001,-0.23738031,0.98734003,0.75954986,0.047141342999999995,0.30403635
-6.582647,-0.8150916,1.0574423000000002,0.79148936,0.13657202,0.26038566
-6.852856599999999,-1.4827578000000001,1.1874281999999998,0.5237384,0.21109757,0.073548175
-7.0803537,-2.2104418,1.1436049,0.2639636,0.3644073,-0.091996305
-7.179646000000001,-2.1156602,0.93894845,0.26235790000000003,0.18873991,0.008604473
-7.0522933000000005,-1.3399868000000001,0.4736497,0.20273745,-0.12318534,0.079395026
-7.331141499999999,-0.84240466,-0.45013863,0.19582593,0.039147735,-0.07548549
-7.8188405,-0.50017744,-1.2102785,0.22403046,-0.0763407,-0.16439256
-8.638778,-0.3473795,-1.1176708,0.12075933,0.16531758,-0.06750934
-8.188927,-0.2472157,-1.2300928999999998,0.5391670999999999,0.09292133,0.10016444
-8.396072,-0.15296075,-1.1666466,0.72921604,0.109432146,-0.025987952999999998
-9.814589,0.439087,-1.3797593000000001,0.62753314,-0.027890362000000002,-0.18407987
-10.837909,0.22380039999999998,-2.504565,0.49125782,0.0034906585,-0.17823303
-12.1265545,0.38455668,-3.20779,0.27141616,-0.046530478,-0.007347836
-13.032138,0.28506324,-2.9763184,0.009512044499999999,-0.026302112000000002,0.14487977
-14.21245,0.33223858,0.36142868,-0.1741315,-0.041207224,0.23909265
-14.324882,1.0221613999999999,4.6977015,-0.28963740000000004,-0.06995279,0.2502802
-13.671629000000001,0.40568309999999996,3.0208025000000003,-0.3061482,-0.100304075,0.1688257
-11.556792,-1.2772586000000001,3.2070138,-0.26195645,-0.12318534,0.08578293
-9.630725,-2.188875,4.546771,-0.2832495,-0.20462239999999998,0.096446894
-11.219086,-1.9480278000000002,2.9935183999999997,-0.38493237,-0.22645646,0.153397
-12.767272,-1.2816927,2.1331954,-0.5297248999999999,-0.25307274,0.14700909
-12.812082,0.10725065,2.535,-0.58028704,-0.21261601,0.07887143
-11.425811,0.80163616,1.4520354,-0.5494121999999999,-0.082205005,-0.0062831854
-10.032376,0.9197086,0.86174023,-0.44242352,0.0050963615,-0.09838421
-8.988437,0.8127835999999999,0.62032807,-0.33648202,0.048747044,-0.18620917
-7.891020299999999,0.53774726,0.74384975,-0.28857273,-0.0715585,-0.3262195
-6.461088,0.22353224,1.1187433999999998,-0.2475924,0.016790068000000002,-0.41032690000000005
-5.733174299999999,0.21566011,1.1376766999999999,-0.2582389,-0.04811873,-0.42575562
-6.027862,1.2636118,0.79270107,-0.26834437,-0.15671311,-0.3714584
-6.325672,1.9568385,0.57160133,-0.16613789,-0.017784905,-0.21814871
-6.4431705,1.5925559,0.5184213,-0.27953193,0.1850049,-0.1468171
-6.580224,0.86936337,0.68575686,-0.41474259999999996,-0.10934488,-0.15746361
-6.889133500000001,0.35014722,0.5405533,-0.27473226,-0.34356806,-0.054192472
-7.2610774000000005,-0.12310985,0.13441047,-0.53398347,-0.33292156,0.060231313
-7.596686999999999,-0.41628465,-0.78419685,-0.37693876,-0.10882128,-0.054733526
-7.628473,-0.40638223,-0.49597323,-0.22256438,0.2605951,-0.30332077
-7.871359299999999,-0.2362694,-0.89912814,-0.17519616,0.12592551,-0.26659903
-9.804208000000001,-0.10295068,-0.8931425999999999,-0.1826487,-0.05984734,-0.07389724
-12.052029,0.016663643,-0.008983045,-0.15390313,-0.09443977,0.05490806
-13.183959,-0.40237913,-0.81044686,-0.15229744,-0.15779522,0.05384341
-13.156292,-0.1923406,-3.6538775,-0.082030475,-0.18493510000000002,-0.04886922
-14.509905999999999,0.9421950000000001,-2.5038753,0.064332835,-0.11040953,-0.11435397
-17.149897,-0.20671538,1.1334918,0.15856317,-0.04600688,-0.16598082
-16.478628,-3.0518026000000003,2.0392947,0.17559758,-0.03642502,-0.153205
-11.852812,-1.952912,3.3643322,0.16228071,-0.0736878,-0.09838421
-8.016372,-0.20442651,2.9307902,0.13992305,-0.09443977,-0.04993387
-9.687007000000001,0.64428926,4.1975336,0.14418165,-0.06569419,-0.03502876
-11.610097,0.05395573,4.3697724000000004,0.17931512,-0.1263793,-0.040893063
-12.304482,0.07963115,3.581429,0.26981044,-0.16364206,-0.098907806
-10.90939,-1.0332704,3.1357145,0.3565882,-0.17322393,-0.122871175
-9.487302,-1.6385055,3.4124269999999997,0.40769145,-0.13756685,-0.07761479
-9.327829,-1.2013625,2.9385953,0.41195005,-0.09285152,0.023509584
-8.878696000000001,-0.6171773,1.8781744999999999,0.3965039,-0.06941175,0.13795082
-8.307621000000001,-0.5966159000000001,1.2774981,0.36084682,-0.12904964,0.26410323
-7.964005499999999,-0.95212615,1.3429173,0.35339427,-0.009808751,0.33012903
-7.322234599999999,-1.1896502,1.2591681000000001,0.42312017,0.22015584,0.33332297
-6.897628,-1.452907,0.9108021999999999,0.3832045,0.17542304,0.21354103
-6.814530400000001,-1.7107048999999999,0.8334503000000001,0.16547467,0.010402163,0.0453262
-6.731872599999999,-1.7500465,1.1552215000000001,0.13247049,0.16051793,0.03947935
-6.9798064,-1.4076086,0.99616027,0.31826079999999995,0.23771384,0.19811232
-7.108586,-1.3947375,0.49158707,0.34114206,0.16264723,0.19385372
-7.2984753,-1.6985808999999998,0.06841671,0.26129323,0.2435607,0.13901548
-7.7690697,-1.6005046,-0.14799997,0.41034436,-0.19505799999999998,0.18533652
-7.814531,-1.1365275,-0.08254249400000001,0.21019000000000002,-0.16737707,0.18214256
-7.350525,-0.17985243,-0.5959934,0.09094911,0.009337512,0.14966199
-8.665573,1.0056509,-0.6371545,0.22190116,0.103026785,0.15659094
-10.945572,0.83009845,-1.2946981000000002,0.21551326,0.10622074,-0.01160644
-12.596805,-0.9468589,-1.405789,0.13088223,-0.039077923,-0.068032935
-13.450635,-1.2821333000000001,-1.9421668999999997,0.01802925,0.014660765,0.021903882000000003
-13.621820000000001,-2.240063,-2.1750653,-0.14538592,-0.019390607,0.1645671
-14.289745000000002,-1.5337256000000001,-0.9853959000000001,-0.25130996,-0.04759513,0.24867451
-13.866939000000002,-0.7324629,0.44864467,-0.28218484,-0.09337512,0.26412067
-12.89179,-0.6008296999999999,4.561443,-0.26089182,-0.04865978,0.21460569
-11.719368,2.1317015,4.9672985,-0.19381881,-0.07475245,0.18053685
-9.821935,1.4329488000000001,4.7707915000000005,-0.14058627,-0.12903219999999999,0.18586011
-9.107925999999999,-1.0216058000000001,3.252839,-0.18317229999999998,-0.13224360000000002,0.17414895
-10.938342,-2.6307007999999996,2.8690677000000004,-0.27314404,-0.14501941,0.117181405
-12.555137,-2.1365279999999998,2.8644133,-0.34766957,-0.09869837,0.049061205
-11.775297,-0.64392537,2.424953,-0.36789796,-0.019914206,-0.007347836
-10.159229,0.09052955,1.7119021,-0.3588397,-0.018849555,-0.07070329
-8.800243,0.43832088,1.3522068,-0.3588397,-0.030037116000000003,-0.118088976
-7.477187599999999,0.33357933,1.4463371999999999,-0.37428585,-0.049200833,-0.24050637
-6.348178,-0.09791327,1.588323,-0.3630983,0.1221905,-0.2937389
-6.016897,0.05770984,1.6256725,-0.33063516,0.035430185,-0.287351
-5.808851,0.86285114,1.5643044,-0.25717425,-0.12904964,-0.24584708
-5.7603154000000005,1.3933678999999999,1.2233222,-0.18743089999999998,-0.02417281,-0.13245304
-6.279311,1.1749783999999999,1.0747954,-0.36842155,0.32873276,-0.09944886
-6.657853599999999,1.0332896,0.9475484000000001,-0.5313131,0.13018411,-0.17823303
-6.951689,0.56923586,0.61653566,-0.36683330000000003,-0.35740852,-0.053668875
-7.3495,-0.08000465,-0.1059961,-0.5574058000000001,-0.5330759,0.15711454
-7.9836383,-0.33944035,-0.51522267,-0.34021702,-0.4159643,0.023509584
-8.12006,-0.17257406,-0.62662005,0.035063665,0.13070771,-0.19472638
-8.297930000000001,-0.24916936,-1.1973785,0.004712389,0.40592867,-0.23572417
-10.246159,-0.41289443,-1.0021745000000002,-0.12515756,0.21535617,-0.11116002
-12.552531,-0.23989902,-0.16788143,-0.24598670000000003,-0.03588397,-0.03609341
-13.495080999999999,-0.123674884,-0.90059334,-0.33328807,-0.12212068599999999,-0.024923302
-12.835305,0.66019636,-3.5890136,-0.26036823,-0.12585570000000001,-0.079220496
-13.754248,1.778212,-2.5769656000000003,-0.17252579999999998,-0.05771804,-0.13936454
-17.208813,-0.93290544,2.3039882,-0.10438814,-0.00022689281000000004,-0.19739674
-15.776391,-4.093156,3.8440154000000004,-0.080965824,0.019460421000000002,-0.19472638
-12.100631,-3.679103,6.539647,-0.06499606,-0.00022689281000000004,-0.13990559
-8.477753,-2.0172203,5.7207346,-0.080965824,-0.026319565,-0.093060955
-9.276803999999998,0.55789685,4.356997,-0.10651744,-0.10560987,-0.09145525
-12.535111,2.0461614,3.8434122000000004,-0.08576548,-0.1285086,-0.1505521
-13.075578,1.5527931000000001,3.1235904999999997,0.004712389,-0.101368725,-0.17503907
-11.103043,-0.58528656,3.2089295,0.10053097,0.12060225,-0.14522885
-9.557988,-1.3672425,3.444356,0.23628268,0.27443558,-0.06377433
-8.551753,-1.2089857,2.49789,0.37627554,0.22813198,0.051173054
-7.5611663,-0.9547694,1.7516744999999998,0.33581880000000003,0.08066912,0.14062117
-7.005319,-0.72591233,1.5075618,0.32464868,0.062046453,0.24176301
-6.6201115,-0.80517006,1.6349525,0.40395644,0.13177235,0.31787682
-6.3159804,-1.105604,1.3304387,0.5200034,0.14241886,0.35726890000000006
-6.276237,-1.7801846999999997,1.3143208999999998,0.40662682,0.2409078,0.26038566
-6.414411,-2.2611701,1.7331913,0.42046726,0.45116759999999995,0.10868165
-6.7192407,-2.1009984,2.1082669999999997,0.44069564,0.22865559,0.18531907
-7.179349,-1.6481683999999996,1.7045088,0.2879095,0.2664594,0.24654521
-8.200399,-1.1577976,0.3562189,0.42844343,0.1802227,0.13102187
-8.986185,-0.8198896000000001,-1.1939309,0.38639843,-0.1381079,0.14592698
-9.211949,-0.9680332,-1.3298163,0.37362263,0.09716248,0.24441591
-8.313578,-0.92147076,-1.8071721,0.44015458,0.31756267,0.19811232
-8.175125999999999,-0.4358692,-1.1912302,0.36243507,0.29201102,0.0048694685
-9.714569000000001,-0.5481573000000001,-0.6522763,0.23041837,0.063111104,-0.10103711
-10.479603,-1.7731265999999999,-1.0548565,0.16973327,0.079063416,-0.055798177000000004
-11.785908000000001,-1.8755122,-2.8723526,0.00045378560999999995,0.020525072,0.060231313
-13.25725,-1.6245711999999999,-1.9889495,-0.17252579999999998,0.028501227,0.13849187
-12.908933,0.039791632,1.7160201000000002,-0.20127137,-0.00022689281000000004,0.15285593
-13.33218,1.058218,3.9232156000000002,-0.15922639,-0.03323107,0.11985176
-13.127282999999998,0.27619509999999997,5.0953307,-0.12409291,-0.14234905,0.10868165
-11.573428,1.0370821,4.683642400000001,-0.06447246,-0.20357521,0.037873644
-11.100755,-0.15592,4.0718190000000005,-0.06447246,-0.18760544,0.0027401668
-12.387112,-1.7167863,2.084162,-0.12622221,-0.18388788,0.05490806
-12.849105999999999,-2.4894814,2.662199,-0.21671753,-0.18654078,0.05864306
-12.070062,-0.73890805,2.9241822,-0.27366763,-0.09018116400000001,8.726646e-05
-10.9647455,0.22073582,1.9720465,-0.26888543,0.015725417,-0.044087015
-9.496151,0.3074442,1.4457243999999998,-0.17252579999999998,0.009878564,-0.11913618
-8.308014,-0.15876429999999997,1.3321338,-0.15709709,-0.10189232,-0.25169393
-7.338822,-0.5717736999999999,1.2119067,-0.26940903,0.02263692,-0.386381
-6.301443,0.08427589999999999,1.302235,-0.44294712,0.10728539,-0.41830307
-5.34585,0.20537461,1.4929093,-0.61329126,0.031154128,-0.32196090000000005
-5.1812153,0.73704064,1.2733226,-0.5552765000000001,0.023719024,-0.15001105
-5.53979,1.4551288,1.1164833,-0.4535936,0.12060225,-0.025446901
-5.799638,1.3184198,0.9851085999999999,-0.4344299,-0.08272861,0.006475171500000001
-6.1942115,0.7981981,0.6378536,-0.009110618000000001,-0.6033603,0.12995721
-6.7246809999999995,0.22156900000000002,0.2712343,-0.17039649,-0.28075367,0.25506239999999997
-7.468348,0.23030305,0.3234375,-0.15762068,0.17755234,0.07087782
-8.097727,0.37361997,-0.02785893,-0.1182286,0.44052109999999994,-0.2974739
-7.9233136,0.12333969,-1.3362038999999999,-0.33915237,-0.0715585,-0.31983158
-9.632152,0.1503846,-1.8091929,-0.37002724,-0.33665657,-0.17716837
-12.135902,0.16410816,-1.5327488,-0.33702308,-0.23923229,-0.053668875
-13.986965,-0.5215625,-0.68595797,-0.32902947,-0.2600017,-0.050474923
-14.114901999999999,-0.6319352,-1.7209043999999998,-0.25982717,-0.19772835,-0.11222467
-15.305642,-0.07133763,-0.61981094,-0.12728687,-0.09817477,-0.17662732
-18.79092,-1.8710398999999998,3.094793,-0.10438814,-0.053459436,-0.23253022
-17.049646,-5.7759160000000005,1.7237773,-0.16933185,-0.031101767000000002,-0.23411846
-10.249367,-0.5836393,2.6118443,-0.23055799999999999,-0.06410594,-0.1526814
-7.858162400000001,2.510062,2.1209657,-0.25610963,-0.07901105,-0.04569272
-10.643366,1.300176,4.4524493,-0.26515043,-0.14395475,-0.0052185343
-12.551602,0.3254103,4.7685889999999995,-0.20127137,-0.18441148,-0.010541788
-12.447397,-0.31704977,3.9931645,-0.07086037,-0.21476276,-0.07763225
-10.103416000000001,-0.9195458000000001,3.4612017,0.06646214,-0.22912683,-0.06485643
-8.977855,-1.0835582000000001,3.5304705999999997,0.14844026,-0.14236651,-0.002565634
-8.813114,-0.43159795,2.605744,0.18837339,-0.03694862,0.08100073
-8.178315,-0.29096255,1.4967878000000001,0.23787092,-0.0742114,0.14807373
-7.5769589999999996,-0.48884812,1.0560726999999999,0.22137757,-0.09072221,0.20874138
-7.050464,-0.6830753,1.0930010000000001,0.22989477,0.039671335,0.22577579999999997
-6.538613,-0.9727929,1.0276393,0.30068532,0.1679705,0.20341812
-6.000664700000001,-1.519303,0.9805405,0.33262485,0.25953045,0.14540339
-5.9093876,-2.0850432,1.1712626,0.24638812,0.22493804,0.01818633
-6.184252,-2.1989403,1.4600033000000001,0.32251940000000007,0.21375047,0.024574235
-6.6780605,-1.8083692999999998,1.3611514999999998,0.47582912,0.04447099,0.122522116
-7.2044687000000005,-1.8600169999999998,0.65162504,0.40821505,0.036494836,0.025097834
-7.702779,-1.7668728999999999,-0.024191012999999997,0.48167595,-0.13278465,-0.07230899
-8.268203,-1.4957153,-0.28803205,0.36349973,-0.03748967,-0.0132121425
-8.218355,-0.9139626000000001,-0.11160811,0.25970498,0.10142108,0.20554742
-8.056269,-0.060898915,-0.19461029999999999,0.37468728,0.15997688,0.2508038
-9.420628,0.267327,-0.58807343,0.34913567,0.23184954,-0.053668875
-11.522202,0.18716912,-1.8512925,0.29164450000000003,0.03488913,-0.14948745
-13.554687,-1.6214108,-2.1238197999999997,0.31452578,0.09717993400000001,-0.05099852
-14.203898,-2.9180818,-2.2284846000000003,0.29590312,0.08759808,0.12889257
-13.791253,-3.225229,-0.35512713,0.22031291,-0.0071383966,0.21940534
-14.008742000000002,-1.1386631999999999,1.611518,0.18624409,-0.029513517000000003,0.22738150000000001
-13.400663,0.28887478,5.202475499999999,0.17931512,-0.043877575999999995,0.2162114
-12.108319999999999,1.9911808999999998,5.0297775,0.18463838,-0.052918382,0.15817920000000002
-9.379209,0.85038215,4.1626644,0.2229658,-0.07955211,0.09482374
-8.44298,-0.7118249,4.2797217000000005,0.17772688,-0.14234905,0.060231313
-11.4226885,-2.1797388,3.4492017999999995,0.01802925,-0.14714871,0.068207465
-13.460413,-3.4280372000000003,3.333964,-0.15655604,-0.15673056,0.06501351
-12.4299965,-1.821748,3.2914142999999996,-0.25930357,-0.10243337599999999,0.04478515
-10.9106455,-1.0055264000000002,2.4328537,-0.30773646,-0.040683622999999995,0.01818633
-9.313474000000001,-0.2955594,1.8700248,-0.33967596,0.013055063,-0.0856084
-7.9910692999999995,0.084544055,1.8208287,-0.35831609999999997,-0.09498082,-0.22081906
-6.766751299999999,0.21816924,1.6852499,-0.41846013,-0.077422805,-0.30492648
-5.570176999999999,0.36442623,1.9405675,-0.53930676,0.057770398,-0.28682742
-5.2137,0.62967503,1.9751302,-0.65215975,0.013596115,-0.17716837
-5.1766760000000005,1.0851576,1.4456476999999999,-0.59253925,0.06949901,0.019233529
-5.531736,1.5226452,0.85535246,-0.5536708,0.31808627,0.09482374
-5.956276,1.524982,0.87073284,-0.59945077,0.32340949999999996,0.009651671
-6.300313,1.1656028,0.65175915,-0.4344299,-0.4069235,-0.015341444
-6.722229,0.7038283000000001,-0.025187002000000003,-0.59625685,-0.63795274,0.21512929
-7.393975,0.63567966,-0.44922885,-0.29869565,-0.5506514,0.18531907
-8.323221,0.1667705,-0.39695865,0.038257618,0.24727824,-0.121806525
-8.498727,-0.26242363,-0.7923179,0.045169123,0.43519786,-0.21443115
-9.345575,-0.28500578,-1.5590466,-0.053284902,0.13763666,-0.053668875
-11.929665,-0.14443739,-1.0332704,-0.14645058,-0.009267698000000001,0.051190507
-13.806116000000001,-0.09092221,-0.6997007,-0.24492206,-0.11255628599999999,0.034679692000000005
-13.580171,-0.25899518,-2.375163,-0.21884683,-0.1359786,-0.03185226
-13.805302,1.005354,-3.113573,-0.10438814,-0.018325957,-0.10531317
-17.434767,-0.7019321,1.8596244,-0.012304571,0.05510004599999999,-0.17664477
-17.149427,-5.06027,4.154074,-0.0059166662,0.095033176,-0.20059069
-11.958366999999999,-4.185477,7.057733,-0.020280726000000002,0.080145516,-0.16439256
-5.7086864,-0.81272614,5.0368166,-0.0016580628,0.07108726,-0.102119215
-9.225586999999999,0.89882165,5.399107,-0.0032463125,-0.03748967,-0.06218608
-13.707619000000001,1.2381566000000002,4.862949400000001,0.030264008999999998,-0.09443977,-0.086132
-14.443233,1.1388738999999999,3.6872811000000003,0.11543608,-0.11253883,-0.16013396
-11.367957,-0.42971134,3.4627817000000003,0.23521802,-0.10349803,-0.15374605
-9.573905,-1.2826024999999999,3.9723443999999994,0.32517229999999997,-0.03642502,-0.06272713
-9.000301,-1.0031801,3.010048,0.34700635,0.007731808299999999,0.06555457
-8.070471000000001,-0.660091,2.0527596000000004,0.36349973,-0.022060962000000003,0.18212509999999998
-7.373653,-0.60314727,1.6320124,0.38533378,0.08279842,0.2971074
-6.7876577000000005,-0.62345016,1.6352973,0.5003161,0.27708846,0.35672784
-6.4940424000000005,-0.8838627,1.4424968999999999,0.62488025,0.44956190000000007,0.34182274
-6.2796946,-1.2420161,1.1508737,0.5375789000000001,0.36812484,0.16989034
-6.027173,-1.9157252,1.3279967,0.30548498,0.30956906,-0.04621632
-6.360676,-2.0721145,1.526974,0.22883011,0.3521551,0.014974925
-6.5082927,-1.615205,1.1099424,0.24638812,0.21800907,0.11346386
-6.97588,-1.7130321,0.5340698,0.18996164,0.13070771,0.02242748
-7.396053,-1.8375593000000001,0.37520012,0.4651826,-0.060388394000000005,0.052778757999999995
-7.782132000000001,-1.624801,0.48784253,0.40715042,0.028501227,0.13582152
-7.435452000000001,-0.87224597,0.30937874,0.31293753,0.13123131,0.13315117
-7.332606299999999,0.15833335,-0.5562497,0.38001055,0.26005405,0.11665781
-9.264689,0.83331627,-0.91676855,0.24425882,0.20629792,-0.055257123
-11.980317,0.18402793,-1.7318792,0.088296205,0.09717993400000001,-0.084002696
-13.270523,-1.149102,-2.180141,0.004712389,0.088121675,0.010192723
-13.705617000000002,-0.7337941,-2.9226593999999997,-0.16187929,0.04979424,0.15231489
-14.262125,-1.1362976999999999,-1.2439122,-0.28272587,0.015184363999999999,0.24600416
-14.463467999999999,-0.9026235999999999,2.3859944,-0.29443705,0.023177972,0.27316147
-13.253917999999999,-0.5658744000000001,4.57214,-0.26940903,0.005078908,0.24281020000000003
-11.706488,0.7823293,4.672773,-0.19861847,-0.024190264,0.17201965
-9.770546000000001,1.0526347,4.880762,-0.08150688,-0.09498082,0.13688618
-9.9908695,-0.25482926,3.653753,-0.040509094,-0.14023721,0.14327408
-12.126392,-1.8930091,2.780961,-0.092153385,-0.13650220000000002,0.17041394
-13.015858,-2.1392097000000003,2.7321,-0.19010127,-0.16578883,0.13634512
-11.870271,-0.8691814,2.5915127,-0.26089182,-0.114144534,0.06768387
-10.838005,-0.28964093,1.8044428,-0.2390752,-0.018325957,-0.007888888
-9.457384,0.19283858,1.5711997,-0.12568116,0.028501227,-0.09519026
-8.285356,0.26332387,1.5712283999999999,-0.090024084,-0.049200833,-0.25169393
-6.969664999999999,0.07513963,1.390763,-0.25078636,-0.08487536,-0.38903388
-5.83896,-0.10308475,1.6156743,-0.35725144,-0.13969615,-0.39009854
-5.406098,-0.12388557,1.5241201000000002,-0.35086355,-0.16259487,-0.26926940000000005
-5.5016264999999995,0.63416654,1.2024542999999999,-0.22469369,-0.14341371,-0.076026544
-5.929269000000001,1.4368658,1.0108607,-0.26782078,0.063111104,-0.029181905
-6.2578497,1.555034,0.78757745,-0.44720572,0.14400712,-0.20697859
-6.375768700000001,1.1776216,0.57288456,-0.41687188,-0.21050416,-0.2650108
-6.429389,0.6597558000000001,0.421753,-0.6707824,-0.46495572,-0.19367918
-6.8120975,0.04562391,0.07380845,-0.62180847,-0.6209358,-0.22242476
-7.3346367,-0.5545737,-0.58308387,-0.36683330000000003,-0.75134677,-0.30653217
-8.047419999999999,-0.8943780000000001,-1.6985424999999998,-0.08735373,-0.19559905,-0.22614232
-9.828264,-0.003428497,-1.4716775,0.12821189,0.26165977,-0.14896385
-12.401975,0.7651677,-0.6385335999999999,0.07126179,0.1221905,-0.036110863
-14.315344,-0.051283802999999996,-0.7483125,-0.01282817,-0.22434463,0.013910273999999999
-13.7053,0.22740127,-2.9104395,-0.0490263,-0.29619983,0.016580628
-12.83159,1.8965142,-4.073236,0.045710173,-0.1886701,-0.06218608
-15.291096,1.6640563999999998,-0.13636415,0.15430456,-0.044959683,-0.11648327
-16.664593,-2.1564958,2.0525968,0.18144442,0.023177972,-0.118088976
-12.529892,-1.9600468,3.8531706,0.16760397,0.020507618999999998,-0.07976155
-9.838311000000001,-3.5198690000000004,6.4571238,0.15217526,0.013055063,-0.04569272
-8.417323,-1.7119978999999999,6.7230144,0.14898129999999998,0.006143559,-0.04515166599999999
-9.921103,0.5246271,4.7288356,0.18783234,-0.04761258,-0.051557027000000005
-13.093027000000001,1.2518513999999998,3.6783652,0.29696777,-0.11575024,-0.094125606
-12.925644,-0.5480710999999999,3.204227,0.42153192,-0.12959069,-0.0765676
-10.676032000000001,-1.8483237000000001,3.6436112,0.55300754,-0.05825909,-0.051015973
-9.3361225,-0.97011137,3.3269347999999996,0.64669687,-0.015132004,0.02029818
-8.221248,-0.54473835,2.3451779999999998,0.6536258,-0.027907815,0.12198106
-7.5239034,-0.43251732,1.6498827,0.6062401,0.017313666999999998,0.24281020000000003
-7.093876,-0.33317709999999995,1.5264856000000002,0.6387206999999999,0.22066198,0.32798228
-6.464459400000001,-0.49974653,1.3917398,0.60730475,0.43732715,0.28274333
-6.102648,-0.84166723,1.1140507,0.42099085,0.48576003,0.16137314
-6.1313877,-1.341002,1.0478463,0.05742133,0.29359928,-0.051539574000000005
-6.672745699999999,-1.7063092,1.3287437,-0.042638395,0.24089034,-0.06272713
-6.8370547,-1.7919546000000002,1.2678353,-0.041573743999999996,-0.035901424,0.0474555
-6.9699235,-1.8347533999999999,0.9626223,0.021746803,-0.15674803,-0.11011282
-7.508513000000001,-2.0121925,0.5361959,0.15695746,-0.14130186,-0.2527586
-7.785810000000001,-1.8718635,0.19389203,0.46890014,0.33299136,0.051714107
-7.685301299999999,-1.2601928999999998,0.16175227,0.8441983000000001,0.3079808,0.24548055
-7.481717,-0.13111606,-0.67813367,0.65308475,0.16742943,-0.06112143
-9.14291,1.4739088,-0.9049029000000001,0.34965926,0.04925319,-0.24478243
-11.696383,2.4613543,-2.21026,0.24106488,0.033283427000000004,-0.20165534
-12.748933000000001,0.71754223,-2.6491077,0.12288863,0.040735986,-0.021205751000000002
-12.809478,-1.0063788,-2.4186992999999997,0.02867576,0.025830872,0.12356931
-13.457089000000002,-1.8427596000000002,0.7433996999999999,0.05422738,-0.027384216,0.20076522
-14.571264000000001,-0.5954475,6.557440799999999,0.098401666,-0.026860617000000003,0.21619393
-13.535561999999999,-1.1042633,5.108355,0.16866861,0.007731808299999999,0.13156292
-9.716791,-1.73639,5.1834083,0.20273745,-0.039618972999999995,0.08897688
-10.071209,-0.52769166,4.749818299999999,0.20486675,-0.064647,0.10494665
-13.086189,0.41242516,3.1172986000000003,0.15643387,-0.101368725,0.14114478
-14.489096,-1.1029034,3.1998889999999998,0.059550636,-0.12213814,0.16776104
-13.311685,-1.1040143,4.067787,-0.067125365,-0.12479104,0.13421582
-12.167333,-1.0385664000000001,3.0206685,-0.20926498,-0.052394785,0.040526547
-11.21016,-0.4550803,2.1457987000000003,-0.30934215,0.05405285,-0.09147271
-9.788789,-0.19649692,1.8873109000000001,-0.40941933,0.0636347,-0.26234043
-7.885648,-0.20127574,1.7639137999999999,-0.48553315,0.06257005,-0.38158134
-6.2079735000000005,-0.43367612,1.7196209999999998,-0.53078955,0.27230626,-0.38425168
-5.5915337,0.0005650316,1.4987224,-0.5031085999999999,0.060423300000000006,-0.29375637
-5.2056455999999995,0.75975686,1.2429259,-0.34606388,-0.0662527,-0.13831735
-5.0542073,1.2724512,1.0796317,-0.24865706,0.25633649999999997,-0.00043633230000000004
-5.088569000000001,1.6550924999999999,0.99534625,-0.31625366,0.24089034,-0.023858652
-5.288418,1.8264407,0.7573435000000001,-0.17784905,-0.53361696,0.017645279
-5.2974873,1.7225898999999998,0.42023987,-0.5180137,-0.6555281999999999,0.29658379999999995
-5.777141599999999,1.1179773000000002,0.021902157000000002,-0.44668213,-0.15940093,0.16615534
-6.622965299999999,0.3388753,-0.08472601,-0.26888543,0.46926668,-0.28682742
-6.7998294999999995,-0.37598544,-0.47866797,-0.42271873,0.17434093,-0.3209137
-7.513982,-0.5713043999999999,-1.6331328,-0.44401175,-0.15620697,-0.11435397
-10.913086999999999,-0.14784674,-0.7100915,-0.42006585,-0.07583456,0.07300712
-13.673257000000001,-0.15395674,0.16496049,-0.42591270000000003,-0.12161454,0.102276295
-14.030060999999998,-0.8381525,-2.3719356,-0.33063516,-0.09391617,0.027750734
-14.070072,0.7867634,-2.510981,-0.1698729,-0.009285152,-0.06750934
-17.904557999999998,-0.5682398,2.7917542,-0.075118974,0.04499459,-0.13672909
-19.094822,-5.6436505,4.392967,-0.030927233,0.07161086,-0.14629349
-11.491574,-2.3312437999999998,5.088732,-0.02401573,0.05297074,-0.09625491
-6.9484425000000005,1.9198146,3.6700718,0.016423548,0.024766222,-0.039828412
-10.843454,2.0359046000000003,5.2926507,0.08084365,0.0050614546,-0.011623893
-13.9624,0.029237991,4.9300733,0.15856317,-0.03323107,-0.03769911
-13.601163,-0.9595769000000001,4.0696163,0.2580993,-0.063582346,-0.14151129
-10.553785000000001,-1.789522,3.7717104,0.36669368,-0.055588737,-0.13032374
-9.150437,-1.7420403000000002,4.000443,0.4657062,-0.012479104,-0.056339227
-9.129187,-0.9561675,3.0468612,0.53864354,-0.01834341,0.05969026
-8.2744,-0.45074198,1.9573557000000001,0.5572661999999999,-0.058800142,0.20608848
-7.575924400000001,-0.5511451999999999,1.4955525,0.5806885,0.057229348,0.33384657
-6.9509134,-0.9248896999999999,1.542565,0.6813066999999999,0.23715533,0.39132026
-6.4997787,-1.2813575000000001,1.5206628,0.70898765,0.43998006,0.35726890000000006
-6.201643,-1.7040298999999999,1.1440741,0.47476447,0.31115729999999997,0.23109904
-5.999965,-2.2521105,1.0566857,0.24958208,0.12004375,0.11931071
-6.3555427,-2.1422074,1.2423992,0.32039008,0.22118558,0.1773429
-6.498151,-1.5909375,1.0154384,0.40875609999999996,0.28879964,0.26570892
-6.877421000000001,-1.6917429,0.60453594,0.30600858,0.46872562,0.1044056
-7.2795415,-2.0373604,0.4158441,0.36562902,0.1269727,-0.028117253999999998
-7.7022330000000006,-2.0278888,0.70180756,0.21019000000000002,0.14453071,0.034679692000000005
-7.385413000000001,-1.0032567,0.36743334,0.17453292,0.22012092,0.18106046
-7.4099393,0.3892589,-0.5175881,0.27035149999999997,0.39793506,0.11931071
-9.041837,1.3824408000000001,-2.0856464,0.21179570000000003,0.20788616,-0.10477211
-11.82344,0.4159303,-2.3499662999999997,0.1580221,0.12803735,-0.14576989999999998
-13.516466000000001,-0.6302399999999999,-1.792443,0.10798352,0.13123131,-0.04195771400000001
-13.493127,-1.3299791,-2.1544272999999996,-0.05009095,0.07426376,0.12463396
-13.909297,-1.6847327,-0.7937065999999999,-0.22043508,0.057229348,0.22045253
-14.57228,-0.06238332,2.4012215,-0.2891138,0.031154128,0.2385516
-13.690945999999999,0.45227429999999996,3.3732387999999998,-0.30028390000000005,-0.009808751,0.21460569
-11.558286,1.2324680000000001,4.1751814,-0.26675612,-0.028448867000000003,0.15337953
-9.048205000000001,0.38332126,4.415157,-0.21245892,-0.13491395,0.1129228
-9.532466000000001,-0.9208386999999999,3.6727436,-0.20127137,-0.24137904,0.08897688
-12.582985,-2.0208306,3.2233138,-0.24652776,-0.2632131,0.11398745
-13.565289000000002,-1.7703972,2.8310478,-0.34766957,-0.27811822,0.15283848
-12.2352705,-0.6251739000000001,2.6414174999999998,-0.4131369000000001,-0.1961401,0.09162979
-11.122618,0.03442862,1.7573823,-0.39770818,-0.07901105,-0.00842994
-9.747676,0.32345665,1.2061222,-0.37854445,0.01144936,-0.14151129
-8.335605000000001,0.12285128,1.2910780000000002,-0.38226202,0.027960173999999997,-0.24745278
-6.862739599999999,-0.1564946,1.3087281000000002,-0.43390632,0.10088003,-0.34327134
-5.854522,-0.16437632,1.4050421999999998,-0.47275734,0.070005156,-0.36562902
-5.595987,0.30909142,1.3557694,-0.48500955,-0.10190977,-0.2921681
-5.499405,0.96702766,1.3000611,-0.4173955,-0.12639675,-0.1542871
-5.77107,1.6169385,1.2415180000000001,-0.46903977,0.093968526,-0.10531317
-6.042342700000001,1.5569494,1.1394389,-0.57444024,-0.09765117,-0.13405874
-5.9490547,1.1250546000000001,0.99448436,-0.19275416,-0.5570567,0.049043752
-6.209132,0.8561378000000001,0.70991915,-0.39025563,-0.29674090000000003,0.18903661
-6.9503580000000005,0.59815776,-0.06217263,-0.2672797,-0.10883873,-0.060074233
-7.646362,-0.15816097,-0.8295716999999999,-0.21778218,0.13442525,-0.34433600000000003
-8.295679,-0.7130603,-1.9041374,-0.26569146,-0.056129787,-0.2889567
-10.266749,-0.22175096,-1.9500103,-0.27314404,-0.20785126,-0.12500048
-13.266701999999999,0.21702960000000002,-1.1531241,-0.2353402,-0.13439035,-0.026005406000000002
-14.85471,0.17704643,-0.7819366999999999,-0.21937044,-0.13439035,-0.049951322
-13.664092000000002,0.46302903,-2.620291,-0.14857988,-0.08965756,-0.11383037
-14.553825,0.8663179,-1.5046887,-0.06766641,0.015166911000000002,-0.17132153
-18.531246,-1.8873204,2.4436276,-0.040509094,0.07161086,-0.21338396
-16.243921,-4.432682499999999,1.5857947000000001,-0.066060714,0.11152654,-0.18783234
-11.150679,-1.0283478000000001,3.6522013999999996,-0.08576548,0.03806563,-0.101054564
-8.576825,0.5366939000000001,3.662487,-0.08576548,0.044453535,-0.028658306
-10.74398,0.54844457,5.241166000000001,-0.057019908,0.00720821,0.0021991148
-12.251456,0.18946755,5.01726,0.026005406000000002,-0.029513517000000003,-0.014294246000000002
-11.811469,0.07586746,4.1157474999999994,0.14791666,-0.041224677,-0.05581563
-9.858423,-0.7242460000000001,3.6093357000000004,0.26022860000000003,-0.030578168,-0.03291691
-8.531978,-1.125246,3.5726757000000005,0.33210126,0.021031217999999997,0.023492131
-8.526758000000001,-0.68591005,2.6679833,0.35924113,0.03754203,0.12250466
-7.725772999999999,-0.41664857,1.5791101,0.37149334,0.0029321532,0.22312289999999999
-7.213126700000001,-0.4020152,1.066119,0.32517229999999997,0.065222956,0.29604274
-6.8112645,-0.73063374,1.2082195,0.4002389,0.21373302,0.35992178
-6.3969336,-1.1604408000000002,1.2046378,0.53171456,0.3478965,0.3705683
-6.1589594000000005,-1.5825961000000002,1.0371107,0.42205550000000003,0.12377875,0.23748694
-6.198597400000001,-2.235447,1.1757925,0.29429743,0.048712137999999995,0.08950049
-6.902004700000001,-2.1682272,1.3069372,0.39065704,0.28986427,0.118246056
-7.093147800000001,-1.5351428999999999,0.898429,0.633921,0.4783075,0.2582389
-7.330299,-1.6028414,0.31916624,0.7057937,0.27548277,0.24652776
-7.616492,-1.6397026000000001,-0.004022259,0.49125782,0.39632937,0.13208652
-8.037019,-1.4019296,-0.053218315999999995,0.6104987,-0.059864793,0.23429299999999997
-7.842801,-0.9526433000000001,-0.070303336,0.47635272,-0.18549359,0.21087068
-7.9816270000000005,0.1559966,-0.3604614,0.19156733,-0.056129787,-0.0036477381
-9.450183,0.97309935,-0.9041368000000001,0.107459925,0.30370474,-0.104248516
-11.38327,-0.32122526,-1.2658528,0.15856317,0.24940754,-0.09946632
-12.53243,-1.4078576999999999,-1.0770652,0.25171140000000003,0.057770398,-0.087214105
-13.072236,-0.9170271999999999,-1.8386607,0.20380209999999999,0.07106981,0.001134464
-12.902362,-1.4395473,-2.7245822,0.07072074,0.03754203,0.09855874
-13.480447,-1.2313091999999999,-0.67257917,-0.021345377000000002,0.052447144,0.14220943
-13.026755999999999,-0.39655644,-0.120169766,-0.07192502,0.042324234,0.15817920000000002
-12.202672,-0.52665734,3.4458501000000004,-0.16029103,0.021031217999999997,0.14273302
-11.028842,2.8143743999999997,5.940551,-0.20287707,-0.023125613,0.103340946
-10.244291,3.188684,5.4541254,-0.21671753,-0.0710349,0.055431657
-9.404826,-0.8306539000000001,2.4061441,-0.29443705,-0.0731642,0.042655847999999996
-11.071938000000001,-3.9986137999999998,2.5801163,-0.42591270000000003,-0.08594001,0.03466224
-12.934253,-3.4717648000000003,2.8682537,-0.53876567,-0.03005457,-0.004712389
-12.196388,-1.0416023,2.2429742999999998,-0.58082813,0.062028999999999994,-0.064332835
-10.569836,0.6234214,1.4736886,-0.59786254,0.076934114,-0.14844026
-9.01598,1.0460267,1.093518,-0.6596123,-0.049741883,-0.27085763
-7.833694,0.901302,1.0480283000000001,-0.6697177,-0.10616837400000001,-0.31079078
-6.5150347,0.9720075999999999,0.8678598,-0.65161866,0.08332202,-0.27672195
-5.4937830000000005,0.6121495,0.9685503000000001,-0.6675884,0.14027211,-0.24478243
-5.203932,0.5506951,1.0075184000000001,-0.5238606,0.14027211,-0.12925908
-5.6952887,1.0874943000000001,0.59762144,-0.32902947,0.24993114,-0.03398156
-6.3420486,1.5145146,0.37977785,-0.4046197,0.36917204,-0.14470525
-6.491035,1.3392302,0.116817884,-0.49192104,0.08597492,-0.26448720000000003
-6.866014999999999,0.80403996,-0.1692126,-0.67771137,-0.29302332,-0.09360201
-7.3611555,0.42521024,-0.7295898000000001,-0.63831925,-0.5852613,0.076183625
-7.5805883000000005,-0.14250289,-1.0251397,-0.4237834,-0.2855533,0.12889257
-8.179627,-0.34188240000000003,-0.38140592,-0.31466540000000004,0.4303982,-0.017488198
-9.058741,-0.12509225,-0.9464950000000001,-0.37215656,0.37768924,-0.00842994
-10.689086,-0.31803617,-1.6388886000000003,-0.42964769999999997,-0.024190264,0.112399206
-12.996367999999999,-0.6859675000000001,-1.1508737,-0.45413467,-0.20889845,0.18957767
-13.396075,-0.8353656999999999,-2.726651,-0.40142572,-0.31538099999999997,0.13261011
-12.124554,0.87551165,-4.824632,-0.22682299,-0.27918285,-0.019076448
-13.915138,1.7990796999999998,-1.9528066000000002,-0.06340781,-0.18549359,-0.1495049
-16.826775,-0.670003,1.7156848999999998,0.060074233,-0.09552187,-0.21338396
-16.002852999999998,-3.8290372,4.227412999999999,0.15482816,-0.077422805,-0.15961036
-11.443346,-4.015507,4.994228,0.21818360000000003,-0.116291285,-0.078173295
-8.251013,-0.112881824,4.0077977,0.29483846,-0.16791813,-0.061138883
-11.283614,1.7897806,3.1959145,0.38107517,-0.23286183,-0.056339227
-13.649582999999998,1.9560341,2.762248,0.5109626,-0.24989624,-0.12819444
-12.929599000000001,-0.17708473,2.5583482,0.6520201,-0.18975219,-0.10266027
-10.764973,-1.7578325000000001,3.0722970000000003,0.7281339,-0.0662527,-0.0073652896
-9.182319999999999,-1.7340915000000001,2.6522105,0.7771253,-0.07583456,0.120898955
-8.082882000000001,-1.7415422999999999,1.9582751,0.73345715,-0.08702212,0.24919811
-7.479783,-1.5379682,1.546865,0.8090648,0.1344078,0.34608135
-7.176572,-1.0592618,1.4145136,0.8260992,0.20469221,0.34447563
-6.415455000000001,-0.8443679000000001,1.2076832,0.67437774,0.092886426,0.17893115
-6.142151999999999,-1.4380534,1.1144435,0.3832045,0.13229595,-0.037175514
-6.418472,-2.185092,1.1077013999999998,0.3379481,0.33723253,0.02242748
-6.74913,-2.478832,1.1117045,0.4635769,0.11205014,0.24865706
-6.838060400000001,-1.7383436,0.45018652,0.37095228,0.07319911,0.24706881
-7.009514,-1.3328426000000002,-0.15576677,0.49178140000000004,0.09449212,0.030403635
-7.44477,-1.1980202,-0.4293952999999999,0.34220672,0.24087289,-0.08030259599999999
-7.561780000000001,-0.68651336,-0.48028645,0.31133184,0.2483429,-0.098401666
-7.3782973,0.6510121,-1.2805531,0.45985934,0.44795619999999997,-0.06538004
-8.69032,1.1958655,-1.5523334,0.4481482,0.33032100000000003,-0.28789207
-10.706697,0.5763514,-1.9942743000000003,0.44547784,0.16050048,-0.40715042
-11.678063,-0.75189424,-2.5301924,0.39118063,0.16954128,-0.23680627
-12.662512,-0.3621182,-3.267185,0.23945917,0.09129817,-0.008970993
-13.483167000000002,-0.44192174,-2.2692628,0.090425506,0.040735986,0.12941617
-14.423360999999998,0.18811722,2.8873978,-0.025621433,0.034330625,0.17784905
-14.046733999999999,1.0610814,5.1315885,-0.1155757,0.0050614546,0.1805194
-12.638033,1.0946386000000001,4.5056,-0.15336208,-0.061453044000000005,0.14538592
-10.213263000000001,0.37565982,4.1623,-0.184778,-0.16845918,0.09321803599999999
-9.16375,-1.4065648000000002,2.7282119,-0.27420866,-0.21797417,0.06181956
-11.92732,-2.5769942,2.2829096,-0.44294712,-0.20839229999999997,0.06501351
-13.750005999999999,-1.5962622,2.9819207000000003,-0.6415132,-0.14238396,0.10545279
-13.307289,-0.12640427,2.2864435000000003,-0.7352025,-0.06679375,0.080965824
-11.222649,0.2664938,1.3170983,-0.71284485,0.017837266,0.02560398
-9.430635,0.63481784,0.9881254,-0.7250795999999999,-0.047630034,-0.03185226
-7.9114575,0.48414589999999996,0.98378706,-0.78204715,-0.22914428,-0.17345083
-6.7838270000000005,0.28320533,0.94094044,-0.8970294,0.11205014,-0.2926917
-5.9125575999999995,0.35606566,0.9255218000000001,-0.9614495000000001,0.24780184,-0.2921681
-5.630942,0.61571205,0.8943492000000001,-0.6915518,0.15357152,-0.17132153
-5.977575,1.3961451,0.62421626,-0.318924,0.18338175,-0.08510225
-6.2854595,1.9485544999999997,0.28713185,-0.28646088,0.30262265,-0.11489502
-6.4586368,1.4910033999999999,-0.044886492,-0.08895943,-0.18764035,-0.1473756
-6.0849785999999995,0.6737571,-0.2611595,0.027070057,-0.5618564,0.030927233
-6.43752,0.40574056,-0.45114422,-0.22258183,-0.30686378,0.15657349
-7.527982700000001,0.54462343,-0.21696256,-0.22629939,0.21638592,0.015498524
-8.072396000000001,0.58216447,0.35493562,-0.32159436,0.35798448,-0.13301153
-8.040582,0.25268406,-1.9070102999999998,-0.35725144,0.017296214,-0.07552039599999999
-10.067167999999999,-0.34555036,-2.4171765,-0.38919097,-0.13226105,0.06553711
-13.271328,-0.97638416,-0.61803925,-0.40622538,-0.1370607,0.11344639999999999
-13.982875,-2.0973208,-1.8873204,-0.24652776,-0.09714503,0.044767695999999996
-12.628687,-1.0447339,-4.548811,-0.027209682000000002,0.0018500489999999999,-0.04783947400000001
-14.988967,-0.050431464,-0.72744465,0.10637782,0.017296214,-0.11650073
-18.422539,-2.3329005,3.1826793999999996,0.17931512,-0.033789575,-0.12395328
-15.437439999999999,-4.017097,3.8835387000000003,0.19793779,-0.107791536,-0.06752679
-8.824003,0.031689655,3.6653218,0.18196803,-0.16154768,-0.021223204
-8.499569000000001,2.4868189999999997,3.1843169,0.17345083,-0.22862068,-0.016423548
-11.706334,2.6371078,3.1652112,0.24745278,-0.27068309999999995,-0.059550636
-13.489803,0.74791026,2.6102638,0.43270203,-0.26534240000000003,-0.119153626
-11.956844,-1.2974179,2.525988,0.5705656,-0.15941837,-0.052098077
-9.79851,-2.1087842,2.9540234,0.58653533,-0.047630034,0.038920842000000004
-9.048838,-1.5564322,2.1562946,0.5679126999999999,0.024748769,0.123028256
-8.339732000000001,-1.1775067,1.292706,0.48380527,0.1998751,0.23108159
-7.707107499999999,-0.60713124,0.90929866,0.55353117,0.40856412,0.34873423
-6.9291167,-0.14098018,0.95690495,0.5695009,0.24193753,0.38226202
-6.379111,-0.44041818,0.9765374,0.41086796,0.21799162,0.2475924
-6.437769,-1.2785995,1.0059190999999998,0.12767084,0.42240459999999996,-0.00045378560999999995
-6.795549,-2.3421805,1.2819322,0.0094945915,0.5198114,-0.033999015
-7.189960000000001,-2.6214497000000003,1.1289523000000001,0.10850712,-0.044436082,0.061802108
-6.9544570000000006,-1.79025,0.45659342,0.11969468,0.022078415,-0.019617502
-6.8091097000000005,-1.2981458000000001,0.02978387,0.23413591,0.05349434,-0.21338396
-6.9477915999999995,-0.77639174,-0.39159563,0.16760397,0.05614724,-0.143117
-6.993099000000001,-0.18323305,-1.1032481,0.40554470000000004,0.031136672999999997,0.05009095
-7.369295599999999,0.26692477,-2.1969388,0.5471433000000001,0.048712137999999995,0.03944444
-9.458064,0.08537724,-1.5376041999999999,0.4832642,-0.038589227999999996,-0.09094911
-10.970127,0.14077905,-1.8146900000000001,0.48912853,-0.010367256,-0.09201376
-11.36991,-0.5086434,-2.9452224,0.34698892,-0.050823987,0.06286676
-12.172667,-0.0060429648,-3.3317614,0.17718582,-0.09023352,0.19753636
-13.284918,-0.24546313,-0.9378663,0.039845865,-0.0662527,0.27260298
-13.641060000000001,1.051677,4.016302,-0.042655847999999996,-0.07956956,0.24226916
-13.739251000000001,1.198978,4.017911,-0.08098327,-0.09234537,0.16774360000000002
-13.067093,-0.17288053,3.883893,-0.121963605,-0.18338175,0.13686872
-11.623438,-1.4380726000000001,4.426975,-0.15763813,-0.28824112,0.10386454
-12.454685000000001,-2.389107,3.3039982000000006,-0.22258183,-0.36756635,0.055955257
-14.3935,-1.8988127000000001,2.8020396,-0.32850587,-0.43463933,0.07403687
-13.485964000000001,-0.32158917,2.740384,-0.4269948,-0.38460076,0.06445501
-12.190805000000001,0.35811509999999996,1.6211714,-0.46425757,-0.3127281,0.00057595863
-10.554963,0.8063288000000001,0.72612303,-0.40090212,-0.26961845,-0.09681341
-8.874002,1.0515046000000001,0.47361138,-0.37002724,-0.15144221,-0.24853489
-7.096586,0.67995334,0.8016937,-0.39079666,0.10992084,-0.36936402
-5.867106,0.33241096,0.98605675,-0.5275956,0.18071139,-0.44868925
-5.222472,0.8370608,1.0430291999999999,-0.5536882,0.12908456,-0.40875609999999996
-4.9895644,1.3069851000000001,0.70499665,-0.364704,0.27652997,-0.28525662
-5.409239299999999,1.9534866000000002,0.28876948,-0.24919811,0.51553535,-0.25811675
-6.382731,1.9210691000000002,-0.3596857,-0.24706881,0.46977282,-0.29218557
-6.9724326,1.43496,-0.51953214,-0.10759955,-0.12322024,-0.1404641
-7.082987299999999,0.9478835999999999,-0.25739583,-0.19490092,-0.5538801999999999,0.12248721
-7.1950455,0.8107533,-0.14582604,-0.101211645,-0.093951076,0.18317229999999998
-7.2967130000000004,0.25044307,0.04164953,-0.02242748,0.60124844,-0.0771261
-6.8267407,-0.28974628,-1.3175005,-0.12356931,0.42184609999999995,-0.12822933
-8.351991,-0.050613422000000005,-1.6266876000000001,-0.37109190000000003,-0.04977679,0.071907565
-11.365841,0.45197737,-0.46780786,-0.5041733,-0.1839228,0.25396284
-12.770355,-0.053907845,-0.5577340999999999,-0.46797514,-0.24247860000000002,0.16933185
-11.571761,-0.2979632,-3.1679885,-0.2534567,-0.20413370000000003,-0.05581563
-11.919907,-0.012066776000000001,-3.1144638,-0.014974925,-0.08011061,-0.21073106
-16.189304,-1.4603002,2.2763302000000003,0.15748106,0.043912485,-0.2660929
-18.1032,-4.881653,5.868801,0.22561869999999998,0.048153635,-0.2660929
-11.723773,-3.765361,5.680646,0.26768115,-0.007173303000000001,-0.19050269
-7.6450496,1.2072618,4.219809,0.32304299999999997,-0.10512118,-0.11119492
-11.61275,2.6429113999999996,3.3209875,0.38266343,-0.20999801,-0.06752679
-14.817859,2.4459932,2.505101,0.49178140000000004,-0.3084695,-0.02867576
-14.205038,0.52803636,2.4959552000000005,0.64083254,-0.29517007,-0.031346112
-11.570917999999999,-1.4145998,3.0480772999999997,0.8037241,-0.17379989,-0.023893557000000003
-9.964639,-1.9183971999999998,2.793133,0.9048659,-0.058276545,0.057543505
-8.946671499999999,-1.9784055,2.0243742,0.86866784,-0.07691666,0.1836959
-8.349808,-1.2392005,1.6096313,0.7345218000000001,-0.031136672999999997,0.2837731
-7.6677947,-0.6576201999999999,1.2386163000000001,0.6722484999999999,0.22436208,0.33274699999999996
-6.779288,-0.36139995,0.9359126,0.63231534,0.3217689,0.32635912
-6.1505218,-0.6443946,0.8768236999999999,0.38692203,0.23979078,0.1943424
-6.196826000000001,-1.2972933999999998,0.9382971999999999,0.0829555,0.33082715,0.035185836
-6.45449,-1.9242678,0.97770584,0.10372492,0.48946014,0.05274385
-6.329743,-2.3734965,0.9550470999999999,0.25384068,0.14238396,0.18636626
-6.4552565,-1.9810294999999998,0.602295,0.33634240000000004,0.1311964,0.08361872
-6.826587,-1.0728321,-0.22314917,0.39809215,0.23820254,-0.1942377
-7.306127,-0.39260120000000004,-0.63179153,0.40554470000000004,0.19455186,-0.21872467
-7.411500500000001,-0.0737893,-0.8103128,0.7866897,0.1413193,-0.09096656
-7.517726,0.5951219,-1.2669828,0.8388575999999999,0.1913579,-0.25918138
-9.109689,1.2064766000000002,-1.4580879999999998,0.65573764,0.071575955,-0.44123667
-10.83879,0.9722183000000001,-1.8501816999999998,0.5013633,0.07956956,-0.36884043
-11.436269,0.8893023000000001,-2.2274884999999998,0.25755823,0.06944665,-0.06806784
-11.704888,0.5416834,-2.6963596,0.048363075,0.05242969,0.15495034
-13.140892000000001,-0.43973824,-0.285973,-0.09375909,0.08009316,0.24863960000000002
-13.7071495,-0.04285621,4.879163,-0.23481660000000001,0.07796386,0.22841124
-13.820615,-0.8788923000000001,4.4955063,-0.36576864,0.05347689,0.17252579999999998
-12.577163,-0.5702701,4.0352545,-0.48129198,-0.073722705,0.15655604
-10.798845,-1.4465,4.355024,-0.545171,-0.1945693,0.12568116
-12.554905999999999,-1.9036106,2.53816,-0.65322435,-0.21851522,0.12674580000000002
-14.977273,-1.3566886999999999,2.2402162999999997,-0.7879114,-0.21851522,0.14217453
-14.610625,-0.55332875,2.4245121,-0.88479465,-0.15730652,0.07138397
-12.7339735,-0.23769635,1.4614686000000001,-0.8496611999999999,0.0018500489999999999,-0.05157448
-10.519749000000001,0.3232172,0.7228095,-0.75756013,0.07318166,-0.16175711
-8.933821,0.7404883000000001,0.49158707,-0.71071553,-0.037524577,-0.31080824
-7.5006413,0.58106315,0.48414589999999996,-0.69048715,-0.025272367999999996,-0.39917424
-6.333764599999999,0.32745016,0.4632589,-0.6803816999999999,0.049759335999999994,-0.39652136
-5.706704,0.72610396,0.36690659999999997,-0.6665412,0.023666665,-0.34913567
-5.3569207,1.2145498,0.46926352,-0.39983746,0.058800142,-0.26663396
-5.7463427000000005,1.8230026999999998,0.35035792,-0.17306685,0.2515194,-0.1558928
-6.120767,1.7579569,0.35735855,-0.03413864,-0.009843656999999999,-0.073391095
-6.0196266,1.1219708000000002,0.20695479,0.09360201,-0.35266122,0.07297221599999999
-6.127815200000001,0.4775858,0.015887922,0.11543608,-0.46711993,0.36681584
-6.645403999999999,0.31650388,-0.61854684,0.33049554,0.40427062,0.27792624
-6.920603,0.0032273838,-0.9145371999999999,0.23413591,0.5346991,-0.104265966
-7.4341016,-0.29855695,-1.1327351,-0.042655847999999996,0.017278758999999998,-0.18146189
-8.752703,-0.21052694,-1.5691502,-0.13473941,-0.22542672,0.03466224
-10.512364999999999,-0.15178281,-1.5957066999999998,-0.24865706,-0.18125243,0.14110987
-12.16333,-0.84574693,-0.27137795,-0.18371336,-0.1870993,0.09213593
-12.637669,-1.5916845,-2.2531257,0.03291691,-0.058817595,-0.014835299
-14.0218725,-1.300291,-1.7304906999999998,0.23520057,-0.014102261000000001,-0.11864748
-17.994417000000002,-3.5011275,2.5238142000000003,0.3299545,-0.0013264503,-0.13035864
-19.136910999999998,-6.498629599999999,4.247764,0.35124752,-0.044453535,-0.082449354
-10.225913,-0.5605496999999999,3.4022756000000003,0.34379494,-0.14292501,-0.04145157
-8.437914,3.7601894999999996,3.037131,0.38425168,-0.255778,-0.059550636
-11.672787,3.4247332000000004,3.7033415,0.48593456,-0.326586,-0.083514005
-14.016098000000001,0.8778867,3.050663,0.6589316,-0.36278415,-0.22776547
-12.998695,-1.3832643999999998,2.4967215,0.80265945,-0.34095007,-0.28153905
-10.522497,-2.4574566000000004,2.8134360000000003,0.8069181,-0.20415117,-0.20488420000000002
-9.54053,-1.5265718000000001,2.485689,0.72493994,-0.1301492,-0.088296205
-8.982346000000001,-1.1454915,1.6407752,0.63285637,-0.1227141,0.09639453
-8.256185,-0.71795404,0.98648775,0.6285978,0.26427776,0.30347785
-7.4107823,-0.45815444,0.7812279999999999,0.7377158,0.46975538,0.4221777
-6.628547999999999,-0.8250706,0.7317734,0.7451683000000001,0.48572513,0.40781364
-6.211373,-1.4890403,0.84228015,0.48806387,0.336674,0.23799309
-6.387193700000001,-2.1068208,1.0768067,0.24584708,0.40854666,0.06871361
-6.287087400000001,-2.5573905,1.4219164,0.25542894,0.4016177,0.13632767
-6.690912700000001,-1.3760531,0.762898,0.3379481,0.17486453,0.16772614
-6.715965700000001,-0.40701428,-0.07857769999999999,0.3837281,0.1977458,-0.04251622
-7.3107904999999995,-0.6540097,-0.48706679999999997,0.37627554,0.07689921,-0.21766001
-7.612106,-1.073426,-0.66567427,0.27619836,0.14664257,-0.20221385
-6.788136,-0.59815776,-1.4493444,0.37095228,0.10405653,-0.14313444
-7.688193300000001,-0.08143159,-1.4469118,0.40395644,0.21210986,-0.23308872
-9.715603999999999,0.56930286,-1.7059453000000002,0.36030576,-0.008779005999999999,-0.31241393
-11.233364,-0.1440639,-2.4688529999999997,0.30546752,0.008237954,-0.19156733
-12.1388235,-0.7228956999999999,-3.145148,0.09147271,-0.07639306,0.03996804
-12.249962,-0.83908147,-3.4271274,-0.14273302,-0.10088003,0.1964717
-12.815261999999999,-1.0540713,0.30716652,-0.31946507,-0.09075712400000001,0.27844983
-13.469377,0.5251920999999999,4.845567,-0.47010443,-0.07852236,0.31838295
-14.246745,1.1950611,5.140810500000001,-0.5488886,-0.14346607,0.27686158
-12.796492,1.8079287,3.8700930000000002,-0.5786988000000001,-0.21532127,0.22256438
-10.674845,-0.51579726,3.6546724000000004,-0.6340607,-0.23715533,0.16453218
-11.691471,-2.5177902999999997,2.6852696,-0.7133859,-0.18072884,0.16720255
-14.474060999999999,-2.5340233,2.8120186,-0.79004073,-0.15889478,0.15707964
-14.604764999999999,-0.8943205,2.7142012,-0.88105965,-0.08011061,0.06499606
-12.355048,0.24424689,1.1990641000000002,-0.9321629000000001,0.025795966,-0.08510225
-10.111614,0.94614065,0.5292239000000001,-0.8688249,0.007173303000000001,-0.25651103
-8.830266,1.0150937,0.20271227,-0.7980169,-0.016772615,-0.35819393
-7.6020308000000005,0.71849996,0.25368005,-0.89011794,0.27438322,-0.39812705
-6.273383,0.5015757000000001,0.8251664000000001,-0.9486737,0.3734132,-0.36671114
-5.339807,0.34302208,0.8813631,-0.6548301,0.3175103,-0.27993336
-5.137708,0.673058,0.62607414,-0.21938789,0.35637876,-0.08564331
-5.7482677,1.4085662,0.51486826,-0.07831292599999999,0.3169867,-0.05050983
-5.946756400000001,1.6131078,0.28253496,0.08402015,-0.14985397,-0.036669366
-5.80638,1.3216758999999998,-0.44359767,0.12714724,-0.53791046,0.14110987
-5.619249,0.75913435,-0.62529844,0.27672195,-0.37608355,0.24492206
-6.0057116,0.2997062,0.19817287,0.35444146,0.29302332,0.07244862
-6.584561999999999,0.006301539,0.13277285,0.07550294,0.26214844,-0.10267772
-7.2225018,-0.04852568,-2.1509987999999995,-0.006457718,-0.048712137999999995,-0.020699605
-9.931868,0.25901430000000003,-2.3551762000000003,-0.050108402999999996,-0.1860521,0.13845697
-13.03935,-0.27445212,-0.6645059,-0.13048081,-0.18444639999999998,0.12142256
-13.974936499999998,-1.1242212999999999,-1.6429394,-0.0458498,-0.1317549,-0.033475414
-12.52427,-0.38976645,-3.6171693999999994,0.14470525,-0.0034557518,-0.18092082
-14.585458,-1.1650951999999999,-0.0025187002,0.27672195,0.072640605,-0.25492278
-17.89777,-4.887016,3.1114087,0.32623693,0.059864793,-0.23043582
-14.672137,-4.1306973,3.9456347999999997,0.3129201,0.017278758999999998,-0.18305013
-9.037239999999999,-0.3857442,2.3186023,0.29907963,-0.07745771,-0.13035864
-9.907417,0.24368185,3.3197233999999995,0.31398472,-0.21479768,-0.08299041
-13.345127,1.9580451,3.8226687999999993,0.40022144,-0.33616787,-0.11971214
-14.426645,0.8122090000000001,2.765715,0.53436744,-0.36491343,-0.14526375
-12.330713000000001,-1.3422564,2.5985515,0.7233516999999999,-0.29784045,-0.10693632
-10.394321000000001,-2.0031807,2.7309031000000004,0.83301073,-0.19031070000000003,-0.018570304
-9.5192795,-1.9524428,2.0976557999999996,0.86015064,-0.071593404,0.10012954
-8.801401,-1.4884177,1.2566686000000002,0.8239525,0.04283038,0.21776474
-8.071764,-0.86566675,0.82512814,0.79414225,0.29143506,0.31412435
-7.060060000000001,-0.6877966999999999,0.52017385,0.7260045999999999,0.28291786,0.37055084
-6.4674190000000005,-0.9979033000000002,0.37618655,0.48380527,0.26905996,0.32264155
-6.334464,-1.4286871,0.52467495,0.0036477381,0.17962928,0.16772614
-6.352181,-2.0120009999999997,0.9021544,-0.21458822,0.26054275,0.080965824
-6.542874299999999,-1.8292372,1.0544063999999997,-0.09056514,0.135455,0.18849556
-6.495527,-1.3341832,0.88790405,-0.02295108,0.16793558,0.06819001599999999
-6.6311345,-1.4633074,0.14518438,0.07230899,0.030595621,-0.19369663
-7.072739599999999,-1.3354378999999998,-0.45597089999999996,0.09679596,0.07744026,-0.29005626
-7.39929,-0.68822765,-1.0912292,0.25597,0.09234537,-0.14100514
-7.335642999999999,-0.04969405,-2.2406855,0.5093569,0.13599606,-0.09574876
-8.266575,0.23823266,-2.4645147,0.42790237,0.11948524,-0.28951523
-10.530982,0.9610517,-2.5927002,0.3086615,0.048694685,-0.36084682
-11.735467,0.48431826,-2.4675791,0.2123193,0.016214108,-0.19530234
-12.038717,0.58045024,-2.731219,0.054209925,-0.004537856,0.06232571
-12.173069,-0.75879914,-0.98576945,-0.07831292599999999,0.011955505,0.23425809
-12.878603,-0.30033824,2.7476912000000002,-0.16880825,-0.0013264503,0.28963740000000004
-14.029744,-0.10560345,5.177757700000001,-0.184778,0.024731316,0.21937044
-13.741856,-0.08202535,4.609815,-0.12356931,-0.0077143554,0.11609929999999999
-11.869523,-0.55891204,4.33136,-0.07246607,-0.11205014,0.09374163
-11.076094,-0.9842468000000001,3.1247492,-0.103340946,-0.15411258,0.104911745
-14.094033,-2.0136863999999997,2.2507699,-0.21087068,-0.1945693,0.07990117
-15.121673000000001,-1.1909142,2.5180392000000005,-0.33969343,-0.17647023,0.0069638634999999996
-13.170475,-0.73179257,1.9469551999999999,-0.4269948,-0.1301492,-0.0728675
-11.26493,-0.7081090999999999,0.9812970999999999,-0.45732862,-0.039671335,-0.17240362
-9.676501,0.12551363,0.4366162,-0.43657666,-0.00986111,-0.28419197
-8.037326,0.87051255,0.4702691,-0.35618679999999997,-0.07852236,-0.41142645
-6.1556745,0.5736316,0.67958933,-0.35033995,0.038030725,-0.46731192
-5.1238212999999995,0.15730862,0.7745147,-0.32105333,0.05347689,-0.39865065
-4.8806567,0.54415417,0.5798948,-0.06660176,0.05721189,-0.26556929999999995
-4.9677963,0.98246545,0.4634504,0.22828907,0.17378244,-0.108542025
-5.172874,1.2798636,0.39387490000000003,0.32569590000000004,-0.018360863999999998,0.04796165
-5.552633,1.0985938,0.14605588,0.07072074,-0.29517007,0.18050195
-6.0213980000000005,0.78030866,-0.57373697,0.18516198,-0.5623974,0.51108474
-6.6277633,0.7365714,-1.0607367,0.37999308,0.4096113,0.33115876
-7.367102,0.60894126,-1.2844126,0.26394615,0.7630754,-0.12184144
-7.835772,0.31334352,-0.7947505,-0.06447246,0.30740485,-0.22137757
-8.322417999999999,0.05119761,-1.3254108,-0.09534734,-0.08065166,0.07297221599999999
-10.082003,-0.23998520000000004,-0.9238458,-0.2326873,-0.17592919,0.23640485
-11.906978,-0.5695614,0.0739521,-0.20022418,-0.22172663,0.20818287
-12.779223,-1.6214683,-1.1116567,0.021746803,-0.11311479,0.05487315
-14.028260000000001,-1.6238625,-1.7060220000000001,0.22987731,-0.05349434,-0.079779
-16.940022,-3.015564,1.5741302,0.32836625,-0.021031217999999997,-0.1425934
-19.157637,-5.656541000000001,4.6229925000000005,0.35072392,-0.031136672999999997,-0.114388876
-9.473071000000001,-0.82081854,3.8859617999999996,0.32517229999999997,-0.11205014,-0.06274459
-7.7542734,3.7818712999999997,2.2682283,0.30653217,-0.24673720000000002,-0.04944518
-11.926542999999999,3.2247407000000003,2.9210985000000003,0.407674,-0.3728896,-0.083514005
-15.717139000000001,0.63612026,2.7599015,0.5588544,-0.435704,-0.17240362
-14.588014999999999,-2.5309107,2.3228353999999998,0.6110223000000001,-0.37981856,-0.12983504
-11.457069,-3.2061043,2.9089072,0.5625894,-0.38992402,0.02719223
-9.820422,-1.7691236000000001,2.5860634,0.53010887,-0.39632937,0.20285963
-9.275961,-1.2836944,1.8345619999999998,0.45558329999999997,-0.26429522,0.35138714
-8.545969,-0.89469403,1.2768469,0.45238933,0.18549359,0.43175954
-7.5902133,-0.4201345,0.93626696,0.73719215,0.21903881,0.44134140000000005
-6.645614,-0.5285248,0.72966653,0.73399824,-0.037524577,0.33861133
-6.139691,-1.1839902,0.7482934,0.47581166,0.13812536,0.09426523
-5.9939127,-1.762391,0.95748913,0.25436428,0.45858526,-0.08510225
-5.9306865,-2.280477,0.8450287000000001,0.2777866,0.56131536,-0.008988446
-6.3542495,-2.0875331999999998,0.12829089999999999,0.12660618,0.17432348,0.06551966
-6.7410564,-1.4744738000000002,-0.2583631,-0.03785619,0.15037757,-0.10053097
-6.736757000000001,-1.1786176000000002,0.044005428,0.030264008999999998,0.073705256,-0.3390302
-6.533249400000001,-0.9058030999999999,0.4924107,0.15269886,0.16472417,-0.29270917
-5.7687615999999995,-0.32083259999999997,-1.0851288000000001,0.48432887,0.29675832,-0.079779
-7.060156299999999,0.43726742,-1.8515223000000003,0.54288465,0.18338175,-0.24532348
-9.658248,0.055037912,-0.51768386,0.32197833,0.035377822999999996,-0.43324307
-11.007592,-0.40195772,-1.0550673000000002,0.19528489,0.12215559,-0.32251940000000007
-11.187042,-0.12213302,-2.2597435000000003,-0.013910273999999999,0.12267919999999999,0.017086774
-11.994117,0.10297939999999998,-3.3469217,-0.20022418,0.12374385,0.30773646
-13.575688000000001,0.2425422,-0.1453855,-0.29178414,0.12267919999999999,0.41153118
-13.876342999999999,1.8315834999999998,3.34944,-0.2912431,0.111509085,0.37002724
-13.192626,1.007796,5.471498,-0.20287707,0.13493139999999998,0.21937044
-12.362202,0.27447128,4.557717299999999,-0.07937758,0.014625859,0.12461651
-10.824836999999999,-1.4168983,3.4882562000000004,-0.012304571,-0.19083429999999998,0.08841838
-12.249177,-2.7252624,2.1061697,-0.055955257,-0.23874359,0.09267698
-15.717819,-2.1366813,2.1190217000000002,-0.17360789999999998,-0.322851,0.09958848
-15.776697,0.28243917,2.6347327000000003,-0.33543482,-0.3143338,0.044226642999999996
-13.078221000000001,0.34108755,1.7356718,-0.45999897,-0.15304792,-0.061156336
-10.921122,0.37297833,0.9114629999999999,-0.51003754,-0.02316052,-0.17081538
-9.569174,0.5037401,0.9113193000000002,-0.5047143,0.007696901999999999,-0.28632125
-7.7020800000000005,0.19553925,1.1732354,-0.51003754,-0.032742377,-0.3917217
-5.9584208,-0.46218628,1.2406466,-0.5281366,0.03965388,-0.36245254
-5.0835605,-0.700122,1.1645013000000002,-0.45467573,0.11789699,-0.24001768
-4.796026,0.22753535,0.8264401,-0.19490092,0.08115781,-0.15749851
-5.051143,1.3224995000000002,0.558663,0.050492376,0.22436208,-0.1314233
-5.307667299999999,1.769928,0.5777113,0.021205751000000002,0.10564478,-0.13674654
-5.686986,1.6713444,0.23088723,-0.02029818,-0.34095007,0.013892821000000001
-6.080419999999999,1.3923911,-0.30409235,-0.0021991148,-0.77373934,0.41472512
-6.7004223,0.907661,-0.89998996,0.17718582,-0.14346607,0.51321405
-7.122166,0.3955987,-1.0980383,0.09147271,0.8908335,0.11768755
-7.731605,-0.26220340000000003,-1.1073948999999998,-0.15550883,0.59644884,-0.033475414
-8.649006,-0.7574774999999999,-1.4938191,-0.16029103,0.0662527,0.118752204
-10.077885,-0.47038403,-1.7269281000000003,-0.19490092,-0.13334316,0.3401996
-11.750214999999999,-0.60212255,-0.6003987,-0.100146994,-0.25418976,0.3045425
-11.646048,-1.7980646,-1.902969,0.16121607,-0.20628047,0.12035791
-12.058388,-0.7116334,-3.0003178,0.38425168,-0.10725048,-0.0749968
-15.902804000000001,-0.46786532,1.5989723999999998,0.4465425,-0.05349434,-0.2208365
-20.33628,-4.739839599999999,7.199403,0.43961352,-0.022095867999999998,-0.22776547
-12.927359,-5.4654355,4.515952599999999,0.3991568,-0.042847835,-0.18730873
-6.9663509999999995,2.0380404,2.9785209999999998,0.39118063,-0.14931291,-0.16868608
-11.796126,4.9105267999999995,3.6990702000000004,0.42683770000000004,-0.23767893,-0.16388641
-14.779435000000001,1.8640870999999999,2.6219094,0.55353117,-0.28080603,-0.23682372
-14.730220999999998,-1.4891838,2.9911432000000002,0.68128926,-0.28984684,-0.2575757
-11.640044,-3.2284565,3.5674273999999997,0.7930775999999999,-0.21425661,-0.16069247
-9.848587,-1.8220450000000001,2.9614456000000002,0.8244935,-0.13814281,-0.018570304
-9.377504,-0.65287006,1.9993116999999998,0.7968126,-0.091821775,0.13365729999999998
-8.952246,-0.07983226,1.4201639,0.7467739999999999,0.011431906,0.29548424
-8.071639,0.22327366,1.1216834999999998,0.83514005,0.3212453,0.41900119999999996
-7.130488400000001,-0.16513288,0.84188753,0.81171775,0.39416516,0.4046197
-6.699867200000001,-0.99836296,0.7369640000000001,0.48007026,0.3696782,0.24705136
-6.7378197,-1.6440887,0.84858173,0.017488198,0.3212453,-0.0169646
-6.5303674,-2.1438735,1.0730525,-0.06660176,0.37713075,-0.053162728
-6.5038013,-1.9814988000000002,0.87115425,-0.019233529,-0.15943582,-0.0004712389
-6.411528,-1.3861183000000001,0.37196317,0.027070057,-0.06574655,-0.2533171
-6.5998564,-1.3015839,-0.17178875,-0.076183625,-0.044436082,-0.49179888
-6.968947,-1.2207938,-0.501614,0.060074233,0.18123499,-0.1420698
-7.1034913,-0.66336626,-0.70748657,0.5120098,0.12109094,0.08948303
-6.591544,0.17777427,-2.2994392,0.5806885,-0.09075712400000001,-0.14100514
-8.030180999999999,0.32092836,-1.9822075000000001,0.3342131,-0.1344078,-0.35819393
-10.343182,0.88375735,-2.3898442,0.1500285,-0.016231561000000002,-0.2533171
-10.845599,0.6256815,-3.2071099999999997,-0.09482374,-0.15570082,0.057543505
-11.494467,0.16736427,-3.183436,-0.31840040000000003,-0.15943582,0.2832495
-13.36633,-0.46679273,0.8572390999999999,-0.46158722,-0.1184555,0.3439346
-14.584270499999999,1.8736543999999997,6.264533999999999,-0.5632701,-0.11524409,0.29761353
-15.260832999999998,0.95763284,4.924681,-0.63034314,-0.121631995,0.20179497
-12.217727,-1.9061389,3.5313517999999995,-0.6260845,-0.18177605,0.107041046
-10.910741,-1.3048781,4.4026017,-0.64364254,-0.24832545,0.07510152
-14.380945,-1.0952803,4.0978103,-0.7219031,-0.28187066,0.1251401
-15.042098999999999,-0.6322033,2.8837106,-0.8331504000000001,-0.25684264,0.11609929999999999
-14.316664999999999,0.11907802,2.8239036,-0.94387406,-0.15941837,0.013892821000000001
-12.560106,0.48136863,1.759566,-1.0072296,-0.047647487,-0.08883726
-10.433835,0.8487924000000001,1.1503278000000001,-1.0045591999999999,0.009302605,-0.19582593
-9.0499,0.73374623,1.1803796999999998,-0.9987123,-0.029548422999999997,-0.3438124
-7.6511693,0.4425251,0.9451063,-0.9161931000000001,-0.046041787,-0.44708353
-6.3216019999999995,0.28733295,0.7775505,-0.7479783,0.17219418,-0.46731192
-5.3728375,0.23240994,1.0313838,-0.65215975,0.29836404,-0.45773005
-5.2045445,0.7283353,0.6187,-0.40783107,0.23446754,-0.37309903
-5.500669,1.5497572,0.5756140000000001,-0.06288421,0.13439035,-0.21872467
-5.565388700000001,1.5711133,0.44021708,0.079237945,-0.0008028514599999999,-0.084578656
-5.742158,1.0697006000000002,-0.021997925,0.04410447,-0.18338175,0.04103269
-5.948346,0.67004126,-0.4407821,-0.068207465,-0.42612213,0.3439346
-6.4694294999999995,0.14517482,-0.6290142,0.19315559,-0.009843656999999999,0.44985859999999994
-7.0394416,-0.068378404,-0.85933644,0.2213601,1.0004925999999998,0.033056535
-7.5802436,-0.15525919,0.027360937000000002,-0.055955257,0.43994513,-0.058485985
-7.583557000000001,-0.26138937,-0.8513973,0.028658306,-0.11046189,0.12301081
-8.614567999999998,-1.2598672,-1.5294352,0.12021828,-0.05084144,0.27473226
-11.34888,-1.8199476000000003,-0.35304898,0.1495049,-0.044977135999999994,0.1900838
-13.421185999999999,-1.6739683999999997,-0.7518464,0.34327134,-0.0045204028,0.044244096
-13.78837,-0.84676206,-1.3141007,0.5306499,0.0699877,-0.09628981
-16.648042999999998,-1.2990556,2.1680644,0.58601177,0.059341196,-0.17240362
-20.446991,-5.3655976999999995,5.3431783,0.5679126999999999,-0.006126106,-0.15271631
-13.997489000000002,-4.0804860000000005,4.0724797,0.52797955,-0.060946897,-0.13088223
-6.295735400000001,1.9775436000000002,2.0818732,0.48593456,-0.1280199,-0.12555899
-9.974111,2.6799352,3.7885177000000003,0.49816933,-0.21319197,-0.15004596
-14.153112,1.6232784,4.223946,0.64934975,-0.29304078,-0.24427629
-14.525688,-1.4677796,3.3423057000000003,0.7952069,-0.3122045,-0.23575908
-11.610116,-2.93306,3.3610568,0.855892,-0.18711674,-0.13674654
-9.795062,-1.719803,3.2678363,0.855892,-0.073722705,-0.029216811000000002
-9.150773,-0.68409044,2.1990453999999997,0.83726937,0.050823987,0.09958848
-8.700586999999999,-0.21873426,1.2718287,0.8207585,0.09447467,0.25343925
-7.846967,0.011195287,0.87814534,0.75368553,0.37606609999999996,0.34180528
-6.8365279999999995,-0.42622536,0.85767967,0.40341540000000004,0.22382103,0.24970426
-6.379331,-1.0421864,0.89641786,0.14470525,0.18017034,0.09426523
-6.376918,-1.8490514999999998,1.0282043,-0.06234316,0.43942153,-0.09468411
-6.5245633000000005,-2.5953815,1.1822663999999998,-0.0458498,0.61508894,-0.06274459
-6.617171300000001,-2.3415675,0.932283,0.040910516,0.22542672,0.058608155999999995
-6.463042,-1.6137016000000002,0.43225875,0.2580993,0.22275637,-0.03986332
-6.687283,-1.3411648,-0.11333193,0.34433600000000003,0.07583456,-0.14526375
-7.080669400000001,-0.8852896,-0.58067054,0.29962066,0.07318166,-0.14152876
-7.487282,0.29357702,-0.7578414000000001,0.38692203,0.09925687,-0.099483766
-7.415426700000001,1.4773566,-2.1015537,0.5918585999999999,0.15248941,-0.0861669
-9.692093,0.48348507,-1.3747028000000001,0.675966,0.11576769,-0.18624409
-11.730506,0.3123763,-1.2819610000000001,0.6477615,0.050823987,-0.15591027
-11.276432000000002,-0.5784104,-2.7475092,0.5157448,0.026337017999999997,0.025062927999999998
-11.706124,-1.431474,-3.7033032999999995,0.33049554,-0.01303761,0.19753636
-12.544678999999999,-1.8383063999999998,-0.21198262,0.15056956,-0.044453535,0.2587625
-12.106367,0.58665603,4.2490764,0.0132295955,-0.08330456,0.25130996
-12.014908,-0.10957782,3.0340377999999997,-0.053302355,-0.13334316,0.16985545
-12.729616,1.4794633,5.085361,-0.041591197,-0.17273523,0.105976395
-12.6522255,-1.374607,4.5634537,-0.06340781,-0.2749417,0.100653134
-12.726091,-2.5415602,3.3005410000000004,-0.15125023,-0.27281243,0.14536847
-14.523055,-2.5612404,3.1376014,-0.3061482,-0.27387705,0.15868534
-14.784751000000002,-1.0832133999999998,3.0184273999999998,-0.44189993,-0.20361010000000002,0.11290534599999999
-12.824933999999999,-0.107011236,2.067259,-0.5382421,-0.067875855,0.01654572
-11.377686500000001,0.60571384,0.7662403,-0.55794686,-0.0066497047,-0.0813847
-9.999996000000001,1.1270752,0.23604913,-0.61863196,-0.1338842,-0.18943803
-8.291293,1.0002687,0.57048076,-0.6463129,-0.10939724,-0.28153905
-6.568846700000001,0.45294464,0.9168069,-0.6180909000000001,-0.009843656999999999,-0.31293753
-5.766080400000001,0.13474567,0.9673724,-0.46851617,0.013561208,-0.28419197
-5.499606,0.81133753,0.83811426,-0.08204792400000001,0.22062707,-0.17400932
-5.411240599999999,1.7612897,0.7030813,0.09520771,0.4426155,-0.11384783
-5.377511,2.0152857,0.49313852,0.12395328,0.14557791,-0.10693632
-5.3337164,1.5422585,0.08524316,0.11437143,-0.25418976,0.005899213
-5.6543574,1.0956825000000001,-0.48260403,-0.14432128,-0.27654743,0.27738518
-6.20081,0.8197938,-0.8483135,0.027593656,0.31379274,0.18849556
-6.5935354,0.5355063,-1.2704113000000001,-0.09428269,0.88603383,-0.15165167
-7.006697999999999,0.21679017,-0.8599110999999999,-0.21245892,0.53576374,-0.150587
-8.238486,-0.25610298,-0.9094519,-0.09375909,0.18975219,0.07829547
-10.344330000000001,-0.9788167,-0.18972611,-0.012845623,0.017278758999999998,0.23214625
-12.269211,-1.4291851999999998,-0.051120992999999997,0.16653931,-0.11365584,0.16985545
-12.16965,-1.5626571000000002,-3.1603557999999996,0.46464154,-0.093951076,0.011222467
-13.643962,-0.14567281,-1.4731809999999999,0.65308475,-0.099815376,-0.112259574
-17.78118,-1.5371828,3.3099551,0.67970103,-0.084910266,-0.15697491
-18.634531,-5.0817695,5.42823,0.658408,-0.108856186,-0.09628981
-10.358906,-1.5818969999999999,4.4209604,0.6301859999999999,-0.19828686,-0.037192967
-8.448707,2.184259,3.5265824999999995,0.5780181,-0.28080603,-0.053162728
-11.865242,2.7551994,3.4852874,0.6717074000000001,-0.24087289,-0.23043582
-14.360872,0.6563081999999999,2.9149024,0.7952069,-0.23076743,-0.21766001
-13.998362,-1.6540869999999999,2.8521549999999998,0.86547387,-0.16582373,-0.12503539
-11.270666,-2.5057044,3.4429388,0.8665385,-0.074787356,-0.033475414
-9.994566,-1.3184965,2.857384,0.8814436,0.070511304,0.046896997999999995
-9.333489,-0.79105383,1.644673,0.73026323,0.086481065,0.17359045
-8.5253315,-0.5893470999999999,0.92415226,0.545555,0.04337143,0.38172096
-7.7039184999999994,-0.20842004,0.6030803000000001,0.6195395,0.07052875,0.49031535
-6.938003999999999,-0.36478058,0.48854166,0.5572661999999999,0.17697638,0.4301713
-6.400544,-1.2081621,0.61763704,0.3299545,0.198793,0.19701277
-6.2217255,-2.2730452999999997,1.0714148000000001,0.20751965,0.4947834,-0.014294246000000002
-6.679592599999999,-1.9455092,0.80376226,0.29907963,0.49850094,0.06393141
-6.419487,-1.3498413999999999,0.5100799,0.34911820000000005,0.117355935,0.119816855
-6.3543453,-0.85506517,-0.36538392,0.37999308,0.23712043,-0.088296205
-6.6092130000000004,-0.5951794,-1.7636648000000001,0.16599827,0.0699877,-0.32251940000000007
-7.628884299999999,-0.58726895,-1.6644778000000002,0.18835594,0.45697954,-0.0813847
-7.7813663,-0.18357779999999999,-0.7071227,0.5764299,0.5772851,0.14962707
-7.370358500000001,0.7784986,-1.2830527,0.6876772,0.24778439,-0.06328564
-8.844756,0.5548419,-0.96687436,0.34166566,0.12109094,-0.11013027
-10.5768175,-0.5254124,-1.2896893999999999,0.078173295,0.12960815,-0.005794493
-11.440597,0.029142223,-2.5365992000000004,-0.15444419,0.022078415,0.29335493
-11.60256,-0.25366089999999997,-2.5148215,-0.3705683,0.060405847,0.53183675
-12.663172,0.30211952,1.1717031,-0.42538909999999996,0.033265974,0.52173126
-13.794347,1.7450857,3.5385535000000004,-0.3625747,0.010349803000000001,0.35829863
-14.459092000000002,0.8040878,3.9584677000000004,-0.29656634,-0.08223991,0.2417281
-11.397683,-0.73744285,3.4273955999999997,-0.30295426,-0.22703242,0.20285963
-10.7128935,-2.0470328,3.7366114,-0.41474259999999996,-0.40430552,0.14058627
-14.12646,-1.443311,2.617638,-0.57285196,-0.4415683,-0.014311700000000002
-15.718366,0.27507459999999995,0.9732909,-0.72242665,-0.42027527,-0.146852
-14.843658,1.8190092,1.5522951,-0.7911054,-0.32817426,-0.19743164
-12.283413000000001,0.68513435,0.9598642,-0.7815234999999999,-0.18125243,-0.16814502
-10.576596,0.18773414,0.50192046,-0.6979396999999999,-0.07532841,-0.16708037
-8.975125,0.21420443,0.5921818,-0.64205426,0.064664446,-0.24321163
-7.539896499999999,-0.44827120000000004,0.7608676999999999,-0.6718645000000001,0.20837486,-0.33744195
-6.36466,-0.34235168,0.95681876,-0.54410636,0.20731021,-0.31667253
-5.6743155,0.6927,0.6332951,-0.38067377,0.07637561,-0.27728045
-4.9044550000000005,1.7498548999999999,0.5179233,-0.31573007,0.07902851,-0.3432888
-4.4002360000000005,1.8755985000000002,0.6005998,-0.184778,0.31218705,-0.31347859999999994
-5.171217400000001,1.4588828,0.8121994,-0.15337953,0.15515977,-0.18624409
-5.944975,1.2255536,0.70948815,0.27033404,-0.52834606,0.049549895999999996
-6.2777785999999995,0.47962564,0.36936787,0.29801497,-0.34362042,0.4131369000000001
-6.614642999999999,-0.24468741,-0.18331923,0.36137040000000004,0.8775166,0.28323203
-6.705096000000001,-0.5188043999999999,-1.1795275,-0.014974925,0.6124185999999999,-0.08086111
-6.9234853,-1.0694325,-2.5861785,-0.4967207,0.05401794,-0.08510225
-8.463819500000001,-0.18273504,-1.3116874,-0.49939105,-0.24567254,0.26567402
-10.181668,1.1707933000000001,-0.5536926999999999,-0.53558916,-0.36011377,0.42271873
-10.853338,0.4326130999999999,-0.5657499,-0.33543482,-0.29571113,0.1794373
-11.455269,-0.77977234,-1.6377298,0.06379178,-0.05989969999999999,-0.0169646
-13.689777,-1.4067564,-1.4457436000000001,0.3485946,0.11948524,-0.20542525
-17.920876999999997,-2.584464,4.3159413,0.39118063,0.12000884,-0.24162339
-20.235706,-5.941202,5.8008823,0.25064674,0.07637561,-0.20169024
-11.38872,-0.25054842,-0.38334042,0.13725269,0.036442474,-0.1266411
-9.444675,4.0581045,-0.5590364999999999,0.13299409,-0.030089477000000003,-0.06063274
-11.276996,4.20282,1.821432,0.28736845,-0.04712389,-0.12184144
-14.712895999999999,1.7233846000000002,2.3435884,0.5577898,-0.045518185999999995,-0.19477874
-14.407923,-0.91593534,2.5800492999999998,0.7403860999999999,0.027925268,-0.1553692
-11.390137,-2.3211021,3.7618942000000004,0.77445495,0.014084807,-0.030822514
-8.971621,-1.8803486,3.2325744999999997,0.7451683000000001,0.011955505,0.06817256
-9.163836,-0.8128123,1.6467606,0.7142934,0.04335398,0.16505578
-9.378461999999999,0.09229169,0.5615169,0.675966,-0.03700098,0.27738518
-8.463005,0.2922554,0.18371189,0.7318689,0.0752935,0.34604642
-7.340325999999999,-0.065725625,0.29714918,0.64456755,0.16952384,0.31943017
-6.3547955,-0.9157438,0.5786210999999999,0.3773402,0.22221532,0.21563543
-5.6879144,-2.149543,1.0997238999999999,0.17292722,0.48837802,0.09320058
-5.8027120000000005,-2.8202546,1.1536413,0.2580993,0.4223697,0.096918136
-6.1107306,-2.1119826,0.42925164,0.41673225,0.116291285,0.11768755
-6.443189599999999,-1.3043323999999998,-0.3579044,0.66586053,0.041224677,-0.07606145
-6.809253,-0.9676405999999999,-1.1223922,0.37521088,0.07475245,-0.28899163
-7.321277,-0.749184,-1.8089247,0.41247365,0.2924823,-0.12716469
-7.5160313,-0.35921645,-1.5941169,0.71589917,0.30845204,0.062849306
-7.1579255999999996,0.46486777,-1.6987627,0.6993883000000001,0.27598890000000004,-0.10428342
-8.306137,0.67543304,-1.6514341000000001,0.5620484,0.15568337,-0.16549212
-9.505192,0.17068742,-2.223974,0.42577308,0.09711012,-0.09630727
-10.387292,0.31804574,-3.3008477999999997,0.16173966,0.021519909,0.029304077999999997
-11.348477,-0.118493825,-2.908457,-0.11079349999999999,-0.030630529,0.18421949999999998
-12.43625,-0.5971905,1.6098421,-0.29443705,-0.07853982,0.24277529
-13.379382999999999,1.1982502,4.7520976,-0.43125340000000006,-0.11154399,0.18476056
-14.798034,1.4974391000000002,3.4996622000000004,-0.5031085999999999,-0.09770353,0.095853485
-13.116845000000001,0.71475536,2.890175,-0.5590115,-0.22492059,0.06443755
-11.468867999999999,-1.2993908,3.0528178,-0.63886034,-0.30211648,-0.011658799
-13.772472,-2.3941348,2.0580556,-0.749584,-0.37185985,-0.08566076
-16.539058999999998,-1.342946,1.7886601999999998,-0.8688249,-0.38781217,-0.09843657
-15.102182999999998,0.5669373999999999,1.5971431999999999,-0.9060877,-0.31330407,-0.07927285
-12.957783000000001,1.0833283999999999,0.5947197,-0.89596474,-0.20790362,-0.14793411
-11.235519,1.1149989,-0.45929408,-0.88957685,-0.11686724400000001,-0.23310618
-9.8469305,1.1901194,-0.49785987,-0.8384735999999999,0.014590953,-0.31082568
-7.989364599999999,0.70030403,-0.27634832,-0.7421314999999999,0.19877554,-0.33957127
-6.4399333,0.57660043,0.26382187,-0.66174155,0.29246482,-0.2645221
-5.6529016,1.3218484,0.38486314,-0.48926815,0.18493510000000002,-0.17880899
-4.649664,1.2810128,0.21740308,-0.21619393,0.18015288,-0.101630524
-4.5773972999999994,1.272365,0.07763918,-0.16135569,0.4031885,-0.045727625
-5.281810299999999,1.609459,0.05271074,-0.25185102,0.22380356,-0.09524262
-5.5711637000000005,1.5743121,0.15098792,-0.06714281400000001,-0.15892968,-0.0760789
-5.523174299999999,0.7914177,0.15098792,-0.36098644,-0.6087359,0.10489429
-5.578375,-0.1975791,-0.04882256,-0.35299283,-0.31169835,0.32208306
-5.790722,-0.9864494,-0.5533575,-0.31255355,0.28766516,0.22945844
-6.76158,-1.134727,-1.4896243999999998,-0.34608135,0.53148764,0.059655353
-9.3244,-0.46811432,-1.9387671000000002,-0.39877284,0.07262315,0.09053023
-12.059307,-0.18129852,-0.8840734,-0.47223374,-0.3404439,0.27417377
-12.887979,-1.0338353999999998,-1.2729108,-0.46745154,-0.32180380000000003,0.25661576
-12.174918,-1.1131505,-4.324589,-0.19170697,-0.19671606,0.07030186
-12.487735,0.44492885,-4.610494999999999,0.13299409,-0.03117158,-0.06756169
-15.051389000000002,0.14284766,-0.6196865,0.36454692,0.025778513,-0.14688691
-17.206467,-2.4284866000000003,3.214934,0.47368234,-0.0029496064,-0.15751596
-15.7167,-3.154131,4.743383000000001,0.5386261,0.008744099,-0.123447135
-9.476346000000001,-0.5258146,3.445381,0.60889304,-0.07108726,-0.10110693
-9.623887,2.347534,2.8722757999999997,0.7132288,-0.20364502,-0.05211553
-13.456467000000002,3.5830858,2.146421,0.8707971,-0.2824292,-0.114947386
-14.691367000000001,1.261026,1.8734436999999997,1.0464646,-0.28827602,-0.13463470000000002
-12.730103999999999,-1.5355165000000002,2.596684,1.1353541999999999,-0.21642083,-0.026040312000000003
-10.643711,-2.7049499,2.7895226,1.095962,-0.12486085,0.12245230000000001
-9.465841000000001,-2.3512880000000003,1.7885166000000001,0.9969495,-0.03223623,0.2629862
-8.856928,-1.4993066000000002,0.9736451999999999,0.79573053,0.24294983,0.40139082
-8.067799,-0.7274734,0.71696764,0.7323925,0.38828340000000006,0.47804567
-6.9736967000000005,-0.61460114,0.54037136,0.6536083,0.15458381,0.47165778
-6.335651400000001,-1.1667328000000001,0.53522855,0.30759683,0.011397,0.29705504
-6.093999999999999,-1.9070008999999999,0.8956804,0.020141099,0.31641075,0.10808824
-5.9154596,-3.0191072999999995,1.0587351,-0.05490806,0.5123065,0.033562682999999996
-6.325778,-3.0200841,0.6037123000000001,0.015882496,0.20835741,0.068696156
-6.503312599999999,-1.9224291,-0.007441179,-0.011257373999999999,-0.037559487,-0.050527282
-6.5051227,-0.5748383,-0.37367743,-0.15231489,-0.13924237,-0.2623928
-6.541102400000001,0.11600386,-1.2576838,-0.29817206,-0.008813913,-0.3901509
-6.273219999999999,0.53149366,-2.6121507,-0.14220943,0.28394762,-0.14102261
-7.1333036,0.9710499,-2.552085,0.17290977,0.006073746,-0.11920599
-9.85057,1.0893329999999999,-1.7649096000000002,0.23040092,-0.13231342,-0.22513002
-10.698998,0.9633214,-2.1349096000000003,0.21443115,-0.12699015,-0.26132816
-10.729471,1.0631692,-2.7668352,0.066985734,-0.03970624,-0.14636332
-11.388864,0.9681098,-3.2831786,-0.13315117,-0.08600982,0.074543014
-13.293220499999999,0.21895453,-0.8823686,-0.33011156,-0.085486226,0.2353053
-14.228194,1.5914832,2.3134499,-0.49886745,-0.06843436,0.26991516
-13.847898999999998,2.3792619999999998,2.9757054,-0.6415307,-0.026389378999999998,0.24010494
-12.275464999999999,0.20389022,3.6487057000000003,-0.6718645000000001,-0.06258751,0.18685494
-10.95377,-1.7336701,3.6828089,-0.65962976,-0.17811085,0.10807078
-13.286527,-2.339499,3.2961166,-0.65217716,-0.23719025,0.10861184
-15.935634,-1.8064060000000002,2.3717632,-0.68731064,-0.26700047,0.08199557
-14.554841,-0.7945015000000001,2.280726,-0.7304203,-0.18236946,-0.027122416
-13.025454,-0.026115952,1.4235541,-0.72670275,-0.048747044,-0.17030923
-11.581357,0.6943471999999999,0.32852277,-0.60798544,0.03693117,-0.30658454
-9.656092999999998,1.2099817,-0.22316833,-0.42486548,0.19078194,-0.39175659999999995
-7.8112745,1.3197126000000001,-0.07740933400000001,-0.38015017,0.35845572,-0.38910370000000005
-6.302554,1.2676915000000002,0.067430295,-0.43338272,0.35206783,-0.3433237
-5.224655599999999,0.7805385,0.20622696,-0.41369540000000005,0.22218041,-0.31936035
-4.913055,0.8362371999999999,0.31582394,-0.1086642,0.14126694,-0.18788469
-5.299852400000001,1.423353,0.35520378,0.07337364,0.37549013,-0.047350783
-5.3673405999999995,1.7416573,0.2795757,-0.040526547,0.38294268,0.00853466
-5.2440866999999995,1.4810244,0.12321519,0.04728097,0.08271115,0.086236715
-5.505869000000001,0.5408885,0.080090836,0.011623893,-0.44640285,0.23050563
-5.9398327,-0.033451784,0.122477785,-0.038938295,-0.41392228,0.40245548
-6.101958,-0.9148628000000001,-0.44327208,0.036110863,0.01563815,0.33855897
-7.380978999999999,-1.2118586999999998,-2.0304842,-0.05384341,0.16149531,0.1229759
-9.766246,-0.30126718,-2.4645433,-0.05703736,-0.04024729,0.15065682
-12.347242999999999,0.8655039000000001,-1.377796,-0.060231313,-0.19622737,0.23476423
-12.845246000000001,-0.19183302,-0.42648396,-0.018168878,-0.23240805,0.13521066
-11.385339,-1.0364594,-3.044936,0.20484929,-0.1940806,-0.061714843
-11.603681,0.15322891,-4.4730487,0.38957494,-0.11210250000000001,-0.22195353
-14.551086999999999,0.6452182,-0.9604292,0.47687632,-0.057281705999999995,-0.29328513
-17.483677,-1.7330765,2.7898579,0.47581166,-0.03227114,-0.28530896
-16.472767,-3.8932114,3.7846870000000004,0.44813073,-0.03705334,-0.22781783
-10.795254,-1.8451633,2.9663777000000002,0.403939,-0.14191271,-0.15700983
-10.098828999999999,0.770569,3.4621785000000003,0.3741288,-0.2499835,-0.13678145
-13.383070000000002,2.697997,3.5327212999999995,0.42151445,-0.32131509999999996,-0.19481365
-14.028432999999998,1.1881369,2.5156739,0.48911107,-0.35911894,-0.14371040000000002
-11.898675,-0.63132226,2.8373015,0.5609837,-0.29682815,-0.047891832999999995
-10.460094,-1.8149773,2.3519487,0.5625720000000001,-0.22443189,0.064420104
-9.478338,-2.0315185000000002,1.2592353,0.5439493000000001,-0.046635196,0.20867157
-8.774778,-1.5192455,0.49159664,0.5183977,0.13859660000000001,0.33642966
-7.926991,-0.60135645,0.3596091,0.54288465,0.30946434,0.41149628
-6.982075999999999,-0.03524265,0.13437217,0.5205270000000001,0.20354029999999998,0.37421605
-6.268796,-0.13425724,-0.052720323,0.34218925,0.16999507,0.23209389
-5.8262706,-0.831851,0.27915433,0.0052359877,0.43350488,0.007993608000000001
-6.030161,-1.6072277,0.570318,-0.14008012,0.5809503,-0.070249505
-6.4101114,-1.7810370999999998,0.42210734,0.017470745,0.079499744,0.04045673
-6.545824,-1.5531857,0.019268535,0.10531317,-0.059952057999999996,0.05003859
-6.730110000000001,-1.3465277,-0.30008924,0.19420278,-0.11637855,-0.1394518
-6.8959136,-1.0250056,-0.8248599,-0.0027401668,-0.21326178,-0.34438837
-7.06232,-0.19060719,-1.5776639,-0.09269444,0.10398672,-0.39390334
-6.987027,0.45270523,-2.417186,0.2655344,0.16680111,-0.21558307
-8.083199,0.25640944,-1.7838813000000002,0.28363347,0.13753195,-0.28424433
-9.3717575,-0.23984155,-1.9629101999999998,0.25169393,0.14018485,-0.25549874
-9.932872,-1.0379726999999999,-3.2242236,0.088278756,0.07630579,-0.08463102
-11.415841,-0.06325481,-4.0428967,-0.042655847999999996,0.024678955,0.06813765
-12.451716000000001,-0.91274625,-1.8550273999999998,-0.1629614,0.062465332,0.12189379
-12.13981,0.058380216,4.0301404000000005,-0.30190706,0.04330162,0.118176244
-12.899768,1.2268847,5.6839685,-0.42486548,-0.055693455,0.079325214
-15.504648999999999,3.7800806000000002,5.013909,-0.5329363,-0.15310028,0.05749114599999999
-15.28694,1.8723421999999998,4.2967205,-0.61810833,-0.21806143,0.05269149
-13.576923,-3.5807008999999996,2.7654562,-0.71764445,-0.25319493,0.093148224
-15.702497,-4.1571,2.4165827999999996,-0.8113338000000001,-0.28033477,0.124023095
-14.751701,-1.4909268999999998,1.9666356,-0.8810771000000001,-0.2558478,0.056426495
-13.128164000000002,0.45043552,1.2572815,-0.8485965,-0.15524703,-0.05215044
-10.6528,1.2774215,0.43956587,-0.77248275,-0.057822755999999996,-0.17725565
-8.629488,1.4113245,0.14369999,-0.7277674,-0.12969542,-0.32204816
-7.260426,1.2148561000000002,0.119441934,-0.6841166999999999,-0.12276646,-0.42531928
-5.937285,0.90426123,0.09779835,-0.6990218,-0.005131268,-0.42957790000000007
-5.2257565999999995,0.8459768,0.08700529,-0.5648758,0.014014994,-0.36835173
-5.278247400000001,1.2686396999999998,-0.013560758999999999,-0.14220943,0.20938715,-0.23261748
-5.638612999999999,1.5532143,-0.0728412,0.057403877,0.40315359999999995,-0.130411
-5.8468895,1.2706411,-0.26717377,0.11383037,0.27911305,-0.11869984
-5.8367476,0.83760667,-0.461966,-0.21406463,-0.09243264,-0.04469788
-5.976732,0.39936242,-0.44108856,-0.22738150000000001,-0.5699198000000001,0.1990897
-6.4062614,0.18517713,-0.7164313,-0.14753269,-0.28300515,0.38751546
-6.645192999999999,0.14751156,-0.77914023,-0.05597271,0.31689942,0.22622958
-7.4909300000000005,0.040471584,-0.68162924,-0.041591197,0.47980845,0.10752974
-8.786700999999999,-0.18440141,-1.612562,-0.056496307,0.006021386,0.18629645
-10.788905,-0.7452861999999999,-0.8120845,-0.08258898,-0.12437216,0.19216076
-12.166547999999999,-1.9166159999999999,-0.64801466,0.058468528,-0.15789993,0.03726278
-11.491325,-2.202292,-4.4083767,0.30066788,-0.043458696,-0.09368927
-11.885832,-0.50668967,-3.5546427000000005,0.5002986,0.0076270886,-0.15489797
-15.143545999999999,-0.78967476,1.8534473000000002,0.60196406,-0.015254176999999999,-0.16182692
-17.551298000000003,-2.4205856,5.47891,0.66425484,-0.052499502999999996,-0.11444124
-15.370373,-4.26052,6.411107,0.70790553,-0.07272787,-0.11231194
-10.026975,-0.19735885,4.8404818,0.7653966999999999,-0.17228144,-0.1389282
-12.126458999999999,3.7616358,3.0906942,0.8825083,-0.2515892,-0.18416715
-14.648128,2.1735234,2.2164752,0.98630303,-0.29738665,-0.20015436
-13.913634,-1.1850628,2.6312277,1.1012853,-0.32452652,-0.10592403
-11.781742,-2.8078334,2.7135596,1.1316191,-0.23031364,0.018622663
-10.1277895,-2.4070346000000002,1.8786151000000002,1.0374062,-0.11746066,0.17406169
-9.298886999999999,-1.9390926,1.0880306999999998,0.87025607,0.054995324000000005,0.31192523
-8.557164,-1.0753891000000002,0.80872303,0.78614867,0.34351570000000003,0.41893137
-7.3803563,-0.22664471,0.7166037,0.7898837,0.47980845,0.39444440000000003
-6.0667919999999995,-0.36860170000000003,0.71299326,0.580671,0.44465753,0.24007004
-5.837035,-1.0277254999999998,0.6067003000000001,0.18887953,0.3477743,0.021275562999999997
-6.037535,-2.003621,0.68959713,-0.009128072,0.5947733000000001,-0.03778638
-6.5445504,-2.4560869,0.36513492,0.13723524,0.39461893,0.14690436
-6.481937,-2.069299,0.09685025,0.3139673,-0.058904864,0.27307420000000004
-6.3462629999999995,-1.0275052,-0.2768176,0.39381608,-0.1052259,0.076113805
-6.529074,-0.3432902,-0.6172826,0.35922366,-0.21699679,-0.26403340000000003
-6.6240664,0.508538,-0.99156344,-0.01977458,0.044348817,-0.60630995
-6.2890505999999995,1.3696078999999999,-2.0072126,0.37358773,0.2684491,-0.26616272
-7.278134,1.4444411,-2.4537313,0.5183802,0.14229669,-0.24539329
-9.884978,0.57718456,-2.37342,0.52211523,0.05021312,-0.32311282
-10.78471,0.1538993,-2.841956,0.31450832,0.039025564,-0.2512576
-11.15289,0.8191904999999999,-4.017164,0.11967722,-0.0035430184000000003,-0.104335785
-12.210303,-0.49559018,-4.026597,-0.04852015,0.04754277,-0.0031939526
-13.078078,-1.4906586000000002,2.582635,-0.27689648,0.0251851,0.048432887
-12.506112,-0.077217795,6.013458999999999,-0.5121843,0.0033684855,0.058014743
-13.568487,2.3282654,6.20399,-0.6857224000000001,-0.0008901178999999999,0.058014743
-15.048898999999999,2.263143,5.465464599999999,-0.7841939,-0.115872405,0.09580112
-12.965214999999999,-2.6927586,3.0354645000000002,-0.9183399,-0.11267845,0.14583970000000002
-16.360193,-4.4544797,2.926021,-1.010441,-0.15524703,0.18097319
-14.888592000000001,-1.8782033999999999,2.365883,-1.0908133,-0.14620623,0.111247286
-13.426367,-0.37145559999999994,1.7804433000000002,-1.1387227,-0.037088245,-0.015969763
-11.519338000000001,0.717638,0.7918966,-1.1339405,0.12152728,-0.18311994
-9.669395,1.3421702,-0.17065870000000002,-1.0759082,0.18914133,-0.28639108
-8.072166000000001,1.7059932,-0.3104705,-1.0466391,0.33978070000000005,-0.31566024
-6.4245815,1.2602407,-0.11775642,-0.9438915000000001,0.45156905,-0.26722735
-5.7304835,0.45644978,0.034830846,-0.66442937,0.38397244,-0.20228367
-5.4250503,0.76287884,-0.115247294,-0.21992894,0.38236672,-0.059620447
-5.2793965,1.5798187,-0.27017128,0.090931654,0.6016848000000001,0.06012659
-5.610668,1.5963962,-0.021835119,0.07867944,0.4952197,-0.01277581
-5.650172,1.3655856000000002,0.0072209123,0.09944886,0.10716321,-0.040997785
-5.8185897,0.93054956,-0.020819979,0.07442084,-0.6859841999999999,0.16926204
-5.9512095,0.52148587,-0.27024794,-0.08152433,-0.51989865,0.50302136
-6.3857093,-0.2870169,-1.1834444,-0.009128072,-0.040282197,0.55040705
-6.886298700000001,-0.6980630999999999,-2.0542538,0.04886922,0.33232814,0.2501755
-8.373731,0.013005303000000001,-1.7664133000000002,0.03715806,0.043266714000000005,0.049480084
-10.234973,-0.37281552,-1.2025596,0.061645027000000005,-0.20371483,0.07609635599999999
-12.218884,-1.1066575,-1.5214864,0.15481070000000002,-0.25375342,0.028187068
-12.228442,-1.8975676,-4.179874,0.39009854,-0.18188076,-0.09477138
-11.373329,0.18966866,-5.0423803,0.65252626,-0.04399975,-0.20867157
-14.096772,-0.06580224,-0.6984365,0.8319286,-0.06424557,-0.25658086
-17.296642000000002,-2.9107458999999998,3.2207470000000002,0.93891734,-0.084997535,-0.22570598
-16.065966,-5.2174344,4.963458,0.98949695,-0.09936159,-0.15756832
-11.614914,-2.0956638,4.597423,1.0389946,-0.14887658,-0.11658800000000001
-10.433797,2.269167,4.0457506,1.0549643,-0.30963886,-0.07346091
-13.048878,3.1979832999999998,2.926557,1.0688046999999998,-0.47411868,-0.04845034
-14.378598,-0.3046382,2.6617491,1.0719987,-0.497541,-0.03939208
-13.297435,-2.8934407,3.0780528,1.028348,-0.42088616,0.0643852
-11.318301,-3.0092242000000002,2.5695433999999997,0.9889559000000001,-0.19306833,0.15755087
-10.073986,-2.0994658,1.3114861999999998,0.9133657,0.06935938400000001,0.26349235
-9.1438875,-1.7018178,0.6576776,0.855351,0.18114772,0.38432150000000004
-8.100791000000001,-0.77511805,0.38076425,0.85800385,0.34883896,0.3827158
-6.7119813,-0.3350829,0.042406099999999995,0.6493323000000001,0.33499850000000003,0.2826386
-6.0542370000000005,-0.661968,0.0996371,0.37519342,0.24289747,0.14264576
-6.2003699999999995,-0.8747168,0.020427328,0.069097586,0.408983,-0.015969763
-6.2388105000000005,-1.2803136999999998,-0.008963891,-0.011798426,0.38236672,0.050544735
-6.358444,-1.4689193,-0.24626759,0.054733526,-0.30592132,0.23631757
-6.7455006,-1.3154606000000002,-0.40804857,-0.016580628,-0.114807755,0.23153538
-6.896909700000001,-0.8485338,-0.5165920999999999,0.24849997,-0.06583382,0.087807514
-7.007511999999999,0.13236105,-0.7883819000000001,0.35496506,-0.09086184,-0.10965904
-6.450362,1.242514,-2.1027987,0.29054496,0.11246902,-0.33164746
-6.300217,1.4671093000000002,-2.9375515,0.5402143,0.07201228,-0.31513664
-8.764119,0.15344918,-1.8530546,0.43001422,0.045396015,-0.28586748
-10.504713,0.22627121,-2.4516432,0.24902357,0.12524483,-0.16503833
-11.030603999999999,0.82095265,-3.9005853999999998,-0.010192723,0.08585274,0.05745624
-12.635581,0.50119257,-4.631066000000001,-0.16563174,-0.0019547688000000002,0.18362609
-13.977579,-0.46662992,-1.4705857,-0.27742007,-0.022183135,0.193749
-12.456437,-0.6763045,2.4619863,-0.39826667,-0.09138544,0.15433946
-12.328415,-1.0283767,5.284098999999999,-0.4908913,-0.18455112,0.10164797
-13.224201,1.3676734,4.532271400000001,-0.5701991,-0.24523622,0.0643852
-13.692947,1.7072095,3.4187858,-0.66921157,-0.27824038,0.13624041
-13.625354000000002,-1.9284624,2.3009331000000004,-0.8161334,-0.26652923,0.20546016
-14.986582,-2.8295536,1.8865352,-0.9284628,-0.30538025,0.15275122
-13.772530999999999,-1.4475056,1.9240955000000002,-0.97104883,-0.23565435,0.015934857
-12.392531,0.14832558,1.2883391000000002,-0.90078187,-0.057334065,-0.12191125
-10.312248,1.5297034,0.29925609999999997,-0.78206456,0.033161256,-0.25286329999999996
-8.255352,1.686332,-0.031316157000000004,-0.73043776,0.022514747,-0.37369245
-6.969761,1.7202721999999997,0.10458831,-0.7458665,0.27057838,-0.41308454
-5.8551927,1.0230807,0.38493976,-0.75651294,0.30145326,-0.3976558
-5.626737599999999,0.5705095,0.43937433,-0.4823741,0.21415189999999998,-0.30236083
-5.8779087,1.1636587,0.20104589999999997,-0.11081095,0.4675388,-0.18046704
-6.0713124,1.786515,-0.097568505,-0.03415609,0.6352126,-0.10168288
-5.862404,1.5302396,0.053649273,-0.09058259,0.41750020000000004,-0.10807078
-5.854733,1.1385673,-0.34849042,-0.35833356,-0.058381262999999996,-0.014905112
-6.1408114000000005,0.83841115,-0.34187287,-0.24228661,-0.5097932,0.18629645
-6.4009943,0.3820763,-0.8406521,-0.04160865,-0.5007524,0.30393162
-6.488037599999999,-0.22507411,-0.99811393,0.10264281,0.33285174,0.086219266
-7.133907300000001,-0.39004418,-1.9615790000000002,0.023317598,0.51970667,-0.08464847
-9.301894,-0.48585054,-1.4205948,-0.12304571,0.07946484,-0.021834067999999998
-11.685917,-0.12423034,0.102845326,-0.26145032,-0.12705997,0.029251719
-11.844557,-0.9807991,-1.4288499,-0.19650662,-0.11534881,-0.04152138
-11.131065,-0.4151833,-4.7208586,0.04886922,-0.0051487214,-0.14001031
-12.168003,0.952672,-3.151545,0.24689427,0.06190683,-0.18952529999999998
-16.092845999999998,-0.73856336,2.6271574,0.35283577,0.07414158400000001,-0.15491542
-18.331464999999998,-4.148299,3.9294019999999996,0.40500364,0.07096509,-0.10220648
-15.71735,-5.7488136,5.018314,0.44226643,-0.0030194195,-0.07080801
-8.697196,-0.73185956,4.1498413,0.48911107,-0.15100588,-0.038344882000000004
-10.7179985,3.5090284,2.7294664,0.5481905,-0.32402040000000004,0.0
-14.605866,2.306909,2.0654395,0.62697464,-0.45656067,0.04150393
-14.692966,-1.5474492,1.864384,0.71481705,-0.441673,0.08300786
-12.141601,-3.4171101999999998,1.9055164,0.78241366,-0.30750957,0.121876344
-10.1017685,-3.1075206000000004,1.4687566,0.7962541,-0.19519763,0.17191494
-9.476375,-2.2120318,0.93274266,0.718011,-0.09299114,0.23205897
-8.831099499999999,-1.2059212,0.5335239,0.6647784999999999,0.07733554,0.30606094
-7.680513,-0.62463766,0.3455216,0.7057588,0.25035003,0.33747685
-6.594713700000001,-0.56060714,0.34484166,0.6173928000000001,0.25832617,0.29914942
-6.0928316,-0.6436189,0.30000305,0.3437775,0.23544492,0.18203785
-6.099641,-1.0691738000000002,0.29272467,0.0903906,0.32700488,0.09951867
-6.233716,-1.4728267,0.30710903,0.105836764,-0.03869395,0.15381587
-6.2658362,-1.5187092,0.100997,-0.027227135,-0.2952748,0.24324654
-6.385288200000001,-1.4345578,-0.39093485,0.06857399,-0.16858135,0.15755087
-6.6832705,-1.4191965,-0.82996434,0.12126548,0.0076096356,-0.08731882
-6.931606299999999,-1.3646184,-1.0475016,0.31237903,0.28708920000000004,-0.08677777
-6.8216076,-0.34894052,-1.0928572,0.67968357,0.13004448,-0.08358382
-7.8135443,0.7979108,-1.360347,0.5114687,0.0033335788,-0.30503118
-9.164361999999999,1.3156521,-2.0670578,0.29906216,-0.033353243,-0.31035444
-10.111854,0.5073601,-2.8464088,0.041416664,0.0070685832999999995,-0.037803832
-11.450327,0.87353885,-3.5093730000000005,-0.22312289999999999,-0.048799407,0.2091777
-12.496986,0.63596696,-3.5735087,-0.45043457,-0.06956882,0.29489082
-13.323866,-1.0088112,1.9466392,-0.5936214,-0.08340929,0.26986279999999996
-13.955716,-0.11416511,5.728472,-0.671882,-0.09829694,0.2006605
-14.265467999999998,-0.51719546,4.4028410000000004,-0.686246,-0.13503613,0.10803588
-13.557072,-0.7283736,3.31075,-0.73895496,-0.18774506,0.08194321
-12.332417999999999,-1.5137006000000002,2.0085723,-0.88001245,-0.16804029999999998,0.07663741
-15.156675,-1.7072381999999997,1.5151179,-1.052486,-0.18348646,0.04680973
-15.235856,-0.48011404,2.1477234,-1.1296818000000002,-0.17709856,-0.04845034
-13.263523000000001,-0.16025828,1.4948916,-1.0732553,-0.04082325,-0.14053391
-10.829452999999999,0.4830254,0.38759252,-0.887465,0.06297148,-0.19057249999999998
-8.810039999999999,1.0585436000000001,-0.08146032,-0.78899354,0.028902652,-0.2901261
-7.3837852,1.0347836,0.28971756,-0.7794116999999999,0.20189969,-0.41149628
-5.9330134,0.5183350999999999,0.49721822,-0.60320324,0.204029,-0.34601152
-5.112684,0.05953901,0.64057344,-0.28061405,-0.008883726,-0.22357668
-5.1990185,1.1464491,0.42952937,0.07548549,0.013997541,-0.18846065
-5.3843584,2.2534799999999997,-0.16054559,0.19313814,0.29400072,-0.13733996
-5.658513500000001,2.1891336,-0.11046847,0.1484228,-0.0056897732,-0.06387905
-5.912223,0.95473105,-0.27606103,-0.33065262,-0.39161697,0.062255893
-6.091146,-0.1579886,-0.09791327,-0.20928243,-0.4022635,0.38590974
-6.6937666,-0.56649685,-0.06249824,-0.10442304599999999,0.33552209999999993,0.2065248
-6.739563,-0.9517909,-1.0734355,-0.15126769,0.5761331999999999,-0.080389865
-6.8043594,-1.4175302,-2.2697225,-0.17681931,0.19818214,-0.04951499
-9.225108,-1.0059765999999999,-1.3215516,-0.12517501,-0.06637487,0.15700983
-10.859475999999999,-0.20170671,-0.38612726,-0.14168583,-0.19519763,0.2006605
-11.00717,-0.74446267,-0.16707696,-0.010192723,-0.2287254,0.07344346
-11.187674000000001,-1.0341324,-3.2746742,0.17769197,-0.13503613,-0.065484755
-12.937308,0.18661366,-2.3125307999999998,0.31876692,-0.11267845,-0.13788101
-16.483895999999998,-1.5386672,3.4874803999999995,0.3522947,-0.10735519999999998,-0.115523346
-19.463805999999998,-5.163479,4.583728,0.36454692,-0.12971286,-0.066549405
-10.933917,-1.5609142,2.5707982000000005,0.38903388,-0.20210913,-0.07239625599999999
-9.323194,2.7780783,3.2424195,0.43800783,-0.3005806,-0.08943067
-13.441660999999998,2.8642216,3.5725703,0.51253337,-0.31389746,-0.14959218
-15.692278,-0.02939122,2.8122485,0.5673541999999999,-0.30911526,-0.20123646
-14.11041,-2.3070720000000002,2.4765048,0.5854533000000001,-0.21968459,-0.12882276
-11.12372,-2.5407555,2.607621,0.60461694,-0.11267845,0.014887659
-10.022445,-1.5236125,1.8622387999999999,0.6280393,0.009738937,0.18575539
-9.808077,-1.1253132,0.93934107,0.64400905,0.020909045,0.34864697
-8.808297,-0.5264179,0.61162275,0.675425,0.18486528,0.4497888
-7.377694,-0.3209571,0.60247695,0.7307868000000001,0.29400072,0.44020694
-6.148492,-0.8885552999999999,0.55331916,0.61313415,0.33658674,0.30127874
-5.8248725,-1.3773077,0.6083761999999999,0.333131,0.3466922,0.073967054
-5.862299,-1.8138376,0.67236847,0.021188296000000002,0.6128549,-0.07080801
-6.340296299999999,-1.7841879,0.49679685,0.016929694,0.33178708,0.023928462999999997
-6.463712,-1.2451379999999999,0.17218141,-0.008063421,-0.039217547,0.14690436
-6.4187684,-1.1507011999999999,-0.08467812,0.025987952999999998,-0.07169812,0.03457497
-6.636458999999999,-1.1885008999999997,-0.37849456,0.04728097,-0.086062185,-0.12990485
-7.197813000000001,-0.9398582000000001,-0.48109087,0.027576202999999997,0.15772541,-0.29064968
-7.163269500000001,-0.5066227,-1.0389111,0.42523202,0.2881364,-0.1251052
-7.8886075,0.05500918,-0.90853256,0.41830307,0.22799236,-0.18472564
-9.124992,0.39108807,-1.084602,0.3091851,0.06668903,-0.25979227
-9.419775999999999,0.47740382,-2.8695369,0.15800466,0.06349508,-0.17620844
-10.212458,1.3484813999999998,-4.664585,-0.012863076000000001,-0.06263987,0.03031637
-11.577009,0.44623134,-4.3832564000000005,-0.19278906,-0.10416125,0.20491910000000002
-12.667396,-0.6153769,1.7141718000000001,-0.34290484,-0.1004437,0.25336945
-13.387139999999999,0.29385474,4.9308486,-0.47970375,-0.08819149,0.19001399
-14.515757999999998,1.241068,5.212321,-0.555294,-0.11215486,0.09206612
-13.736818,1.125428,4.1330338,-0.6452656999999999,-0.22713715,0.11761774
-12.671859,-2.0358663,2.8357882,-0.73895496,-0.33147293,0.13465215
-15.31454,-2.6066248,1.9818243999999998,-0.8523315,-0.35489523,0.08089601
-15.375592000000001,-0.59096557,1.9179183000000002,-0.9114283999999999,-0.27024677,0.013281955
-13.999597,0.30770278,1.8194879000000002,-0.87310094,-0.17388715,-0.044174284
-11.99676,0.57759637,0.719879,-0.7277674,-0.032306045,-0.14107497
-9.792601,0.87145114,0.14177506,-0.56115824,0.12897983,-0.24115214
-8.164036,0.7487339,0.3008075,-0.52761304,0.17156586,-0.37742746
-6.7016100000000005,0.3045712,0.39656597,-0.57445765,0.25406757,-0.42692497
-5.815669000000001,-0.27923095,0.5139297,-0.601615,0.1433439,-0.38168606
-5.7866800000000005,0.8428165000000001,0.19877620000000001,-0.25560346,0.07307693,-0.27415633
-5.2753935,1.752661,0.20967461,0.17343336,0.3094294,-0.16502088
-4.9517937000000005,1.4148774,0.38158786,0.20591395,0.2897421,-0.15224507
-5.378756,0.90148395,0.6228564,0.27138126,-0.0429351,-0.11020009
-5.5884404000000005,0.47989380000000004,0.7996059,0.064315386,-0.3064449,0.037768926
-5.478642,0.029688101,0.8843511000000001,0.1446878,-0.16645205,0.3108606
-5.723722,0.10227072,-0.3374771,0.2767045,0.1470789,0.29115582
-6.5976152,0.06558197,-1.5558002,0.24849997,0.35840335,0.1335875
-8.293658,0.07511089,-2.250856,0.15481070000000002,0.15559610000000001,0.08461356
-10.500978,-0.038058233,-1.7888805,0.03396411,-0.12599532,0.16926204
-12.282685,-0.6976321,0.08752244,-0.10068805,-0.20156808,0.16393878
-12.30137,-1.3990086000000002,-1.8285093000000001,0.027052603999999997,-0.13875368,0.08035496
-11.663565,-1.3050027,-4.35421,0.27563986,-0.0418879,-0.054314647
-13.578782,-0.48086107,-1.2392579,0.4651477,-0.03122394,-0.13733996
-17.010784,-2.7689133,3.9559205000000004,0.5322207,-0.032829642,-0.15172148
-16.295473,-3.3621103999999997,3.7433248,0.5449965,-0.09670869,-0.15917403
-11.512528,-0.81473726,4.140178,0.54925513,-0.14622368,-0.17088519
-9.440078999999999,1.8673241000000003,3.6666722000000003,0.5950350999999999,-0.21062633,-0.21718878
-12.547207,3.2289257,3.079039,0.7185345999999999,-0.31548572,-0.28000316
-15.451239999999999,0.88693684,2.190187,0.8574803,-0.3937463,-0.22731169
-14.458181,-1.4679904,2.1664939999999997,0.9048485000000001,-0.40599850000000004,-0.10220648
-11.310975,-1.9995509999999999,2.3811102,0.8015774,-0.30538025,0.07131415599999999
-9.691775999999999,-1.6011751,1.6201084,0.69991195,-0.010471975,0.23739968
-8.795397,-1.5865608,0.9654666,0.6701017,0.2684491,0.3300243
-8.006057,-0.6828934,0.5952464,0.69991195,0.53993505,0.36941640000000003
-6.585146400000001,-0.3287239,0.48347554,0.60994023,0.4787089,0.32841859999999995
-5.781766999999999,-0.62343097,0.49601156,0.3480361,0.31422907,0.21875957
-5.684687,-1.6836505000000002,0.87464976,0.044087015,0.35575047,0.054803338
-6.014034,-2.2696745,0.9252536,-0.03148574,0.29560640000000005,0.023945916
-6.1938667,-2.1129022,0.740201,0.07283259,-0.44591418,0.069184855
-6.362055000000001,-1.7188932000000001,0.35986766,0.13245304,-0.18294542,-0.1884432
-6.511462,-1.3202107,0.24012886,-0.110269904,0.065641835,-0.52009064
-6.616318700000001,-0.35888126,-0.23042755,-0.009669124,0.24235642,-0.21612412
-6.757395,0.70190334,-1.4848647,0.48698178,-0.052516956,0.030857421
-7.3337270000000006,1.1838944,-2.9083326,0.5231799,-0.15580554,-0.13840461
-9.404759,0.45042595,-2.487633,0.4023333,-0.18985692,-0.26136306
-11.062572,-0.039466022999999996,-2.2291933999999998,0.32035518,-0.11639601,-0.16769123
-10.949575,-0.55691046,-3.002712,0.12871803,-0.12651892,0.027122416
-11.588856,-0.46166912,-2.988366,-0.05703736,-0.09564404,0.1980076
-14.178232000000001,-0.14314453,1.7554478999999998,-0.21034709,-0.105749495,0.30234340000000004
-14.700857999999998,3.9552786,7.030334,-0.35726890000000006,-0.10841985,0.28637362
-14.726810999999998,2.673557,2.5296369,-0.4131718,-0.07754498,0.19533725
-11.364299,-2.7902315,2.5162772999999996,-0.40784854,-0.1749518,0.11868239
-12.100430000000001,-3.5161917000000003,4.552077,-0.42488295,-0.27396435,0.11761774
-15.33402,-2.1379932999999998,2.676976,-0.50579643,-0.31176817,0.14371040000000002
-14.934551999999998,-0.30310592,2.784878,-0.559029,-0.38468802,0.12241739
-13.227935999999998,0.90240335,2.314858,-0.5930978,-0.26970574,0.02979277
-11.83067,0.6838702,1.0127760000000001,-0.5542293,-0.07648033,-0.09262462
-10.360438,0.9109267,0.26118827,-0.47650978,0.06244788,-0.24647539999999998
-8.890293,0.92029285,0.17607917,-0.51590186,0.0022863813,-0.39020327
-6.9082007,0.3996114,0.10653239999999999,-0.60374427,0.13323843,-0.40830234
-5.683586,-0.13399869,0.56301093,-0.5861688,0.1513375,-0.30874875
-5.338821,0.27382007,0.6045168000000001,-0.33384657,0.17050122,-0.183661
-5.324589700000001,1.1050391000000002,0.31516314,0.020123646000000002,0.32381094,-0.09475392
-5.3591809999999995,1.7167575000000002,0.32375354,0.0132121425,0.324352,-0.029269172000000003
-5.512793,1.4247607,0.45950475,0.0925199,0.016667895,0.01860521
-5.549156,1.0358179,0.16919345,-0.09377654,-0.43099160000000003,0.20493656
-5.777563,0.95554507,-0.030042442000000003,-0.107617,-0.22766075,0.3864508
-6.281235700000001,0.8066736,-0.5626374,0.09997246,0.25940830000000004,0.21291271
-6.6568003,-0.05330451,-0.9229169,0.054192472,0.8087681,-0.0026529005
-7.6567050000000005,-0.6277596999999999,-1.4496508999999997,0.003630285,0.34245107,0.010088003
-9.57468,-0.14014699,-0.90839845,-0.040002946,-0.04612905,0.126676
-11.703318,0.72680306,-0.026805482999999998,-0.09377654,-0.14088298,0.105906576
-12.871382,-0.6901909,-1.1120971000000002,0.020123646000000002,-0.13023646,-0.07187266
-12.737516000000001,-0.94547987,-3.5851927000000003,0.22027801,-0.08498008,-0.2533869
-14.384958,-0.062153477,-0.9619328000000001,0.35548866,-0.10735519999999998,-0.3204599
-17.536607999999998,-2.5010310000000002,4.6222935,0.36613518,-0.14088298,-0.26668632
-16.25164,-4.4269266,5.8459606,0.3065147,-0.19411552,-0.20176005
-9.911172,-2.3227587000000005,4.0938935,0.21495475,-0.24628341,-0.15969762
-8.798548,1.2860981000000002,3.0290767999999995,0.15161675,-0.3128328,-0.13840461
-12.316195500000001,3.0128443,2.9443414,0.18407987,-0.34477234,-0.18524924
-14.838964,1.262702,2.865936,0.25062928,-0.37936476,-0.14107497
-14.023892000000002,-1.0093188,2.9007764,0.35602972,-0.3415784,-0.064420104
-11.089319,-2.0392373,2.6988112999999996,0.45930085,-0.2872812,0.052674035999999994
-9.684317,-1.8875216000000001,1.6837558999999997,0.5300914000000001,-0.20210913,0.26028094
-9.050474000000001,-1.5172438999999998,0.9031599,0.5551194,0.043807764000000006,0.39231512
-8.443487,-0.33684504,0.51030016,0.6328389,0.34458035,0.40667915
-7.241598,0.26435820000000004,0.2669439,0.49176398,0.55164623,0.27253315
-6.565179,-0.026403256,0.228177,0.086132,0.3770435,-0.010646508
-6.313088400000001,-0.650744,0.43794740000000004,-0.13795082,0.3733259,-0.11337659
-6.328957,-1.5148976,0.7249068000000001,-0.05544911,0.4648859,0.02766347
-6.2195706,-1.8659163,0.6716023,0.0813498,0.17743017,0.18736109
-6.0467,-1.9820542,0.6263901999999999,0.47420597,0.15613715,0.0675966
-6.260587999999999,-1.9814796000000001,0.44084916,0.46568874,-0.2894105,-0.23902284
-6.6085139999999996,-1.546434,0.19818243,-0.01870993,0.14974925,-0.40137336
-6.510189,-0.58146536,-0.347437,0.29693288,0.437205,0.07557276
-6.588441,0.81241965,-1.6384957999999998,0.35922366,0.31956979999999996,0.03885103
-8.626731,1.2651919,-2.0877151,0.2133665,0.06511823,-0.19429006
-11.15992,0.5067472,-2.330037,0.2075022,-0.11958996,-0.24167573
-12.088181,0.91718996,-2.8080156,0.15481070000000002,-0.12704252,-0.04152138
-11.775345,-0.8018086,-3.7891784,0.014800391999999999,-0.13555972,0.15861551
-12.142711,-2.2120602000000003,0.71679527,-0.15498523,-0.18453366,0.22514747
-11.511417999999999,-0.46138182,6.896124400000001,-0.21886429,-0.19624482,0.18310249
-12.058656,0.3482797,5.528183,-0.18746582,-0.23298400000000002,0.13838716
-12.899058,1.47909,4.5985336,-0.15872024,-0.29312804,0.15755087
-11.516196,-1.6859012,2.9264997999999998,-0.14966199,-0.29738665,0.26188666
-13.244992000000002,-1.6276454,3.3824419999999997,-0.20769417,-0.18188076,0.32309535
-17.30053,-1.2011806,2.5917618,-0.36100390000000004,-0.104684845,0.27839747
-15.986257,-0.522501,2.979517,-0.53080696,-0.078592174,0.14371040000000002
-13.839348000000001,-0.46082637,1.7182226999999999,-0.6899810000000001,-0.025377087000000003,-0.029286625
-12.094224,-0.0007565677,0.49319598,-0.86776024,0.16413076,-0.21132447
-10.201089999999999,0.7531871,0.34864366,-0.8858768,0.42868778,-0.36250487
-8.20515,-0.22849302,0.61521405,-0.6213023,0.5207887999999999,-0.39444440000000003
-6.94194,-0.52595824,0.8935639999999999,-0.38123226,0.42336452,-0.36569884
-6.0915384,0.33736217,0.51239747,-0.079395026,0.46595055,-0.3124663
-5.4071703,1.2588808999999999,0.6194854000000001,-0.14168583,0.64161795,-0.2602984
-4.588756,2.0461134999999997,-0.045863327,-0.5207015,0.21575761,-0.28532642
-4.852836,1.9225727,-0.35145923,-0.53454196,-0.26597074,-0.06387905
-5.247410299999999,1.9675357,-0.71441066,-0.22898720000000003,-0.84355253,0.35131732
-5.0570235,1.4484153999999998,-0.8083111999999999,-0.23802800000000002,0.18168877,0.084089965
-4.6676397000000005,-0.07805097,-1.7265641999999999,-0.053319807999999996,0.55911624,-0.27361527
-4.453589,-1.5086056,-1.4611428999999998,-0.073548175,0.14549065,-0.17619099
-5.6231084000000005,-1.7355281000000002,-1.2969966,-0.103358395,-0.15152949,0.061732296
-7.913267599999999,-1.3302472,-0.39344394,-0.12678072,-0.2771583,0.10857693
-9.801182,0.21193475,-0.5679238,-0.008063421,-0.35700709999999997,-0.010105456
-10.645407,1.1981926,-4.133953,0.21123719,-0.23670155,-0.12988740000000001
-13.242923999999999,1.2840774,-1.5411572,0.38955748,-0.14672983,-0.16128588
-19.701118,-1.5152233,6.3372793,0.41990876,-0.14088298,-0.14851007
-21.985447,-7.247689,5.6771407,0.43587852,-0.14781193,-0.16130333
-9.212371000000001,-2.7344944,3.066436,0.47366490000000006,-0.18292795,-0.16447982
-9.918747,1.6340523,4.5878267,0.5061455,-0.28354618,-0.14798647
-15.759737,1.051179,4.0689363,0.5466022,-0.37564722,-0.1272345
-17.394306,0.52415776,3.3139582,0.61048126,-0.37137115,-0.17086773
-14.130329000000001,-0.85537165,2.6853173,0.6919183000000001,-0.30962140000000005,-0.16182692
-11.514578,-1.8536101999999999,2.5098608,0.7339808000000001,-0.21593213,-0.0697259
-10.438184,-2.090052,1.8881824,0.7158817,-0.11159635,0.06866125
-10.172475,-1.6193518999999998,1.075236,0.6008994000000001,-0.100949846,0.20280726
-8.985536,-0.86277455,0.73715556,0.4619712,0.04860742,0.26614526
-7.3836699999999995,-0.6670149999999999,0.8506216000000001,0.44600144,0.32276374,0.23261748
-6.4011474,-0.5997188,0.80202883,0.40500364,0.31477013,0.15702727
-5.9923425,-0.7512909000000001,0.89161026,0.09358455,0.13430308,0.0015882496
-5.467657599999999,-1.1911249,0.97587657,0.015341444,0.19446458,-0.0031939526
-5.070335,-1.8522694,1.1118194,0.16280429999999999,0.21629865,0.21025981
-5.534226,-2.0081894,1.0895342,0.2937389,0.19872318,0.37847465
-6.2241583,-1.4351323,0.6693709,0.36135298,0.10077531,0.30127874
-6.964513,-0.90112007,0.14616123,0.43107888,-0.23937191,0.13786356
-7.1996899999999995,-0.21483651,-0.35396835,0.17769197,0.094387405,-0.08943067
-6.718551,0.98209196,-0.86575294,0.17982127,0.37439057,-0.02448697
-7.4031687,1.7386884999999999,-1.3522738,0.2628815,0.4494572,-0.03939208
-9.643078,1.1958846,-2.0095015,0.17610373,0.19392353,-0.21612412
-11.599993,-0.85074604,-1.8393407,0.105836764,0.037437312,-0.30555478
-12.5265875,-0.33328244,-2.1453290000000003,0.028117253999999998,0.008150687,-0.14318681
-12.197528,-0.51000327,-3.7320337,-0.08098327,-0.054105207,0.058555797
-12.413525,-1.621813,-1.0080259,-0.18427186,-0.077003926,0.17299703
-13.034024,-1.631208,3.383754,-0.26145032,-0.089779735,0.19268435
-13.409493,-0.6935332,5.597232,-0.3114889,-0.0061959187,0.16500343
-12.751144,1.065439,5.876519999999999,-0.30190706,-0.048781954,0.15170401
-11.2707615,-0.9635417,3.9091663,-0.34662238,-0.1105317,0.1910961
-11.907283999999999,-1.2618208999999998,1.729466,-0.49087384,-0.21273819,0.27572712
-14.505434,-2.1429446,2.1764922,-0.70593333,-0.22870794,0.2086541
-14.681398000000002,-2.008534,2.938509,-0.86350167,-0.14034192,0.09901253
-12.687766,-1.5741302,2.3496599999999996,-0.92952746,-0.00832522,-0.020751963999999998
-10.606983999999999,-0.9101893,1.4545542,-0.88001245,0.034766957,-0.118176244
-8.862271,0.024392126,1.2173462,-0.72511446,-0.032288592000000005,-0.22357668
-7.0680285000000005,0.39243838,1.4732577,-0.5233544,0.29349455,-0.27946213
-5.636152,0.4591983,1.4509437,-0.37536797,0.45690975,-0.31672490000000003
-4.7500480000000005,1.0035152,1.2476089,-0.17947221,0.19713494,-0.25816910000000004
-5.0471015,1.7652067,0.7243991999999999,0.09786061,-0.012583823999999999,-0.13733996
-6.002474299999999,2.1507497000000004,0.5159218,0.18887953,0.25675538,-0.063338
-6.326208599999999,1.9724487000000002,0.30136293,0.012147492,-0.07646287,-0.10964158
-6.460552,1.1572613999999999,-0.22854093,-0.39879027,-0.8158715999999999,0.035116023999999996
-6.426229,0.37330392,-0.11723927,-0.39613740000000003,-0.7115358,0.39337975
-6.8106422,-0.45075154,0.48683697,-0.22151719,0.18648843,0.21823597
-7.158059599999999,-1.4756135,0.70155853,-0.27262044,0.5011015,-0.112835534
-6.699915,-1.5868194,-2.4479947,-0.41530108,0.05553638,-0.1932254
-8.098808,-1.2507979999999999,-2.9360093999999997,-0.3785619,-0.03174754,-0.0654673
-11.63897,-1.0523857,-1.6284498,-0.35194564,-0.06633996,-0.033527777
-12.887481,-0.6703669,-1.8009856,-0.2508038,-0.09936159,-0.0675966
-12.123203,-0.321254,-3.8012642999999997,-0.103358395,-0.08710938,-0.1410575
-13.276251,0.58266246,-2.7021153,-0.03626794,-0.12756611,-0.17299703
-18.843603,-1.6681648,4.4778465999999995,-0.06607816,-0.09349729,-0.13308136
-18.982495999999998,-5.212138700000001,5.5044135999999995,-0.111334555,-0.113725655,-0.05588544
-11.191858,-1.4239466,5.547892,-0.12463396,-0.090844385,-0.0031939526
-8.714704,2.8931343999999997,3.9686766,-0.111334555,-0.16163494,0.00052359875
-12.469011,1.9799759999999997,4.1257076,-0.012322023999999999,-0.18186331,-0.03939208
