accx,accy,accz,gyrx,gyry,gyrz
-5.4443855,-0.17401057,-0.35077927,0.7017095999999999,-0.24869196,0.119240895
-5.052551,-0.21913649,-0.15732779,0.6841516,-0.3019245,0.1953547
-4.960537,-0.39317579999999996,-0.075857885,0.70544463,-0.27371999999999996,0.29171434
-5.0292697,-0.41543230000000003,0.16209704,0.7490953,-0.22207569,0.37262779999999995
-5.3283057000000005,-0.68604416,0.018789696,0.7884874,-0.0980526,0.3981794
-6.3344830000000005,-1.1490158000000001,-0.25015578,0.9039933000000001,0.10262536,0.33642966
-8.680197999999999,-1.3883976,-0.5585481,1.0833957,0.22877775,0.25497514
-10.777911,-1.093633,-1.7811328000000002,1.220212,0.4411843,0.21186551
-12.678735000000001,-0.37037343,-1.6037991000000003,1.3783040000000002,0.68073076,0.22570598
-16.073673,2.2797492000000004,0.92286897,1.219671,0.2671052,0.23209389
-15.962449,3.067097,1.6772915000000002,0.62240183,-0.21835814,0.05108579
-15.304389000000002,2.8829347999999997,3.7462937999999997,0.18802431,-0.24336872,-0.12243485
-13.228338,-1.3285905,5.433334400000001,0.18856537,0.07014478,-0.28691468
-14.014613,-1.5561258,6.122117,0.1603434,0.07546803,-0.41308454
-14.79858,0.011511322,5.461404,0.23006929999999998,-0.045343652000000005,-0.41200240000000005
-12.632669,0.23863487,3.7158778,0.26413813,-0.17205456,-0.41360813
-10.531519,0.5059906,2.1178150000000002,0.10817551,-0.20451768,-0.3646342
-8.606112,0.77559686,0.8559271,-0.11698942,-0.26626742,-0.30129617
-7.4018564,0.83907187,0.7396647,-0.32033774,-0.29660127,-0.20758946
-6.815057,0.9773130999999999,0.77161294,-0.46565384,-0.34824553,-0.10752974
-5.934862,0.9871485000000001,0.6414545,-0.5428498,-0.40838959999999996,-0.05429719400000001
-4.9572330000000004,0.9604579,0.27612808,-0.6487738000000001,-0.42809436,-0.037245326
-4.5261235,0.6877966999999999,0.34765723,-0.78824306,-0.4169068,-0.022881266
-4.970372,0.45922706,0.80854106,-0.8888613000000001,-0.35463345,-0.020228365
-5.832830400000001,0.3043509,0.5419802,-0.9575225,-0.24816836,-0.04576253
-7.090936,-0.100671396,0.05844725,-1.0022379000000001,-0.12573352,-0.098995075
-7.803392999999999,-0.5453992,-0.34880647,-1.0160784,-0.05014331,-0.16502088
-8.470054,-0.543072,-0.26590005,-1.0261837,-0.03630285,-0.20493656
-8.763563000000001,-0.49449840000000006,0.15993267,-1.0261837,-0.05227261,-0.21823597
-9.2481985,-0.34609622,-0.26606283,-1.0214014999999999,0.1366942,-0.18736109
-10.7792425,-0.46913904,-1.2352836,-0.9947853000000001,0.35866517,-0.101124376
-12.3248625,-0.50836563,-1.6521428,-0.8989666999999999,0.45661303,-0.027122416
-14.11515,-1.2863759,2.9262507,-0.6977477,0.032358404,0.0015882496
-15.198345000000002,-4.734716000000001,7.9483957,-0.22504276,-0.4882384,-0.022340214
-12.012323,-5.205636,2.7249079,-0.22451915,-0.19013616,-0.21025981
-10.273587,-0.90949976,1.3513545,-0.34480724,0.42041490000000004,-0.076113805
-10.022195,-0.54377115,6.1810529999999995,0.03843215,0.30756193,0.046844635
-12.417565,-3.8840082000000002,6.196165000000001,0.18854792,0.24422392,0.04897394
-15.351851000000002,-3.8406347999999997,6.356950299999999,0.13533282,-0.019268433999999997,0.1969604
-13.121451,-1.6129642,4.6213746,0.18004817,-0.035761796,0.28106782
-11.446544,0.056493584000000006,3.0217412,0.21731095,-0.06291912,0.15437438
-9.930191,-0.7809024,1.9893327,0.22528710000000002,-0.08740609,0.07452556
-7.6653523,-1.4269729,1.2492944,0.25935593,-0.11402236,-0.05162684
-5.352869999999999,-1.5094101,0.9563208000000001,0.34505159999999996,-0.11508701,-0.17086773
-4.1592264,-1.2532208999999999,0.6455917,0.43556437,-0.0421497,-0.3300243
-4.0490260000000005,-0.7548822,0.13822204,0.43449970000000004,-0.11189306,-0.40454987
-4.2456574,-0.90930825,9.576806999999999e-05,0.36742672,-0.07408923,-0.3864508
-5.6176014,-1.1127291000000001,0.019469649,0.32375857,-0.081541784,-0.31513664
-6.6350603,-1.1905503,-0.12062945,0.29236009999999996,-0.12412781,-0.18416715
-7.4267563999999995,-1.6361879,0.28051424,0.3253643,-0.11508701,-0.046303585
-7.7964787,-1.5796176000000002,0.42974964,0.37327355,-0.056531213,0.07665486
-7.9543905,-1.0651803,-0.28707436,0.41214204,0.24474752,0.15650368
-9.144797,-1.2460383,-0.8328853,0.51965433,0.56360173,0.17086773
-10.647637,-2.1613512000000004,-1.0778408000000002,0.7421838000000001,0.8202,0.18044959
-11.434764999999999,-3.2753923,-0.52826625,1.0700788,1.0081022,0.19641936
-14.982005,-2.1365857000000004,4.923024,1.3399765,0.5242271,0.29810223
-14.987070000000001,1.0918996,6.030812,1.3027138,0.19631463,0.3295007
-15.815005,1.0878007,4.502737000000001,1.0977597,0.31820843,0.1948311
-14.607897,-1.1343153,3.4348655,0.83587307,0.42095596,-0.004782202
-14.814286,-0.557351,5.7289133,0.8140390000000001,0.17076302,-0.076113805
-13.242512,-0.99902374,4.5941095,0.82362086,-0.0421497,-0.20654227
-11.538309,-0.5196375,2.7716618,0.7416428,-0.020333085,-0.24858725
-10.085068,0.33631828,1.7913897,0.5579991999999999,-0.048014008,-0.24219935
-9.029263,0.8196789000000001,1.1039186,0.37700856,-0.055466562999999997,-0.16393878
-7.688040299999999,1.1101242,0.5371535,0.21783455,-0.10337585,-0.097930424
-6.326830999999999,1.3439325,0.28867367,0.033649947,-0.20078267,-0.045238934
-5.3539233,1.2522345,0.20558532,-0.17606881,-0.31204742,0.010646508
-4.681574299999999,0.82712007,0.22994871,-0.38526398,-0.3956138,0.059620447
-4.5263724000000005,0.5804311,-0.02387498,-0.5848946999999999,-0.4232947,0.0628144
-5.023064,0.34793496,-0.07414364,-0.7350105,-0.3689975,-0.005305801
-5.9977339999999995,0.004644751,-0.31829473,-0.87074476,-0.28862509999999997,-0.100059725
-6.7578545,-0.021576546000000002,-0.5164675999999999,-1.0421536,-0.21142918,-0.18736109
-7.150561,0.121874444,-0.9125068999999999,-1.2141033,-0.008080875,-0.22622958
-7.9141392999999995,0.43462422,-1.4466628000000001,-1.3844476000000001,0.20109683,-0.2586927
-9.782976,0.14264654,-1.1928966,-1.5404102,0.35440657,-0.28797933
-12.49145,-0.18760964,-1.1245662,-1.4781368000000001,0.47525316,-0.14638077
-13.036907000000001,-0.39380786,-2.3575322999999995,-1.3844476000000001,0.5353972,0.00052359875
-13.49194,-1.5668805000000001,1.1481538,-1.2699888000000001,0.43799037,0.12189379
-12.956779,-4.153605000000001,3.4420097000000003,-0.85531604,0.36027086,0.18524924
-12.608794999999999,-5.512324,5.5526995999999995,-0.56360173,0.37889352,0.35824627
-12.314346,-4.487462,2.50196,-0.6280044,0.81007713,0.53232545
-15.01335,-3.0376291,6.7643857,-0.39379865,0.7595149,0.7564257
-16.9414,-3.273477,7.7930884,-0.13187708,0.33098423,0.60791564
-16.808598,-2.900518,5.222118,-0.23888321,-0.123604216,0.58927554
-11.787172,-1.8699578000000001,2.6720154,-0.41987386,-0.12786283,0.5376486999999999
-8.706869000000001,-0.5351424,1.2148371,-0.4757593,-0.019792033,0.37529814
-6.984661999999999,-1.149169,0.82440025,-0.32990214,-0.02724459,0.13521066
-5.2784677,-1.9490908,1.1986332,-0.066409774,-0.10922269999999999,-0.07983136
-3.8491774,-2.1182172,1.4071298,0.24445081,-0.26413813,-0.2735978
-2.9096255,-2.0122595000000003,1.5437717,0.54202944,-0.31150636,-0.43596579999999996
-3.6637129999999996,-1.9114254000000002,1.1915463,0.8007221,-0.2848901,-0.51687926
-4.947091,-2.132707,0.74739313,0.99450606,-0.2582738,-0.52965504
-7.394042,-1.7515022,-0.28199866,1.0243163,-0.13850933,-0.4551295
-9.308110000000001,-0.8859408000000001,-1.1729865,0.88962924,-0.08686504,-0.29276153
-9.684718,-0.53289187,-1.6123991000000002,0.69055694,0.023317598,-0.10910053
-9.592925,-0.7114227,-1.8330392,0.5223247,0.19312069,0.01436406
-9.221459,-1.3953216,-1.8279346999999997,0.43128829999999996,0.32194343,0.0675966
-8.822403,-1.7006781000000002,-1.7619599999999997,0.49410272,0.50186944,0.114964835
-9.636959,-1.4406104,-0.89351606,0.7219554,0.60992277,0.1868375
-10.449933999999999,-2.0563032999999997,-0.43514135,0.99291784,0.53167963,0.16769123
-10.67858,-2.8013406,-1.3195021,1.2138242,0.43744934,0.08888962
-10.074149,-2.0697012,-2.9350615,1.3548816000000001,0.49015826,0.07826056
-11.687016999999999,-0.36135209999999995,-0.18345329999999999,1.2484165,0.35707690000000003,0.033004176
-13.326739000000002,1.431656,1.0664061000000002,0.9636312,0.25274113,0.14318681
-15.151792000000002,1.9362962,2.4973536,0.80180424,0.06482153,0.14585717
-15.147146,1.8073733,1.6990501,0.6926688,0.048328165,0.14692181
-14.779322,-0.1278408,3.3959547999999997,0.41053635,-0.13158037,0.110182635
-13.852985,-1.9216438999999998,4.6649389999999995,0.37753215,-0.11986921,0.11337659
-12.18915,-1.3424863999999999,5.177011,0.64317125,-0.23911011,0.033527777
-10.125874000000001,-0.77407414,3.0757446,0.75815356,-0.22101104,0.0026529005
-8.977576,-0.27771783,1.9544252,0.7602829000000001,-0.14596188,0.029269172000000003
-8.054171,0.30092242,0.5418270000000001,0.6479535,-0.09060004,0.086236715
-7.671549000000001,0.7871369,0.21188685,0.52925366,-0.11773991,0.15702727
-7.127768,1.0695473999999998,-0.074890636,0.43341762,-0.20823523,0.17938495
-6.6758966,1.1232541999999999,-0.4264935,0.29874802,-0.35463345,0.21453588
-6.4643445,1.1350336,-0.5177126,0.10391690599999999,-0.47174504,0.2773328
-6.617152000000001,0.9081494000000001,-0.25702235,-0.086638145,-0.5233719,0.26775095
-7.4251759999999996,0.484098,-0.06322608,-0.23143066,-0.5334948,0.20174260000000002
-7.670725999999999,-0.20717506,-0.099847786,-0.37781143,-0.54998815,0.10007718
-7.5851855,-0.12964123,-0.60543615,-0.5401794,-0.4834562,0.015428711000000001
-7.749351,-0.090481676,-0.79187745,-0.68017226,-0.4036074,-0.07770206
-8.336686,0.15280752,-1.0312497999999999,-0.80953604,-0.33653438,-0.16659167
-9.264986,0.41539398,-0.48671246,-0.91280717,-0.35728636,-0.1868375
-9.323653,0.5633078,-0.6872411999999999,-0.9718866,-0.27530822,-0.16128588
-9.917328999999999,0.12060073,-0.687653,-0.9798802,-0.06717772,-0.10060078
-10.930939,-1.0231956,-1.1450988000000002,-0.8308290999999999,0.07333873,-0.15383331
-13.580917999999999,-2.0929346,3.3763704,-0.69348913,-0.28595474,-0.17139134
-13.324135,-3.7262397000000003,3.110432,-0.39006364,-0.29447195,-0.25975734
-12.030155,-2.0835683,1.0864121,-0.5002462999999999,-0.09377654,-0.26401594
-10.992881,-1.8957098000000001,4.3807089999999995,-0.36505306,0.048328165,-0.20174260000000002
-12.671954,-3.0594257999999996,6.482770400000001,0.012356931000000002,0.145735,-0.04576253
-13.426251999999998,-2.5184417000000003,4.488266,0.12733923,0.18566813,0.11550589
-11.416310000000001,-0.41695502,3.1551842999999997,-0.020629792,0.14840534,0.23048818
-10.164794,0.88241655,2.1624237999999996,-0.25272366,0.11859512,0.21505947
-9.224917,0.6196098000000001,1.1735227,-0.47842965,0.06855653,0.18950784
-7.982259,-0.49850154,0.92431504,-0.6487738000000001,0.05736897,0.15756832
-6.590461299999999,-1.5458020000000001,1.3830824,-0.63812727,-0.022985986,0.08304276
-5.5931425,-2.026098,1.3345854,-0.55401987,-0.029914944,-0.0063704518
-5.8569355000000005,-2.0191643,1.0719703,-0.40336305,-0.025115287000000003,-0.07770206
-6.646025999999999,-1.942119,0.82561654,-0.23088960000000003,-0.05333726,-0.09154252
-7.456588000000001,-2.0527596000000004,0.78108436,-0.039252456,-0.08634144,-0.040439277999999995
-7.846584299999999,-2.0079594,0.49266925,0.18109536,-0.11667526,0.04897394
-7.743844,-2.1062272,0.36921462,0.43130577,-0.074630275,0.14585717
-7.5732045,-2.1661875,0.61691874,0.65701175,-0.0016929694,0.21825342
-7.3233933,-1.8733096000000002,0.26174372,0.84065527,0.18406242,0.24380504
-7.450660000000001,-1.7722933999999997,-1.1048571000000003,1.0003529,0.4976108,0.17088519
-10.04292,-2.0566769,-0.6998346999999999,1.1126823000000001,0.68073076,0.031939525
-12.267947,-0.9685599,-0.57649505,1.1403632,0.6493148,0.073984504
-14.403115,0.2823817,1.5968751,0.8534311,0.4284085,0.0090408055
-16.232132,2.457265,3.6038290999999996,0.49783772,0.19683823,-0.011693706000000002
-16.424885,2.7281258,2.9016669999999998,0.101787604,0.11911872,-0.035639625
-15.175025,1.6437918999999999,3.5005050000000004,-0.14091788,-0.014992378999999998,-0.021799162
-13.363829999999998,1.1471098999999998,4.968141,-0.0898321,-0.22261675,-0.06279694
-12.122351,0.040452432,4.4095163,0.013962634,-0.31630602,-0.17725565
-10.846261,-0.17989074,2.6389465,-0.014765485,-0.29714229999999997,-0.22142991
-9.393094999999999,0.51606536,1.7000843,-0.065327674,-0.25986207,-0.18469074
-8.684192,0.9473090000000001,0.9014457,-0.14519393,-0.30353022,-0.075031705
-7.536248,0.84697276,0.5592471999999999,-0.15049975,-0.36313320000000004,0.009581857
-6.3034253,0.48898217,0.39242882,-0.13826498,-0.41957715,0.056426495
-5.3006096,0.4197227,0.31716466,-0.16116370000000002,-0.48078585,0.09049532
-4.837724,0.6891566,0.29455385,-0.21439624,-0.5153957,0.10592403
-5.333946,0.83378553,0.29653627,-0.32192597,-0.5052728,0.09953613
-6.490997,0.8579478000000001,0.028567616,-0.45766023,-0.5031435000000001,0.046844635
-7.847954,0.86353105,-0.23435403,-0.6306746999999999,-0.44512877,-0.014887659
-8.691671000000001,0.48692316,-0.032589875,-0.76373863,-0.35302776,-0.08035496
-8.445499,-0.21078552,0.7779815,-0.7839844,-0.21568778,-0.14638077
-7.549971,-0.3712449,0.58045024,-0.76215035,-0.016074482,-0.22781783
-7.1327868,0.14123875,-1.1953194999999999,-0.87235045,0.23729496,-0.2560398
-9.298925,1.1527411,-0.42673293,-1.0517353999999999,0.31236157,-0.14264576
-10.799085,1.4624741,-1.3707571000000003,-1.1012503999999999,0.47099456,-0.049480084
-11.9142475,0.33899024,-0.95136,-1.0820693000000001,0.49176398,-0.0074351025
-11.22237,-1.6189113000000002,0.2104216,-0.93942344,0.39912188,-0.126676
-12.691769,-3.3561153,4.8616757,-0.93303555,0.06482153,-0.13891076
-18.453770000000002,-10.623610000000001,15.808569,-0.024888393999999998,-0.7160736999999999,-0.023404865
-15.281289000000001,-4.870696499999999,2.481619,0.40681880000000004,0.28520426,0.13733996
-12.214853,-0.13714944,5.6194215,0.5079606,0.029164452,-0.1282817
-10.252508,-1.3194348999999999,3.4879879999999996,0.23061036,-0.05014331,-0.049480084
-9.54392,-0.21484609,2.1175373,-0.034470253,0.40976840000000003,0.044191737
-9.904658999999999,-0.637528,0.8033696,-0.19840904,0.48431140000000006,-0.0047647487
-9.03249,-0.8845809000000001,1.3034035,-0.276146,0.45928338,-0.070249505
-8.623062,-1.9863064,1.8209243999999998,-0.1638166,0.46141270000000006,-0.24804619
-7.6247373,-2.7573447,1.8457571,0.035255652,0.40179226,-0.39762092
-6.8608437,-2.5852877999999997,1.7134345000000002,0.28490755,0.37144098,-0.48174578
-6.780637700000001,-1.746484,1.174059,0.45526913,0.25647613,-0.48705158
-6.4278949999999995,-1.915505,1.1531625,0.56065214,0.060562924000000004,-0.45938809999999997
-6.3311696,-2.3556072999999995,1.1798817,0.6900159,-0.020856684,-0.419455
-6.848499,-2.4343092,0.7178391,0.8300088,-0.0011693706,-0.34918803
-7.5820536999999995,-1.9972526999999998,0.20725168,0.9434028,0.048851766,-0.26666886
-8.117349,-1.5870302,-0.2920543,1.0269692,0.122853726,-0.17193238
-8.500967999999999,-1.5152615,-0.6445383000000001,1.0402860999999999,0.19950859,-0.09632472
-8.715181,-1.6621124,-0.9075460999999999,1.0328335,0.20270254,0.0021293017
-8.503055999999999,-1.7369933000000002,-1.1730535,1.03601,0.1542522,0.116029486
-8.106145,-1.9334519000000001,-1.2546575,1.0748785,0.09037315,0.15969762
-8.138802,-2.1343925,-1.5698686000000002,1.1014948,0.13295919,0.13999286
-9.150917,-2.154935,-3.1706220000000003,1.0850013,0.41402700000000003,0.13360496
-11.800561,-1.5411476,-1.7219194,0.9157219000000001,0.35868259999999996,0.15172148
-13.49871,0.108246654,1.3670796,0.60323817,0.109536864,0.20813051
-14.811509,0.70919126,3.2225474999999997,0.33389893,0.16118115,0.16236798
-15.481233999999999,0.3187257,3.2986736000000003,0.32164672,0.35601225,0.10273008
-15.766757,-0.58524823,4.496425599999999,0.24977407,0.34588936,0.09155997
-15.408106,-0.7486765000000001,5.265022,0.3179117,0.110601515,0.17832029
-13.591145499999998,-0.7480444,4.283725,0.35093334,-0.102293745,0.17833774
-12.061863,-0.58204955,2.8011682,0.24445081,-0.004886922,0.21399482
-10.517403,-0.62992406,1.7758273,0.08529424,0.028623400000000004,0.2549926
-9.6611595,-0.040289626,0.99930143,-0.092484996,0.028099801,0.3263242
-8.532782000000001,0.27716234,0.7716321,-0.25218263,-0.05173156,0.35239944
-7.209219500000001,0.44286984,0.71367323,-0.39324012,-0.18533652,0.32951817
-5.785368,0.4983866,0.5249335,-0.53059757,-0.3519631,0.27415633
-4.5606093,0.48160803,0.20994276,-0.7110470999999999,-0.45736352,0.21293017
-4.3124839999999995,0.42243296,0.14458105,-0.8457341999999999,-0.48026225,0.15224507
-4.955327,0.44314757,0.08749370000000001,-0.94952893,-0.45896924,0.03832743
-6.083724,-0.22380039999999998,0.20340179,-0.99637353,-0.38283798,-0.10379473
-7.110357799999999,-0.51236874,0.40781873,-1.0224662,-0.3471809,-0.21984167
-7.1082600000000005,-0.35098037,-0.70626074,-1.1028386000000001,-0.26146778,-0.28159142
-6.9755163,0.20044257,-3.0078452,-1.3173745000000001,-0.013404128999999999,-0.27305678
-8.398046,0.5318191999999999,-2.4598315,-1.4424622,0.24474752,-0.17299703
-11.0449505,0.50215983,-2.0157168000000003,-1.3929472999999999,0.43160248,-0.04096288
-12.330024,-0.7702434,-2.5787852000000004,-1.2391139,0.5077163,0.04045673
-12.533406,-2.2626548,0.2160815,-0.94794065,0.47099456,0.05003859
-11.416224,-3.9260886,0.30462867,-0.61096996,0.47099456,-0.061191242
-14.456372,-6.658475999999999,9.956221000000001,-0.15849335,-0.066636674,-0.03778638
-20.928656,-15.64676,11.257192,0.84384924,-0.048014008,0.07878416
-15.84045,-0.81113636,2.2258127,0.90453434,-0.10922269999999999,0.43011895
-14.3221245,1.3747698,6.1209393,0.7357959,-0.85021967,0.17088519
-10.100045,0.21543986,2.844302,0.28438395,-0.8475668,0.30449015
-7.977968,1.5589509,1.563749,0.037926003,-0.48343876,0.14426892
-6.2975645,0.2951572,1.14462,-0.10899581,-0.38124973,0.027157322999999997
-4.569783999999999,-0.6758161,1.6163352,-0.12761848,-0.33705798,-0.14158110000000002
-3.983741,-1.4543722,1.8659546000000002,-0.004642576,-0.22952825,-0.2943498
-4.6316404,-1.4954183,1.7050356,0.20827013,-0.1576556,-0.4322308
-5.5587807,-1.7292168999999997,1.1026927,0.35410985,-0.081541784,-0.44765950000000004
-7.549856699999999,-1.3767234,0.2734753,0.33335790000000004,0.10847221,-0.35931093
-9.167532000000001,-0.7103309,-0.3745872,0.2290221,0.17182766,-0.22090632
-9.460094,-0.7479774,-0.40988734,0.13161528,0.266058,-0.075031705
-9.369516,-1.1404538999999998,-0.6872411999999999,0.10606366,0.35868259999999996,0.085172065
-8.750376,-1.4433684,-1.1899087,0.09859365,0.4076391,0.1969604
-8.063107,-1.5360527,-1.3340299999999998,0.042708207000000005,0.4055098,0.24539329
-7.6258490000000005,-1.7100251,-0.6211708,0.030997047000000003,0.31981415,0.25445154
-8.207764,-1.8097771,0.8779921,0.16353735,0.19844393,0.22942352
-8.70458,-1.5296842,0.18277337,0.26734954,0.10208431,0.17460273
-9.653182000000001,-1.1599332,-1.3936648,0.28064895,0.16011651,0.085172065
-10.299559,-0.96592635,-3.0781197999999996,0.32749358,0.31342623,0.03832743
-11.180625,-1.4883986,-2.9536404999999997,0.41587704,0.5322207,-0.04841543400000001
-15.479778,-0.80585957,1.053554,0.20188223,0.25806439999999997,-0.13199925
-15.692048000000002,1.015017,2.6517124,-0.16861627,-0.18109536,0.04790929
-17.713396,0.9069427,6.2949114,-0.34000759999999997,-0.35780996,0.085172065
-14.192981,-2.3054533,2.5174744,-0.51621604,-0.04321435,0.20441297
-12.783744,-3.2532987999999996,4.5576596,-0.4927937,0.084002696,0.12669346
-12.524931,-3.281081,5.717315,-0.09194394,-0.14009757,0.06600835
-11.4266815,-2.5196388,4.1253242,0.14437364,-0.18268362,-0.01701696
-9.393075999999999,-1.1084676000000002,1.9672294,0.18004817,-0.19545943,-0.011152654
-7.5133686,-0.46962744,1.1940746000000002,0.10232865,-0.18268362,0.011711158999999999
-6.6421665999999995,0.004185064699999999,0.90726835,0.04855506,-0.11667526,0.096342176
-5.8682739999999995,0.37238455,0.8071812,0.049637165,-0.17043139999999998,0.13201670000000001
-5.359171400000001,0.63870597,0.49303317,0.029391345,-0.22474605,0.14692181
-4.9583344,0.46102747,0.41716570000000003,-0.055222217000000004,-0.26466173,0.12616985
-5.333726,0.16127342,0.66008145,-0.0946143,-0.25188592,0.03726278
-6.2602150000000005,-0.24129723,0.6374035,-0.05841617,-0.18055432,-0.07929031
-7.3475847000000005,-0.60625976,0.26346752,-0.019024088999999998,-0.074630275,-0.20598376
-7.982278,-0.6444042,-0.112814784,-0.017959438,0.020647245,-0.3215071
-8.077164999999999,-0.56910175,-0.04621767,-0.031258848,0.053651422000000004,-0.42371359999999997
-7.9475717999999995,-0.3906667,0.11226889999999999,-0.052028265,0.052045718,-0.49504519
-7.635444000000001,-0.097922854,-1.0624893,-0.1010022,0.13828243,-0.48759264
-8.587743,0.33500630000000003,-1.8974049,-0.24420647,0.3512126,-0.38325685
-11.565315,0.26388893,-2.1189165,-0.32883748,0.52529174,-0.1932254
-13.518208999999999,0.17078320000000002,-3.0935287000000002,-0.3719471,0.49815187,-0.09154252
-14.043257,-0.85195273,0.011731588000000001,-0.40071014,0.1537286,-0.037245326
-10.273902,-2.3774998,-2.4118996,-0.41188025,0.2075022,-0.19481365
-10.921985000000001,-1.5100038999999998,1.6417903000000003,-0.5907416,0.17769197,-0.16339773
-20.726326,-13.6193495,22.034174,0.28918362,-0.98808324,-0.03138102
-24.398542000000003,-10.052553999999999,6.7769027,0.842261,-0.3040538,0.43011895
-16.709929000000002,3.9136386,4.0790973,0.17100736,-1.2627631000000001,0.10381218
-11.095123,0.3636505,1.97717,-0.41294490000000006,-1.2984377,0.13894565
-5.216755,1.1990353999999999,0.6882085,-0.65835565,-0.8965407,0.044715334
-2.0918715,-0.109309666,-0.09680236,-0.5236685999999999,-0.56328756,-0.084089965
-1.3947278,-1.9034861,0.7839191,-0.44436082,-0.35409240000000003,-0.1367989
-1.8782129,-2.4714289000000003,1.207147,-0.31340876,-0.062378067999999995,-0.23633504
-4.5661163,-1.7069126000000001,1.0692983999999999,-0.17872171,-0.003281219,-0.3678107
-5.756312,-1.5508969,0.39856753,-0.116430916,0.10742501,-0.35131732
-8.9075985,-1.9118754,0.4533469,-0.14465289,0.26232300000000003,-0.25071654
-10.886453999999999,-2.2995255,0.7165271,-0.14784685,0.12870058,-0.056409042
-10.679883,-2.3805547000000002,0.5637386999999999,-0.13187708,0.054716073,0.114458695
-9.559118,-2.009463,0.32373437,-0.081297435,0.025446901,0.25605726
-8.178938,-1.8924153000000001,0.1716068,-0.008901179,0.028099801,0.33112386
-7.311901600000001,-2.2634208,0.36532643,0.15023795,0.02703515,0.3550698
-7.113623599999999,-2.4567862000000003,0.88233995,0.32964033,0.034487706,0.33217105
-7.280327000000001,-1.8454409999999999,1.2176911,0.44514623,0.10529571,0.28799677
-7.558398700000001,-1.4937999,0.06773675,0.43982297,0.35388297,0.21879448
-8.441514999999999,-1.4136611000000001,-1.7200998,0.46111599999999997,0.7893252,0.14851007
-10.111031,-2.2344031,-2.2357345,0.61974895,1.1246902,0.11658800000000001
-12.344552,-2.9585630000000003,0.12658623,0.76986474,1.1065911,0.06122615
-15.551844000000001,-0.70461357,2.862115,0.55428165,0.62697464,0.11765265
-15.899146,0.64818704,4.3268876,0.31738812,0.40339795,0.033004176
-16.004559,-0.14324988,3.1067355,0.14597934,0.40605086,0.034068827
-13.632210999999998,-2.1152197999999998,3.4384568,-0.09567895,0.34430109999999997,-0.033527777
-14.372862,-1.8128799999999998,5.0178447,-0.027000242999999997,0.3437775,0.0069289569999999995
-13.881648,-2.0760794,3.547709,0.11829842,0.11114257,-0.019146262
-11.160227,-1.5117947,1.8344851999999998,0.10126399999999999,0.02703515,0.017575465
-8.982824,-0.9773514000000001,0.7288429,0.026214845,-0.10709339999999999,0.07293731
-7.548286,-0.29285878,0.9151118,-0.017941985,-0.28647834,0.16397369
-5.788164599999999,0.23221841,0.96177953,-0.024347342999999997,-0.51750755,0.22305308
-4.273411,0.5319629,0.6403532,-0.10845476,-0.6468714,0.21186551
-3.6110212999999995,0.6604166,0.50341445,-0.25802946,-0.67614055,0.20708331
-4.054255,0.7106278,0.6633471,-0.38367572,-0.5920506,0.15063937
-5.557947599999999,0.41582495,0.36981797,-0.41880920000000005,-0.47652724,0.014905112
-7.272129,-0.7604751000000001,-0.23690148,-0.40816268,-0.34876913,-0.21024236
-8.689976,-1.5333903999999998,-0.12130941,-0.34693655,-0.31363568,-0.43116614
-8.459146,-1.5279125,-0.7233745,-0.34480724,-0.2694614,-0.5642475
-8.132519,-0.7370598,-2.1168096000000003,-0.45392522,-0.03309144,-0.59032273
-9.337110000000001,0.06422207,-1.8660120999999998,-0.5981941,0.21334904,-0.51579714
-11.66592,-0.009375694,-1.9565511999999998,-0.7733205,0.41830307,-0.38165113
-12.381834,0.05773857,-2.8091743,-0.89577276,0.45128977,-0.27199212
-12.82139,-0.57323897,0.62752986,-0.9724101999999999,0.22506021,-0.17564994
-12.950447,-5.160376,5.967854,-0.62906903,-0.33067009999999997,-0.26508059999999994
-13.027388,-6.9276990000000005,6.134576999999999,-0.33044317,-0.34611624,-0.22301817
-12.081141,-4.056994,2.7559466,-0.16753416,-0.086323984,-0.0665145
-11.653288,-1.9495313000000003,4.2935886,0.00012217305000000001,0.12765338,0.15810938
-13.401361999999999,-4.0463443,6.4655414,0.110845864,-0.011815879,0.21825342
-15.873126000000001,-5.260846,6.1021304,0.09435249999999999,-0.17097245,0.38433895
-13.25905,-3.043107,4.3897305,0.18804178,-0.31628856,0.53551936
-10.037834,-0.6174742,3.0922456,0.19230038,-0.23591615,0.38168606
-8.294979,-0.6801161,1.9594147000000002,0.18217747,-0.22526965,0.24593434
-6.5505934,-1.2645311000000001,1.546683,0.19069467,-0.24549802,0.1277581
-4.541542,-1.5258151000000002,1.3354571000000002,0.24179791,-0.3147003,0.011187561
-2.9569634999999996,-2.0651522,1.2004048999999999,0.3040887,-0.30511847,-0.13412856
-2.5312742999999998,-1.9426074,0.8899918,0.40414843,-0.25136232,-0.24537584
-3.8999917999999996,-1.6099473999999998,0.41262633,0.45046946,-0.14222687,-0.25815165
-5.9960294,-1.3194255,-0.29622020000000004,0.43291146,-0.04373795,-0.16926204
-7.2477465,-0.8652261999999998,-0.64635783,0.43556437,0.12604767,-0.05215044
-7.8637743,-0.8266604,-0.7065001999999999,0.50743705,0.31768483,0.018640116
-8.2594595,-1.6492889,-0.8772834,0.637848,0.5428672,0.03354523
-8.334983,-2.3553486,-0.39122215,0.82203263,0.69937086,0.026616272000000003
-8.3585415,-2.1752662999999997,-0.4383879,1.0216634,0.9218829,-0.026057765
-9.572507,-2.0817582999999997,-0.89133257,1.1584623,1.1076558,-0.11337659
-11.432580999999999,-1.7739023,-1.4899693,1.2191473999999998,1.1710112,-0.1335875
-12.194733,-2.101094,-2.1419199,1.3937501,1.0139664000000002,0.0026703537
-15.554170999999998,-2.1322472,2.2210913,1.1978544,0.48589966,0.0
-16.654985,0.07021715,4.4405355,0.7485717,-0.06291912,0.20334831
-18.69815,0.8487158000000001,5.881261,0.50530773,-0.2976659,0.250734
-13.084033999999999,-2.9022322,2.1074145,0.31632346,-0.2545388,0.13575171
-12.921037,-2.7849352,5.098663,0.16514306,0.073879786,0.044715334
-14.633945,-2.1633239,4.942791000000001,0.3088709,-0.021921335,-0.0058293995
-12.651977,-0.9846107,2.713636,0.29450685,-0.2284636,0.0
-10.095458,-0.41336369999999995,1.3118501,0.08316494,-0.26092672,0.009581857
-8.706074000000001,-0.23436362,0.6140074000000001,-0.1590344,-0.4232947,0.09848893
-7.1755466,0.604421,0.20403388,-0.33629003,-0.56648153,0.16875589
-5.9732842,1.2750656999999999,-0.08246588,-0.49385837,-0.68200487,0.20814797
-4.9465832999999995,1.3996598999999998,-0.10417651,-0.68017226,-0.7714354999999999,0.2400875
-4.036978700000001,0.8622956,-0.039370254,-0.8813913000000001,-0.72352624,0.19217820000000002
-3.8271312999999996,0.08308837599999999,0.06955635,-0.9889209999999999,-0.5105960999999999,0.09155997
-4.6512345999999996,-0.8817366,0.07793605,-0.98837996,-0.23804545,-0.0659909
-5.795883,-1.3904181999999998,0.0038307228000000002,-0.94633496,-0.047996555,-0.23898794
-7.160253,-1.6605991000000002,-0.23352087,-0.85688686,0.0946492,-0.3182957
-7.971437,-1.6644968999999998,0.10297939999999998,-0.79089594,0.16065755,-0.31298990000000004
-8.540884,-1.5799528,0.1007097,-0.70359457,0.25806439999999997,-0.22888248
-9.087116,-1.2078364,-1.0240383,-0.6466270000000001,0.43001422,-0.08196066
-10.478779,-0.7051498,-2.9662435,-0.7376634,0.5987526999999999,0.058555797
-12.516437,-0.039820362000000005,-3.5141902000000003,-0.9878563,0.62378067,0.19856611
-13.234937,0.63148504,-3.5130506,-1.2971287,0.48270569999999996,0.25232226
-14.209644,-2.1169243,4.712689,-1.3328031999999999,-0.066636674,0.17620844
-14.479470000000001,-8.178019,7.817873,-0.8638158000000001,-0.37271506,0.09210102
-15.288003,-8.390653,6.7163773,-0.35332444,-0.11667526,0.20069541
-12.711181,-1.6724552,3.5233934000000002,0.2311514,0.11540117,0.4375715
-11.718621,-0.39250544,4.992447,0.38287288,-0.09803514,0.47111672
-13.383377,-1.9479033,4.934287,0.19868828,-0.2162114,0.5866226
-12.810952,-2.661912,3.8539083,0.23062779999999997,-0.35302776,0.54935986
-9.954219,-1.4067180000000001,3.1008169999999997,0.44834018,-0.3274761,0.42798963
-8.452126,-0.78095984,1.9701216000000001,0.6389127,-0.35248670000000004,0.22464132
-6.651552000000001,-1.5435419,0.40842208,0.7368606,-0.4126482,0.042062435
-4.115355,-2.098853,-0.35010892,0.75017744,-0.4131718,-0.16446237
-3.6586849999999997,-1.2658911,-0.70071584,0.69533914,-0.24123941,-0.31298990000000004
-4.161065,0.34331894,-0.5622639,0.5617342,-0.14487977,-0.31031954
-5.275949,-0.15237658,-0.32748848,0.4605924,0.008936086,-0.26453954
-7.17887,-0.63029754,-0.24141213,0.394043,0.057910025,-0.16819738
-8.071304,-0.49506345,-0.66345245,0.29715976,0.15746361,-0.01754056
-8.513456,-0.39205533,-0.69871426,0.21092305,0.33471924,0.15330972
-8.598775999999999,-0.88131523,-0.24200589999999997,0.21092305,0.51677454,0.2502104
-8.71161,-1.9467063000000002,0.73524016,0.33122858,0.6370800999999999,0.24380504
-9.095064,-3.3801436000000002,0.9721225,0.6037792,0.8180706999999999,0.16556193
-10.294196000000001,-4.290026,0.9092029,1.0573204999999999,0.9453052,0.119240895
-10.861564999999999,-3.9606705,-0.32763213,1.6120036,0.90004885,0.10487683
-12.622059,-0.97367394,0.6018736,1.9148880000000001,0.64879125,0.042586032
-14.944684,1.5965493999999998,2.8679376,1.6146738999999999,0.30757937,-0.011676253000000001
-16.391691,1.9589167,3.1019661,1.0823485000000002,0.12233013,-0.028187068
-14.064623000000001,0.5709595999999999,1.6575633,0.75602424,0.24422392,-0.16446237
-14.280216000000001,-0.41045237,3.6652162000000006,0.66874033,0.2617994,-0.28635618
-16.382841,0.41536528,4.668262,0.729408,-0.09005899,-0.24485224
-14.017954999999999,0.55754256,2.5567298,0.5904798000000001,-0.31735322,-0.15329227
-10.797447,0.30286652,0.8242279,0.33335790000000004,-0.24497442,-0.1309346
-8.937345,-0.05230852,0.105086304,0.10658725,-0.26837927,-0.06332055
-7.5853767,0.48537174,-0.35161245,-0.06106907,-0.33279938,0.019704766999999998
-6.0831017,0.91298574,-0.36118928,-0.22076669999999998,-0.47066295,0.059620447
-4.7056026,1.2847478,-0.49622226,-0.3884405,-0.5739340999999999,0.08784242
-3.7686267,1.2073385,-0.758282,-0.5992588000000001,-0.6138672,0.07559021
-3.3483486000000005,0.89169645,-0.5415876000000001,-0.8345466,-0.5915095,0.010105456
-3.9481822999999996,0.3307063,-0.41955990000000004,-0.9979793,-0.42223006,-0.13678145
-5.1525426,0.25233927,-0.6337739,-1.0889982,-0.22207569,-0.28637362
-6.305886699999999,0.17372328,-0.6740826999999999,-1.1757585,-0.072483525,-0.42797219999999997
-6.761245,-0.09437943,-0.63897413,-1.2518897,0.10423106,-0.48918090000000003
-7.1512413,0.02573288,-1.1016966000000001,-1.2800943,0.36559412,-0.51579714
-9.273700999999999,0.018157626,-1.2050495,-1.2949993999999998,0.6429444000000001,-0.53337264
-12.200114,0.30586404,-2.893795,-1.3998588,0.8313876,-0.48279297
-13.494334,0.50878704,-3.6078799,-1.5153822,0.75312704,-0.3954916
-13.971584,-1.6582433,1.2106329,-1.3833654,0.4023333,-0.42369613
-14.28421,-6.1006846,4.904235,-1.1395603,0.047804568,-0.4455302
-17.18374,-9.684460000000001,8.372485000000001,-0.75841534,-0.08047713,-0.29647908
-19.06639,-7.895789999999999,6.804637400000001,-0.21118484,-0.08313003,-0.022340214
-16.953104,-2.4528117000000003,5.402928,-0.02008874,-0.6266430000000001,0.19217820000000002
-14.417107000000001,-0.914767,2.8564646000000002,-0.30593875,-0.7565304,0.53447217
-12.3777075,-1.0627669,1.8726966,-0.6184225,-0.6521946,0.53766614
-10.254442,-1.378591,1.067747,-0.6902776999999999,-0.70010394,0.5956809000000001
-8.013517,-2.155174,0.6707787,-0.7216762,-0.6447421,0.56799996
-5.8479339999999995,-2.9548566000000003,0.59306294,-0.6253340000000001,-0.6788109,0.37051594
-3.5711627,-3.004091,0.08507078,-0.47682396,-0.6197140999999999,0.13681635
-2.6565773,-2.1611118,-0.59354174,-0.38739327,-0.4259476,-0.036180675
-2.6640952,-1.2803806999999998,-0.31834263,-0.39536944,-0.25295058,-0.101124376
-3.8207436,-1.2471780000000001,0.37170458,-0.31286773,-0.17310175,-0.11548844
-4.793747,-1.5400846000000001,0.45333729999999994,-0.18350391,-0.14381513,-0.06332055
-5.6926455,-2.0720188999999998,0.54811895,-0.04244641,-0.07195993,0.04738569
-5.5325594,-2.0312023,0.01724783,0.026214845,0.0951728,0.19270179999999998
-5.9191084,-1.5830078,-1.4051187,0.07358308,0.5114512999999999,0.31674236
-8.198627,-1.4821162,-1.0110905000000001,0.25617942,0.7595149,0.3721042
-10.777422,-2.0350811,-0.72356606,0.51328385,0.891008,0.37103954
-12.092701,-2.218544,-1.8291606,0.8316145,0.9724451,0.41095522
-13.68992,-2.6269946,-0.9423674000000001,1.1047062,0.9979966999999998,0.30874875
-16.218054000000002,-0.19763656,2.7357392000000003,0.7475245,0.27190486,0.13894565
-15.301123,0.9089921999999999,3.7981233999999997,0.21146409,0.13084733,-0.11974704
-15.905869500000001,0.13636415,2.2433862999999996,-0.11697197,0.2122844,-0.19268435
-15.507838000000001,-2.563893,2.5160475,-0.3879169,0.03981096,-0.10431833
-14.621610999999998,-2.7401638,5.271314,-0.46457174,-0.07728318,-0.013823007
-13.04772,-2.0582664,4.487692,-0.36184165,-0.18055432,-0.0090233525
-10.881158000000001,-2.2284078999999997,2.8008714,-0.33522537,-0.21036454,0.02289872
-9.543623,-2.174433,1.6157031000000002,-0.33416075,-0.11934561,0.050562188
-9.263463,-0.9674586,0.94620764,-0.37727037,-0.15606734,0.14800392
-7.995992,-0.30825827,0.84120756,-0.41133919999999996,-0.2502802,0.25179866
-6.469889599999999,-0.45932280000000003,0.9315264000000001,-0.36503562,-0.3311937,0.25871015
-5.304325,-0.28005457,0.576677,-0.31658527,-0.38974947,0.20017181
-4.852252,-0.11303505,0.46722367,-0.28251645,-0.45575783,0.1272345
-4.717429599999999,-0.23732285,0.31573772,-0.20905554,-0.5638286,-0.009546951
-4.992810700000001,-0.29102957,-0.21016303,-0.1702045,-0.5915095,-0.19587829999999998
-5.0568123,-0.14549084,-0.2289527,-0.17498670000000002,-0.5600936,-0.4040088
-5.367292400000001,-0.29892087,-0.23317608,-0.13611823,-0.44671702,-0.6163979
-5.7867184,-0.6463099,0.58591866,-0.066392325,-0.42542399999999997,-0.82773983
-6.309076,-0.81195045,1.189832,-0.039252456,-0.3147003,-0.9437868
-7.599665600000001,-0.2577023,-0.74929893,-0.10206685,-0.050125855999999996,-0.9267523999999999
-10.503036999999999,0.86816627,-2.4019396,-0.30967376,0.17182766,-0.80644685
-13.516245000000001,1.9016378,-3.6409872,-0.5215218,0.38901645,-0.6126804
-14.958322,1.5352196000000002,-4.161496,-0.8207061999999999,0.45502478,-0.41839033
-16.646328,-3.299373,6.9886174,-0.72860515,-0.7059508000000001,-0.41039672
-14.6827,-6.477704,1.8057644,-0.8302706,-0.47918016,-0.39495057
-13.7207,-4.5154834,2.7374537,-1.030966,-0.3232175,-0.14636332
-11.751066999999999,-2.5030517999999997,3.2071099999999997,-0.8643569,0.14788175,0.044715334
-13.199129000000001,-5.5964084000000005,8.255696,-0.49331729999999996,-0.25295058,0.14107497
-14.327105,-7.9571295,7.2887830000000005,-0.22556636,-0.43607049999999997,0.27574456
-12.665585499999999,-5.791660299999999,5.983072,0.18219492,-0.48450340000000003,0.3678456
-10.627469,-3.288934,4.30736,0.5042430999999999,-0.22739895,0.1969604
-10.114764,-2.998843,3.4841094,0.7054621,-0.003281219,0.115523346
-9.574479,-3.7173809999999996,3.178073,1.0312451999999999,0.09410815,0.06122615
-7.689975,-3.854636,2.4878726,1.3804507,0.11753047,0.007993608000000001
-5.3138924,-3.9387012,1.6632711,1.6758826,0.24581218,-0.037768926
-4.255023,-3.03195,1.0750923000000001,1.8973299,0.3634648,-0.09951867
-5.2066417000000005,-1.0436611999999998,0.5401989,1.9527093,0.38262853,-0.20385446
-5.230708,0.10862014,-0.4544195,1.6790766,0.10848966,-0.25975734
-4.2065644,0.12888466,-0.25866956,1.3543581,0.03822271,-0.26401594
-4.906859,-0.58185804,0.5583661999999999,1.159527,-0.047996555,-0.29328513
-5.60745,-1.0606792,0.9475005,1.1148291000000001,-0.10868165,-0.33320079999999996
-6.412333,-0.4467772,0.49980396,1.1573976000000001,0.08559094,-0.3172485
-7.281495,-0.029429527,-0.6773866999999999,1.2308586000000001,0.350689,-0.20863666
-7.674872,-0.8306730999999999,-1.1293928999999998,1.2329879,0.58971184,-0.12348204
-8.362535000000001,-1.4145614,-1.5181537,1.23407,0.8159414,-0.0031590459999999996
-9.405296,-1.0903386,-1.5770607,1.3415997,0.9703158000000002,0.16875589
-10.430071,-0.9957868000000001,-1.0092231,1.4762692,0.92507684,0.26244515
-14.177113,-1.8840259999999998,3.6674477999999997,1.2931494,0.15746361,0.16662659
-17.606153,2.6029665,7.316412,0.9168040000000001,-0.22685789999999997,0.32313025
-13.35002,1.0048752,0.8934681999999999,0.6575528,0.36133552,0.13095206
-14.223482999999998,-3.7488217000000006,3.4175025999999997,0.029932396,0.38636354,-0.08461356
-15.260632000000001,-3.3385227,4.558742,-0.06958628,0.49176398,0.013316861999999999
-14.152548000000001,-2.138338,2.9198630000000003,-0.16488126,0.4220206,0.1277581
-12.8954,-2.3791566000000004,1.8065497,-0.32457888,0.32461378,0.12456415
-12.448527,-1.911952,1.35372,-0.45179594,0.27351055,0.17887879999999998
-11.851059,-0.8905568000000001,1.2899958999999999,-0.54016197,0.2096315,0.2571219
-9.838991,-0.39770559999999994,0.45206359999999995,-0.66579074,0.21069615,0.2736327
-7.8485759999999996,-0.5667171,0.4300465,-0.81058323,0.08026769,0.22411773
-5.345869,-0.7940418,0.77157456,-0.87552696,-0.08206538,0.14161602
-3.6931135999999998,-0.59746826,0.65935355,-0.9197011999999999,-0.12891002,0.054838244
-3.2642834,-0.28355965,0.42482716,-0.97347486,-0.16458455,-0.040421825
-3.9000301,0.02252465,0.39634573,-1.0139315,-0.27370253,-0.073967054
-4.4528989999999995,-0.34805948,0.14862247,-0.9963561,-0.30990067,-0.10643018
-5.252572,-1.1055848999999998,-0.2910679,-0.9686752000000001,-0.2742436,-0.14156365
-6.1254115,-1.1016584999999999,-0.45405558,-0.8861735000000001,-0.15606734,-0.08939576
-7.1842136,-0.030157363,-1.560828,-0.69188344,0.10316641,0.007993608000000001
-8.586863000000001,0.38378096,-2.651626,-0.5561316999999999,0.38849282,0.07667231599999999
-11.597044,-1.654106,1.3783419,-0.38952258,0.26073474,0.017575465
-16.797873000000003,-6.386715000000001,6.006832,-0.27930504,-0.35993925,-0.07075564599999999
-20.156765,-11.9495945,3.353252,-0.33733723,-0.29712486,-0.10910053
-19.059206,-5.798996,5.175804,0.06986553,-0.6042679,0.03354523
-14.899070000000002,-2.191135,5.9762626,0.07253588,-1.1999488,-0.04202753
-11.2098255,-1.9415156999999998,4.072891,-0.056269415,-0.9997944,0.36519268
-11.766697,-1.433715,1.5738908,-0.328279,-0.38388517,0.2736327
-11.252116000000001,-1.989007,0.4581161,-0.5353623000000001,-0.40891320000000003,0.30876620000000005
-9.118107,-2.0856082,1.0023565,-0.6684435999999999,-0.269985,0.27415633
-7.0010576,-2.230515,1.5459936,-0.5736897,-0.10177015,0.16077973
-5.225134400000001,-2.0500206999999997,0.63091046,-0.47361255,-0.06555457,0.06070255
-3.1526656,-1.6827120999999998,0.20158220000000002,-0.44751987,-0.15233234,0.0021467548999999997
-1.9347831000000002,-1.5328541,0.20801783,-0.45605454,-0.18640116,-0.026581364
-2.744052,-1.4365401000000002,0.4431859,-0.39856339,-0.22685789999999997,-0.04415683
-4.2172904,-1.7714602,0.36652356,-0.2558827,-0.2944545,0.0021467548999999997
-5.5965996,-2.4003403,0.68731785,-0.019006636,-0.32320008,0.06443755
-6.868562700000001,-2.9304645000000002,0.8862664000000001,0.23755677,-0.31735322,0.099571034
-7.8472740000000005,-3.1462014,0.74214506,0.37276742,-0.16350244,0.13416345
-8.277569999999999,-2.7971652000000002,-0.46529874,0.51916564,0.19420278,0.20923007
-9.502481,-2.4616703999999996,-1.3721649999999999,0.75391245,0.48272318,0.16610299
-11.175309,-2.3586047000000003,-2.5590758,0.9402263000000001,0.7627263000000001,0.094230324
-12.000955000000001,-2.9210794,-3.069855,1.0775663,1.0208955,0.07667231599999999
-14.504639000000001,-2.6700041000000003,1.342065,0.9833533999999999,0.7728318000000001,0.06443755
-15.078558,-0.028768727999999997,6.5027475,0.7592357,0.1484228,0.101700336
-15.403882000000001,0.87503284,5.8541584,0.6517059000000001,0.42894956,-0.04202753
-15.906578,-1.4780651000000002,4.1400347,0.36266196,0.46249480000000004,-0.2677335
-16.078032,-2.993298,6.333966,0.1614255,0.11807153,-0.29274407
-14.398852999999999,-1.6589041000000002,6.489685,0.17421876,-0.19011872,-0.29539698
-12.870902000000001,-2.0035830000000003,3.9988339999999996,0.21891665,0.12552407,-0.34651768
-11.363743,-2.79117,2.0419669999999996,0.2737549,0.0834791,-0.2517463
-9.635628,-1.5249916000000001,0.9261155000000001,0.32272884,0.029705504,-0.16657422
-8.543154,0.46975195,-0.041879375,0.17474237,-0.020315632,-0.03562217
-6.7776594,1.2894118,-0.45015782,-0.14622368,-0.121457465,0.10328858
-5.186999299999999,1.572301,-0.5348742,-0.5284508000000001,-0.2263343,0.20123646
-4.0338945,0.98997366,-0.6105885,-0.8691216,-0.27742007,0.22413518
-3.4361486000000006,0.5733634,-0.44512996,-1.0729935,-0.27742007,0.20284216
-3.5177622000000004,0.07529285599999999,-0.083940715,-1.1134677,-0.18427186,0.090512775
-5.023868,-0.82954305,0.58078545,-0.99794436,-0.05544911,-0.0712967
-6.06367,-1.3805445,0.45448652,-0.83398813,-0.02989749,-0.21183062
-6.933455,-1.1414309,-0.30942664,-0.73816955,0.00043633230000000004,-0.27729790000000004
-7.7536607,-0.9851948,-0.8766992,-0.67909014,0.041416664,-0.23790583
-9.438422000000001,-1.3381671999999998,-0.6473538000000001,-0.6242519,0.059515726,-0.14795156
-12.035738,-1.8164521,-0.1925034,-0.5294979999999999,0.11435397,-0.011135201
-13.103667,-0.89431095,-2.140225,-0.5486616999999999,0.30227357,0.17250834
-14.197884,-0.9889298000000001,0.10850522,-0.6748141,-0.02776819,0.19910716
-14.262154999999998,-3.8585336000000003,5.432511,-0.5529203,-0.71020937,0.1762259
-11.510795,-4.184174,0.76240003,-0.74829245,-0.46533969999999997,0.187396
-11.05786,-4.33294,4.291597400000001,-0.7051654,-0.24335125,0.37905059999999996
-12.504072,-5.6208005,8.55408,-0.023265239,-0.41688934,0.47113420000000006
-14.6838875,-5.747224,7.922403999999999,0.3333928,-0.4184776,0.6079505000000001
-13.616975,-1.4128855,4.9067154,0.4552866,-0.09058259,0.5536359000000001
-13.433416000000001,-0.0019919758,2.9345062,0.36692056,-0.08258898,0.41896629999999996
-11.543682,-0.26409003,2.3121283,0.27003735,-0.029356438999999998,0.40512583
-8.908325999999999,-2.5818112,1.9458252,0.40205404,0.03398156,0.29546678
-6.442183999999999,-3.4501595000000003,1.7945691000000004,0.6144432,0.17397442,0.08040732
-4.9106510000000005,-1.8473852,0.4821635,0.7853283000000001,0.26872835,-0.07714355
-3.6796102999999993,-0.4084508,-0.45566446,0.7486066,0.27459264,-0.17722073
-3.6223695,-0.050393157,-0.619562,0.63414794,0.17716837,-0.21661282
-4.046354,-0.12993811,-0.31205067,0.5170363,-0.025097834,-0.16870353
-4.327491,-0.65918124,-0.14779887,0.4558102,-0.17469001,-0.086725414
-5.17183,-1.1096455,-0.119825006,0.44038147,-0.21087068,0.029304077999999997
-6.5667586,-1.7848487000000002,-0.523995,0.46540950000000003,-0.12517501,0.18154915
-7.566185000000001,-1.7940711,-1.0271603999999999,0.5085366,-0.017645279,0.27471483
-9.309145,-1.4705473,-0.81021696,0.56333995,0.1489464,0.23849924
-11.037921,-1.6591147000000002,-1.8141824,0.64479446,0.36613518,0.16770868
-11.709945,-2.6103885,-2.6938407000000004,0.8124857,0.6131515999999999,0.07349581
-14.5184965,-2.3661225,1.571353,0.9498082,0.45663050000000005,-0.027646014
-14.079879,1.1992459999999998,3.7979510000000003,0.8236558,0.06963864,-0.026040312000000003
-14.358181,1.8126404999999999,4.0770383,0.63255966,0.18516198,-0.18626153
-14.900803,0.20130448,4.781077400000001,0.4095066,0.3304781,-0.26026350000000004
-16.018349,-0.16472107,5.964444599999999,0.24928537,0.38425168,-0.19106120000000001
-16.2315,0.15828547,6.3796954,0.42069417,0.20858429999999997,-0.20542525
-14.223091,-1.2079034,4.8150268,0.680469,-0.05597271,-0.29859093
-12.060637,-1.8314302,2.793746,0.75764745,-0.039461896,-0.25387558
-9.820623,-0.46476242,1.3573496,0.70973814,-0.103340946,-0.24268803
-8.954477,0.84489465,0.22925916,0.56494564,-0.15072663,-0.11492993
-7.507373299999999,1.0412861999999998,-0.040375818,0.3461686,-0.27474973,0.003228859
-5.609653,1.1926476000000001,0.16747920000000002,0.12685053,-0.41741294,0.07614872
-3.7593660000000004,1.0030652,0.34082898,-0.05092871,-0.47383943,0.08840092
-2.7764406000000004,0.8346186999999999,0.31394687,-0.26279423,-0.51270795,0.06817256
-2.7040305,0.6358808000000001,0.49407703,-0.4863709,-0.54942966,0.002687807
-3.3784099999999997,0.967133,0.09306741,-0.6732259,-0.55103534,-0.08566076
-4.7694225,0.7586649999999999,0.15706922,-0.85419905,-0.44350561,-0.20062560000000002
-6.216008,0.02456451,0.22067836,-1.0032676,-0.28965485,-0.29326767
-6.851103999999999,-0.33446038,-0.87175757,-1.1475191,0.03502876,-0.37205184
-8.675572,-0.65550375,-2.0922163,-1.3194515,0.43374923,-0.3731165
-11.853224,-1.2131037,-2.0513327,-1.351391,0.7057762,-0.28366837
-13.791884,-1.0788751,-3.0080175,-1.2752771,0.82288784,-0.20490165
-14.209156,-0.53304505,-2.090071,-1.3386326000000002,0.7190755999999999,-0.10641272
-13.577278,-3.3969126000000003,3.8932976999999998,-1.1565598,0.38053414,-0.129294
-13.73271,-5.7437377,5.6894565,-0.8888089,0.38957494,0.006946410500000001
-13.735679000000001,-5.8117714000000005,5.410905400000001,-0.5555732,0.5487314999999999,0.2842967
-13.562759,-3.5325394,6.3978815,-0.14833553,0.4790056,0.6015626000000001
-15.270782999999998,-2.6062322,7.10147,0.042219516,0.18409733,0.6026273
-16.5549,-2.2469776,5.2057223,0.08265879,0.07176794,0.6095388
-13.620671,-1.9626613000000002,3.2021203,0.14601424,-0.06447246,0.47221628
-10.103933,-2.243731,2.5587406,0.30197686,-0.011257373999999999,0.24064599
-7.929749,-2.4672343999999997,1.6360347,0.56016344,0.0850848,0.036774087999999996
-5.5212307,-2.384127,1.1613411,0.84388417,0.15374605,-0.11334168
-4.585164499999999,-2.029517,0.108428605,1.0296744,0.22242476,-0.29857346
-3.2439327000000002,-1.5828928999999998,-0.2808782,1.0924889,0.020664698000000002,-0.32360148
-1.8659259,-1.0666073999999999,0.45081859999999996,1.2106651000000002,0.15109316,-0.30976105
-4.7135415,-0.99285626,0.6875859999999999,1.2537922,0.35976472,-0.31614894
-6.4750133000000005,-0.8513973,0.11662635,1.2873374,0.2580993,-0.21287781
-6.660209700000001,-0.71019685,-1.5540284,1.2058829,0.42257910000000004,-0.08511971
-7.9349302999999995,-0.40429446,-3.9922163,0.9775065999999999,0.6802246,0.036756635
-10.271605000000001,-0.49783114,-3.449499,0.79279834,0.5295678,0.12672836
-12.571436,-0.70469975,-2.2704406,0.6432062,0.1564164,0.22893484
-13.318801,-0.08379706,-1.2708327,0.37491417,-0.25186846,0.26035076
-9.944336,-1.15639,-1.6855083999999998,0.1470789,-0.3743033,0.20710076
-8.682381,-2.6059353,-0.8100734,0.16200146,-0.009110618000000001,0.13843952
-9.590377,-2.3500047000000004,0.10620679,0.45636868,0.17238617,0.104911745
-11.237147,-2.1871892999999996,1.3721553,0.7145378000000001,0.08402015,0.0522028
-13.932042000000001,-0.15644671,5.277309,0.7603178,-0.06766641,-0.12983504
-18.181079999999998,1.5656164,2.3198377999999997,0.48085567,0.10691887,-0.25865778
-16.154722,-0.6670725000000001,3.5837083,0.22321016,-0.25610963,-0.23736478
-12.534661,-0.9163376,4.4353733,0.30785862,-0.090024084,-0.30709067
-12.423580000000001,-1.5460222,2.9867666,0.34831536,-0.104929194,-0.3821573
-11.809764,-0.8515314,1.3045048000000001,0.19285887,-0.1044056,-0.26823965
-10.450939,-0.1100854,0.5331504,0.00017453292,-0.13793337,-0.09044296
-9.469776,0.28539840000000005,0.36396655,-0.1643053,-0.13528048,0.11555825
-8.17414,0.50658435,0.087445825,-0.31442106,-0.20767672,0.25022787
-6.652222,0.54392433,0.061981093,-0.45228463,-0.31094787,0.3135833
-5.1086807,0.3478392,0.35274252,-0.5555732,-0.45254642,0.3071954
-3.9956546000000004,0.24475445,0.40633434,-0.635422,-0.52866024,0.23160519
-3.8507288,0.20642807,0.35624766,-0.6556329000000001,-0.52546626,0.1272694
-4.390104,-0.19598936,0.27518955,-0.6439391999999999,-0.46532223,-0.046251226
-5.471967,-0.5996996,-0.03181415,-0.5970946,-0.3615275,-0.24001768
-6.3461094000000005,-0.70238215,0.31879276,-0.54649746,-0.28539625,-0.44176027
-6.586238400000001,-0.61873835,-0.5211794,-0.5374566999999999,-0.1762608,-0.5860291999999999
-7.629142999999999,0.22633825,-2.3285239,-0.7530571999999999,-0.08257153,-0.6174451
-9.860884,0.96788,-1.3254299999999999,-1.0591356,-0.08950049,-0.5226737
-11.630151,0.78359354,-2.9551534999999998,-1.3119988,0.10744247,-0.31293753
-12.792449000000001,-0.5543534999999999,-3.0830517000000004,-1.4940541999999999,0.2628815,-0.13887584
-13.748655,-2.8657446,1.9429522000000001,-1.2358676000000002,0.087214105,-0.08670796
-14.235867,-5.954676,4.196509,-0.91114914,-0.12356931,-0.008988446
-13.959719,-7.3575163,2.8310957,-0.7817853,0.063268185,0.13100441
-14.842680999999999,-5.765535,5.969415000000001,-0.34955454,0.11170107,0.37107444
-15.164079000000001,-4.393207,7.2941747,0.089605205,-0.26888543,0.40620792
-14.254435999999998,-2.9550674,5.8075194,0.13644984,-0.4796863,0.5387482
-11.638674,-2.1196632,3.5427961000000003,0.10505137,-0.2981546,0.49830896
-11.119601,-2.094534,2.255204,0.11728612,-0.24865706,0.3657512
-10.244434,-2.1228812,1.6095451,0.15880750000000002,-0.23375195,0.26886797
-8.816974,-2.4007810000000003,1.6448646,0.27750736,-0.21778218,0.1272694
-7.194384599999999,-2.4116316,1.490879,0.48671997,-0.20287707,-0.02867576
-5.6602855000000005,-2.1117049999999997,1.2262048,0.7044323,-0.18903661,-0.13727015
-4.9724407,-1.3792133,0.5131157000000001,0.8023802,-0.1805194,-0.19901989999999997
-4.5426626,-0.92027366,0.11696154,0.7848222,-0.22895229,-0.19743164
-4.540325599999999,-1.0737995,0.022045807999999997,0.7252017,-0.20074777,-0.15803957
-5.1758809999999995,-1.2204875,0.05952943,0.68101,-0.18638371,-0.10054842
-5.6727066,-1.405473,0.08289684,0.69273865,-0.16242033,-0.009512044499999999
-6.2410517,-1.5430055,0.097855814,0.7656585,-0.08735373,0.10386454
-7.001067,-1.8342458,0.47772944,0.8476366,-0.006440265,0.18423696
-7.375635000000001,-1.7478439,-0.119987816,0.89128727,0.19741419,0.22788765
-7.666492,-1.5025053,-1.8336521000000001,0.9258972,0.5673891,0.24118705
-9.254603999999999,-1.9509106,-3.0318542,0.9514488000000001,0.9724799999999999,0.1943424
-11.9845495,-2.3451972000000003,-1.9430766,0.9631599000000001,1.1178136,0.14697418
-14.733716000000001,-2.421151,0.8943492000000001,0.89661056,0.8021359,0.058608155999999995
-16.926814999999998,1.1053647,4.4155593,0.48778462,-0.0458498,0.10119419
-16.37247,3.3174539,1.9737798999999998,0.31691688,0.26715755,0.13632767
-16.309656,-0.16088079,3.9629017999999996,0.20565215,0.23628268,0.036774087999999996
-16.960037,-0.7912358,5.716730999999999,0.04808382,0.12981759,0.09906489
-15.312663,-1.0777835,5.401022,0.17957693,-0.13899802,0.033580136000000003
-12.81327,-0.93552953,3.11636,0.17851228,-0.06766641,-0.048380528
-10.988083,-0.6001114000000001,1.5700887,0.10292207,-0.025080381000000002,0.010157816
-9.037977,-0.011425131000000002,0.8270818000000001,-0.015236723999999998,0.015358897,0.08148942
-7.785532000000001,0.4326035,-0.025052927000000003,-0.18079865,0.037716564,0.18903661
-6.3944054,0.5015757000000001,-0.0866318,-0.3474078,-0.0011170107000000001,0.24652776
-5.058757,0.5635376,-0.13430515,-0.50658184,-0.08895943,0.26141542
-3.9059677,0.42760444,-0.19495507,-0.6439218000000001,-0.15762068,0.2353402
-3.4107988,0.039245754,0.08473559,-0.7248352,-0.14112732,0.14271557
-3.8472714,-0.08797255,0.11803414,-0.79190826,-0.12622221,0.0085695665
-4.6646137,-0.22248837,0.0222565,-0.85844016,-0.15336208,-0.13672909
-5.463443799999999,-0.1189631,-0.07297526,-0.9521295,-0.15177383,-0.26183429999999996
-5.9585934,-0.6395583,-0.06175125,-0.95478237,0.021223204,-0.33742452
-6.923744,-0.9716724,-1.3325648,-0.9388126,0.35126495,-0.37946948
-9.478319,-0.8717863000000001,-1.8966578,-0.9063495,0.63339746,-0.31560788
-12.139225999999999,-0.83488685,-2.2365005,-0.8344768,0.74890333,-0.22403046
-12.749286999999999,-0.58182937,-2.8503928,-0.82276565,0.700994,-0.20486675
-13.030261,0.03507984,-2.5192172999999998,-0.92923075,0.61582196,-0.2075371
-12.6962595,-2.3717346,1.4444602,-0.8568344999999999,0.37255797,-0.20008455
-13.363266000000001,-4.4215064,3.7597012999999997,-0.7961494,0.39969784,-0.143117
-15.846101,-5.4137015,5.927689,-0.54117423,0.36562902,0.019757127
-15.854220999999999,-3.4173589,6.5492334,-0.046111599999999996,-0.08044223,0.1113171
-14.640543,-2.2707472,5.570742,0.13273229,-0.16400859,0.1123643
-12.99362,-1.4405528,3.4633756,0.11198033,0.07497934,0.16348499
-11.797707,-0.914949,1.4745888999999999,0.11517428,0.23680627,0.14538592
-10.110877,-1.2093303999999998,1.0272466,0.18809414,0.32625440000000006,0.040509094
-8.388344,-2.1527705000000004,1.0944278,0.34779176,0.35498253,-0.079237945
-6.501876,-2.5493076,1.0122876,0.6277949,0.31719613,-0.21179570000000003
-5.3404300000000005,-2.0442939,0.58529615,0.88865185,0.26289895,-0.30653217
-4.915794,-1.8199476000000003,0.38599318,1.0541964,0.1511106,-0.34433600000000003
-4.7343044,-1.4851425,-0.035462916000000004,1.1196811000000002,0.06806784,-0.30813786
-5.0707374000000005,-0.86359817,-0.36041355,1.101041,0.10693632,-0.18783234
-5.91455,-0.45179543,-0.9028246999999999,1.0286447,0.16123351,-0.007906342
-6.134107599999999,-0.13937128,-1.571439,0.9024747999999999,0.26448720000000003,0.22097613
-5.8521566,-0.4697232,-1.6071126,0.8481777,0.38852775,0.3843913
-5.883961,-1.5329403,-1.5975646000000001,0.93708473,0.57218874,0.4275184
-7.633356599999999,-2.7062714,-0.92958236,1.1276572,0.74466217,0.4275184
-9.867405,-2.9937384,-1.4470651,1.2729908,0.8362222,0.46958083
-11.084608,-2.3843088,-3.533267,1.2298638000000002,0.9469284,0.46371654
-13.318351000000002,-1.3122333000000002,-3.0110056,1.0030931,0.7015351,0.41102505
-15.175044,0.4611041,1.044504,0.66294587,0.10054842,0.27314404
-15.764812,2.5247335,-1.5671774,0.5202826,0.12023573,0.21619393
-19.52346,2.8589451,-1.008658,0.10452777,0.24692918,-0.06965609
-20.880112,-0.1385285,4.7839885,-0.09506808,-0.8416501000000001,-0.17025687
-14.708509,-0.82398844,6.046997,-0.0077667153,-1.3691933,-0.26555184
-12.819935000000001,-0.94833374,3.1544470000000002,-0.08389798,-0.7330557,-0.18144442
-12.675957,0.039274487999999996,0.9389197,-0.14777702,-0.41685444,-0.035046212
-11.037558,0.8637896999999999,-0.5336293000000001,-0.28085837,-0.27738518,0.06127851
-9.661437,1.6168331,-0.7120643,-0.48314205,-0.14590952,0.21937044
-7.843787700000001,1.205586,-0.6284684,-0.7088479999999999,-0.17304939,0.33330554
-5.683892299999999,1.123982,-0.9139050999999999,-0.91273737,-0.24918066,0.34660494
-4.0624814,0.4981376,-1.0175165000000002,-1.0782819,-0.32103586,0.2997603
-3.145416,-0.27434677,-0.964327,-1.1522663999999998,-0.35564575,0.17680185
-3.4315805,-0.2921788,-0.9424344000000001,-1.1315144,-0.19114846,0.042114794000000004
-5.1184106,-0.34056082,-0.34824142,-1.071353,-0.009634216999999999,-0.068050385
-6.1432247,-0.30829656,-0.67596936,-1.0175967,0.083514005,-0.15109316
-6.4307875999999995,-0.11378204,-1.1100668,-1.0021507,0.16814502,-0.19793779
-6.697568400000001,0.06709511,-1.4735928999999999,-0.9664761000000001,0.2565285,-0.19580849
-7.007100599999999,-0.09064448,-2.3095715,-0.92762506,0.31080824,-0.19367918
-8.34476,-0.23081063,-1.7519523000000001,-0.8871683000000001,0.34168312,-0.2107136
-10.96215,-1.0316423000000001,-0.08609549,-0.72481775,0.25438175,-0.19154988
-12.526406,-1.7450762,-1.4631828000000002,-0.47462484,0.25864035,-0.06646214
-11.844652,-0.70507324,-3.5932752999999997,-0.30586895,0.21605429999999998,0.06288421
-10.991484,0.22195207,-3.6668730000000003,-0.2771234,0.19743164,0.1129228
-13.016021,-1.1627105,-0.25578693,-0.16266468,0.06328564,0.13369222
-16.156073000000003,-3.3595152,3.2736783,0.24347343,-0.38332665,0.18586011
-16.791494,-4.459018700000001,5.2179136,0.8987573,-1.0029534,0.35192817
-12.910274000000001,-3.4107222999999998,-0.42945275,1.0291858,-1.0407398,0.28272587
-11.488328,-0.22536142,-1.1300153,0.9195267,-0.7910879,0.34341097
-11.958472,-1.2343354,5.6199765,1.3102536,-1.1770152,0.35299283
-12.285022999999999,-3.2241182,5.896986,1.3587038999999999,-1.4591476,0.21514674
-11.33982,-2.0740201000000003,4.9948792,1.1601378,-1.4916108000000001,0.28113765
-8.0277,0.32570723,2.3680189,1.0259918,-1.0098649,0.26996753
-8.550844,1.7614429,1.5184792999999999,0.9674360000000001,-0.44718826,0.19064231
-8.984739999999999,0.12212344,0.9339780999999999,0.8753350000000001,-0.25609216,0.091088735
-8.295133,-1.358719,1.0938723999999997,0.8205142,-0.19593066,0.0016755160999999998
-6.5914288,-1.8979506000000002,1.4181241000000002,0.92324424,-0.17092009,-0.119153626
-6.0631437,-0.9723715,0.82019603,0.9589188,-0.1943424,-0.28098056
-5.6355295,0.34859577,0.07082049,0.80295616,-0.1922131,-0.35018286
-6.167636,0.48346594,-0.073080614,0.57405627,-0.14749777,-0.35709438
-7.2727804,0.15269262,0.24253264,0.40955895,-0.13311626,-0.32409018
-8.4955845,0.021873426,0.11841721,0.289777,-0.010157816,-0.27246335
-9.263349,-0.29231286,-0.22180842,0.15723671,0.11386528,-0.19952604
-9.239502,-0.6294835,-0.41301894,0.014573500000000001,0.23575908,-0.13405874
-8.977308,-0.90118706,-0.43965203,-0.090268426,0.29059732,-0.090931654
-8.324725,-0.8816983,-0.3720015,-0.16001178,0.28153905,-0.043563418
-8.104842,-0.93766516,-0.45900680000000005,-0.20099212,0.32838368,-0.019600047
-7.868448299999999,-1.0158694,-1.0411713,-0.12859586,0.40983820000000004,0.011257373999999999
-8.398237,-1.4814075,-1.4628382,-0.02586578,0.48169342,-0.030246556
-9.191063,-2.163506,-2.1465932999999997,0.0768643,0.5365317,-0.09998991
-10.969753,-2.0435276,-0.49796522,0.20675170000000004,0.38535124,-0.20804325
-13.689567000000002,-0.6413875,2.6017408,0.19504054,-0.008028515,-0.21123719
-15.084093,2.1875245999999997,2.0880408,-0.058869954,-0.1900838,-0.054209925
-14.384594,0.45126869999999997,3.3455807999999996,-0.15840608,-0.13205162,0.08100073
-14.9320135,-1.0362296,6.650728699999999,-0.10304424,-0.14430383,0.07407177
-16.695984,0.15297991,5.996173000000001,-0.17915805,0.026022859,0.1730843
-15.321817999999999,0.05862921,4.8175550000000005,-0.23399629,-0.13950416,0.21354103
-11.917608,-0.17937359,4.307197599999999,-0.22600268,-0.1943424,0.13528048
-9.881043,-0.51572067,2.7361607999999995,-0.26007152,-0.22361158,0.028291788
-8.045629,-0.49060065,1.6696302,-0.30213395,-0.18582520000000002,-0.019058995
-6.975104300000001,-0.1832522,1.1481538,-0.34578463,-0.14217453,-0.025446901
-6.2415785999999995,0.28051424,0.65275514,-0.41339868,-0.09745918,0.0043284167
-5.594081,0.38867470000000004,0.49213293,-0.48523644,-0.10543534,0.017645279
-5.1689663,0.54783165,0.48713386,-0.5262342,-0.20444787,0.015515977
-4.911427,0.35037705,0.45072284,-0.5736199000000001,-0.25822145,-0.023335052999999998
-5.4158373,0.10743262,0.56861335,-0.5922426,-0.3093247,-0.09358455
-5.9590144,-0.046974234000000004,0.48312120000000003,-0.6039536999999999,-0.27738518,-0.18036233
-6.8143673,-0.32076555,0.23234291,-0.6103590999999999,-0.1836959,-0.2799159
-7.4525175,-0.37133113,-0.17992905,-0.63057,-0.094788834,-0.3709348
-8.060626,-0.270631,-0.4800183,-0.6816732,-0.1123643,-0.41458549999999994
-8.082461,-0.07991845,-0.5929001,-0.7407701,-0.22361158,-0.38371062
-8.302421,0.4241089,-0.92044604,-0.88554513,-0.26672122,-0.28893927
-10.271575,0.21740308,-0.4838107,-1.0777233999999998,-0.19645426,-0.11435397
-12.877186,-1.0596832,-0.670568,-1.0287495,-0.01441642,0.05544911
-13.625410999999998,-1.4027628,-2.9759257000000003,-0.8871509,0.10161307,0.06928957
-14.762704999999999,-1.6531963,1.5436856,-0.792938,-0.12885766,0.035220746000000004
-15.4492,-5.2014512999999996,4.0401964,-0.4724781,-0.5238431,-0.09625491
-15.117573000000002,-5.1902555999999995,5.5606675,-0.1237962,-0.74687874,-0.059515726
-12.378052,-4.265098,4.903124,0.07901105,-0.81129885,-0.060580377000000005
-10.5670395,-1.1723065000000001,3.8832803,0.08805186,-0.37639770000000006,0.07353072
-10.459951,-0.5849226,4.8668184000000005,-0.010943214,-0.2432989,0.078330375
-10.855559,-0.60357827,3.7834706,-0.4006054,-0.22519983,0.024574235
-9.493661,-0.26651296,2.7875595,-0.715201,0.056374136,0.010733775
-8.524192,-0.29247567,2.0663588,-0.81847215,0.25706956,-0.0068242373
-8.11871,-0.8599780999999999,2.1697787999999996,-0.8403062,0.34541813,-0.06377433
-8.142824000000001,-2.2844613,2.3136799999999997,-0.7796211,0.24055873,-0.12020083
-6.9553475,-2.9309912000000002,2.3083553,-0.61672956,0.07714355,-0.15587536
-5.893441999999999,-2.7850313,2.5053117,-0.43839179999999994,0.032951817,-0.16385151
-5.6435356,-2.6028326,1.9104293999999997,-0.22174408,0.08032005,-0.13990559
-4.967499299999999,-3.5112019999999995,1.8076031000000004,0.09389871,0.16922712,-0.05312782
-6.269447,-3.5667190000000004,2.4615746,0.51337117,0.38161623,-0.025446901
-9.027012,-3.0003946,1.6070935,0.8003033,0.31401965,0.033632495
-9.106863,-2.2926013,0.8141818000000001,1.0371968,0.23630013,0.18373081
-8.601179,-2.1282442,1.0449541,1.2485213,0.068626344,0.23643975
-8.734679,-1.6730777,1.4545733,1.3842729,-0.12140510000000002,0.110269904
-9.897525,-1.271915,1.0519165000000001,1.3502041,-0.15493287,0.003281219
-10.691384,-0.9762788,-0.08768524,1.1905066,-0.14908603,-0.051539574000000005
-10.450758,-0.82494617,-0.2812708,1.0308089,-0.21348867,-0.07068583
-9.73356,-1.2076546000000001,0.12927732,0.8924042999999999,-0.2555511,-0.06377433
-8.882699,-1.657793,0.37679946,0.8758935,-0.18315485,0.045343652000000005
-7.056143799999999,-2.5414066,-0.9424823,0.97331774,0.079796456,0.14275047
-7.1369715,-3.9545412000000004,3.0036697,0.9168913000000001,0.0074001959999999995,-0.010541788
-14.395014000000002,-0.31592929999999997,11.017762,0.6970496,-0.15226252,-0.16065755
-19.761013000000002,1.4492774,1.8820628000000001,0.42076397,0.29752627,-0.42575562
-14.691482999999998,-0.5483584,4.659624,0.2669132,-0.27097982,-0.24582963
-12.418025,-1.4046973,4.5847430000000005,0.23764403,0.11440633,-0.21921335
-11.726503,-0.8816886999999999,2.4195516,0.24829054,0.033492867,-0.20324358
-10.437617999999999,-0.6331034999999999,2.0490534,0.27810076,-0.11341149,-0.16917476
-9.287529,-0.094197474,2.1684763,0.29778808,-0.16238543,-0.09410815
-8.041932000000001,0.45237005,1.4874983999999998,0.23551473,-0.19486602,-0.035552356
-6.427311,0.50356764,1.0336056,0.14873695,-0.25235716,-0.060580377000000005
-5.2786593,0.44791684,0.5533383000000001,0.044942225999999995,-0.2432989,-0.111666165
-4.995588,0.26833254,0.5378814000000001,-0.08866273,-0.14854497,-0.17182766
-5.31734,0.05571786,0.10344867,-0.23984315,-0.036233034,-0.23038346
-5.8876485999999995,0.08433336,-0.024162283,-0.43839179999999994,0.03508112,-0.32726669999999997
-6.269274,0.24211125,0.5453416999999999,-0.5789257,0.052656583,-0.39008108
-5.552824,0.55939084,1.3973328,-0.7348883,0.10056587,-0.40126866
-5.115508599999999,0.50658435,1.2623668,-0.8195368000000001,0.32040754,-0.35016540000000007
-4.7221894,0.24481190000000003,-2.7681568,-1.0149089,0.78513634,-0.37358773
-6.541983999999999,-0.39808872,-2.5352201,-1.2959593999999999,1.1189132,-0.29639181
-9.649687,0.059031438,-0.45236048,-1.413612,1.2743521999999998,-0.10103711
-12.481864,-2.7828476,3.7188656000000004,-1.3720906000000002,1.1306068999999999,-0.009477138000000001
-16.658195000000003,-8.1406975,7.454490700000001,-1.3566444,1.1268892,0.13051572
-21.764020000000002,-11.142489999999999,6.4762197,-1.0564129,1.4808944,0.33386403
-16.436222,-4.445094,7.454989,-0.065764,0.12346459,0.16032594
-14.585122,-3.4383802000000006,5.4404306,0.10988593,-0.0010821042,0.04321435
-13.353363,-2.5741115000000003,2.5828073,0.0779464,-0.07773697,0.14702654
-12.126353,-1.7187878,1.4446421999999999,0.111491635,-0.18687241,0.12519246
-11.299177,-2.1153731,0.9891213,0.12213814,-0.22307053,0.067701325
-10.093485000000001,-2.5971439999999997,1.0779079,0.09817477,-0.3423114,0.06557202
-8.5077095,-2.6958039,1.1015722,0.14182545,-0.4360007000000001,0.03630285
-6.9868836,-2.3124254,0.90880066,0.20676915,-0.50679123,0.046949357000000004
-5.6170464,-1.9465721999999999,0.41603565,0.24935518,-0.4796514,0.060248765999999995
-4.8574233,-1.8431522,-0.11827356,0.22914428,-0.37425095,0.10283479999999999
-4.481955,-1.8320334999999999,-0.23117454,0.21582742,-0.17090264,0.18003072
-5.36713,-1.7075447,-0.4521019,0.22647393,0.053197637,0.24389231
-5.654367,-1.7230113,-0.34856704,0.2765125,0.16605063,0.26839674
-5.8601722999999994,-2.1925046000000004,-0.22607969,0.39308307,0.32787755,0.2848901
-5.9686685,-2.3992105,-0.85426074,0.5149943,0.49928632,0.32749358
-5.941881700000001,-2.1846516,-1.6581953,0.60655427,0.79738855,0.40147808
-7.1823273,-1.6928154999999998,-2.1898708,0.5336344,1.1423354,0.44725809
-8.793319,-2.0139163,-1.9844389,0.45324454,1.2977743999999998,0.43607049999999997
-10.600375999999999,-2.674084,-1.6707793000000002,0.5208586,1.4106275,0.30085987
-14.4337225,-1.7801943,1.0398114,0.40001202,1.1497879999999998,0.15767305
-16.346144,-0.9029301,1.6806338,0.15940093,0.6483375,-0.03926991
-15.640372,-0.8760863000000001,0.67604595,0.25895450000000003,0.64407885,-0.11431906
-16.015371,-2.4033667999999997,1.9825043999999998,0.56557393,0.5413313,-0.24209462
-18.302322,-1.6555713,4.84619,0.53735197,0.22725932,-0.1585108
-18.201937,0.056455277000000005,4.234213,0.5256408,-0.39446187,0.026720991
-12.6134205,0.19127756,2.3109505,0.48464300000000005,-0.7649778,0.044279
-9.687774000000001,-0.54503524,0.90781426,0.26853636,-0.5222374,0.0022340214000000002
-8.650749000000001,-1.9334711,0.14152604,0.17111208,-0.40831977,0.04321435
-7.851611999999999,-0.66435266,-0.027437551,0.20624556,-0.42107815,0.10072295
-6.94601,0.41622716,0.09032845,0.23872614,-0.41842523,0.14009757
-6.073343,0.6368289,-0.16616717,0.20198695,-0.4509058,0.16193165
-5.3767643,0.3307542,-0.47275907,0.11681489,-0.4759164000000001,0.13744467
-5.253482,0.13652696,-0.32300654,-0.017313666999999998,-0.40458477,0.091664694
-5.898949,-0.12844414,0.056867078,-0.03806563,-0.30983084,0.0070162233999999995
-6.738069,-0.28529307,-0.31657094,-0.057770398,-0.22678809,-0.09250245
-7.306423700000001,-0.7861409,-0.6123793000000001,-0.08332202,-0.18420205,-0.19523253
-7.798442,-0.7482647,-0.85239327,-0.109938286,-0.15226252,-0.2772281
-7.997304,-0.595572,-1.524982,-0.12377875,-0.11128219,-0.32726669999999997
-8.338161999999999,-0.6624852,-1.4610566999999999,-0.15517722,-0.08199557,-0.33737215
-8.427026,-0.7669873,-1.3433386999999999,-0.15145968,-0.06070255,-0.30490902
-7.8641,-0.56789505,-2.0169425,-0.21160372,-0.009075712,-0.25432938
-7.665984599999999,-0.48283386,-3.0063703,-0.36704275,0.13730505,-0.23303635
-8.671194999999999,-0.2565435,-3.5891669000000004,-0.5501627,0.27677432,-0.24368288
-10.361071,0.24909274,-3.4294546,-0.79768527,0.32948324,-0.2756224
-13.688216,-0.9739325000000001,1.2931083,-0.82643086,0.14369296,-0.27986354
-15.980856,-4.316554,3.5249639999999998,-0.5911605,-0.35187584,-0.31979668
-16.410137,-5.4897895,4.3917317,-0.40802306,-0.44662976,-0.17341591
-15.60418,-2.0140407,1.5079545,-0.29145253,-0.33218852,0.056531213
-13.606285999999999,-0.6414449000000001,4.255799,-0.053511795,-0.5504419,0.24232150000000002
-12.793685,-2.1781106,4.345802,-0.03541273,-0.508397,0.3104417
-11.649688000000001,-2.0475404,3.5722160000000005,-0.006126106,-0.45888197,0.36901495
-10.144528999999999,-1.5881124,2.307905,0.007696901999999999,-0.34335864,0.35250413
-9.458302999999999,-1.1117523,1.6421830000000002,0.05560619,-0.27469736,0.34505159999999996
-9.144615,-1.2595991000000002,1.7628793999999999,0.11470304,-0.29066715,0.31258845
-8.4414,-1.9358557,1.9308758000000001,0.18123499,-0.37423348,0.23539256
-7.222301,-2.549327,1.921931,0.27385962,-0.45940557,0.14011504
-5.711646,-2.1955307,1.7162979,0.35903168,-0.44397685,0.05333726
-5.714768,-1.0781187,1.1602013999999998,0.38564795,-0.33112386,-0.025953045
-5.930371,-1.0930296,0.85106206,0.336674,-0.2651155,-0.05363397
-6.3145537,-1.2794901,0.7098138,0.2797239,-0.20814797,-0.07014478
-6.861064,-0.9731472,0.38894284,0.22062707,-0.18259634,-0.046722464000000005
-7.203578,-0.76122206,0.122793816,0.16100663,-0.17407914,0.022479841
-7.547500599999999,-0.6815909000000001,-0.35619974,0.083828166,-0.13416345,0.12041026
-7.9515367,-0.5071398,-0.32535285,-0.0066671576,-0.11234684,0.21036454
-8.135411,-0.29240865,-0.45712015,-0.09447467,-0.055902895,0.31578243
-8.385769,-0.40016687,-1.004722,-0.106726885,0.07663741,0.3785968
-9.152602,-1.160843,-0.7773686,0.02953097,0.19853120000000002,0.3487866
-10.1081,-1.9619716,-0.95323706,0.32976252,0.32416,0.25509733
-10.393833,-2.081337,-1.2575976,0.7236833,0.40720278,0.20027652
-12.524644,-2.2750757,3.0006720000000002,0.98771673,0.16392133,0.107634455
-16.300846,1.1527603000000002,6.804914999999999,0.9041329,-0.2443461,0.18643607
-17.671047,4.350389,4.103680600000001,0.40748203,-0.22624703,0.19228293
-14.748398000000002,-1.4119948,3.2969690000000003,0.036459927,-0.28586748,-0.07492699
-13.334181,-3.4286788,6.5870619999999995,-0.09608038,-0.6212325,-0.0983493
-14.107834,-1.1553651000000003,6.023236799999999,-0.19296359999999999,-0.64359015,-0.060021874
-11.492972,-0.31351593,4.018984,-0.2967758,-0.5669353,-0.04511676
-9.404856,-0.52574754,3.2249515,-0.41547564,-0.43118358,-0.06054547
-8.176822,-0.45855668,2.2543132000000004,-0.56878537,-0.29492575,-0.029688051
-7.878848599999999,-0.0043287165,1.8753398999999997,-0.67258006,-0.18952529999999998,0.03577925
-7.4345326,0.06721002599999999,1.3315017,-0.71996576,-0.14639822,0.117757365
-6.792542,0.09734824,0.8209716999999999,-0.74605846,-0.15598008,0.15767305
-6.1726637,-0.22237346,0.8345421000000001,-0.74179983,-0.21560052,0.18270107
-5.701447,-0.544566,0.87151814,-0.71836007,-0.27841493,0.18111281
-5.5500565,-0.7105033000000001,0.84235674,-0.66460395,-0.26138049999999996,0.13638003
-5.8748629999999995,-0.65507275,0.5218881,-0.61563,-0.24167573,0.0347146
-5.911322,-0.12472833,0.27333164,-0.5959426999999999,-0.254469,-0.09037315
-5.733969,0.1408461,-0.005679046700000001,-0.5996602,-0.23050563,-0.24314182
-5.827353,0.09901460000000001,0.19560628,-0.60124844,-0.2512576,-0.41400954
-5.880073,-0.01568681,0.93006116,-0.57836723,-0.24808110000000003,-0.55347884
-5.776567,-0.46790360000000003,0.7566826999999999,-0.54110444,-0.106482536,-0.64929736
-6.459748,-1.2282159,-0.77670777,-0.58314943,0.20650735,-0.64983845
-10.467699,-1.4275093,-1.4710454,-0.6874852,0.5727647,-0.4693714
-14.802342999999999,-1.3086706,1.3040067,-0.51927036,0.35557592,-0.29105112
-17.538792,-2.0730147,2.891018,-0.3691546,-0.035133477,-0.016353736
-17.551662,-3.7247648,3.2184009999999996,-0.37234855,-0.34388223,0.2263692
-17.547218,-8.178881,10.817347999999999,-0.06414085,-0.68350583,0.18750072
-18.43291,-9.143705,8.889613,0.6204122,-0.42160174,0.041119955
-13.650579,-4.3370295,7.190658999999999,1.1005697,-0.6387904999999999,-0.081297435
-10.701841,-1.7798686000000001,5.578921,1.0590658000000002,-0.38433895,0.19762363
-8.466012,0.07215167,3.8722095000000003,0.79927355,-0.109135434,0.27106708
-7.6966589999999995,0.22026655,3.0584683,0.50757664,-0.0058643064,0.11458086
-6.5499706,-0.96290004,2.9101807999999996,0.22490312,0.18202038,0.0070336769999999995
-6.636908999999999,-1.9175928,3.441186,0.13760176,0.39177406,-0.101525806
-6.6386905,-2.9461992,3.5297716,0.2579073,0.4886573,-0.21118484
-6.3349720000000005,-2.905565,2.705381,0.40908772,0.5205968,-0.24633577
-6.189768,-2.3163424,2.1984804000000002,0.5629385,0.51953214,-0.24898867
-6.479869,-2.1466412999999998,1.8134929,0.7055842,0.47534043,-0.20533799
-6.673568700000001,-1.9751207,1.3780642,0.7982089,0.38964474,-0.11484266
-6.314515599999999,-1.8659163,0.96620405,0.87327546,0.30551988,-0.011571533
-5.8807529999999995,-1.6949128,0.7572764,0.9318313,0.24750514,0.08635889
-5.559729,-1.5217642,0.61520445,0.9749409,0.17191494,0.1731192
-5.215711,-1.6318687,0.19385374,1.0004925999999998,0.085154615,0.22954570000000005
-4.871223400000001,-1.6140558999999999,0.040088512,1.0116801,0.027122416,0.27214918
-5.4742947,-1.5911481,0.11668382,1.0079451,0.0665145,0.26150268
-7.384771300000001,-1.4639874,-0.37107253,0.9909280999999999,0.17352064,0.27960175
-9.629671,-1.4653568000000001,-1.1184370000000001,1.0196563,0.30819023,0.3423987
-11.191591,-1.7098048,-1.654853,1.1091043999999999,0.39177406,0.40629518
-11.936214999999999,-2.2976484,-0.9322254999999999,1.2267395,0.38910370000000005,0.41481242
-16.239994,-0.21635923,4.138923,1.0388374,-0.27735028,0.42385322
-15.182188,3.3542862,2.6970872999999997,0.59168404,-0.61004496,0.31419417
-16.5793,4.1426587,5.260224299999999,0.09714503,-0.83255696,0.09435249999999999
-14.414837,2.0305607,5.4024014000000005,-0.28611183,-0.7756069,-0.13294172
-13.621925,-1.3967773,7.274964,-0.5331108,-0.64891344,-0.18669787
-13.481664000000002,-0.26363033,8.613696000000001,-0.59166664,-0.7516435,-0.25857052
-12.692736,-0.65044713,7.2937055,-0.5128825,-0.49293333,-0.3059562
-10.9241295,-0.89032704,4.950855000000001,-0.43942153,-0.33377677,-0.2681524
-9.375722999999999,-0.80962324,3.0293642999999997,-0.5150117000000001,-0.09049532,-0.13772394
-8.783732,-0.23327187,2.1347563,-0.6230651,0.024469515,0.028344147000000004
-7.656934700000001,0.040979157999999995,1.6688447,-0.7061253000000001,0.05852089,0.15076154
-6.1945760000000005,0.52721274,1.0821409,-0.8008618000000001,0.09367182,0.217852
-5.079088,0.6372599,0.63002944,-0.9632298,0.13838716,0.2604206
-4.198549,0.4238982,0.57639927,-1.0814059999999999,0.113900185,0.25031513
-3.3804212,0.032484528,1.1055656999999999,-1.1197335,0.09260717,0.21305235
-3.78937,-0.5178944999999999,1.0217112,-1.0931171,0.21556562,0.12840387
-5.0468144,-0.41605482,0.8586469000000001,-1.0899233,0.21928316,0.033649947
-6.0878515,-0.27965236,0.9177741,-1.0973758,0.23047073,-0.05735152
-6.9407334,-0.27198133,1.5661718999999998,-1.1101515,0.22195353,-0.16062266
-7.016427999999999,-0.5671289,1.6469139,-1.0952464,0.27305678,-0.21598449999999997
-7.348389,-0.48839799999999994,-0.47908932,-1.1628604999999999,0.47588146,-0.18298031
-9.071036,-0.112288065,-1.8935548999999998,-1.3055238,0.59512234,-0.072797686
-12.012505,-0.31172508,-2.229452,-1.3992129999999998,0.5780879,0.016091935
-15.158812,-1.1618868999999998,-0.44452664,-1.3795083000000001,0.2895676,0.0320617
-17.325544,-4.048365,4.925093,-1.0249795,-0.43065998,-0.03286455
-15.173186,-6.5484285,2.1287806000000002,-0.9163851000000001,-0.45727625,-0.10419615
-14.699738,-6.0842314,5.3209696,-0.75188786,-0.46153486,-0.11004301
-13.95041,-5.7171907,8.617747,-0.057752945,-0.5695882,-0.060021874
-13.102853,-4.546034,6.7520895,0.2536487,-0.36039305,-0.025935592
-12.026535,-2.8631876,5.834478,0.22542672,-0.31407198,0.18058921
-9.567996,-1.0903100000000001,4.7191343,0.1274963,-0.20228367,0.18165387
-9.149873,-0.8480358,3.678662,0.015166911000000002,-0.053232543,0.150779
-8.233267,-1.1205055,2.9693177000000004,-0.0652055,0.01701696,0.13107422
-7.313797999999999,-1.7481023999999998,2.6282970000000003,-0.11205014,0.0707731,0.016615533999999998
-5.5947322999999995,-2.4848557000000002,2.2639763,-0.06892305,0.079813905,-0.08503244
-4.4955254,-2.5570555,1.6137398,0.0061086523,0.16498597,-0.18617427
-4.453253299999999,-1.9555744,1.0444560999999999,0.0630762,0.1980076,-0.22717206
-4.606339,-1.805161,0.7825975000000001,0.1370607,0.260822,-0.20907299
-4.9305515,-2.0028837,0.89911854,0.27546529999999997,0.28530896,-0.15423475
-4.962672,-2.2095034,1.2698271,0.47190213,0.34545302,-0.054157566
-4.975457700000001,-2.2651925,1.7879324,0.71996576,0.34864697,0.056007615999999996
-4.68348,-2.0313175,0.82442904,0.9179734,0.27518606,0.15289085
-4.3296933,-2.3892599999999997,-0.45033019999999996,1.0915289,0.35449383,0.19760618
-7.0288687,-2.316888,0.20936815,1.2645258999999998,0.46575856,0.08848819
-10.842822,-1.7711633000000002,-2.3835043999999996,1.2219399,0.6621779000000001,0.04003785
-13.540006,-2.0323133,-3.5194862000000002,1.2006643999999997,0.8980068000000001,0.18324211
-14.001320000000002,-3.2233232999999997,-2.2683625,1.289554,0.8437096,0.32218778
-17.525002,-1.3906768999999999,4.774564700000001,1.1117573,-0.17620844,0.28173104
-16.651298999999998,2.5259017999999998,6.000233000000001,0.77372193,-0.8432035,0.33335790000000004
-15.320046,3.9318826000000002,5.4384294,0.17219418,-0.5690645999999999,0.17153096
-15.37858,0.025627535,6.035227,-0.32923892,0.05586799,-0.040858157
-16.71424,-1.6696397,9.397912,-0.40589377,0.029251719,-0.092484996
-15.643436,-3.0213962000000003,7.9314922999999995,-0.22757348,0.08567821,-0.21174334
-13.368685999999999,-2.559574,5.146365,-0.108856186,0.20546016,-0.16275196
-11.2771015,-1.9087724999999998,3.087955,-0.098733276,0.32787755,-0.028605945
-10.107975,-0.6316670999999999,1.6816490000000002,-0.21210986,0.3784572,0.14119713
-8.289932,-0.10229945,0.5922968000000001,-0.32710959999999994,0.29967302,0.3003537
-5.4549685,0.16680883,-0.19019538,-0.545363,0.15488052,0.4030838
-3.0021758,0.6464632,0.06097553,-0.80407315,0.0090233525,0.4829326
-1.3006166000000001,0.9518388000000001,0.30217698,-1.0382963,-0.13362241,0.47015680000000004
-0.40600872,1.0984405000000002,0.5587875,-1.1580609,-0.33377677,0.37700856
-0.26333347,1.210518,0.50398904,-1.2160931000000001,-0.30609584,0.18963002
-1.8078617,0.55481315,0.57987565,-1.2474915000000002,-0.22572343,-0.09567895
-3.7875311000000003,-0.31976002,0.9730419,-1.1900178,-0.038868482999999995,-0.38634607
-6.32437,-1.0160322,0.55830866,-1.0984578,0.29700267,-0.6658082
-9.517305,-1.6363124,-1.5885432,-1.0388199,0.64142597,-0.8292234
-13.164662,-1.4228549,-2.3305062999999997,-1.039361,0.61374503,-0.71052355
-15.576447,-1.209225,-1.2386641999999999,-0.9163851000000001,0.53443724,-0.43903756
-16.373888,-1.4371628,-2.0660715,-0.7327416,0.5088855999999999,-0.15584044
-14.60396,-1.4958301999999999,-2.5099277,-0.55120987,0.26827455,0.0075747290000000005
-14.277362,-3.2017658,4.0810223,-0.15837118,-0.21985912,0.0011868239
-13.533666,-5.725139599999999,3.6218622000000003,0.22649138,-0.40936697,0.025673794
-11.70778,-3.3229892,2.8414577999999997,0.28398252,-0.4684638,0.17631316
-9.615803999999999,-0.9931819,3.0042633999999997,0.09555677,-0.26670375,0.2897072
-11.100449000000001,-1.7665952,6.829834,0.19242255,-0.14479251,0.37435567
-14.91489,-3.4657410000000004,7.5563974,0.29729939,-0.22146483,0.5260597
-15.943105,-1.9346682000000002,5.9853034,0.25204299999999996,-0.33164746,0.7485543
-12.93501,-0.24553975,4.124251999999999,0.18975219,-0.22731169,0.6969274000000001
-10.6468525,0.06540002,2.6175903999999997,0.121631995,-0.05057964,0.5164778
-7.982115299999999,-0.5328248000000001,1.6258257999999999,0.14503686,0.021799162,0.29394835
-4.901802,-1.6906033,1.4557704,0.29462904,0.061191242,0.08635889
-2.5429103,-2.4648209999999997,0.71771467,0.4516563,0.18043214,-0.21439624
-2.489309,-1.3878708999999998,0.38844484,0.53098154,0.16765633,-0.42945573
-2.4865508,-0.49242985,0.44282195,0.56985,0.09738937,-0.5210157
-4.4180493,-0.36166809999999994,0.47103524,0.5496042,0.10855948,-0.49811697
-6.5116825,-0.43936473,0.25622746,0.48785442,0.018064158,-0.34588936
-7.487798700000001,-0.33781227,-0.15876429999999997,0.41706386,0.04787438,-0.0983493
-8.279628,-0.62182206,-0.20330603,0.39790016,0.18575539,0.110845864
-8.4256935,-1.0697868000000001,-0.7712107,0.42877504,0.28848547,0.20718804
-9.050953999999999,-1.1245086000000002,-0.7406224,0.5522745,0.3268129,0.22476350000000003
-10.396925999999999,-0.8158003,0.055497597999999995,0.7290066,0.21024236,0.17737779999999997
-11.082203999999999,0.052624553,-1.3840114,0.80407315,0.28796187,0.10658725
-11.886445,0.5277874,-3.177345,0.8221548000000001,0.42582542,0.07782423
-11.610624000000001,-0.052164867999999996,-3.6572676,0.9211673,0.45298275,0.12573352
-11.672327000000001,-1.8829343,0.923185,1.2134053,0.15486306,0.008080875
-13.572595999999999,-0.46657246,7.9100113,1.4652039,-0.62390286,0.09807005
-13.527239000000002,-1.1982021,10.774099,1.7361662,-0.8559966999999998,0.016074482
-11.577469,-1.7504773999999999,2.612984,1.7116793000000001,0.08196066,-0.115383714
-15.195165,-3.1590342999999996,5.953106,1.4385877,0.05586799,-0.44914302
-17.898132,-1.1285597,7.898097999999999,1.5807271999999999,-0.017051866000000002,-0.44329616
-15.799776999999999,-0.93671703,4.3620152,1.6536471000000001,-0.014381513,-0.47310638
-12.429737,-1.0349464,1.6236039,1.4529691999999998,0.1964019,-0.39964548
-10.0289955,-0.74281543,0.9226008,1.2985947,0.29328513,-0.24685937
-8.413368,0.033672053,-0.0704853,1.1687074,0.3268129,-0.12283627
-6.2807956,1.0722575,-0.5125028,0.9488656999999999,0.16605063,-0.025953045
-4.198902599999999,1.3965284,-0.0377805,0.68642056,-0.044191737,0.06291912
-1.9975207999999998,0.9123344999999999,1.0081697,0.4463505,-0.23636994,0.14330898
-0.82680404,0.7262859,1.0219506,0.29728192,-0.3241949,0.17685421
-1.954339,1.0277254999999998,-0.14085567,0.118420586,-0.34070572,0.12999213
-3.8893616,1.066751,-0.25465688,-0.008255407,-0.34442326,0.031520646
-5.223774400000001,-0.1377432,-0.42024946,-0.05510004599999999,-0.31143656,-0.1366942
-6.5433626,-0.6244460999999999,-1.123302,-0.17859954,-0.062290803,-0.23994787
-8.298486,-0.28929618,-2.4831607000000004,-0.33616787,0.42423720000000004,-0.3576005
-11.229064,-0.22207657,-2.164971,-0.3744953,0.751085,-0.5130395000000001
-13.206532000000001,-1.4203361,-2.4172627999999996,-0.3755425,0.79951787,-0.6306746999999999
-13.543347,-1.9822456999999998,-3.492671,-0.40802306,0.7180808000000001,-0.59180623
-14.710837,-1.6482354,1.6146399999999999,-0.21053907,0.4284958,-0.47577676
-14.864737,-3.383457,6.831739999999999,0.05508259,-0.16556193,-0.46087164
-13.693214000000001,-4.594598,6.129434,-0.106726885,-0.2443461,-0.47417104
-14.623353,-3.1429644,6.7166166,-0.14772467,0.13039355,-0.26069984
-16.437372,-1.5157690000000001,7.703267599999999,0.24459045,0.0010297442999999999,-0.023300145
-17.309444,0.058217406,6.154324,0.1264142,0.016475908,0.18908897
-14.506737,0.8240938,3.5683373999999994,-0.13601351,0.023387412000000003,0.33655185
-12.084953,-0.08498458,1.5983020000000001,-0.4255811,-0.010663961999999999,0.36795032
-9.638682000000001,-0.80464333,1.6446441000000003,-0.5799729,-0.053773593,0.29981264
-7.199939,-1.6599671000000003,1.1464968999999998,-0.6273586,-0.039933134,0.16831955
-4.421257499999999,-2.2930898999999996,1.5150796,-0.53471655,-0.10700613,0.0022514747
-2.4895294,-1.8940625,0.61521405,-0.49211302,-0.06761405599999999,-0.13081242
-2.1467466,-1.2725278,0.09109459,-0.5150292000000001,-0.08838347,-0.17606881
-2.4625513999999997,-1.034276,0.04501099,-0.5102295,-0.1831374,-0.12548918
-3.351461,-1.1771907,0.0027964276,-0.4921305,-0.29173177,-0.0312763
-4.420204,-1.820503,0.6919626,-0.40376446,-0.45088837,0.054942965999999996
-5.2764372999999996,-2.7071526,2.0958938999999996,-0.17858209,-0.5562888,0.07251843
-5.952675,-3.557008,1.2955121,0.047106437,-0.35774013,0.020350538
-7.569862400000001,-3.999878,-1.4653472,0.18816395,0.35397023,0.010768682
-11.560547,-3.694943,-2.1557584,0.42291072,0.8687201999999999,0.008098328
-14.694806,-2.817535,-3.1646557,0.5570567,0.7409621,-0.029147000000000003
-15.518469,-2.6317353,-4.2798176,0.5368458,0.6084218000000001,0.07251843
-14.614964,-2.3098779,-3.5795230000000005,0.46923175,0.18469074,0.23328070000000004
-17.229395,-0.32069853,6.777104,0.24724334,-0.9582031999999999,0.19654153
-16.021797,2.8291322999999995,4.3201933,-0.0050614546,-1.1429114,0.30248302
-14.121959,1.7080523,1.8405857,-0.49958304,-0.91507614,0.2928837
-9.744784,-1.8207426,2.5185467999999998,-0.8865748999999999,-0.48761007,0.20879374
-11.907619,-1.2598098999999998,5.546608999999999,-1.0761002,-0.40139082,0.07730063
-13.828009,-1.1074618999999999,5.9222302,-1.0159388,-0.60632735,-0.0014660766
-13.025454,-2.2467092999999996,4.321103,-0.9957103,-0.6276204000000001,0.08049458
-9.514892999999999,-2.1387596,2.516871,-1.1192098999999998,-0.5296725,0.21837559999999998
-6.972538,-1.1128058,1.0146818000000002,-1.2549441000000001,-0.40990803,0.3610388
-5.468107700000001,-0.19461029999999999,0.083749175,-1.3816549999999999,-0.33697072,0.48186794
-4.321429,0.28554207,0.09456139,-1.4796028,-0.34070572,0.5649107
-3.1635928,0.3039104,0.5538841999999999,-1.5243182,-0.367322,0.6085614
-2.3036816000000004,-0.030080749,0.9403754000000001,-1.5099367,-0.3822271,0.52712435
-2.471084,-0.36238638,1.2001462,-1.4237,-0.27096236,0.3509159
-4.654146,-1.2439984,1.291892,-1.2299335,-0.060161497,0.15182619
-7.0522265,-2.175793,1.4594862,-0.93554884,0.04841543400000001,-0.07012733
-9.50659,-2.833576,1.0263081,-0.6550220999999999,0.113882735,-0.23781857
-10.747705,-2.7714322,0.41219535,-0.45699700000000004,0.04787438,-0.32140237
-10.3899355,-1.288885,-2.291203,-0.43092179999999997,0.15327482,-0.30543262
-11.112553,0.11713392,-2.7396755,-0.56506777,0.33426547,-0.19736183
-11.188344,0.6621691,-3.2929468,-0.7535109999999999,0.5557128,-0.070668384
-10.207305999999999,0.0028251582,-3.1568124,-0.9616415,0.7782249,-0.035011306
-10.027894,-2.0553932,2.433122,-0.90893257,0.65633106,-0.04351106
-10.541919,-5.0310315999999995,6.862079,-0.64383453,0.47108182,-0.02008874
-13.593846,-8.7548485,13.742660500000001,-0.074787356,0.04787438,0.06239552
-17.625107,-7.9479356,6.3214016,0.15622441,0.3725929,0.25137976
-15.897231,-1.0060244,7.5776577000000005,0.45324454,-0.18952529999999998,0.46322784
-14.153841,0.32190523,5.1551184999999995,0.40854666,0.1341111,0.45844564
-13.348757,-1.4009528,3.2419312000000002,0.27227136,0.2639985,0.40627775
-11.346792,-1.9976549,2.542671,0.25843089999999996,0.22886503,0.2859722
-8.939834,-2.5078974,2.8120186,0.39151224,0.26508059999999994,0.14650294
-6.9335985,-3.0787709999999997,2.5932555,0.6885498000000001,0.26028094,-0.0312763
-4.876702,-3.1064286,1.9077956999999999,0.9887814,0.18043214,-0.23781857
-3.9317388999999996,-2.3429275,0.6068056,1.0936582000000001,0.08194321,-0.37355283
-3.01226,-1.3235818000000001,-0.07548439,1.0574427,0.039357174,-0.40444514
-3.9347844,-0.728364,-0.13492763,1.0127273,0.10164797,-0.33789575
-5.295543,-0.614266,-0.30047232,1.0004925999999998,0.024993114,-0.21704915
-5.789783,-0.9884318000000001,0.14804785,1.0201799,-0.10274753,-0.04246386
-5.947609,-1.6052356,0.39497626,1.1415501000000001,-0.13042845,0.016615533999999998
-6.179530000000001,-2.0062451,-1.3759956,1.2165992,0.13252285,-0.025953045
-8.348074,-1.7649769,-2.4989145,1.2198106000000002,0.47853437,-0.043528512000000005
-10.842678999999999,-0.90043056,-2.9545310000000002,1.166037,0.69146454,-0.029670598
-11.475706,-1.1134953,-3.4105307999999996,1.1979766,0.8224165999999999,-0.0035953782000000003
-11.192424,-1.6803752,-3.2265987000000003,1.2240517,0.97092664,0.07621853
-13.414875,1.1522814,1.7038575,0.98930496,0.46841148,0.11988667
-13.12713,2.5956306000000002,2.978406,0.6528753,0.33693582,0.017139133
-17.074392,2.8841417000000003,6.257485400000001,0.27598890000000004,0.30977848,-0.30276227
-18.579454000000002,-1.1233212,6.3888025,0.10670943,0.064908795,-0.51995105
-16.954998,-2.8488417,7.325357,0.17271778,-0.0596379,-0.41030946
-14.981746,-2.4356307999999998,5.158201999999999,0.38671259999999996,0.08620181,-0.1702045
-12.486671000000001,-1.2752668,2.4872308,0.54588664,0.105906576,-0.07120943
-10.844911,-0.10295068,1.0416023,0.45378559999999996,0.14582226,0.06239552
-9.560143,1.1038322,0.011961431000000002,0.17058848,0.05745624,0.22474605
-7.9023113,1.3799987,-0.0710216,-0.16154768,-0.043668135999999996,0.35997415
-6.277003,1.2530868999999998,-0.06225882,-0.44689155,-0.16875589,0.40999529999999995
-5.0058446,0.8449138,-0.12736195,-0.6757915,-0.2731091,0.37006217
-4.356719,0.42349598,-0.13490848,-0.85412925,-0.3300592,0.27478462
-4.427865,0.24149834,0.24644955,-0.9307841,-0.34657001,0.13051572
-5.2875752,0.1476169,0.05398446,-0.96804684,-0.36252233,-0.05311037
-6.24426,0.102376066,-0.29311734,-1.0649301000000002,-0.3385764,-0.23890066
-6.852942999999999,0.029975405,-0.22500709,-1.1756538,-0.36571628,-0.40444514
-6.687848,-0.30286652,-1.1744421999999999,-1.2890303,-0.35667548,-0.52208036
-6.8238482000000005,-0.10999921,-2.8190863,-1.5317707,-0.22252949,-0.55881953
-8.541286,0.50538725,-2.132094,-1.6978563000000002,-0.054838244,-0.47258279999999997
-11.158187,0.5823656,-2.2666193999999997,-1.7606707,0.10803588,-0.35599482
-11.986964,-0.05890694,-2.7725623,-1.7122378,0.23260003,-0.31607914
-12.634499,-1.9502496999999999,-0.17104176,-1.5232536,0.21395992,-0.33843678
-12.771945,-4.478258,4.069587,-0.979217,-0.18472564,-0.38580504
-12.313331,-4.930887,4.915248,-0.435704,-0.40510836,-0.29424506
-12.183403,-7.344597,4.8284535,-0.028483772999999997,-0.61857957,-0.28146926
-12.468964,-8.842447,4.0127489999999995,0.1359786,-0.3550698,-0.26923448
-15.810714,-8.312141,9.813297,0.8849691999999999,-0.5823815,-0.17980382
-15.938976,-4.7558904,7.391437,1.2309808,-0.97949624,-0.009459685
-12.649784,-1.1345356000000002,4.6341589999999995,1.1128045,-0.8048935,0.31684709999999994
-11.114201,0.07709329599999999,2.9780421,0.92542595,-0.48815113,0.3301465
-9.9904,-0.010122685,1.4238414,0.74656457,-0.49508008,0.2928837
-8.851938,-0.7299538000000001,1.2338758,0.5496042,-0.4274835,0.23539256
-7.3802705,-1.618557,1.0986418,0.51075315,-0.42320743,0.116692714
-5.666807,-2.1530192,0.9233574000000001,0.59112555,-0.35828119999999997,-0.033946656
-5.107886,-1.6348758999999997,0.10128431,0.6278646999999999,-0.3029019,-0.163293
-4.814242,-0.6548046,-0.18538783,0.51871186,-0.3066369,-0.17289232
-5.0782356,-0.38125268,0.11593682,0.3696782,-0.24488714,-0.095696405
-5.745998,-0.5280173,0.21699129,0.2563016,-0.29119074,0.0049043754
-6.3898277000000006,-1.3007122,0.5618425,0.18069394,-0.2933375,0.13744467
-7.1502547000000005,-1.9781852,0.6841862,0.17111208,-0.22413518,0.3056595
-7.5209537,-2.1260033,1.0068959000000002,0.22966787,-0.14587462,0.42435935
-7.4063479999999995,-1.9566468999999997,0.6850673,0.19240509,0.018587757,0.4818505
-8.077270500000001,-1.4510969,0.27493098,0.22753857,0.25867525,0.5372123000000001
-9.47173,-1.2678926000000001,0.890892,0.39735909999999997,0.28635618,0.5068785
-10.118443,-1.8943212,0.35629553,0.6108129,0.34491196,0.37273252
-10.184339999999999,-1.7527567,-0.6671012,0.8311956,0.45190066,0.27104962
-10.534411,-1.7660877000000001,0.25404397,0.9951518,0.3832394,0.15128514
-13.8954,-0.76737034,4.6015690000000005,0.9392664000000001,-0.15493287,0.11880456
-13.511111999999999,-0.32304487,7.4644509999999995,1.1032226,-0.42107815,0.117757365
-10.736453,-2.2414037999999996,4.5597763,1.2373686000000002,0.27623326,-0.021170842999999998
-11.511828999999999,-3.1772876,4.5326260000000005,1.0010161,0.58817595,-0.39008108
-15.474251999999998,-2.0621834,7.192766000000001,0.80670863,0.7963239000000001,-0.37836993
-17.415049,-0.9046348,5.560389499999999,0.77635735,0.37524578,-0.32461378
-12.836847,-0.15292245,2.954368,0.40852922,0.2554813,-0.22718951
-11.313791,-0.20053834,1.8342075,-0.040194932,0.28529152,-0.15318754
-10.342500999999999,1.0055264000000002,1.0299665,-0.44477970000000006,0.22886503,-0.015865043
-8.735358999999999,1.5249149,0.21883003,-0.81154317,0.22406536,0.12945107
-7.1048029999999995,1.3220303,0.10516292,-1.1591604,0.11068878,0.21197024
-5.433612,1.0399836999999998,-0.14591223,-1.4423401000000002,-0.028763026,0.2364572
-4.111955,0.38728607,0.36299929999999997,-1.5967319,-0.15919147,0.20132373
-3.6627169000000004,-0.16576496,0.93894845,-1.5631866,-0.27256808,0.11773991
-3.7580636,-0.27416483,1.3797593000000001,-1.4620448,-0.34976399999999996,0.008621926
-4.294546599999999,-0.62171674,1.3256694,-1.32844,-0.3236713,-0.09943141
-5.296558,-0.9578626,1.274989,-1.1932292,-0.24275784,-0.212808
-6.276745,-1.2376395,1.6713921999999999,-1.0180855,-0.18633135,-0.31342623
-7.364889999999999,-1.1410382,0.7441754,-0.9169436,-0.105417885,-0.3363075
-9.088754,-0.13623965,-1.5482056999999998,-0.9930574000000001,0.03668682,-0.19896753
-12.021277,0.2338752,-1.3242329,-1.1096455,-0.0053407075,0.021397736
-13.32515,0.35715744,-1.8186165,-1.1069924999999998,0.083531454,0.14755014
-14.340981,-2.5905454,1.1417851,-1.2395502,-0.06497861,0.20397663
-13.511917,-5.961945500000001,3.9996767,-1.2342095,-0.084665924,0.28756043
-13.635238000000001,-7.201040700000001,3.823004,-1.2017465,0.40770890000000004,0.34929276
-13.966277999999999,-6.252975,6.6418314,-0.7077485,0.16283922,0.37271506
-13.584988000000001,-4.3757577,6.3913693,-0.46074948,-0.022916173999999997,0.510055
-13.207787,-2.2913659,4.6760864,-0.32021555,0.02549926,0.6772052
-12.777892,-1.9232622,3.0533926,-0.36280158,-0.054855697,0.5696929000000001
-11.051491,-2.3218104999999998,3.1213686000000003,-0.4176224,-0.116605446,0.4318119000000001
-9.338966000000001,-3.496971,2.956236,-0.3255388,-0.10011209,0.2332458
-7.4792466,-3.6663370000000004,2.3059993,-0.13231342,-0.08520697,0.0043458696
-5.8794699999999995,-2.857001,1.2693961,0.06782349,0.018587757,-0.18140952
-5.5268803,-1.7199944999999999,0.8346665999999999,0.15831882,-0.013875367,-0.26871088
-5.059494,-1.3215516,0.5971139,0.24029693,-0.08998918,-0.28841567
-4.8623652,-1.399545,0.49370354,0.32601005,-0.12140510000000002,-0.24157102
-4.755258,-1.6369731,0.55431515,0.46280897,-0.11288789999999999,-0.16917476
-4.929776,-1.9090311999999998,0.86157745,0.6672219,-0.10915289,-0.084002696
-4.6242475999999995,-1.7191517,-0.16453913,0.9009215,0.0031415927,-0.00041887903
-4.471181,-1.569677,-1.1513621,1.1665606000000002,0.21767746,0.008080875
-6.7304745,-1.8355482,-0.93844086,1.2799371000000002,0.43326053,-0.115942225
-9.898511,-2.2128362999999998,-1.5452082,1.3608506999999999,0.63341486,-0.104754664
-11.668372,-2.321054,-2.2943156000000005,1.5067078,0.7744899000000001,-0.023317598
-14.515776999999998,-1.283455,1.3344897,1.4779623,0.48171088,0.004886922
-15.034581,1.7406325,2.9087633999999998,1.0941468,0.14899875,0.07621853
-18.796734,2.7926736,6.288476,0.6081425,-0.12672836,-0.071750484
-16.809929,-0.46401545,4.2676263,0.3829776,0.05424483,-0.09358455
-13.678763,-2.8405766,6.778885400000001,0.3552792,0.36779323,-0.04087561
-13.349255,-2.181587,6.5859985,0.6480581999999999,0.37044615,-0.121789075
-12.586203999999999,-2.9395146,5.181866599999999,1.0425200000000001,0.35927603,-0.30970868
-11.688062,-1.6750697,2.8925307,1.176125,0.30337313,-0.35707690000000003
-10.218539,-0.2856953,1.6337457,1.0691363999999999,0.17880899,-0.32887238
-9.583176,0.43135852,0.72158366,0.8460833000000001,0.09098402,-0.18514453
-8.420312,0.6999018,0.41926304,0.6246359,-0.06817256,-0.04194026
-6.6437087,1.0392177,0.30942664,0.43832198,-0.21615903,0.038414698
-5.161267,1.2402252,-0.010189722,0.20038125,-0.33859387,0.087388635
-3.950921,1.1219038000000001,-0.19472522,-0.06843436,-0.45622906,0.10602875
-3.5222442000000003,1.2364328000000002,0.006885724,-0.3106337,-0.48603928,0.08419468
-4.1075306000000005,1.2574252000000001,-0.17069700000000002,-0.5379454,-0.47219880000000003,-0.0062831854
-5.2312255,0.7704637,-0.07297526,-0.72958255,-0.39767328,-0.15053464
-5.768292400000001,0.356669,-0.026556486,-0.88502157,-0.27949703,-0.30332077
-5.8185616,-0.18184441,-1.0980288,-1.0212969,-0.0037699111,-0.48165852
-6.856256500000001,-0.54193234,-2.6581099999999998,-1.1405377,0.3688579,-0.5465848000000001
-10.357652,-0.7432464,-1.3201245000000001,-1.1735419,0.56794757,-0.44971898
-12.938572,-1.0206959999999998,-1.8691533,-1.0724001,0.85433865,-0.3177023
-13.674539999999999,-1.4091122,-2.768425,-0.89779735,1.096538,-0.21443115
-14.754114000000001,-2.5635772,2.2714365,-0.6955137,0.8255931000000001,-0.14149384
-14.3350725,-5.3824525,4.853775,-0.3271445,0.27675685,-0.12339478
-12.2662325,-3.2870474,3.1009126,-0.28614673,0.39599776,-0.023841197
-11.559407,-1.8483907,2.0326676,-0.41976914,0.4620061,-0.0062831854
-13.557301,-2.9566379,6.7415166,-0.04448844,0.27515116,0.19863592
-15.225848000000001,-4.214858,6.209553700000001,0.13116150000000001,-0.020786871999999998,0.22525219999999999
-14.498585999999998,-2.883203,5.0876402999999994,0.10828023,-0.3183655,0.31894147
-11.658201,-2.2841833,3.6103892,0.06410594,-0.12831661,0.28647834
-10.224851,-1.5297703999999999,2.1261373,0.12583824,0.055850536,0.19011872
-9.352978,-1.928606,1.2359731000000003,0.22272147,0.09309586,0.052255157
-8.050322,-2.6116624,0.98306876,0.3382448,0.113324225,-0.054192472
-6.6900315,-2.7359598,0.8687696,0.5506514,0.10534807,-0.1515993
-5.844007,-2.1983653999999997,0.49518797,0.75080574,0.09311332,-0.22294836
-5.7055264,-1.6196392,-0.010840945,0.8742878000000001,-0.03303908,-0.24424137
-5.548007,-1.4655483999999999,-0.11775642,0.9035744000000001,-0.12405799999999999,-0.18675023
-6.1342897,-1.5438675,-0.16295893,0.93338466,-0.16664404,-0.11433652
-6.3411292999999995,-1.3893936000000002,-0.61901605,0.96106553,-0.20870647,-0.03822271
-6.083714499999999,-1.2961633,-1.2333204,0.9238028,-0.15388568,0.040544
-6.559375,-1.3147231000000001,-1.3110553,0.7848571,-0.07775441599999999,0.093235485
-7.809886,-1.1762712,-0.56086564,0.5602158,-0.06871361,0.13742723
-9.509491,-1.0578061,0.04705085,0.5123065,0.0026179939,0.20715313
-10.01982,-1.4847976999999999,-0.32495064,0.6826505999999999,0.10108947,0.24228661
-9.895111,-1.8987647,-1.9273036000000001,0.815732,0.3427652,0.13208652
-10.243908,-2.3860900000000003,-3.1235904999999997,0.88069314,0.6461906999999999,0.03042109
-10.520467,-2.5075145,-3.049236,0.9983283000000002,0.8905368,0.012322023999999999
-13.055753999999999,-2.6658957,0.57366985,1.0377204,0.63713247,-0.07283259
-15.929994,-0.33799422,6.1972475,0.90729195,-0.32794738,-0.00043633230000000004
-15.602591,1.523239,6.264419,0.86364126,-0.5153259,-0.07335619
-12.640293,-0.5244354999999999,0.7613274,0.88973397,0.19104373,-0.07335619
-13.04093,-2.4418653999999997,3.9905884,0.7758163,-0.19593066,-0.15161675
-14.044723000000001,-1.2797774,4.055864,0.69649106,-0.2555511,0.01977458
-12.725536,-0.2030666,4.202006,0.78592175,-0.5504594,-0.033440508
-10.691039,-0.5856218000000001,2.5466356,0.6379353,-0.41046652,-0.088278756
-9.721407000000001,-1.1707838,1.9277153999999999,0.4500157,-0.3811799,0.059166662
-9.048799,-0.48843630000000005,1.0094912,0.30098203,-0.40034363,0.12891002
-8.808564,0.3647614,0.7683185,0.15406021,-0.39714968,0.19118336
-7.942774000000001,0.79195404,0.45948562,-0.03010693,-0.44347072,0.2225993
-6.877134,0.85468215,0.16661727,-0.256895,-0.49403290000000005,0.21567033
-5.9377832,0.47011587,0.46168828,-0.43362704,-0.54833007,0.19224802
-5.471957700000001,0.37279636,0.38044822,-0.5352925000000001,-0.5930454000000001,0.17201965
-5.2014512999999996,0.43388679999999996,0.22911553,-0.6193999,-0.5882632,0.122522116
-5.4495379999999995,0.22700863,0.018349161,-0.72799426,-0.4461236,0.053319807999999996
-6.4873195,-0.007613561600000001,-0.2658426,-0.80625486,-0.2837731,6.981316999999999e-05
-7.381514999999999,-0.11847468,-0.45376825,-0.82967716,-0.20285963,-0.044087015
-8.04696,-0.23003490000000001,-0.14793293,-0.8126253000000001,-0.25396284,-0.058451075
-7.735991,-0.56161267,-0.37896383,-0.7790975,-0.23692845,-0.07070329
-7.1691113,-1.480086,-2.2751906,-0.754628,0.020158553,-0.096272364
-8.709483,-1.7860936,-2.3367026,-0.67263246,0.34063590000000005,-0.07070329
-12.309396000000001,-1.4360517,0.565271,-0.46502550000000004,0.38002798,0.018168878
-15.646999,-2.073034,2.8455374,-0.24518386,0.109606676,0.08365363
-16.031584,-4.421564,3.363863,-0.13711306,-0.21881193,0.1666964
-15.409772,-5.433257599999999,5.8397164,-0.16851154,-0.10278243599999999,0.17201965
-15.458135,-5.1213794,7.2126093,0.3414213,-0.10384709,0.013386675
-13.861049,-3.9218557,5.904446,0.60173714,-0.23106414,-0.07389724
-12.434142,-1.9978558999999998,5.491188,0.5123065,-0.3029368,0.14433873
-10.930096,-0.09146808,4.157876,0.42339942,-0.18634881,0.28061405
-9.776685,-0.11248917,2.8022406,0.2844712,-0.17571975,0.29817206
-8.754389,-0.8938321,2.428372,0.17852972,-0.18315485,0.30668926
-8.026925,-1.6770713,2.3316939999999997,0.18065903,-0.23319344,0.2401573
-6.8648562,-2.1025975,2.2206892999999996,0.24666739,-0.35136968,0.13049826
-5.1505980000000005,-2.0378776000000003,1.2204587,0.2903355,-0.34445820000000005,0.010716322
-4.528364,-1.0557185,0.71858615,0.2844712,-0.29813713,-0.026529005
-4.591073000000001,-0.5464909,1.0902333,0.31428143,-0.31091297,-0.027593656
-5.6303196,-0.50321335,0.7096031,0.25520205,-0.33539993,-0.004694935999999999
-5.913275700000001,-0.9630437,-0.09617987,0.15351915,-0.3034604,0.07300712
-5.8754954,-1.3094176000000002,-0.16197254,0.111997776,-0.19380136,0.12943362
-6.903086999999999,-1.3587478000000002,-0.21177192,0.07367035,-0.076689765,0.16189674
-8.357287,-1.4452552,0.3229778,0.047054075,-0.05806710599999999,0.18905406
-7.8825544999999995,-1.3777195,-0.509352,0.0044505894,0.2075371,0.21352358
-7.129884700000001,-1.4104816999999998,-1.2832153999999998,0.010332349000000001,0.7334921,0.19970058
-8.901536,-1.8395705000000002,1.151477,0.11412708,1.1428416000000001,0.14114478
-15.071423000000001,-2.1764345,9.987978,0.42872268,0.7313453000000001,-0.018011797
-21.143347,1.6083481000000002,7.176553,0.45479790000000003,0.6706602,-0.16866861
-19.368362,-0.65028435,3.3138049,0.23975588,0.040404372,-0.42842597
-14.594114999999999,-1.6090853999999999,7.047600999999999,0.28340656,-0.08201302,-0.4342903
-13.633821,-2.4420857000000002,5.903487999999999,0.49953067,-0.13419837,-0.57854176
-11.8732395,-1.861128,3.3056934,0.5692566,-0.19486602,-0.5098805000000001
-10.236937,-0.5378430000000001,2.6823102999999997,0.5490282,-0.16720255,-0.38318703
-9.063365,-0.16375381,1.5905063999999998,0.45427429999999996,-0.10384709,-0.20645499
-7.158395,0.12646173,0.9860376000000001,0.31267574,-0.15016812,-0.07178539
-5.06999,0.5977268,0.7601303,0.14126694,-0.20285963,-0.0094945915
-3.760161,0.90497947,0.54764974,-0.092415184,-0.21031217,0.03466224
-3.229673,1.1263473999999998,0.47180140000000004,-0.31490976,-0.23799309,0.04852015
-3.6752336000000003,1.1908376,0.2842875,-0.5571265000000001,-0.17783159,0.016039576
-4.9259553,0.5848173000000001,0.41287529999999995,-0.69127256,-0.11609929999999999,-0.07017968599999999
-5.7466683,0.13312720000000003,0.7232116999999999,-0.7461108,-0.1182286,-0.17505652
-6.1788697,-0.45029187,1.2348143,-0.7492873000000001,-0.09745918,-0.2527586
-6.1828055,-1.0937192,-0.72166985,-0.7578045,0.13194689,-0.25542894
-8.023066,-1.581102,-2.4742255,-0.91378456,0.34541813,-0.17238617
-10.896807,-1.285083,-0.64789975,-0.8791747,0.51363295,-0.023335052999999998
-12.978594000000001,-2.080791,0.31582394,-0.71095985,0.54611355,-0.064315386
-15.600465,-4.396396,5.211823000000001,-0.47780132,0.3289073,-0.103183866
-16.152922,-7.078831,6.096844,-0.35217252,0.108542025,-0.14097025
-16.433951999999998,-5.227232,5.426659,-0.14671238,0.32412508,-0.028134707000000002
-14.492907999999998,-2.6249166,7.369008,0.47024405,0.044121925,-0.003630285
-13.717837,-3.0917380000000003,6.345333599999999,0.5809677,-0.009093165,0.120898955
-13.323808999999999,-2.089142,5.174981,0.540511,0.00418879,0.34075809999999995
-11.266049,-0.87985957,4.1311088,0.56286865,0.0020769418,0.42008328
-9.243572,-0.9139816999999999,3.2332544,0.6347239,0.07658505,0.34447563
-7.9620036999999995,-1.365145,2.464572,0.7071201,0.11545353,0.22097613
-6.371948000000001,-1.7800793999999998,2.025849,0.8114559,0.0792554,0.051173054
-4.8340273,-2.3939334999999997,1.6510798999999998,0.96158916,0.010576695,-0.13884094
-3.9677095000000002,-2.3995743,0.81132793,1.0712482,-3.4906585e-05,-0.2777866
-4.8177853,-1.7557447,0.6094871000000001,1.1670668,0.07552039599999999,-0.3326074
-6.541725,-1.5514045,0.29109663,1.1265924999999999,-0.048485245999999996,-0.31079078
-6.736939,-1.6798964,-0.48292962,1.0605841999999999,-0.035709437000000004,-0.2144486
-6.704492599999999,-2.0504136,-0.30324957,1.0361147,-0.042638395,-0.10744247
-7.252209700000001,-1.9475490000000002,0.34369245,1.0015048,-0.10917035,0.001134464
-7.833540400000001,-1.3684201999999999,0.873491,0.9243089,-0.18582520000000002,0.07566002
-6.309785,-0.22386743,-2.0346406000000004,0.7678052,0.26556929999999995,0.12515756
-7.42962,-0.43465295,-0.9627754999999999,0.5250648,0.6504319000000001,0.02029818
-13.266654,-0.50249505,7.0856495,0.40795326,0.09149016,0.02401573
-22.916560999999998,5.484302,8.88495,0.10133382,0.16336282,0.26729718
-21.697348,2.2847292,1.5484068000000002,-0.03864159,-0.11555825,-0.11541862
-14.971642499999998,-1.1274008999999998,6.5354905,0.06939429,-0.41207224,-0.0094945915
-11.306339999999999,-1.8412657,5.06818,0.08538151,-0.029862582999999998,-0.24584708
-10.920059,-1.3681043,2.4650222999999998,0.059812434000000005,0.06647959,-0.3278252
-9.835132000000002,0.09070194,2.2584026,0.09016371,-0.086812675,-0.31559044
-8.569442,0.25496334,1.8267183,0.044383723,-0.11342895,-0.17345083
-6.654444,0.066137426,1.1988726,-0.043441243,-0.1767844,-0.025464353999999998
-4.6984773,0.39881653,0.90888685,-0.1807812,-0.27047366,0.08150688
-3.4888019999999997,0.8524507,0.73525935,-0.36655405,-0.29496065,0.14912093
-3.3967786,1.0108894,0.30307722,-0.63006383,-0.30028390000000005,0.15922639
-4.1157284,1.1991408000000001,-0.16427097,-0.9249721,-0.26408577,0.13686872
-5.402267,0.75003636,-0.16938499,-1.1597188999999999,-0.16400859,0.03626794
-6.598544599999999,0.15456966,-0.08721598,-1.3465738,-0.110776044,-0.088278756
-7.0502534,-0.7752904,0.8431228999999999,-1.4115176,-0.15175638,-0.22881266
-7.1153183,-1.7545380000000002,0.5106449000000001,-1.3604143999999998,-0.0016406095,-0.25755823
-8.500623,-1.5254225000000001,-0.507159,-1.3928775,0.06647959,-0.26181683
-10.776772,-1.1733408,-0.81639403,-1.3801017,0.16229817,-0.17132153
-12.060379,-1.5992788,-2.2123191,-1.2390442,0.38481018,-0.14576989999999998
-12.481318,-2.6914849999999997,-1.9610332,-1.0069503,0.53066736,-0.21816616
-14.424835,-6.003585299999999,5.1073112,-0.5597969,0.12981759,-0.37840483
-15.320248000000001,-7.979500999999999,6.921848,-0.1807812,-0.09906489,-0.29907963
-15.337582000000001,-6.2660375,8.429917,0.19024089,-0.17517869,-0.14151129
-14.012717000000002,-2.7784712000000003,6.896038000000001,0.61184263,0.08670796,0.15496778
-15.084207999999999,-1.0230137,6.648382000000001,0.6884975,-0.16027358,0.32744122
-14.954117000000002,-0.6818687,5.1724815,0.41008255,-0.28483772,0.5425007
-11.042748,-0.3354085,4.37095,0.24132667,-0.19168949999999998,0.5515415
-8.679153,-0.09505939,2.6705213,0.14285520000000002,0.02867576,0.43444735
-7.1099744000000005,-0.48065037,1.8874737000000001,0.081629045,0.12023573,0.29497808
-5.516758,-1.4292618000000001,1.4270017,0.088558,0.15749851,0.13367477
-3.562936,-1.9645,1.4107593999999999,0.23176228,0.13248794,-0.05475098
-2.8338537,-2.0591857,1.0717212999999999,0.381337,0.15323989999999998,-0.25490534
-3.2581922999999997,-1.397419,0.6893673,0.46437976,0.103201315,-0.3352952
-4.12429,-1.2496871,0.53316957,0.49898964,0.05635668,-0.3235666
-5.3330936,-1.3855628999999998,0.15942511,0.50111896,0.008988446,-0.26872835
-6.5271306,-1.3756030000000001,-0.17913418,0.48834312,-0.021345377000000002,-0.13618805
-7.350247,-1.4102039,-0.41409156,0.4846081,0.07019714,0.014957472
-8.414211,-1.8653991,0.36238638,0.56180406,0.06487389,0.10918779999999999
-8.813123,-2.379348,1.2406561000000003,0.7603526999999999,-0.0075049159999999995,0.14484487
-8.410342,-2.5544982000000003,0.09663956,0.93176144,0.21924827,0.10918779999999999
-9.533721,-1.9536016,-2.2275367000000004,0.94294906,0.7457268,0.03679154
-11.557051,-1.7397227,-3.4306133,0.9679595999999999,1.1188782,0.039985493
-14.193910999999998,-2.7137892000000003,-1.3172514,0.9227207000000001,1.0693806000000001,-0.00577704
-18.501423000000003,-0.91128105,4.962931,0.69647366,0.19847885,0.07777187
-16.224653,3.7628996,6.586487299999999,0.4553215,-0.39077923,0.20181242
-14.0961685,2.9821696,1.4177983,0.066723935,0.35978216,0.1288751
-16.537613,-0.33106065,2.8833945,-0.5422214,-0.26621506,-0.029199357999999998
-16.089542,-0.66855687,4.1660447,-1.0468833,-0.74796087,0.013369222
-13.380849,-0.8583213,5.2484255,-1.1560013,-1.1072892,-0.15749851
-12.628504,-1.891745,4.4216595000000005,-1.3061171999999999,-0.89116514,-0.13459979
-11.208503,-2.877122,2.9785976,-1.4455864,-0.9321454,-0.060074233
-9.370082,-1.4436653,2.7873773999999996,-1.5259763000000002,-0.8086634,0.091088735
-7.967050599999999,-0.83423567,2.1577884999999997,-1.527041,-0.72933817,0.26036823
-5.064636699999999,-0.92577076,1.4631253,-1.5036011999999999,-0.67662925,0.36151004
-2.2780638,-1.1705348,0.9023745999999999,-1.4551682,-0.5648409000000001,0.38599703
-0.38200924,-1.7015209,1.1089463,-1.3135697,-0.45198792,0.31360075
0.11874283,-1.7253575,1.3376118000000001,-1.1309909,-0.45572293,0.19594811
-0.7089806,-1.0479611999999998,0.81291765,-1.0170732,-0.39397317,0.11716395
-3.263498,-0.65924823,0.36330575,-0.9856572,-0.39610246,0.0011170107000000001
-5.364688,-0.88658243,1.198432,-0.83287114,-0.32796479999999995,-0.08349655
-7.941126299999999,-2.7027664000000002,1.8480938999999998,-0.43949136,0.1511106,-0.25703463
-10.234167999999999,-4.598189,-1.2278233,-0.08122762,0.6727895,-0.39276890000000003
-12.833227,-2.9095392,-2.3258232999999997,0.1513724,0.83301073,-0.36137040000000004
-14.2379055,0.27441382,-1.7246296000000003,0.13166764,0.7744724000000001,-0.30440290000000003
-13.956444,-0.6389071,0.9975776,-0.0503702,0.30654964,-0.393851
-12.831686,-5.479082599999999,6.3679156,-0.256895,-0.25237462,-0.47261772
-13.598817000000002,-7.6779175,6.543075599999999,-0.59493035,-0.014957472,-0.40769145
-16.904778,-7.690061,8.009773,-0.40329322,0.28473303,-0.17666222
-18.014223,-4.810899299999999,8.789660000000001,-0.07644542,-0.39716712,0.11664035
-15.423101999999998,-3.222452,6.808755400000001,-0.12383111,-0.6792996,0.5558001
-11.311214,-2.6928446,4.455571,-0.32878512,-0.6766466999999999,0.57070524
-9.496774,-2.8135412,3.2376406,-0.39051740000000007,-0.61276764,0.47329837
-8.288046000000001,-2.173054,2.0734553,-0.46184903,-0.4924621,0.39077923
-6.843806699999999,-1.8129278000000002,1.1734556999999999,-0.5017822000000001,-0.48340383,0.30295426
-3.9388928,-1.8884697,0.90830266,-0.43631485,-0.48340383,0.16507325
-2.2644262000000004,-1.5066806000000001,0.4279875,-0.34208453,-0.32211795,0.04956735
-1.7225802,-0.32858023,0.29639262,-0.31333897,-0.25078636,0.044244096
-1.6683276999999999,-0.34909374,0.69341826,-0.27021188,-0.13206907,0.105993845
-2.7610507,-1.6749357,1.3538636,-0.14405948,-0.08415978,0.19010127
-4.4274726,-3.0690315,1.9587826000000002,0.13007939,-0.07457792,0.2891138
-6.444262,-4.1587286,2.0322464,0.52345914,0.00577704,0.39132026
-8.2684145,-4.436906,1.4564791000000001,0.9205739,0.11437143,0.4802099
-9.463666,-2.9078060000000003,0.3690614,1.1627907,0.24267058,0.50150293
-10.014092999999999,-1.628785,-1.3483378000000001,1.2149584999999998,0.51309186,0.40622538
-11.7115345,-2.681324,-2.3874981,1.1867366000000001,0.79309505,0.38758525
-12.757302000000001,-3.306632,-2.0667708,1.2410338,0.99750805,0.35938075
-16.62389,-2.507572,4.134384,1.1627907,0.5024454,0.41526620000000003
-17.077065,3.0018597000000002,7.2884674,0.8417896999999999,-0.03572689,0.5515415
-16.17495,3.3670519999999997,5.1298449999999995,0.4500157,0.18146189,0.41208968
-14.932626,0.6210463,5.423652,0.004974188300000001,0.13194689,0.13206907
-15.467385,0.110133275,8.511368,-0.28724629999999995,-0.20020671,0.038920842000000004
-13.526665,-0.45321279999999997,7.560994,-0.419263,-0.31625366,-0.09255481
-11.665364,-1.0759063999999998,5.8715305,-0.48740065,-0.24492206,-0.22403046
-9.4519825,-1.1376097,4.350073,-0.5699198000000001,-0.23746950000000003,-0.20380209999999999
-8.006,-0.5058469,3.3013647000000006,-0.641775,-0.021345377000000002,-0.101054564
-6.7237134,-0.31801704,1.8937081999999998,-0.7088479999999999,0.12875293,0.010698868
-4.2178655,-0.08398859,1.0050858,-0.7785914,0.1558928,0.053825952
-1.5163246000000001,-0.035845987,0.8005061,-0.8211774,0.13034119,0.031991884
0.130484,-0.62234885,0.9426834000000001,-0.8392765,0.078173295,-0.015376351000000002
0.051666874,-0.259474,0.89614016,-0.90102625,-0.03890339,0.010698868
-1.3768001,0.92397034,0.7523251999999999,-0.9601056,-0.21724114,0.030403635
-3.8477212999999995,0.78703153,1.4071394,-0.9792868,-0.32211795,0.022410028
-5.5768523000000005,-0.23935314,2.5006,-0.88345075,-0.23321089,-0.06965609
-6.292192,-1.5662773,-0.4056544,-0.7753974,0.50138074,-0.28684485
-11.149146,-1.9388341,-2.5628588,-0.7780503000000001,1.1619879,-0.41407937
-15.272622,-1.8759816000000002,-1.0201981,-0.42140976,0.89956015,-0.460924
-15.270026999999999,-2.2733232999999995,-1.5406592,-0.08496263,0.83301073,-0.5833588000000001
-15.564648000000002,-3.0940842999999996,2.970151,0.25303784,0.39065704,-0.5391670999999999
-13.904392999999999,-6.2855362999999995,6.5299935,0.6373768,-0.13206907,-0.5695184
-12.565384,-6.5977397,4.4633474,0.4723559,0.0840376,-0.40875609999999996
-13.350203500000001,-4.1806209999999995,4.7131300000000005,0.36322048,0.41940263,-0.021223204
-15.330715,-3.171235,8.349635000000001,0.7677878,0.09787806,0.16242033
-15.964671,-3.1378214,6.6773133,0.8061151999999999,-0.25078636,0.42910665
-13.34165,-1.2854469,3.6995682999999997,0.6256656,-0.23959879999999997,0.77298886
-11.819149000000001,-0.5750776999999999,3.3791857000000003,0.5298470000000001,-0.21404718,0.8240921
-9.794736,-0.9604771000000001,2.9256282000000002,0.55274576,-0.21191788,0.7314675
-8.820258,-1.428649,2.344201,0.536235,-0.011239921000000002,0.5898689
-7.0241565999999995,-2.0495324,1.9343139,0.60969585,0.010035643,0.32742378
-4.931347,-2.0676707999999997,1.5720136,0.79813904,0.11437143,0.021886429
-4.247946,-1.1499158999999999,0.81258243,0.91312134,0.15004596,-0.21020745
-3.9421199999999996,-0.6090656999999999,0.33416352,0.92003286,0.08136725,-0.33742452
-3.9735224000000002,-0.6832094,0.32848448,0.8987398000000001,-0.0021816615,-0.35178855
-4.4289955999999995,-0.92116433,0.2688497,0.9014101999999999,-0.06393141,-0.25703463
-5.1505410000000005,-1.3417584999999999,0.1716068,0.95197237,-0.07246607,-0.11597713
-6.0868554,-1.7383533,0.84318995,1.0211747,-0.104929194,0.05274385
-6.1138334,-1.499115,0.48520893,0.9935111999999999,0.088296205,0.19648917
-7.0953603,-0.9914868,-0.69683725,0.9115331,0.49232247,0.25717425
-9.291016,-0.95760405,-2.0094726,0.8268846,0.8926312,0.25928609999999996
-11.355134,-1.7580813999999998,-3.1890862,0.7975979999999999,1.1556,0.20818287
-13.309626000000002,-2.5959562999999997,-1.1044644,0.8699943000000001,1.219479,0.12568116
-17.17267,0.0020398598,4.2831306,0.8385958,0.60730475,0.3237062
-17.418478,3.6384778,7.405055,0.6379178000000001,-0.014957472,0.13261011
-17.403997,3.3528879000000003,5.316756,0.43135813,0.23361231,-0.05581563
-15.324307999999998,-1.0538988,5.0594363,0.07098254,0.21498966,-0.013770646999999999
-13.367882,0.44431594,5.9256873,0.10131636,0.010035643,0.0490263
-11.466464,0.652487,4.373833,0.23013912,-0.28112018,-0.1335526
-10.511379,0.42470264,2.5761323,0.1625425,-0.15549138,-0.18146189
-8.991559,1.0054115,1.2520813,-0.08337438,-0.24333379999999996,-0.17081538
-8.268892,1.4341843,0.39430588,-0.43949136,-0.29283133,-0.07126179
-8.183352000000001,1.2746826,0.43809104,-0.6976779000000001,-0.39610246,0.02666863
-7.424065,1.0600951,0.39446867,-0.8509876000000001,-0.5244015999999999,0.10278243599999999
-6.458474,0.5668991,0.21214543,-0.9931271999999999,-0.57176983,0.15549138
-5.5469919999999995,-0.09007944,0.09196607,-1.0814933,-0.5595351,0.14590952
-5.378143,-0.43519880000000005,0.16225027,-1.0852108,-0.5180137,0.10386454
-5.74188,0.03583641,-0.12996684,-1.1277968999999999,-0.47010443,0.042638395
-6.1067656999999995,0.031737536000000004,-0.30029035,-1.1927406,-0.38652062,-0.049968775
-6.3627634,-0.07217082,0.3326887,-1.2619428999999998,-0.36789796,-0.1404641
-6.4577847,-0.20012653,1.3007218999999999,-1.2869708999999998,-0.33276448,-0.18146189
-6.2453327000000005,-0.29333758,-0.37797743,-1.3359448,-0.07192502,-0.19104373
-6.914952799999999,-0.47669512,-3.026089,-1.5627153999999999,0.35020033,-0.17133898
-10.520774000000001,-0.50142246,-2.6020088,-1.5909200000000001,0.7148345,-0.10533062
-13.448920999999999,-0.34704432,-2.8164241000000003,-1.4456038,0.7755196,-0.11864748
-15.135520999999999,-1.6481013999999998,1.216695,-1.1911523000000002,0.42844343,-0.17027432
-14.962209,-5.2409360000000005,5.2344045999999995,-0.6886197,-0.12248721,-0.2533171
-13.375829999999999,-6.7992835000000005,5.435048,-0.40489894,0.21605429999999998,-0.16973327
-13.424222,-5.0817695,5.282289,0.04543092,0.42205550000000003,0.02560398
-13.395453,-3.9504328,7.661005,0.5378232,0.21551326,0.08522443
-15.213984,-3.2808704,6.804781,0.5846853,0.06274459,0.20820032
-14.130492000000002,-0.7248972,4.869231,0.4494572,0.017488198,0.40249038
-11.343469,0.30735803,3.0989397000000003,0.33608059999999995,0.0866905,0.43388885
-9.4174,-0.012258313,1.9645479,0.24610887,0.14844026,0.41898373
-7.821339599999999,-1.3901502000000001,1.5242542,0.23439772,0.2213601,0.38119736
-6.1430426,-2.2928696,1.0855215,0.35044464,0.1473756,0.30613074
-3.9319017,-2.4442692000000004,0.71897876,0.5229180999999999,0.014835299,0.11929326
-3.4839466,-1.8383926,-0.048094723,0.61660737,-0.037315138,-0.10161307
-3.352093,-1.1380311,-0.31372663,0.66825163,-0.14857988,-0.20701350000000002
-4.285947,-0.48494077,-0.50555,0.7012384,-0.12144001,-0.21605429999999998
-5.9694824,-0.16684712,-0.79188704,0.7220078000000001,-0.19116591,-0.121300384
-6.7921586,-0.7211048000000001,-0.52937716,0.8295375,-0.30030134,0.02560398
-7.4764886,-1.5936763999999999,0.38352236,1.0563082000000001,-0.41208968,0.10119419
-7.9677978000000005,-1.607601,0.23194069,1.2527275,-0.3620511,0.08309512599999999
-8.915815,-1.0957112,-2.2819903,1.3096951000000001,0.20964895,0.13578662
-11.822942,-0.48570690000000005,-3.5291777,1.3011778999999999,0.7664788,0.29016098
-14.095834,-1.2140038999999998,-1.0174303,1.4103132,0.7483797,0.4275184
-17.652353,0.91684514,7.500364,1.407643,-0.2390752,0.5313131
-16.196285,4.7689047,6.866034,1.1909778,-0.33276448,0.45944047
-13.460643,1.4557608,1.2167046000000001,0.47233847,0.453454,0.28696704
-12.783792,-2.0110624,4.344729,0.17797123,0.42044982,0.018151425
-13.620844,-0.33187467,7.174445599999999,0.29562387,0.16814502,-0.1356819
-14.7125225,0.49053362,5.0876980000000005,0.31691688,0.04783947400000001,-0.30283207
-13.86917,0.39943904,2.280592,0.119415425,0.050492376,-0.15910421
-11.139741,0.5527350000000001,1.3261867,-0.13980088,-0.004310963,-0.0031241393
-9.2169485,1.0700071000000002,0.5761215000000001,-0.36337754,0.13939945,0.15282103
-7.3719864,1.2810128,-0.19025284,-0.58803636,0.10850712,0.22575834
-5.386044,1.2451285,-0.23971705,-0.7887143,-0.014433873,0.22788765
-3.5903928,0.9562537,-0.26840916,-0.9590584000000001,-0.16454963,0.20285963
-2.5938687000000002,0.4185735,0.05269159,-1.0452951,-0.27686158,0.12993976
-2.2364526000000002,0.56155527,-0.05344816,-1.0942690000000002,-0.39292598,0.026651177999999998
-3.1948516,0.57029885,-0.21359152,-1.1256676,-0.20287707,-0.097354464
-5.1632586,0.2459324,0.16089994,-1.0926633999999997,-0.120898955,-0.27302185
-6.6468973,-0.07426813,0.6384953,-1.0192199,-0.06447246,-0.40236822
-7.7862789999999995,-0.07242939,-1.5985988000000002,-1.0341076,0.09998991,-0.44176027
-10.221919999999999,0.9953846,-4.710592,-1.347656,0.21497220000000003,-0.3140022
-11.877702000000001,1.9442354,-2.9064555,-1.5765558000000002,0.09201376,-0.11065388
-12.498681,1.1317104,-1.2638512,-1.5435517,0.016423548,-0.048904125
-13.332017,-1.5419903999999998,1.3233709999999999,-1.3359448,-0.105993845,-0.08990191
-14.471599,-4.67014,7.2677336,-0.74134606,-0.37535050000000003,-0.18997909
-13.249944000000001,-7.151327,1.433648,-0.6604151,0.10053097,-0.16123351
