accx,accy,accz,gyrx,gyry,gyrz
-8.446418,0.35717657,-0.3155845,-0.17306685,-0.28572786,-0.08379326
-8.007063,0.23582888,-0.52696383,-0.1783901,-0.32885495,-0.18387043
-7.9825177,0.8051988,-0.87875825,-0.17999579999999998,-0.32459635,-0.26106635
-7.8329277,0.8860556999999999,-0.76139444,-0.20074777,-0.29000390000000004,-0.30791098
-7.551761999999999,0.47469357,-0.5729420000000001,-0.23109904,-0.27455774,-0.33506832
-8.162149000000001,-0.45985909999999997,0.21631134,-0.24919811,-0.30597368,-0.36168459999999997
-9.846634,-0.9580638000000001,1.4579538,-0.14536847,-0.33950144,-0.32918656
-10.881015,-0.7248398,1.5548423999999998,0.03239331,-0.38421679999999997,-0.29194123
-10.315522999999999,0.26295040000000003,-1.1819886,0.025464353999999998,-0.21015509999999998,-0.27970648
-10.082376,1.1324382,-2.7236822,-0.028815385,0.10124655,-0.26532495
-11.27035,0.76307034,-1.7349151000000003,-0.092153385,0.24497442,-0.20676915
-13.348316,-1.5087013999999999,-0.4345476,-0.006457718,0.2976659,-0.127985
-13.223510999999998,-1.0357028,0.91448927,0.10266027,0.030455995,-0.061435588
-13.648539000000001,-1.8501528999999999,4.5116625,0.35391787,-0.20748474,-0.013002703000000001
-13.381596,-2.6448076,3.7486398000000003,0.5136155,-0.35334190000000004,0.0034906585
-10.854908,0.055823207,-0.15968367,0.38426915,0.04749041,-0.021519909
-10.675487,1.6678679,1.5204426000000002,0.2639636,0.06930702,-0.038554322
-11.620622000000001,-0.20353587,4.3893476,0.32251940000000007,-0.45235443,0.056723199999999994
-10.259537,-1.6279614,4.335229,0.30229104,-0.6493148,0.15838863
-8.708122999999999,-1.452792,3.5399995000000004,0.3123965,-0.40496874,0.15413003
-8.303253999999999,-0.6556091,2.4926033,0.3571118,-0.20109683,0.07747517
-8.924539999999999,-0.07145255,2.8082645,0.43856633,-0.14412929,-0.003944444
-9.520371,-0.028605923,2.4647636000000004,0.53597313,-0.038728856,-0.06091199
-9.427275,-0.96647215,1.6078118000000001,0.5657833999999999,0.021921335,-0.10775663
-9.044413,-1.3819523999999999,1.3747983999999998,0.56047755,0.03417355,-0.12424999
-8.354873,-1.2881093000000001,1.3548788,0.59774035,-0.011588986,-0.15458381
-7.983217,-1.0869293,1.2943246000000002,0.64243823,-0.017976891000000002,-0.19079939999999998
-8.036415,-0.8048635999999999,1.2139752000000001,0.6860889,0.015009831999999999,-0.20835741
-8.673847,-0.44320506,0.894761,0.64669687,0.027785642000000003,-0.18013543
-8.941003,-0.17890432,0.5804406999999999,0.5583483,-0.07227408,-0.1269029
-8.469412,-0.23946805,0.55228484,0.52693236,-0.13295919,-0.08911651400000001
-8.225491,-0.285973,0.32989228,0.50455725,-0.106883965,-0.058241636
-8.383028999999999,-0.24271458,0.1871787,0.460924,-0.081855945,-0.02417281
-8.366194,-0.05029739,0.09814312,0.4002389,-0.04724606,0.009337512
-8.312238,-0.17051505,0.014614208,0.32410765,-0.014241886,0.026371923999999998
-8.470101,-0.48329356,0.33914346,0.23841198,0.0011693706,0.038624137999999995
-8.674796,-0.7854323000000001,0.66345245,0.2059314,0.048014008,0.052988198
-9.08589,-0.6698689,0.5880350999999999,0.23841198,0.13053317,0.074298665
-9.68717,-0.39118382,0.27199087,0.30974358,0.23006929999999998,0.09398598
-10.100045,-0.007814675,-0.52215624,0.34700635,0.33334044,0.14189526
-10.357268,0.15554649,-1.1391228,0.4002389,0.43341762,0.19406316
-10.634958000000001,-0.6979673000000001,-1.0978564,0.54716074,0.56597537,0.25316
-11.422028,-1.4072351,-0.9138476999999999,0.662143,0.70225066,0.28297022
-12.525362,-1.0869676000000001,0.22739169,0.5844235,0.6692465,0.30852184
-14.04999,0.6634045,3.2777772000000005,0.5290617,0.45205772,0.32981488
-15.267220499999999,2.0663016,4.5657907,0.3438124,0.2881015,0.36068973
-12.524538,-1.0550864,2.3634026,0.29696777,0.07304203,0.22919664
-9.79105,-2.8435933999999996,2.3193588,0.44017205,0.06717772,0.15734144
-8.100666,-2.3299507999999998,2.2827563,0.4481482,-0.06801548,-0.044942225999999995
-8.923592,-0.60861564,2.4119667999999996,0.3278601,-0.14306463,-0.1444609
-10.052085,0.64046806,1.7767754,0.17027432,-0.13189453,-0.1285086
-10.02617,0.8772068000000001,1.2645311000000001,0.060615286,-0.0893085,-0.02576106
-9.163357000000001,0.4645613,0.9989087999999999,0.007906342,-0.050440013,-0.010332349000000001
-8.754092,-0.09054871,0.9252153000000001,-0.0032463125,-0.0099832835,-0.030560715
-8.598756,-0.18704462,1.0442742,-0.036233034,-0.025411992999999997,-0.04173082
-8.51721,0.28039932,0.94202256,-0.09000663,-0.04351106,-0.008726646
-8.620322999999999,0.8828858,0.829361,-0.15069173,-0.037140608,0.022654373
-8.886386,0.8693251000000001,0.5791095,-0.20446531,-0.07812094,0.05300565
-8.903184,0.46778869999999995,0.46904328,-0.2768441,-0.19256218,0.10252064
-8.698317,-0.19560628,0.41056728,-0.38330922,-0.26282912,0.12061971
-8.652875,-0.41208999999999996,0.39009207,-0.46582840000000003,-0.27881634,0.08759808
-8.957321,-0.2142236,0.32659784,-0.48392743,-0.24687682,0.033841934
-9.063461,-0.019613299999999997,0.20394768,-0.44453534,-0.2213252,-0.0034033920000000003
-8.76137,0.037790082,-0.07969819,-0.42058945,-0.21385519,-0.04066617
-8.601543,0.03079901,-0.07015011,-0.41046652,-0.230366,-0.07154105
-8.332089,-0.17347427,0.079487495,-0.40727258,-0.23888321,-0.10028662
-8.373260499999999,-0.25930163,0.18194975,-0.39023817,-0.18565068,-0.10560987
-8.905194999999999,-0.38139632,0.2015439,-0.35671040000000004,-0.13615313,-0.10028662
-9.835525,-0.3515167,0.28486213,-0.30986574,-0.094631754,-0.08592256
-10.068039,-0.14309666,-0.25897600000000004,-0.32368878,-0.07705629,-0.09548696
-9.858021,-0.08971552599999999,-1.0485646,-0.3982143,0.06771877400000001,-0.14500195
-10.003252,0.30521283,-1.9299947,-0.56217057,0.18111281,-0.19237019
-10.993293,0.06834967,-1.0412958,-0.79960513,0.20238838,-0.16044812
-11.927032,-1.2364518999999998,0.34954387,-0.7687303000000001,0.14065608,-0.14767231
-11.9032135,-1.4780556999999999,1.9200061999999998,-0.77777106,-0.00572468,-0.14767231
-13.858272,-3.111811,5.6586003,-0.58719856,-0.13774139,-0.12103858599999999
-13.8429,-3.4378437999999996,4.4062980000000005,-0.38652062,-0.24898867,-0.10295697
-11.334304,-0.064308256,1.9796697,-0.32742378,0.009704031,-0.07632325
-11.657167,1.5960802,2.413949,-0.49244463,0.06026622,-0.04918338
-11.013079,0.526552,3.6277137,-0.52970743,-0.4108156,0.11901400000000001
-9.019264,-1.3727586,3.4822802999999998,-0.5206492,-0.42252675,0.17385225
-8.261279,-1.6560788,2.769373,-0.533425,-0.2846632,0.11210250000000001
-8.455344,-1.0622209999999999,2.361037,-0.49455649999999995,-0.1675516,0.017872171
-8.834087,-0.59402055,2.0464966,-0.43175954,-0.14252359,-0.019896753
-8.44185,-0.7758361999999999,1.9498282999999998,-0.36521015,-0.13826498,-0.03799582
-8.090487,-0.9225242,1.6675711,-0.307719,-0.06799803,-0.048642326
-8.075325999999999,-1.0168078999999999,1.2619837999999999,-0.30079004,-0.037664205,-0.03160791
-8.101308,-1.2663028,0.8967243,-0.31944759999999994,-0.07492699,-0.0028797933
-7.989863000000001,-1.3295194,0.7518751,-0.34126422,-0.077597335,0.012548917
-8.400660499999999,-1.2470726,0.8067981,-0.34232888,-0.047769662000000004,0.029059732
-8.755855,-0.91339755,0.8234713,-0.307719,-0.051504667999999997,0.06525786
-8.597052,-0.89848644,0.7404021,-0.2640683,-0.050440013,0.11901400000000001
-8.40067,-1.041497,0.45830768,-0.22361158,-0.0014660766,0.17650515
-8.337932,-1.2964122999999999,0.37236540000000007,-0.18528415,0.020350538,0.21111503
-7.999756,-1.3269144,0.441395,-0.14110987,0.09114109,0.21855013
-8.002227,-1.3301418999999999,0.4639963,-0.08787732599999999,0.17844246,0.20099212
-8.437655,-1.6690842000000001,0.5697721,-0.07508406,0.24712117,0.21324433
-9.37964,-1.1522622,1.1499639,-0.019198623,0.277455,0.26061258
-10.12755,0.07075345,0.37117788,0.0068591437,0.38126716,0.26806512
-10.5349,-0.4275661,-0.10217495,0.022828907000000002,0.37594393,0.28351128
-10.108319,-1.227555,-0.47593856,0.15379842,0.45046946,0.29468140000000004
-10.205542999999999,-2.2266076,-0.42269152,0.26343998,0.56916934,0.25528932
-11.426317999999998,-1.3670604,-0.15809393,0.2799508,0.68256336,0.18236946
-12.369164,0.28641358,0.4906581,0.27408649999999996,0.58780944,0.18502235
-13.127120999999999,0.48113877,1.9405580000000002,0.27675685,0.5143485,0.17278759
-13.347914000000001,-0.2571564,2.9581416000000003,0.18411478,0.34985125,0.16585864
-12.785746000000001,-1.1839232,3.021655,0.21500711,0.21889919,0.12007865
-10.788589,-0.59806204,3.2269816000000002,0.46732935,-0.04722861,0.06686357
-9.266364999999999,-0.6247716999999999,3.158,0.6121219,-0.14997615,-0.11145672
-9.647378,-0.66215956,2.5683656000000004,0.52640873,-0.14465289,-0.20727529999999997
-10.613621,0.06829221,1.521477,0.35660568,-0.12709488,-0.15510741
-10.353006,0.6622840999999999,1.0055264000000002,0.1937141,-0.13507102,-0.024155356
-9.597560000000001,0.8389283000000001,1.1178911,0.16496852,-0.09728465,0.03757694
-8.937814,0.42724052,1.0514663,0.14261085,-0.11006046,0.05087635
-8.461981,0.18036,0.7394826999999999,0.099483766,-0.14306463,0.05087635
-8.292863,0.520442,0.6037123000000001,0.038816124,-0.13667673,0.046094145999999996
-8.395576,0.9026811,0.5634706,-0.0005585053599999999,-0.13241813,0.039165188
-8.479066,1.2245671999999999,0.26595747,-0.017592918,-0.15049975,0.042376593
-8.520878,1.0861344,0.07672938,-0.041015237999999996,-0.15901695,0.032253683
-8.475465,0.40041587,0.20433074,-0.07881907,-0.19416788,-0.007120943
-8.269199,0.08166143,0.20868820000000002,-0.11021754,-0.24047147,-0.06354744
-8.203128999999999,0.38286158,0.016290146999999998,-0.14748032,-0.22076669999999998,-0.13646729999999999
-8.39498,0.72916853,-0.26527756,-0.17676695,-0.20799088,-0.18969983
-8.149508,0.97852933,-0.36889859999999997,-0.19326031,-0.22982496,-0.23069762
-7.607997,0.99042374,-0.24902572,-0.21509437,-0.13028882,-0.27487192
-7.611148,0.49061980000000005,-0.6408416,-0.26087436,-0.02008874,-0.3163933
-8.495987,-0.37381148,0.20162052,-0.24809855,0.024609142999999997,-0.35100317
-9.954737,-1.7605714,1.0682448,-0.16877334,0.036320303,-0.40849432
-10.784079,-1.479473,0.5913391,-0.08840092,-0.034470253,-0.41861722
-10.455269,0.41862136,-0.81715065,-0.047926743,0.05974262,-0.39784780000000003
-10.392980999999999,1.4638436000000001,-1.3991907,-0.12992232,0.23914501,-0.34035665
-11.383643,0.9814503000000001,-1.0141742,-0.14643313,0.415336,-0.26583108
-12.157680000000001,0.0995126,-1.1250641000000001,-0.16823229,0.29770082,-0.2008874
-12.503287,-0.99230087,0.15719370000000002,-0.2885553,0.0347146,-0.12903219999999999
-12.646365,-3.4214866,4.0401964,-0.1176701,-0.25696483,-0.11623893
-13.359922000000001,-4.01205,4.168487,0.059044488,-0.25590017,-0.060877085
-12.652772,-1.9331167,2.2840588,0.26984537,0.06719518,0.018954275
-11.455910000000001,1.4426789,2.1468902,0.29326767,0.07199483,-0.020420352
-11.415649,0.30775067,3.156161,0.20118411,-0.26921704,-0.03052581
-9.901882,-1.5266292,3.7463317000000003,0.13091715,-0.35332444,0.07325147
-8.448189999999999,-1.4412806,2.662199,0.15008086,-0.19308577,0.07377507
-8.000685,-0.89975053,2.0557093999999996,0.1969255,-0.10578441,0.012042772
-8.37757,-0.78417766,2.1716273,0.24109977,-0.044034656,-0.04490732
-9.127654,-0.696435,1.9903287,0.27197465,-0.031799898,-0.08271115
-8.938877,-0.95831275,1.7334307,0.28581512,-0.062674776,-0.11039207
-8.582274,-1.1114362,1.3196648000000002,0.25281096,-0.039252456,-0.13220869
-8.34522,-1.0964391000000002,1.0718458,0.24057618,-0.06000442,-0.12795009
-8.251042,-1.102415,0.8742954,0.21767746,-0.08396779,-0.11677998
-8.267657,-1.1921688,0.57278883,0.19266689,-0.096202545,-0.100810215
-8.574546,-1.0881455,0.3893355,0.14688691,-0.092484996,-0.061941735
-8.854189,-0.7309785,0.21559308,0.09417797,-0.09780825,0.009896017
-8.698145,-0.6328640999999999,0.22357056,0.078749254,-0.11749557,0.078574724
-8.572305,-0.71269643,0.086976565,0.0776846,-0.07490953,0.13341297
-8.453812,-0.7640664,-0.19216819,0.07075564599999999,-0.031799898,0.18236946
-8.359413,-0.9440529000000001,-0.38393417,0.06169739,-0.039252456,0.22336724
-8.319602,-1.0707253,-0.23155762,0.04680973,-0.04457571,0.25424212
-8.325194,-0.8596334000000001,0.16235560000000002,0.029757863,-0.066392325,0.2648886
-8.386745,-1.1737239,0.5672246999999999,0.047856927,-0.06480408,0.27340582
-9.034146,-1.2767893999999997,1.1027501,0.12665854,0.0043807765,0.29044023
-9.608611,-0.41248265,1.0607558000000001,0.25494024,0.07305948400000001,0.26808256
-9.980115,-0.25025153,-0.11184753,0.302867,0.2785371,0.19568631
-10.156041,-0.33909559999999994,-1.8046726000000002,0.30710813,0.43449970000000004,0.16746435
-11.395643,-0.9192106,-1.6190838,0.14475761,0.57663935,0.14458308
-13.597829999999998,0.23028389,-0.72913975,-0.15013322,0.6053849,0.18877481
-13.774780999999999,0.25597847,0.96010363,-0.32792990000000005,0.36210346,0.19462167
-12.820069,-0.8887851999999999,1.9553063000000002,-0.42481315,0.4041659,0.14831808
-12.151541,-1.7317452000000002,2.526735,-0.31196016,0.53885293,0.11211995
-11.808845,-1.6571706999999998,2.7998657000000002,-0.06815511,0.34028685,-0.023614304
-10.646163,-0.5736316,3.69138,0.20331341,-0.11962487,-0.14870206
-10.638961,-0.6405447,3.913562,0.18999654,-0.25483552,-0.23760912
-11.181018,-0.36704072,2.590057,0.08087855599999999,-0.21917845,-0.24719098
-10.904314999999999,-0.5194077,1.4407348999999998,0.0004886922000000001,-0.23460716,-0.13646729999999999
-10.143783,-0.5453034000000001,1.1974074,-0.020786871999999998,-0.18456857,-0.04223697
-9.421624000000001,-0.6167942,1.0226018,-0.0005410521,-0.21064378,-0.015620696000000002
-8.59077,-0.31272104,0.948305,0.047350783,-0.26919958,-0.022008602000000002
-7.717939,0.2226033,0.53648317,0.02284636,-0.20799088,-0.00710349
-7.095034599999999,0.6075814,0.20258777,-0.046862092,-0.14943509,-0.0017802357999999999
-7.232787599999999,0.7602548000000001,0.17445111,-0.09424778,-0.12868312,0.02427753
-7.504442999999999,0.5574564000000001,0.42215519999999995,-0.08093092,-0.15475835,0.036529742000000004
-7.7439113,-0.16903064,0.47409025,-0.04527384,-0.20799088,-0.03478441
-7.6979619999999995,-0.44462240000000003,0.35819173,-0.037803832,-0.26600564,-0.11623893
-7.773226299999999,-0.19746417,0.04830541,-0.051120695,-0.24099506,-0.20725785
-8.21599,0.21379264,-0.21347660000000002,-0.07667231599999999,-0.19467403,-0.27858946
-8.286274,0.6860729,-0.20237708,-0.121387646,-0.18989182,-0.31107002
-7.6338740000000005,0.47417644,-0.12104126,-0.18898425,-0.10950196,-0.32489303
-7.876607400000001,-0.59573483,-0.34613449999999996,-0.2432989,0.028867746,-0.29297096
-9.356827000000001,-0.82954305,0.04669651,-0.250734,0.12096877,-0.23174481
-10.797027,-0.24782862,0.24531949,-0.22891739,0.17900097,-0.17318901
-11.901682000000001,0.27312094,0.026872521,-0.21560052,0.2652377,-0.10079276599999999
-12.097729,0.45961009999999997,-0.36392823,-0.21188296,0.38500217,-0.027872908999999998
-12.884195,-0.6335153,0.5964914000000001,-0.29492575,0.38128462,0.053564154
-13.704305999999999,-3.5642385,4.036930600000001,-0.12245230000000001,-0.020071287,0.104667395
-13.678142000000001,-4.188579,4.2995553,0.020210912,-0.20851448,0.13447762
-12.553537,-0.9644802,2.8364778,0.17404424,0.13322099,0.19355701
-11.963041,0.47134170000000003,2.2733521,0.11229448,0.150779,0.09827949
-11.809992999999999,-0.96231586,3.4439727999999996,-0.08464847,-0.28197540000000004,0.13021901
-10.409355999999999,-1.432901,4.018687,-0.17355554,-0.4155978,0.225514
-9.112083,-1.2185912,3.2387897999999997,-0.13151056,-0.3405312,0.22762585
-8.551552000000001,-1.1901864,2.5740925999999997,-0.054838244,-0.2841047,0.13554227
-8.923189,-1.2037089,2.4455717,0.014346606000000001,-0.1707281,0.046111599999999996
-9.090716,-1.2074341999999998,2.0197008000000003,0.061191242,-0.18350391,-0.008709193
-8.554808999999999,-1.0457681,1.4288788000000001,0.029251719,-0.1664695,-0.015620696000000002
-8.003826,-1.0263368,1.0897543,-0.03673918,-0.11908381400000001,0.0067195175
-7.7869399999999995,-1.0583904,0.9261729999999999,-0.08571312,-0.095137894,0.03227114
-7.684400999999999,-1.2185816999999999,0.7641526,-0.1187173,-0.06478662,0.058346357
-7.958230499999999,-1.3210151,0.45157516,-0.16716763,-0.02380629,0.09934414
-8.364901,-1.0797659,0.3471784,-0.19963075,-0.07703883,0.15470599
-8.340182,-0.91311026,0.370632,-0.19750145,-0.14198254,0.22657864
-8.106499000000001,-1.0963528,0.46226287,-0.15810938,-0.15102334,0.3053628
-8.044585000000001,-1.3736492,0.46393883,-0.09157742599999999,-0.10311405,0.36815974
-8.051260000000001,-1.7616918999999998,0.47360185,-0.00853466,-0.032847095,0.40543997
-8.036703,-1.6483696,0.7663456,0.04841543400000001,0.08744099999999999,0.40276963
-8.2406225,-1.1049241,0.9555738000000001,0.104841925,0.18964748,0.38041195
-8.816628,-0.32383972,1.0040324,0.2006605,0.2865307,0.39479348
-9.218941000000001,0.19529982,0.18871099,0.22142991,0.41163590000000005,0.39638174
-9.4166155,-0.53206825,-0.041333499999999995,0.15968017,0.45313984,0.38573520000000006
-9.588844,-1.1847469,-0.16086161,0.18043214,0.5330060999999999,0.33943164
-10.520582000000001,-1.4934646999999999,0.47999915,0.21289526,0.6362598,0.21752039
-12.551009,0.08656476,1.346997,0.15329227,0.7475245,0.10520845
-13.6749525,1.3002334999999998,1.9254361,-0.028745572999999996,0.5835683,0.024818582000000002
-13.262670499999999,0.79674244,1.7330095,-0.07719591,0.58622116,0.012042772
-13.029954,-1.2425237,1.7990319,-0.029810224,0.6346715,-0.029984757
-13.666217999999999,-0.6085581999999999,3.4018733999999995,0.08567821,0.28546605,-0.015620696000000002
-12.100372,1.0689632,3.6723223,0.23099433,-0.3203028,-0.06885324
-10.629461000000001,1.2534603000000002,2.9338357000000004,0.1399754,-0.35650095,-0.14337879999999997
-10.427572,0.06834009,1.8209053,-0.07347836,-0.29155725,-0.10611602
-9.981484,-0.17977582,1.3302664,-0.21240658,-0.27078784,0.03281219
-9.459491,0.4901218,1.1761469,-0.22944099,-0.22715460000000004,0.09189159
-8.893406,0.6613264,1.4196371,-0.19856611,-0.25003588,0.080721475
-8.330836,0.6562124,1.1103063,-0.20921262,-0.25590017,0.08391543
-7.676356299999999,0.695688,0.85108125,-0.22570598,-0.21436134,0.09510299
-7.353646799999999,0.8363617,0.68927157,-0.22411773,-0.17231636,0.08337438
-7.508427,0.82807773,0.82982075,-0.19111355,-0.14837044,0.06260496
-8.092373,0.5173199,0.8292844000000001,-0.15543902,-0.15049975,0.018971728
-8.441208,0.1628057,0.94223326,-0.1229759,-0.16753416,-0.029461157999999998
-8.661887,0.15547946,0.74612904,-0.10859439,-0.14995869,-0.09121091
-8.886692,0.37927985,0.5765429,-0.1272345,-0.13878858,-0.14337879999999997
-8.864752000000001,0.6187096,0.06426038,-0.13414600000000002,-0.081297435,-0.18648843
-9.087949,0.46491566,-0.010888829,-0.1857903,-0.056269415,-0.21416935
-9.349846000000001,0.43763134,-0.08516654,-0.1831374,-0.0993965,-0.24452063
-9.063509,0.572875,-0.1604594,-0.19057249999999998,-0.14357078,-0.27485445
-8.822758,0.6328545999999999,0.05135084,-0.18685494,-0.15899949,-0.3041236
-9.24905,0.059424087,0.63125527,-0.16289158,-0.17924531,-0.31211722
-9.74646,-0.54915327,1.0418226000000002,-0.07665486,-0.20319124,-0.31159362
-9.34592,-0.12939224,0.14816278,-0.055361845,-0.18402752,-0.30253538
-9.657893,0.37603334,0.10066182,-0.09316567,-0.085014984,-0.2865656
-9.961602000000001,0.76710224,-0.22353224,-0.06707300000000001,-0.008883726,-0.2604904
-9.815928999999999,0.882656,-1.0401369,-0.12349949999999998,0.117774814,-0.25782004
-10.504263,0.56004214,-0.8680035,-0.23422319,0.18805923,-0.21416935
-11.255028,0.03702393,0.23677698,-0.22677062,0.20987584,-0.17264797
-11.888418,-0.9798893,1.9343616999999997,-0.16821483,0.13056809,-0.15721926
-13.006597,-2.1687347999999997,3.6128120000000004,-0.04790929,-0.07595673,-0.12208578
-13.346688,-2.261285,4.346635,0.08674286,-0.17818066,-0.076829396
-11.303074,-0.32332256,1.968752,0.15913913,-0.11376056,-0.084823005
-10.9516535,0.7091338,2.1050299999999997,0.0659909,-0.0072954763,-0.051818825
-10.953253,0.062210935999999994,3.3538074,-0.09103637,-0.35065409999999997,0.071663216
-9.617747999999999,-1.215268,4.025697,-0.10594148,-0.43209115,0.12117821
-8.697695,-1.7369071,3.5311506,-0.012252212,-0.3123092,0.056758105999999996
-8.643432,-1.7472884999999998,3.1322193,0.13199925,-0.17870426,-0.038501963
-8.924817,-1.006848,2.779448,0.25815165,-0.08395033,-0.13379695
-9.487829,-0.34415212,2.0937773999999996,0.29647908,-0.042952552000000005,-0.17104226
-9.328567,-0.4043328,1.7601596000000002,0.282115,-0.03817035,-0.14922565
-8.7717905,-0.860591,1.4343183000000002,0.2501755,-0.04935791,-0.12686798
-8.360476,-1.2101828000000001,1.2145306,0.19853120000000002,-0.059463367,-0.11782718
-8.254325999999999,-1.3268666,1.2444103000000002,0.14955726,-0.07382743,-0.10983357
-8.388881,-1.1427238000000002,1.3882538999999998,0.13465215,-0.07756243,-0.09334021
-8.536802999999999,-0.9872059999999999,1.4220409,0.16233307,-0.07756243,-0.06883579
-8.668503999999999,-0.81758153,1.3092451999999999,0.2038719,-0.05146976,-0.035831608
-8.747245,-0.7897035,1.2030097,0.26508059999999994,-0.022724187000000003,0.010978121
-8.703775,-0.7076207,0.8747838,0.29541442,0.007592181999999999,0.06314601
-8.575954,-0.73955935,0.5474677,0.2980848,0.042202063,0.10520845
-8.455947,-0.96961343,0.34223676,0.29914942,0.06988298,0.13608332
-8.422409,-0.9730131,0.56459105,0.30499628,0.07998844,0.16589354
-8.391361,-0.95013416,0.70829105,0.32895964,0.10182251,0.17601645
-8.45271,-1.1632565000000001,0.85860866,0.36569884,0.13322099,0.1685639
-8.970212,-1.2084206,0.9514366,0.39603266,0.18486528,0.1754754
-9.531901,-0.16532442,0.8416864,0.42371359999999997,0.25459117,0.20635028
-9.693185,0.41156328,-0.1934132,0.38699186,0.34988615,0.21273819
-9.702962,0.075359896,-0.70060086,0.37899825,0.41481242,0.2409427
-9.567536,-0.94167787,-1.0485071,0.36674604,0.52129495,0.20315632
-10.821619,-0.33555216,-0.27199087,0.3108606,0.6527706,0.14247122
-12.299656,1.0224582,0.14754029,0.18097319,0.64212406,0.10307915
-12.760060000000001,0.7952005999999999,0.5012595999999999,0.005846853000000001,0.4834911,0.034417894
-12.545914,0.46654373,1.4811968,-0.24221679999999995,0.40631264,-0.05820673
-11.688531,-1.0452223,1.746436,-0.29064968,0.54258794,-0.07363544400000001
-11.742966000000001,-1.7580527,1.1274773999999999,-0.17938495,0.6399948000000001,-0.12313298
-11.854353999999999,-0.5534724,2.253212,-0.09368927,0.30462977,-0.13910274
-10.753873,0.09377609,3.1565635,-0.042586032,-0.032847095,-0.14655529
-10.197739,0.28414387,3.1191084,-0.033004176,-0.11534881,-0.12632693
-10.054689,-0.37991193,2.1858772999999996,-0.06387905,-0.14463544,-0.0853466
-9.635168,-0.9189424999999999,1.2681702,-0.11126474,-0.13505358,-0.02146755
-9.309182,-0.22471020000000003,1.0039175,-0.15383331,-0.11376056,0.029618237000000002
-9.004850999999999,0.26339093,1.2590053999999997,-0.1884432,-0.11908381400000001,0.04399975
-9.12866,0.23563732,1.2108531,-0.2491283,-0.12599532,0.07220427
-9.035286,0.46906242,1.1589756000000002,-0.2533869,-0.16751671,0.100949846
-8.665191,0.7029089,1.1168376,-0.21399482,-0.17603391,0.11533136
-8.487598,0.22722889999999998,1.0814992,-0.18044959,-0.17231636,0.08339183
-8.541449,-0.1716068,0.8102649000000001,-0.16289158,-0.20371483,0.040805798
-8.630772,-0.10092997,0.79056543,-0.15118042,-0.24523622,0.0013962634
-8.831837,-0.027791892999999998,0.8049976,-0.14318681,-0.2516241,-0.033702306
-8.938053,0.21744139999999998,0.55669016,-0.14159857,-0.23884831,-0.06883579
-8.950388,0.4735348,0.22309172,-0.15116297,-0.23191935,-0.09119345
-8.892389999999999,0.34927574,0.14104721,-0.14159857,-0.20957914,-0.10609856
-8.910434,0.43073606,-0.01508347,-0.13414600000000002,-0.18455112,-0.12419763
-8.707961,0.6252409999999999,-0.00067995326,-0.1282817,-0.17283995,-0.15135495
-8.78537,0.42005790000000004,0.67435086,-0.12882276,-0.14941764,-0.16306610000000002
-9.077893,0.013417107,0.43266097,-0.11178834,-0.11056661,-0.17264797
-9.17685,-0.5012405,-0.31387985,-0.110182635,0.036878806,-0.20565215
-9.639937,-0.5290994000000001,-0.2191748,-0.13412856,0.118333325,-0.18594737
-9.967262,0.04503972,-0.21839908,-0.08995427,0.17474237,-0.15667820000000002
-10.155198,0.33571497,-0.05851429,-0.040439277999999995,0.25300294,-0.11993903
-9.916113000000001,0.26522967,-0.7433996999999999,0.011693706000000002,0.36957347,-0.09918706
-10.479343,0.026163835,-0.3202197,0.019146262,0.4142888,-0.042219516
-11.986236,-0.7531392,1.519255,0.08463102,0.31581733,0.00034906584
-13.226460999999999,-2.8783092,3.426093,0.26614526,0.08105309,0.011519173
-12.413764,-2.0803697,1.8932486000000002,0.29489082,-0.0072954763,0.017383479
-11.549745,-0.04180276,1.7399908,0.2778564,0.047525316,0.050387654000000004
-11.046981,-0.013321338,2.35034,0.2528284,-0.017400933,0.11159635
-11.072732,-0.47451162,3.6285946000000004,0.15702727,-0.24310692,0.14247122
-10.805875,-1.1089846,3.9098082,0.1410575,-0.37512362,0.15418239
-9.505258999999999,-1.6055133,3.4543733999999997,0.14371040000000002,-0.3889641,0.08445648
-8.982928999999999,-1.4882166000000001,2.5147355,0.15170401,-0.22022565,-0.017732546000000002
-9.445748,-0.6827976,1.8945606,0.16022122,-0.0977908,-0.07789405
-9.643251,-0.26155218,1.7243041000000001,0.13201670000000001,-0.11641346,-0.07415904
-9.1359005,-0.54471916,1.6542593,0.12721705,-0.060528017999999996,-0.061924282000000004
-8.735351,-1.0462661,1.3838965,0.10965904,-0.040282197,-0.047001716
-8.203664999999999,-1.4813501,1.3980222,0.09473647,-0.03817035,-0.04860742
-8.105053,-1.5066328000000002,1.2928019,0.08091346,-0.031241393,-0.06829473400000001
-8.38547,-1.1340758999999998,1.160709,0.07771951,-0.035499997,-0.07735299
-8.771014,-0.65140486,1.051859,0.08782497,-0.07702138,-0.05445427
-8.787036,-0.5438669,1.0212706,0.096342176,-0.08340929,-0.014014994
-8.848078999999998,-0.68144727,0.9789125,0.11285299,-0.05146976,0.03176499
-8.840245,-0.87533927,0.8775994,0.12988740000000001,-0.020594886,0.06742207
-8.862721,-1.0068671999999999,0.61473525,0.14531611,0.0054803337,0.09457939
-8.842255999999999,-1.0071353,0.3349105,0.15650368,0.032096606,0.12226032
-8.939058000000001,-0.9975968000000001,0.3141863,0.16821483,0.04113741,0.13768902
-8.832823,-0.7838808,0.5479466,0.19003145,0.05763077,0.13875368
-8.939375,-0.8004295,0.5826434,0.21612412,0.08265879,0.13184217
-9.417822,-0.8513398000000001,0.5089307,0.20867157,0.08000589,0.12651892
-9.791719,-0.38482484,0.45995486,0.193749,0.06295402,0.13449506
-9.869971000000001,-0.3762919,0.20460847,0.13573426,0.07253588,0.12171926
-9.80529,-0.20276015,-0.027782315,0.06600835,0.103428215,0.115872405
-9.531547,-0.27130136,-0.4711502,0.033004176,0.14547320000000002,0.1094845
-9.338527000000001,-0.5581267,-0.9227924000000001,0.02555162,0.24822073,0.094055794
-9.368961,-0.6956496999999999,-1.0572124,0.03778638,0.34934509999999996,0.07061602
-9.776176,-0.68772966,-0.8606771999999999,0.058014743,0.46273914,0.040805798
-10.68854,-0.25536555,-0.38729566,0.012234758,0.5665513000000001,-0.0076096356
-11.530064,-0.26895505,0.12864524,-0.104335785,0.5415233,-0.042219516
-11.99225,-0.3801801,1.1353209,-0.18577285,0.47499135,-0.07681194
-12.58446,-0.14863203,1.7524981,-0.28317967,0.48350856,-0.06723008
-12.361848,-1.4247128,1.3523886999999999,-0.26242772,0.49309042,-0.100234255
-11.631434,-1.9570205000000003,1.528219,-0.14264576,0.26738444,-0.05445427
-10.613592,-0.6288706000000001,2.668721,-0.093148224,0.015062191499999999,-0.06351253400000001
-10.415802000000001,0.2268075,3.0301015,-0.03672173,-0.13238323,-0.07468264
-10.19679,-0.24309766,2.1811082,-0.03939208,-0.18933332,-0.08852310000000001
-9.543451,-1.2907141000000002,1.4999865,-0.093148224,-0.21755528,-0.081611596
-9.025029,-1.0200448,1.2546766000000003,-0.13147566,-0.20530307,-0.058712877000000004
-8.944699,-0.011856087,1.3986543,-0.14318681,-0.22287855,-0.042743113
-9.065166,0.28496748,1.241001,-0.17884389,-0.20530307,-0.009738937
-9.152659,0.12188402,1.03577,-0.20333086,-0.21755528,0.035482544
-8.849946000000001,0.21724027,1.2624722,-0.18044959,-0.2223375,0.055710907999999996
-8.730466,0.08795339,1.2183326,-0.11763519,-0.19465657,0.0450644
-8.893291,-0.24678473,0.7809982,-0.080372415,-0.19626227,0.015254176999999999
-9.039442,-0.5822890000000001,0.63421446,-0.07824311,-0.22181389,-0.0022863813
-9.120078999999999,-0.49536990000000003,0.5869911999999999,-0.09580112,-0.25481808,-0.015062191499999999
-9.243859,-0.42372584,0.5077623,-0.100059725,-0.25694737,-0.022514747
-9.1894245,-0.3745489,0.32421324,-0.09047787,-0.25640630000000003,-0.034766957
-9.007255,-0.27156952,0.19022411,-0.06227334599999999,-0.24949482,-0.047001716
-8.857186,-0.18388426,0.16015294,-0.020210912,-0.23617795,-0.057648227
-8.778025,-0.2397458,0.008082825,0.019163715,-0.22181389,-0.06990044
-8.676108000000001,-0.19595104,-0.10895533,0.05003859,-0.21329668,-0.07946484
-8.8482895,-0.36115098,0.12593502,0.060667645,-0.21861994,-0.07895869999999999
-8.724672,-0.12843455,-0.26172456,0.059602994000000006,-0.20584413,-0.08267625
-8.823189,-0.32819718,0.22199039,0.018099063999999998,-0.19146262,-0.07681194
-8.991894,-0.5090359999999999,-0.09755893,0.03885103,-0.16058774,-0.08958775
-9.244981,-0.44320506,-0.041592073,0.03778638,-0.13716543,-0.10716321
-9.915778,-0.34817436,0.013876793,0.034068827,-0.110025555,-0.11780973
-10.512882000000001,-0.254858,-0.35498348,0.005323254,-0.08979719,-0.10875147
-10.680475999999999,-0.06082230000000001,-1.1692322,-0.05321509,-0.013665928,-0.10183996
-11.255707000000001,-0.13332829999999998,-1.440706,-0.16393878,0.06668903,-0.08852310000000001
-12.127493,-1.0648355,-0.72823,-0.16235052,0.08319984400000001,-0.05178392
-12.078469,-1.017392,0.27693254,-0.09047787,-0.025377087000000003,-0.033161256
-12.872914,-1.2009603000000002,2.647738,0.012252212,-0.15687019,-0.006544985
-13.421282000000001,-1.9529982,3.4813898,0.09688323,-0.33999014,0.004607669
-11.732105,-0.42416635,1.2435483999999999,0.013299409,-0.13184217,-0.020385446
-11.145632,0.49420154,2.2887037,-0.0707731,-0.025377087000000003,-0.059236474000000004
-11.112553,-0.7611838000000001,3.8626134,-0.10273008,-0.29208085,-0.016667895
-10.267083999999999,-1.5072649,4.412897,-0.16819738,-0.4858473,0.05199336
-9.175059,-1.4025329,3.7516184,-0.21717131,-0.38416442,0.08445648
-8.302219000000001,-0.48770848,2.8284812,-0.22355922,-0.2718525,0.05784021
-8.072376,-0.18951543,2.754845,-0.16287413,-0.19519763,-0.029967302
-8.558505,-0.66546357,2.7070377,-0.058014743,-0.059986967999999995,-0.08798204
-8.799266000000001,-1.2456169,2.2549547999999997,-0.022340214,0.003874631,-0.11566297
-8.4819,-1.5266197,1.8443686000000001,-0.018081611,0.031555552,-0.140691
-8.226189999999999,-1.2551267,1.5763136999999998,-0.021799162,0.054995324000000005,-0.140691
-8.172934,-1.1570506,1.6508787,-0.019146262,0.0906524,-0.108210415
-8.09265,-1.1542925,1.1118385,0.0042586033,0.10555751599999999,-0.080546945
-8.576816,-1.0557758999999998,0.78266454,-0.00424115,0.09810495400000001,-0.06403613
-8.880303999999999,-1.0580648000000001,0.56423676,-0.0058293995,0.0054803337,-0.02942625
-8.573397,-1.0600568000000001,0.54062986,0.0037350047,-0.044540804,0.01314233
-8.317839999999999,-0.96421206,0.3286377,0.013316861999999999,-0.079150684,0.07435103
-8.130364,-0.9462746999999999,0.15041333,0.01277581,-0.045605455,0.13343042
-8.169496,-1.3145604,0.14646769,0.02448697,-0.018465584,0.17336355
-7.9722705000000005,-1.3647238000000002,0.24834575,0.04098033,0.020909045,0.18879226
-7.9248743,-1.3412030000000001,0.42314163,0.030874874,0.10555751599999999,0.16324064
-8.365446,-1.5328158,0.5962424,0.035133477,0.18380062,0.15207054
-9.112217,-0.80942214,1.1080940000000001,0.0675966,0.31422907,0.19785053
-9.761878999999999,0.41947374,0.019776106,0.09901253,0.42121777,0.21968459
-10.409011999999999,-0.3788968,-0.5798085999999999,0.10752974,0.47605600000000003,0.25055948
-10.542025,-1.4415776000000002,-0.73962635,0.1943075,0.567616,0.26918212
-11.723248,-2.3825564,0.26116910000000004,0.21132447,0.60274947,0.22127284
-13.168223999999999,-0.42718303,1.2247396000000002,0.07559021,0.6341654,0.15845844
-13.771113,1.0475303,1.8438896,-0.013823007,0.44837508,0.14302973
-13.119928,0.50360596,2.018724,-0.014346606000000001,0.5234417,0.099902645
-12.5433855,-1.5484835,2.3008375,0.04951499,0.39140755,0.009407325
-11.981246,-1.0958931,3.9150177999999998,0.22251202,0.018779743,0.006213371999999999
-10.306942,0.012181697,3.7956907999999996,0.28532642,-0.26865852,-0.07255334
-9.432207,-0.26014438,2.306057,0.1272345,-0.12971286,-0.13962634
-9.71229,-0.8312285,1.3725383,-0.081437066,0.01452114,-0.0927817
-9.939212,-0.5082124,1.2570038000000001,-0.14318681,0.059777527999999996,0.043476153
-9.354444,-0.11129207,1.3516705,-0.08248426,0.012391837,0.08447394
-8.832124,-0.15876429999999997,1.2464597,-0.040439277999999995,-0.027506389,0.08447394
-8.252497,0.110353544,0.9300229,-0.023404865,0.0012217305,0.08340929
-7.958767,0.51530886,0.5956104,-0.027122416,0.026232297999999998,0.09192649
-8.028514999999999,0.5727984,0.6906505999999999,-0.024469515,0.017715093,0.087126836
-8.298849,0.30323043,0.6603783000000001,0.0069289569999999995,-0.047193702000000004,0.086062185
-8.409642,0.18374062,0.48346594,0.019163715,-0.098837994,0.08073893
-8.604904,0.07953538,0.5372972,-0.02979277,-0.14196508,0.06743952
-8.736958999999999,0.11625286,0.30689836,-0.08728392,-0.16804029999999998,0.042952552000000005
-8.525503,0.2566297,-0.015600618,-0.1357168,-0.16697565,-0.004415683
-8.367189,0.19756952,-0.38250723,-0.18416715,-0.13610077,-0.049131017
-8.293639,0.36080619999999997,-0.8126015999999999,-0.21823597,-0.12119567,-0.08691739
-8.273873,0.7973745,-0.9096339,-0.2544341,-0.13823007,-0.094911
-8.391169,0.5100416,0.37078520000000004,-0.21663027,-0.22607249,-0.092240654
-8.7642145,-0.6622840999999999,0.8264497,-0.08141961,-0.27717572,-0.118333325
-9.722892,-1.5396249,1.2395453,0.05003859,-0.26279423,-0.08958775
-10.77137,-0.8570763000000001,0.6912731,0.23795820000000004,-0.19891517,-0.049131017
-10.441238,0.85676986,-0.91686434,0.23157029,-0.020577433,-0.056583576
-10.48193,1.1391995000000001,-2.0450218000000002,0.16608553,0.24289747,-0.06723008
-10.51383,0.93428457,-2.7711449,0.043650682999999996,0.30571187,-0.08265879
-11.743262,0.40416998,-1.3593415,-0.0659909,0.23118632,-0.016126841
-11.314585000000001,-1.0104104999999999,0.73056674,0.08730136599999999,0.18381807,-0.08478809
-11.274382000000001,-0.64800507,2.3341648999999998,0.02289872,0.056583576,-0.039008107
-13.084753,-2.4198005,6.0459723,0.18259634,-0.069027774,0.046146505
-12.193191,-3.8051815,4.5705023,0.30449015,-0.31763247,-0.01558579
-11.485906,-0.34334770000000003,2.4255657000000004,0.16449729,0.12098622,0.09937905
-13.115964000000002,2.8816132999999997,3.550879,0.070266955,0.016126841,0.21062633
-13.134964000000002,1.3153169,4.0929546000000006,0.059620447,-0.4272915,0.3069685
-10.533041,-0.61110556,3.19602,0.050562188,-0.37938222,0.3373198
-9.52128,-0.80255556,2.438571,0.030874874,-0.16697565,0.18242182
-9.266977,-0.23094471,2.188923,0.02448697,-0.15100588,0.079150684
-8.247173,-0.18393214,1.4849701000000002,0.027680922,-0.21062633,0.007819075
-7.212389,-0.310346,0.5308903,-0.005305801,-0.18507472,-0.03954916
-6.8695107,-0.47274947,0.37632063,-0.054803338,-0.18294542,-0.07946484
-6.895942,-0.7622085,0.53446245,-0.10964158,-0.20210913,-0.10662217
-7.1134604999999995,-0.8111938,0.45604753,-0.14583970000000002,-0.1552645,-0.109275065
-7.5813255,-0.36208948,0.43705672,-0.12454669,-0.09564404,-0.07468264
-7.994747,-0.06734411,0.39497626,-0.060667645,-0.056793015,-0.019861847
-8.197401,-0.45448652,0.5040848,0.01277581,0.0054803337,0.041346848
-8.217263,-0.85147387,0.5087487,0.065484755,0.08267625,0.10150835
-8.029041000000001,-1.084286,0.47340070000000006,0.11711159,0.17102481,0.11534881
-8.0703945,-1.082409,0.27526614,0.15437438,0.28387779999999996,0.09403834
-8.759963,-0.78893733,0.7530722,0.16927949,0.36852628,0.07967428
-9.489274,-0.092799254,0.64393497,0.13575171,0.40153044,0.09299114
-10.500978,-0.17803283,0.080244064,0.017034413,0.52928853,0.098837994
-11.000216499999999,-0.6087689000000001,-0.59788966,0.054838244,0.52450633,0.11161379999999999
-10.314288000000001,-1.1437103000000002,-1.1095306,0.18205529999999998,0.5133188,0.09457939
-10.654533,-0.799376,-0.6216784000000001,0.310337,0.6820571999999999,-0.0076096356
-11.529594,1.0190488000000002,-0.51550037,0.24539329,0.72411966,-0.03689626
-11.814313,1.0003741,1.1535169,0.23635249,0.5223770000000001,-0.034749504
-12.884828,0.6626288,2.9104203999999996,0.17086773,0.45209265,-0.027838001
-12.844528,-0.6360915,3.9397642999999998,0.25818655,0.37065557,-0.02729695
-12.276078,-1.5172918,2.8128995999999997,0.44341835,0.24022712,-0.11194542
-10.952668,-0.15592957,3.1242322999999996,0.5477541,-0.06370452,-0.2098933
-10.528953,-0.22220106,3.021837,0.5072974,-0.14941764,-0.28441885
-11.104336,0.41937795,2.2091777,0.40350267,-0.02857104,-0.24555036
-10.914074000000001,0.50688124,1.6138356000000003,0.35187584,-0.057316612,-0.13376203
-10.005186,0.30838275,1.4138814,0.34601152,-0.021118484,-0.07574729
-9.385836,0.1413824,1.1004326,0.3162013,-0.06476917,-0.056042522000000004
-8.923506,0.43280459999999993,1.0790858,0.26563909999999996,-0.14142403,-0.028902652
-8.291829,1.0555459999999999,0.8928553,0.24752259,-0.20797344,-0.025708699999999998
-7.7665796,1.0660039,0.6271564000000001,0.23261748,-0.21968459,-0.03741986
-7.697263,0.7520571,0.58007675,0.22251202,-0.25427702,-0.050195668
-7.8684864,0.56300133,0.80532324,0.20282471,-0.31550318,-0.037943456
-8.053452499999999,0.33060095,0.70249707,0.15863298,-0.33838442,-0.06829473400000001
-8.243802,0.44391373,0.33907643,0.104335785,-0.33199653,-0.13910274
-8.341006,0.94485736,-0.060621187,0.016493361,-0.2952748,-0.20350539999999998
-8.300908,1.167748,-0.112651974,-0.085154615,-0.24469516,-0.25302038
-7.952197,1.1403391,-0.40959045,-0.17086773,-0.16910495,-0.30251792
-7.841978,0.8192478999999999,-0.7571423,-0.2980848,-0.11267845,-0.3371278
-8.485855,-0.052796938,0.42254788,-0.35185838,-0.08925614,-0.3546858
-9.026332,-0.70486253,0.5186510999999999,-0.32417744,-0.040282197,-0.39355429999999997
-9.56747,-0.63923275,0.030272286000000002,-0.33267722,0.09171705,-0.3813021
-10.388125,0.6120729,-1.2369595,-0.30820770000000003,0.27429596,-0.33606315
-10.596756,1.3313963,-1.529215,-0.36089918,0.4244117,-0.23544492
-11.188593,1.1223155,-1.6821278000000002,-0.44661229999999996,0.5590988,-0.119397976
-12.631358,-0.794128,-0.18930474,-0.52965504,0.39194858,0.0024783674
-13.84494,-3.9642138,3.5984182000000002,-0.23472933,0.032620203,0.07702138
-13.779952,-4.6252337,2.7492332000000004,0.033527777,-0.13397147,0.11746066
-12.192702,-1.5218886,0.9816418,0.19057249999999998,0.16996016,0.16536994
-11.641097,1.6731734,1.6469330000000002,0.17886133,0.19498818,0.15259413
-11.812186,0.5993835999999999,2.9495225,0.07346091,-0.19306833,0.14035937
-10.951758,-1.1507969999999998,3.8661760999999997,0.0090408055,-0.41823325,0.13981833
-9.667806,-1.274357,3.5412352,0.005846853000000001,-0.47148323,0.088715084
-8.8983,-0.54869354,2.7387083,0.0654673,-0.44165558,0.004607669
-9.406367999999999,-0.5029547000000001,1.6965505,0.09368927,-0.3085742,-0.03796091
-10.251283,-1.0572028999999998,0.82282007,-0.0026529005,-0.39482838,-0.023596851000000002
-10.07346,-1.2224315000000001,0.69708616,-0.15063937,-0.6407453000000001,-0.03635521
-9.474938,-0.60337716,0.92866296,-0.23687609,-0.71261793,-0.085329145
-8.9585085,-0.05357266,1.1959133,-0.36730453,-0.6695083000000001,-0.11461577
-8.490039999999999,-0.058839902,0.94952124,-0.5967281,-0.6870663,-0.13271484
-7.9358783,-0.36514450000000004,0.46533704,-0.91612333,-0.7770206000000001,-0.14229669
-7.2196,-1.1765872,0.770569,-1.1279888,-0.8600634,-0.19179423
-7.1342419999999995,-1.7984189999999998,1.0223815,-1.2184841999999998,-0.7897964,-0.24822073
-7.561176299999999,-1.9920334,1.0478079,-1.2472296999999999,-0.7525335999999999,-0.2599319
-7.9701059999999995,-1.8163755000000001,1.1357327,-1.2243483999999998,-0.8180184,-0.23759167
-7.9969115,-1.6548243999999999,1.0409894,-1.1247948,-0.8126951,-0.18010053
-7.891298299999999,-1.8382009999999998,0.92487055,-1.0337759,-0.74029887,-0.11248647
-7.7328600000000005,-1.8187313000000003,0.6335249,-0.9102764999999999,-0.51885146,-0.011885692
-8.559194999999999,-1.9409697,0.7187394,-0.91292936,-0.45497242,-0.00017453292
-9.065741000000001,-2.2090054,1.0617615,-0.87940156,-0.3884405,0.03122394
-9.46856,-1.9740098000000001,0.7387453,-0.8921773999999999,-0.3426605,0.040805798
-10.176105,-2.1623185,1.1645013000000002,-0.9118646999999999,-0.40386918,0.021118484
-10.638635,-2.0357034,1.3222314,-0.9081296999999998,-0.54599136,0.033353243
-10.561466000000001,-1.3463842,0.805285,-0.9496684999999999,-0.6173404,0.045588
-10.368703,-0.9060425,0.37790078,-0.95179784,-0.52736866,0.069027774
-10.229639,-1.2681798999999998,0.6410715,-0.9491275,-0.39428732,0.14566518
-10.429889999999999,-1.8994639,0.9490615,-0.95553285,-0.14037684,0.19463912
-11.280166,-2.688181,1.636887,-1.0210001,-0.102573,0.1733461
-11.908328,-2.3801527,3.9993510000000003,-1.0428168,-0.09564404,0.16111134
-12.653232000000001,-2.5356127999999996,5.4223685,-1.1844153,-0.27239352,0.13236576
-11.907045,-3.2321053,5.0177107,-1.3079148999999999,-0.40015164,0.22870794
-8.974569,-3.519285,4.5911599999999995,-1.2099669,-0.3043156,0.26918212
-7.356347599999999,-4.3010592,4.453483599999999,-0.9635090000000001,-0.09086184,0.23296654
-6.9983759999999995,-4.957501000000001,4.4083575999999995,-0.7298094,-0.11534881,0.18612191
-8.541822,-3.7423480000000002,4.763887,-0.57278216,-0.073303826,0.1823869
-9.976073,-2.4600134,5.062204,-0.35613444,-0.20957914,0.23987806
-9.151808,-2.896486,3.7954513999999997,-0.22677062,-0.3362726,0.2526713
-8.330788,-3.0065042999999996,3.1605090000000002,-0.16556193,-0.30113912,0.2526713
-7.822939,-2.2616107000000003,3.2224805,-0.05749114599999999,-0.19148007,0.27981117
-7.4798789999999995,-1.3666104,3.0210326000000003,0.024469515,-0.11695451,0.29258698
-7.5862484,-0.9719979999999999,2.7790935,0.027122416,-0.06850417,0.33943164
-7.90687,-0.9954995000000001,2.7296102,0.07344346,-0.01633628,0.34955454
-8.023736,-1.0972627000000001,2.786142,0.22301817,-0.0072954763,0.28087583
-7.7140317,-1.1913452,2.3562965,0.37634534,-0.014748032,0.20050342
-7.5075270000000005,-1.0509013999999999,1.8268429,0.45032984,-0.024853487999999996,0.13821262
-7.373949499999999,-0.5370099,1.2602121000000002,0.45938809999999997,0.037943456,0.06262241
-7.5815945000000005,0.008657433,1.1848139,0.43010148,0.1529083,-0.027855453999999998
-7.596342,0.25486755,1.4176643,0.3885801,0.2609791,-0.095452055
-7.180556,0.14062582,1.3844615,0.27040386,0.4307996,-0.119415425
-7.171150999999999,-0.00227928,1.6150997999999999,0.18575539,0.65596455,-0.064577185
-8.21486,-0.7528998,1.4152318000000002,0.26401594,0.97907734,0.043458696
-10.306627,-1.5250682,1.3684108,0.48652798,1.1350573999999998,0.1717404
-11.109403,-0.8396370000000001,0.77639174,0.7686604,1.2548218999999998,0.27235863
-11.539995,-0.22164561,-0.37060326,0.7633371999999999,1.4060198,0.26330036
-13.974820999999999,-2.054704,3.0913455,0.6818827,1.1494389999999999,0.19570377
-16.974459,-6.251385,7.474928,0.9879785,0.3536037,0.17708111
-14.978403,-6.4051695,4.9509697,1.1492645000000001,0.14599679999999998,0.30269244
-9.5077,-0.016357185,1.7601788,1.1625812,0.5505641,0.40224603
-10.583117999999999,1.7742183999999996,3.3574370000000004,0.9198234000000001,0.62135464,0.2994985
-12.10447,-0.8668254999999999,4.828913,0.6920056,-0.00036651915,0.44537312
-9.655192999999999,-2.176942,4.1330433,0.44820055,-0.039776053,0.4118279
-8.997860000000001,-2.2857828,2.7733187999999998,0.48226938,0.22797489999999998,0.26810002
-9.1230955,-1.4191486999999998,2.3809283,0.56423,0.2929186,0.07326892
-9.0929,-0.87585646,2.2204017999999994,0.6967878000000001,0.24979152,-0.06140068
-8.594121000000001,-1.1830611999999998,2.2022345000000003,0.77930695,0.19977039,-0.15507251
-8.057963,-2.0132363,1.929401,0.85861474,0.18167132,-0.16039576
-7.5901747,-1.9447142,1.4857745,0.9352696,0.10712831,-0.14922565
-7.2288704,-1.1772194,0.9893895,0.98371994,0.051242866,-0.17690657
-7.186808999999999,-0.8092689000000001,0.78157276,1.012989,0.07305948400000001,-0.21204005
-7.6511884000000006,-0.51068324,0.53113925,1.0151184000000002,0.06454228,-0.20725785
-8.010377,-0.16830279,0.27951825,0.97839665,0.04166101,-0.17158332
-8.322714999999999,-0.3351595,-0.033174057,0.89533645,0.033143803,-0.10131636
-8.418913,-0.80045825,-0.42225100000000004,0.8256104999999999,0.035273105,-0.011885692
-8.073075,-0.8514069,-0.2926672,0.76279616,0.05656612,0.058887407
-7.5249186,-0.6321363,-0.13735057,0.6834709,0.0959582,0.07325147
-7.4014063,-0.75739133,-0.30275159999999995,0.59938097,0.16196655,0.029618237000000002
-9.000943,-0.70560956,0.4215423,0.5056917000000001,0.22158699999999998,0.012583823999999999
-11.464175,0.37497032,1.5746186000000002,0.43540728,0.12363912,0.07644542
-12.506399,0.63411874,0.6793212,0.3768515,0.10819296,0.09508554
-11.345556,-0.6677141,-1.4173195,0.5189911,0.34241614,0.05942846
-10.445030000000001,-1.9848793999999998,-2.74455,0.6637835999999999,0.60379666,0.014172073
-10.912196,-1.2876112,-2.2607775,0.5461484000000001,0.8577246,-0.04701917
-12.466168,-0.45365337,-0.6619010000000001,0.3161664,0.83269656,-0.06352998
-13.530485999999998,0.12212344,1.7140090000000001,0.24802874,0.50743705,-0.029461157999999998
-13.672348000000001,0.47840938,3.6114042,0.09684832,0.27960175,-0.08215265
-12.537735000000001,0.46185106,4.334702,0.13517575,0.058695424,-0.1577603
-10.804821,-0.22525607,4.3660190000000005,0.500351,-0.13611823,-0.19128808
-9.050255,-1.4763606000000002,3.1249025,0.5881934,-0.1685988,-0.30201176
-9.596113,-1.762774,2.0957117,0.28316220000000003,-0.10843731,-0.37440804
-10.717203,-0.72153574,1.565942,0.094719015,-0.0999201,-0.2583611
-10.837201,0.5069577999999999,1.2562472,0.11442378,-0.09087929,-0.09920452
-9.872749,0.42491332,0.81742835,0.19905479999999998,-0.08396779,-0.04490732
-8.8231125,-0.06842628,0.8995685999999999,0.2618692,-0.044558257000000004,-0.04384267
-8.001671,-0.6789476999999999,1.2195488,0.3182957,0.037402406,-0.06726499
-7.5094523,-0.68769133,0.7162206,0.31988394,0.055484015,-0.07524114
-7.523223,-0.15500063,0.07939173,0.23738223,0.028885199,-0.04171337
-7.613542599999999,0.71918947,-0.34139400000000003,0.13891076,0.010786135,-0.00710349
-7.9156813999999995,1.2327553,-0.17187496,0.11655309,-0.004642576,-0.0033859387
-7.7066193,0.16622464,-0.28324366,0.039898228,-0.13505358,-0.08110545
-7.4899059999999995,-0.0988518,-0.19601808,-0.040997785,-0.19254473,-0.16680111
-7.4228683,0.6036739999999999,-0.5257858,-0.18633135,-0.18882717,-0.26422540000000005
-7.228554700000001,1.2106808,-0.71878725,-0.33698818,-0.12440707,-0.35311502
-6.968640299999999,1.1554226,-0.65996647,-0.4514294,-0.020071287,-0.37175512
-8.104823,0.044225692999999996,-0.77548194,-0.51265556,0.08264134,-0.30894074
-10.408802,-1.0050763,0.3821529,-0.51370275,0.06986553,-0.23813272
-12.177866999999999,-1.4384172,0.92775315,-0.45727625,-0.032847095,-0.15083136
-11.042872000000001,-0.17688362,-1.4500531,-0.543513,0.049637165,-0.17744762
-9.680188000000001,0.8695166,-2.4843290000000002,-0.62655574,0.43610543,-0.25197318
-10.525256,0.67331654,-2.6412547,-0.7128099,0.7975456999999999,-0.20034635
-12.730555,-1.1342292,-0.8269380999999999,-0.7378205,0.6309365,-0.10824532
-13.8633375,-3.516929,1.4757285,-0.7505963000000001,0.057613317000000004,0.018430676
-14.163092,-4.9043209999999995,4.913707,-0.6595599,-0.34159583,0.15789993
-13.065762,-3.1003666,3.501386,-0.41151372,-0.010506882,0.2478542
-10.929378,0.7313999,2.3006172,-0.30930725,0.25989696,0.27820548
-12.651192,0.71379775,3.5662496,-0.34709364,0.18058921,0.2984164
-12.535091,-0.8679939,3.9516873,-0.36360446,-0.21118484,0.45971972
-10.454215,-2.1353117999999998,3.074471,-0.35721654,-0.226631,0.46130797
-8.603563000000001,-1.9447333999999998,2.6360544999999997,-0.30983084,-0.15423475,0.2893756
-8.696219000000001,-1.0828208000000001,2.332278,-0.15545648,0.05496042,0.08496263
-9.247355,-0.9826187,1.804414,-0.03302163,0.056548666,0.00031415926
-8.733195,-1.2688215,1.397419,0.03668682,0.0336674,-0.03584906
-8.233066,-1.2471397,0.83798975,0.02391101,0.026738444,-0.060877085
-7.7066479999999995,-1.4244926000000002,0.85686564,0.0712967,-0.025411992999999997,-0.067788586
-7.350113,-1.7657429,0.86833864,0.15486306,-0.053616515999999996,-0.06567674
-7.487817999999999,-1.8900403000000001,0.9479698000000001,0.26611036,-0.0067718774,-0.0821701
-8.251472,-1.7583591,0.46398672,0.3438473,0.018221237,-0.09335766
-8.935305,-1.0793061000000002,-0.031708807,0.36939892,-0.028605945,-0.09014626
-9.100073,-0.10806469,-0.5674545,0.3401123,-0.10845476,-0.011379546499999999
-8.501897,0.05132211,-0.7496437,0.32201326,-0.1702045,0.057281705999999995
-7.851804,-0.49769709999999995,-1.1120108,0.32414255,-0.10684906,0.099326685
-7.5178223,-1.1736472,-1.8768052,0.30604348,0.094876096,0.11477285
-8.15174,-1.9716538000000001,-1.3770969,0.2623928,0.19549432,0.13980088
-9.995131,-1.6611544999999999,0.5051287,0.28633872,0.11458086,0.17278759
-11.258494,-1.1620593000000001,1.5749538,0.42793727,-0.106325455,0.19833921
-10.812177,-0.4756321,0.63174367,0.59456384,-0.14997615,0.20952678
-9.717241,-0.23788787,-1.3055676999999999,0.6653719,0.0118333325,0.21591468
-9.91504,-0.45385447,-1.9493686000000001,0.6909234999999999,0.32164672,0.24944246
-11.0672455,-0.59777474,-1.1008348,0.68825316,0.48879692,0.2329491
-12.012839999999999,-0.13044567,-0.7930075,0.6515314,0.42917645,0.23774876
-12.024314,0.18495686,-0.06409757,0.56262434,0.34135148,0.25050712
-12.334267,0.7646696999999999,1.2999844999999999,0.37843975,0.34985125,0.19781561
-12.731561,-0.42609128,2.1349384999999996,0.200102,0.27586675,0.07483972
-12.154385000000001,-2.706329,2.4429955000000003,0.2623928,0.14491469,0.08974483
-9.6511135,-1.9206574,2.6436486,0.5232148,-0.07599164,0.15840608
-8.068479,-0.69808215,2.4205092999999995,0.6296973000000001,-0.18191567,0.0019198620999999999
-8.375761,-0.17068742,1.0875996,0.5466546,-0.13081242,-0.09548696
-9.478999,0.12629893,0.81683457,0.37257543,-0.0983493,-0.09761626
-10.328663,0.4078283,1.0296504000000002,0.28633872,-0.08929104,-0.037454765
-10.127205,0.28534096,0.8115769,0.2703864,-0.11962487,0.02693043
-9.332684500000001,0.20020314,0.44614512,0.25546384,-0.116430916,0.06738716
-9.205053999999999,0.04890875,0.06460514,0.19160224,-0.09993755,0.09880309
-9.16578,0.30170774,0.17768808,0.15325736,-0.13880603,0.11901400000000001
-8.772786,0.6280757,0.04841076,0.11812388,-0.1675516,0.09400343
-8.375722,0.43410709999999997,-0.20497240000000003,0.104824476,-0.1654223,0.060999255999999995
-8.007100999999999,0.07704541,-0.29652667,0.11014773,-0.16966346,0.020018926
-8.054602000000001,-0.05498045,-0.4037486,0.118664935,-0.1547758,-0.016179202
-8.240431,0.12726618,-0.54263145,0.13782865,-0.13720033,-0.048101272
-8.361606,0.24594197,-0.7568263000000001,0.16495107,-0.11590732,-0.096028015
-8.285652,0.2254476,-0.9300229,0.17615607,-0.11271336,-0.14604916
-8.190783999999999,0.20731871,-0.7434571,0.16496852,-0.12868312,-0.17160077
-8.013163,0.53726846,-0.37045005,0.13622294,-0.14306463,-0.17161822
-8.355524,0.33637577,-0.23137565,0.10906562,-0.11857767,-0.1439373
-9.324764,0.25623703,-0.89229023,0.08831366,0.022479841,-0.11838568
-10.405689,0.09898588,-1.1732546,-0.009616764,0.14224434,-0.04544837400000001
-10.735553,0.62931114,-1.6655886000000002,-0.05487315,0.29236009999999996,-0.012444196999999999
-10.369633,1.7798686000000001,-2.080159,-0.1820902,0.39988983,0.00083775807
-10.684814,1.645688,-2.0174885,-0.3982143,0.48347366,0.06632251
-12.87095,-1.7000939,1.3441718999999999,-0.40886083,0.24073327,0.10252064
-14.462166,-3.6434195,3.3216388,-0.1192758,0.025132742000000003,0.14137167
-14.943179999999998,-2.7755883,3.108392,0.069673546,0.022479841,0.18024015
-13.172935999999998,0.010994173999999999,2.4220033,0.27089256,0.22261675,0.14775957
-12.391708,1.6105987,1.7136546000000001,0.18252653,0.23912756,-0.020437805
-12.226681,0.32924104,1.8584273,-0.1251401,-0.16968091,-0.014573500000000001
-9.920863,-0.13413276,2.1831,-0.2842967,-0.43903756,0.08707447
-8.010721,-0.05920382,1.9686084,-0.32049479999999997,-0.48427650000000005,0.10358529
-7.567439599999999,-0.6018832,1.2195585,-0.31571259999999995,-0.3458719,0.06738716
-8.484093,-0.76160514,1.3026563999999998,-0.31838295,-0.25059438,0.022130774
-9.251626,-0.55601984,0.99643797,-0.34711108,-0.25272366,-0.011920598000000001
-9.097804,-0.57809436,0.6490585,-0.42589524,-0.26017624,-0.036407568
-8.819463,-0.66594243,0.5171475999999999,-0.51480234,-0.27028167,-0.04066617
-8.487637,-0.78074914,0.6026493,-0.558453,-0.2931804,-0.04118977
-8.613562,-0.9627085,0.66358656,-0.5776167,-0.25059438,-0.03693117
-8.998099,-0.8556877,0.5282184,-0.5845457,-0.23781857,-0.011920598000000001
-8.987249,-0.80825377,0.3373143,-0.59517473,-0.27134633,0.020001473
-8.778819,-0.91205674,0.42597637,-0.59039253,-0.29850367,0.062063905999999995
-8.5030365,-0.9735782,0.3129892,-0.54674184,-0.2889218,0.10890854
-8.7325735,-1.1296897,0.34083855,-0.49457395,-0.18990928,0.15149458
-8.8418255,-1.1194425,0.109884284,-0.44186499999999995,-0.13932963,0.19353956
-8.646392,-1.0699112,-0.21836078,-0.39714968,-0.07225663,0.21963224
-8.276832,-1.1230052,-0.2560168,-0.36255723,0.028326694,0.21270327
-8.405324,-1.0801009,-0.32422280000000003,-0.33433527,0.13107422,0.21217968
-8.664261999999999,-1.306717,-0.16610971,-0.3593633,0.20347048,0.20631537
-9.31604,-0.89482814,0.20663877,-0.41898373,0.24605651,0.1940806
-9.787774,-0.12027512,-0.17010324,-0.47221628,0.23326325,0.16318828
-10.141705,-0.2895835,-0.84651315,-0.50947905,0.30248302,0.13339551
-10.058788,-0.8209143,-1.2554332000000001,-0.4908564,0.348263,0.13498376
-10.093715,-1.4984255,-1.2848626,-0.47115162,0.50794315,0.08707447
-11.104681,-1.1669433999999999,-0.6597462,-0.47541022,0.6282486999999999,0.0056199604
-11.751125,-0.35678393,0.13462117,-0.49563859999999993,0.5782101,-0.031625368
-12.092165,-0.43139684,1.2923038,-0.53822464,0.49624947,-0.04544837400000001
-12.244828,-0.63229907,2.4499482999999995,-0.47275734,0.46483353,-0.03588397
-11.967206,-1.9062153999999998,2.0168085,-0.32210052,0.5952445,-0.08059931
-12.405633,-1.7484853999999999,2.0497047999999998,-0.0085695665,0.36475635,-0.06408849
-11.490205,-0.21646456,2.7385838,0.09416051,-0.05576327,-0.09550442
-10.404396,0.47599605,2.528143,0.09309586,-0.19683823,-0.121056035
-9.881876,0.070370376,1.671124,-0.021345377000000002,-0.16222836,-0.12051498
-9.646544,-0.58677095,1.1639076000000002,-0.11716395,-0.14945254,-0.026825711000000002
-9.533884,-0.5164675999999999,0.8749083000000001,-0.110776044,-0.12976523,0.038624137999999995
-9.318003,0.0030358476,0.95693374,-0.09906489,-0.17448056,0.046617742999999996
-9.067186,0.26641718,0.94873595,-0.11451105,-0.13934709,0.062046453
-8.918258,0.5429092,0.6511175,-0.10917035,-0.0940907,0.075363316
-8.682783,0.87676626,0.2930503,-0.13259266,-0.10845476,0.085486226
-8.356501,0.7834211,0.1472051,-0.16933185,-0.115383714,0.078016214
-8.246952,0.12996684,0.37117788,-0.16187929,-0.14093533,0.049811699999999993
-8.689745,-0.43061155,0.40193856,-0.14697418,-0.15531684,0.038624137999999995
-8.778283,0.014796166999999999,0.16112019,-0.14910348,-0.18032742,0.009878564
-8.895809,0.272441,-0.13081919,-0.17252579999999998,-0.14892894,-0.027890362000000002
-8.9199915,0.2504239,-0.41296148,-0.18847811,-0.0988729,-0.0683471
-8.9908695,-0.06709511,-0.51557696,-0.20978858,-0.049916416,-0.10295697
-9.04472,-0.0031603463,-0.5389444,-0.1900838,-0.032882,-0.14341371
-9.069207,0.26997977,-0.42229885,-0.15601498,-0.048851766,-0.16629498
-9.070797,0.14584519,-0.2088127,-0.14165092,-0.048851766,-0.17854719
-9.350764999999999,-0.1768932,-0.032886755,-0.13259266,-0.06853908,-0.17428859
-9.507069,-0.21480776,0.12888466,-0.091088735,-0.08824385,-0.17694148
-9.510027000000001,-0.025876531,-0.4508665,-0.11397,-0.07918559,-0.18226473
-9.774539,0.32234573,-0.46999136,-0.118752204,-0.014241886,-0.16896532
-9.843396,0.32890585,-1.0572124,-0.17784905,0.09646435,-0.16470672
-9.789344999999999,0.4882352,-1.7831343000000002,-0.27527332,0.24338616,-0.17695893
-10.365179,0.31139943,-1.951399,-0.40355504,0.30246556,-0.14395475
-11.3,-0.15972199,-0.9002389999999999,-0.40940190000000004,0.31684709999999994,-0.097092666
-11.137654,-0.39955395,-0.5704521,-0.32796479999999995,0.23912756,-0.09070476
-11.56818,-1.6412827,1.4239754999999998,-0.26567402,0.11136946,-0.09496336400000001
-12.973230000000001,-2.8390923,3.1510088,-0.046896997999999995,-0.13028882,-0.052377332
-12.772932,-2.2533653,2.330717,0.10107201,-0.12976523,-0.0034033920000000003
-11.088726,0.4345093,0.3084881,0.17132153,0.12199851,0.022113321000000002
-10.792553999999999,1.3033843,1.0637438,0.05581563,-0.014241886,0.042341687
-10.840773,-0.63965404,2.8461025,-0.030944687999999998,-0.43532002,0.13655455
-9.734996,-1.5363209,3.1670501,-0.049549895999999996,-0.48588222,0.19512782
-8.75595,-1.2717711999999999,2.6292167,0.0031241393,-0.35705945,0.16479398
-8.699735,-0.68043214,2.0498006,0.07658505,-0.25911158,0.07269296
-9.235346,-0.31234756,1.7915237000000002,0.13939945,-0.18512708,0.010402163
-9.759925,-0.46850696,1.4490188,0.17453292,-0.13880603,-0.020437805
-9.589209,-0.7790444999999999,1.3060466,0.19847885,-0.15690510000000002,-0.053459436
-9.169974,-0.95703906,0.973626,0.22404791,-0.18832102,-0.08325221
-8.832804,-1.0549811000000002,0.8250801999999999,0.26502824,-0.21865484,-0.08379326
-8.629508,-1.0439295,0.70519775,0.29537952,-0.24207717,-0.073146746
-8.680773,-1.0816618999999998,0.50558835,0.28632125,-0.25804693,-0.06462954
-8.976169,-0.8864484,0.40127778,0.25118777,-0.2633702,-0.058241636
-8.977872999999999,-0.40858490000000003,0.36871666,0.24799383,-0.27190486,-0.031625368
-8.962464,-0.21585165,0.44149077,0.27141616,-0.25911158,0.008813913
-8.922376,-0.15023138,0.21394587,0.27886869999999997,-0.20109683,0.047141342999999995
-8.9158535,-0.30772194,0.028270733,0.2527935,-0.14412929,0.07269296
-8.860097999999999,-0.59397274,-0.0120859295,0.22190116,-0.13350023,0.10089748
-8.906181,-0.64517987,0.04652413,0.18996164,-0.11431906,0.1254019
-8.976053,-0.5183734,0.019220652,0.15695746,-0.086655594,0.13603096
-9.208578,-0.55823207,0.06927862,0.14098770000000002,-0.05311037,0.13496631
-9.465264999999999,-0.7448170000000001,0.24621013,0.1404641,-0.010524335,0.12538445
-9.765393,-0.7022673,0.30369014,0.17825048,0.030455995,0.10356784
-9.746038,-0.50251424,0.25054842,0.23680627,0.032585297,0.08759808
-9.443967,-0.43225875,0.020341137,0.2639636,0.057595864000000004,0.07588691
-9.452155,-0.5777305,-0.14085567,0.25544637,0.084753186,0.072151914
-9.3076315,-0.7632428000000001,-0.5298081,0.23732987,0.16725489999999998,0.078016214
-9.367362,-0.9193925999999999,-0.98322207,0.2144486,0.30937707,0.074281216
-9.952849,-0.9309613999999999,-0.96501654,0.21019000000000002,0.44673450000000003,0.06949901
-11.1942625,-0.40244618,-0.28327236,0.2165779,0.4658982,0.05511749999999999
-12.060992,0.45100054,0.78558546,0.14098770000000002,0.40680134,0.06257005
-12.214260000000001,0.9170941999999999,1.5843295,0.06485643,0.30937707,0.07747517
-12.0273485,0.52834284,1.8872726000000002,0.05475098,0.23486896,0.08866273
-10.8571205,-0.5581842,1.9497803,0.11704178,0.1693842,0.052988198
-10.141877000000001,-0.7793701,2.512868,0.20486675,0.13212143,-0.010855948
-9.895705,-0.33154905,2.724774,0.25225243,-0.08398525,-0.114144534
-10.585828999999999,0.108237065,2.8283567,0.1447227,-0.16650441,-0.17802358
-11.292722,0.80603194,1.8841697,0.008447394,-0.12815952,-0.12372639
-11.359568,0.8024215,1.1712913999999999,-0.046373397000000004,-0.059498273,-0.026302112000000002
-10.244569,0.16897318,0.76381737,-0.05009095,-0.09941395,0.03223623
-9.226142999999999,-0.15999013,0.502361,-0.090024084,-0.10847221,0.02904228
-8.911612,-0.10024044,0.2790011,-0.14219198,-0.14840534,0.023177972
-8.503409,0.51536626,0.44387543,-0.120898955,-0.17715092,0.007749262
-8.249433,0.61892986,0.6891853,-0.05222025,-0.16383405,-0.0044854963
-8.378337,0.5121005999999999,0.80895287,0.012705997,-0.17500417,-0.0023561944
-8.693049,0.15205096,0.70209485,0.021223204,-0.20535544,0.013072516000000001
-8.844756,-0.057987563,0.56362385,-0.007522369300000001,-0.22771311,0.009878564
-8.879116999999999,0.23127988,0.31593883,-0.030927233,-0.21013764,-0.021502456
-9.001863499999999,0.54284215,0.12018893,-0.03785619,-0.19470893,-0.053459436
-9.091732,0.6928533,-0.24396914,-0.05169665,-0.1547758,-0.08166396
-9.15128,0.43131062,-0.31782550000000004,-0.10545279,-0.13241813,-0.10295697
-8.9534235,0.45420879999999997,-0.30941704,-0.12411036,-0.1537286,-0.12692034
-8.716513,0.70159686,-0.36988499999999996,-0.121963605,-0.1547758,-0.15299556
-8.452375,0.66906446,-0.42463562,-0.13419837,-0.13667673,-0.16364206
-8.6475115,0.54751563,-0.32034418,-0.15870279,-0.11592477,-0.14501941
-9.129655999999999,0.25255954,0.118493825,-0.15442674,-0.097825706,-0.119991384
-9.579345,-0.34200692,0.023846247999999997,-0.12782791,-0.07120943,-0.12266174
-9.981552,-0.21741268,-0.18678604,-0.054890607,-0.025970499999999997,-0.12159709
-10.069036,0.022716187000000002,-0.7721492,0.004712389,0.031520646,-0.14234905
-9.807903999999999,0.5130487,-1.8060900000000002,-0.026686084,0.15287338,-0.16898277
-10.609608999999999,0.97447836,-1.9624599999999999,-0.17252579999999998,0.13798574,-0.13117895
-12.151838,0.2164071,0.039523482,-0.17784905,0.16140805,-0.08433431
-12.551286,-0.8487062,1.8942254,-0.039461896,-0.048851766,-0.0715585
-12.668402,-2.6445298,4.8638687,0.14418165,-0.3405661,-0.06569419
-12.655586999999999,-3.2872581,4.3013363,0.31719613,-0.25804693,-0.058241636
-11.151836999999999,-0.9859993,1.6861213,0.28419197,0.013404128999999999,-0.026302112000000002
-11.406130000000001,1.0595299999999999,2.996286,0.15643387,-0.07494444,0.04553564
-11.766084,0.88460964,4.5762485999999996,0.15961036,-0.43425536,0.12538445
-10.816946000000002,-0.6023715999999999,4.1856103,0.16706291,-0.49015826,0.15465362
-9.505412,-1.3423715,3.2783900000000004,0.17879152,-0.32459635,0.07641052
-9.328298,-0.45634443,2.635269,0.2165779,-0.16596335,-0.055588737
-9.364508,-0.21061313,2.3066123,0.26129323,-0.17289232,-0.13756685
-8.597942,-0.5866273,1.9763081000000002,0.29270917,-0.13243559,-0.16098917
-7.8717809999999995,-0.98260915,1.6731063999999998,0.3320838,-0.07440338,-0.17004743
-7.243734,-1.2562280000000001,1.6752898999999997,0.37627554,-0.036617007,-0.19079939999999998
-7.051603999999999,-1.5185847,1.4525813,0.40395644,0.0027750734999999996,-0.20729275
-7.281572,-1.4347397,0.82912165,0.39276890000000003,0.016598081,-0.19399334
-7.9586806,-0.9301857,0.35244566,0.35604715,-0.011065387,-0.12479104
-8.148867,-0.26012522,0.080876134,0.33527774,-0.06536258,-0.042289328
-7.9012485,-0.35343206,0.19864212,0.3485946,-0.10101966,0.010925761
-7.954084,-0.6335824000000001,0.31263486,0.39383355,-0.06536258,0.065764
-7.899141999999999,-0.85839796,0.12791741,0.42844343,-0.037681658,0.11206759
-7.8136306,-0.99304783,0.2559689,0.42259657,0.084753186,0.11847295
-8.191847000000001,-1.0124984000000001,0.48497906,0.42151445,0.21516418,0.11260864
-9.074637,-0.5843096999999999,0.5956104,0.47102946,0.35302776,0.14135422
-10.388135,-0.092837565,-0.05116888,0.46783552,0.5090077999999999,0.15892968
-11.202681,0.17269856,-1.0687524,0.43483132,0.5659579,0.14880677
-11.072646,-0.76799285,-2.089276,0.42418483,0.66922903,0.19458675
-10.953166,-0.77553934,-1.7155701,0.41460297,0.89121747,0.20736256
-11.769953,0.744568,-0.05137957,0.35817647,1.18452,0.12325515
-13.580113,1.6737769,2.7248313,0.30068532,1.0221695,0.006143559
-14.291939000000001,1.6026977,4.858486,0.21125466,0.6894574,-0.027384216
-12.767684,0.36615005,4.0780916,0.06485643,0.7166147,-0.101368725
-11.493738,-1.6566726000000003,3.2169833,0.3129201,0.6681644,-0.15353662
-10.675678,-2.365682,2.1642243999999997,0.39383355,0.3514395,-0.21102776
-10.618821,-1.1342292,1.8839398999999997,0.26768115,0.10550515,-0.28874728
-10.576176,0.9176496,0.9473090000000001,0.18036233,0.018727383,-0.25202554
-10.140191,1.9186174999999999,0.6373269,0.13351768,-0.047787115,-0.17802358
-9.33189,0.6705393,0.6799054,0.0888198,-0.10156071,-0.14714871
-8.900426,-0.22950818,0.7488584,0.015358897,-0.13562953,-0.13330825
-8.337674,0.2619927,0.46459964,-0.042114794000000004,-0.16437511,-0.14821336
-8.030737,1.1271231000000002,-0.12078268,-0.119834304,-0.18353882,-0.13278465
-7.9808509999999995,1.4453508999999998,-0.18608692,-0.23801056,-0.20854940000000002,-0.0779464
-8.270578,1.2933478,-0.021461625,-0.33169982,-0.23570672,-0.031101767000000002
-8.361203,0.4779401,0.019306842,-0.39983746,-0.24687682,-0.014067353999999999
-7.9674244000000005,-0.26748979999999994,-0.11257536,-0.45626396,-0.29211575,-0.058241636
-7.4731654999999995,-0.004855440999999999,-0.29937097,-0.4919385,-0.28520426,-0.14449582
-7.735474000000001,0.5458014,-0.20832428,-0.49991465,-0.17076302,-0.21102776
-7.7029133000000005,0.9015893,-0.34375948,-0.51216686,-0.071750484,-0.2679953
-7.2787085000000005,0.15365028,-1.1018691,-0.56965804,0.046408303,-0.30471703
-7.7969669999999995,-0.9525858,-1.0082079,-0.62767273,0.122539565,-0.2807711
-9.735887,-0.99978036,0.13398911,-0.551559,0.25188592,-0.21209241
-10.645176,-0.53153193,-0.34109715,-0.41580725,0.35622170000000003,-0.14449582
-10.4063015,0.6003987,-1.9896581999999998,-0.40516073,0.5441413,-0.12320279
-10.555431,1.0871111999999998,-2.81606,-0.5094965,0.7959225000000001,-0.0689056
-11.995410000000001,0.18383639,-1.9557563000000002,-0.67771137,0.7916639,-0.0023561944
-13.700034,-3.0394006,1.6249255,-0.4892856,0.56648153,0.08065166
-13.182129999999999,-4.0639277,2.631199,-0.26623252,0.25349160000000004,0.21640338
-12.187358999999999,-2.1773157000000003,1.7903074,-0.040526547,0.23643975,0.30796334
-11.573494,-0.11850341,1.3242617,0.020141099,0.22366394,0.36280158
-12.563593,-0.45363417,2.5223967999999997,-0.13315117,-0.050981067000000005,0.30743974
-12.637573,-0.594758,2.8822357999999997,-0.27101472,-0.3528183,0.30689868
-10.795388,-0.8739315000000001,2.7962265,-0.16989034,-0.40446259999999995,0.25792477
-9.910366999999999,-1.8697853,1.8541752,-0.019757127,-0.30756193,0.13336061
-9.668898,-1.8066741999999998,1.1924752,0.031311207,-0.25539404,0.0636347
-9.571252000000001,-1.2846808,0.8697847,0.10850712,-0.24954717,0.007731808299999999
-9.108577,-1.1205055,0.6422494000000001,0.20059069,-0.34910077,-0.043895032
-8.6213,-1.034276,0.4387231,0.24478243,-0.38741073,-0.056129787
-8.210244,-1.1340472,0.30109483,0.25703463,-0.4028569,-0.049200833
-7.9217143,-1.3817704,0.27203879999999997,0.2825688,-0.39008108,-0.036966074
-7.9901695,-1.477778,0.25345019,0.32250193,-0.3634648,-0.020472713
-8.110905,-1.2047048999999999,0.19313547,0.36775833,-0.33098423,0.0040142573
-8.378480999999999,-0.84260577,-0.08169974,0.4012861,-0.28946286,0.027436575
-8.611599,-0.6955443,-0.30596940000000006,0.43322563,-0.26551694,0.08597492
-8.47828,-0.42100602,-0.4363289000000001,0.44067818,-0.24370033,0.14826572
-8.194088,-0.8572486999999999,-0.576179,0.47952920000000004,-0.17236872,0.16369443
-8.14223,-0.9917166999999999,-0.8912655,0.51468015,-0.05736897,0.16584119
-8.215627,-0.86745757,-0.95372546,0.5066864999999999,0.016598081,0.15465362
-8.453208,-0.6168421,-0.8737783000000001,0.45291293,0.064507365,0.14081316
-9.297815,-0.18194017,-0.47905102,0.37306413,0.09538224,0.15517722
-10.040994,0.08316499,-0.20110336,0.35550612,0.06504842,0.15945327
-10.59802,-0.2571564,-0.48884812,0.35817647,0.12306316,0.14187782
-10.248227,-0.5782859,-1.3333213,0.4065919,0.25666812,0.15730652
-9.906143,-0.9801575000000001,-2.0694425,0.5061455,0.44404668,0.15358898
-10.357623,-0.9778207,-1.6610302,0.5961171999999999,0.5723458,0.11632619
-11.260688,-0.07834785400000001,-0.72182304,0.57641244,0.6176022,0.064158306
-11.943522999999999,0.21574631,0.73906136,0.49071679999999995,0.5313654999999999,0.07747517
-12.040479,0.7286991999999999,2.0240772000000002,0.41032690000000005,0.44032910000000003,0.06948156
-12.174717,1.0249386,2.2315009999999997,0.27724555,0.3652625,0.017837266
-12.010973,-0.24957158,2.6837564,0.38051668,0.28701940000000004,-0.04761258
-11.759323,-2.2069178,1.811003,0.4827406,0.20610593,-0.14501941
-11.418216000000001,-1.3909162,1.5353823999999998,0.4790056,-0.029164452,-0.15887733
-10.643998,0.22073582,0.6945866999999999,0.44067818,-0.00041887903,-0.12639675
-9.896854,0.68610156,0.46026132,0.40819759999999994,0.011798426,-0.092327915
-9.038886999999999,-0.008973468,0.28049508,0.38851030000000003,-0.0030892328,-0.08700466
-8.741824000000001,-0.510281,0.28356925,0.35283577,-0.07494444,-0.08487536
-8.736777,0.025139118,0.5437232,0.34964179999999995,-0.17662732,-0.09552187
-8.655059,0.79675204,0.34850958,0.3326074,-0.24368288,-0.09552187
-8.668676,1.1057763,0.27482563,0.2974739,-0.26232300000000003,-0.076358154
-8.863833,0.9179369000000001,0.14378618,0.24371777,-0.27084020000000003,-0.055065135999999994
-8.886904,0.15385139,0.080847405,0.20004964,-0.2852217,-0.048153635
-8.774127,-0.15159127,-0.16807295,0.14948745,-0.2724459,-0.06784095
-8.694736,0.34749445,-0.5618521,0.07389724,-0.2160194,-0.10616837400000001
-8.774787,0.59415466,-0.93654466,-0.0027227136,-0.16331045,-0.12266174
-8.503658,0.49420154,-1.2495626,-0.072483525,-0.09623746,-0.15194836
-8.129847999999999,0.45222637,-1.3938851,-0.11772246,-0.060039327,-0.18601719
-7.768035,0.35231155,-1.205969,-0.15285593,-0.00041887903,-0.20785126
-8.183669,0.14217728,-1.2029235,-0.19861847,0.066636674,-0.19666370000000002
-8.931119,-0.056215855999999995,-0.89206994,-0.21886429,0.13051572,-0.17858209
-9.57581,-0.040299203,-1.0179188,-0.21675244,0.1666964,-0.15036010000000002
-9.643767,0.51996315,-1.8966578,-0.28115508,0.25666812,-0.13491395
-9.540224,1.1694719,-3.076463,-0.46746898,0.46640435,-0.13439035
-10.035861,1.5454571000000001,-3.4233443999999995,-0.7171209,0.5947034999999999,-0.08435176
-11.232541000000001,0.7304326,-1.6442418999999997,-0.8374264000000001,0.5930978,-0.016737707
-12.622691,-2.5379877,1.6760465,-0.7341553000000001,0.30724776,0.020507618999999998
-13.794364999999999,-4.4163440000000005,4.217903,-0.4323355,-0.046739917,0.10088003
-13.871391000000001,-3.9166458,3.6543562000000005,-0.14646803,-0.073879786,0.1839228
-11.193831,-0.18516755,1.0256568000000001,-0.025097834,0.18800686,0.14027211
-12.122428,1.8883548,1.558539,-0.12358677,0.12784536,0.13707817
-12.89452,0.23154804,1.8849741000000002,-0.2534567,-0.39008108,0.20308651
-10.839729,-1.6148508,2.5064707000000004,-0.28806659999999995,-0.49389327,0.2403493
-10.079571000000001,-2.0430202,2.0394864,-0.23750441,-0.32087877,0.16742943
-10.05423,-0.980598,1.165373,-0.15659094,-0.26286402,0.098750725
-9.683924000000001,-0.42083362,0.6812845000000001,-0.09377654,-0.27405159999999995,0.0625526
-8.865135,-0.6871742,0.6893673,-0.003281219,-0.32567844,0.02316052
-8.540308999999999,-1.0543202,0.34295502,0.032375857,-0.32196090000000005,0.013578662
-8.209085,-1.2702677,0.26027843,0.060580377000000005,-0.34962437,0.028483772999999997
-8.104938,-1.332785,0.18431522,0.095713854,-0.34431854,0.027419122
-8.223316,-1.2082962,-0.00794875,0.091996305,-0.33845425,0.045518185999999995
-8.056747,-0.94892746,-0.1375421,0.060580377000000005,-0.29215068,0.070005156
-8.15579,-0.7429879,-0.6608859,0.055798177000000004,-0.20217894,0.07798131
-8.438805,-0.47243345,-0.85016185,0.04834562,-0.14734070000000002,0.11100294
-8.289932,-0.83329713,-0.9316126,0.03715806,-0.12606514,0.14133677
-7.938656,-1.1107084999999999,-0.86246806,0.045134213,-0.08454375,0.14878932
-7.624584700000001,-1.2388365,-0.59125286,0.10157816,-0.03396411,0.12269664599999999
-7.8350058,-1.1092144,-0.5552537,0.15374605,0.029373892000000002,0.086498514
-8.053549,-1.4179229,-0.32328427,0.18249163,0.06874852,0.05030039
-9.021936,-1.3840497,-0.26296955,0.22827162,0.18587756,0.07213446
-9.786319,-0.53577447,-0.39244798,0.29799749999999997,0.20875883,0.11791444599999999
-9.850838000000001,0.23756227,-1.6067200000000001,0.3155555,0.32639402,0.107791536
-9.793329,-0.039609674,-2.2552137,0.33845425,0.39667842,0.091839224
-9.50884,-1.1182455,-2.8066173,0.38477528,0.5366713000000001,0.11526154
-9.918287,-1.664066,-2.251833,0.44598398,0.71979123,0.1274963
-11.2491,-0.23010194,-0.99209017,0.42256168,0.802834,0.07691666
-13.083767,0.7934959,0.67785597,0.27031659999999996,0.66762334,0.055623643
-14.278348999999999,1.4635468,1.755218,0.086655594,0.4738569,-0.0061086523
-13.101052000000001,0.47077668,1.7922323,-0.07887143,0.22314034,-0.0699877
-11.952745,-1.2136976000000002,2.5084817000000004,0.15694001,0.16297884,-0.11470304
-11.083228,-0.88761675,2.2219724999999997,0.25541148,0.062378067999999995,-0.15248941
-11.134427,-1.0339023999999999,1.5734598999999998,0.21654299999999999,-0.06270968,-0.25256660000000003
-11.645023,-0.29501352,0.8446456,0.07655014,-0.04087561,-0.18975219
-11.069889,0.595007,0.5114398,-0.008604473,-0.0834791,-0.07318166
-9.991434,0.05147534,0.20345926,-0.019250982,-0.054733526,-0.015149458000000001
-9.536441,-0.32773748,-0.22417389,-0.10068805,-0.071750484,0.01144936
-9.212726,-0.103008136,-0.11413638,-0.18959512,-0.14149384,0.024748769
-8.984874000000001,0.5194077,0.08350018,-0.25562093,-0.19420278,0.022619467
-8.683176,0.8854620000000001,0.07852024,-0.3019245,-0.27883379999999997,0.032724924
-8.227751,0.75742006,0.251621,-0.32054716,-0.29960322,0.034330625
-8.18544,0.1535641,0.40209179999999994,-0.29073694,-0.27031659999999996,0.030613074
-8.451628,-0.4407342000000001,0.018617311,-0.27689648,-0.26073474,0.02422517
-8.510085,-0.3069941,-0.5159026,-0.3067067,-0.28680995,0.0055850535
-8.685130000000001,0.10115981,-0.83867925,-0.34824553,-0.2713987,-0.003979351
-8.80075,0.06340804,-1.0042527,-0.37857938,-0.24317673,-0.01675516
-8.512192,-0.18547401,-1.2079802,-0.39241982,-0.20324358,-0.05508259
-8.385633,-0.028625077000000002,-1.2783886999999998,-0.41051888,-0.16598082,-0.09234537
-8.294386,0.027150247000000002,-0.9008328000000001,-0.43765876,-0.18514453,-0.11416198
-8.361825999999999,-0.21272004,-0.36230016,-0.37857938,-0.19633208,-0.11522663400000001
-8.681596,-0.54450846,-0.37968206,-0.2832844,-0.11009537,-0.111509085
-9.0229225,-0.44780192,-1.0034099,-0.26359707,-0.009477138000000001,-0.13599606
-9.448852,0.18580921,-1.7703876,-0.33279938,0.11294025,-0.18018779
-9.609426,0.5465867,-2.4369237,-0.45149922,0.21195279,-0.24192008
-9.277752,0.5704329,-3.470041,-0.6873281,0.31787682,-0.32072172
-8.625198,0.46546155,-4.111371,-0.95987874,0.4009196,-0.36969563
-9.613563000000001,-0.13108733,-2.6723983,-1.2079423999999999,0.40624285,-0.2712067
-12.471444,-3.2202299,2.374483,-0.9236806000000001,0.53400093,-0.20891590000000002
-14.836274,-3.7155902000000003,5.001803400000001,-0.5611756999999999,-0.03450516,-0.1328021
-14.65714,-3.706454,5.7679863,-0.13957398,-0.49549899,0.035918877
-11.411043,-1.7962258000000002,2.5362449000000002,-0.016598081,-0.020664698000000002,-0.07476991
-12.770548,2.6088467,0.6153673000000001,-0.39880773,0.42275366,0.022619467
-14.145269,3.1638706,1.5197531000000002,-0.51963687,-0.16652186,0.10512118
-11.846480999999999,-1.7157615000000002,2.6916477999999997,-0.42277109999999996,-0.53541464,0.113638386
-9.82906,-3.2964040999999997,2.0444856,-0.38922587,-0.16172221,0.096603975
-9.844325,-1.2746155000000001,1.4464233999999998,-0.3147003,-0.051539574000000005,0.015166911000000002
-9.34319,-0.04506845,1.0583999,-0.17362535,-0.13510594,-0.040701076
-8.479937,-0.33418268,0.95352435,-0.03415609,-0.25169393,-0.058276545
-7.861092999999999,-0.9558802,0.5206144,0.04939282,-0.36507052,-0.08436921
-7.632313000000001,-1.7595468,0.6834584,0.13191198,-0.46355945,-0.12109094
-7.7611113,-2.0447824,0.5927469,0.21121974,-0.4694063,-0.1370607
-8.1086445,-1.6838229,0.24210167,0.27349308,-0.42203808,-0.11524409
-8.421728,-0.97497636,-0.24186225,0.2713638,-0.3661526,-0.07531096
-8.519757,-0.41748175,-0.59883773,0.2724459,-0.31024972,-0.03218387
-8.314728,-0.5285727,-0.6571988000000001,0.29159215,-0.29215068,0.0007853982
-8.163855,-0.6741019,-0.58827454,0.30862656,-0.18301523,0.057752945
-7.9988265,-0.91267926,-0.5403905,0.35868259999999996,-0.11328932,0.10833259
-7.713054700000001,-1.2724129,-0.4408683,0.42573816,-0.035046212,0.13493139999999998
-7.820133,-1.4335905,-0.5383602,0.45448375,0.02136283,0.15728907
-8.241178,-1.1796231000000001,-0.80162656,0.43692570000000003,0.09482374,0.19242255
-9.314441,-0.29477412,-0.6089604000000001,0.42999676,0.20448278,0.24671975
-10.4741535,0.19715771,-0.9527965,0.40818015,0.24654521,0.26110125
-10.517441,-0.3393733,-1.3568803,0.4220206,0.24654521,0.30208158
-9.802311999999999,-1.0569921999999998,-1.7797441000000003,0.50186944,0.34981635,0.33669147
-9.977625,-1.0151511,-1.389997,0.6450737,0.53454196,0.33456215
-11.333002,0.14050132,-1.0650463,0.65730846,0.7453254,0.26481882
-12.677182,0.8662030000000001,0.21681891,0.53220326,0.6095911,0.22277382
-13.294657,0.8044996,1.9579303,0.46141270000000006,0.45041713,0.16367698
-12.931457,0.032379184,2.6904314,0.4156327,0.4456349,0.08011061
-12.472364,-1.6988298,2.9711754,0.667955,0.47809803,-0.015166911000000002
-11.986982000000001,-2.070544,2.587902,0.9580636,0.12144001,-0.07904596
-10.942411,-1.0859812,2.007021,0.9474171,-0.19474384,-0.15889478
-10.401982,0.10724108,0.9678704,0.82552326,-0.122871175,-0.16315338
-10.525523,0.8780111999999999,-0.119384475,0.7472627,-0.019600047,-0.05668829400000001
-9.899554,0.59664464,-0.31884062,0.74619806,-0.03876376,-0.0008028514599999999
-9.060559,-0.14539509,-0.16920301,0.6913773,-0.11381292,-0.019949114
-8.454951,-0.12951674,-0.06735368,0.58437115,-0.20432569,-0.024748769
-7.994182,0.7376248000000001,-0.036698323,0.50026375,-0.17503907,-0.047106437
-8.000014,1.5210075,-0.23222798,0.43905503,-0.14309955,-0.042847835
-8.15964,1.5003983,-0.42527726,0.38367572,-0.14309955,-0.014102261000000001
-8.171449,0.75962275,-0.40615237,0.30543262,-0.17929767,0.0055850535
-7.9958677,0.07803182,-0.28642312,0.23197171,-0.24797638,0.0050440015999999996
-7.967032000000001,0.38426940000000004,-0.41219535,0.17502162,-0.27459264,-0.029007372000000003
-8.343247,0.65085894,-0.80177987,0.11433652,-0.24584708,-0.093951076
-8.279867999999999,0.49309063,-1.1999356,0.04246386,-0.21975441,-0.14983651
-8.006738,0.34688154,-1.5644864,-0.0394968,-0.18516198,-0.20041616
-7.710258500000001,0.37015316,-1.5806997999999999,-0.14009757,-0.1542871,-0.21851522
-7.880812,-0.16780479999999998,-1.2201523,-0.18055432,-0.12873548,-0.21425661
-9.198686,-0.58817875,-0.44678676,-0.15341444,-0.07496189,-0.19189896
-10.709638,-0.6675896,0.1152856,-0.10018189999999999,-0.026529005,-0.15730652
-10.82953,0.65684444,-1.2344505,-0.15873769,0.00061086525,-0.112573735
-10.4763565,1.540439,-2.2630475,-0.2864958,0.23696335,-0.14451326
-12.067791999999999,1.206898,-2.1542165,-0.48078585,0.34075809999999995,-0.10937978
-13.751767000000001,-2.047301,0.70126164,-0.55532885,0.1629614,-0.02528982
-13.367728,-3.6132622000000003,3.2802860000000003,-0.386573,-0.104248516,0.025272367999999996
-13.421033,-2.082333,2.4609616,-0.33494613,0.07620107400000001,0.06518805
-12.574012,1.7676679,0.6901526,-0.35250413,0.38015017,0.14716616
-13.030414,2.2599635,1.8608885,-0.58566266,0.11931071,0.013020156000000001
-12.860502,-0.16198212,2.761501,-0.8007221,-0.516792,0.118420586
-10.560029,-1.3182281999999999,2.5745617999999997,-0.9274155999999999,-0.63231534,0.21104520000000002
-9.195333999999999,-1.2863280000000001,2.4026867999999997,-0.9268745999999999,-0.5758888000000001,0.25097835
-8.659732,-0.18420029999999998,1.9774,-0.8512843000000001,-0.45717153,0.20732766
-9.189003999999999,-0.08237012,1.6212002,-0.7634594,-0.43268457,0.12693779
-8.873563,-0.7364276999999999,1.1680256000000002,-0.7176794,-0.42577308,0.10990338
-8.251491999999999,-1.1974839,0.83786523,-0.7134208000000001,-0.40500364,0.0678584
-7.771080499999999,-1.444125,0.73495287,-0.69373345,-0.35550612,0.046565384
-7.530023,-1.4228454,0.7704445,-0.66392326,-0.29375637,0.04921828599999999
-7.4719872,-1.505541,0.52268296,-0.62666047,-0.28469809999999995,0.049759335999999994
-7.9382152999999995,-1.1718659,0.11176134,-0.60376173,-0.24424137,0.09073967
-8.073727,-0.70901895,-0.12502521,-0.5398826999999999,-0.27459264,0.17325884
-7.948060000000001,-0.94773996,-0.027925968,-0.4605575,-0.27459264,0.25523695
-8.074904,-1.1967082,0.2379262,-0.35943309999999995,-0.21390755,0.33135074
-8.172397,-1.4537593,0.22672133,-0.2343279,-0.16706291,0.40374702
-8.105637,-1.596808,0.35872802,-0.08208284,-0.08402015,0.44368014
-8.0888,-1.5729426000000002,0.45038763,0.059498273,0.029880037999999998,0.42716932
-8.338364,-1.5869151000000001,0.4926022,0.163293,0.14805628,0.39842376
-8.712241,-0.71587586,0.20643765,0.20535544,0.28113765,0.34838519
-10.165675,-0.31161973,-0.33896148,0.09302605,0.34075809999999995,0.20252799999999999
-11.447512,-0.53835064,-0.49142426,0.09941395,0.305101,0.11416198
-11.677507,-1.6282583000000002,-0.5132594,0.15371114,0.15283848,0.05932374
-12.542408,-1.0245076,0.46781746,0.13987069,0.27794367,0.00024434610000000003
-13.473887,1.1634958999999998,0.7990217,-0.10445795,0.32105333,-0.0646819
-13.542572,1.7301171999999998,1.6941179,-0.31578243,0.19490092,-0.11739085
-12.47834,-1.0600089,1.4422096000000002,-0.34398693,0.4701219,-0.14505431
-13.662914,-3.9637157999999997,2.8083315,0.023823743999999997,0.61224407,-0.05935865
-13.373628,-1.1817875,4.1177779999999995,0.34588936,-0.04462807,-0.09927433
-11.120205,1.2160916000000002,4.5069795,0.5997998999999999,-0.5487314999999999,-0.20840977
-8.806448,1.3288777,2.8658977,0.65357345,-0.45717153,-0.2925172
-7.824758999999999,-0.08340441400000001,1.3556736,0.48855257,-0.35018286,-0.3058166
-7.401942699999999,-0.67365175,0.9096434000000001,0.3576005,-0.26448720000000003,-0.23715533
-8.097497,0.44640368,0.9439091999999999,0.31662017,-0.16706291,-0.14824827
-8.809389,1.263698,1.2277658,0.30808553,-0.23945917,-0.08436921
-8.652732,1.0643280000000002,1.3942777,0.3410897,-0.25010568,-0.05030039
-8.353216999999999,0.7698795,0.9727353999999999,0.38632864,-0.14470525,-0.056705747
-8.29159,0.6835733,0.5235065999999999,0.3618591,-0.09786061,-0.05190609
-8.339042999999998,0.51625687,0.41082588,0.26869345,-0.13566445,-0.042865288
-8.392874,0.49478573,0.49831957,0.18512708,-0.17877407,-0.05668829400000001
-8.511426,0.8147564,0.51925445,0.14145893,-0.20167279,-0.06948156
-8.573761,0.93667877,0.48763183,0.12229522,-0.21977186,-0.12110839999999998
-8.339521000000001,0.77767503,0.13962027,0.0919614,-0.21764256,-0.21214478
-8.400277,0.49827167,-0.28377035,-0.0043807765,-0.15269886,-0.27708846
-8.330605499999999,0.45554957,-0.43238324,-0.11829842,-0.09307841,-0.30956906
-8.114218,0.30562463,-0.2853314,-0.21889919,-0.054209925,-0.32073915
-8.337826,0.068723164,0.23220883,-0.26574382,-0.028134707000000002,-0.3159395
-9.311902,-0.35514629999999997,0.8455554,-0.2380629,-0.028134707000000002,-0.29571113
-10.376059,-0.32005690000000003,1.2439506,-0.18057176,-0.03291691,-0.26218337
-10.766266,0.26373568,0.21204008,-0.19334757,0.06607816,-0.22970279
-10.35318,0.5498331999999999,-0.86365557,-0.28012535,0.25930357,-0.23024383
-10.890457000000001,0.26735570000000003,-1.2997642,-0.40256020000000003,0.40037853,-0.20788616
-11.958981,-0.50961065,-0.716709,-0.5068785,0.39879027,-0.16156512
-11.794221,-0.9836243,0.52594864,-0.50155526,0.2912431,-0.14346607
-12.597695,-1.8942732,3.2801042000000002,-0.39988983,0.120898955,-0.083845615
-13.129601000000001,-2.5053885,4.1497645,-0.18430677,0.07566002,-0.05935865
-11.288067999999999,0.14180377,1.5162001,-0.20292944,0.22736403,-0.068940505
-11.378645,1.0426461999999999,2.1161776000000003,-0.32590532,0.24600416,-0.076934114
-11.709686,-0.09377609,3.3335428,-0.4595103,-0.1495049,0.0667763
-10.732057000000001,-1.3910408,3.8621727999999997,-0.49783772,-0.37679914,0.16685347
-9.767874,-1.8294381999999998,3.5567687000000006,-0.43449970000000004,-0.31026718,0.17856464
-8.814072,-1.1333194,2.8891501,-0.32749358,-0.17983873,0.116291285
-8.979500999999999,-0.43539992,2.4506092,-0.20238838,-0.104248516,0.05667084
-9.316357,-0.41488642,1.904779,-0.12733923,-0.09520771,0.062517695
-8.837036999999999,-0.90139776,1.5052633,-0.10232865,-0.102119215,0.060929444000000006
-8.303646,-1.1943618999999999,1.2183326,-0.10924016,-0.06539748599999999,0.05667084
-8.0369425,-1.2639373999999999,0.9888531999999999,-0.11934561,-0.07550294,0.06944665
-7.8536806,-1.2799593,0.754796,-0.118822016,-0.09520771,0.0689056
-7.799256,-1.340006,0.8040974,-0.07836528,-0.102119215,0.0689056
-8.19881,-1.1031715,0.76372164,-0.005427974,-0.057927478,0.08595747
-8.569691,-0.59255534,0.38950786,0.024888393999999998,-0.040369466,0.13171999
-8.534524000000001,-0.48185703,-0.0014652514000000002,-0.0118333325,-0.051557027000000005,0.20998056
-8.440615,-0.75890446,-0.270382,-0.04803146,-0.027593656,0.2807711
-8.322503999999999,-1.1534402,-0.23586717,-0.058677968,-0.020682152,0.3201632
-8.125183,-1.0345824000000001,0.15245318,-0.050160762000000005,0.013910273999999999,0.33080970000000004
-8.171219,-0.93677455,0.40298244,-0.03260275,0.06021386,0.30260518
-8.67245,-1.0858951000000001,0.7874338000000001,0.011571533,0.12941617,0.30206412
-9.24429,-0.7730973000000001,0.8349348,0.13241813,0.22045253,0.30579913
-9.925585,-0.09310571,-0.37103423,0.20320868,0.40835467,0.26480135
-10.379649,-0.24980143,-0.83838236,0.2820103,0.42008328,0.23872614
-10.140678999999999,-1.2174132,-0.9301282,0.37302923,0.46903977,0.2009223
-11.240863000000001,-1.2023584999999999,-0.3684868,0.3671649,0.60105646,0.11787954
-12.751928999999999,0.17953639,0.11975797,0.23727751,0.5281366,0.10032152400000001
-13.460164,0.78326786,1.1006242,0.1552994,0.31998867,0.11681489
-13.521714000000001,0.67124796,2.2798738,0.08183849,0.2534567,0.124267444
-12.944778,-0.90930825,2.5266778,0.033405602,0.39132026,0.0731642
-12.947153,-3.1760523,2.5890896,0.16594589999999998,0.37322122,0.0023736479
-10.977874,-0.71337634,3.0701709999999998,0.38365826,-0.13353515,0.00022689281000000004
-9.149069,0.8376737,3.0581617000000003,0.47256535,-0.25010568,-0.11046189
-8.5525,0.5440871,2.0605265999999998,0.45766023,-0.17399187,-0.20416862
-8.606264999999999,-0.5935705,1.5218886,0.39271653,-0.17505652,-0.21692698
-8.885409,-0.420508,1.0110427,0.29157472,-0.13672909,-0.14133677
-9.204815,0.63084346,1.051294,0.21333160000000004,-0.11756538,-0.08065166
-9.377025999999999,0.7822336,0.8975095999999999,0.16594589999999998,-0.10159562,-0.029024825
-9.123833,0.6864655,0.63570845,0.1526465,-0.0786969,0.005026548
-8.723504,0.70529354,0.4229597,0.14145893,-0.030787607999999998,0.013020156000000001
-8.496773,0.7954304,0.24380635,0.08768534,-0.023876105,0.0023561944
-8.534419,0.9155139999999999,-0.015150508,0.011047933999999999,-0.040910516,-0.004537856
-8.593430999999999,0.9141158000000001,-0.2114942,-0.06080727,-0.088278756,0.0018325957
-8.456627000000001,0.49249685,-0.10345824,-0.09807005,-0.10159562,-0.01998402
-8.4534855,0.24305935,-0.15607323,-0.10499900599999999,-0.119153626,-0.08758062
-8.142766,0.38348407,-0.3804578,-0.13213888,-0.14205235,-0.16156512
-7.909733999999999,0.4808802,-0.6842054,-0.17578956,-0.12021828,-0.23076743
-7.875295599999999,0.6828741999999999,-0.6204909000000001,-0.2311514,-0.078173295,-0.28612927
-7.544321000000001,0.6107513000000001,-0.31400433,-0.2897072,-0.0094945915,-0.33883822
-7.6661285999999995,-0.11141657,-0.56081784,-0.3610388,0.041591197,-0.376101
-8.492339,-0.642508,-0.29431440000000003,-0.35145694,0.11397,-0.39100609999999997
-9.477313,-0.63688636,-0.15312357,-0.33068752,0.17999579999999998,-0.38568285
-10.308292999999999,-0.052959744,-0.66356736,-0.33922220000000003,0.28698447,-0.34896109999999997
-10.280712,0.6481296,-1.3828813999999998,-0.4079009,0.38758525,-0.3239331
-10.835295,0.7986003,-1.5225494,-0.44940484,0.57389915,-0.27070057
-12.535877000000001,-0.09889010000000001,-0.72755957,-0.5186246,0.58402205,-0.18819885
-14.059327,-2.4832947,1.0450116,-0.4132067,0.33489376,-0.10196213400000001
-13.759495999999999,-3.5297620000000003,0.8504299999999999,-0.3418751,0.16880825,-0.079063416
-13.451535,-1.4320104,0.609468,-0.40362483,0.22949335,-0.015184363999999999
-14.359072,-0.5760449000000001,2.6581099999999998,-0.23808037,0.15123278,0.056653388
-13.795485999999999,-0.4731517,3.284816,-0.07625344,-0.31185544,0.052394785
-12.192414999999999,-1.7449708,3.2868176,-0.15397294,-0.6179513000000001,-0.011990411999999999
-10.337531,-1.9345533,3.1093402,-0.2785371,-0.63338,-0.011990411999999999
-8.255600999999999,-0.5708926,2.4545453,-0.2226342,-0.5136155,-0.04447099
-7.256519,-0.6228564,1.8072393,-0.09328785,-0.38426915,-0.093968526
-7.7364416,-1.5797614,1.8289593000000002,0.038711403,-0.25384068,-0.10250319
-8.533375,-1.8747938999999998,1.7585698,0.15636405,-0.20060815,-0.10035643
-8.945532,-1.7071998,1.0594341999999999,0.13826498,-0.16441001,-0.13177235
-8.861514999999999,-1.5946053,0.9047400999999999,0.08768534,-0.16760397,-0.13655455
-8.408542,-1.5311686000000002,0.86269796,0.10206685,-0.17983873,-0.13868386
-8.284646,-1.3109117000000001,0.61970556,0.13240068,-0.16334537,-0.103026785
-8.437827,-1.4205565,0.44221863,0.14837044,-0.16973327,-0.07586946
-8.827863,-1.4374403999999998,0.28689238,0.14624114,-0.17772688,-0.03488913
-8.902016,-1.1670488,0.057106500000000004,0.12974778,-0.18622664,0.027907815
-8.611685000000001,-1.1219708000000002,-0.03901591,0.11590732,-0.19580849,0.10456268
-8.370149000000001,-1.2127111000000002,-0.07419152,0.11164871,-0.17718582,0.19401079999999998
-8.193466,-1.287525,-0.19265662,0.14465289,-0.12447688,0.27597147
-8.028821,-1.4200873,-0.4300848,0.19947368,-0.0765676,0.33026865
-8.141119,-1.5485984,-0.324558,0.24153611,-0.024417156000000002,0.3856305
-8.325836,-1.4843955,0.16945203,0.2851868,0.0027227136,0.4308869000000001
-8.850943,-1.4620049,0.52368855,0.35651842,0.08628908,0.46069709999999997
-9.301521000000001,-0.9712127,0.9146904,0.45392522,0.16933185,0.4713436
-9.667652,-0.7709234,0.18005355,0.42252675,0.29921925,0.39095375
-9.899305,-0.8345517,-0.83044326,0.43050292,0.3796091,0.34304446
-9.645683,-1.456412,-1.6611356,0.46244243,0.5009793,0.3159046
-10.097403,-2.6932182,-1.0889403999999998,0.44860196,0.61702627,0.25041983
-12.060398,-1.6621698,-0.08218816,0.39749873,0.72987926,0.16898277
-13.034272999999999,0.3779391,0.14640065,0.34320155,0.6164852,0.14501941
-12.660155,0.3819422,0.6844735,0.33629003,0.61489695,0.09178686
-12.43873,-0.33285149999999997,1.0718842,0.39591047,0.6356489000000001,0.09072221
-12.960197,-0.6150800000000001,2.227278,0.4635071,0.61330867,0.016196655
-12.666505,-0.22108059,2.9044157999999998,0.6104289,0.104929194,-0.05724680000000001
-11.337914,0.63141805,3.119329,0.6823016,-0.2123193,-0.1227141
-10.390806,0.5381208000000001,2.4085958,0.59606487,-0.22615977,-0.18926351
-9.7225275,0.10034578,1.3743961999999998,0.44381976,-0.23787092,-0.14081316
-9.489399,0.6275586,0.45310745,0.28731609999999996,-0.1452463,-0.027960173999999997
-9.503983999999999,1.1790485000000002,0.23871149,0.18669787,-0.11437143,0.06091199
-9.258272,0.8461299999999999,0.68343925,0.15849335,-0.15961036,0.09019861
-8.968755999999999,0.5961083,0.6507056999999999,0.13452998,-0.1601514,0.093392566
-8.34365,0.8471451999999999,0.312156,0.09354965,-0.18250908,0.103515476
-7.86298,1.0773046,-0.016663643,0.05681047,-0.17664477,0.10190977
-7.9767714000000005,1.3146658000000002,-0.25741497,-0.008115780999999999,-0.19102629,0.11362094
-8.301138,1.3314252,-0.21346703,-0.08210029,-0.22455406,0.12959069
-8.576012,0.63558394,-0.059108052,-0.118822016,-0.24958208,0.117355935
-8.562105,0.06577351,-0.035855565,-0.11030481,-0.26129323,0.06784095
-8.353073,0.3491704,-0.386156,-0.10925761,-0.24851742,-0.013596115
-8.412765,0.69364816,-0.7152438,-0.16194909999999998,-0.21551326,-0.079063416
-8.509932000000001,0.8104564000000001,-0.8985822,-0.23434536,-0.19422024,-0.11580259
-8.545078,0.7053701,-0.9332693999999999,-0.2854486,-0.18516198,-0.14400712
-8.568925,0.6036836,-0.8480549999999999,-0.32803464,-0.16866861,-0.1860521
-8.859139,0.40421787,-0.47425306,-0.37114426,-0.18196803,-0.22385593
-9.217275,0.042837054000000006,0.048152182,-0.37967893,-0.23734732,-0.2520779
-9.306281,-0.66554976,0.29259062,-0.39776054,-0.27246335,-0.28665286
-9.475743,-0.48794788,0.021164743,-0.3738146,-0.24904104,-0.28986427
-9.714991,0.09323022,-0.6831615,-0.37540287,-0.16280429999999999,-0.2967758
-9.872778,0.76940066,-1.2491316000000001,-0.4089481,-0.010559242,-0.28825858
-10.032941000000001,1.1202278,-1.9657832,-0.4680275,0.16135569,-0.28560567
-10.660260000000001,0.95035446,-2.1313663,-0.6059085,0.26623252,-0.23130849
-11.869647,-0.73034644,-0.056876656,-0.5856800999999999,0.35086355,-0.15198328
-12.242186,-1.6800017,1.17517,-0.411601,0.19542451,-0.12590805
-13.553882000000002,-2.7317266,4.459708,-0.28386036,-0.07178539,-0.05405285
-13.356045000000002,-3.0241544,3.807068,-0.017156586,-0.060074233,-0.026371923999999998
-10.760606,0.022658726,-0.560339,-0.093811445,0.28220227,-0.070005156
-11.941952,1.4195893,2.024987,-0.30674163,0.18851301,0.00024434610000000003
-12.903751,-0.15325764,5.4573817,-0.22741639999999996,-0.4342903,0.17804104
-11.551496499999999,-1.6463009999999998,5.1429653,-0.058677968,-0.4832642,0.3004759
-9.522239,-1.5556374,3.3648684,0.030735249,-0.31824332,0.20146336
-9.406454,-1.1056998,2.5142374,0.06588618,-0.12554154,0.05560619
-10.346878,-0.48947057,2.1498208,0.11323696400000001,-0.061662484000000004,0.027907815
-10.019198,-0.6973448,1.6530240000000003,0.17606881,-0.14098770000000002,0.023666665
-8.655536999999999,-1.3420266,1.4253832,0.21652554,-0.16865116,-0.01303761
-7.963824000000001,-1.3324593999999998,1.0067713,0.2181138,-0.10904817,-0.04392994
-7.8641863,-1.0748626000000001,0.98640156,0.2202431,-0.12234758,-0.039147735
-7.6700644,-1.0165206,0.84838057,0.21865484,-0.19209094,-0.033265974
-7.621931599999999,-1.1504809999999999,0.64608014,0.22930136,-0.20219639,-0.020507618999999998
-8.004104,-1.1710615,0.50770485,0.23195426,-0.18729128,-0.00986111
-8.427552,-0.757286,0.25524107,0.26443484,-0.20539035,0.03005457
-8.073373,-0.5655488000000001,0.10648451,0.29583332,-0.24478243,0.09180432
-7.9392495,-0.63077635,-0.03740701,0.301174,-0.16545722,0.15090117
-8.130403,-0.8277617,-0.14362337,0.31873202,-0.13351768,0.2046573
-8.304528,-1.0372927,-0.19107644,0.35067156,-0.09414306,0.24350834
-8.512814500000001,-0.9514940999999999,-0.035980064,0.37887606,-0.07178539,0.27066565
-8.917893,-1.0379535,0.30052978,0.37409386,-0.068050385,0.29037043
-9.532619,-0.68962586,0.7298005,0.37515852,-0.05475098,0.33773866
-9.620084,0.30160240000000005,0.9021927,0.41615630000000003,-0.018011797,0.36222562
-9.925785000000001,0.40711963,0.01934515,0.36079445,0.09855874,0.33348006
-9.6160145,-0.120581575,-0.83741516,0.3639884,0.19490092,0.33082715
-9.082548,-0.9524517,-1.3788303,0.41880920000000005,0.32372367,0.28344148
-9.94016,-1.3990948,-0.6669096999999999,0.39592794,0.43870595,0.17751744
-12.02689,0.13442965,-0.08269572,0.18510962,0.4876799,0.12161454
-13.686338000000001,1.8367548999999999,0.7402201,-0.061854467,0.28700194,0.11203268
-13.542342000000001,1.7765168000000002,1.4491528,-0.19654153,0.1650907,0.051888637
-12.3592615,-0.9655623999999999,3.187554,-0.21303488,0.05810201,0.037507123999999996
-12.234629,-1.6522865000000002,3.5609632000000007,-0.0352382,0.46319294,0.05560619
-11.985613,-0.11112926,3.7565312000000004,0.18406242,0.17201965,-0.042847835
-10.690809,0.96688396,4.3032517,0.3235317,-0.1484228,-0.1274963
-9.751803,0.7660392,3.8255513,0.2905275,-0.17503907,-0.2403493
-9.326153999999999,-0.15541242,2.6413026,0.18832102,-0.12712978,-0.27387705
-9.392367,-0.22999659,1.7170545,0.07333873,-0.10157816,-0.19189896
-9.298591,0.7024109000000001,1.3829962,-0.008098328,-0.10053097,-0.10355038
-8.777764999999999,0.9028533999999999,1.4381396,-0.025132742000000003,-0.14257595,-0.06839945
-8.456703,0.6840713,1.3535378999999998,-0.010751228,-0.106901415,-0.054558992
-8.249547999999999,0.44973642,1.0462278,0.025429446,-0.052604225,-0.05510004599999999
-7.78355,0.46603617,0.7446829,0.022759092999999998,-0.021205751000000002,-0.07106981
-7.8474364,0.80123395,0.50299305,-0.022462387,0.029356438999999998,-0.073722705
-8.110483,1.1899853,0.23663332,-0.08955284,0.014433873,-0.07213446
-8.328824000000001,1.2160726,0.25624663,-0.13212143,-0.011623893,-0.060946897
-8.568646000000001,0.54819554,0.33266953,-0.15180874,-0.022252947000000002,-0.08063421400000001
-8.342127,0.14687948,0.32310229999999995,-0.15289085,-0.054209925,-0.13707817
-8.096453,0.31754777,-0.06200025,-0.164602,-0.023335052999999998,-0.21957988
-8.177549,0.63441557,-0.50048393,-0.20823523,0.014451326,-0.27920032
-7.899687299999999,0.74153215,-0.42366835,-0.27797859999999996,0.040002946,-0.3100752
-7.575723599999999,0.35226366,-0.10564175,-0.32588790000000006,0.09909979,-0.33508575
-8.119399000000001,-0.7000166999999999,0.5872401999999999,-0.31737068,0.12730432,-0.34201473
-9.413216,-1.4186698,0.960525,-0.18854792,0.09908234,-0.33190927
-10.425695,-0.9741911,0.7992706999999999,-0.057595864000000004,0.11878711,-0.30262265
-10.380741,0.060669072000000004,-0.9839306999999999,-0.06239552,0.26090926,-0.31113985
-10.37536,0.85135895,-2.4265522999999996,-0.15074408,0.50045574,-0.32498032
-10.384601,1.0956155,-3.1890287,-0.24390976,0.707539,-0.3308446
-11.040736,0.6655977,-3.0097987999999996,-0.42437682,0.7187091,-0.24354324
-11.74513,-1.3018999,-0.9634555,-0.43128829999999996,0.5936214,-0.12960815
-12.419768,-2.4286015,2.2821243,-0.30085987,0.27742007,-0.062011547
-14.237657,-4.217635,7.1479754,0.18992673,-0.18407987,-0.008779005999999999
-13.577585000000001,-3.6658006000000003,4.413979,0.5902354999999999,-0.04195771400000001,0.048694685
-10.555117,1.5471044,0.30866048,0.5226214,0.50525534,0.0050440015999999996
-13.613564499999999,2.097043,2.3831307999999995,0.29745647,0.3450167,-0.04337143
-13.470841,-0.31684867,3.5843498999999994,0.17660987,-0.34005994,0.13493139999999998
-10.916659,-1.5715158,3.5475172999999995,0.14201744,-0.40926227,0.19083429999999998
-9.366633,-1.2256781,2.6414366,0.15692255,-0.32515484,0.1328021
-8.833053,-0.6064034,2.094007,0.2234545,-0.25862288,0.043912485
-9.135067,-0.26351540000000007,1.8823884999999998,0.29691540000000005,-0.21868975,-0.002391101
-8.981531,-0.58947164,1.5277114,0.36079445,-0.22881266,-0.029548422999999997
-8.489225999999999,-1.0097114999999999,1.1461427,0.37091738,-0.23572417,-0.06414085
-8.260378999999999,-1.0065128,0.80293864,0.34163076,-0.2527586,-0.06892305
-8.1314945,-0.7204056999999999,0.58576536,0.31342623,-0.2570172,-0.02687807
-7.903566400000001,-0.96910584,0.5478699,0.3139673,-0.27563986,-0.0013089969
-7.902877,-1.1727183,0.75559086,0.33419564,-0.26021114,-0.009826204
-8.402652999999999,-1.0706679,0.59025687,0.33044317,-0.19580849,-0.021554817
-8.600049,-0.44550347,0.07654741400000001,0.32246703,-0.18409733,0.032201323999999996
-8.135651,-0.32598493,-0.052356402999999996,0.29372147,-0.14629349,0.11737339
-8.059669,-0.54074484,-0.13033077,0.28415707,-0.017470745,0.17699383
-8.294137,-1.0180625,-0.07813717,0.30970868,0.040544,0.22010347
-8.573665,-0.9497607,0.18472701,0.32993704,0.06716027,0.26110125
-8.924444,-0.8544044,0.26359203,0.34058356,0.09962339999999999,0.26961845
-9.2104645,-1.0604014,0.46630429999999995,0.39222783,0.09962339999999999,0.29304078
-9.759666000000001,-0.9008328000000001,0.7487531,0.4699299,0.15446164,0.30848694
-9.979771000000001,-0.03271437,0.093718626,0.5157099,0.22738150000000001,0.27865925
-10.017636,0.046418782,-0.8649101999999999,0.48589966,0.2401573,0.23235568
-9.548622,-0.27514166,-1.5739291000000002,0.49548152,0.27848473,0.21106267
-9.190249,-1.1147785,-1.8063868000000003,0.46141270000000006,0.34609878,0.14611897
-9.786078999999999,-1.4113436000000001,-1.0668372,0.43746677,0.4802448,0.016231561000000002
-11.585906,0.013838486,-1.5967601999999999,0.28255135,0.6282313,-0.07105235
-12.018423,-0.056895807,-1.2277466000000001,0.09037315,0.44669956,-0.02794272
-12.516351,0.14118129,0.46740565,-0.037350047000000004,0.32639402,0.017837266
-13.117898,1.1578742,2.3674345000000003,-0.12625712,0.07513642,0.056164697
-12.948360000000001,0.61028206,2.3545537,-0.08367108599999999,0.30457740000000005,0.05030039
-12.553958,-2.7247355,1.2866441000000002,0.09358455,0.43285909999999994,0.028483772999999997
-11.666591,-1.4718403999999998,2.4458877999999995,0.23144811,0.038414698,0.08065166
-10.131993,0.6700126000000001,3.2620232000000002,0.35814157,-0.2617994,-0.032724924
-9.094672000000001,1.2900534,2.5700220000000003,0.40339795,-0.28893927,-0.11096803
-8.910233,0.30633330000000003,1.8706089,0.3027797,-0.3352603,-0.12800245
-8.52239,-0.24957158,1.1866046000000001,0.18353882,-0.35070646,-0.07689921
-8.904361999999999,0.43019015,0.52397585,0.0871792,-0.25169393,-0.036459927
-9.347969,1.0111289,0.7162111,0.037681658,-0.29480356,-0.017296214
-9.483547999999999,0.8799074,0.73385155,0.021729348,-0.30864403,0.020490166
-9.0676365,0.8667488999999999,0.5446809,0.0052185343,-0.30970868,0.061470497
-8.434169,0.8974617,0.18839495,-0.031503193,-0.30705577,0.081716314
-8.146299,0.8850598,-0.09175538,-0.10016444,-0.28682742,0.058817595
-8.236638000000001,1.0050188,-0.28331068,-0.14913839,-0.28468066,0.013578662
-8.365666000000001,1.026289,-0.27495015,-0.19331266,-0.30065042,-0.03218387
-8.52197,1.0673448,-0.1823807,-0.21514674,-0.30492648,-0.07583456
-8.368951,0.7586938,-0.28230512,-0.23856905,-0.31929052,-0.15090117
-8.012167999999999,0.6468175,-0.3817315,-0.27583185,-0.31503192,-0.23766148
-7.905241999999999,0.99187946,-0.42363963,-0.34238124,-0.23092452,-0.29728192
-7.653506299999999,0.95054597,-0.55215085,-0.45734608,-0.122853726,-0.33934435
-8.231888,-0.19676508,0.13791558,-0.5494471,-0.032899458,-0.3494498
-8.90576,-0.6214486,-0.16659813,-0.48556805,0.07621853,-0.3702018
-9.079713,-0.12025597,-0.08061756,-0.48609164,0.18001325,-0.3696782
-9.7373905,0.7369736,-0.83088374,-0.47225118,0.32002357,-0.32070425
-10.394647,1.1261367,-0.8035898,-0.5207015,0.49460885,-0.23074998
-12.363744,0.3932907,0.50268656,-0.60693824,0.52124256,-0.09871582
-14.046848,-2.2108154,2.806311,-0.41901866,0.2747672,-0.049741883
-13.453210999999998,-3.5941565000000004,2.574121,-0.28593728,0.07728318,-0.05400048599999999
-12.096417,-0.98964804,1.0988141000000002,-0.26199138,0.27796113,-0.013020156000000001
-13.085471,-0.93303955,1.9430766,-0.3136182,0.2162114,0.009320058
-13.434517000000001,-1.4663049,3.2905717000000005,-0.34768704,-0.25115287,0.06574655
-12.033381,-1.6786802,3.6838337999999995,-0.40891320000000003,-0.5151863,0.12110839999999998
-9.936799,-1.2267603,3.308758,-0.3652625,-0.4928286,0.16208872
-7.865077,-0.7294175,2.9258676,-0.23537510000000003,-0.38582247,0.06096435
-8.299434,-1.437881,2.3882258,-0.08578293,-0.18514453,-0.035901424
-9.0248375,-1.922295,2.0151517,0.04728097,-0.11007792,-0.09552187
-9.154795,-2.0371208,1.4827675,0.11807153,-0.12817699,-0.15568337
-8.756515,-1.7545668,0.91331136,0.11274827,-0.14362314,-0.1913579
-8.403417999999999,-1.1361732,0.51505023,0.054733526,-0.1558579,-0.16952384
-8.119111,-0.77238864,0.54029477,0.007888888,-0.21069615,-0.13651966
-8.135477999999999,-1.0038025,0.6479093,-0.025097834,-0.26019368,-0.11255628599999999
-8.476747999999999,-1.1959708,0.75143456,-0.05384341,-0.2857453,-0.09285152
-8.902821000000001,-1.1935096,0.64275694,-0.078330375,-0.30545008,-0.04283038
-8.914896,-1.1319498,0.3919021,-0.102276295,-0.3182259,0.038606685
-8.773197999999999,-1.3211683,0.39660429999999997,-0.11398745,-0.30119148,0.13548991
-8.689841,-1.5421818,0.37016276,-0.09430013599999999,-0.26392868,0.21055652
-8.591688000000001,-1.6027744,0.16725893,-0.02989749,-0.20909044,0.2701595
-8.5754175,-1.6629168,0.0005650316,0.030787607999999998,-0.17343336,0.30422834
-8.553027,-1.5982445,0.043296747000000003,0.061662484000000004,-0.12337732,0.31595695
-8.6252365,-1.5197052,0.33422098,0.07016224,-0.069097586,0.305293
-8.921294,-1.4392503,0.72214866,0.094125606,-0.017976891000000002,0.31808627
-9.478147,-1.1492552,1.191374,0.17238617,0.013404128999999999,0.34309682
-9.704906,-0.83909106,0.68023103,0.25169393,0.08206538,0.32977995
-9.902122,-1.2811948,-0.17311037,0.33049554,0.19758873,0.3255388
-9.807703,-1.8984487,-0.8826847,0.47581166,0.3519631,0.30583405
-9.77973,-2.6582055,-0.984783,0.57641244,0.53454196,0.23130849
-11.311377,-1.4395281,-0.27208668,0.558837,0.70329785,0.12217305
-13.221175,0.6160951,0.29874846,0.34644786,0.7022331999999999,0.07480481
-13.512979500000002,1.1793837999999999,1.4247702,0.23732987,0.42648867,0.08065166
-12.355134,0.019431341,2.9097211,0.23891813,0.36313320000000004,0.10622074
-12.145939,-1.0194511,3.7064063999999997,0.4012861,0.45097563,0.024766222
-12.053666,-1.1224878999999999,4.504882,0.6717074000000001,0.28169614,-0.048136182
-10.991579,-0.8520293999999999,4.499835,0.8793143,-0.053651422000000004,-0.09978047
-9.743597,-0.6285546,3.4983406,0.8713382,-0.22664845,-0.1886701
-9.0471325,-0.23878809999999998,2.0453665,0.7377158,-0.32833135,-0.20676915
-8.812913,0.9262305000000001,1.1213004999999998,0.59613466,-0.30010936,-0.11786208
-8.971811,1.4482048,0.6007531,0.45399505,-0.23996532,-0.017261306
-8.845695,1.1219995,0.606595,0.29907963,-0.28680995,0.051923542999999996
-8.494072000000001,0.77050203,0.7661445,0.20060815,-0.27775168,0.080128066
-8.261078,0.7298868000000001,0.6700795999999999,0.12447688,-0.21176079999999997,0.09342747
-8.33456,0.61914057,0.2510177,0.03398156,-0.14892894,0.09025098
-8.50838,0.86436427,0.019479224,-0.08044223,-0.13988814,0.09929178
-8.677727,1.1608334999999999,-0.022697033,-0.18531907,-0.15053464,0.12273155
-8.783052,0.8634162000000001,0.26994148,-0.25504497,-0.18245672,0.12431980000000001
-8.561522,0.4094947,0.6884574,-0.29656634,-0.22664845,0.092903875
-7.838118,0.5272415,0.123081125,-0.29178414,-0.18353882,-0.018325957
-8.483595,0.75551426,-0.22754493,-0.41208968,-0.082920596,-0.099239424
-8.534352,0.7577361,-0.21979728,-0.48555058,-0.058974676,-0.14608406
-7.8361554,0.22510284,-0.41842026,-0.49459141,0.004363323,-0.18599974
-8.407115,-0.77055943,0.5095244000000001,-0.4269948,0.08686504,-0.21689206
-9.834864,-1.5815521000000001,1.6815628,-0.12676327,0.09538224,-0.23390903
-10.2695265,-0.99926317,1.0781376,0.12449434,0.11030481,-0.24190263
-10.182243,1.1319976999999999,-0.89502925,0.17612118,0.40680134,-0.27171287
-9.97118,1.7384394,-2.2360792000000003,0.028134707000000002,0.68680453,-0.30471703
-10.023133999999999,1.7203392,-2.3465377999999997,-0.23375195,0.7975281999999999,-0.2855533
-11.734174000000001,-0.16680883,0.4091116,-0.38653806,0.7671769,-0.2600017
-13.180922500000001,-3.399345,4.015948000000001,-0.22364649,0.31098276,-0.15566592
-12.822473,-4.134814700000001,4.1738024,-0.042655847999999996,-0.08133234,-0.051330134000000006
-11.926313,-2.4445567,3.9758592000000004,0.078173295,-0.061086524,0.03488913
-11.925633,1.5374701000000002,3.8306174,0.026005406000000002,0.058660515,0.12644911
-12.317095,2.4276342,3.67215,0.05103342599999999,-0.15531684,0.11367329
-11.949967,-0.10452127,2.7633204,0.049968775,-0.3576005,0.13231342
-10.85418,-1.4909364,1.8212214,0.012705997,-0.36344737,0.059917152
-10.634144000000001,-1.5470469999999998,1.1531337,-0.07138397,-0.36344737,-0.052394785
-9.677373,-1.044322,1.2531538999999998,-0.10119419,-0.51462775,-0.12744394
-8.7361355,-0.26986483,0.91284204,-0.13528048,-0.5279446,-0.121056035
-7.910508999999999,-0.27563965,0.80384845,-0.17306685,-0.5428498,-0.10189232
-7.316325999999999,-1.0612155,0.9182051,-0.17732546,-0.5652074,-0.10882128
-6.9571095000000005,-1.8122574,0.8932671,-0.16242033,-0.54072046,-0.14076081
-6.9900446,-1.8287008000000002,0.70741,-0.15442674,-0.5119749,-0.092310466
-7.120576400000001,-1.5027733,0.51269436,-0.1155757,-0.48003536,0.0024260078
-7.4579762999999994,-1.2784175,0.71967787,-0.010175269,-0.44863690000000006,0.13390166
-7.775180000000001,-1.5229708,1.1313176999999999,0.14578736,-0.4747121,0.21055652
-8.112695,-2.5184896,1.0089835999999999,0.34007740000000003,-0.5566901999999999,0.2579422
-8.28006,-3.4433122000000003,1.1366233000000001,0.5221327,-0.5029340999999999,0.25687757
-9.070969999999999,-3.0541107999999997,1.9314599,0.6440439,-0.36931166,0.22280873
-10.097775,-0.39765775,1.6406889999999998,0.72762775,-0.16116370000000002,0.13657202
-10.687027,0.049876012000000004,0.15419617,0.6552140999999999,-0.025429446,0.019460421000000002
-10.413426,-1.2763202,-1.301555,0.54929,0.13744467,-0.017784905
-10.423799,-2.71581,-1.3095516999999999,0.460924,0.39669588,-0.0023387412
-10.844728,-2.4079634999999997,-0.46755886,0.35339427,0.6043028,0.021589722000000002
-11.960953,-0.060563724000000006,0.8563485000000001,0.17879152,0.67031115,0.011466813000000001
-12.292655,1.9136183999999998,3.0416512000000004,-0.04209734,0.40414843,-0.027890362000000002
-12.387763,2.9268446,4.3778167,-0.20181242,0.29820696,-0.092310466
-11.070855,1.9583325,3.7347631000000003,-0.19327776,0.16193165,-0.20516345
-9.62086,0.092148036,4.474533,0.001012291,0.22582816,-0.22910938
-9.910194,-1.6989158,3.7356154999999998,0.05050983,0.4094717,-0.35367352
-12.107553999999999,-2.0831566,3.1697314,-0.06819001599999999,0.3344051,-0.33131585
-12.475246,-0.54992896,1.7928643,-0.05009095,0.12679817,-0.010332349000000001
-10.902381,1.4421331,1.8708676,0.016441,-0.066409774,0.12060225
-9.565621,1.1587744,1.8226099999999998,0.10053097,-0.17554522,0.15680037
-8.732305,0.58649325,1.5142943000000002,0.107459925,-0.21919589999999997,0.16053538
-7.778589,0.698561,1.0389973,0.005794493,-0.23835962,0.17437585
-7.007407000000001,1.042311,0.5991155,-0.19807741,-0.23249531,0.18661061
-6.829058,1.6142762,0.33575326,-0.43228313,-0.2175902,0.21430898
-6.9921417,2.1989212000000005,-0.039715018,-0.6228731,-0.23516566,0.23026128
-6.885475,1.9889207999999998,-0.022859837999999997,-0.809187,-0.24687682,0.24251350000000002
-6.857817,0.7234129,0.42746080000000003,-0.9305572,-0.26816985,0.12699015
-6.468827,1.1929636000000001,0.61223567,-1.0790672,-0.2931804,0.018936822
-5.934144,0.91626096,-0.87446785,-1.2701633999999997,-0.15371114,-0.07579965
-6.0489793,-0.39059007,-2.0777745,-1.4815053,0.085817836,-0.10828023
-9.190315,-1.5354303,0.68181115,-1.3792988000000002,0.35943309999999995,-0.1306379
-12.263197,-1.7971259999999998,1.5044686,-1.0481924,0.390308,-0.08005825400000001
-12.119947,-0.34521514,-1.5206053,-0.84323835,0.49944340000000004,-0.1529781
-11.097182,1.2060647,-2.9387963,-0.9678025,0.9311505999999999,-0.36964327
-12.877405,-1.2658432,0.44973642,-1.0125353000000001,1.0881778999999998,-0.3552792
-15.023577,-3.7475576,4.663454499999999,-0.9348158000000001,0.676158,-0.14234905
-15.881132999999998,-5.955998,8.021294000000001,-0.65001297,0.056007615999999996,0.034382987999999996
-13.435685000000001,-4.273113700000001,4.316765,-0.39875537,0.11456341,0.13817772
-11.514242999999999,2.119606,3.5611644,-0.6526833000000001,0.0027750734999999996,0.25900686
-11.115656,2.8474529,4.5184239999999996,-0.39927897,-0.16913986,0.25422466
-10.452749,-1.299678,3.5458894,-0.23425809,-0.06693338,0.11316715
-10.565708,-2.5443087,1.5353056999999999,-0.19540706,0.039514255,-0.049706977
-10.217016000000001,-2.5212286,0.4001094,-0.2539454,-0.14412929,-0.18065903
-8.959485,-1.813627,0.6238906999999999,-0.2944196,-0.37196457,-0.27382470000000003
-7.5471463000000005,-1.0260878,1.1436336,-0.25607470000000004,-0.37887606,-0.31586970000000003
-6.1340213,-0.5287930000000001,1.4576858,-0.1293987,-0.25644124,-0.275954
-5.7555747,-0.9965721,1.0830315000000001,-0.0564614,-0.14784685,-0.22059216
-5.942101999999999,-1.9168936999999997,0.40384436,-0.046879545,-0.116448365,-0.18013543
-6.20919,-2.334931,0.24871926,-0.0543321,-0.10206685,-0.16149531
-6.908383000000001,-1.6270228999999998,0.13686216,-0.021868976000000002,-0.049375363,-0.059288833
-6.6820064,-0.7785178,-0.17151104,-0.0021642083,-0.13613568,0.06419321
-7.0238504,-1.6046132,0.12919112,0.05157448,-0.11218976,0.15149458
-7.1431203,-2.458079,-0.5609615,0.19264944,0.0043807765,0.20685643
-8.169417999999999,-3.3965485,-0.59008455,0.32412508,0.09327039,0.19141026
-11.196475,-2.2929559,1.4157202,0.3326423,0.17153096,0.22495548
-13.64831,0.5586918000000001,1.2402347,0.25492278,0.021938787999999997,0.302675
-14.033392999999998,0.7245524999999999,-1.4241574,0.22724187,0.168337,0.29787534
-11.854161999999999,-1.6359293,-2.9069054,0.25865778,0.32590532,0.2856406
-10.291658,-3.3830357,-1.1405498,0.29059732,0.7150265,0.2611536
-12.097011,-2.655457,2.2350063,0.29644418,0.68575734,0.18502235
-13.755474,0.066261925,5.574937,0.37683403,0.26893779999999995,0.16959365
-14.741617000000002,2.0183887,5.733921499999999,0.25333455,-0.016894788,0.1254019
-12.704209,1.1272955,4.468356,0.49446923,-0.32990214,0.07909832
-9.719731,-3.1495245,3.0801307999999996,0.6797359000000001,-0.16488126,-0.1465902
-9.678742,-4.4298286,2.316304,0.60840434,-0.15158184,-0.18917623
-9.972539999999999,-1.9367272,2.2289060000000003,0.5030039000000001,-0.29051006,-0.08058185
-9.994441,-0.31290302,2.4713047,0.49820423,-0.31499702,0.0072431164
-9.418703,0.5188714,2.1133811000000002,0.6174451,-0.42465606,0.07642797
-7.9473996,0.80015177,1.0429716999999998,0.7319038,-0.56145495,0.11796680000000001
-6.383536,0.16318879,0.53006667,0.7654316,-0.4230678,0.10890854
-5.8954535,0.027973852999999996,0.11880987,0.68931776,-0.25431192,0.11690215
-6.6860857000000005,1.0667988000000002,0.078884155,0.49607494,-0.23247786,0.17917550000000002
-7.832764999999999,1.38291,0.43805274,0.41037926,-0.25324726,0.20952678
-7.945062599999999,0.6137201,0.23115538,0.40505599999999997,-0.37088245,0.12381366
-7.4349065,0.58571756,0.16884868,0.4007974,-0.32777283,0.018954275
-8.052294,0.7973840999999999,-0.5587875,0.3427652,-0.14465289,-0.08110545
-8.516463,1.3038343000000001,-1.0983257,0.2043606,-0.12123057,-0.13700834
-8.052572,1.6516831000000003,-0.8930564000000001,0.020717058,-0.029129544,-0.1359437
-7.486525,1.5980914,-1.316265,-0.15173893,0.1571669,-0.12156218
-8.690598,0.26446354,0.39955395,-0.24277529,0.24286257,-0.10400417
-11.2264595,-1.0114736999999998,1.1862216,-0.17462020000000003,0.22849850000000002,-0.0816465
-10.995122,0.42950064,-1.0892565,-0.15973254,0.36264452,-0.17373008
-9.947391,2.2456367000000004,-3.0687249,-0.43067744,0.6751108,-0.2583611
-11.369824000000001,0.17570567,1.2543701,-0.80436987,0.8380023999999999,-0.17107718
-14.483264000000002,-3.090838,5.971455000000001,-0.6478662,0.46005133,-0.014032447
-15.073453,-4.3400655,7.011783599999999,-0.48178068,-0.39111084,0.09080948
-12.970875,-3.369676,6.343811,-0.17142624,-0.10419615,0.08974483
-11.867905,1.8728308999999999,2.1764345,-0.38969709999999996,0.4589867,0.17013470000000003
-14.624904999999998,2.0983071,5.214054,-0.58505183,-0.008901179,0.27234116
-13.06605,-0.93422705,3.7058794,-0.5877047,-0.38952258,0.26223573
-10.525256,-2.030034,2.4526682,-0.5972866,-0.29476866,0.14725342
-9.626904,-1.2489497999999999,1.3431376,-0.5834461,-0.18882717,-0.009773844
-8.864168,-0.7246387,1.1448498,-0.5839871999999999,-0.24685937,-0.08271115
-7.640778999999999,-0.5212943,1.5206342,-0.5728171,-0.29583332,-0.119973935
-6.553323000000001,-0.58726895,1.5087876,-0.52756065,-0.23247786,-0.10506882
-5.766952,-1.5276538999999998,1.3808702,-0.4509058,-0.14997615,-0.06991789
-5.317426,-2.2697225,1.0616082,-0.37638026,-0.055745817999999996,-0.09229301
-5.9757934,-2.1384914,1.2546382999999999,-0.29492575,0.010245083,-0.109851025
-6.986271,-1.2008261999999998,1.1535742,-0.18154915,0.0054454273,-0.08695231
-7.0490375,-0.9599983,0.7859973000000001,-0.07827802,-0.055222217000000004,-0.024678955
-7.125029,-1.5562023999999999,0.6049764,0.061714843,-0.06585127,0.06846926
-7.479639,-2.5295987,0.48860866,0.22938862,-0.008901179,0.13287191
-7.7351103000000005,-3.229098,0.36395696,0.3938859,0.08635889,0.1850398
-7.888828,-3.3254695,0.63556474,0.5242969,0.23808037,0.19088666
-9.812022,-1.3033077,1.0089549,0.7106108,0.42652357,0.2478542
-11.563841,0.6305561,0.64098525,0.68825316,0.43717006,0.26223573
-12.335223,0.72182304,-0.36470395,0.46734682,0.32909927,0.20100957
-12.488826,-0.16137877,-1.9601330000000001,0.47052330000000003,0.5500231,0.110514246
-12.247491,-1.7211245,-1.6179537,0.57700586,0.7459188,0.079639375
-11.886531,-1.0115023,0.06258443,0.48916343,0.8353495000000001,0.012566371000000002
-12.170444999999999,-0.48642516,3.7398674,0.4487067,0.5297947,-0.044383723
-12.324392,-0.65093553,5.649722,0.5551718000000001,0.44568726,-0.101874866
-12.683638,-1.1333576,5.1165624,0.8271988000000001,0.37274995,-0.15669566
-12.438691,-0.84242386,4.8261933,1.2615763,0.1614255,-0.24506168
-11.843933999999999,-1.572186,3.9114745,1.467054,-0.19095647,-0.41168827
-11.077482,-1.4623687,2.4376516,1.319591,-0.3229732,-0.43722242
-10.540473,-0.004012682,0.97867304,1.1205014,-0.21757275,-0.31532863
-10.261366,1.3865492,0.44442129999999996,1.0779328000000001,-0.14198254,-0.13540265
-9.504368,2.2594847999999996,0.33578202,0.97998494,-0.24471262,-0.016685348
-8.498191,1.4320295,0.67974263,0.8335867,-0.22502529999999998,0.07272787
-7.7616954,0.65907586,0.39727470000000004,0.6951821,-0.1643402,0.123290055
-7.5330305,0.8439465,-0.22990082,0.5535835,-0.16327555,0.16587609
-7.249901299999999,1.4623593000000001,-0.20510648,0.4247608,-0.17924531,0.17971656
-7.271870599999999,1.6929592,-0.22104228,0.29967302,-0.1728574,0.18132226
-7.7141850000000005,1.5043440000000001,-0.15647545,0.17669713,-0.1680752,0.18823376
-7.579190299999999,0.6634045,-0.15564226,0.07449065,-0.24897122,0.13660692
-7.3391285,0.65375113,-0.09582553,0.016458455,-0.28677505,0.026406832
-7.5020394,1.4146668,-0.5318959,-0.09264208,-0.24844761,-0.0842994
-6.9315395,1.8507083999999998,-0.48051625,-0.254469,-0.15847589,-0.16680111
-6.5019717,1.2701334999999998,-0.9491669,-0.4407829000000001,0.0320617,-0.23335052
-7.825467,-0.6706255,-0.006847417,-0.53979546,0.26417303,-0.29136527
-10.813221,-1.6576398999999997,1.5015188,-0.3763628,0.35732126,-0.25144958
-11.831187,-1.1334438,0.32677025,-0.25392795,0.10447541,-0.2732662
-10.251128999999999,1.0660421999999998,-2.0512466000000003,-0.24701644,0.24127431,-0.29084167
-10.171996,1.7971835999999999,-2.8870242000000004,-0.388615,0.69588023,-0.3062704
-11.337769999999999,0.21548773,-1.4546691,-0.4599465999999999,0.91839224,-0.2077989
-12.010407,-1.6039906000000002,0.5851046,-0.32899457,0.7224965,-0.12102113
-12.46181,-2.4892228,4.015986,-0.14322172,0.28918362,0.030665435
-13.350854,-3.3546690000000003,6.9554524,0.1319818,-0.104178704,0.20207421
-11.751288,-1.3788878,4.940617,0.11016518,0.043249257,0.31386256
-11.3504505,2.8467439999999997,2.1394107000000004,-0.33112386,0.39990729999999997,0.2499835
-14.665022,4.0784173,3.251393,-0.6111270000000001,0.0065275314,0.16322319
-14.547553,0.59312993,3.4968943999999995,-0.67233574,-0.83133525,0.25478315
-11.224333999999999,-1.9220171999999998,2.8867369,-0.6664889,-0.7882256,0.24200736
-10.116575,-2.2637944,2.007021,-0.61751497,-0.36714745,0.015777776
-9.916534,-1.6647077000000001,1.7629656000000002,-0.5669353,-0.41666245,-0.16414821
-9.143476,-0.9728408000000002,1.471869,-0.53979546,-0.4895823,-0.21312216
-7.942170599999999,-0.65085894,1.0660998,-0.51104987,-0.44486699,-0.19502309
-7.087699000000001,-1.1529996,0.74618644,-0.48656288,-0.3682121,-0.19928169
-6.940119999999999,-1.6546040000000002,0.9332982,-0.44450045,-0.24631831,-0.22429226
-7.2003317,-1.8512638,1.2249215,-0.36571628,-0.18563321,-0.23760912
-7.272176700000001,-1.7694683,0.99505895,-0.22359413,-0.177116,-0.24664994
-7.350859599999999,-1.5896063,0.42918462,-0.09157742599999999,-0.13027138,-0.24185027
