accx,accy,accz,gyrx,gyry,gyrz
-9.593902,0.11962389,-1.439691,-0.5418026,0.22591542,0.080965824
-11.128815,-0.33597353,-1.2419491000000003,-0.5258328,-0.05087635,0.111840695
-10.887719,-0.72257966,-2.4140067000000003,-0.44971898,0.028955012999999998,0.06232571
-12.833984,-0.48022896,-1.0646824,-0.3954218,-0.020542525,-0.011641346
-15.56415,-1.4462893,0.45956220000000003,-0.3352603,0.007120943,-0.053162728
-12.579442,-1.0994462,-1.6979679,-0.26340508,0.03160791,-0.084578656
-11.382800999999999,-0.34554076,0.45820233,-0.20165534,0.018832102,-0.0813847
-14.643991,-1.7147081000000002,4.872928,-0.14629349,-0.020542525,-0.05263913
-11.496075999999999,-0.7157993,4.1509614,-0.07070329,-0.08068657,-0.034540065
-10.495366,1.6906416000000002,2.751139,0.0027401668,-0.17544049,-0.04358087
-12.449743,0.8885649,1.3900735,0.05597271,-0.23506095,-0.062220987
-11.875001,-0.57117033,1.6248298,0.14646803,-0.21324433,-0.07819075
-10.980863000000001,-0.9480081,1.714507,0.23165755,-0.21589723,-0.06646214
-10.210485,-1.0205429,1.1143285,0.23431045,-0.21909118,-0.006318091999999999
-9.116017999999999,-0.92052263,0.5010777,0.21886429,-0.117425755,0.06819001599999999
-8.286916,-1.0515813,0.2537279,0.2795494,0.10932742,0.12301081
-7.7034492,-1.2983756000000002,0.13383588,0.40250784,0.16043067,0.16559684
-7.024914,-1.5843295,0.052251056,0.49727920000000003,0.16629498,0.18636626
-6.592759599999999,-1.8191718999999997,0.14276145,0.46905723,0.15084879999999998,0.095853485
-6.452479,-1.9635519000000001,-0.00956723,0.4046546,0.17107718,0.033056535
-6.648842,-1.952711,-0.08158482,0.48450340000000003,0.25891959999999997,0.037315138
-7.0574746,-1.9058131999999999,-0.28761065,0.45254642,0.68797386,-0.0031415927
-7.422025,-1.5908608,-0.6608666999999999,0.26570892,0.43085197,0.02932153
-7.582782000000001,-0.89459825,-0.79916537,0.37643259999999995,0.28766516,0.14482743
-6.751773399999999,-0.27780402,-0.73836225,0.6601708000000001,0.31641075,0.107058495
-7.2638164000000005,0.24170902,-1.2756498,0.7133859,0.50111896,-0.067544244
-9.373808,-0.04019386,-1.728087,0.61810833,0.3196047,-0.18572049
-11.282666,-0.92147076,-2.0681496,0.4658633,0.22804472,-0.22830652
-11.956203,-1.579723,-2.1608438,0.45361108,0.14126694,-0.17135642
-11.205995,-1.2631521,-2.036192,0.4094368,0.04066617,-0.1356819
-12.240978,-0.86313844,-1.4723766,0.26944393,-0.023736477000000002,-0.06593854
-14.899194,0.7130124,-2.790107,0.19650662,0.0060562924,0.0032463125
-13.408832,0.33038068,-2.4146959999999997,0.18586011,-0.031712633,0.029862582999999998
-9.919205999999999,-0.6623319999999999,2.8981717000000002,0.18640116,-0.11955505599999999,0.042638395
-8.843961,-0.67231095,3.4115746,0.18160151,-0.21270327,0.05806710599999999
-9.621061,-0.36751953,2.7322439999999997,0.18053685,-0.32875022,0.060720004
-11.015445,-0.47552675,2.126147,0.14433873,-0.39423496,0.050614547
-12.357509,-1.0947248,1.6422212999999999,0.047996555,-0.4075344,0.06764896
-13.318542,-0.7626873000000001,1.7212108,-0.096778505,-0.41924554,0.100653134
-13.047375,-0.18915151,1.3491327,-0.2564936,-0.38252379999999997,0.11449360000000001
-12.018136,-0.5017576,0.66783863,-0.35177112,-0.3351381,0.07775441599999999
-11.065750999999999,-0.44101197,-0.05275863,-0.403939,-0.28457594,0.0021642083
-10.019456,0.16383043,-0.40698555,-0.44120178,-0.14990632,-0.07393215
-8.804227000000001,0.38862684,-0.40063614,-0.45875978,-0.024260076000000002,-0.10480702
-8.117321,0.5244354999999999,-0.24354778,-0.49176398,0.059288833,-0.12503539
-7.5140867,0.44565672,-0.30251217,-0.5109277,0.10560987,-0.10480702
-6.853738000000001,0.32205844,-0.4821156,-0.39648643,0.14606660000000002,-0.022305308
-6.670800999999999,0.5533766999999999,-0.6587694000000001,-0.26977554,0.22856832,0.0085695665
-6.7218266,1.0178517,-0.7276649000000001,-0.30490902,0.41807616,-0.049968775
-6.6338539999999995,1.4593713,-0.97366434,-0.34644786,0.47823766,-0.044121925
-6.6526437000000005,1.5431397,-0.964643,0.009128072,0.36164966,0.061261058
-6.758027,0.6801735,-0.93286717,0.11400491,0.06567674,-0.03986332
-6.7447919999999995,-0.35745433,-1.2917197,-0.49921653,0.28393015,-0.09681341
-6.7176795,-0.8234234,-1.911071,-0.7765668000000001,-0.33407348,0.10649999
-7.630043,-0.47666642,-2.7197077000000003,-0.59822905,-0.33993778,0.28537878
-9.585685,0.19235975,-2.6838424,-0.45769513,0.23869123,0.24811599999999998
-11.280567999999999,0.17436491,-1.8569906999999999,-0.49762827,0.22272147,0.17146115
-10.941253,-0.31865865,-2.1511712000000003,-0.41510909999999995,-0.28670523,0.08415978
-10.326948,-0.11337024,-2.8498185,-0.30812043,-0.22441444,5.2359880000000005e-05
-15.023366000000001,-0.5409938,-0.6024003000000001,-0.29375637,-0.14723597,-0.055833083
-15.837913,-2.7902122000000005,-0.78820956,-0.23678882,-0.15947074,-0.077667154
-9.880429,-0.4035092,-0.8611273000000002,-0.10955431,-0.10304424,-0.09787806
-9.280768,0.9994164000000001,1.8520588,0.0075398222999999995,-0.07909832,-0.09628981
-14.310564000000001,-0.85566854,6.0475235000000005,0.09590584,-0.16585864,-0.0707382
-12.6658535,-2.0830991,4.5146120000000005,0.16936675,-0.26328292,-0.06328564
-11.455805,0.21814050000000001,2.362876,0.21408209,-0.33407348,-0.06541494
-14.225723,0.7813334,1.3422756,0.27263787,-0.3425907,-0.09255481
-13.592295000000002,-0.333541,1.2127589,0.36789796,-0.32344443,-0.10161307
-11.481097,-0.6745903,1.4426596999999999,0.44244096,-0.2696708,-0.069673546
-10.519586,-1.1472057,0.45968673,0.45895177,-0.09719738,-0.021223204
-9.390432,-1.5528121000000001,0.26387933,0.4131718,0.16948892,0.051155599999999996
-8.148886,-1.5013465,0.5203941,0.34503415,0.27382470000000003,0.13632767
-7.233343,-1.4841465,0.17087896,0.36046284,0.25359634,0.21563543
-6.4127545,-1.4611717,0.11034397,0.39400807,0.22750367,0.21244147
-5.6528635000000005,-1.4879963,0.026048914,0.34129915,0.18811159,0.14163347
-5.581315,-1.6755486000000002,0.035347994,0.32107076,0.31586970000000003,0.10917035
-5.9403877,-1.8826948000000001,-0.16774735,0.23109904,0.55967474,0.012810716000000002
-6.5682529999999995,-1.8240081999999997,-0.491951,0.006475171500000001,0.32173398,0.013351769
-7.104066,-0.88823926,-0.72675514,-0.071750484,0.10506882,0.11929326
-6.890378500000001,-0.18521544,-1.1394868,0.32426473,0.14339624,0.12407546
-7.0817323000000005,0.38444173,-1.9340553,0.51377255,0.30789354,-0.014311700000000002
-8.832583999999999,0.5012501,-2.2179215,0.6319488,0.22804472,-0.16229817
-10.788828,0.012785036999999999,-2.0069156,0.62236696,0.07419395,-0.21766001
-11.581855000000001,-0.41371804,-2.0802355,0.63727206,-0.008831366,-0.21446607
-10.578522,0.095078535,-2.6772826000000003,0.62182593,-0.13817772,-0.15165167
-11.008252,0.70000714,-1.9215958,0.5318715999999999,-0.19088666,-0.03986332
-13.157432,1.8849741000000002,-2.7560613,0.40146065,-0.19301596,0.036250487000000005
-14.318226999999998,0.42104432,-3.1591492000000003,0.28913125,-0.20099212,0.057543505
-12.89902,-3.0046082000000003,1.1591862,0.21354103,-0.26647687,0.054349552999999995
-12.812992,-1.3628753,4.2760057,0.13847442,-0.28829348,0.037297685
-11.286775,-0.6296463000000001,3.9510934,0.041067597000000004,-0.33300883,0.038362335
-10.41041,-1.9722283999999999,3.0023289,-0.07230899,-0.34419638,0.06710791
-10.903156,-2.6147747000000003,2.3813975,-0.20430824,-0.33142057,0.11023499999999999
-12.07939,-1.6978338,1.9197667,-0.3342131,-0.29574603,0.12301081
-12.860905,-0.42203072,1.7646032999999999,-0.45024258,-0.27019440000000006,0.09320058
-11.965119,0.24192929999999996,0.83522207,-0.513057,-0.21111503,0.022933627
-10.79603,0.18453549,-0.11766064,-0.5513844,-0.14137167,-0.0819083
-9.767203,0.28099309999999994,-0.61415106,-0.6072873000000001,0.010855948,-0.17933258
-8.72134,0.7663361,-0.31118876,-0.6706253000000001,0.06408849,-0.22191861
-7.8935775999999995,1.0271219999999999,-0.26655126,-0.7627263000000001,0.059288833,-0.21446607
-7.2365512999999995,1.1247194,-0.38039076,-0.6493323000000001,0.101874866,-0.112259574
-6.6599507,1.0730141000000002,-0.48483542,-0.3741288,0.08803441,0.010157816
-6.379877,1.109205,-0.64028615,-0.32941344,0.19556414,-0.023893557000000003
-6.368901999999999,1.0535636999999998,-0.84215564,-0.4231027,0.34196237,0.031450834
-6.505678,0.9383546999999999,-0.9788454,-0.11754792,0.34780923,0.10438814
-6.4687589999999995,0.55431515,-0.9783474,0.001134464,0.15351915,0.031450834
-6.1684785,0.26432943,-1.0669616000000002,-0.38477528,0.10986847400000001,0.010698868
-6.1275473,-0.30231106,-1.6183558999999998,-0.6078284,-0.10410889,0.16612044
-6.940647,-0.6862739999999999,-2.1856956000000003,-0.5519255,-0.031712633,0.24970426
-9.034443,-0.29897833,-2.2673185,-0.5018869,0.30576423,0.2709973
-11.797255999999999,-0.29290664,-0.9822069,-0.52797955,0.16416568,0.25715682
-11.875154499999999,-0.59935486,-0.82062703,-0.51253337,-0.13765411,0.1900838
-10.365926,-0.73405266,-2.0534112,-0.4060683,-0.15840608,0.08307767
-14.40616,-1.2852937,-1.0830985,-0.33953634,-0.09772099,-0.02815216
-15.081554999999998,-1.6845218999999998,-0.59024733,-0.29480356,-0.05248205,-0.08297295
-11.662711999999999,-0.7727621,-0.6560304,-0.27085763,-0.049811699999999993,-0.09309586
-11.51748,-0.71372116,0.99993354,-0.26394615,-0.025324726000000002,-0.0707382
-13.879101,-1.8498465,4.0559406000000005,-0.252235,-0.109449595,-0.03508112
-11.1796665,-1.0183306,4.599032,-0.18088593,-0.20844467,-0.021764256000000003
-11.53081,1.318755,2.9362202,-0.09040806,-0.23560199,-0.026022859
-13.08031,0.91726655,1.7386788,0.03309144,-0.24890140000000002,-0.060091686
-12.358533999999999,-0.51911086,1.5812743999999999,0.15763813,-0.25528932,-0.099483766
-11.1667385,-1.0493211999999998,1.9681679,0.24441591,-0.21856758,-0.084578656
-10.205084,-1.1180348,1.2735716000000001,0.2385516,-0.09506808,-0.001012291
-9.388354,-1.1052401,0.20845836,0.21725859,0.101874866,0.110758595
-8.455717,-1.2293556,-0.15002067,0.26197392,0.24401449,0.17092009
-7.662202400000001,-1.2239256,-0.3814825,0.36472145,0.22963297,0.18901916
-6.825628999999999,-1.1519654,-0.38444173,0.39666098,0.26104888,0.14430383
-6.0795580000000005,-1.4541136000000001,-0.042482715,0.26836184,0.15617207,0.08946557
-5.785148,-1.8359888,0.0735403,0.27635545,0.060894538,0.08787732599999999
-6.122366400000001,-2.1427433,-0.0120859295,0.417954,0.46120325,0.036250487000000005
-6.5366206,-2.0940166000000002,-0.34392226,0.3705683,0.63261205,-0.0015358897
-7.1147339999999994,-1.5981966,-0.836649,0.21460569,0.29511774,0.03890339
-6.987142599999999,-0.7655890999999999,-1.0594341999999999,0.47757444,0.30096456,0.061261058
-7.019292,0.10287406,-1.1732354,0.57604593,0.5234766,-0.09309586
-7.9458766,0.6697253000000001,-1.4460499,0.6686880000000001,0.34993850000000004,-0.16762142
-9.828600999999999,-0.20455101,-1.9911139,0.65376544,0.17533578,-0.17294468
-11.554628,-1.4949107,-2.2390668,0.6468539000000001,0.031084314,-0.18730873
-12.140241,-1.4601758,-2.1784747,0.60000926,0.00020943952000000002,-0.13515829999999998
-11.814589999999999,-0.878605,-1.1403008,0.45095816,-0.08868018,-0.05105088
-13.784070000000002,0.08676587,-1.8061186999999999,0.29551914,-0.057805302999999995,0.0021816615
-14.738897,0.76743746,-2.869767,0.22205824,-0.04235914,0.013892821000000001
-11.832365,-0.26014438,0.9978075000000001,0.1624378,-0.12168436,-0.007923795
-10.525141,-0.0707726,3.9387589,0.09695304,-0.15149458,-0.011658799
-9.915002000000001,-0.46467623,3.3656538,0.01870993,-0.19141026,-0.011117746999999999
-10.288048,-1.5752506000000002,2.3452547000000004,-0.055798177000000004,-0.26647687,0.0027052604
-11.664053,-1.9696428,1.637816,-0.14522885,-0.27180013,0.059655353
-11.95515,-0.8479305,1.9181674,-0.2719223,-0.2771234,0.12992232
-12.513468,0.015437813,1.9755707999999998,-0.39222783,-0.22760838,0.15974998
-11.804860000000001,0.064969055,1.0212419,-0.47685885,-0.20099212,0.1166229
-10.88137,-0.101868495,0.11366712,-0.48645815,-0.18236946,0.022392575
-10.120903,0.08376832,-0.5901229,-0.44174284,-0.14988887,-0.0813847
-9.039596000000001,0.37643555,-0.49737146,-0.42894956,-0.046094145999999996,-0.12822933
-8.018182000000001,0.7949324000000001,-0.46501145,-0.4832642,0.028955012999999998,-0.16816248
-7.377962599999999,1.0035726999999999,-0.42667547,-0.5418026,0.030543262,-0.17772688
-7.0543337,1.1235989,-0.58639747,-0.57375956,-0.01150172,-0.12770574
-7.037172,1.2369978000000001,-0.7105416,-0.49604002,0.049706977,-0.099483766
-7.2206917,1.2897372999999999,-0.8865728999999999,-0.49015826,0.100810215,-0.112242125
-7.0512495,1.0731483,-1.09325,-0.37308156,0.2163161,-0.045186576
-6.801496,0.711279,-1.2290874,0.029356438999999998,0.13062043,-0.093636915
-6.776960400000001,0.44584823,-1.0120959999999999,-0.017994344,0.00020943952000000002,-0.10374237
-6.667200599999999,0.15140931,-0.9755893,-0.4683590999999999,-0.25795966,-0.037734017
-6.9434342000000004,-0.3684868,-1.1763575000000002,-0.5668306,-0.11475539999999998,0.060720004
-7.86751,-0.6958125,-1.583659,-0.44865432,0.09868091,0.095853485
-9.622843,-0.37893509999999997,-2.0917182,-0.5152037,0.09496336400000001,0.09000663
-11.233911,0.14664964,-1.755151,-0.4683590999999999,-0.12114330400000001,0.119816855
-11.30994,-0.23230460000000003,-1.7618356,-0.3736052,-0.14191271,0.06710791
-12.079217,-0.69711494,-2.156831,-0.28789207,-0.20205677,-0.023352506000000002
-15.614475,-1.3162842,-0.9781271,-0.22401302,-0.16852899,-0.07606145
-13.576254,-1.2547437,-1.089697,-0.1585457,-0.09986774,-0.09683087
-12.012198,-0.72984844,-0.7988206,-0.104248516,-0.13925982,-0.10267772
-13.717808999999999,-1.6618441000000002,1.9560723000000002,-0.063250735,-0.12274901,-0.07819075
-11.755253,-1.1131697,3.8178706,-0.024923302,-0.16160004,-0.062220987
-11.169909,0.30284736,3.3773087999999998,0.062360615,-0.13604842,-0.055309486
-11.5376005,0.99886096,2.0615706,0.15711454,-0.22122048,-0.06382669
-11.384122999999999,-0.10558429,1.8788831999999998,0.23748694,-0.23347269,-0.06702064
-10.783752999999999,-0.6639695999999999,2.0681211999999998,0.35512215,-0.22549655,-0.06330309
-10.399627,-0.87003374,1.6196487,0.44189993,-0.21485002,-0.022828907000000002
-9.552664,-0.8666148000000001,0.8031876,0.4291241,-0.13391912,0.046355944
-8.843032000000001,-1.1865854999999998,0.38120479999999995,0.4046546,0.05715953,0.11449360000000001
-7.9946036,-1.6037607,0.43726742,0.46691048,0.19556414,0.17570229
-7.406606699999999,-1.7156563000000002,0.25640944,0.5638112,0.22537437,0.25874507
-6.447872599999999,-1.4818864,0.25389072,0.5584879,0.27541295,0.24171065
-6.3934093,-1.6639798,0.28142405,0.4051782,0.20994565,0.13631022
-6.576633,-1.7300118000000002,-0.009710881999999999,0.3450167,0.24134412,0.14056882
-7.04197,-1.6071701999999999,-0.25368005,0.417954,0.43511057,0.09639453
-7.547089,-1.4576283,-0.5682302,0.34766957,0.8284903,0.06445501
-7.574785,-1.3056636000000001,-0.93933153,0.28433159999999996,0.29138273,0.14376277
-7.1627812,-0.61365306,-1.0975211999999999,0.60105646,0.010838495,0.20924753
-6.707384599999999,0.07481402,-1.358968,0.5632701,0.36377898,-0.016441
-8.026648,0.16403154,-1.7419924999999998,0.58032197,0.23602088,-0.14526375
-10.213004,-0.3947177,-2.0848038,0.39931387,0.08323475,-0.18147933
-11.407442,-0.7374906999999999,-2.6764302000000004,0.46425757,0.012444196999999999,-0.13674654
-11.215743,-0.5759779,-2.526764,0.46692795,-0.14191271,-0.13674654
-10.3642025,-0.382603,-1.7109444,0.38121483,-0.17331119,-0.099483766
-12.544918,-0.27786148,-1.1864803,0.24281020000000003,-0.10571459,-0.019634955
-14.390923499999998,0.3666672,-3.3723192,0.16828464,-0.10252064,0.037297685
-12.52135,-1.4410796000000001,0.8933916,0.08204792400000001,-0.14723597,0.07775441599999999
-11.39098,-0.7474794,4.91045,6.981316999999999e-05,-0.19301596,0.08946557
-12.281125,1.2474749,3.5291203999999996,-0.115959674,-0.24731316,0.08414232
-11.571053,0.023673866000000002,3.1246152,-0.23094197,-0.26328292,0.085748024
-11.905254,-1.9996468999999997,2.2244813,-0.35390040000000006,-0.2696708,0.101717785
-12.176632000000001,-1.3803818,2.3247125,-0.48911107,-0.2819056,0.12833406
-12.309003,0.073932946,2.0115220000000003,-0.62433916,-0.25583035,0.14269812
-11.367775,0.37875316,1.0982395,-0.7174874,-0.2441192,0.1192758
-10.630131,0.33028492,0.14962804,-0.7531445,-0.21324433,0.070842914
-9.780917,0.5706628,-0.4154706,-0.7499505,-0.095609136,-0.011117746999999999
-8.830353,0.9005550999999999,-0.32773748,-0.74410367,0.05715953,-0.0707382
-7.972078999999999,0.9807511999999999,-0.30339324,-0.7286575,0.13861404,-0.124511786
-7.240889500000001,1.1742698,-0.532097,-0.67809534,0.14072590000000001,-0.16763887
-6.9765697,1.1330416,-0.6004944999999999,-0.52637386,0.108786374,-0.16868608
-7.003538000000001,1.3965473999999998,-0.75068754,-0.38158134,0.04118977,-0.18465583
-7.2535405,1.5963676000000002,-1.0231764,-0.42790237,0.08323475,-0.24429373
-7.4608016,1.4946138999999998,-1.1608909,-0.42790237,0.14498450000000002,-0.21607175
-7.452269,0.99466634,-1.473047,-0.028117253999999998,0.24932028,-0.109606676
-7.020958,0.5144277,-1.3164278,0.15924384,-0.021607175,-0.11812388
-6.5904045,-0.11605174,-1.2253621000000001,-0.19952604,-0.2771234,-0.09896017
-6.522935400000001,-0.6343485,-1.4251438,-0.15109316,-0.06419321,0.09159488
-6.909636999999999,-0.86913353,-2.000212,-0.022270402,0.13646729999999999,0.1293987
-8.35426,-0.7431601999999999,-1.7729926,-0.12819444,0.26902506,0.13950416
-10.199548,-0.6387826,-0.7825975000000001,-0.16119862,-0.07271042,0.20870647
-11.014936,-0.50699615,-1.0565517,-0.07389724,-0.03918264,0.18421949999999998
-10.848022,-0.41058642,-2.033338,0.092170835,-0.017889624,0.06817256
-14.380054000000001,-0.7522869000000001,-0.33036155,0.20128882,-0.01574287,-0.038798667
-15.715741,-1.9410751,-0.037282508,0.28061405,0.05503023,-0.0749968
-12.514492,-1.1397932,-0.7981215,0.31468287,0.015114551,-0.09309586
-14.1631975,-1.8867267,3.2686312,0.29178414,-0.005637413399999999,-0.068608895
-12.79152,-1.9547603999999998,4.6579194,0.27635545,-0.08494517,-0.031346112
-10.6663885,0.9104,3.5038949999999995,0.29338986,-0.13765411,-0.040927973
-11.929694,2.067288,1.7488303,0.30403635,-0.20366247,-0.06169739
-12.761172,0.36072958,1.9261161,0.3620511,-0.23719025,-0.108542025
-11.235203,-0.5371823,2.398291,0.44083527,-0.20579177,-0.13674654
-10.644467,-0.76939106,2.0699885,0.48129198,-0.15042993,-0.09896017
-9.699821,-0.8969541999999999,1.4027915000000002,0.42858306,-0.056740652999999995,-0.037734017
-8.870269,-0.8473845999999999,0.3847099,0.31733575,0.07845255,0.0074874623999999996
-8.11101,-1.0927136,-0.05047935,0.30190706,0.08271115,0.060196407
-7.442721000000001,-1.1294503,-0.25919628,0.35192817,0.060353484000000006,0.1219287
-6.595949000000001,-1.133147,-0.17670166,0.3748269,0.07845255,0.12885766
-6.049611,-1.3273933,-0.07545566,0.33808774,0.07152359,0.058590703
-6.155167,-1.3118885,-0.18688181,0.4094368,0.17800613,0.034644786000000004
-6.5804825,-1.4766861,-0.046390053,0.34875170000000005,0.45481536,0.0027052604
-7.1220794000000005,-1.2182176000000002,-0.41504923,0.07353072,0.53944635,0.06923721
-7.5825895999999995,-0.63501894,-0.82483125,0.038397245,0.29883528,0.13205162
-7.352401700000001,0.47911808,-1.3839827,0.4184776,0.13009684,0.14536847
-7.2685184000000005,1.0177847,-1.9554979,0.43605307,0.3951949,-0.02708751
-8.739296000000001,0.4598208,-1.8915151000000001,0.42645374,0.31852257,-0.116535634
-10.87865,-0.63339084,-1.4210450000000001,0.41580725,0.18650588,-0.10534807
-11.898761,-1.3967582,-1.330343,0.52227235,0.034801867,-0.0792554
-11.041742,-0.6529275999999999,-1.7056772,0.53878313,-0.005637413399999999,-0.0771261
-10.936455,0.7138265,-1.7255874,0.47596875,-0.020542525,-0.032428216
-13.541260000000001,1.4406198000000001,-3.0649037,0.41901866,-0.14510667,0.030386182
-13.797976,0.47955859999999995,-3.7771788,0.39451423,-0.14671238,0.06497861
-11.432457000000001,-1.1988821000000003,1.8218438999999997,0.37589157,-0.17917550000000002,0.06497861
-11.133353,-0.93283844,4.0363846,0.34182274,-0.26063000000000003,0.062849306
-11.321108,-0.04907156,4.5637984000000005,0.31627113,-0.34526104,0.06337290000000001
-10.912493,-0.12817597,3.0294982999999998,0.26675612,-0.39264673,0.05539675
-11.674932,-1.9305406999999999,2.0615323,0.19755381,-0.37613592,0.07401941
-12.34098,-1.5298374,2.495371,0.1044056,-0.369748,0.10543534
-12.204922,-0.45132616,2.106323,-0.026529005,-0.33993778,0.1192758
-12.012821,-0.31683907,1.2820854,-0.17877407,-0.28883454,0.09213593
-11.289954,-0.33997667,0.60502434,-0.2804395,-0.20472711,0.013875367
-10.266002,-0.0021164743,-0.16154158,-0.3709348,-0.074298665,-0.06382669
-9.17915,0.3431274,-0.30150659999999996,-0.41512656,0.06832964,-0.12931144
-8.409586000000001,0.67393905,-0.19461988,-0.47314129999999993,0.1423316,-0.17294468
-7.704828699999999,0.7002274,-0.10012552,-0.4475897,0.24612632,-0.16496852
-7.072338,0.6443371999999999,-0.17148229999999998,-0.30120890000000006,0.34993850000000004,-0.092572264
-6.747272,0.777857,-0.33489135,-0.2777866,0.29937634,-0.0749968
-6.7160516,0.993699,-0.625739,-0.47848199999999996,0.37123153,-0.14634585
-6.481909,1.2801221999999999,-0.93216807,-0.63817966,0.47343802,-0.124511786
-6.339913,1.2077598999999999,-1.057835,-0.19259708,0.5820324,-0.021764256000000003
-5.901439,0.68359244,-0.851541,-0.101054564,0.28871235,-0.0063355453
-5.802568,0.36303759999999996,-1.0625755,-0.5939879,-0.1158375,-0.024958208
-6.0381480000000005,-0.04093127,-1.9247083999999999,-0.5982465,-0.24891886,0.24970426
-7.160942599999999,0.033662476000000004,-2.798362,-0.41032690000000005,-0.13391912,0.35882223
-9.531469,0.45203486,-1.9658885,-0.34644786,0.3371627,0.21776474
-11.947833000000001,0.09569145,-1.5170715,-0.5423611,0.11145672,0.1192758
-11.458582,-0.19753122,-2.2091203,-0.5247856,-0.27605873,0.05806710599999999
-10.236151,0.4682005,-3.3198195,-0.45026004,-0.093479834,-0.042533673
-14.054154999999998,0.46331635,-1.0222284,-0.46890014,-0.09028588,-0.10428342
-14.0273695,-1.7367252,-0.5256326,-0.49551642,-0.12754866,-0.12131783
-11.248257,-1.419072,-0.99056745,-0.45238933,-0.07538077,-0.1287704
-11.329247,-0.9915155999999999,2.2389327999999997,-0.37999308,-0.0045727626,-0.06808529
-16.214893,-3.8040419,5.986165,-0.26555184,-0.08389798,-0.016441
-11.411407,-1.7951915,5.401539,-0.1478992,-0.13500121,0.027715827999999998
-11.063328,2.9215869999999997,2.376245,-0.06272713,-0.15948819,0.01813397
-14.076469,1.4776151000000002,1.116627,0.025621433,-0.17971656,-0.031363565
-12.450127,-0.31462684,1.5922782,0.122522116,-0.17385225,-0.06647959
-11.305057000000001,-1.2935488000000002,1.5055985,0.17627825,-0.15947074,-0.06435029
-10.726244,-1.3699622,0.2843737,0.15550883,-0.08602728,0.01441642
-9.423013000000001,-1.1426758999999997,-0.10801680400000001,0.14592698,0.12955579,0.12566371
-8.133811999999999,-1.1517546,-0.12530294,0.18266615,0.29829422,0.20231856
-7.613973,-1.0861919,-0.26175329999999997,0.22045253,0.30415854,0.2725855
-6.782160799999999,-1.4090452,-0.20691648,0.21087068,0.22005111,0.25928609999999996
-6.0902934,-1.7587615,-0.22904849,0.14325662,0.05023057400000001,0.19167206
-5.822554599999999,-2.091067,-0.36277902,0.16563174,0.10667452,0.14163347
-6.1537495,-2.0650086,-0.5197238000000001,0.21832323,0.5165476,0.07030186
-6.601331,-1.6116042,-0.69378215,0.046373397000000004,0.60013145,0.062849306
-6.8444285,-1.0581702,-0.7309019,0.05169665,0.26157248,0.13365729999999998
-6.5889482,-0.7067779000000001,-0.6760076,0.20076522,0.30468214,0.03996804
-6.0348916,-0.037320815,-0.99049085,0.27368507,0.29722956,-0.10002482
-7.320932400000001,0.7522485999999999,-1.5199063,0.29550170000000003,0.19024089,-0.21980676
-10.244061,0.24090457,-2.183914,0.32478833,0.101874866,-0.19903734
-12.246878,-0.8222646999999998,-2.3655863,0.33862877,-0.027471482999999998,-0.21766001
-12.174324,-1.2042356,-2.089123,0.2885902,-0.07803367,-0.18732620000000003
-11.333644,0.03712928,-1.3937701,0.20128882,-0.11369075,-0.07180285
-12.580572,1.8262396,-2.462379,0.15392059,-0.08868018,0.013351769
-13.469578,0.56130624,-3.5805190000000002,0.13740978,-0.084421575,0.026651177999999998
-13.706345,-1.6396451,2.0737617,0.08950049,-0.14990632,0.025586527
-13.515241,-0.103094324,1.564314,0.042132247000000005,-0.189822,0.022392575
-11.58285,-0.47004882,3.7856447999999996,-0.004171337,-0.27021188,0.020786871999999998
-10.547378,-2.3837533,2.484147,-0.07124434,-0.3335499,0.008552114
-11.3448,-1.8315259999999998,2.0795653,-0.16280429999999999,-0.3782652,0.0042935097999999994
-11.57201,-0.55443966,2.0409613,-0.24849997,-0.38519415,0.02984513
-11.667022,-0.44898945,1.6274538,-0.34060100000000004,-0.37135372,0.05804965
-11.237022,-0.7044603,0.9312391,-0.41034436,-0.3069336,0.035691983999999996
-10.386382000000001,-0.47746128,0.22238302,-0.44174284,-0.2478542,-0.06117379
-9.575916000000001,0.040232167,-0.32664573,-0.4486718,-0.19781561,-0.14474015
-8.771531,0.5556941999999999,-0.50799215,-0.43268457,-0.08655088,-0.19690804
-8.108156,0.68921405,-0.38201883,-0.43535492,0.031066861,-0.21820106
-7.5639725,0.79646474,-0.40990649999999995,-0.49284607,0.04544837400000001,-0.22085397
-7.035094,0.7768993000000001,-0.5958019,-0.4098032999999999,0.058224183,-0.17029178
-6.9987593,1.000058,-0.86228615,-0.27406904,0.12210324,-0.10908308
-7.350257000000001,1.194697,-0.9972042,-0.32888985,0.27806586,-0.14100514
-7.4685683,1.2663412,-1.0789518,-0.36562902,0.43085197,-0.15964526
-7.0068226,1.0244309999999999,-1.2098955,-0.020682152,0.30948177,-0.101630524
-6.73849,0.3803333,-1.1409615,0.16083209,-0.029059732,-0.10161307
-6.578356299999999,-0.15270218,-0.89629334,-0.31930798,-0.015219271000000001,-0.16229817
-6.672401,-0.59077406,-0.9016468000000001,-0.4699648,0.12529719,0.023457225
-7.15103,-0.7946164000000001,-1.8656960999999999,-0.35283577,0.21738076,0.15388568
-9.068977,-0.20185035,-2.5258446,-0.41140902,0.28393015,0.19273672
-11.251455,0.32318850000000005,-1.5487708,-0.4577126,0.11198033,0.23638739
-11.366922,-0.08115386,-1.9480853,-0.39596283,0.020420352,0.19964822
-10.843263,-0.29446766,-2.5274246,-0.2799159,-0.026406832,0.08255407
-14.927923999999999,-0.7982269000000001,-0.8362851,-0.18303268,0.04012512,-0.032428216
-16.036171,-2.2806973,-0.9077185,-0.03185226,0.13114405,-0.08140215
-11.827183999999999,-1.2718191,-0.7630416999999999,0.07353072,0.13114405,-0.10641272
-10.579623,-0.94122773,1.6772245,0.16402604,0.06354744,-0.11492993
-12.700416,-0.5669853,3.996229,0.28487265,-0.022130774,-0.10693632
-11.994682000000001,0.47030740000000004,2.9757627999999996,0.4057018,-0.11103784,-0.058503438
-11.993025999999999,1.0135901,1.5697632,0.5329188,-0.19833921,-0.04839798
-12.56862,-0.30947453,1.4119853,0.6558773,-0.24359560000000002,-0.03775147
-11.699150999999999,-1.0808191999999999,1.6311505,0.7597069000000001,-0.1807812,-0.023893557000000003
-10.7036705,-0.95261455,1.5259589,0.80229294,-0.06471681,-0.0063355453
-9.576998,-0.8850789000000001,0.94868803,0.79217005,0.015097098,0.022933627
-8.905194999999999,-1.2409148,0.39812702,0.76607734,0.14391986,0.076689765
-8.116239,-1.4813501,0.16512331,0.7788531999999999,0.18598229,0.14482743
-7.2304606,-1.7434290000000001,0.081575245,0.8422086,0.10133382,0.19753636
-6.6541476,-2.0881748,0.14042471,0.8459436,0.06887069,0.20338322
-6.5200915,-1.893804,0.11368627,0.71179765,0.05503023,0.16133824
-6.616424,-1.7561563999999998,0.079774804,0.5739166,0.021485003,0.14056882
-7.096184299999999,-1.5523428999999997,-0.12967953,0.5148372,0.12955579,0.08307767
-7.505669,-1.3261579,-0.5064503,0.34927529999999996,0.30628783,0.035709437000000004
-7.439876600000001,-0.9342174999999999,-1.067498,0.14379768,0.091751955,0.08201302
-7.422188,-0.5931491,-1.5399889,0.40196678,0.16095427,0.13791592
-7.3676577000000005,-0.08254249400000001,-2.1444194,0.5462357,0.21898647,0.060720004
-8.087183,0.18174864,-2.3094375,0.5403888000000001,0.027890362000000002,-0.05318018
-9.457202,0.12692142,-2.123944,0.46106362,-0.05248205,-0.117600285
-10.639161999999999,-0.16543934,-2.5635867,0.46104616,-0.11529645,-0.108542025
-11.344072,-0.14541423,-2.9069342999999996,0.41208968,-0.14936528,-0.107477374
-11.857687,0.22434628,-2.57709,0.26570892,-0.15042993,-0.010594148000000001
-13.039483,0.7898472,-2.6596610000000003,0.119834304,-0.15629423,0.09637708
-14.337045000000002,0.7632428000000001,-3.7719402,0.056496307,-0.10784389,0.13578662
-12.521445,-1.2018893,-1.2564676000000001,0.018168878,-0.16001178,0.12779301
-11.954939,-0.03718674,4.0243945,-0.039845865,-0.25476572,0.11128219
-11.87525,-0.05170518,2.3366451,-0.105836764,-0.32077405,0.101717785
-10.892449000000001,-1.1084386999999998,2.7677352,-0.22935371,-0.36709509999999995,0.06602581
-11.110389,-1.0639161,2.3036149,-0.34964179999999995,-0.35910149999999996,0.043685592999999995
-11.364557000000001,-0.69389707,1.9266619999999999,-0.4513247,-0.31545082,0.049549895999999996
-11.585264,-0.31915668,1.66307,-0.54716074,-0.28618163,0.07721337
-11.505758,-0.6111631,0.83911026,-0.6131515999999999,-0.22549655,0.08253662
-10.775497,-0.5683739000000001,0.26723123,-0.62912136,-0.14830063,0.028239427
-10.006977000000001,0.13455413,-0.22444205,-0.6280566999999999,-0.07483972,-0.056897733
-9.120348,0.7602165,-0.45550165,-0.61262804,0.047577675,-0.133029
-8.328279,1.1235031,-0.4120804,-0.61741024,0.13966125,-0.16870353
-7.579525500000001,0.9109267,-0.38155913,-0.6365914,0.17692402,-0.16283922
-6.869846000000001,0.8187691,-0.5068524999999999,-0.5508783,0.26476645,-0.10056587
-6.5670753,0.8777908999999999,-0.5238609000000001,-0.4130147,0.34780923,-0.03721042
-6.836978,1.2641097,-0.60345376,-0.44441320000000006,0.43404594,-0.069690995
-7.014724,1.5447485,-0.8223125,-0.35285320000000003,0.59374356,-0.05424483
-6.839219,1.1851299,-0.97360694,-0.016947147,0.2620961,0.005358161
-6.549607,0.45505154,-1.0032376,-0.17559758,-0.012025318,-0.0031415927
-6.2927856,-0.25070164,-1.0890553,-0.64243823,-0.18823376,0.046879545
-6.3251653,-0.88014686,-1.2617635,-0.56419516,-0.11370819999999998,0.21774727
-7.206307400000001,-0.9095380999999999,-2.1953009999999997,-0.43430772,0.23921482,0.18102555
-9.056796,0.124373995,-2.2080286,-0.51680946,0.19182913,0.12672836
-11.184828999999999,0.6219465999999999,-1.443014,-0.5019043,-0.17917550000000002,0.110758595
-11.267889,-0.36454114,-2.1528183999999997,-0.35870007,-0.14723597,0.04740314
-11.571128999999999,-0.39262035,-2.6610882,-0.2841745,-0.08655088,-0.07927285
-16.106886,-1.0917847,-0.7732121999999999,-0.2751337,-0.056740652999999995,-0.13515829999999998
-14.002556,-1.8582165000000002,-1.0548853,-0.25544637,-0.043441243,-0.133029
-11.135067999999999,-1.3297491000000001,0.34769556,-0.22935371,0.0017976891000000001,-0.10536553
-14.039732,-2.2783127,4.0897274,-0.18198548,-0.11477285,-0.034557517999999995
-12.720403999999998,-1.2729013,4.410627,-0.11011282,-0.18343410000000002,0.0037524579999999997
-10.743559,1.5061156999999998,2.7444735000000002,-0.041434117,-0.24731316,0.018657569
-12.286201,1.2498690000000001,1.2217995000000001,0.0458498,-0.23986060000000003,-0.0020769418
-12.4052305,-0.3451194,1.4448718999999999,0.15496778,-0.21591468,-0.03775147
-11.132311,-0.8384398999999999,1.9036968,0.25185102,-0.15310028,-0.04626868
-10.415610000000001,-0.9009381,1.1260219,0.25984463,-0.08922123,-0.0095294975
-9.674969,-0.7035121999999999,0.14825855,0.2438574,-0.006178465699999999,0.08199557
-8.728723,-0.72966653,-0.221818,0.31840040000000003,0.11465068,0.15812683
-8.110311,-1.0211462,-0.49024629999999997,0.45998153,0.08962265400000001,0.21135937
-7.297219999999999,-1.1880795,-0.459658,0.59466857,0.11623893,0.17941985
-6.5098634,-1.3707763000000002,-0.03412216,0.64683646,0.19289379,0.04314454
-6.297593,-1.4351995000000002,-0.06352296,0.6223495,0.19769344,0.039426986000000004
-6.3750024000000005,-1.8287392,-0.12833878,0.611703,0.46970302,0.012287118
-6.752367,-1.8786439,-0.5767631999999999,0.45732862,0.6767863000000001,-0.012199851999999999
-6.8112070000000005,-1.5507915,-0.90768015,0.22045253,0.41914082,0.038362335
-6.764222999999999,-0.6063172,-1.0147774999999999,0.48233919999999997,0.29883528,0.09370673
-6.536439,0.03637271,-1.0934128,0.74265504,0.36910224,-0.07127925
-7.4803386,0.008820239,-1.2062083000000001,0.8044048,0.31426397,-0.18200293
-9.716495,-0.62843007,-1.2651728000000002,0.75595444,0.18544123,-0.23418827
-11.509751,-1.6387066000000003,-1.9893134999999997,0.73466146,0.22589797,-0.21661282
-12.222783,-1.7596425,-2.7635887,0.7570191,0.04118977,-0.203837
-11.197816,-0.48371494,-2.0810592,0.64097214,-0.10358529,-0.11227703
-13.17491,0.9923487,-2.3784959999999997,0.45146433,-0.11103784,0.013334315
-15.065408999999999,1.4490762,-3.2221167,0.28909633,-0.09506808,0.09424778
-11.687603,-1.011148,-1.732272,0.15709709,-0.13606587,0.124581605
-10.152182,-2.148978,3.9129300000000002,0.045832347,-0.20898573,0.13576916
-10.2377405,-0.46007937,3.6741133,-0.029199357999999998,-0.25050712,0.13735741
-11.1210575,0.08780974,3.1660828999999997,-0.1362055,-0.34047884,0.11180579
-11.228002,-0.70103186,2.2062762000000005,-0.26555184,-0.35751325,0.086795226
-11.646173,-1.261026,1.8267951,-0.39704496,-0.36283649999999995,0.09264208
-12.455145,-1.0677948,1.6913791,-0.50829226,-0.39158207,0.12245230000000001
-12.230473,-0.7738443,1.0878487,-0.6009343,-0.3649658,0.14322172
-11.657358,-0.26296955,0.077792406,-0.6451085999999999,-0.36655405,0.08093092
-10.881858,0.4634504,-0.8030630999999999,-0.6302035,-0.27499408,1.7453292e-05
-9.863009,1.1473589,-1.0450882,-0.62594485,-0.0077667153,-0.051068332
-8.676961,1.3693781,-0.86227655,-0.69408256,0.10133382,-0.10749483
-7.7634196,1.0972531,-0.6834967,-0.7100523,0.18650588,-0.0824668
-7.139117,0.92675716,-0.8599780999999999,-0.47637016,0.13646729999999999,-0.0063529983
-6.7363740000000005,0.7485807,-0.94045204,-0.28471556,0.033196162,-0.02019346
-6.9154887,0.9925115,-1.1735227,-0.3789459,0.24453808,-0.117600285
-7.061851,1.172182,-1.2515929,-0.47582912,0.5133537,-0.11548844
-6.785828599999999,1.2096177,-1.2549542999999999,-0.18039723,0.36377898,-0.0074176495
-6.5647383,0.5486361,-1.1442368,-0.16016887,-0.109449595,-0.064908795
-6.24063,-0.33116599999999996,-0.93733954,-0.6323328,0.021485003,-0.06010914
-6.187507599999999,-0.9210877000000001,-1.5442218,-0.79574794,-0.09880309,0.10595894
-7.4453830000000005,-1.338378,-2.7672470000000002,-0.62807417,-0.03757694,0.22572343
-9.871408,-0.7363510999999999,-2.4399886000000004,-0.5237384,0.124756135,0.27576202
-11.7508,-0.09894757,-1.1070021,-0.5477018,0.048642326,0.21827087
-10.691193,-0.40992564,-1.6502273999999997,-0.48966956,-0.21804398,0.09690068
-9.953444000000001,-0.19026242,-2.945031,-0.28152162,-0.30799824,-0.0047472958
-15.00065,0.2171924,-0.87143195,-0.13887584,-0.1786519,-0.07661995
-16.288664,-0.8787199,-0.98327947,-0.06274459,-0.16907005,-0.11068878
-12.040986,-1.3958195,-0.25132415,-0.056897733,-0.20048597,-0.11920599
-10.629059,-0.90291095,1.9720848999999998,-0.068608895,-0.23507840000000002,-0.09258971
-11.996665,0.061923634000000005,4.270135400000001,-0.009512044499999999,-0.21059142,-0.0691674
-11.180606,0.5144181,3.4202800000000004,0.06339036,-0.1845162,-0.051068332
-11.081457,1.2031343,1.4244447,0.14110987,-0.16374679,-0.068626344
-12.266376,0.7950951999999999,0.86437386,0.24013986,-0.10464994,-0.10110693
-12.2051325,-0.3682857,0.9680810999999999,0.2965489,-0.06421066,-0.13624041
-10.732335,-0.78819996,1.2675096000000001,0.29708993,-0.07538077,-0.09897762
-9.393602,-0.6878829000000001,0.5333515,0.26460937,0.034260813,-0.020717058
-8.623818,-0.89897484,-0.04063439,0.2837731,0.12901473,0.012269665
-7.900386999999999,-1.0877433,-0.16528611,0.3588397,0.17160077,0.043668135999999996
-7.289568400000001,-1.1707071000000002,-0.15783536,0.38385025,0.27167794,0.011187561
-6.4769,-1.5838219,-0.027265169,0.31464794,0.2099282,-0.06756169
-6.219666999999999,-1.6907661,-0.37890637,0.3071954,0.25996679999999994,-0.07716101
-6.400946,-1.8069136000000001,-0.43345585,0.28644344,0.63365924,-0.10855948
-6.738318,-1.5873843,-0.9089348,0.20338322,0.40369466,-0.05745624
-7.1078963,-1.0061105,-1.3412126,0.42058945,0.25516713,-0.029251719
-6.9689369999999995,0.051293377,-1.4203745,0.47647488,0.42764056,-0.11016518
-6.7292585,0.7880179,-1.4941733,0.65798914,0.27646014,-0.15966272
-8.177253,0.64470106,-1.3890200000000001,0.74583155,0.18702948,-0.17297958
-10.443249,-0.67980963,-1.7981316999999999,0.7958701,0.060877085,-0.18947294
-12.064879,-1.9041948,-2.3320675,0.77935934,0.062465332,-0.1357168
-12.320648,-1.5217929,-1.9463422,0.6287199,-0.08176868,-0.027122416
-12.269738,0.6534734000000001,-0.93699473,0.49403290000000005,-0.14618878,0.05164429
-13.915463,1.7629178,-2.4314267999999997,0.4461236,-0.13128367,0.07667231599999999
-13.405988,-0.7114227,-0.38821504,0.43547709999999995,-0.20687388,0.06602581
-13.387858,0.041256886,4.0623474,0.40886083,-0.27447048,0.04738569
-12.146359,-0.53207785,3.4736419,0.33807027,-0.3016278,0.028763026
-11.132578,-1.9292381999999997,2.5398362,0.20977113,-0.33676127,0.014381513
-11.479709,-2.4007905,1.8666729,0.035709437000000004,-0.29682815,0.037803832
-11.534028,-1.1919006,1.8972898999999999,-0.15592772,-0.26649433,0.071331605
-11.854191,-0.2881661,1.5943181999999998,-0.3321187,-0.26755896,0.070266955
-11.318876,-0.4001094,0.74882966,-0.42952552,-0.27234116,0.042062435
-10.154622999999999,-0.19488801,0.13451582,-0.45881215,-0.21378538,-0.04841543400000001
-9.147977000000001,0.22557211,-0.26152343,-0.4545361,-0.069533914,-0.10697123
-8.257496000000002,0.6123506,-0.1296987,-0.55463076,0.03478441,-0.15859807
-7.578452599999999,0.7617009,-0.008101978000000001,-0.74785614,0.05607743,-0.2027898
-7.0198855,0.7314191,-0.35943672,-0.7909832,0.09601056,-0.15968017
-6.818073700000001,0.8312668,-0.61481184,-0.6392616999999999,0.13379695,0.00853466
-6.881932000000001,1.3490752000000001,-0.9731280999999999,-0.6339385000000001,0.24773203,1.7453292e-05
-7.15941,1.9965823,-1.2750082,-0.61531585,0.5128126000000001,-0.024452062000000004
-7.261537,1.9527013,-1.4431865,-0.2607871,0.38398990000000005,-0.014870205
-7.157992999999999,1.3423331,-1.5103008,-0.15165167,0.06352998,-0.0755553
-6.7192883000000005,0.15066232,-1.2490454,-0.5530425,0.002321288,-0.07131415599999999
-6.3145537,-0.9693644,-1.6253853,-0.5535661000000001,-0.09615019,0.1267109
-6.886059299999999,-0.7949228,-2.6847813,-0.51363295,0.0044505894,0.18259634
-8.874711999999999,0.81196,-2.9825527999999997,-0.52375585,0.18544123,0.24699899999999997
-11.322333,1.6801262,-1.9867278000000002,-0.48436376,-0.019495327,0.22944099
-11.884425,0.52403325,-1.6493751,-0.3321187,-0.24839526,0.17194983
-10.83924,-0.47546930000000004,-2.1329944,-0.12770574,-0.21432643,0.042586032
-14.850199,-1.7461966,-0.49710329999999997,0.021327923999999998,-0.14458308,-0.07237881
-14.836982999999998,-2.254112,-0.6715257,0.17409660000000002,-0.11211995,-0.110182635
-11.5058155,-1.6522865000000002,-0.28717014,0.2965489,-0.054087754,-0.116029486
-11.370054,-1.7034936,1.954588,0.35828119999999997,-0.043982297000000004,-0.09260717
-13.000017,-1.758953,4.2437515,0.39289108,-0.12808971,-0.048956484
-10.988945,-0.67554796,3.4380066,0.40886083,-0.17119935,-0.022340214
-11.654819999999999,1.1245278,2.0173351999999998,0.4290892,-0.13500121,-0.005305801
-12.75554,0.42688617,1.5447389,0.48445103,-0.15896459,-0.01595231
-12.428444,-1.2686013,1.7428063999999999,0.57547,-0.14777702,-0.008499754
-11.035824,-1.8202061999999999,1.7018273000000002,0.59730405,-0.092415184,0.014381513
-9.926763000000001,-1.5360911,0.57169706,0.54300684,0.09334021,0.07291985
-9.020012,-1.2781589,0.08281065,0.48019242,0.30894074,0.15172148
-7.867192999999999,-1.1125568000000001,0.13676637,0.45889940000000007,0.37760198,0.20228367
-7.2197247,-1.0506332,-0.25561455,0.40671408,0.41327652,0.16927949
-6.4809127,-1.3009038,-0.2104599,0.2374346,0.17425367,0.09740683
-5.7569633,-1.4847594,-0.40315485,0.14322172,0.08801696,0.14639822
-6.0852375,-1.5524675,-0.43879014,0.19326031,0.4590565,0.10859439
-6.5728307,-1.4539222,-0.71077144,0.17090264,0.5431639,0.10487683
-7.071811,-1.2420448,-0.89620715,0.10489429,0.31691688,0.16395622
-6.916523,-0.6906985,-1.026174,0.31143656,0.21151645,0.17086773
-6.7809253,0.031632192,-1.2725565,0.41896629999999996,0.2626197,-0.015411257
-7.8345556,0.79695314,-1.7863810000000002,0.43867105,0.11889183,-0.11070623
-10.042355,0.54564816,-2.6986675,0.33965853,0.1471138,-0.17032668
-11.808269500000002,-0.046888045999999996,-3.6770053,0.44184756,0.089605205,-0.15435691
-11.831159,-0.34352964,-3.4570453000000003,0.47699848,-0.012042772,-0.101124376
-10.982183000000001,-0.32858983,-1.8567417000000002,0.3620162,-0.15257668,-0.028204521
-12.598681,0.25778848,-2.187716,0.22200587,-0.1062731,0.04045673
-14.297320000000001,-0.4272501,-3.5171015,0.11873475,-0.15257668,0.08995427
-11.922176,-1.5892136000000001,-0.2894877,0.052185345,-0.27288222,0.11657054
-10.987967999999999,-0.68769133,4.761051999999999,-0.03562217,-0.3080157,0.1213702
-11.056030999999999,-0.13486059,4.0881667,-0.09950122,-0.3692244,0.10220648
-10.672527,-0.56789505,2.5022185,-0.18308504,-0.41715115,0.07717845599999999
-11.383998,-1.5554171,1.2366626,-0.25546384,-0.38732347,0.07930776
-13.062822,-1.4838973999999998,1.5701462,-0.36726964,-0.35964254,0.07239625599999999
-13.681369,-1.1043495,0.8543181999999999,-0.5067389,-0.38360593,0.073984504
-12.086350999999999,-0.5880925,0.24955243,-0.584982,-0.39798743,-0.023945916
-10.977607,0.19388245,-0.44625047,-0.5972341999999999,-0.28300515,-0.15222761
-9.910722,0.8047295,-0.7501608000000001,-0.6126629,-0.04717625,-0.2735978
-8.609808000000001,1.0180625,-0.500369,-0.65952504,0.13592625,-0.29223794
-7.441648,1.0176985,-0.40297288,-0.6366263000000001,0.26207864,-0.20439549999999998
-6.661694000000001,0.86783105,-0.5280746999999999,-0.30925488,0.3153112,-0.05749114599999999
-6.119119599999999,0.7650432,-0.49994764,-0.09843657,0.13166764,-0.0021118484
-5.994928,0.9630724,-0.6452085999999999,-0.20757201,0.3642851,-0.026598819
-6.156268,1.3274412,-1.0132741,-0.08194321,0.5495344,0.012234758
-6.2706537,1.3903033999999999,-1.3264452,0.2901261,0.26155505,-0.005323254
-6.020555,1.0068576,-1.2054038999999999,0.06709046,-0.13287191,0.011711158999999999
-5.7860575,0.15893670000000001,-0.8819952,-0.38856265,-0.08656833,0.09262462
-5.9411059999999996,-0.9482571,-1.410788,-0.43114868,0.23600341,0.13414600000000002
-7.927384,-1.3300843,-2.4034722,-0.5424134,0.27646014,0.19694296
-11.022244,-0.48896300000000004,-2.182832,-0.62863266,0.14603170000000001,0.24486970000000002
-12.977061,0.26002944,-1.1258302,-0.57487655,-0.057822755999999996,0.20013689999999998
-11.185825,-0.8091636,-2.3325176,-0.3161664,-0.069533914,0.05482079
-11.696758,-1.440572,-2.0993414,-0.15008086,-0.09295624,-0.0675966
-14.552389000000002,-1.736773,-0.6620063,-0.09897762,-0.04717625,-0.08943067
-13.473217000000002,-0.64867544,-0.72264665,-0.09313077,-0.037070792000000005,-0.07984881
-12.370237,-0.879783,0.35587415,-0.086725414,-0.080721475,-0.04256858
-12.4766445,-1.7143824,3.7635699999999996,-0.06010914,-0.099885195,0.009581857
-10.203446000000001,0.203239,3.0643291,1.7453292e-05,-0.078592174,0.0015882496
-11.6425905,1.4426596999999999,1.4868183000000001,0.056967545,-0.06633996,-0.033004176
-13.201120000000001,1.1759456,0.82447684,0.15704472,-0.09562659,-0.080372415
-12.876534,-0.088671654,1.3660358,0.2353053,-0.09030333,-0.09847148
-12.150248,-0.8850309999999999,1.5317528,0.24436355,-0.038135443,-0.07983136
-11.089062,-1.1969285,0.5143703,0.27202702,0.009232792,-0.016493361
-9.999901,-1.0967933,-0.33022743,0.40084976,0.11676253,0.05108579
-8.792218,-1.0357604,-0.552237,0.618056,0.27380726,0.094212875
-7.6487565,-1.2324106000000001,-0.3453684,0.69949305,0.58253855,0.05003859
-6.5095377,-1.4123298999999998,-0.21651246,0.52914894,0.51546556,-0.029810224
-5.281244999999999,-1.5590466,0.06969042,0.39287362,0.6607991,0.02607522
-4.7106012999999995,-1.9993979,-0.20846793,0.27150342,0.8540245000000001,0.07717845599999999
-4.8989677,-2.3570054,-0.42607215,0.21188296,0.37386698,0.17193238
-5.384215,-2.0705152,-0.41859266,0.5094442,0.11622147,0.15755087
-5.5391483,-0.8776951999999999,-0.8614912,0.74366736,0.4851317,-0.09688323
-6.3350672999999995,-0.00869574,-0.97149044,0.7702836,0.15667820000000002,-0.24167573
-8.047458,0.13446794,-1.201985,0.65371305,0.050754175,-0.2725506
-10.635456,-0.67183214,-2.6545662999999995,0.6771354,0.09546951,-0.19429006
-12.421837,-1.486378,-4.863686599999999,0.72504467,-0.18771017,-0.15224507
-11.937385,-0.4982621,-4.6300989999999995,0.58929294,-0.27607617,-0.042586032
-12.203284,0.84164804,-3.0597515,0.34974653,-0.23083724,0.07291985
-14.575766,0.57231,-3.1240883,0.20017181,-0.19570377,0.15383331
-12.975549,-0.819631,-1.3716285,0.12245230000000001,-0.25052455,0.17086773
-9.971006,-0.89113146,4.1264925,0.07721337,-0.28139943,0.1932254
-10.952045,-0.5384654999999999,3.5667381000000002,0.052185345,-0.31281537,0.19003145
-12.012371,-0.7487722,3.4613836000000004,0.028239427,-0.35805428,0.15063937
-11.837747,-1.2522441,1.309839,0.005323254,-0.35433674,0.11763519
-13.199205,-0.7614711,0.8933629000000001,-0.04415683,-0.3207915,0.10218903
-13.73115,0.23855826,0.40117243,-0.13039355,-0.33410838,0.084089965
-12.496678999999999,-0.028596345,-0.12650004,-0.23314108,-0.33410838,0.035116023999999996
-11.441804,0.14612292,-0.943507,-0.2980848,-0.27555257,-0.02607522
-10.653575,0.6846938,-1.3718967,-0.31405455,-0.13714798,-0.07984881
-9.432111,0.8678598,-1.1814907,-0.35077628,0.07363544400000001,-0.113394044
-8.320464,0.66543484,-0.9981905000000001,-0.2778564,0.23919737,-0.08730136599999999
-7.4452777,0.26194483,-0.92038864,-0.2022662,0.22055726,-0.053773593
-6.518271400000001,0.29237992,-0.9301187,-0.08035496,0.17264797,0.013823007
-5.808103599999999,0.49428773,-0.96246904,-0.07661995,0.10238101,0.049497537
-5.794878,0.79673284,-0.9320244000000001,0.007452556,0.17105971,0.08728392
-5.901294999999999,0.9608314,-1.1515536,0.27735028,-0.015236723999999998,0.10698868
-5.916762,0.96561027,-1.0659082,0.39924407,-0.31388003,0.2592163
-5.952895,0.45689988,-0.8848681999999999,0.08304276,-0.041852996,0.11815879
-5.741344000000001,-0.3008937,-1.1645589,-0.48598692,0.26474899999999996,0.05693264
-6.7423589999999995,-0.67742497,-2.1670876,-0.75588465,-0.14353588,0.1421047
-9.107399000000001,-0.5850470999999999,-2.9310009999999997,-0.7111693,-0.38892916,0.28902653
-11.398536,-0.104109466,-2.9169709999999998,-0.6201329000000001,-0.15364133,0.24378759
-12.486107,-0.42918462,-2.5158272,-0.43116614,-0.12543681,0.035116023999999996
-12.21878,-1.0689918999999999,-2.6633964,-0.29487340000000006,-0.23455479999999998,-0.075049154
-13.006127000000001,-1.2373043,-1.1691461,-0.2943498,-0.090826936,-0.08782497
-15.394679,-1.3618218999999998,1.139956,-0.35025270000000003,-0.12650147,-0.043668135999999996
-17.280266,-2.9434986000000003,1.1389791999999999,-0.35931093,-0.21113248,-0.014922565
-10.654100999999999,0.80531365,0.7945015000000001,-0.28902653,-0.18612191,0.010088003
-12.117256,2.603685,0.3505207,-0.2006605,-0.1802576,-0.0037350047
-12.764562,2.567427,1.2823343999999999,-0.06386159,-0.23774876,-0.07665486
-11.2713175,0.36636075,1.8850220000000002,0.11285299,-0.33037338,-0.109117985
-10.272399,-0.41141003,1.9959694,0.20813051,-0.2494599,-0.09103637
-10.987126,-0.61932254,1.4347111000000001,0.28372073,-0.19196877,-0.027680922
-10.244185,-1.1114458999999999,0.4387614,0.35027012,-0.1105317,0.100042276
-9.5473,-1.077726,-0.38374263,0.46099383,0.031049407999999997,0.18627898
-8.810039999999999,-0.8863718,-0.5461749,0.5871637,0.22481586,0.23420574
-7.3939843,-1.0108607,-0.28739998,0.5956634,0.41432372,0.18575539
-6.316546,-1.1406074,-0.18470787,0.55574775,0.4686209,0.044680428
-5.6514745,-1.3691481,-0.10707828,0.500927,0.5026897,-0.0026703537
-5.607526999999999,-1.9725157,-0.038402997,0.46099383,0.7369129,0.021799162
-5.9503474,-2.063936,-0.285973,0.72289795,0.4324228,0.09526007
-6.2471237,-1.4082216,-0.5186510999999999,0.6973463000000001,0.45530403,0.004223697
-6.5806645999999995,-0.8149863,-0.60096383,0.8815309000000001,0.3424685,-0.0090582585
-6.575272999999999,-0.060151922999999996,-1.0494169,0.9512568000000001,0.16200146,-0.060161497
-7.255858,-0.2812708,-1.6755388999999998,0.9326341,-0.010454521999999999,-0.1187173
-9.346226,-0.8888521999999999,-1.812631,0.7889063000000001,-0.108926,-0.18259634
-11.303476,-1.0716543,-2.6298487,0.6307969,-0.14779449,-0.10487683
-12.144186,-1.0836443999999998,-2.5175414000000003,0.44821802,-0.17386970000000002,-0.013840461
-11.625898,-0.025158271,-1.4461458,0.34121186,-0.15789993,0.061714843
-12.979753,0.19050184,-0.6821464,0.2555162,-0.18399261,0.075031705
-15.026287,0.67626625,1.9060814,0.18257889,-0.26064748,0.052674035999999994
-14.851032,0.9757138000000001,1.1966603,0.093148224,-0.28300515,0.028187068
-13.242253,-1.2572431999999998,2.6844268,-0.019146262,-0.32824406,0.011676253000000001
-11.853367,-1.4597353000000002,2.1327643,-0.14744541,-0.36231290000000005,0.011676253000000001
-11.277935000000001,0.40639179999999997,1.4406965,-0.2634749,-0.32452652,0.02979277
-11.052162,1.2294896,0.95983547,-0.36995745,-0.27077037,0.043615777
-11.415966000000001,0.80771744,0.41058642,-0.45193556,-0.28033477,0.06012659
-10.926686,0.82970583,-0.3015928,-0.49450412,-0.22232004,0.039374627
-10.450059,0.87989783,-0.68885976,-0.5035624,-0.12863077,-0.013316861999999999
-9.566474000000001,1.0139731,-0.7840053000000001,-0.52166146,-0.019495327,-0.10114183
-8.522084,1.0718842,-0.6620925,-0.51953214,0.06777114,-0.14959218
-7.756735000000001,1.1121545,-0.85426074,-0.52700216,0.21469295,-0.18952529999999998
-7.2058864,1.1098179,-0.87961054,-0.4151964,0.2674019,-0.20868902
-6.6940255,1.235523,-0.94302815,-0.22303562,0.12260938,-0.22359413
-6.5504017,1.3082206,-0.91756344,-0.260822,0.019861847,-0.27256808
-6.653774,1.5139782,-1.0059574,-0.20919517,0.53836423,-0.24701644
-6.7734647,1.4562972,-1.2057103999999998,0.26562166,0.5128126000000001,-0.1852667
-6.4777904,0.82461095,-1.1932893,0.11285299,-0.14514159,-0.24701644
-6.188542,-0.04123773,-1.0512748,-0.6116332,0.013473942,-0.2486047
-5.839764,-0.8790743000000001,-0.9653229999999999,-0.7234215,0.03424336,0.03403392
-6.1986932999999995,-1.3811191,-1.6191219,-0.41680208,0.020402899,0.18682005
-7.9794436,-0.8392443000000002,-2.2559318999999998,-0.3646342,0.3238284,0.30126128
-10.560182000000001,0.009672575,-1.9430861000000001,-0.37261033,0.2716605,0.26293385
-11.50865,-0.00842759,-2.0690403,-0.17777924,0.029984757,0.14049901
-10.844336,-0.29510929999999996,-2.8469644,-0.06227334599999999,0.045413468,0.028710665
-14.207336999999999,-0.93642014,-1.4878719,-0.028204521,0.118350774,-0.03354523
-15.565329,-1.1346791999999999,-0.9684354,0.048432887,0.119415425,-0.048991393
-11.865778,-0.88818175,-1.1055178999999997,0.11391764,0.057124626,-0.081454515
-11.142002,0.48977703,1.3134495000000002,0.19216076,0.08693485,-0.12829915
-13.914315,0.6093052,5.34042,0.23102923,0.047560222,-0.14639822
-13.155688,0.017611748,4.219196299999999,0.25445154,-0.070598565,-0.15756832
-12.782461,0.6257676999999999,1.3998898000000002,0.31513664,-0.18558086,-0.15704472
-13.762992,0.39382702,1.2218473,0.39709732,-0.20741493,-0.15013322
-12.868058,-0.35217750000000003,1.3885987,0.48972192,-0.19411552,-0.10915289
-11.210457,-0.5342134,0.8861228000000001,0.5174028,-0.22125539,-0.043127085999999995
-10.340481,-0.34730288,-0.15023138,0.49558625,-0.13343042,0.043615777
-9.228814,-0.73376536,-0.5924116999999999,0.5227261,-0.00832522,0.12398819
-7.511932000000001,-1.2845754999999999,-0.28200823,0.5546831,0.09758136,0.21024236
-6.2096205,-1.9946574000000001,-0.2770283,0.5104914,0.30625293,0.19266689
-5.7664733,-2.1926193,-0.40279093,0.43011895,0.37706092,0.07183775
-5.70906,-1.7266887,-0.46844949999999996,0.41786674,0.36056757,0.038309976
-5.640864,-1.1061306999999998,-0.39999446,0.20601867,0.645894,-0.0010646508
-5.9993042999999995,-0.90908796,-0.61560667,-0.08569567,0.66877526,0.06810275
-6.5924916,-0.8017989999999999,-0.8806736,0.16341518,0.13271484,0.14953981
-6.684352400000001,-0.307042,-1.1526166000000002,0.52592003,0.05073672,0.11227703
-6.9029913,-0.02234269,-1.6741598999999998,0.5179439,0.37864918,-0.1314931
-8.338286,-0.34117374,-1.5369913999999998,0.5275258,0.004956735,-0.20708331
-10.802974,-0.9894851999999998,-1.657209,0.40454987,-0.20582668,-0.17568484
-11.815539,-0.8750616,-3.005566,0.41521382,-0.19463912,-0.18259634
-10.840581,0.48068866,-4.258643,0.38805652,-0.27874655,-0.13203415
-10.395471,0.7236618,-3.4783154,0.27520353,-0.33623767,0.02284636
-12.468169,0.41264546,-2.8229554,0.22516492,-0.24841271,0.1325054
-13.681292000000001,-0.70098394,-3.5530239999999997,0.2086541,-0.26597074,0.14847516
-11.060628,-0.698312,1.5390694,0.16873842,-0.29951596,0.12985249
-10.555863,0.57518303,4.078082,0.15063937,-0.32452652,0.09578366599999999
-11.91259,0.5693603,2.7052374,0.10431833,-0.41023964,0.06063274
-13.130042000000001,-0.89155287,1.9271218,0.022881266,-0.45708427,0.033492867
-13.184007000000001,-1.1921688,1.3249896,-0.05429719400000001,-0.42408009999999996,0.02391101
-13.193526,0.14427459,1.3498988,-0.12669346,-0.38308233,0.025516712999999996
-13.328608,0.30066386,1.2459235,-0.24219935,-0.31229177,0.021781709
-11.947086,-0.5338782,0.39392278,-0.34068826,-0.21593213,0.0010297442999999999
-10.880353999999999,-0.3857825,-0.48634854,-0.37049848,-0.08498008,-0.06017895400000001
-9.610124,0.19842187,-0.9712989,-0.31833062,0.08480555,-0.10382964
-8.39454,0.5985026,-0.90015274,-0.35400513,0.17955947,-0.1719673
-7.503504799999999,0.6363022,-0.77227366,-0.4546059,0.24291493,-0.22413518
-6.7620587,0.6168134,-0.8060798,-0.46099383,0.30305898,-0.18634881
-6.2933699999999995,0.6861974000000001,-0.8578041,-0.34229398,0.18701203,-0.09744173
-6.2658553,0.9487742,-0.80018055,-0.34014723,0.18010053,-0.10861184
-6.5213556,1.3909258999999998,-0.8283459000000001,-0.1857903,0.47979102,-0.08147197
-6.667861500000001,1.6379979,-1.3183241,0.020210912,0.30731758,-0.11873475
-6.478518,0.97941047,-1.1307431000000001,-0.28426176,-0.038135443,-0.16610299
-6.0380235,-0.063360155,-0.7154449,-0.46258205,0.07257079,-0.018116517
-5.5637035,-0.86655736,-1.3665242,-0.5067738,0.12845623,0.0824668
-6.434561,-0.82072276,-2.6586652,-0.653172,-0.028029988,0.14953981
-8.745032,-0.09860281,-3.0467365,-0.63666123,-0.10149089,0.22780037
-11.378444,0.66401744,-2.5501982999999995,-0.49132764,-0.11159635,0.23258257
-11.700387,0.64405936,-2.1332624,-0.23902284,-0.07646287,0.07340855
-11.648366000000001,-0.40984902,-1.6179153,-0.04632104,-0.13288938,-0.074543014
-13.605692000000001,-1.939878,-0.48168465,0.05534439,-0.08710938,-0.121387646
-13.059068,-2.191911,-0.7003902,0.0675966,-0.10149089,-0.10595894
-13.288873,-1.5686139,0.96244997,0.042044982,-0.1105317,-0.08147197
-14.455022,-0.7113269,2.9653625,0.05269149,-0.13768902,-0.052185345
-13.211943,0.6675992,2.2701342,0.09632472,-0.18931587,-0.044750242999999995
-12.782853,1.5518353,1.7131087999999999,0.16872098,-0.22924899999999998,-0.07667231599999999
-12.763508999999999,-0.060084883,1.7185388,0.27466246,-0.2856755,-0.11128219
-12.528417,-1.2110638999999999,2.5302594,0.38803905,-0.31068605,-0.12831661
-11.974839,-1.3707476,2.2962215,0.44128904,-0.28087583,-0.10009463
-10.974025,-1.0448775,0.8526326999999999,0.437013,-0.17388715,-0.0021642083
-10.020711,-0.99506855,-0.24146959999999998,0.39655626,0.06351253400000001,0.08724901
-8.749839999999999,-1.1846510000000001,-0.6495661,0.37313393,0.24078563,0.17615607
-7.2971435,-1.3741856000000001,-0.6614318,0.2634749,0.41964698,0.21076596
-6.2059050000000004,-1.4528303,-0.77595115,0.14316936,0.45265114,0.20437805
-5.2964053,-1.5898936000000001,-0.6069876000000001,0.10273008,0.19765854,0.19107865
-4.940962,-1.7641532,-0.31563237,0.15968017,0.17690657,0.1388933
-5.383343,-1.9040511999999998,-0.12293747,0.18364355,0.70071477,0.02125811
-6.22502,-2.0253701,-0.31264445,0.11974704,0.45636868,0.08566076
-6.9663224,-1.4849603999999998,-0.6872221,0.35664058,0.20991075,0.12559389
-7.0129137,-0.48363832,-1.0115406999999998,0.55414206,0.17210692,0.0010297442999999999
-6.975966499999999,0.9776483,-1.6835451000000001,0.6957406,0.17584193,-0.07667231599999999
-8.308474,1.0865175,-2.6039338,0.66432464,0.08480555,-0.10117674
-10.397587,0.37474045,-3.1604132999999996,0.7069107,-0.08498008,-0.12725195
-11.947114,-0.5146384,-2.740384,0.7223394000000001,-0.15205309,-0.16823229
-11.453228999999999,-1.1029223999999997,-1.8805783999999999,0.6834709,-0.16376424,-0.12405799999999999
-11.536748,-1.2170781000000002,-1.1923316000000002,0.5402840999999999,-0.25745353,-0.027174776
-13.308476,-0.35813427,-2.582472,0.40081486,-0.2356369,0.039357174
-13.136104000000001,-1.0332896,-3.2281213,0.27305678,-0.25425956,0.07501425
-11.956930999999999,-1.1900524,2.3370664,0.19587829999999998,-0.24148375,0.08087855599999999
-12.949672,0.32605198,4.42663,0.11070623,-0.23989551,0.06756169
-12.095047000000001,-0.2379645,4.4839373,0.014346606000000001,-0.27981117,0.052656583
-11.592073,-2.3219638,1.7569323000000001,-0.080372415,-0.28780478,0.054785885
-11.829349,-2.5236322999999996,1.1763861999999998,-0.19856611,-0.27183503,0.084596105
-11.849249,-1.2453105,1.2896032,-0.34494686,-0.27502897,0.112818085
-12.260304,-0.14101848,1.126357,-0.47537532,-0.19943877,0.103759825
-11.518715,0.5321736,0.14008953,-0.5717175,-0.13608332,0.046792275999999994
-10.494697,0.6512131999999999,-0.8807598,-0.5983338,-0.06794567,-0.061243605
-9.354078999999999,0.7870507,-1.0551438,-0.6616892,0.0853466,-0.15015067
-8.206787,0.94742393,-0.5748861,-0.83629197,0.20671679,-0.24275784
-7.405304400000001,0.7869454,-0.6880648,-0.9054943000000001,0.30518827,-0.25288075
-6.9704504,0.6209601,-0.80924016,-0.631879,0.43561673,-0.13524556
-6.725476,0.65135694,-0.8528146000000001,-0.40191442,0.30092967,-0.08892453
-6.880188499999999,1.0472621,-1.0133411,-0.46738172,0.3733259,-0.11712904
-6.8311649999999995,1.2989886,-1.2585648,-0.4333129,0.48671997,-0.06070255
-6.565494500000001,1.1141368999999999,-1.6268121000000002,-0.6734004,0.14601424,-0.100653134
-6.306719999999999,0.6948069,-1.4919037,-0.6984109000000001,-0.15311773,0.0766025
-5.8279657,0.11326489599999999,-1.1013806000000002,-0.43865360000000003,0.039025564,0.21235421
-5.738451,-0.43313023,-1.8283943999999999,-0.48282787,0.31264082,0.0739496
-6.802607000000001,-0.35727236,-3.2342696,-0.67179465,0.21149899,0.14528121
-9.364738000000001,0.35643917,-2.6056097,-0.6467841,-0.09562659,0.25813420000000004
-12.209278999999999,0.027427975,-1.6874812,-0.48282787,0.059777527999999996,0.21340140000000002
-11.947967,-0.856291,-1.9555552,-0.26457447,0.025726152999999998,0.09044296
-12.96827,-1.9536686,-1.202483,-0.06709046,-0.010995574,-0.020786871999999998
-14.061701999999999,-2.0231483,-0.6043731,0.08728392,-0.03174754,-0.08360127
-13.044339,-0.9803298,0.22702779,0.18310249,-0.040264744,-0.07827802
-17.230255,-2.4153376,4.710678,0.25441664,-0.06262241,-0.041015237999999996
-12.594171000000001,-1.0871973999999998,3.684485,0.299132,-0.17442821,-0.036774087999999996
-10.403448,2.2415667,1.7599490000000002,0.34438837,-0.23989551,-0.06923721
-12.6172905,0.703541,0.24848941,0.42743114,-0.2856755,-0.08731882
-12.333021,-1.0167121,1.2278425,0.58817595,-0.2808933,-0.09532988
-11.207459,-1.6015965,1.760945,0.6568546999999999,-0.27502897,-0.0564614
-10.952161,-2.2492087000000005,0.8691814,0.57861155,-0.26438248,0.031887166
-9.901019,-2.1215212,0.022543802999999998,0.5168617999999999,-0.06316347,0.12077679
-8.760508999999999,-1.8514648999999999,-0.39352056,0.5551718000000001,0.120462626,0.18519689
-7.846699,-1.8230984000000001,-0.38117605,0.6249151,0.20830505,0.25120524
-7.0142064,-1.6341097,-0.59016114,0.5919284,0.26899013,0.25494024
-6.3415604000000005,-1.8238549,-0.64260375,0.43860123,0.21415189999999998,0.19264944
-6.009264,-1.9621248,-0.47264412,0.41198498,0.23385666,0.18784979
-6.1752687,-1.9873502,-0.32609984,0.30126128,0.7038913,0.08032005
-6.514374299999999,-2.1342776000000003,-0.53692365,0.11922344,0.70017374,0.09258971
-6.946776400000001,-1.7503625,-1.0319871999999999,0.083025314,0.22694516,0.20064305
-6.4219574999999995,-0.60975534,-1.0712712,0.43594834,0.08906415,0.18467329999999998
-6.141185299999999,0.6614318,-1.5162288000000002,0.6030985,0.13590878,-0.05804965
-7.6452417,0.9829921999999999,-1.9212415,0.68827057,0.040090214,-0.18582520000000002
-10.283173,-0.13380714,-2.271044,0.5908463,-0.008342674,-0.17463765
-12.174247,-1.2351974,-2.8117408999999998,0.5519778000000001,-0.035482544,-0.12992232
-11.547082000000001,-1.1164929,-3.0537755,0.5360255,-0.15365879,-0.13257521
-10.481001,0.31007785,-2.225171,0.4561767,-0.2361605,-0.03303908
-12.412652,1.4361763,-3.0129592,0.29061478,-0.24947736,0.07021459
-14.053188,-0.22971888,-3.5152915,0.14369296,-0.19038051,0.133029
-11.246179,-2.1857338,-0.090347596,0.02232276,-0.21434389,0.14793411
-10.300880000000001,-1.3589106000000002,3.7750144,-0.04897394,-0.24415411,0.15325736
-11.9427185,1.0062543,4.545325,-0.12405799999999999,-0.2766347,0.150587
-11.866372,-0.07634631,3.5169193999999995,-0.21027727,-0.32135,0.11971214
-11.623992999999999,-1.9675548999999999,1.2395931,-0.28480282,-0.28461084,0.10215412
-12.120847999999999,-1.7657621,1.1532487,-0.35774013,-0.2771583,0.10641272
-12.253275,-0.13826036,1.3824216,-0.44875905,-0.26864108,0.122382484
-12.235194,-0.15635096,0.63159037,-0.52221996,-0.23031364,0.117600285
-11.335041,-0.10411904,-0.37383065,-0.5280668000000001,-0.12437216,0.05372123400000001
-10.292357,0.44212288,-1.1279947,-0.500927,0.03796091,-0.033580136000000003
-9.194453,0.94536495,-1.0649792,-0.49455649999999995,0.13803808,-0.10278243599999999
-8.293141,0.9876944,-0.7426718000000001,-0.49986228,0.11248647,-0.15173893
-7.744151,0.71416163,-0.6402383,-0.42055455,0.14603170000000001,-0.14695673
-7.122721,0.55271584,-0.7618636999999999,-0.25553367,0.20669934,-0.09639453
-6.947188000000001,0.49602112,-0.8237681999999998,-0.32421237,0.14814354,-0.110776044
-7.233419400000001,0.7296951999999999,-1.2239064,-0.5690645999999999,0.09918706,-0.15653858
-7.37213,1.0183209999999998,-1.4272411,-0.42214277,0.3562915,-0.0522028
-7.048310000000001,0.9142306999999998,-1.1855608,-0.23369959,0.30092967,-0.116605446
-6.489081400000001,0.14432248,-0.6722151999999999,-0.58290505,-0.06796312,-0.17092009
-6.195782,-0.7867251000000001,-0.8637993,-0.73888516,-0.14355333,0.044662975
-6.299316999999999,-1.3940095,-1.8998468999999998,-0.69575804,0.05232497,0.08990191
-7.4440427,-0.9382589,-3.0111876,-0.68245864,0.13484414,0.19212584
-9.477898,0.2667428,-2.4641123,-0.72984433,-0.013124876,0.30335566
-11.186793,0.6533489,-1.5007143,-0.5786465000000001,-0.15472344,0.28366837
-10.695952,0.663395,-2.1183896,-0.26618016,-0.06635742,0.14313444
-11.312305,-0.022658726,-1.7127831999999998,-0.04527384,-0.069027774,0.044662975
-13.149895,-1.3545436000000002,-0.14837347,0.0670381,-0.059969515,-0.0010995574
-11.968615,-1.4398153999999999,-0.77251315,0.09419542,-0.08232718,-0.01441642
-13.03096,-1.1243553999999998,0.6909187,0.09046041,-0.071157075,-0.009616764
-14.948351999999998,-0.96639556,3.7612907999999994,0.09950122,-0.114807755,-0.017610373000000002
-11.672088,0.42511445,3.115766,0.11601204,-0.13716543,-0.067125365
-11.676886,1.6295893999999997,1.1086208,0.15646876,-0.1664346,-0.12779301
-13.065311,0.39778227,0.5581459,0.26026350000000004,-0.2271197,-0.17144369
-12.728879,-0.76551247,1.9339212,0.35875243,-0.20050342,-0.17411405
-11.921199,-1.4140443,2.2562766,0.37739253,-0.19837412,-0.12938125
-10.974944,-1.3808798,0.8735004999999999,0.35503490000000004,-0.162176,-0.046355944
-9.882383,-1.3161215,-0.27576417,0.33318335,0.049131017,0.026022859
-8.655355,-1.3865299999999998,-0.63688636,0.35608208,0.21895155,0.09683087
-7.4888330000000005,-1.2423799999999998,-0.48310202,0.383763,0.35735616,0.16922712
-6.5306063,-1.1792785,-0.46807602,0.29700267,0.5239653000000001,0.15591027
-5.712775700000001,-1.2362125,-0.44626004,0.20650735,0.30677652,0.099483766
-5.573137,-1.2922465,-0.34449688,0.18947294,0.18594737,0.041469023
-5.933435,-1.5119383,-0.53538185,0.1357168,0.5319589,-0.051661745
-6.5348682,-1.5616132999999999,-0.9924254000000001,0.050544735,0.45478043,-0.039426986000000004
-7.2862644,-1.1157553999999998,-1.3168971999999999,0.25867525,0.20191714,0.040927973
-7.1749339999999995,-0.29352912,-1.4407157,0.500351,0.2013761,-0.0069638634999999996
-6.987085,0.8868219,-1.8013878,0.6174626,0.18860027,-0.11609929999999999
-8.460927,0.94703126,-2.4053970000000002,0.68931776,0.06777114,-0.16772614
-10.350996,-0.008599971999999999,-3.1018414,0.6887941999999999,-0.041346848,-0.16133824
-11.61048,-0.74640673,-3.1572435000000003,0.7878066999999999,-0.12065461,-0.177308
-11.473953,-0.94988513,-2.5737095,0.8149466,-0.16324064,-0.13898057
-11.227311,-0.28712225,-1.3698378,0.76384336,-0.26757643,-0.036774087999999996
-12.651546000000002,0.3514401,-2.3506367000000004,0.6499431999999999,-0.24415411,0.067544244
-12.87618,-0.7615189,-2.3064206,0.51897365,-0.27024677,0.12131783
-11.535809500000001,-1.1883955,1.0591469999999998,0.4423188,-0.26970574,0.12025318
-12.081171000000001,0.78343064,2.4857943,0.3598171,-0.26757643,0.09203121
-11.804955999999999,0.39397067,3.6024307999999996,0.27410397,-0.29899237,0.06380924
-11.092394,-2.1025305,2.7538297000000003,0.18947294,-0.32293826,0.036669366
-11.707312,-2.5583482,1.2613229,0.103759825,-0.33039084,0.036128316
-12.147193,-0.80456674,1.3825844999999999,-0.035691983999999996,-0.33145547,0.059027035
-12.743818,0.5271074,1.2086792,-0.17142624,-0.30538025,0.06489134
-12.030211,0.94483817,0.4314064,-0.30557224,-0.26225317,0.036669366
-11.203503999999999,0.658099,-0.42933783,-0.40458477,-0.20156808,-0.026127578999999998
-9.994174000000001,0.74929893,-1.0003453000000002,-0.4844335999999999,-0.033353243,-0.11023499999999999
-8.887449,0.87572235,-0.7624766,-0.5680348000000001,0.07628834,-0.18317229999999998
-8.169868,0.96481544,-0.8777718000000001,-0.6531895000000001,0.14388494,-0.20605357
-7.5662139999999996,0.9367840000000001,-0.9008136,-0.5568473,0.2897421,-0.15442674
-7.1166115,0.9647867,-0.9970318000000001,-0.35189328,0.24237387,-0.06445501
-7.0168976999999995,1.0461034,-1.2555767,-0.35348153,0.085329145,-0.076689765
-7.044191400000001,1.4257375,-1.3005303999999998,-0.63615507,0.07681194,-0.14482743
-7.0393357000000005,1.5791483999999998,-1.4635851,-0.66970026,0.34829790000000005,-0.09426523
-6.758199,1.1847372,-1.431158,-0.12564625,0.39887753,0.038798667
-6.314448400000001,0.8208664000000001,-1.0846596000000002,-0.23371704,-0.0051487214,-0.056478854
-6.0118403,0.28748617,-1.1742601000000001,-0.7175921,-0.0429351,-0.07403687
-6.009896299999999,-0.34849042,-2.2414517000000003,-0.8943242,-0.11054915,0.14100514
-7.442060000000001,-0.45674664,-2.9394956000000003,-0.6936462,0.048066366,0.2613107
-10.16216,-0.20146729,-2.1725272999999996,-0.52382565,0.1385617,0.3347716
-11.822289999999999,-0.21340956,-1.7138078,-0.46900487,0.12419763,0.29218557
-10.354510000000001,0.22084117,-2.665436,-0.26672122,-0.058381262999999996,0.17348573
-9.4865265,0.8045763000000001,-3.5008112999999996,-0.06496116,-0.040282197,0.041992623
-13.63427,0.2005575,-0.48052585,0.021781709,-0.004607669,-0.036233034
-14.242569,-1.5029266000000001,0.44304225,0.102695175,-0.021118484,-0.059131755999999994
-10.777135000000001,-1.6242552,-0.49333006,0.15327482,-0.059969515,-0.056478854
-10.68062,0.048927907,0.84157145,0.16657422,-0.059445914,-0.047420595
-13.699670000000001,-0.9459874,4.5701480000000005,0.18360864,-0.08925614,-0.019216076000000002
-12.771821000000001,-1.5078683000000002,3.5592299,0.22938862,-0.165911,-0.021868976000000002
-12.824446,0.6622361999999999,2.1868448,0.29806733,-0.21966714,-0.059672805999999995
-13.313217000000002,0.5087487,1.3442773000000001,0.37737509999999996,-0.23776620000000004,-0.11025245
-13.093612,-0.9535818000000001,1.5989149,0.4609589,-0.22553144,-0.121946156
-12.040699,-1.3798552,1.5318006000000002,0.4556182,-0.2356369,-0.10384709
-11.017283,-1.1550107,0.3277662,0.4029267,-0.1643053,-0.030386182
-9.927864,-1.0177559999999999,-0.3536523,0.32520720000000003,0.0028274334000000004,0.052098077
-8.466031,-1.1744611999999999,-0.47744215,0.3076492,0.12472123,0.08831366
-7.302334299999999,-1.0627861,-0.57250154,0.32468359999999996,0.18221237,0.16177456
-6.538871299999999,-1.1890947,-0.66761833,0.31456068,0.24183282,0.18092082
-5.8479047,-1.3775662,-0.48799574,0.28953266,0.07628834,0.16762142
-5.552604,-1.5306418,-0.26602453,0.31030208,0.20669934,0.12875293
-5.8655834,-1.6548433999999999,-0.3721547,0.19425514,0.56868064,0.046233773
-6.5112233,-1.5260067,-0.7480826999999999,-0.010140363000000001,0.13377948,0.020158553
-6.945061999999999,-0.7181265,-1.0128909,0.043074727,-0.16004670000000001,-0.03197443
-6.8746057,0.27048734,-1.2947459,0.26558676,0.047001716,-0.058608155999999995
-6.898432700000001,1.0314221,-1.9491962,0.5008746000000001,0.015603243000000001,-0.09906489
-8.179962,0.69390666,-2.3300946,0.66216046,-0.2249904,-0.18263125
-10.143946000000001,-0.3848344,-2.3895762,0.7042229,-0.24363051,-0.31571259999999995
-11.192931,-0.7517794,-2.4958212000000004,0.66057223,-0.19465657,-0.33168238
-11.115388000000001,-0.5160463,-2.1888175,0.5621007,-0.31974432,-0.24651030000000002
-11.858336,-0.043344627999999996,-1.9968120999999999,0.40664425,-0.28674015,-0.14112732
-13.478895000000001,0.60662365,-2.914414,0.26878070000000004,-0.18933332,-0.07297221599999999
-13.253851000000001,-0.29799190000000003,-0.76420045,0.1937141,-0.1643053,-0.046896997999999995
-13.544363,0.12717041,4.104361,0.23364723,-0.13130112,-0.033056535
-12.544257,-0.98507035,4.5647945,0.27462757,-0.13397147,-0.035709437000000004
-11.541882000000001,-3.6290925000000005,3.0869782000000003,0.29859093,-0.13184217,0.00418879
-11.040947000000001,-2.9994175,1.8586763,0.2714336,-0.19252726,0.06913249
-11.029877,-0.92487055,1.6571514999999999,0.20916025,-0.25160667,0.13194689
-11.991655999999999,-0.09329725,1.7525172999999998,0.13463470000000002,-0.26757643,0.18146189
-12.08527,-0.010515334,1.088452,0.051068332,-0.26918212,0.196367
-11.210227,0.05164772,0.3416909,0.0020769418,-0.23724261,0.16868608
-10.427477,0.11676043,-0.10403285,-0.021851522999999998,-0.11639601,0.10267772
-9.723821000000001,0.55200714,-0.1261457,0.0036651914,0.06829473400000001,0.04145157
-9.073997,0.6692943,0.31209856,-0.05326745,0.12472123,-0.029862582999999998
-8.228191,0.5650508000000001,0.23619278,-0.21615903,0.19978784,-0.08628908
-7.978514,0.09746317,-0.033844437000000005,-0.30984829999999997,0.33073990000000003,-0.085748024
-7.748967599999999,-0.23001574,-0.38864598,-0.48127455,0.22799236,-0.09854129
-7.3816686,0.033288978,-0.63535404,-0.76391315,0.11088077,-0.16720255
-7.059773,0.4326130999999999,-0.7131273,-0.9363866,0.28495990000000004,-0.20073032
-6.829288,0.6302399999999999,-0.51864153,-0.6931225999999999,0.33978070000000005,-0.08522443
-6.4921370000000005,0.6375663,-0.16931795,-0.73357934,0.1513375,-0.13898057
-5.891661,0.5057799,0.08667968,-1.0582803,0.07202974,-0.16985545
-5.646715,-0.05116888,-0.41439799999999993,-1.1636983,-0.108943455,0.10107201
-6.260129,-0.3475136,-2.245943,-0.96939075,-0.1531352,0.26928684
-8.0842905,-0.10812215,-2.7224180000000002,-0.9081821,0.29080677,0.29909706
-10.263761,0.008513781,-2.511556,-1.0689269,0.2098933,0.32944834
-10.711736,0.2550112,-2.8042326,-1.0460457,-0.09297369,0.30122638
-9.961306,0.42045057,-2.9305508,-0.8847598,-0.04612905,0.21553071
-12.775719,0.60671943,-0.6334387,-0.77457714,0.0028274334000000004,0.11917108
-14.733820999999999,-1.8944455000000002,-0.29430485,-0.6734178000000001,0.0033510323,0.04783947400000001
-11.025528,-3.0303123,-0.4492097,-0.6026273,-0.022706734,-0.004834562
-11.34029,-0.5397871,1.6775883000000003,-0.55152404,-0.04399975,-0.040509094
-15.235743,-0.45920790000000006,4.1506742999999995,-0.49136254,-0.08658578,-0.04956735
-12.056204,0.06276639,4.6116443,-0.43706536,-0.17175785,-0.06979571
-11.639842999999999,2.1138790000000003,2.016981,-0.36733943,-0.2526713,-0.09639453
-14.066472000000001,0.6970479,0.5869338000000001,-0.2539454,-0.21701424,-0.10278243599999999
-13.616992999999999,-0.53546804,1.1233882,-0.14215706,-0.22446679999999997,-0.09107128
-12.18731,-1.0740868000000001,1.3383491000000003,-0.0543321,-0.23298400000000002,-0.03837979
-10.962216,-1.3898916000000001,0.42123583,-0.034103733,-0.089779735,0.04783947400000001
-9.605478999999999,-1.4954664,-0.21678059,0.02443461,0.13165018,0.1335526
-8.120835000000001,-1.3924006000000002,-0.34733164,0.16816248,0.26260224,0.19050269
-6.870850999999999,-1.1384813,-0.15767254,0.3209486,0.44678682,0.18570304
-5.9327073,-1.3532027,-0.0045872903000000005,0.30178487,0.36587337,0.0728675
-5.284731,-1.8179365,0.021270089,0.17774433,0.16943656,-0.016022123
-4.897943,-2.0891132,0.16691417,0.14048155,0.44572219999999996,-0.041573743999999996
-5.575483,-2.1822288,-0.3489884,0.107477374,0.65652305,-0.025062927999999998
-6.42553,-2.0099131999999997,-0.7322426999999999,0.22725932,0.3003886,0.060615286
-6.917385,-1.5263035,-0.6885628,0.48382273,0.28495990000000004,0.03345796
-6.559997599999999,-0.28274563,-0.9813065999999999,0.5051332000000001,0.36267942,-0.12301081
-7.4116917,0.8681853999999999,-1.5817437,0.5652772,0.0858702,-0.18371336
-9.9847975,0.37810190000000005,-2.185006,0.4827755,-0.06422812,-0.21457078
-12.171222,-1.282526,-2.9262412,0.5317495,-0.02857104,-0.21776474
-12.489459,-2.105327,-3.2892214999999996,0.500351,-0.06529277,-0.15814428
-11.283633,-0.822868,-1.8065401,0.33053046,-0.1706932,-0.06393141
-12.363121000000001,1.1463246,-1.4769351000000002,0.18306759,-0.14887658,0.039845865
-13.333214000000002,0.84228975,-2.1470722999999996,0.1335526,-0.14622368,0.07285004
-12.056864,-1.2151818,0.92806923,0.11334168,-0.21753784,0.059550636
-11.78453,-0.24264756,3.4081175000000004,0.10428342,-0.23137829999999998,0.026022859
-11.743895,-0.04033751,2.7530158,0.08032005,-0.27822295,-0.0021816615
-11.564549000000001,-1.2657186000000002,2.4411566000000002,0.021764256000000003,-0.29206340000000003,-0.010175269
-11.540493,-1.7586081000000002,1.5241966,-0.057526052,-0.30483920000000003,0.010035643
-11.934444000000001,-0.65204644,1.4101082,-0.15706217,-0.28461084,0.031869713
-12.819619,-0.11190499,1.0497521,-0.2603333,-0.24788912,0.053162728
-11.954422000000001,0.21097705,0.31310412,-0.34711108,-0.17175785,0.0073827426000000005
-10.828888000000001,0.21833205,-0.11819695,-0.35456362,-0.045605455,-0.08042477
-9.860078999999999,0.38604107,-0.40136397,-0.39341468,0.101298906,-0.1794373
-8.769338000000001,0.5400649000000001,-0.39794505,-0.550983,0.19339994,-0.24066345
-7.934404,0.56092316,-0.39799294,-0.65959483,0.35787976,-0.25717425
-7.3761907,0.4212646,-0.54432654,-0.53129566,0.46008626,-0.16985545
-6.8638697,0.607409,-0.63879216,-0.39980257,0.31955233,-0.06764896
-6.657020599999999,1.1499063999999999,-0.7194193,-0.45731118,0.18434167,-0.048502699999999996
-6.574296,1.7260183,-0.99164957,-0.31782445,0.36800268,0.030281462000000002
-6.5904045,1.6787279999999998,-1.2143774,-0.1762259,0.33552209999999993,0.023893557000000003
-6.31712,1.149303,-0.85777545,-0.47380453,-0.17655751,-0.0016580628
-5.734783,0.27833074,-0.56016654,-0.45251152,0.10875147,0.1553692
-5.479561299999999,-0.50409436,-1.7799740000000002,-0.526496,0.25886723,0.14898129999999998
-6.387931299999999,-0.28268817,-3.2828717000000003,-0.7027045,0.12259193,0.18570304
-8.876828,0.6574095,-2.8737122999999998,-0.6191380999999999,-0.11161379999999999,0.26874580000000003
-11.778648,0.8928457000000001,-1.8999331000000002,-0.40673152,-0.044540804,0.22031291
-12.120732,0.18377891,-1.7597383000000002,-0.14482743,0.008150687,0.011641346
-12.051252999999999,-1.0292481,-1.0289224000000001,0.022305308,0.010803588000000001,-0.14645058
-12.943629,-1.7766316999999998,-0.08984960000000002,0.12770574,0.07894124,-0.19435987
-12.227782000000001,-0.7010893,-1.0491391,0.16444492,0.0858702,-0.17200220000000002
-15.268495000000001,-1.8577089,2.370882,0.14686945,0.06562438,-0.13048081
-13.335723000000002,-1.5049473,2.7375397999999995,0.14102261,0.015603243000000001,-0.10225884
-12.043016,0.46076888,1.361391,0.1979727,-0.059969515,-0.08044223
-12.502187,0.9857024,0.9933447,0.29272664,-0.070092425,-0.07297221599999999
-12.515353999999999,-0.9013498999999999,1.3244532,0.4183554,-0.110008106,-0.08361872
-11.765145,-1.8046631000000002,1.7387267,0.5104390000000001,-0.05199336,-0.077248275
-11.29456,-1.7542986,1.4787356000000003,0.5077861,0.035831608,-0.031991884
-10.148896,-1.528535,0.45576980000000006,0.5242969,0.19392353,0.023876105
-9.296044,-1.4842614,-0.46323973,0.5615422,0.40153044,0.09414306
-8.363377999999999,-1.4589212,-0.75692207,0.559954,0.571351,0.11597713
-7.3252034,-1.2932424999999999,-0.74063194,0.5226912,0.5351354,0.1362055
-6.650000599999999,-0.95727843,-0.59872276,0.49342203,0.45582765,0.08775515
-5.9540734,-1.1545511,-0.46209052,0.58444095,0.33552209999999993,0.11864748
-6.013966,-1.5843773,-0.57249194,0.49820423,0.71933746,0.047315877
-6.273804,-1.8392544999999998,-0.8813247999999999,0.27036896,0.46540950000000003,0.06913249
-6.761532300000001,-1.7772351999999998,-1.4084322,0.30602604,0.13004448,0.15004596
-6.9586515,-1.0278212,-1.7533602,0.6041456999999999,0.08958775,0.07497934
-6.929662700000001,0.2965075,-1.9156487000000002,0.6142512,0.30571187,-0.1853016
-7.347355,1.136288,-2.3084414,0.46413540000000003,0.35309756,-0.36151004
-9.212773,0.7982843000000001,-3.176914,0.32360148,0.06990044,-0.3439346
-11.224199,-0.5925935999999999,-3.7247744,0.32253686,-0.077003926,-0.26036823
-11.360842,-1.2515451000000002,-3.7298693999999997,0.24003513,-0.06422812,-0.184778
-10.887478999999999,-1.0338163,-2.6786616000000003,0.040404372,-0.02963569,-0.10225884
-12.418887,0.4830254,-3.7759626,-0.13363986,0.0028274334000000004,-0.03996804
-14.262959,-1.0644141000000003,-3.6325402,-0.17783159,-0.059969515,-0.02719223
-11.604782,-1.455215,1.6205106000000002,-0.13418092,-0.18933332,-0.02453933
-10.357144,0.47036487,3.5074959000000003,-0.08946557,-0.24202481,-0.023474678
-11.446889,0.97107863,3.2771833,-0.123534404,-0.28354618,-0.017086774
-12.0631275,-0.8404414000000001,0.10943417,-0.22680554,-0.28461084,-0.021868976000000002
-12.748510000000001,-3.1325830000000003,-0.26906997,-0.41205478,-0.31016245,0.037734017
-13.131975,-2.5946732000000003,0.58137923,-0.52490777,-0.1637817,0.049427725
-12.864525,-0.89629334,0.16340905,-0.5765346,-0.10149089,0.037192967
-11.801767,-0.67572993,-0.9798893,-0.62550855,-0.1573938,-0.033580136000000003
-10.277024,-0.35344163,-1.8382009999999998,-0.6366961,-0.06370452,-0.10864674
-9.15152,-0.04594952,-1.6065956000000001,-0.6553188,0.07468264,-0.17200220000000002
-8.120663,0.21295945,-1.1410096,-0.64893085,0.22959806,-0.20340067
-7.393515,0.11798626,-1.1421492,-0.48603928,0.3546858,-0.17252579999999998
-7.1231713,0.41887996,-1.4676169,-0.4147077,0.21734585,-0.15070918
-6.8436337,0.64877117,-1.6472203999999997,-0.5238431,0.23066272,-0.16985545
-6.8342967,0.89231896,-1.7053131999999998,-0.71493924,0.41217697,-0.1900838
-6.8796334,0.39878779999999997,-1.7341682,-0.4748692,0.6432062,-0.13367477
-6.552164,-0.21483651,-1.8861042000000001,-0.48336893,0.13962634,-0.16666149
-5.9015923,-0.86196053,-1.6909096999999997,-0.8559966999999998,-0.06476917,-0.16240288
-5.515771400000001,-1.0993408000000002,-1.8676593000000001,-0.94492126,-0.10309660000000001,0.0819083
-6.045196,-1.0056318000000002,-2.6672845,-0.6537305,-0.12597786,0.1362055
-8.041864,-0.35995385,-2.7403457,-0.66277134,0.0901288,0.074455746
-10.321019999999999,-0.013426684,-2.3738701,-0.7479434,0.07574729,0.078731805
-10.829205,-1.0107266,-2.879248,-0.6979048000000001,-0.18027505,0.0728675
-9.303409,-0.6991644,-4.114033,-0.463158,-0.034417894,-0.005375614
-11.135576,-0.6992793,-2.7606102999999997,-0.20285963,-0.020577433,-0.16294394
-13.736320499999998,-1.7042598000000002,-1.2554715,-0.033562682999999996,-0.10787880400000001,-0.20446531
-12.091436,-1.8018284,-2.347237,0.044680428,-0.09403834,-0.16772614
-11.220148,-1.084535,-0.8982853000000001,0.08724901,-0.13077752,-0.12035791
-15.402101000000002,-2.253279,3.1120312,0.13569935,-0.22286109999999998,-0.06127851
-12.514693,-1.6168715,2.2572533999999997,0.23471187,-0.3218736,-0.009634216999999999
-10.648126,-0.4795299,-0.08919838,0.34224162,-0.30218629999999996,0.031346112
-13.056511,-1.0915931,-0.59548587,0.4205022,-0.23191935,0.060615286
-13.392791,-2.093854,-0.0259723,0.46732935,-0.18346901,0.07819075
-11.399628,-1.9135896000000001,0.39458358,0.48012263,-0.057316612,0.11758283
-10.828726,-1.4143028,-0.6613073,0.56316537,0.16039576,0.18039723
-10.03047,-1.8999331000000002,-1.2772108,0.7127401,0.36693802,0.2575757
-8.65029,-1.9246029999999998,-1.4469789,0.7132637,0.50799555,0.29431486
-7.629592999999999,-1.5346737,-1.3804392,0.57327086,0.56709236,0.31560788
-7.028227,-1.2860789,-1.2640715,0.4529653,0.42336452,0.27408649999999996
-6.2815905,-1.5211321000000002,-1.0191734000000001,0.56688297,0.25727898,0.24905849
-5.670772,-1.7787865000000003,-1.1285883999999997,0.6259623000000001,0.6511998,0.15697491
-5.9186773,-1.9365165000000002,-1.2509321000000002,0.45242426,0.6118077,0.1404641
-6.3131557,-1.9515137999999999,-1.3700867,0.5051332000000001,0.24715607,0.20860176
-6.1775866,-1.5533868,-1.4417691000000001,0.8250695,0.18753563,0.21074851
-6.3038664,-0.6399604999999999,-2.105212,1.0214889,0.19659388,0.052098077
-7.135861,0.43193313,-3.0999837,1.152982,0.09332275400000001,-0.11768755
-9.143543,-0.16987339999999998,-3.9107082,0.94589865,0.16358972,-0.1767844
-10.829309,-1.548043,-4.145407,0.80217075,0.09597565,-0.16559684
-10.887201,-1.5889360000000001,-3.7360656000000003,0.68451816,-0.08286823,-0.09532988
-10.164756,-0.7737102,-3.0520997000000003,0.48863983,-0.20369738,0.0026005406
-10.797543,-0.09328768,-3.9578931000000006,0.32627186,-0.14781193,0.090425506
-12.012993,-1.7989168999999998,-3.616681,0.27358037,-0.10629055,0.15751596
-11.899116000000001,-2.6083007,-1.4374596000000002,0.30126128,-0.24469516,0.15591027
-12.554035,-0.07270712,0.5037975,0.3124314,-0.3112271,0.11173598
-13.522499,1.3581636000000001,1.9494547999999998,0.2756922,-0.40598103,0.04944518
-11.281459,-1.1969955,1.6420105999999999,0.19212584,-0.44484952,0.011641346
-10.934855,-2.7840447,-0.17314866,0.100042276,-0.41023964,0.005270894
-12.146245,-1.2563908000000001,-0.71058947,-0.06602581,-0.3522249,0.014852752
-13.0471735,-0.024612395,-0.702545,-0.21081832,-0.34529594,0.012723451
-12.223089,0.68141854,-1.4410892,-0.31834805,-0.30377457,-0.019198623
-11.078574,0.51396805,-2.2656236,-0.3864857,-0.30112165,-0.104911745
-10.178249000000001,0.4051564,-2.5018833,-0.41790164,-0.26598817,-0.16133824
-9.127588000000001,0.19938911,-2.1387022,-0.44345325,-0.14833553,-0.21776474
-8.081206,-0.08746497,-1.9246317,-0.49987975,-0.0008901178999999999,-0.26248008
-7.5739326,0.043919235,-1.8338148999999997,-0.45249406,0.17849483,-0.21563543
-7.153099,0.5337921,-1.5627816,-0.33751178,0.18594737,-0.1123643
-7.1407065,1.2836368,-1.6847231,-0.3630634,0.08000589,-0.09159488
-7.164716,1.219568,-2.2066686,-0.46366417,0.3041236,-0.084665924
-6.7062836,0.7775025999999999,-2.434932,-0.023980823999999998,0.58093286,-0.050073497
-6.1310142999999995,0.23648967,-2.4219937000000002,0.0026179939,0.14016739,-0.109693944
-5.719451,-0.24179521,-2.0442364,-0.5211553,-0.24574235,-0.12299335
-5.597548000000001,-0.8164994000000001,-1.8084842,-0.73197365,-0.1573938,0.03508112
-6.0809755,-1.0060148000000002,-2.4615650000000002,-0.64893085,-0.13875368,0.0015358897
-8.220013,-0.30982885,-2.965621,-0.66914177,-0.014189526000000001,0.0004712389
-10.757579,0.27805302,-2.7602847,-0.6946934,-0.06583382,0.10321877
-11.309222,-0.7913603,-3.0197394,-0.71972144,-0.33091444,0.12983504
-9.379467,-1.0625850000000001,-4.141615,-0.6212325,-0.2553242,0.033492867
-10.395088000000001,-1.4453892,-2.9038699,-0.4434358,-0.3288026,-0.044750242999999995
-12.963673,-1.6501603999999999,-1.0591278,-0.31354840000000006,-0.24947736,-0.06391396
-12.368801,-0.97976476,-2.4323268,-0.28691468,-0.20954423,-0.044732787
-12.711258,-0.96079314,-1.1355028,-0.3162013,-0.28461084,-0.014940018999999999
-15.596251,-1.8370517,2.0391223000000003,-0.28054422,-0.38149408,0.0036826448
-12.350748,-0.18657535,2.2752673999999997,-0.19697785,-0.38149408,0.035604715
-10.8711605,1.5941361,-0.17690277,-0.07613126,-0.31815606,0.03933972
-12.692228,-0.231481,-1.0438623,0.020734511,-0.27928758,0.031363565
-12.512414,-1.6112499,-0.46561477,0.035639625,-0.29258698,0.019111356
-11.471606,-1.4203649999999999,-0.12190317,-0.018640116,-0.12969542,0.021240657000000003
-10.47129,-0.8623915000000001,-0.32141677,0.018081611,0.18381807,0.069690995
-9.234867,-0.83355564,-1.1013806000000002,0.17936748,0.37491417,0.16016887
-8.392213,-1.1310306,-1.377729,0.3135135,0.47820276,0.29061478
-7.611139,-1.0222188,-1.4285339,0.3433237,0.5511226,0.3278601
-6.660209700000001,-1.1538614999999999,-1.0848893999999998,0.39442694,0.53037065,0.28049186
-5.738834400000001,-1.7417912,-0.9601994,0.5493249,0.5617691,0.25919884
-5.544137999999999,-2.1104697999999997,-0.8546341999999999,0.5205968,1.0882477,0.21289526
-5.968553,-2.282852,-1.1410286,0.6568721,0.5777389,0.29059732
-6.367006,-2.2743957000000004,-1.1317966,1.0449287,0.07096509,0.34382987
-6.125201000000001,-1.4050708,-0.98314536,1.2716992,0.2216219,0.07127925
-6.0406666,0.26606283,-2.0847846999999997,1.2748932,0.17264797,-0.10702359
-7.772804700000001,0.9640205,-2.748534,1.0273706,0.0853466,-0.11499974
-10.046989,-0.32205844,-3.1633150000000003,0.906524,0.06831218,-0.08838347
-11.21809,-2.3020153,-3.3979661,0.8847074,-0.09243264,-0.044732787
-10.699917,-2.3494875,-3.3727982000000005,0.63824946,-0.1669582,0.04520403
-10.968967,-0.63771,-2.9140308,0.38432150000000004,-0.15631169,0.12292354
-13.615796,0.16756539,-3.9221046000000004,0.3124663,-0.14992379,0.13463470000000002
-12.897229,-0.95891607,-2.2672708,0.35664058,-0.25000095,0.09524262
-11.025845,-0.73033684,2.6793127,0.43010148,-0.3074921,0.050527282
-12.472142999999999,0.53276736,3.1908963,0.4386187,-0.41395718,0.006876597
-12.908894,-0.49567637,1.6911587,0.35131732,-0.493806,-0.0596379
-12.002344,-3.0514963,-1.043623,0.21610667,-0.430468,-0.10011209
-12.5026455,-1.7978060000000002,-0.67763567,0.060667645,-0.35646605,-0.08253662
-13.328693,0.48667416,-0.34349135,-0.130411,-0.27022934,-0.03249803
-12.634413,0.8279054,-1.4422288,-0.29010862,-0.19357447,-0.03302163
-11.214422,0.45142195,-1.8722273999999997,-0.41093776,-0.039741147000000004,-0.120322995
-9.882643,0.12477621400000001,-1.9506134999999998,-0.56426495,0.08267625,-0.21561797
-8.511242999999999,0.3699329,-1.5428045,-0.7516435,0.22108085,-0.27949703
-7.5174966,0.35012805,-1.2310601,-0.8123286,0.39835393,-0.2443461
-7.0108065999999996,0.24128765,-1.5087876,-0.6808354999999999,0.41325906,-0.121387646
-6.294576599999999,0.61872876,-1.7720923,-0.6728419,0.28817132,-0.075607665
-6.2078295,1.4017188999999999,-1.987379,-0.8921773999999999,0.45104542,-0.07667231599999999
-6.738586,2.0906648999999997,-2.2451866000000003,-0.83679813,0.7416951,-0.028763026
-6.883991,1.823922,-2.4257857999999994,-0.7313977,0.35683256,-0.03460988
-6.1264367,0.6468175,-1.7559936999999999,-0.91292936,-0.043458696,-0.023980823999999998
-5.058527,-0.11016201,-1.7917153000000001,-0.88364273,-0.012583823999999999,0.07663741
-5.29901,-0.13637373,-3.2011242,-1.1125426,0.24823818,-0.10754719
-7.1706724,0.46214798,-3.7496644999999997,-1.3318608,0.00017453292,-0.115523346
-10.066230000000001,0.8980267,-3.160011,-1.1221246,-0.47357765,-0.004276057
-11.565862,0.7986674,-2.6085689999999997,-0.90600044,-0.28780478,0.021799162
-10.224592,0.4258327,-3.2651644,-0.8037939000000001,-0.21167353,-0.096359625
-10.497607,-1.1661868999999998,-3.1052127,-0.7223394000000001,-0.33836700000000003,-0.17620844
-12.39369,-2.0159561999999998,-2.2587762000000002,-0.6403788,-0.3011042,-0.16343263
-13.488137,-1.0993792,-1.4723574,-0.61055106,-0.27981117,-0.10007718
-15.865484,-3.4238138,0.9348879000000001,-0.62599725,-0.34475487,-0.050056044
-13.665097,-1.2337322,1.6846273,-0.57009435,-0.42299798,-0.027680922
-11.27418,1.1624041,-0.075982384,-0.39229766,-0.5049760999999999,-0.03248058
-12.852400999999999,-0.01925896,-1.1565908999999999,-0.15488052,-0.51775193,-0.009581857
-11.77183,-2.1080658,-0.10658986,0.075607665,-0.47942448,0.0015882496
-10.702541,-2.5049765,0.15430151,0.24541074,-0.47783625,0.01754056
-11.231354,-2.0904540000000003,-0.57796985,0.27096236,-0.35859534,0.023928462999999997
-10.817203999999998,-1.3442581,-1.4453795,0.24221679999999995,-0.20422098,0.07770206
-9.804027,-1.4048601,-2.1059017000000004,0.39552653,-0.09775589400000001,0.15755087
-8.729623,-1.4936274999999999,-2.0817392,0.5908812,-0.023230333,0.21078339999999998
-7.691047,-1.4413956,-1.7651587,0.6819175999999999,0.090669855,0.21450096
-6.8311839999999995,-1.8067987,-1.3688416,0.72769755,0.17903587,0.1894904
-6.349346,-2.3786009999999997,-0.86214244,0.86290824,0.17318901,0.22462387
-6.4365907,-2.5635195,-0.84429127,0.829363,0.5814739000000001,0.121876344
-6.814118400000001,-2.4151175,-0.98597056,0.7053399,0.5250474,0.09154252
-6.9562287,-2.0305896,-1.4581646000000001,0.77508324,-0.08391543,0.11763519
-6.296846400000001,-1.6964164000000002,-1.5423063999999997,0.92359334,-0.004066617,0.024993114
-6.099860700000001,-0.97728443,-1.5459551999999999,0.90551174,0.16360717,-0.124023095
-6.7860966000000005,0.09152554,-1.7397993000000003,0.7878590999999999,0.13538519,-0.22942352
-8.528692,-0.12954547,-2.465204,0.63402575,0.11782718,-0.2773328
-10.041627,-1.2145498,-3.265739,0.6270968000000001,-0.20528562,-0.22303562
-10.570544,-2.0447919999999997,-3.3454084,0.46259952,-0.36657152,-0.16076228
-10.801585000000001,-1.5500253000000002,-2.8384793,0.18367845,-0.26010639999999996,-0.021816615
-12.713536999999999,-0.29315564,-4.121464700000001,0.005881759300000001,-0.13447762,0.08888962
-14.259310000000001,-0.49518797,-2.6730402,-0.09630727,-0.20580922,0.11498229
-11.5908375,-0.82758933,2.0973015,-0.17456783,-0.25638887,0.094212875
-11.814734,0.8559654000000001,3.8032756,-0.26132816,-0.29417524,0.08569567
-11.608766000000001,1.0618379999999998,3.3979277999999997,-0.35501742,-0.34794885,0.059079394
-11.161739,-1.486713,0.6003126,-0.48757517,-0.33569664,0.044715334
-12.507587,-2.0629687,-0.59713304,-0.5940403000000001,-0.31440362,0.06227334599999999
-13.806891,-0.8015116999999999,-0.09332598,-0.7047465,-0.2909813,0.10007718
-13.182973,-0.7487052,-0.0064068837,-0.7814188,-0.24148375,0.11709414
-11.609044,-0.6039996,-0.46219587,-0.8277224,-0.21539108,0.052167892
-10.746786,-0.04109408,-1.0410371999999999,-0.8756316999999999,-0.09402089,-0.049497537
-9.822317,0.5581555,-1.33154,-0.96080375,0.0076270886,-0.15915658
-8.746373,0.8568944,-1.2673563,-1.0512991000000003,0.10239847,-0.2501755
-7.9714756,0.8353560999999999,-1.1632277,-1.064616,0.24825563,-0.2501755
-6.981903999999999,0.51768386,-0.9803394,-0.9341700000000001,0.2945592,-0.18469074
-6.3991074999999995,0.5876520000000001,-1.0967168,-0.7776838,0.2168397,-0.10218903
-6.4187975,0.8950579,-1.3306398000000002,-0.7776838,0.16893041,-0.13039355
-6.58053,1.1260697,-1.4393365,-0.6206391,0.48300242,-0.037768926
-6.4161925,0.9308655999999998,-1.2091006000000002,-0.26132816,0.3946364,0.025010569
-5.8915367,0.30890948,-0.7426909,-0.23204152,0.03265511,0.044191737
-5.5411209999999995,-0.43301532,-0.9967828000000001,-0.7382743,-0.15310028,0.06867871
-5.943280000000001,-0.7028419,-1.7816212,-0.7563908,-0.25317746,0.27893853
-7.2893004,-0.5123496,-2.4606838,-0.5663419,-0.092415184,0.33697072
-9.664683,0.013139378,-2.3365014,-0.52375585,0.16893041,0.3800978
-11.677422,-0.43192357,-2.0630932,-0.5157797000000001,-0.069533914,0.35878733
-11.143908,-1.2309932,-2.9993122000000003,-0.39812705,-0.21910863,0.25286329999999996
-10.332522,-0.9397815999999999,-3.0885394,-0.19317304,-0.23561946,0.058555797
-13.286364,-1.17087,-1.9847261999999999,0.045814894,-0.13873622,-0.113882735
-13.561945999999999,-1.8971751000000001,-1.4392983999999998,0.29496065,-0.046635196,-0.2070484
-11.057831,-0.6607039000000001,-0.7630608,0.38810885,-0.04717625,-0.24696408
-12.799938000000001,-1.4091889,2.2063238999999997,0.3678805,-0.08018043,-0.25815165
-13.478206,-2.0286167,3.2937992,0.3700098,-0.175999,-0.23099433
-11.874723,-0.6725121000000001,3.0107467,0.45357618,-0.25797713,-0.16605063
-12.809783,0.10314221,0.7331812,0.60423297,-0.33143803,-0.09951867
-13.904135,-1.1513332,0.24472572,0.73731434,-0.2957635,-0.040421825
-13.194857999999998,-1.5711038999999998,0.601184,0.8395208000000001,-0.25904176,0.004276057
-11.182445,-1.5345683,0.75075465,0.8427148000000001,-0.24572489999999997,0.07506661
-9.944643,-1.4355632999999999,0.3164656,0.801717,-0.16587609,0.15810938
-9.193475999999999,-1.3107393,-0.124086685,0.8331329,0.007644542,0.24966934
-8.038456,-1.4624741,-0.21950041,0.893818,0.06991789,0.30557224
-6.934623200000001,-1.7832589,-0.5755564999999999,0.8331329,0.13966125,0.24488714
-6.047897,-1.4850466999999998,-0.674686,0.53503066,0.25197318,0.058032195999999994
-5.341895,-1.0187902,-0.6321555,0.32581806,0.37707838,-0.002635447
-5.0476665,-1.1890085,-0.80435604,0.18476056,0.5692566,-0.04626868
-5.7102575,-1.6272048000000001,-1.1617911,0.04103269,0.55913365,-0.0047647487
-6.652835400000001,-1.8084555,-1.4428608,0.10384709,0.07098254,0.055902895
-7.19155,-1.1631511,-1.8731276999999997,0.23692845,0.28393015,-0.025516712999999996
-7.351482400000001,-0.083653405,-2.0736947,0.32529446,0.29351202,-0.15327482
-8.759483,0.4724143,-1.7849157,0.30986574,0.18437658,-0.20331341
-10.7374,-0.023884555,-2.0648935,0.36894515,0.020420352,-0.21502456
-11.295422,-0.36441666,-3.5455828,0.46104616,-0.12754866,-0.23738223
-10.732641000000001,0.13471693,-4.0902925,0.473822,-0.20633282,-0.15273376
-10.957553,1.3945746,-3.0274490000000003,0.29869565,-0.33834952,-0.044139378
-12.246417999999998,1.1892575,-2.5745041,0.08363618,-0.3021514,0.075607665
-13.465679999999999,-0.71655583,-2.6121986,-0.020682152,-0.27925268,0.11979939999999999
-12.645234,-1.0650654,1.9420041000000001,-0.05742133,-0.25104815,0.12245230000000001
-12.071239,0.8673714,3.3576956,-0.074455746,-0.2478542,0.10915289
-11.662951,-1.2783601,3.769565,-0.11917108,-0.31812117,0.06817256
-11.476922,-3.4361582000000004,2.3586621,-0.16441001,-0.28351128,0.048467792999999995
-11.955264999999999,-1.7951244999999998,1.7460338,-0.22881266,-0.27286479999999996,0.038362335
-12.561027000000001,-0.008580819,0.9768629999999999,-0.3294309,-0.25476572,0.024521876
-12.765203,0.24750300000000003,0.75392455,-0.38213983,-0.2771234,0.034103733
-11.46385,0.283598,0.03970544,-0.41940263,-0.23507840000000002,0.0074874623999999996
-10.373856,0.1591761,-0.5463951,-0.42898446,-0.13658947,-0.06595599
-9.319927999999999,0.5374791,-0.45611456,-0.40502109999999997,0.02628466,-0.13196434
-8.474622,0.7355658,-0.30153534,-0.43589598,0.08484045400000001,-0.18413223
-7.8760424,0.72679347,-0.5198961,-0.46303585,0.1577603,-0.21287781
-7.0176544000000005,0.6087114,-0.616641,-0.29695029999999994,0.18650588,-0.12822933
-6.727563000000001,0.43736318,-0.83888996,-0.19367918,0.16362461,-0.04998623
-6.7266436,0.63119775,-1.2643971,-0.30653217,0.23176228,-0.0782082
-6.633816,1.0017148,-1.3638713,-0.3959803,0.51070076,-0.06223844
-6.754875999999999,0.8683770000000001,-1.367951,-0.010035643,0.46544442,0.09426523
-6.4273014,0.5342613,-1.1728045,-0.17238617,-0.017348573,0.041556288
-5.956208999999999,0.007776366999999999,-1.1166173000000001,-0.74197435,-0.17224655,0.05326745
-5.805786,-0.42726922,-1.7486005,-0.6605373000000001,-0.051958452999999995,0.30452505
-6.8919396,-0.36692578,-2.4970662999999997,-0.54182,0.14817846,0.36308083
-9.19496,0.15601577,-2.1512189999999998,-0.46675340000000004,0.44521603,0.31784192
-11.6058445,0.08167101,-1.0218741,-0.499234,0.2115339,0.25609216
-11.077894,-0.23320481,-2.273735,-0.41193262,0.0039269909999999995,0.14908603
-10.118135,0.20264523,-3.6765072,-0.28789207,0.015114551,0.0064228117
-14.164279,0.0965438,-1.5536741000000003,-0.16280429999999999,0.07152359,-0.0723439
-14.704009,-1.9963237,-0.6460514,0.01977458,0.11252138,-0.11173598
-10.246167999999999,-1.7789685000000002,-0.46736735,0.15125023,0.09655161,-0.122382484
-11.245786,-0.6490298000000001,2.1684572999999996,0.21779963,-0.009354965,-0.08618436
-15.062880499999999,-1.8771595,5.0310225,0.27103218,-0.13924237,-0.06700319
-12.882194,-0.9370139000000001,3.5978913,0.37376225,-0.22443189,-0.05424483
-12.668316,2.0205913,1.573431,0.41208968,-0.28244662,-0.068608895
-13.670557,0.56778973,0.055689134,0.435512,-0.21430898,-0.05050983
-12.7225485,-0.9019724,0.35937923,0.42114794,-0.14510667,-0.02867576
-11.28143,-1.3445263,0.66388345,0.38227946,-0.07216936,0.018675024
-9.960186,-1.335342,0.10800722,0.38866737,0.03693117,0.10117674
-8.704293,-1.3260046,-0.12530294,0.44191736,0.13009684,0.17198475
-7.586564500000001,-1.5836974,-0.5156057,0.5419771,0.18385299,0.20711823
-6.609328,-1.5395386999999998,-0.809901,0.5579643,0.17746508,0.14536847
-5.645298,-1.6478907999999999,-0.31804574,0.42275366,0.10135127,0.10864674
-5.274637,-2.0551445,-0.36867833,0.43605307,0.35526177,0.1293987
-5.415042400000001,-2.2267799999999998,-0.54143435,0.44457027,0.87535244,0.07936012
-6.0181512999999995,-1.9772657999999999,-1.0092709,0.36898005,0.42020547,0.09852383
-6.4102836,-1.2206885,-1.4241287,0.3615275,-0.0040317103000000005,0.095853485
-6.459958599999999,-0.13511917,-1.5953906999999998,0.47918016,0.20408134,-0.045710173
-7.094450500000001,0.5027441,-1.3741472,0.5957507,0.20833996,-0.16442747
-9.020375,0.43764094,-1.3607781,0.6080029,0.0683471,-0.22937118
-11.101023,-0.6292728,-2.1712632000000003,0.51963687,-0.045553092,-0.25384068
-11.844116,-1.4312825,-3.1668298,0.4009196,-0.18289305,-0.26876324
-11.073212,-0.4405331,-2.958965,0.2923252,-0.24890140000000002,-0.16920967
-11.28438,0.75680715,-2.8105342,0.07780678,-0.29628709999999997,-0.05581563
-13.55008,0.6138829,-3.9565427000000004,-0.105819315,-0.20579177,0.025080381000000002
-13.991954000000002,-0.76190203,-3.0272574,-0.2160194,-0.22228514,0.027733281000000002
-11.918547,-0.9933447,2.104082,-0.24954717,-0.28244662,0.036250487000000005
-10.984703,0.5411854,3.6732129999999996,-0.28255135,-0.36229545,0.055414204
-10.449579,-1.268946,3.5347898,-0.35175365,-0.43256239999999996,0.055414204
-10.711371,-2.1911447,1.4836103,-0.47151816,-0.39795253,0.039985493
-11.809629,-1.3499563,0.51369035,-0.57320106,-0.34578463,0.046896997999999995
-12.627671000000001,0.021815965,0.5223478,-0.6583730999999999,-0.3378085,0.054890607
-12.899174,-0.05788222,0.6832573000000001,-0.6801897,-0.28935814,0.07138397
-11.740696,-0.6002071999999999,-0.15325764,-0.6727546,-0.256895,0.029862582999999998
-10.563429,-0.4031261,-1.2399761999999999,-0.62323964,-0.17278759,-0.05368633
-9.573369,0.4515656,-1.3695505,-0.5721364000000001,0.008726646,-0.111177474
-8.533030499999999,1.0624988000000002,-1.0394475,-0.60088193,0.04918338,-0.15535176
-7.7371216,1.1963059999999999,-0.7647655,-0.6040759,0.09815732,-0.17559758
-6.9564585999999995,0.875052,-0.9607548,-0.39966294,0.070999995,-0.10478957
-6.401339,0.61395955,-1.0921007,-0.2942625,-0.0019024089,-0.104248516
-6.557967,0.77386343,-1.3572251,-0.38741073,0.20888099999999998,-0.05635668
-6.7507386,0.9304634,-1.5034245000000002,-0.16437511,0.33983305,0.05169665
-6.48482,0.6502555999999999,-1.5110765,0.09379399599999999,-0.1254019,0.050631999999999996
-6.246798,0.25957936,-1.3431089,-0.39912188,-0.4724781,0.0490263
-5.863362,-0.64087987,-1.1116278,-0.54497904,-0.17277014,0.13793337
-6.0156136,-1.4636426000000002,-1.8029106,-0.5380676,0.2498788,0.15657349
-7.575235,-1.1550874,-2.5691029999999997,-0.618981,0.22539182,0.18531907
-10.077367,-0.18495686,-2.1438162,-0.6391919,-0.24996606,0.28326693
-11.883399,-0.15697344,-1.7581197,-0.6040759,-0.18236946,0.23959879999999997
-11.171114999999999,-0.4938855,-2.7549696,-0.45928338,-0.22067943,0.085241884
-13.674148,-1.0017340000000001,-1.9531131999999998,-0.29585075,-0.25261897,-0.03452261
-15.626782,-1.9000671000000002,-1.113275,-0.17500417,-0.12966052,-0.09625491
-13.151437,-1.1839902,-0.23269725,-0.087702796,-0.13072516,-0.119153626
-14.760368,-2.4659223999999997,3.2080290000000002,-0.008395034000000001,-0.10304424,-0.10744247
-12.13821,-1.7172747,4.0814915,0.0006457718,-0.1254019,-0.04782202
-10.810549,1.4945757,2.6881235,0.057072267,-0.14563027,6.981316999999999e-05
-12.45165,2.3888865000000004,0.80491143,0.0980526,-0.19141026,0.006981317
-12.677833999999999,0.35574004,0.8035994000000001,0.13690363,-0.21163863,-0.004171337
-11.387225,-0.77547234,1.3060753,0.1667313,-0.20364502,-0.0031066859999999996
-11.211117,-0.72356606,1.4870195,0.17896606,-0.10569714,0.027750734
-9.654494,-0.8257505999999999,0.7777708000000001,0.13105677,0.028955012999999998,0.09642944
-8.774213,-1.0207918,-0.094034664,0.15927875,0.10986847400000001,0.17786649999999998
-7.721023,-1.5259397,-0.19197667,0.26839674,0.191323,0.21567033
-7.068478599999999,-1.895001,-0.47572790000000004,0.37166786,0.23762658,0.17786649999999998
-6.6048746,-1.5901331,-0.4655573,0.34772193,0.22752112,0.064489916
-5.938644999999999,-1.5941074,-0.6286599,0.32749358,0.3840248,0.064489916
-5.666232599999999,-1.6955162,-0.8440423,0.2604206,0.7848571,0.05384341
-5.9604707,-1.8050747999999999,-0.94614065,0.36688566,0.35580283,0.13369222
-6.060721,-1.4643896,-0.9511972,0.38444367,0.47877872,-0.00043633230000000004
-6.043568,-0.43591708,-0.8989556999999999,0.4706804,0.41968188,-0.14683455
-6.220308999999999,0.626055,-1.0316712,0.4307647,0.15458381,-0.26181683
-7.8053946,0.691637,-0.8872433000000001,0.36688566,0.07847001,-0.30066788
-10.601918,-0.44064805,-1.3941629,0.35358626,0.008203047,-0.29108602
-12.598376,-1.4677415,-2.3502153999999997,0.20879374,-0.047682392999999997,-0.17184512
-12.7650795,-1.0359424000000002,-2.1494088,0.022479841,-0.13763666,-0.052604225
-12.697084,0.9859226999999999,-1.5048226999999998,-0.01850049,-0.083339475,0.0011519173
-13.847114999999999,1.0250822,-1.9302628000000002,0.025150195,-0.12486085,0.006475171500000001
-14.716334,-0.52795017,2.0197964,0.07677703,-0.17915805,-0.00043633230000000004
-13.3929825,0.0977792,2.869221,0.10072295,-0.19353956,-0.008412487
-11.391669,-1.0879538999999998,3.353903,0.09007644,-0.24570745,-0.023858652
-10.706737,-2.2953978,1.233282,0.02300344,-0.2904228,-0.0068242373
-11.255103,-1.1055945,1.2400912,-0.072797686,-0.29094640000000005,0.0426733
-12.463975,0.35582626,1.6318879,-0.17819811,-0.23345524,0.077265725
-12.625869999999999,-0.110391855,0.66533905,-0.27933994,-0.16266468,0.035220746000000004
-10.944355,-0.38444173,0.05886863,-0.28731609999999996,-0.15254177,-0.054192472
-9.704839,-0.3477913,-0.26299825,-0.24898867,-0.02851868,-0.12606514
-8.753805,0.063484654,-0.3048489,-0.29051006,0.11147418,-0.1489464
-7.756705999999999,0.20836258,-0.26157132,-0.37407643,0.11786208,-0.14362314
-6.7147684000000005,0.3295092,-0.49402913,-0.30380946,0.22060962,-0.055780724000000004
-6.127308,0.6068823,-0.7788338,-0.21917845,0.23390903,0.04639085
-5.94193,1.1889797,-0.91642374,-0.3314904,0.2647839,0.009128072
-6.145475,1.7032638,-0.9952888000000001,-0.31873202,0.6810624,0.0426733
-6.2187953,1.6725318,-1.4208245000000002,0.037384953,0.39573595,0.093235485
-5.9893827,1.0190105,-1.3730076999999998,-0.08662069,0.022043508,0.013404128999999999
-5.934297,-0.10975978,-0.8359499,-0.5827479999999999,-0.15041247,0.10442304599999999
-5.9573197,-0.9263933000000001,-1.2204298999999998,-0.43317327,0.02417281,0.26570892
-7.428853500000001,-0.7145446999999999,-2.1826787,-0.27986354,0.22485077,0.2896723
-10.005282000000001,0.43914446,-2.2324783999999998,-0.31606168,0.3425034,0.27370253
-12.449063,1.2481356000000001,-1.6295798000000001,-0.3586477,-0.05565855,0.19065976
-11.795112,0.28137615,-2.5522093999999997,-0.12175417,-0.32021555,0.086323984
-10.70324,-0.28209442,-3.606357,0.055484015,-0.23239058,-0.032899458
-15.702171,-0.8777048000000001,-1.2626636999999998,0.12095132,-0.16585864,-0.08454375
-14.205363,-2.3303627999999996,-0.8549982,0.14758503,-0.12911946,-0.11807153
-10.09609,-1.4322498,0.94261634,0.18697712,-0.08279842,-0.11913618
-13.095966,-0.9071343000000001,4.7032943,0.2705435,-0.08066912,-0.109030716
-13.075329,-1.0216633,4.2571205999999995,0.39884263,-0.17489944,-0.061645027000000005
-12.052411,0.40680358,2.7951443,0.4675039000000001,-0.19458675,-0.039287362
-13.847192000000001,1.4164288,0.8123718000000001,0.46752134,-0.1871342,-0.05736897
-14.463152,0.0724677,0.45947605,0.46591565,-0.20364502,-0.061645027000000005
-12.587717,-0.41647616,1.0282905,0.44675192,-0.14880677,-0.029705504
-10.720239999999999,-0.6797809,0.34359667,0.39831904,0.073146746,0.05173156
-9.3083315,-1.0968508999999997,-0.1954722,0.40203658,0.16844173,0.16297884
-7.6586967,-1.4262165,-0.47099695,0.47443286,0.21261601,0.25242698
-6.5167203,-1.7092493000000002,-0.3614191,0.46378633,0.26265459999999996,0.14222687
-5.7566857,-1.8289498,-0.35551023,0.24713862,0.25307274,0.04960226
-5.050760299999999,-1.9576237,-0.14157394,0.16516050000000002,0.49103093,0.08634144
-4.720714599999999,-1.7476044999999998,-0.604919,0.12842132,0.80829686,0.035761796
-5.113919,-1.1776791000000002,-0.8008029999999999,0.1033933,0.5490457,0.10602875
-5.960365299999999,-0.6294835,-0.60716,0.06721263,0.24509658,0.18587756
-6.164782,0.054482453,-0.8981034,0.27481955,0.13543755,0.13850933
-6.6308565,0.66712034,-1.5485505,0.48190287,0.12479104,-0.05736897
-9.574086999999999,0.4385603,-1.3587095,0.51117206,-0.072151914,-0.20216149
-12.376778,-0.79176253,-2.1840386,0.3578623,-0.023719024,-0.25806439999999997
-13.127044,-0.8839966999999999,-3.9746047999999994,0.38819614,-0.0034906585,-0.24528857
-10.622728,1.3127024999999999,-3.9240007000000006,0.41641809999999996,-0.11367329,-0.19737929
-10.769397,1.7610598000000002,-2.3184109,0.34189254,-0.178617,-0.09943141
-12.411781,0.880597,-3.2720978,0.24448572,-0.07002261,0.021921335
-13.251494000000001,-1.6273197,-2.9414587000000005,0.20827013,-0.07534587,0.08206538
-11.113204,-2.2254487999999997,0.5358894000000001,0.17580701,-0.14454816,0.106569804
-10.653278,-0.24681346,3.5841870000000005,0.10499900599999999,-0.19725712,0.11932816
-11.170904,0.34964922,3.7592797,0.06986553,-0.24516639999999998,0.10922269999999999
-10.963548,-1.0158119,3.3285245999999997,0.0017453292000000002,-0.29466394,0.07888888
-11.606477,-1.5264856000000002,1.4459159,-0.108960904,-0.2829528,0.06717772
-13.155057000000001,-0.783105,1.3503969,-0.2340661,-0.33086208,0.07995354
-13.608451,-0.07583873,0.71296453,-0.36288884,-0.32340949999999996,0.07780678
-12.298841,-0.5308903,-0.041161112,-0.42996186,-0.28881708,0.048014008
-11.154375,-0.64409775,-0.79736495,-0.4225093,-0.14880677,0.00010471976000000001
-9.923803,-0.030157363,-1.177497,-0.39535198,0.10882128,-0.0312763
-8.59642,0.5927946999999999,-1.1724885,-0.51194,0.17215927,-0.061627574000000004
-7.4511867,0.9470026,-1.0819014,-0.5673018,0.21102776,-0.05045747
-6.6198335,0.94362193,-0.9097009,-0.42196825,0.2812947,0.017139133
-5.985428,1.042081,-0.94584376,-0.35702455,0.23551473,0.004363323
-5.7765379999999995,1.2734088,-1.0385377,-0.45551348,0.37870154,-0.071733035
-6.0539308,1.6469139,-0.9643461,-0.21968459,0.6358234,-0.04246386
-6.2373650000000005,1.5732681999999998,-1.2787623,0.013980086999999999,0.17802358,-0.06588618
-6.306605,0.7337558000000001,-1.0124313,-0.37725290000000006,-0.15360643,-0.11379547
-5.9929643,-0.44640368,-0.9499042999999999,-0.79724896,-0.2866878,0.07410668
-6.5890827000000005,-1.0720277,-1.9814988000000002,-0.76691514,-0.0636347,0.18589501
-8.42644,-0.72304887,-3.9736373,-0.6359630999999999,0.07901105,0.27743754
-10.890132000000001,0.41954073,-3.5346558,-0.5742133,0.15086626,0.2785022
-12.097738,0.7374715999999999,-2.7293036,-0.42675045,-0.14402457,0.13744467
-10.153819,-0.0010342951,-3.1122036,-0.14515904,-0.22439697,-0.04246386
-11.051961,-0.21964405,-2.2050502,-0.015795228999999997,-0.12273155,-0.15318754
-15.193537,-1.6805284,-0.3947177,0.06084218,-0.052988198,-0.163293
-12.586491,-2.0642328,-0.5052723,0.11353367,-0.10622074,-0.14947
-10.073497999999999,-0.49611689999999997,1.1980011000000002,0.17154841,-0.11473794,-0.11327187
-12.984991,0.0001532289,4.792914,0.21361084,-0.21746802,-0.08344419
-13.052019,-0.66857606,3.3899024,0.30623546,-0.23345524,-0.052045718
-12.897114,0.10313263,1.6725318,0.36639696,-0.24836035,-0.05682792
-13.811048000000001,0.92072374,0.88775086,0.37969637,-0.29094640000000005,-0.06908013
-13.923854,-0.3101353,0.603923,0.38927823,-0.2675066,-0.07333873
-12.1564245,-0.6371258000000001,1.0468599,0.3738495,-0.11419689,-0.028082347999999997
-10.526547,-0.5051287,-0.0022122425,0.41750020000000004,0.15833627,0.07410668
-9.462986,-0.7697071,-0.70559037,0.518101,0.3457148,0.17044885
-7.8810606,-0.8009275,-0.80016136,0.62030745,0.54373986,0.19334757
-6.755872200000001,-1.0883371000000002,-0.88041496,0.5761331999999999,0.5804616,0.08688249
-5.6915345,-1.3196553,-0.61424685,0.4542394,0.4548327999999999,0.0011868239
-4.997044,-1.753207,-0.49160624,0.36746162,0.5612979,-0.035011306
-4.9628735,-1.9075084,-0.5631354000000001,0.3615973,0.67895055,-0.05417502
-5.412198,-1.7198892,-0.33831987,0.49787262,0.17643534,-0.038728856
-5.8609004,-1.1394485,-0.34235168,0.65278804,0.20835741,-0.13454743
-5.8736663,-0.38279456,-1.1360678999999998,0.8178089,0.18601719,-0.17074557
-6.915431,0.2771528,-2.167078,0.723055,-0.07374016,-0.19097392
-9.31197,0.31297004,-2.6560986,0.59901446,-0.26804766,-0.23197171
-11.4061775,-0.5187948,-3.9031904,0.63255966,-0.27443558,-0.22664845
-12.112324000000001,-1.019384,-4.138454,0.5356765,-0.35321975,-0.08503244
-11.229582,-0.17938316,-2.6012332000000002,0.4260174,-0.35906658,0.021938787999999997
-10.964572,0.7497778,-1.6198882,0.37758452,-0.30370474,0.07623598
-12.860147999999999,-0.5151268,-0.9279064,0.35522687,-0.38515925,0.08794714
-15.328656,-0.47820827,1.3204405000000001,0.33445746,-0.40858158,0.08262388400000001
-14.852832000000001,0.92668056,2.7695837000000005,0.2902657,-0.42720425,0.060789815999999997
-12.574644000000001,-1.0253408000000002,2.900604,0.18914133,-0.42880994,0.04642576
-11.575467,-1.9142887999999998,0.78717524,0.041678462,-0.41071087,0.036320303
-11.3631115,-0.1486512,0.586091,-0.12065461,-0.40538759999999996,0.0368439
-12.326959,0.42800665,0.96499735,-0.26438248,-0.35374334,0.050701816
-12.393968,-0.036602552999999996,-0.18909405,-0.35700709999999997,-0.30743974,0.035255652
-11.091042999999999,-0.08894938,-0.96252656,-0.38734093,-0.27602383,-0.041905355
-9.839949,0.2869786,-1.3861661,-0.44483206,-0.08705702400000001,-0.14465289
-8.411874000000001,0.66493684,-1.0159651,-0.5747194999999999,0.00022689281000000004,-0.18884462
-7.1373067,0.71056074,-0.73787385,-0.5752605,0.12585570000000001,-0.17500417
-6.231475,0.9100744000000001,-0.906847,-0.4320737,0.12585570000000001,-0.0946143
-5.639513,1.1229093,-1.1089653999999998,-0.42833869999999996,0.067299895,-0.10580186
-5.490479,1.4394516000000002,-1.3371425,-0.31442106,0.4308869000000001,-0.10897836
-5.6546164,1.7876642,-1.5764477,-0.07913323,0.350497,-0.12283627
-6.151336,1.5555511999999998,-1.7809221999999998,-0.47146579999999993,-0.33457962,-0.19256218
-6.375864,0.964825,-1.7742278999999999,-0.6471332,-0.22811453,0.044296455
-6.1030974,0.050632577000000005,-1.3634788,-0.6332753000000001,0.08913396,0.062412973
-6.2005989999999995,-0.59636694,-1.5924697,-0.68439597,0.40479422,0.14650294
-8.325032,-0.42680955,-2.55016,-0.7472104,0.14395475,0.24870941
-11.30678,0.53642565,-2.2781787000000002,-0.8174599,-0.1833992,0.23328070000000004
-12.494150999999999,-0.02024537,-2.5885246,-0.6859841999999999,-0.10248573,0.14065608
-11.619961,-0.82019603,-2.8682727999999997,-0.5204223,-0.15838863,0.007051130300000001
-14.186306,-1.4885327,-0.9184349,-0.37988836,-0.13070771,-0.067456976
-14.408574,-1.2621848999999998,-1.2552033999999999,-0.25000095,-0.079063416,-0.11857767
-13.709706,-0.7521720000000001,1.4689673,-0.1557881,-0.07054621,-0.11697197
-15.955054999999998,-1.410089,5.829479,-0.074874625,-0.14081316,-0.08929104
-11.466838000000001,0.01118571,4.0290775000000005,-0.00034906584,-0.15678293,-0.05256932
-11.714283,2.1230822,1.3584222,0.08854055400000001,-0.22118558,-0.06265732
-13.116729999999999,1.4808999,0.30620882,0.20352285,-0.17755234,-0.07438593
-12.313916,-0.09238746,0.67983836,0.28443632,-0.12964305,-0.054681167
-11.44914,-0.77940845,1.4080013,0.29825932,-0.050317843,-0.006789331
-10.140948,-1.2038621,0.7790253,0.2514147,0.082205005,0.085817836
-8.575102000000001,-1.5551584999999999,-0.09240661,0.29401818,0.11309733,0.16622515
-7.327167,-1.6007345,-0.14565365,0.34353316,0.14556046,0.20294689
-6.4344077,-1.6141516000000002,-0.07322427,0.32169908,0.23499113,0.15823156
-5.623730999999999,-1.6837271,-0.095203035,0.27806586,0.22062707,0.14493214
-5.2512026,-1.7599297999999999,-0.55373096,0.28550094,0.4516563,0.1550376
-5.1525326,-1.9054494,-0.7705307,0.23972097,0.7412239,0.12681562
-5.7110615,-1.6980252,-0.8769865,0.19713494,0.30684632,0.21944025
-6.3287277,-1.0408936,-1.0052199,0.5335645999999999,0.22115067,0.18858282
-6.7074995,-0.19643947,-0.94182146,0.47926742,0.5570567,-0.18828613
-7.1170425,0.86317676,-1.0443125,0.35737363,0.23977333,-0.34107223
-8.824099,0.9808374,-1.1948886,0.13325588,0.0752935,-0.36449456
-11.081688,-0.17845422,-2.4694848,0.21790436,0.03005457,-0.2793225
-12.236248,-1.3743579,-3.1750755,0.21364576,-0.02263692,-0.19947368
-11.8637,-0.6441265,-2.6220912999999997,0.01829105,-0.18285814,-0.072239175
-13.003236,0.87362504,-1.9583229,-0.11637855,-0.116849795,0.025150195
-14.17106,1.222307,-2.9261357999999995,-0.14779449,-0.10726794,0.07145378
-11.532725,-0.97201717,0.74673235,-0.14088298,-0.15306537,0.09274679400000001
-9.330625,-0.47983634,4.98944,-0.12702507,-0.20575686,0.10979866
-10.7333975,0.17455646,3.1717331000000004,-0.12541936,-0.30051079999999997,0.09382889999999999
-12.927711500000001,-0.9411128000000001,1.8129566000000004,-0.12276646,-0.32339206,0.061348322999999996
-13.620976999999998,-2.3490279,1.1773917999999999,-0.17386970000000002,-0.30635765,0.026214845
-14.305679999999999,-1.1542255,1.6439643,-0.31759757,-0.2659009,0.011309733999999998
-13.856432999999999,-0.34668043,0.6659136999999999,-0.45706683,-0.29199359999999996,-0.020071287
-11.955867,-0.7567976,0.15743312,-0.5427625,-0.24354324,-0.10576695
-10.431738000000001,-0.72415984,-0.2358959,-0.5326569999999999,-0.014643312,-0.17392206
-9.340748,-0.23024559,-0.32771832,-0.5273338000000001,0.14449582,-0.22394319
-7.9725385,0.02138501,-0.21205923,-0.52731633,0.19346975,-0.240454
-6.905586200000001,0.17048632,-0.100633085,-0.32131509999999996,0.29567623,-0.13079497
-5.914119,0.38843527,-0.09347921,-0.12756611,0.22382103,-0.016877335
-5.3884,0.6396158000000001,-0.34988865,-0.19250982,0.23979078,-0.00996583
-5.397029,1.0368809,-0.5743403,-0.20207421,0.38723620000000003,0.02729695
-5.8340087,1.7238348999999997,-1.0785782,-0.012566371000000002,0.17749998,0.05550147
-6.168747,1.6999502,-0.99930143,-0.21113248,-0.5256757,0.060301125
-5.8160334,0.73746204,-1.0772567,-0.42566836,-0.29890507,0.20614083
-5.602767,-0.9079579,-1.7849348000000003,-0.45919612,0.21156882,0.19338249
-6.767508,-1.1415746,-2.9354925,-0.72162384,0.265866,0.18219492
-9.24385,-0.06666415,-2.913686,-0.8190481,-0.15784758,0.19975293
-12.071891,0.31457895,-1.8897433999999997,-0.7956258,-0.29412287,0.19284143
-11.805733,-0.5166113,-2.401231,-0.5677905,-0.19137534,0.012915436
-11.635100999999999,-0.9143456,-2.3133063,-0.32398546,-0.3180688,-0.17071065
-13.96468,-1.0099890999999999,-1.357723,-0.15631169,-0.24141394,-0.22821926
-14.140920999999999,-0.83710873,-0.75109935,-0.029618237000000002,-0.15891223,-0.25857052
-14.640084,-1.8821009999999998,2.012221,0.04436627,-0.15571828,-0.24790657
-14.189007,-2.5481392999999994,4.365195,0.113568574,-0.21799162,-0.20052087
-11.320139999999999,0.73871654,2.5987720000000003,0.14870206,-0.25418976,-0.17390461
-12.942967,1.6019219999999998,1.3138133,0.25303784,-0.2659009,-0.12918927
-13.452444,0.047740385,0.8828954,0.38027233,-0.33297393,-0.10843731
-11.790744,-0.9139626000000001,1.1919676000000001,0.49951324,-0.24993114,-0.0935322
-11.31516,-1.2093592,1.5153860000000001,0.511748,-0.16688839,-0.08555604
-10.516492,-1.3547255,1.0015424000000002,0.43615779999999993,-0.03754203,0.0070685832999999995
-9.287329,-1.2340386,0.24103865,0.33236304,0.08274606,0.08531169599999999
-8.19834,-1.474177,-0.32307357,0.33075735,0.01834341,0.14226179
-7.17208,-2.0053546000000004,-0.5155578,0.34353316,-0.07161086,0.14599679999999998
-6.306107,-2.3272407000000004,-0.3270192,0.25303784,0.077422805,0.06454228
-5.327893700000001,-2.2062569,-0.42247126,0.24239133,0.3936241,0.0959582
-5.2644663000000005,-1.9531034999999999,-0.22872287,0.3462035,0.5261819000000001,0.17315412
-5.470329799999999,-1.4012975,-0.29060823,0.19715239,0.7364417,0.11618657
-5.954408,-1.0963815000000001,-0.6022758,-0.0035081116999999998,-0.04818854,0.26310837
-6.579725999999999,-0.6522093000000001,-0.8689707,0.26103145,0.08222246,0.33711034
-6.7817965,0.25714687,-1.039208,0.59798473,0.44952700000000007,0.09756391
-7.581163,1.0756860000000001,-1.0233297,0.536776,0.45537385,-0.12547173
-10.123557,-0.053237467999999996,-0.9724098,0.44095743,0.28290042,-0.13398893
-12.0124,-1.3690045,-1.583659,0.40317106,0.14236651,-0.16112879
-11.684279,-0.8408436,-2.1312704,0.5202652,0.05454154,-0.11801916
-9.9830265,1.2846712,-3.1943057,0.36482617,0.020996312000000003,-0.052010812000000003
-11.828066,0.28714138,-3.042695,0.1604132,-0.02263692,0.048572514000000004
-14.813154999999998,-0.4677983,-3.2321532000000004,0.05555383,0.0108908545,0.10182251
-13.008234,-1.7648523,-0.30351773,0.019355701,-0.070005156,0.10873401
-8.756056,-1.091143,6.624985700000001,-0.022148227000000003,-0.1248434,0.112992615
-8.8976,0.055430558,4.6188364,-0.07538077,-0.14346607,0.09009389599999999
-11.32195,-1.2700379,3.2023884999999996,-0.12541936,-0.1839228,0.06562438
-12.287455,-2.6034452999999997,0.86503464,-0.21167353,-0.21746802,0.050178215
-13.563248000000002,-3.3081644,0.9072492,-0.32930872,-0.26909485,0.07572984
-14.289755,-1.2344121000000001,0.9470983000000001,-0.4320388,-0.25047220000000003,0.10234611
-13.332648,-0.15852489,0.37756562,-0.4905946,-0.14240141,0.053895768
-11.693893,-0.13680468,-0.36298013,-0.46397832,-0.03647738,-0.019530235
-10.250641,-0.015016433000000001,-1.0494266,-0.45439646,0.101386175,-0.07597418
-8.964791,0.18855776,-0.93894845,-0.45760787,0.07689921,-0.09459685
-7.6774197,0.51845,-0.7790253,-0.38784707,0.13065535,-0.06105162
-6.7656600000000005,0.41446507,-0.82650715,-0.25050712,0.10458013,-0.022200587999999997
-6.1295204000000005,0.592201,-0.9373587,-0.34953707,0.109362334,-0.095137894
-5.907903,0.7875583,-1.0042527,-0.3820002,0.36754888,-0.07808603
-5.838117,1.147809,-1.1103063,-0.020018926,0.20572196,-0.05359906
-5.650392500000001,1.1635534,-0.9007466000000001,-0.03600614,-0.18498744,-0.045622908
-5.6160026,0.43886676,-0.44965982,-0.39744636,-0.065222956,0.07147123
-5.4509463,-0.6669767,-0.734905,-0.45013785,0.24563764,0.18804178
-6.0797305,-0.98767525,-2.4270022,-0.5619261999999999,0.078487456,0.19497073
-8.476412,-0.47635996,-3.0478475,-0.6822316999999999,-0.042324234,0.20509364
-11.220512,0.15985607,-2.1400332000000004,-0.74504614,-0.020507618999999998,0.17526597
-11.830144,-0.2958563,-2.0089362,-0.57150805,-0.0071907565,0.06562438
-10.996961,-0.65570486,-2.5409086,-0.41606903,-0.08332202,-0.031241393
-14.859287,-1.8129182000000001,-1.0060053,-0.35112533,-0.034348078,-0.07063347
