accx,accy,accz,gyrx,gyry,gyrz
-12.091197,-0.79705846,-0.6914741999999999,-0.06935938400000001,-0.06960373,0.049340457000000004
-13.117524,-1.0991971,1.1889988999999999,-0.022514747,-0.062151175,0.0019547688000000002
-14.441220999999999,-1.9250723,4.4825397,-0.0012217305,-0.060021874,-0.021450097
-12.235375999999999,-0.43481576,2.8331356,0.019530235,-0.09089675,-0.018256145
-9.763095,1.402418,1.7856914000000002,0.047211155,-0.17713347,0.012601277
-9.815786,1.0694995,3.0372841,0.070092425,-0.26389378,0.014730578999999999
-8.876493,1.335141,2.6954114,0.09831439999999998,-0.29211575,0.009930924
-9.467794,0.24823083,2.2886173999999997,0.14301229,-0.27560493,0.013665928
-10.39276,-1.1110245,1.8383926,0.18455112,-0.21120229999999998,0.015795228999999997
-10.247011,-1.938384,1.9165584999999998,0.21861994,-0.19043288,0.012601277
-10.083553,-1.9834429,1.7824831,0.24736552,-0.1531701,0.013665928
-10.001653999999998,-1.4108264,1.6096697,0.2516241,-0.1552994,0.04187045
-9.789392,-0.45413217,1.1857715,0.27024677,-0.106325455,0.07274532
-9.67337,0.14687948,0.57317185,0.31602678,-0.06054547,0.09829694
-9.259402,-0.118972674,0.3062663,0.38683477,0.07197738,0.13716543
-8.827402000000001,-0.6309488,0.5839554,0.46134287,0.20399408,0.15685274
-8.516262,-0.88701344,0.7716512,0.5800602,0.26680848,0.1706932
-8.2324915,-1.0596354,0.785212,0.71740013,0.26947883,0.16484635
-8.012464999999999,-1.1304176000000001,0.34328064,0.8499578999999999,0.24286257,0.1595231
-8.053003,-1.0802254999999998,0.03992571,0.9324595999999999,0.29396582,0.14779449
-8.231447,-0.9445030000000001,-0.41535568,0.91329587,0.29555404,0.087126836
-8.237921,-0.7533882,-0.67722386,0.7509454000000001,0.18802431,0.014189526000000001
-8.096635000000001,-0.624178,-0.6657316999999999,0.46933648,0.14065608,-0.042219516
-8.141511999999999,-0.65113664,-0.5886288000000001,0.2771583,-0.014765485,-0.094387405
-7.8176527,-0.70491046,-0.5036251,0.114807755,-0.65303236,-0.21469295
-7.770544500000001,-0.73235756,-0.7363798,0.021642083,-0.8260294,-0.32009340000000003
-8.0732765,-0.7286226,-0.97375053,-0.021450097,-0.51940995,-0.3376514
-8.940897,-0.92626876,-0.9413043,0.20849703,-0.5625371,-0.299865
-9.756975,-1.2408190000000001,-0.6387634,0.27609363,-0.5204746,-0.33180454
-10.324247999999999,-1.0134368,-0.789579,0.3005806,-0.18617427,-0.24343853
-11.353361999999999,-0.29668948,-1.0420619,0.33093187,0.057613317000000004,-0.16198401
-12.6357155,0.84628326,-1.6099569999999999,0.2718525,0.10019935,-0.094911
-13.002201,1.8952214,-1.9968408,0.25958282,0.091664694,-0.076829396
-13.9103985,2.113314,-0.8909878000000001,0.22073179999999998,0.11562806,-0.05553638
-15.345223,1.9413241,1.0185509,0.16910495,0.118822016,-0.02412045
-14.332592000000002,1.0966115,2.9040613,0.11958996,0.12840387,0.017383479
-11.336248,-0.6715257,3.7589636,0.06583382,0.13585643,0.046670105
-10.072080999999999,1.4980136,4.986059,0.00034906584,0.12681562,0.06583382
-9.074359,1.5360816000000002,4.5595465,-0.050195668,0.04642576,0.08073893
-8.687294,0.5582225000000001,4.2364154,-0.11620402,-0.029147000000000003,0.09030333
-9.163195,0.5758055000000001,2.4317236,-0.21788691,-0.07386234,0.09456194
-9.590205000000001,0.9183296000000001,1.1621933999999998,-0.31902874,-0.08824385,0.11533136
-9.279513,1.2795285,0.8290736999999999,-0.42922879999999997,-0.116448365,0.12650147
-9.17394,1.2985575,0.7305092,-0.51811844,-0.15371114,0.12278391400000001
-8.888225,1.1035354,0.7026886,-0.568157,-0.1574287,0.08232718
-8.811792,1.0046165999999999,0.8902121,-0.58732074,-0.10793116,0.037594393
-8.621501,0.79246163,0.8346379,-0.568157,-0.011047933999999999,-0.0017627826
-8.521022,0.7620551999999999,0.46691722,-0.5308943,0.07942993,-0.052866023
-8.533078,0.988585,0.19859424,-0.51438344,0.26361454,-0.0901288
-8.396417,1.3443921,0.027360937000000002,-0.5213124,0.3381401,-0.11248647
-8.374669,1.3697515,-0.08487924,-0.5692216999999999,0.27851963,-0.13165018
-8.465629,0.92425764,-0.20384233,-0.6517234000000001,0.2231578,-0.14709635
-8.46379,0.75600266,-0.5080113,-0.7257428000000001,0.30832985,-0.1561546
-8.289645,0.74623436,-0.7119111,-0.74649477,0.5968502,-0.14177309
-8.113441,0.7947026,-0.7584831,-0.62831855,1.0221695,-0.104510315
-8.132864,0.7040198000000001,-0.80413574,-0.4590215999999999,0.993965,-0.07735299
-8.065146,0.5689485,-0.6368385,-0.19181168,0.5329712,-0.03317871
-7.938933400000001,0.40162256,-0.35213920000000004,0.26117107,0.19067723,0.07007497
-7.777641,0.047577575,-0.693562,0.47305405,0.36262706,0.08604473
-8.048895,-0.3596187,-1.4447284,0.28832838,0.06771877400000001,-0.06937684
-8.953395,0.11822568,-1.5130876,0.1653525,-0.1563815,0.12330751
-10.1076975,0.7535606,-1.1150851000000002,-0.08267625,-0.27933994,0.3005806
-10.468513,1.0832038999999998,-1.4432822,-0.19767599,-0.22558379999999997,0.2302962
-11.090891000000001,0.9161748,-1.7027084,-0.17636552,-0.1606401,0.019512782
-13.117104000000001,-0.063963495,-1.5324136,-0.059253927000000005,-0.16222836,-0.11248647
-14.628735999999998,-1.9221034,-1.0791241000000003,0.119572505,-0.19577359,-0.17744762
-14.972973999999999,-2.472243,1.2033162,0.19303341,-0.20109683,-0.22642156
-15.290598000000001,-2.5482063,5.083225700000001,0.21219712,-0.23143066,-0.27646014
-12.520430000000001,-0.7918295,3.312876,0.24413666,-0.21865484,-0.26794294
-10.002467,2.2751523999999996,2.4041040000000002,0.22444934,-0.18619172,-0.23439772
-10.486181,1.9933932,2.9960560000000003,0.18718657,-0.0914378,-0.18329448
-9.745330000000001,2.2103558,1.6117669,0.21060888,-0.04139921,-0.1561546
-9.318175,1.5768403,2.1117625,0.27822295,-0.07918559,-0.14231415
-9.728436,-0.79177207,1.861128,0.29258698,-0.07599164,-0.13006194
-9.663122,-1.7380849999999999,1.5107509,0.29258698,0.014486233000000001,-0.099728115
-9.112437,-1.267701,1.6143048,0.31016245,0.048014008,-0.06298893
-8.938551,-0.9380578000000002,1.4166875,0.32452652,0.0352382,-0.018273598000000002
-9.005904,-0.5826529,1.2376491000000003,0.33356732,0.06771877400000001,0.029077185
-9.07729,-0.65168256,1.1035354,0.419263,0.09911725,0.06740461
-8.745953,-0.5296069999999999,0.8901929,0.5209633,0.11988667,0.090826936
-8.505353999999999,-0.43889546,0.55637413,0.5544911,0.11402236,0.09721484
-8.472247,-0.5722621,0.24816379,0.52839845,0.09060004,0.108926
-8.432953,-0.89778733,0.18907489,0.5225516,0.164602,0.12967797
-7.894439,-1.2235423,-0.24539610000000003,0.55820864,0.411601,0.14247122
-7.7849383,-1.2167716,-0.62393856,0.6306049,0.60962605,0.15683529
-8.231975,-0.7698411999999999,-0.89032704,0.68596673,0.5276479000000001,0.12489576
-8.378039999999999,-0.4945559,-1.1777556999999998,0.6268874,0.44512877,0.056758105999999996
-8.02025,-0.67864126,-1.3511628999999998,0.44003242,0.31897637,-0.03584906
-8.117886,-0.70228636,-1.1141368999999999,0.35698965,0.029914944,-0.14018485
-8.361098,-0.6846842,-0.7482934,0.40650463,-0.43851396,-0.27965412
-8.80936,-0.95394576,-0.27300605,0.5193576,-0.63599795,-0.46329764
-9.318567999999999,-1.2203053999999998,0.02446874,0.37561232,-0.48216465,-0.43244022
-9.848884,-0.8306635,-0.13348153,0.6268874,-0.68177795,-0.28019515
-9.935775,-0.31124622,-1.2332531999999998,0.70300114,-0.66847855,-0.32436943
-10.593222,-0.31134197,-2.3933590000000002,0.57046086,-0.4076391,-0.25249678
-11.785055999999999,-0.8984194,-2.9427516,0.41767475,-0.13295919,-0.11304498
-12.675717,-1.4214854,-3.2473803,0.20048597,0.070912726,0.021083577000000003
-12.242961,-1.1213579,-2.9930298,0.056758105999999996,0.14011504,0.1131846
-12.717817,-0.19050184,-0.38882795,-0.019338248,0.14809118,0.16641714
-13.907457999999998,1.5482248,1.7738161,-0.04543092,0.07782423,0.20528562
-12.714609,1.2656708,2.3545825000000002,-0.08749335,0.030979594,0.21485002
-10.35363,-1.4423916,2.5434275,-0.17212437,0.045361105,0.22603759
-9.443277,0.10040324,5.3800297,-0.2631433,0.0389732,0.2409427
-9.198064,1.5262749,3.8527207000000003,-0.3275634,-0.06534512,0.25265387
-10.322256,1.1673266000000002,3.0993803,-0.39196604,-0.18193312,0.24200736
-10.819369,1.306085,2.1127872,-0.48619637,-0.2671052,0.21432643
-10.687363000000001,1.1218655,0.72271377,-0.58253855,-0.26869345,0.19409807
-10.326019,0.97948706,0.42206904,-0.6427,-0.301174,0.17067574
-10.208828,0.67603636,0.15391845,-0.6698399,-0.33098423,0.12969542
-9.777689,0.36651397,0.106599435,-0.6938033,-0.31660274,0.06901032
-9.054517,0.41702205,0.26748979999999994,-0.70551443,-0.35067156,-0.0033684855
-8.418042,0.29690018,0.30200459999999996,-0.6943269,-0.28253388,-0.067788586
-8.063853,0.26336217,0.14121002,-0.66825163,-0.051504667999999997,-0.10131636
-7.9659686,0.66835576,-0.113762885,-0.62618923,0.10976376,-0.113568574
-8.100743,1.0309337,-0.1343243,-0.5958554,0.24445081,-0.10292207
-8.204460000000001,1.0217017,-0.16655025,-0.5686981,0.2795843,-0.062465332
-8.270807000000001,0.5686325,-0.48480672,-0.53729963,0.25296799999999997,-0.07152359
-8.281878,0.28537926,-0.8081771,-0.49577823,0.277455,-0.07789405
-8.2250595,0.21337126,-1.1329171999999998,-0.3296927,0.33068752,-0.03265511
-8.3667,0.24997382,-1.2908386,-0.04223697,0.46270424,0.037070792000000005
-8.486419999999999,0.44021708,-1.0118854,0.15151203,0.49410272,0.070598565
-8.091472999999999,0.35388216,-0.7951623000000001,0.35698965,0.49197340000000006,0.09402089
-7.729259,0.33645236,-1.1481825,0.33836700000000003,0.3179117,0.08124508
-8.041875,-0.019230228000000002,-1.2570516,0.22710223,0.33653438,0.12969542
-8.796747,-0.47540227,-1.284154,-0.009756391,-0.14199999,0.179734
-10.066564999999999,-0.17669210000000002,-1.2122705,-0.17797123,-0.5290093000000001,0.33730233
-10.163377,0.22979549,-1.6330563,-0.27911305,-0.38793433,0.426733
-10.604695,0.3104226,-1.5716306,-0.2950828,-0.20055579,0.33569664
-12.091791,-0.22489215,-0.21759462,-0.25197318,-0.163293,0.1653525
-13.011251,-1.3018425,0.15733735,-0.17318901,-0.1563815,0.016824974
-12.632458999999999,-1.8428457999999999,0.037426163,-0.08641125,-0.15744615,-0.10292207
-12.707561,-1.3120608,1.6176089,-0.06885324,-0.17341591,-0.17905332
-13.093488,-0.5826241999999999,2.7564921,-0.06885324,-0.12922418,-0.21097539999999998
-13.378685,-0.13236105,2.898344,-0.07417649,-0.08237954,-0.19500564
-12.66301,0.75538975,2.2566118,-0.11676253,-0.10208431,-0.14444345
-11.085155,0.7868975,3.7673721,-0.16414821,-0.17341591,-0.09227556
-9.300535,1.1204385000000001,3.4895775,-0.17903587,-0.22610740000000001,-0.053407077000000004
-9.732918,0.5977364000000001,3.0147595000000003,-0.1540253,-0.2867925,-0.008691739
-10.608966,-1.1911728000000001,2.1560650000000003,-0.123691484,-0.23197171,0.027471482999999998
-10.264872,-1.5414541000000002,1.6453912,-0.09121091,-0.16383405,0.06527531
-9.437647,-1.582347,1.6448932,-0.040631264,-0.13667673,0.089762285
-8.995428,-1.5712476,1.6098229,-0.0017802357999999999,-0.09089675,0.11691961
-8.77585,-1.3295481000000002,1.275372,0.034924038,-0.034470253,0.15364133
-8.776013,-0.6037123000000001,0.9062245000000001,0.09775589400000001,0.073565625,0.18664551
-8.739172,0.1934898,0.37463509999999994,0.20580922,0.23593360000000002,0.21806143
-8.210637,0.32247025,0.306544,0.33941418,0.44193482,0.23401375
-7.913957000000001,-0.38700834,0.6033101,0.4959353,0.5180661,0.22923154
-7.8149809999999995,-1.1317488000000002,0.84141827,0.6614798000000001,0.43767622,0.20954423
-7.6257334000000006,-1.4114969,0.6647453000000001,0.78923786,0.43608797,0.19038051
-7.881319500000001,-1.3050888999999999,0.32618603,0.83288854,0.6319836999999999,0.15151203
-8.090257000000001,-1.1181976,-0.05509537,0.79669046,0.792746,0.07752752
-8.209593,-1.03441,-0.44464156,0.6614798000000001,0.8853706,-0.008691739
-8.0956,-0.9895427,-0.58466405,0.36124825,0.74270743,-0.07363544400000001
-7.901890299999999,-1.2073385,-0.37936607,0.12011356,0.2902308,-0.10398672
-7.7546277,-1.2489688,-0.34083855,0.0061959187,-0.6418623,-0.17425367
-7.6963143,-1.0959219,-0.9502491,-0.0023038345,-1.30034,-0.26155505
-8.096223,-1.2425332,-1.4099455,-0.031049407999999997,-0.7099999,-0.30307642
-9.175539,-1.5184601999999998,-0.8732324,0.30429816,-0.6828426,-0.15294321
-10.1006775,-1.6660962,-0.24747425,0.69715434,-0.7616268,-0.14496705
-10.0289755,-1.2718958,-1.0411137,0.69876003,-0.6253515000000001,-0.1604132
-10.728581,-0.8632055000000001,-1.6859297999999998,0.6417925,-0.28307495,-0.10505137
-12.579605,0.26836127,-2.1072613999999996,0.48474774,-0.13774139,-0.001256637
-13.488156,1.5223292,-2.9166932,0.31440362,-0.11325441,0.046652652
-13.552437,1.6184995,-2.3357639999999997,0.16376424,-0.022235493999999998,0.1020145
-14.679646,1.2717521,0.34792540000000005,0.046111599999999996,-0.052045718,0.14992379
-14.82596,1.4301908,2.7690284,-0.07044149,0.010751228,0.19038051
-11.226364,-0.9078716999999998,2.9226882,-0.1604132,0.06239552,0.23722515
-10.506561,-0.38850233,6.281686,-0.25303784,0.08527679,0.26968828
-9.979989999999999,1.3313293,5.0988164000000005,-0.3387335,0.05333726,0.29578096
-9.581547,0.8062043000000001,3.8245072,-0.3972893,-0.052045718,0.29951596
-9.607261,0.5554739000000001,2.9862493999999997,-0.44200462,-0.1627694,0.28406978
-10.361166,1.4102423000000002,1.0772184,-0.5213124,-0.18777998,0.24415411
-10.014266000000001,1.6603214,0.37936607,-0.6150017,-0.20533799,0.18718657
-9.793922,1.5914162,0.024966735,-0.6698399,-0.24794148,0.115854956
-9.483251,1.3555873999999999,0.027609933,-0.6623874,-0.25911158,0.03333579
-9.099882000000001,1.328849,0.050421886,-0.6549348,-0.25326473,-0.052883476
-8.669022,1.2044271,0.29900706,-0.67196923,-0.12550662,-0.12845623
-8.020269,0.91788906,0.23817518,-0.7480829999999999,0.009162978,-0.17317156
-7.714289999999999,0.89739466,0.10024044,-0.8604124,0.060789815999999997,-0.21469295
-7.696688000000001,1.2484422,-0.06276639,-0.9775065999999999,0.08901179,-0.21149899
-7.747971499999999,1.4965483999999998,-0.02984133,-1.0424503,-0.041922808,-0.19978784
-7.769682400000001,1.2637171999999999,-0.18161456,-1.0344741,-0.022235493999999998,-0.19127063
-7.930888700000001,0.81349224,-0.55759037,-0.97433007,0.23219859999999998,-0.14177309
-7.941299000000001,0.5590844,-0.7364852,-0.8146324,0.5372298000000001,-0.07895869999999999
-7.969205400000001,0.4611424,-0.80453795,-0.60222584,0.7176794,-0.031049407999999997
-7.9990570000000005,0.46501145,-0.6748105,-0.30572933,0.69373345,-0.025726152999999998
-7.9017177,0.36502957,-0.8425196,0.049323004000000004,0.5143485,0.004607669
-8.061143,0.54321563,-1.1152191,0.38575268,0.33227578,0.08923868
-8.454664,0.9891405000000001,-1.0731195,0.43844417,0.50474924,0.055693455
-9.541526,1.3207183,-1.0039462,0.15898204,0.21942279,-0.05979498
-10.69622,1.1542447,-0.46537533,0.07326892,-0.049375363,0.088715084
-10.4224,0.21228908,-0.5030218,-0.015062191499999999,-0.27295205,0.26598817
-10.2224655,-0.49329174,-0.355108,0.021118484,-0.25005332,0.19996238
-11.819024,-0.8326745999999999,0.10216537,0.15685274,-0.11803662,0.027488936000000002
-13.051981,-1.2775365,0.09616072,0.34794885,-0.0025307273,-0.09599311
-13.536032,-1.0510832,1.0765576000000001,0.44537312,0.04909611,-0.18542378
-14.204320000000001,-1.2377735,3.1171165000000003,0.46933648,0.070912726,-0.23917992
-14.21856,-2.0955682,5.0486054000000005,0.430468,0.03790855,-0.23865633
-11.127253999999999,0.012555193999999999,2.6023057,0.38149408,-0.03021165,-0.21097539999999998
-9.416203999999999,2.4189672000000004,2.3935695,0.3511428,-0.07864454,-0.18275343
-9.675533999999999,2.160183,2.582472,0.30538025,-0.08929104,-0.16091935
-9.415754,1.0851096000000002,2.2436732999999998,0.24041910000000002,-0.1483879,-0.14709635
-9.782144,-0.48208690000000004,2.9805702999999997,0.18613936,-0.115383714,-0.148161
-10.043828999999999,-1.1959517,3.0466695,0.14833553,-0.0014660766,-0.11568042
-9.750789,-1.8509095000000002,2.4383414,0.09723229,0.045361105,-0.059253927000000005
-9.293343,-1.2449083,1.8888718999999998,0.07274532,0.06558947,-0.020926498
-9.253627999999999,-0.6947686,1.4290512,0.05625196,0.09913469999999999,0.004066617
-9.3191805,-0.45024398,0.94965535,0.043458696,0.16407839999999999,0.026965337000000002
-9.153052,-0.25257870000000004,0.6085678000000001,0.09245009,0.19388862,0.05518731
-8.88448,-0.29765674,0.6034921,0.21540853,0.23647466,0.07806858
-8.634784,-0.35874718,0.36040395,0.40652209999999994,0.2726728,0.11266100400000001
-8.484303,-0.4315022,0.23726538,0.6519154,0.22795746,0.12545426
-8.353810000000001,-0.32764173,0.37497032,0.87283915,0.13852678,0.09829694
-8.428903,-0.44415313,-0.1618576,0.89626145,0.38339648,0.047717302999999996
-8.568417,-0.6443180000000001,-0.6562028,0.76318014,0.81297433,0.008342674
-8.536977,-0.40232167,-0.9851757,0.6072175,0.8800474,-0.07468264
-8.1645155,-0.3966905,-1.1036598999999998,0.3288026,0.7272787,-0.16304865
-7.7712727,-0.60643214,-1.0572795,0.022706734,0.5979149,-0.21416935
-7.543928,-1.0081697,-0.90869534,-0.24502677,0.37753215,-0.27111945
-7.5203505,-1.5153860000000001,-0.74413705,-0.3738495,-0.37568212,-0.37545523
-7.974157000000001,-1.9206287,-0.49230534,-0.2812249,-1.1560712,-0.53141785
-8.79919,-2.4684985,0.18339585,-0.2945243,-0.70359457,-0.54686403
-9.768717,-2.7313533,0.88271344,-0.2514147,-0.44062582,-0.16889551
-9.877088,-1.8508519,-0.7021428000000001,0.124913216,-0.21333160000000004,-0.09492846
-10.001088000000001,-0.22473893,-2.6436105,0.16112879,-0.004118977,-0.06723008
-11.318139,0.42743203,-3.6836898000000002,0.18135716,0.19973548,0.03176499
-12.488271000000001,0.5661713,-4.1859264,0.16697565,0.29503044,0.12597786
-12.121939999999999,0.13536817,-4.013056,0.1552645,0.2226342,0.19891517
-12.196083,-0.28489083,-2.8038497000000002,0.1776396,0.15821409,0.22446679999999997
-13.686511999999999,0.7107427,0.123703614,0.20477948,0.06665412,0.23724261
-14.761373999999998,2.0158412,2.6204057,0.25853562,-0.05841617,0.22340214
-11.422794,0.18369274,1.7944924999999998,0.26918212,-0.16435766,0.18561576
-9.328461,-0.90445274,5.9421697,0.23724261,-0.17126916,0.15899949
-9.376536,0.3105854,5.866579499999999,0.19786797,-0.13400638,0.14994124
-10.400986999999999,0.5362916,3.7650642,0.13716543,-0.1574287,0.14994124
-11.201685000000001,0.6249824,2.7672565,0.045622908,-0.22823670000000001,0.15154694
-11.219479,0.109252214,1.4790419,-0.060301125,-0.29157472,0.14620623
-10.649869,0.10468408,0.88992476,-0.16409585,-0.30754447,0.12758356
-9.842324000000001,0.32890585,0.42757568,-0.26258478,-0.27401668,0.08447394
-9.459578,0.33009338,-0.043172244000000005,-0.34402186,-0.22769566,0.034435347000000005
-9.205782000000001,0.20002118,0.046016555,-0.4079009,-0.19469148,-0.034749504
-8.616348,0.2415558,-0.07442136,-0.45582765,-0.13135348,-0.11301007
-8.185086,0.33404857,-0.07703584,-0.5101074000000001,0.08049458,-0.15931365
-8.106269000000001,0.38026628,-0.1995232,-0.58463293,0.30087729999999996,-0.158249
-8.229388,0.56128705,-0.59316826,-0.6953566,0.35623914,-0.16357225
-8.335258999999999,0.69557303,-0.97957325,-0.7597767,0.19069467,-0.15505505
-8.411425,0.78706986,-1.2003857,-0.7496538,0.10126399999999999,-0.14599679999999998
-8.197019000000001,0.68859154,-1.3178549,-0.7815933,0.28277823,-0.12791517
-7.951431299999999,0.45588472,-1.594682,-0.761365,0.57929224,-0.06190683
-7.868860000000001,0.14552917,-1.7895125,-0.59527946,0.8097979000000001,-0.02994985
-7.659271700000001,0.1448492,-1.814393,-0.43558183,0.62826616,-0.06455973
-7.495949,0.40511808,-1.2446305,-0.17421876,0.40310124,-0.034208454
-7.5209537,0.24515668,-1.1173452,0.08395033,0.28173104,0.01633628
-8.025584,0.027552472,-1.6597563000000002,0.10311405,0.17633061,0.106308006
-9.3666725,0.15658079,-2.11001,-0.033684853,-0.03551745,0.19945623
-10.801508,0.32180944,-1.6304226000000002,-0.33285174,-0.20107938,0.33892548
-10.585953,-0.027265169,-1.7017603,-0.39512509999999995,-0.07332128,0.41825070000000003
-10.438011,-0.04341167,-2.5012705000000004,-0.31101766,-0.03338815,0.31391492
-11.874455000000001,-0.09330683,-2.269981,-0.15397294,-0.09300859,0.15847589
-12.949739,-0.57517344,-2.4995275,0.019530235,-0.11164871,0.016877335
-13.157182999999998,-1.1113023000000002,-1.7105613999999998,0.18668042,-0.117513016,-0.07787659
-13.048208,-2.0234834999999998,0.8427973,0.328279,-0.17392206,-0.1481261
-12.979801,-2.1665132000000002,2.8505077,0.4246386,-0.25802946,-0.18964748
-12.7026,-1.0119524,3.782925,0.4938409000000001,-0.31977922,-0.18273596
-11.263809,1.4020733,2.5846270000000002,0.5220629,-0.37088245,-0.14653784
-10.003377,2.6972787,2.7003436,0.48373544,-0.3586477,-0.109275065
-9.686088,3.0634289,2.4366174,0.45605454,-0.3714235,-0.07307693
-9.703249000000001,1.0378481,2.1106993999999997,0.44060838,-0.37727037,-0.042184606
-10.831771,-1.4798465,1.851982,0.42359140000000006,-0.24153611,-0.0336674
-10.073556,-2.0817966,1.3867886999999999,0.47680649999999997,-0.07438593,-0.010786135
-9.461857,-2.1886259999999997,1.24804,0.5066167,-0.07278023,0.04988151
-9.089003,-1.6397026000000001,0.76073366,0.4970523,-0.0339292,0.11801916
-9.102295,-1.1540053,0.42702022,0.51248103,0.036320303,0.17018706
-9.139635,-0.8216709000000001,0.3358969,0.5390973000000001,0.13213888,0.19786797
-8.894498,-1.007413,0.006569689,0.5827479999999999,0.33922220000000003,0.17657496
-8.650222,-0.82259977,-0.2780913,0.6487563000000001,0.47017425,0.0999201
-8.667067999999999,-0.851426,-0.35072184,0.73073447,0.41107740000000004,0.014748032
-8.501427,-0.8347528000000001,-0.1833288,0.7472278,0.31367058,-0.031014499999999997
-7.836356599999999,-0.65315735,-0.099493444,0.72221726,0.65435886,-0.09328785
-7.8434715,-0.85176116,-0.32890585,0.7110297,0.80712754,-0.09276425
-8.292116,-0.6468654,-0.8953644000000001,0.79780746,0.48027970000000003,-0.07838274
-8.150542,-0.781975,-1.0882508999999998,0.77279687,0.30248302,-0.14919074
-8.023017999999999,-0.92885447,-1.0111384,0.5103517,0.70439744,-0.18113028
-7.7774205,-0.757784,-0.7482647,0.12814207,0.77572906,-0.17954202
-7.617603,-0.8863813,-0.8108491,-0.030997047000000003,0.06773623,-0.19549432
-8.028199,-1.2026937,-1.4964335,-0.07731809,-0.93994707,-0.3040887
-9.525675999999999,-1.6764392,-1.4827386,-0.061871924,-0.83986986,-0.5585403
-10.323136,-1.5630401000000003,-1.7378744,0.07012733,-0.53963834,-0.44729298
-10.085699,-1.8523268,-3.3692260000000003,0.52099824,-0.45233697,-0.26630235
-9.953463000000001,-1.9132832,-4.1739845,0.56784284,-0.24951227,-0.32538173
-10.210581,-1.9771317,-3.0953581000000003,0.5119574,0.09594075,-0.25511476
-10.887297,-0.73924327,-2.1033638,0.35119516,0.35997415,-0.16728981
-10.86684,-0.23078189999999998,-2.8693357,0.09993755,0.46165705,-0.061871924
-11.738857000000001,-0.36445495,-3.0593779999999997,-0.15981979999999998,0.6357187,0.096202545
-13.685792999999999,0.7888129,-1.9467925,-0.37168533,0.63838905,0.22130775
-15.796781,2.3719740000000002,0.28504407,-0.5228657,0.4781504,0.2798461
-12.489152,1.3353995,1.6136537,-0.5808979000000001,0.12203342,0.24418901
-9.299712,-1.3636607,4.742799,-0.56119317,-0.2681524,0.18243927
-8.753345,-0.47833276,5.6320434,-0.5888741,-0.39749873,0.13027138
-9.325435,0.36602554,3.9117904,-0.6394536999999999,-0.35171875,0.13185963
-10.213339,1.21319,3.140819,-0.71609116,-0.4118628,0.1574287
-10.2550745,1.1461905000000001,1.2967091999999998,-0.7879638000000001,-0.46031314,0.18030997
-10.145064999999999,0.75450873,0.22501665,-0.8316145,-0.42146212,0.16805775
-10.617939,0.8577466999999999,-0.36360264,-0.86088365,-0.43210859999999995,0.1010022
-10.723754,0.6659136999999999,-0.84623533,-0.81510365,-0.44381976,-0.012374383999999999
-10.622173,0.55803096,-1.4078097,-0.7102443,-0.5811597,-0.11032226
-9.792955000000001,0.8933533000000001,-1.6499019,-0.57555723,-0.39482838,-0.16088445
-8.57082,0.841016,-1.621181,-0.55054665,0.0011868239,-0.19814722
-7.73941,0.49191270000000004,-1.1547618,-0.61123174,-0.03499385,-0.22317526
-7.952053500000001,0.43334094,-1.0405775,-0.67830473,-0.21437879,-0.21359339999999996
-8.280012,0.6574861,-1.3922378999999998,-0.7996749,-0.16966346,-0.17313667
-8.308302000000001,0.68500024,-1.432221,-0.9998292999999999,0.049637165,-0.22369885
-8.137288,0.33763990000000005,-1.3968825,-1.1637856000000002,0.27269024,-0.28864256
-8.02999,-0.24694754,-1.6038088,-1.2872851,0.26949629999999997,-0.2375393
-8.029510499999999,-0.6313797,-1.6659238,-1.2505458999999999,0.42491785,-0.05602507
-8.39771,-0.97366434,-0.9669511000000001,-1.1318461000000002,0.47495645,0.07065093
-7.701007400000001,-0.9103424999999999,-0.8067023,-0.91465724,0.44462264,0.11271336
-7.419775,-0.7076303,-2.088874,-0.61601394,0.40043090000000003,0.21172589
-8.489991999999999,-0.8408245000000001,-2.157013,-0.47548005,0.24446827,0.357042
-9.781913000000001,-1.0384514,-1.2886073999999998,-0.3615624,0.21306979999999998,0.5066342
-10.072857,-0.38478652,-1.208459,-0.47708574,-0.07384488,0.55293775
-9.8857155,0.0372442,-2.4626472,-0.48240900000000003,-0.24205971,0.46724209999999994
-9.911507,0.23023601,-3.2965765,-0.3179117,-0.15369369,0.29848620000000003
-10.950428,-0.049023673,-2.7882586,-0.11773991,-0.04881686,0.10951941
-11.794249,-1.2479154,-2.062509,0.030735249,-0.041905355,-0.016632987
-11.171546000000001,-1.5863789,-2.1272290000000003,0.16116370000000002,-0.044558257000000004,-0.10604621
-10.705605499999999,-1.0046836,-0.8927690999999999,0.23410101,-0.17605136,-0.14437364
-11.55935,-1.1503661,0.77129686,0.26017624,-0.26387632,-0.16140805
-12.434526,-1.1657082,1.9926366000000002,0.24792401,-0.3554363,-0.15343189
-13.645925,-1.2065915,2.6791596,0.2202431,-0.4677657,-0.110845864
-13.113569,0.211159,2.4017482000000006,0.16116370000000002,-0.48425904,-0.043772858
-11.6055,1.081461,3.234394,0.10473721,-0.4012163,0.004642576
-10.543529,0.33271742,3.4493742,0.07386234,-0.37620570000000003,0.031799898
-10.40044,-1.1898896,3.0237331000000003,0.08131489,-0.3234968,0.040858157
-10.443488,-1.7527471999999997,2.08602,0.07119198,-0.24151866,0.041905355
-10.411301,-1.5019593,1.2688407,0.07120943,-0.121213116,0.071733035
-10.01823,-0.90437615,0.5754511999999999,0.10634291,-0.052010812000000003,0.1010022
-9.709494,-0.61435217,0.32057405,0.17715092,0.035273105,0.107390106
-9.597023,-0.3212923,0.12868355,0.27454029999999996,0.08370599,0.12974778
-9.197163,-0.33834857,0.173752,0.42945573,0.23116885,0.15210545
-8.631528,-0.28711268,0.11273817,0.6461209,0.4185474,0.14624114
-8.165952,-0.45505154,0.05534437,0.9426349,0.40310124,0.11857767
-8.046836,-0.7358148,-0.14834474,1.2093211000000001,0.32964033,0.06906268
-7.8860793000000005,-0.75065887,-0.16365805,1.3429434999999998,0.27481955,-0.00010471976000000001
-7.959561999999999,-0.63628304,-0.37374450000000004,1.3855121000000001,0.23542747,-0.04803146
-7.8671265,-0.7070748,-0.95512366,1.4164045,0.30995303,-0.057072267
-7.795023,-0.9501821,-1.1821898000000002,1.4829364999999999,0.19442968,-0.08794714
-7.707615400000001,-1.0787123,-1.3339343000000001,1.4951887,0.14067353,-0.18641862
-7.8206506,-1.3357921,-1.000489,1.2806528,0.17474237,-0.27000242
-7.4095564,-1.635891,-0.9857982,0.9596693000000001,0.017174039,-0.26733208
-7.618091000000001,-1.9183971999999998,-1.3224133,0.86917394,0.01823869,-0.33653438
-8.49685,-1.9955288,-1.0438911,0.8707621999999999,-0.4571192,-0.45631632
-9.495969,-1.9539272,-1.1150563999999998,0.8015599,-0.27345818,-0.6000441999999999
-10.499272999999999,-1.8735203,-1.8138759999999998,0.61950463,0.12522738,-0.42757076
-10.576673,-1.4335426000000002,-2.7756939999999997,0.31714377,0.10979866,-0.19228293
-10.211998,-1.398118,-3.4790242,0.6716725,0.30515337,-0.121474914
-11.111547,-1.6133472,-3.0745955,1.2370021,0.2998301,-0.17737779999999997
-12.584106,-1.2348430000000001,-2.9059383999999997,0.7084117,-0.4677657,0.15957545
-12.680621,-0.9251004,-3.8688576,0.28733355,-0.50076985,0.30969122
-11.682115,-0.286155,-2.5296369,-0.019792033,-0.12281882,0.34960690000000005
-11.326499,1.2325829,0.09336429,-0.2247286,-0.071174525,0.35866517
-12.674799,1.7409294999999998,2.4213327999999996,-0.33972833,-0.15528195,0.33841935
-11.584689,1.9992830000000001,2.7028909,-0.26146778,-0.23938936,0.31340876
-9.775296,0.9458915999999999,2.8920999,-0.19226547,-0.18402752,0.27349308
-10.018499,3.127852,4.4476895,-0.19919443,-0.19999728,0.25165904
-9.596956,2.5033772,4.611500299999999,-0.21781708,-0.23886576,0.25113544
-11.169344,-1.3406093000000001,-0.42730755,-0.25933847,-0.24684192,0.21120229999999998
-12.915512,0.12675862,-0.58615804,-0.29714229999999997,-0.31232667,0.18299778
-10.393987,1.3778057,-0.4183628,-0.35037485,-0.25270623,0.14412929
-9.7906275,2.1777754000000002,0.20062453,-0.37538540000000004,-0.21650809,0.09089675
-9.660958,2.0157933,-1.0297271000000001,-0.36313320000000004,-0.3117856,0.024364796
-9.58737,1.1830708,-0.7909868,-0.37432078,-0.28091073,-0.06026622
-9.033553,0.14463852,0.2355703,-0.42435935,-0.1664695,-0.12573352
-8.278106,-0.5491916,0.09896672,-0.49780280000000005,-0.07543313,-0.16884315
-8.15466,-0.47006800000000004,-0.12645216,-0.60215604,-0.03338815,-0.20505874
-8.254336,-0.07298484400000001,-0.36636075,-0.6878517,0.032079153,-0.19545943
-8.159659,0.73441654,-0.88539493,-0.69636893,0.16144295,-0.16725489999999998
-7.9586806,0.903543,-1.1656313999999999,-0.6766816,0.2955715,-0.12625712
-7.894995,0.512838,-1.48316,-0.6495243,0.45368087,-0.070912726
-8.264631,-0.17939274,-1.7620271,-0.5425356,0.80927426,0.008918633
-7.7758694,-0.5559814999999999,-1.5787174,-0.39081413,0.8087331999999999,0.028099801
-7.1741776,-0.32969117,-1.3273838,-0.15872024,0.5085191,0.0951728
-7.120480499999999,0.048276685,-1.3988746,0.09730211,0.038990654,0.27827528
-7.3844457,0.6225595,-1.6673316999999999,0.10423106,0.083182395,0.3528183
-8.070097,0.80375266,-1.4886284,-0.31202996,0.2700199,0.18139207
-9.121947,0.6244844,-1.1616284,-0.5686108,-0.041905355,0.36772340000000003
-10.155380000000001,0.27852228,-1.3978211999999999,-0.7586596999999999,-0.20532054,0.51143384
-10.779031,-0.5461174,-1.9775436000000002,-0.7331081,-0.10204939999999998,0.46673596
-11.2981415,-1.000106,-1.8602085,-0.60374427,-0.17657496,0.29213320000000004
-12.5689745,-0.7684525999999999,-1.7182898999999998,-0.4131718,-0.22396065,0.1499936
-13.336594,-0.15912822,-1.5836016000000002,-0.18640116,-0.1728574,0.028623400000000004
-14.729416,-0.8090678000000001,0.35372895,-0.01870993,-0.27665213,-0.06557202
-15.985318,-2.3008661,3.1789157,0.086132,-0.29846877,-0.12306316
-12.992192999999999,-0.7454395,3.001831,0.17502162,-0.27825785,-0.15128514
-10.129589999999999,1.6862363,1.7802805,0.21121974,-0.3469191,-0.15022048
-11.286382000000001,1.9747279999999998,2.965487,0.19952604,-0.34585443,-0.12199851
-10.214354,1.8065209,2.3937516,0.14522885,-0.3192382,-0.07941248
-9.672948,0.0010726022999999999,2.4415302000000003,0.06538004,-0.3117856,-0.0373675
-10.7294235,-1.7669879000000002,2.0091949000000002,0.040352013,-0.27504644,-0.0022340214000000002
-10.4799185,-2.4872882,1.778461,0.036110863,-0.19148007,0.054192472
-9.961086,-2.9059863,1.579589,0.03822271,-0.12760103,0.09037315
-9.504425,-1.8437556,1.165143,0.06750934,-0.024853487999999996,0.09836676
-8.901182,-0.98764646,0.79562193,0.081873395,0.045919612,0.106883965
-8.526844,-0.7951814,0.34289756,0.122871175,0.1523847,0.13936454
-8.305984,-0.5776441999999999,0.18163371,0.18462093,0.25778514,0.17660987
-8.175222,-0.2562179,0.21385968,0.30119148,0.27481955,0.19737929
-8.243457000000001,-0.17768808,0.09307699,0.47314129999999993,0.28494245,0.2122844
-8.231917,-0.3432136,-0.04786488,0.6072873000000001,0.17900097,0.22506021
-8.2878065,-0.6234214,-0.15696387,0.65200263,0.26630235,0.21973695
-8.356415,-0.76744694,-0.42618704,0.6125931,0.6022084,0.17660987
-8.18794,-0.9696325000000001,-0.60254395,0.55672514,0.6825808000000001,0.105819315
-8.017358,-0.9017617,-0.8431421,0.44865432,0.44996333,-0.01870993
-7.850185000000001,-0.87902635,-1.1015818000000002,0.18675023,0.24181537,-0.11506956
-7.424860000000001,-1.2214546999999998,-1.1600386,-0.12091641,-0.12812462,-0.22155209
-7.164753999999999,-1.4279879999999998,-1.1197777,-0.24708626,-0.7743677,-0.43446480000000004
-7.2895207,-1.3703835,-1.0150458,-0.27317894,-1.087375,-0.6585825
-8.178363000000001,-1.5417223,-0.61471605,-0.20024163,-0.41345105,-0.5116607
-9.490079,-1.6695151000000001,0.16451997,0.34644786,-0.16751671,-0.23963371
-9.786788,-1.2495818,-0.30748254,0.5370204000000001,-0.089273594,-0.14913839
-9.606608999999999,-0.5057607,-2.1720486,0.32780772,-0.015812684,-0.09964084599999999
-10.482955,0.010524911000000001,-3.2459533,0.18833847,0.17154841,-0.07250097400000001
-12.416742,0.45443863,-3.0380886,0.14362314,0.19497073,-0.02617994
-13.582813,0.44351152,-3.0947547,0.13671164,0.18699458,-0.01712168
-14.107316,0.7987727,-2.1632187000000003,0.10051351,0.16196655,-0.008080875
-15.060763,2.4236887,0.7163930000000001,0.10157816,0.057107173,0.019058995
-14.763759,2.3799992000000003,2.9765580000000003,0.10637782,-0.016877335,0.059515726
-10.196588499999999,-1.8873874,3.9135237000000003,0.05099852,-0.0072954763,0.105819315
-9.760988000000001,-1.7040874,7.8068023,-0.06874852,0.00013962633999999998,0.11807153
-10.463705000000001,0.90846545,4.58097,-0.15179129,-0.08182103,0.1468171
-10.242137,2.254208,2.5657032,-0.18425441,-0.12173671,0.17928022
-10.415084,2.3537972000000003,2.0073273,-0.23162265,-0.14037684,0.2160194
-10.418953,1.2828516,1.3971316,-0.31627113,-0.1648638,0.21443115
-9.98656,1.1140603,0.82041633,-0.40891320000000003,-0.2255489,0.16385151
-9.903022,1.0088879000000002,0.42039309999999996,-0.51270795,-0.2718525,0.08719665
-9.64395,0.7782305,0.28102183,-0.5803045,-0.2633353,0.019058995
-9.095189,0.7160770000000001,0.29887298,-0.66921157,-0.16006415,-0.055990162999999996
-8.604348,0.68119824,0.06661627,-0.774612,-0.05146976,-0.13262758
-8.257822,0.7499597,-0.4290505,-0.8810771000000001,-0.13079497,-0.21888174
-8.042478,0.9104287,-0.44708365,-0.9699667,-0.25748843,-0.26518533
-7.985361999999999,1.0010923,-0.23872107,-1.0498155,-0.12386601400000001,-0.2337694
-8.0741005,1.0740676000000002,-0.39555085,-1.0940073000000001,0.08744099999999999,-0.20078267
-8.065749,0.9462364,-0.9557462,-1.0785611000000002,0.15931365,-0.1730843
-8.011161999999999,0.9242097,-1.5469799,-1.063656,0.3035651,-0.14755014
-7.9203925,0.82441944,-1.6506201,-0.91514593,0.5372647,-0.09271189
-7.783798700000001,0.6564326,-1.4935222,-0.59788,0.86304784,-0.025638886
-7.660085700000001,0.51226336,-1.6413977,-0.37535050000000003,0.7911752,-0.06503097
-7.7362595,0.5200015,-2.129671,-0.17201965,0.54258794,-0.051190507
-8.290642,0.8353656999999999,-1.7652544999999997,-0.06394886,0.29611257,0.004694935999999999
-8.977145,0.9049603999999999,-0.72764575,-0.09164724,0.11725122,0.0909142
-9.368435,0.88402545,-0.30585450000000003,-0.037873644,0.26417303,0.22080160000000001
-10.307822999999999,0.4783998,-0.6567295999999999,-0.18851301,0.05497787,0.30173249999999996
-10.546688,-0.07956411,-1.2270571000000001,-0.28166124,-0.06850417,0.36826447
-10.005666,-0.16679925,-1.6731161,-0.24068089999999998,-0.0046251225,0.37039378
-11.002295,-0.29009107,-0.72334576,-0.057560957999999995,0.036878806,0.22081906
-12.139052000000001,-1.1963538999999999,-1.1503756,0.18409733,-0.00036651915,0.0813498
-11.951252,-1.089697,-2.2076933,0.43216097,-0.09937905,0.003630285
-12.004077,-0.48237416,-1.3785813,0.61208695,-0.11163126,-0.088453285
-11.894528,-0.5762173,0.19240762,0.7510151999999999,-0.10843731,-0.14222687
-11.831254,-1.075667,2.8593664,0.8303404000000001,-0.16060519,-0.15817920000000002
-11.314979,-0.79278725,3.8347259,0.81649995,-0.286234,-0.10494665
-10.530877,0.049148175999999995,2.7678792000000003,0.7196167,-0.325085,-0.08045968
-10.282559,1.1172686,2.8593759999999997,0.6701017,-0.40173990000000004,-0.025097834
-10.420858,1.1373991,2.4382071,0.67755425,-0.45551348,-0.010192723
-10.989051,-0.43303448,2.0471573,0.70525265,-0.40280452,-0.019250982
-11.422171,-1.8590115000000003,1.7204830000000002,0.79946554,-0.2558827,-0.028291788
-10.885219000000001,-2.2154602999999997,1.3084695,0.8990190999999998,-0.16484635,-0.0027401668
-10.104747,-1.8073255000000001,1.456144,0.9431934000000001,-0.13929473,0.046739917
-9.958730000000001,-1.2267411,1.1204002,0.93149966,-0.069027774,0.09838421
-9.973612,-0.6615850000000001,0.6279321,0.92937034,0.050195668,0.13938199
-9.584756,-0.39309920000000004,0.3549069,0.9485165999999999,0.23916246,0.16865116
-8.880123,-0.13057019,0.29050288,0.94640476,0.38449603,0.17290977
-8.588068,-0.12793656,0.28887478,0.9075363000000001,0.49734902,0.18249163
-7.992429700000001,-0.5503791,0.27478734,0.90060735,0.5053252,0.15746361
-7.7091475,-0.93309706,0.579799,0.9165771,0.31262338,0.11967722
-7.668120399999999,-1.2513343000000001,0.38135803,0.93682295,0.3009122,0.11861257
-7.915566,-1.3437027,-0.19215862,0.98152083,0.41908845,0.11061897
-7.9375253,-1.1351773,-0.6916561,0.99057907,0.36105627,0.040893063
-7.78693,-0.8125729,-0.95878196,0.90273666,0.29665359999999996,-0.103340946
-7.604597599999999,-0.85455763,-0.99147725,0.72706926,0.22745131,-0.25825638
-7.5139146,-0.6091615,-1.0115694,0.5200034,0.008674286,-0.3535339
-7.6948977,-0.65258276,-1.2720968000000001,0.37414622,-0.48956487,-0.5286776999999999
-7.990044999999999,-0.74236536,-1.6466458,0.26129323,-0.8212123,-0.7208384
-8.973133,-0.76030266,-1.9196613999999999,0.16866861,-0.40386918,-0.69102824
-10.224534,-0.60890293,-1.7801465,0.3315602,-0.21010274,-0.33651695
-10.200928,-0.56042516,-1.8024412,0.54288465,-0.33999014,-0.170955
-10.15175,-0.90387815,-2.0981443,0.50457466,-0.06583382,-0.12782791
-11.283998,-1.1587074,-1.9754174999999998,0.37521088,0.17475982,-0.03413864
-12.273511,-0.65946853,-2.5899134,0.16866861,0.16250761,0.055798177000000004
-11.905014999999999,-0.24892993,-3.2615540000000003,-0.06871361,0.23118632,0.13353515
-12.628342,0.6569881,-1.8604288,-0.32637656,0.22905701,0.19261454
-13.601632,2.494902,-0.04102704,-0.5121494000000001,0.18592992,0.25808182
-14.243708999999999,3.3825953,1.8607543999999998,-0.62182593,0.06297148,0.30440290000000003
-10.448526,-0.48339888,2.1539865000000002,-0.70591587,-0.06424557,0.31717870000000004
-9.64485,-1.2212631999999999,5.2761216,-0.75330156,-0.10416125,0.31876692
-9.929329,0.5874413,4.267377400000001,-0.7527604999999999,-0.111090206,0.3283488
-10.299061,1.1585254999999999,2.9777071,-0.7352025,-0.046670105,0.31185544
-11.085709,1.6369156999999999,1.4933403,-0.72774994,-0.05466371,0.2676637
-10.789565,1.5944617,0.5780751999999999,-0.7117627,-0.13983577,0.20273745
-10.50548,1.6640563999999998,-0.29470706,-0.6947283000000001,-0.22713715,0.13034119
-10.271039,1.5150412,-0.7034835,-0.6707824,-0.26705283,0.056862827000000005
-9.9139,1.2604322000000001,-0.6198971,-0.63990754,-0.22446679999999997,-0.016563175
-9.460583,1.1257823999999998,-0.646626,-0.629261,-0.23352505,-0.102276295
-8.922787,1.1508065,-0.5790521,-0.61754984,-0.165911,-0.16989034
-8.443975,1.1958941,-0.2812708,-0.5733756,0.059236474000000004,-0.18851301
-8.194548,0.9185211,0.15262556,-0.5701816,0.18699458,-0.21247639
-8.089068,0.6990973,0.24761792,-0.62128484,0.19125319,-0.24122195
-8.221622,0.72159326,-0.12877932,-0.6510951,0.12524483,-0.23961625
-8.262438000000001,0.5630875,-0.46789405,-0.611703,0.14175564,-0.2385516
-8.241178,0.3067164,-0.6697156999999999,-0.53185415,0.29400072,-0.26356217
-8.128219999999999,0.086804174,-0.89219445,-0.5052205,0.5053252,-0.31785935
-8.121678,-0.11591767,-1.3052995,-0.49033279999999996,0.59688514,-0.32745868
-8.166938,-0.078194626,-1.3673095,-0.44027674,0.58517396,-0.26729718
-8.015405,-0.29369193,-0.9953941999999999,-0.41100758,0.43027600000000005,-0.21458822
-7.9539595,-0.24948539999999997,-1.1636491000000002,-0.3045425,0.20296434,-0.06979571
-8.442022,0.09731951,-1.5111914,-0.20659462,0.07307693,0.09147271
-9.232664,0.27992046,-1.5241201000000002,-0.1746551,0.18860027,0.17451547
-10.079321,0.29654583,-0.8888809000000001,-0.21989404,0.33498105,0.23307127
-10.149059,-0.22562,-0.6357564,-0.43549454,0.13962634,0.19634955
-9.736241,-0.69711494,-1.36028,-0.54782397,-0.06211627,0.25171140000000003
-9.831809,-0.41259757,-1.9740577000000001,-0.59730405,-0.15632914,0.27461009999999997
-11.080039999999999,-0.21576546,-2.375364,-0.51958454,-0.07382743,0.16973327
-12.129908,-0.23996605,-2.8941302,-0.3199712,-0.09831439999999998,0.061662484000000004
-12.028862,-0.28126124,-3.4270315000000005,-0.1288751,-0.13344787,-0.03626794
-12.096043,-0.5132880999999999,-0.9273126,0.033475414,-0.22766075,-0.10759955
-11.896884,-1.1312985,0.9724290000000001,0.17027432,-0.24043655,-0.1741315
-12.169057,-1.1486326,3.0045697999999996,0.27302185,-0.24097762,-0.21991149
-11.40184,0.10240479599999999,1.8070668,0.3784223,-0.32934362,-0.22842869
-10.869676,0.9767481,1.3615728999999999,0.42472586,-0.38629369999999996,-0.21512929
-11.031868,1.1145296,2.0740297,0.447101,-0.44964918,-0.1826487
-10.368541,0.9783378,2.2443151,0.47050586,-0.45869,-0.13899802
-10.345881,-0.5799139,2.074547,0.49340457,-0.43100905,-0.087371185
-10.793119,-1.6379691,1.3513832000000001,0.50724506,-0.37032396,-0.03837979
-10.674558,-2.077717,0.6875573,0.49979250000000003,-0.31496212,0.0063006384
-10.1566925,-1.7208371999999998,0.5894908,0.47424087,-0.27450538,0.05688028
-9.471884,-1.3031926999999999,0.60056156,0.43591344,-0.16058774,0.12447688
-9.3083315,-1.2177101000000001,0.49019843,0.41994366,-0.044540804,0.17079791
-9.125902,-1.1587266,0.28039932,0.43271947,0.13110913,0.19900244
-8.782123,-1.0103148000000002,-0.00017238251,0.41568506,0.28707176,0.20860176
-8.397432,-0.85606116,-0.03621948,0.39173916,0.34510395,0.22031291
-8.065653999999999,-1.0338450000000001,0.09938810000000001,0.39865065,0.37065557,0.21977186
-8.0361185,-1.05093,0.064930744,0.50033355,0.38821357,0.18463838
-8.107361000000001,-1.0013796,-0.32754597,0.6004107,0.52928853,0.11704178
-8.246492,-0.9565601999999999,-0.91138643,0.6238156,0.6304304000000001,0.030787607999999998
-8.249184,-0.9057744000000001,-1.2750944,0.5684712,0.59849083,-0.104929194
-8.158903,-0.5962041,-1.3889913999999999,0.41887903,0.48616147,-0.24439846
-7.7949944,-0.5899696,-1.2563908000000001,0.22511257,0.25726154,-0.3588397
-7.5942929999999995,-0.6500161999999999,-1.1631893,0.19530234,-0.049864057,-0.48926815
-7.6034293,-0.7460141,-1.456278,0.23734732,-0.5774073000000001,-0.6175673
-7.673493400000001,-1.0579882,-1.9962950000000002,0.38268090000000005,-0.19997983,-0.63193136
-8.56812,-0.99613154,-1.6643054,0.60945153,-0.014730578999999999,-0.36950365
-9.49436,-0.85495025,-0.8604857,0.9309761000000001,-0.44113198,-0.33967596
-9.812608,-1.1528943,-1.4243872,0.9437519,-0.5529203,-0.37002724
-9.9581175,-1.433284,-2.6955264,0.7691491,-0.28782225,-0.3045425
-11.283259,-1.3308026000000002,-3.0142138,0.5876349000000001,-0.033353243,-0.19594811
-12.74197,-0.8491276,-3.2175293,0.31934288,0.11779227,-0.06447246
-13.074324,-0.7747541,-2.8457767999999994,0.032934364,0.24076816,0.07337364
-14.243958,-0.5404863,-0.03335602,-0.17997836,0.16783085,0.17877407
-15.13825,-0.54754436,2.5814571,-0.31784192,0.120462626,0.19795524
-11.215015,-1.2137548999999999,2.6752236000000003,-0.40034363,0.061365776,0.1511106
-10.472947,-1.0035249,4.1674047,-0.46849874,-0.01314233,0.15482816
-10.39435,2.1502326000000003,3.8475970999999998,-0.5632351999999999,-0.06316347,0.1511106
-9.678139,1.5576965,2.5611349999999997,-0.6047566,-0.05677556,0.16814502
-9.610555999999999,0.6788807,2.132372,-0.6201853,-0.09032079,0.18463838
-10.386076,0.80584997,1.125792,-0.6202026999999999,-0.15632914,0.19315559
-10.723686,0.45915043,-0.20964587,-0.62072635,-0.16112879,0.19741419
-10.98772,0.5278257,-1.2058349,-0.63297856,-0.21968459,0.18943803
-10.983122999999999,0.48680827,-1.4957824,-0.6436251000000001,-0.32506758,0.16282177
-10.534439,0.20675367,-1.1789815000000001,-0.6734353,-0.35009559999999995,0.11756538
-9.572957,0.10298898,-1.0040038,-0.7447494,-0.3128328,0.07126179
-8.856573,0.09193735,-1.0132549000000002,-0.8182278000000001,-0.18081611,0.040910516
-8.185373,0.24726358,-0.52884084,-0.81503385,-0.13130112,-0.0048520155
-7.922864,0.57427317,-0.086440265,-0.7639305999999999,-0.02963569,-0.047438048
-7.766216,0.85308284,-0.04464707,-0.7846826,0.20457004,-0.045291292999999996
-7.507987,0.8151012,-0.027973852999999996,-0.8491027,0.23757422,-0.016039576
-7.3567976999999996,0.47116932,-0.4091116,-0.9369450999999999,0.13802063,-0.0037873646000000003
-7.7263856,0.056665964000000006,-0.94950205,-0.9656732,0.18381807,0.01802925
-8.00644,-0.016519992,-1.2614857,-0.84323835,0.34084535,0.04145157
-8.117991,0.09367075,-1.4978796,-0.5866574999999999,0.57187456,0.05581563
-8.224888,0.22507411,-1.7463212,-0.3678805,0.5069309000000001,0.08775515
-8.191369,0.24534822,-2.305559,-0.046355944,0.3695909,0.15269886
-8.315339999999999,0.18443015,-1.8583218999999997,0.15538666,0.3504272,0.1984963
-8.483931,-0.35029086,-1.2740216999999998,0.09576622,0.26153758,0.08030259599999999
-9.154354,-0.93667877,-1.7364092,-0.22254694,-0.17442821,0.09681341
-10.364825,-0.33170226,-1.9394183,-0.36147514,-0.40119883,0.26342255
-10.606648,0.2757833,-2.1712057999999996,-0.43174209999999996,-0.18240435,0.38959240000000006
-10.509922999999999,0.46693638,-2.0454624,-0.3774449,-0.091909036,0.31026718
-11.195066,0.10471281,-1.3850168999999999,-0.26619762,-0.18720402,0.12822933
-12.055638,-1.1779281000000001,-1.0462853,-0.07562511400000001,-0.14781193,-0.004834562
-12.5012665,-2.3922193,-0.44539812,0.094701566,-0.123848565,-0.07829547
-13.414664000000002,-2.681506,1.6384863999999997,0.20490165,-0.06370452,-0.13100441
-14.45846,-2.6351828999999998,2.199984,0.31241393,-0.040282197,-0.19062486
-12.967542,-0.25994328,0.018301276000000002,0.42739624,-0.124913216,-0.21191788
-11.819877,1.0004315000000001,1.2282636999999998,0.47052330000000003,-0.102031946,-0.22149974
-10.331048,1.1970913,3.3459256,0.4465774,-0.023771385,-0.21298252
-8.904860000000001,0.56922626,3.1031918999999997,0.3736401,-0.074874625,-0.12620476
-9.459185,0.10101616,2.1921117000000003,0.30763173,-0.25586528,-0.04209734
-10.049557,-0.74764216,1.7375009,0.26984537,-0.29738665,0.02974041
-10.027127,-1.9721134999999999,1.6087694,0.25919884,-0.20582668,0.0819083
-9.825842,-2.5880457999999997,1.0830315000000001,0.24588199,-0.12917182,0.11597713
-9.267427,-2.4768112,0.8940906999999999,0.21713641,-0.07648033,0.1463284
-9.216202000000001,-2.3522456000000003,0.6493171,0.18521434,0.045413468,0.17666222
-8.766589999999999,-1.735624,0.45983997,0.20968385,0.19711748,0.19104373
-8.165999000000001,-0.94864976,0.23379858,0.2799508,0.37864918,0.20273745
-8.357919,-0.2714546,-0.40858490000000003,0.40025637,0.5138598,0.23415338
-8.815298,-0.017717093,-0.9607357,0.6445850000000001,0.41804126,0.27886869999999997
-8.684804,-0.42981670000000005,-0.7523731,0.9118298,0.36320302,0.28099802
-8.548689,-0.7572764,-0.41385216,1.029465,0.6687578000000001,0.2660929
-8.37871,-0.90852296,-0.5223956,0.9581334,0.90404564,0.1425934
-8.29611,-0.9229839,-0.9793339,0.8112116,0.7991863,-0.0027052604
-8.127462,-0.7348859000000001,-1.2225177,0.5764648,0.5404760999999999,-0.057526052
-7.614299000000001,-0.57337296,-1.171732,0.20277235,0.26525515,-0.09161233
-7.160089999999999,-0.77120113,-1.2719915000000002,-0.07988372,-0.010995574,-0.09320058
-6.9950147,-1.0139923,-1.4587584999999998,-0.16557938,-0.36658895,-0.15974998
-7.8305526,-1.4433876,-1.6217747999999998,-0.12725195,-0.90956086,-0.25822145
-9.175032,-1.8348779999999998,-1.1241828999999999,0.0047472958,-0.93352425,-0.30986574
-10.051874,-2.1044364,-0.74173325,0.06117379,-0.6827903000000001,-0.2981546
-10.363887,-1.9039266,-1.5411572,0.14528121,-0.65671504,-0.22149974
-10.241753,-0.85777545,-2.7788637,0.17828538,-0.55077356,-0.16453218
-11.625133,0.1322557,-2.9668565,0.14580481,-0.35116026,-0.096935585
-12.888678,0.9640301,-3.4777023999999996,0.07553785,-0.16271704,-0.005899213
-12.43577,0.85018104,-4.2451305,-0.06709046,-0.10681415,0.10107201
-12.779233,0.23012109,-2.811492,-0.23584634,-0.113743104,0.18997909
-12.9699745,-0.11598471,-0.8447414000000001,-0.40032616,-0.14887658,0.23256512
-12.791607,-0.7816207,1.518192,-0.46848127,-0.20104447,0.24534093
-12.035518,0.15688725,3.5446253,-0.41577232,-0.20156808,0.24214698
-10.33843,1.1153819999999999,3.3364925000000003,-0.3156777,-0.25640630000000003,0.22033036
-9.797178,1.1345738,3.7367358,-0.26778588,-0.27928758,0.1968906
-9.718697,0.46844949999999996,3.05458,-0.24649285,-0.20636773,0.1984963
-10.038332,-0.16987339999999998,2.6048722,-0.19751891,-0.19678587,0.20648989999999998
-10.596708,0.13688129999999998,1.3513353000000001,-0.18954276,-0.2356369,0.21340140000000002
-10.869983,0.61361474,0.20842004,-0.21401227,-0.26705283,0.19530234
-10.59532,0.8064629,-0.3433381,-0.25713935,-0.24469516,0.15378097
-9.906574,0.9237405000000001,-0.57277924,-0.29599038,-0.21275564,0.093636915
-9.200515,0.9904142,-0.11187626,-0.31304225,-0.18879226,0.021764256000000003
-8.679882000000001,0.79933774,0.32994014,-0.33538246,-0.23298400000000002,-0.0522028
-8.141693,0.38311055,0.34071404,-0.37318629999999997,-0.14514159,-0.121946156
-7.7176423,0.26135105,0.43353248,-0.39554396,0.03954916,-0.14910348
-7.82677,0.26436773,0.61899686,-0.4434358,0.11407472,-0.17837265
-7.9949574000000005,0.5316085,0.2415558,-0.5216964,0.18008307,-0.19327776
-8.272695,0.8600164,-0.17122373,-0.6068859000000001,0.23172736,-0.1895602
-8.317572,0.7992994000000001,-0.33283234,-0.6840643,0.29454178,-0.1879545
-8.276354,0.3415185,-0.63037413,-0.7372969,0.36800268,-0.19540706
-8.220395,-0.094264515,-0.8598153000000001,-0.7255683,0.51118946,-0.17037904
-8.3725815,-0.29947633,-1.1728907,-0.6058038,0.726249,-0.110758595
-8.38527,-0.15275006,-1.2630851,-0.48656288,0.5952969,-0.07616617
-8.170893,0.054195147,-1.2395453,-0.3423114,0.43240532,-0.046355944
-8.08453,0.31817985,-1.4185357,-0.18846065,0.17795376,0.04998623
-8.308464,0.21189642,-1.4264941,0.037227873,0.071488686,0.25066417
-8.906689,0.16467320000000002,-1.3922952,0.21502456,-0.013124876,0.45933574
-9.666311,0.22080286,-1.4331212,-0.17994344,-0.31176817,0.3385066
-9.934414,0.1550868,-1.762707,-0.47165778,-0.012601277,0.37522835
-9.998080999999999,0.126931,-2.1849291,-0.5371425,0.052866023,0.3784223
-11.006433,-0.04620809,-1.8458816000000002,-0.42214277,-0.024836035,0.1915848
-12.615478999999999,-1.1835879999999999,-1.7522205000000002,-0.19326031,-0.13716543,0.035604715
-12.628389,-1.7357387999999998,-1.1686386,0.088872164,-0.077003926,-0.08040732
-12.505519,-1.4665157,0.7863708,0.31297243,-0.08180358,-0.17570229
-13.301198000000001,-0.6158749,3.210136,0.43008402,-0.165911,-0.20285963
-14.174860999999998,-0.78277946,5.781154,0.45190066,-0.25853562,-0.20392427
-12.990822999999999,-0.59045804,3.9224589999999995,0.44073054,-0.30164525,-0.16612044
-8.610325,2.5628683999999997,1.7229153999999998,0.39760345,-0.28035223,-0.11768755
-8.538967999999999,3.5593543,2.6000552000000003,0.299132,-0.28195795,-0.036233034
-10.452424,2.415194,2.0528748,0.22834143,-0.29206340000000003,0.0036651914
-12.166825,-0.9742485000000001,1.8994639,0.18786724,-0.20050342,0.005253441
-11.1468,-2.35486,1.7606192999999999,0.11655309,-0.13343042,0.030281462000000002
-9.612873,-2.2758038,1.7940136000000002,0.054803338,-0.07061602,0.0744732
-9.380137,-1.3235626,0.9888435999999999,0.006876597,0.07522369,0.107459925
-9.151692,-0.81942034,0.34419042,0.047350783,0.17264797,0.16070992
-8.949995,-0.57518303,0.09238746,0.15379842,-0.013124876,0.23150048
-8.637725,-0.37203020000000003,0.034897886,0.3768515,-0.06316347,0.2565285
-8.561463999999999,-0.45397896,-0.11347558,0.54771924,0.08319984400000001,0.29272664
-8.493048,-0.40082768,-0.3885598,0.62704444,0.13484414,0.31295500000000004
-8.117187,-0.25537515,-0.19598936,0.6456670999999999,0.2807013,0.25172883
-7.9945936,-0.45000458,-0.4773751,0.6030985,0.48192029999999997,0.1441991
-8.133925999999999,-0.56860375,-0.8118546,0.57648224,0.66291094,0.059044488
-8.052936,-0.3985484,-1.0339791999999999,0.6052278,0.5282239000000001,0.020176006
-7.667766,-0.6083666,-0.9145276,0.6068335,0.20245819,-0.041556288
-7.5450106,-0.9628713,-1.3584412000000001,0.46895249999999994,0.011868238,-0.17570229
-7.684899000000001,-0.5626661000000001,-1.0985748,0.18095574,-0.19463912,-0.30079004
-7.7975607,-0.8385165000000001,-0.38844484,0.04415683,-0.49008846,-0.36946875
-8.958519,-1.6386396,0.072075054,-0.08730136599999999,-1.252902,-0.6335022
-9.86663,-2.0286932,0.2105078,-0.06761405599999999,-1.0170906,-0.8879537000000001
-9.634698,-1.1721629,-0.50592357,-0.0031939526,-0.21167353,-0.70483375
-9.376777,-0.2332527,-1.6837654,0.48918090000000003,-0.3985285,-0.38650316
-9.465351,-0.20276973,-2.4694848,0.81920516,-0.4155629,-0.1922131
-10.550222,-0.3936642,-2.391252,0.80431753,-0.26385888,-0.13524556
-12.147222,-0.35086548,-1.9232046999999999,0.6856002,0.0028274334000000004,-0.08361872
-12.394974000000001,-0.16211618,-2.290849,0.48438123,0.11302752,0.021240657000000003
-12.6584215,-0.36562333,-2.0370633999999996,0.2613456,0.26420793,0.10588913
-13.085357,1.073991,-0.30532777,0.04680973,0.37919024,0.15006341
-14.289151,3.0365946,1.8609267,-0.06974336,0.3690673,0.16709782
-12.449743,3.040301,2.7720547000000004,-0.09796533,0.34670967,0.16655678
-9.907647,-0.9714617,4.1407814,-0.1272345,0.3344749,0.16709782
-10.731243,-0.7206547,6.121648,-0.1969604,0.08215265,0.21235421
-10.649821000000001,0.23224714,4.772496,-0.2778913,-0.12543681,0.23897047
-9.61588,-0.16414647,3.2117546000000003,-0.34229398,-0.21434389,0.26930429999999994
-9.057524,0.9097584000000001,2.5599380000000003,-0.41629595,-0.26970574,0.2730393
-9.715661,1.7424905,1.3154798,-0.5083795,-0.28354618,0.24109977
-9.563553,1.7409486,0.6865899999999999,-0.59835124,-0.26970574,0.17722073
-9.527371,1.5671103000000002,0.19287689,-0.6547776999999999,-0.27129397,0.109606676
-9.392396000000002,1.4111617,0.23135649,-0.7053399,-0.20369738,0.04733333
-9.169074,1.2797678999999997,0.07675811,-0.7745422,-0.18346901,-0.02719223
-9.206693,1.1125184,-0.16294937,-0.86290824,-0.10149089,-0.11128219
-9.0567665,0.87081903,-0.921739,-0.90975285,0.14070845,-0.15760323
-8.546678,0.80994886,-0.7564911,-0.91507614,0.40526545,-0.15440927
-8.159353,0.8981225,-0.64046806,-0.92732835,0.49682543,-0.15388568
-8.055551,0.8945408000000001,-0.25152525,-0.833098,0.27803096,-0.18528415
-8.044719,0.72756916,-0.14674541,-0.7340855,0.081611596,-0.2454282
-7.9758806,0.48309243,-0.29576054,-0.8181929,-0.006736971,-0.27471483
-7.901928999999999,0.26682898,-0.47225150000000005,-0.93530446,0.15294321,-0.24916321
-7.9584603000000005,0.27894366,-0.9480751000000001,-0.98427844,0.40793579999999996,-0.15653858
-7.9770970000000005,0.39592436,-1.2623763000000001,-0.8890009,0.5527283000000001,-0.06604326
-7.907311,0.41541314,-1.12923,-0.64571947,0.6251246,0.069690995
-8.038733500000001,0.13630669,-1.1355603,-0.37742746,0.24982643,0.18784979
-8.212121,0.029774291,-1.7537624,-0.13840461,0.16784832,0.30976105
-8.6052685,0.20809443,-1.9797939999999998,-0.27096236,0.17104226,0.28155652
-9.98318,0.28806075,-0.70866454,-0.42161918,-0.19624482,0.32679546
-10.55843,-0.35156459999999995,-0.9496745000000001,-0.38062140000000005,-0.07061602,0.48755774
-10.438375,-0.38653907,-2.2289827,-0.24328144,-0.013648475,0.43486625
-11.316423,0.5656541,-2.1104982000000003,0.0052883476,-0.008866273000000001,0.16870353
-12.383444,0.6217741999999999,-1.9460741999999998,0.3433237,0.027314402,-0.026651177999999998
-12.431835000000001,-0.44506294,-0.8904419,0.58712876,-0.0008726646000000001,-0.11873475
-12.611514999999999,-1.8404037,0.9182530000000001,0.76918405,-0.07539822,-0.19060741
-13.593943,-2.830885,3.2140912999999998,0.9368578000000002,-0.23722515,-0.236911
-12.2303295,-1.8968686000000001,3.7802144999999996,1.0470579,-0.34529594,-0.23904029999999998
-10.591576,0.4818762,2.3615067,1.0741978,-0.38362336,-0.19751891
-10.784461,1.4237742,3.6710198,1.0119244,-0.3681772,-0.12938125
-10.410985,1.5711038999999998,2.989793,0.9198409,-0.38575268,-0.093724184
-10.424584,0.70937324,2.7468581000000003,0.8506210999999999,-0.36658895,-0.086795226
-10.595913000000001,-1.1700655,2.851092,0.8250695,-0.3032335,-0.07827802
-10.385626,-2.1338274,2.5245037,0.8271988000000001,-0.20689133,-0.021868976000000002
-10.247988000000001,-2.0099418,1.7694396000000001,0.8266752,-0.15685274,0.04733333
-10.242366,-1.7408622999999999,1.4601661,0.8048411,-0.14885913,0.101630524
-10.178048,-1.3909642,1.0401753,0.78143626,-0.12065461,0.13569935
-9.71342,-0.9639726000000001,0.7486477,0.8085760999999999,-0.013124876,0.18413223
-9.342222,-0.42536345,0.57277924,0.8692612,0.18753563,0.21926571
-8.945053999999999,0.0044053313,0.34635478,0.89428926,0.36747909999999995,0.22458896
-8.501610000000001,0.11865664,0.42317992,0.8527679,0.46755624,0.21502456
-8.085966,-0.25014618,0.6306039999999999,0.8192226,0.43348742,0.20490165
-7.8925815,-0.74685687,0.6295218,0.84477425,0.25514970000000003,0.2086192
-8.017252000000001,-1.2124525,0.16632998,0.8729962,0.27324873,0.2086192
-8.209373,-0.7876349,-0.45020568,0.9347285,0.30518827,0.18200293
-8.057399,-0.24301147,-0.8887564,0.92408204,0.12580334,0.10056587
-7.6544929999999995,-0.40733033,-0.9285097,0.7053050000000001,0.034766957,-0.02719223
-7.452901,-0.7080804,-0.66767585,0.3475823,-0.050387654000000004,-0.15015067
-7.4954796,-0.70057213,-0.5735741,0.11016518,-0.3639186,-0.24862215
-7.654924,-0.49987102,-0.9899162,-0.17620844,-1.1294024999999999,-0.4748692
-7.7788,-0.5320299,-1.4586722,-0.35239944,-0.7738092,-0.6196617
-8.610536999999999,-0.54583967,-1.6009165,-0.46739918,-0.25745353,-0.42854816
-10.256712,-0.27361897,-1.2399284,-0.059096847,-0.29206340000000003,-0.19219565
-10.129128999999999,-0.23731329,-1.7144305,0.30073768,-0.5715255,-0.15919147
-10.737938,-0.4201345,-1.5639788000000001,0.45511204,-0.5039289,-0.22574088
-11.794144000000001,-0.13371138,-1.6873566999999998,0.49398053,-0.27396435,-0.23638739
-11.776302000000001,0.6422398,-2.2235525000000003,0.40294418,0.0076270886,-0.11021754
-11.820098,0.7662786,-1.9150645,0.22195353,0.08906415,0.029757863
-13.340042,1.4283712,-0.7562709,0.08461356,0.27485445,0.11014773
-15.423886999999999,3.1340005,0.39522526,-0.019181168000000002,0.29506537,0.15165167
-12.819628999999999,2.6592207,0.5340026999999999,-0.047926743,0.26260224,0.16922712
-10.418905,-1.2601451000000001,3.4730482000000005,-0.039950587,0.2599319,0.16603318
-10.489132000000001,-0.40072232,5.144201,-0.052708942,0.23013912,0.19425514
-9.950724000000001,0.7329034000000001,4.8157163,-0.11391764,0.14336134,0.2043606
-8.865278,0.85947055,4.101238700000001,-0.16877334,0.035831608,0.22511257
-8.552299,-0.105814144,3.7843614000000003,-0.22998203,-0.11267845,0.20542525
-9.765517,0.9843329,2.6132712000000002,-0.31782445,-0.13768902,0.16123351
-9.630811,1.6305568000000001,1.564582,-0.41256094,-0.11639601,0.11812388
-9.77587,1.8795824,0.92973554,-0.48495720000000003,-0.11533136,0.0776846
-9.713612,1.8718635,0.5211507000000001,-0.50892055,-0.18612191,0.028693212000000003
-9.5052395,1.6212958999999998,0.69503677,-0.5094442,-0.18346901,-0.035691983999999996
-9.254959,1.0816618999999998,0.67219603,-0.5168967000000001,-0.13875368,-0.12938125
-9.2464075,0.44675803,0.47618756,-0.5365840000000001,-0.065816365,-0.20923007
-8.9567175,0.38385758,0.021155167000000002,-0.53393114,0.105574965,-0.24010494
-8.778675999999999,0.7910251,-0.27171317,-0.5781054,0.3451214,-0.24223424
-8.317514,1.0870155000000001,-0.29260975,-0.67074746,0.31477013,-0.24916321
-8.109621,1.1772481000000001,-0.26961586,-0.7638957,0.018256145,-0.24757496
-8.081742,0.97927636,-0.47757619999999995,-0.8607789,0.11409217,-0.20125392
-8.185939,0.48441404,-0.80842614,-0.9416924000000001,0.40633009999999997,-0.15386823
-8.162475,-0.09957963,-0.95839894,-0.92572266,0.6528055,-0.08785988
-7.8191853,-0.15565184,-1.0613304,-0.7442084,0.95675457,0.020176006
-7.825323599999999,-0.080177024,-1.0852053999999998,-0.5797111,0.8955459000000001,0.06117379
-7.878264,-0.09159258,-0.96879935,-0.43493605,0.6373593000000001,0.1335526
-7.6724396,0.21140799999999998,-0.74281543,-0.27309167,0.34245107,0.22938862
-7.664911999999999,0.5195035,-1.232353,-0.1948311,0.28550094,0.33053046
-9.3291025,0.8360744000000001,-1.2877836999999999,-0.13575171,0.40845940000000003,0.33585370000000003
-10.638741,0.8773408000000001,-0.7362553000000001,-0.30717796,0.004415683,0.25598744
-10.188842,0.6256528,-1.2673947,-0.52221996,-0.15098843,0.3816337
-9.741605,0.22536142,-2.2280154,-0.6403962,-0.00832522,0.45135959999999997
-10.939241,0.08426632,-1.9776776000000003,-0.5706703000000001,0.023055799999999998,0.26556929999999995
-12.494496,-0.7484562,-1.8565502,-0.38329175,-0.025900686000000003,0.069690995
-12.797697,-1.1133803,-1.8786151000000002,-0.14322172,-0.006213371999999999,-0.036774087999999996
-12.740131,-0.7035026,-0.21697214,0.08035496,-0.11426671,-0.110758595
-12.695369,-0.5697626,2.1624334,0.25176373,-0.18133971,-0.21242402
-12.881179,-0.8157810999999999,4.3036923,0.34225908,-0.21380283,-0.26300368
-11.809228,0.10169611,3.1170402000000004,0.37843975,-0.29260445,-0.26726228
-11.18095,1.4057412,2.3144555,0.39175659999999995,-0.40545744,-0.21031217
-10.405669999999999,1.6380553,3.029642,0.37632790000000005,-0.40969858,-0.16716763
-10.212161,1.884208,2.8202738999999997,0.34225908,-0.4416380999999999,-0.14908603
-10.941253,0.07298484400000001,2.3794727000000004,0.32255429999999996,-0.48689449999999995,-0.13205162
-11.5089655,-1.7976911,1.9371868000000003,0.3135135,-0.28248155,-0.10011209
-11.159948,-2.6058874,1.2958856,0.3305479,-0.024294984,-0.0591143
-10.132778,-2.2088522999999998,1.034276,0.33747685,0.027314402,-0.012269665
-9.566828,-1.4097443,0.8196405999999999,0.36620498,-0.028029988,0.018046705
-9.348218,-0.98228353,0.57271224,0.4173082,-0.024836035,0.047856927
-9.0664015,-0.8735963,0.21801601,0.5104739,0.031573005,0.098419115
-8.662787,-0.77998304,0.2856091,0.62439156,0.18168877,0.15006341
-8.111718,-0.5008766,0.10323798,0.73192126,0.43668140000000005,0.15751596
-8.138821,-0.51588345,-0.19149783,0.86500263,0.47394416,0.16870353
-7.877575,-0.8402786,-0.029314606,1.0220474,0.38770744,0.15805702
-7.5393796,-0.8102649000000001,0.18153796,1.1082841,0.4606273,0.133029
-7.7650375,-0.6303454000000001,-0.27868509999999996,1.1402236000000001,0.620866,0.10695378
-8.135172,-0.4497747,-1.0356646999999999,1.1434001,0.6591934,0.0824668
-8.159678,-0.47549805,-1.3742622,1.0114007999999999,0.6102195,0.012199851999999999
-7.976876700000001,-0.9512355,-1.159646,0.73724455,0.3909014,-0.06070255
-7.862203999999999,-1.2720777,-0.8633683000000001,0.5333551999999999,-0.051975905999999995,-0.12831661
-7.762241400000001,-1.0686280000000001,-0.2751225,0.50089204,-0.6790553,-0.2842967
-7.917567299999999,-1.0926850000000001,-0.46471453,0.55518925,-0.9659873999999999,-0.49136254
-9.092767,-1.3178165000000002,-0.59380037,0.49131018,-0.48528879999999996,-0.63189644
-10.100486,-1.2037663,-0.75123346,0.7462853,-0.42353904,-0.37905059999999996
-10.071860000000001,-0.6698976,-1.7832014999999999,0.9549569,-0.5262866,-0.2432989
-10.222217,-0.5830264000000001,-2.5159516,0.88842493,-0.35328954,-0.20338322
-11.145133999999999,-0.6142564,-2.6214112999999997,0.74735,-0.13397147,-0.12672836
-12.338719000000001,-0.75642407,-3.0768842999999997,0.56157714,0.11568042,0.027628561
-12.509149,-0.74053615,-3.6593745,0.34119442,0.16997762,0.14899875
-12.740542999999999,0.20635146,-1.9242294999999998,0.19107865,0.28921852,0.2043606
-13.635553,2.257148,0.52595824,0.1357168,0.32063442,0.24588199
-13.2878,3.1181414000000003,1.6070744,0.1421047,0.13751449,0.25813420000000004
-10.623524,0.11158895,2.030235,0.10855948,-0.14460053,0.20755455
-10.284428,-0.8723992,4.8388443,0.04415683,-0.23776620000000004,0.17400932
-9.826647,0.6261795,4.348876000000001,-0.07665486,-0.2510656,0.17242108
-9.411022,0.85286254,3.2080195,-0.21505947,-0.25480062,0.1953198
-9.7037945,1.2124525,2.5677717,-0.3385764,-0.24202481,0.22671826
-10.584287,1.5042578000000002,1.2988256999999999,-0.49506265,-0.2271197,0.22300072
-10.502577,1.4021499,0.5070345,-0.6382669,-0.19943877,0.21661282
-10.333423,0.9941013000000001,0.12886551,-0.7404734000000001,-0.1776047,0.2043606
-10.316807,0.4454843,-0.09183200000000001,-0.8064816999999999,-0.17814575,0.17455038
-10.157611,0.23427743,-0.49704584,-0.8847423000000001,-0.15950564,0.14421655
-9.446102,0.60323346,-0.68099713,-0.9784315999999998,-0.13449506,0.11121238
-8.798269,0.7875583,-0.34896928,-1.0769031,-0.09616764,0.07927285
-8.441955,1.2002708,-0.7565390000000001,-1.1024546999999998,0.045954518,0.05105088
-8.245946,1.303595,-0.7678205,-1.1242888,0.31318188,0.02656391
-8.092469,1.1723065000000001,-0.65923864,-1.143435,0.38557813,0.010594148000000001
-8.00666,0.96220094,-0.81134707,-1.154099,0.30944687,-0.012269665
-7.985917,0.6082326,-1.0823228,-1.1359823999999998,0.35096827,-0.018657569
-8.0446615,0.31259656,-1.3844615,-1.1322649,0.44092253,-0.023998277000000002
-8.2593155,0.33238223,-1.5519598999999997,-1.0662565,0.71720815,0.008988446
-8.386266,0.46198517,-1.756961,-0.8261690999999999,0.99562305,-0.01972222
-8.139223,0.50807834,-1.9321973000000001,-0.6196441999999999,0.8886168999999999,-0.11128219
-7.8885117,0.39609674,-1.4176738000000002,-0.4237485,0.6980444,-0.10489429
-7.573999400000001,0.32647336,-0.7955836,-0.25658086,0.5005604,-0.038362335
-7.8477044000000005,0.12846328,-1.1328596000000002,-0.21505947,0.3499036,0.010594148000000001
-9.024656,0.6070068000000001,-1.2260898,-0.19376646,0.4121944,0.09897762
-9.943617,0.4601081,-1.3732469999999999,-0.35665804,-0.12704252,0.17083283
-9.99313,-0.058954824,-1.7814201,-0.41043162,-0.3511428,0.23790583
-9.928361,-0.031536426,-2.0883856,-0.47963393,-0.2340312,0.27410397
-10.919360000000001,-0.5251155,-1.4657301999999999,-0.47696358,-0.24096015,0.17455038
-11.69895,-0.9596152,-1.2868738000000002,-0.41310197,-0.29152235,0.04733333
-11.388154,-0.5632599,-1.4956673,-0.21025981,-0.20476203,-0.047926743
-11.820146000000001,-0.1272566,-0.31888852,-0.010122909,-0.25905922,-0.09798279
-12.874907,-0.49564764,1.433964,0.07929031,-0.30270990000000003,-0.14109242
-14.010859,-1.2247586000000001,3.4737758999999997,0.08087855599999999,-0.36552429999999997,-0.123534404
-13.575928,-0.65696895,2.2865295,-0.012252212,-0.41875684,-0.076689765
-11.646719000000001,0.85359037,1.08646,-0.06813765,-0.45921358,-0.050073497
-10.6395645,1.3883497999999999,2.3518912999999997,-0.08304276,-0.43898519999999996,-0.041015237999999996
-10.478932,1.6753282999999999,1.9549613999999997,-0.062290803,-0.4033107,-0.0522028
-10.972147,0.30128634,1.7669879000000002,-0.03621558,-0.3426256,-0.052726395
-10.735399000000001,-0.8895609,1.7299925999999999,0.014887659,-0.26651177,-0.023439772
-10.093992,-1.9435076,1.6568929000000001,0.023928462999999997,-0.1664346,0.020717058
-9.88927,-1.8409879,1.0898405,0.013823007,-0.09403834,0.055309486
-9.679537,-0.94545114,0.7348859000000001,0.020734511,-0.022165682000000003,0.06914994
-9.495308999999999,-0.40886262,0.095136,0.10644763,0.065641835,0.0782082
-8.661839,-0.3019567,-0.4142255999999999,0.26827455,0.24610887,0.103759825
-7.778752000000001,-0.34384567,-0.062661044,0.43010148,0.37864918,0.1303761
-7.449683,-0.35426524,0.14809573,0.57009435,0.46169195,0.15112805
-7.547683,-0.566018,0.33617467,0.76279616,0.4728795,0.14847516
-7.961592,-0.70558083,0.13766660000000003,0.9272934000000002,0.3717377,0.12025318
-8.278048,-0.9147957,-0.25507826,1.0263059,0.4670152,0.069690995
-8.548976,-0.8205504000000001,-0.6659999,0.98317885,0.6352300000000001,0.010070549
-8.5276,-0.5846449,-1.1449646999999998,0.8639379999999999,0.5772153,-0.06604326
-8.050819,-0.6213145,-1.3949863999999998,0.6637835999999999,0.38503709999999997,-0.14802137
-7.632667,-0.87937117,-0.9941108000000001,0.42797219999999997,0.09812241,-0.22891739
-7.4704742,-0.8381430000000001,-0.8111555,0.34971163,-0.33464944,-0.35774013
-7.3908334,-0.9166632,-1.1440643999999998,0.30180234,-0.9936683000000001,-0.56217057
-7.475511599999999,-1.2001271,-1.5375563,0.28050932,-0.62423444,-0.639349
-8.471797,-1.5415403,-1.2649525,0.684553,-0.4677308,-0.3061133
-9.896854,-1.9042331000000001,-0.5433114,1.0667627,-0.44856706,-0.13418092
-10.42671,-1.6811031000000003,-1.1230817,0.92249376,-0.45441392,-0.19219565
-10.883543,-0.44849142,-2.7710297,0.7095811,-0.20476203,-0.16929694
-11.979569999999999,0.975733,-3.4589608,0.49556878,0.0028274334000000004,-0.07988372
-12.134638,1.392439,-3.7925496,0.29489082,0.023055799999999998,-0.013334315
-12.236257,0.49530286,-2.9474443999999997,0.16287413,0.027855453999999998,0.0031590459999999996
-13.576885999999998,0.8666052,-0.46453258,0.09313077,0.020926498,0.030822514
-15.662744,1.6787183999999997,1.4214088,0.075031705,0.05660103,0.06756169
-12.443519,-1.4245788000000001,2.0379732,0.05799729,-0.015777776,0.09311332
-11.576052,-2.3029919999999997,6.257226999999999,0.0021118484,-0.123848565,0.113882735
-10.836377,1.4112669,4.6405087,-0.114458695,-0.22605504,0.14795156
-9.977195,3.3389822999999996,2.8578246,-0.26509807,-0.2814169,0.16976817
-10.395346,2.6963882000000003,2.7820527999999998,-0.3976558,-0.33943164,0.18519689
-10.655327,1.7930368000000003,1.4897106000000002,-0.50996774,-0.33145547,0.15966272
-10.283872,1.4534911,0.7741316,-0.59781015,-0.31442106,0.113882735
-10.063865,1.2888561,0.26312277,-0.6473076999999999,-0.24202481,0.069690995
-9.859093,1.1659476,0.25515485,-0.66701245,-0.12863077,0.023387412000000003
-9.421672000000001,1.0391985000000001,0.12333969,-0.6893526999999999,-0.07806858,-0.03302163
-8.960941,0.90520936,-0.21111113,-0.74844956,-0.08765043,-0.108629294
-8.324102,0.8006977,-0.33797508,-0.8889834000000001,-0.17708111,-0.1810081
-7.902838,1.0766533999999999,-0.6793308000000001,-1.0614569,-0.33677873,-0.22359413
-7.826463,1.5998438999999998,-0.95814997,-1.1125601999999999,-0.38521162,-0.21081832
-7.877028999999999,1.5229038000000001,-0.93187124,-1.0108947,-0.024836035,-0.16929694
-8.001901,0.95430005,-1.2037951,-0.8921773999999999,0.43507567,-0.06921976
-7.954476400000001,0.20049044,-1.4673584,-0.82243407,0.84444267,-0.029827677
-7.8052220000000005,-0.25097936,-1.6561363999999998,-0.7542964,0.8369901,0.0026179939
-7.666674,-0.3001371,-1.9458348,-0.5706354,0.7922748000000001,0.05906194
-7.353397999999999,-0.11357135,-2.1429157,-0.31566024,0.78162825,0.041486476
-7.19855,0.111014344,-1.8400685,-0.06866125,0.6187366999999999,0.016458455
-7.528605499999999,0.20444568,-1.3309463,0.063338,0.29082420000000003,0.08300786
-8.828494000000001,1.2489976,-0.4647433,0.023404865,0.006021386,0.27197465
-10.187663,2.3554254,0.4823646,0.07770206,0.25408503,0.42847833
-10.533050999999999,1.2010465,-0.40307823,-0.096359625,0.0028274334000000004,0.3736401
-9.398247,-1.9477308999999998,-1.6686053,-0.26083946,-0.23883085,0.3528881
-9.220741,-1.782464,-2.0330698,-0.3034255,-0.00034906584,0.3731165
-10.790591000000001,-0.90390694,-0.9643556999999999,-0.26083946,0.044889867,0.22300072
-11.731463,-0.739454,-0.7718235999999999,-0.14638077,0.029443703999999998,0.0670381
-11.442196000000001,0.26571807,-1.6540678,0.03351032,0.07202974,-0.03195698
-12.451994000000001,0.87481254,-0.94724196,0.20067796,-0.05836381,-0.08677777
-13.592353,-0.5645432,0.44444045,0.33482397,-0.104684845,-0.12351695
-14.041457000000001,-1.4587774,3.2766947999999996,0.44287730000000003,-0.080721475,-0.12616985
-13.477565,-1.4337246000000001,3.9524055000000002,0.5003684,-0.11798426,-0.10808824
-11.875595,0.5621298000000001,2.6084635,0.54827774,-0.25213027,-0.08093092
-10.852898,1.5809872,4.1464224000000005,0.5834111999999999,-0.26916468,-0.07347836
-9.915845,2.0568299999999997,3.4414256,0.5552066999999999,-0.27822295,-0.085730575
-10.071334,0.8080909000000001,2.6358342,0.49345693,-0.2814169,-0.09105383
-10.4456625,-0.99623686,1.9408069,0.38008034,-0.16215853,-0.09316567
-10.470525,-2.0156400000000003,1.0881551999999999,0.33962363,-0.066881016,-0.07400196
-10.064630000000001,-2.1193953,0.50361556,0.35611698,-0.06316347,-0.039933134
-9.37532,-1.6165841,0.517138,0.36409312,-0.13288938,-0.018116517
-8.988484,-1.2946118999999998,0.16787185,0.33588862,-0.078592174,0.012740903500000001
-8.747167999999999,-1.2240212,-0.16307387,0.34599406,0.0837409,0.038292522999999995
-8.497577,-1.1720096000000002,0.00046926353,0.40828487,0.25408503,0.03403392
-8.245372,-0.93843126,-0.08101021,0.47588146,0.345645,0.012199851999999999
-8.195582,-0.8661264000000001,-0.079516225,0.5392369,0.31637582,0.011676253000000001
-8.206327,-0.5675216,-0.008532935,0.5897991,0.20298178,0.0074176495
-8.318462,-0.05431965,0.27257508,0.61004496,0.10131636,0.020734511
-8.495911999999999,0.23463176,-0.09272264,0.62121505,0.23279202,0.075031705
-8.671281,0.1925417,-0.88166,0.6829648,0.46436229999999995,0.09258971
-8.722480000000001,-0.28831935,-1.4885039,0.7782423,0.4941725,0.089936815
-8.332225,-0.8396944,-1.5341756000000002,0.8495739,0.3733259,0.08833111
-8.001863,-1.0441688,-1.2560173000000001,0.73993236,0.028379052999999998,0.041486476
-7.669902,-0.90448153,-1.4803731000000002,0.5615945999999999,0.039566614,-0.02289872
-7.8557396,-0.99044293,-1.7538293999999999,0.3145956,0.023055799999999998,-0.08731882
-8.420177,-1.1068969,-1.6286508999999998,0.29436722,-0.3160093,-0.15971509
-9.135871,-1.0029886000000001,-0.87653637,0.34866443,-1.122491,-0.36519268
-9.803346000000001,-1.0091847,-0.32184774,0.44076544,-1.3215808,-0.55682987
-9.483193,-0.48527595,-1.0352433,0.45938809999999997,-0.38468802,-0.46207592
-9.351025,-0.15129438,-2.30327,0.6542191999999999,-0.24841271,-0.2347817
-9.573541,-0.5833520000000001,-3.1013722,0.7505788000000001,-0.19357447,-0.16875589
-10.031763,-1.785816,-3.0827837000000002,0.6909584,0.12527974,-0.11285299
-12.079456,-2.5518932,-2.1796142999999994,0.5482952,0.2753955,-0.018099063999999998
-12.55167,-0.34373075,-3.0810215,0.34761724,0.30520573,0.07609635599999999
-11.636558,1.0895725,-3.2946608,0.11711159,0.35789722,0.14475761
-13.128203,1.1688876,-0.46837288,-0.056409042,0.42229986,0.21556562
-14.211473000000002,1.09144,1.8226962,-0.20706587,0.33606315,0.2560049
-13.466598999999999,1.3678457,4.255521,-0.28850293,0.09864601,0.257087
-10.373933000000001,-0.52954,3.700957,-0.37847465,-0.053564154,0.23047073
-10.026812,-0.44591528,4.816789,-0.47481683,-0.05729916,0.23525293
-9.774932000000002,0.5153375,3.4985416,-0.5695707,-0.006736971,0.2554813
-9.62313,1.0213568000000002,2.530173,-0.67711794,0.0038920840999999997,0.25494024
-10.225549,1.0491774999999999,0.9550662,-0.76813686,-0.066881016,0.21289526
-10.313521000000001,0.97407615,0.37478834,-0.85543823,-0.079656824,0.17297958
-10.005837,0.8965424000000001,0.06106172,-0.9411339,-0.08019788,0.12985249
-9.758191,0.8915624,0.015073894,-1.0220474,-0.1020145,0.08354891
-9.564051,1.3160735000000001,-0.44790727,-1.097114,-0.13395402,0.037227873
-9.250075,1.516947,-0.55271584,-1.1705749,-0.1712168,-0.014381513
-8.709569,1.5011166,-0.57457966,-1.2355186000000002,-0.17654005,-0.0591143
-8.458657,1.388206,-0.40060738,-1.2440357,-0.048781954,-0.07293731
-8.458504,0.891074,-0.5336963,-1.1758981000000002,0.08641125,-0.046862092
-8.375367,0.56882405,-0.89230937,-1.0433403,0.09121091,-0.026633725
-8.165999000000001,0.53565955,-0.927801,-0.8735373,-0.041852996,-0.03302163
-8.111756,0.29509974,-1.0639257,-0.7228805,-0.0030019663,-0.06283186
-8.147507000000001,0.18900786,-1.3860896,-0.6132214,0.24291493,-0.079325214
-8.112178,0.31413844,-1.8952022000000002,-0.59407514,0.45211008,-0.05857325
-7.965020699999999,0.33656728,-2.165651,-0.5136853,0.6724928000000001,0.013805554
-7.7628827000000005,0.20919576,-2.1173935,-0.43703043,0.53037065,0.050544735
-7.504424,0.10888829,-1.571487,-0.17777924,0.57136846,0.10323623
-7.507824,-0.10337205,-1.234776,0.06867871,0.45797440000000006,0.16180947
-8.188647999999999,0.31779677,-1.1423981,0.070266955,0.3557679,0.22195353
-9.566531,0.60794526,-0.7200321999999999,-0.30340803,0.20245819,0.26028094
-10.553152,0.26816016,-0.32382056,-0.5706354,-0.33889058,0.35025270000000003
-10.089386,-0.40339425,-0.9770257999999999,-0.57117647,-0.42301545,0.44765950000000004
-9.854707000000001,-0.6481965999999999,-1.8723041,-0.49878019999999995,-0.1643053,0.29860840000000005
-10.899460000000001,-0.49290866,-2.1844982999999996,-0.3646342,-0.2361605,0.11229448
-12.523274,-0.7332769,-2.5218127,-0.11869984,-0.17654005,-0.025569074
-12.376375999999999,-0.26575637,-1.8800805,0.10965904,-0.13554227,-0.10381218
-11.944595,0.21518128,0.3064961,0.197484,-0.08285078,-0.18046704
-13.328971,-0.7691420999999999,2.3388476000000002,0.24167573,-0.053581607,-0.21401227
-13.435379000000001,-1.7734139,2.8178412999999995,0.2778564,-0.18505725,-0.1794024
-11.974638,-0.49857813,0.78007877,0.2592512,-0.34688420000000003,-0.15491542
-11.277599,1.5563653,1.9154379000000001,0.16022122,-0.29736918,-0.07826056
-10.919992,2.156199,3.1334162,0.08250172,-0.26597074,-0.017592918
-10.941061999999999,-0.13231316,2.311573,0.015428711000000001,-0.25319493,0.03244567
-11.220129,-1.6090951,1.7201476999999998,-0.038833577,-0.27714083,0.05693264
-10.407575999999999,-2.2445161,1.8134258,0.010629055,-0.28194050000000004,0.06649704
-10.053607000000001,-2.1398704,1.2868356,0.10379473,-0.23883085,0.053738687
-9.275339,-1.4706527,1.1623656999999998,0.15118042,-0.10147344,0.05427974
-9.275866,-1.2422554,0.81683457,0.1282817,0.000715585,0.073967054
-8.731461999999999,-0.79364914,0.1434893,0.15650368,0.10930997,0.10538298
-8.327063,-0.47769114,0.21551646,0.25179866,0.24610887,0.11655309
-7.896344999999999,0.26667574,-0.007910443,0.40137336,0.36695546,0.12507029
-7.894765,0.3679888,-0.14003207,0.543513,0.37760198,0.14371040000000002
-8.116572999999999,-0.047290273,-0.5220604999999999,0.6797708,0.15826645,0.14475761
-8.207764,-0.87614375,-0.59337896,0.7841241,0.24345598,0.15700983
-8.051499,-1.504229,-0.50427634,0.80646425,0.7848222,0.10803588
-7.918985,-1.5744653,-0.46890917,0.82829833,0.9620953000000001,-0.027698375
-8.058710000000001,-1.1448018999999998,-0.88811475,0.6574131999999999,0.8503069,-0.19910716
-7.826080999999999,-1.0118759,-1.481532,0.2991669,0.55114007,-0.3162013
-7.297795,-1.0211462,-1.621679,0.05588544,-0.049846604,-0.342835
-6.9737160000000005,-1.2341152,-1.5113733,0.17619099,-0.6609562,-0.40990803
-7.262437299999999,-1.2904076999999998,-1.3702303,0.41999602,-1.7197601999999999,-0.5664117
-8.423672999999999,-1.5223196,-1.0370054,0.6467841,-1.1294024999999999,-0.7032106
-9.963222,-1.689071,0.38643375,0.7085338999999999,-0.68596673,-0.63666123
-9.977883,-1.7387555000000001,0.026489448,0.7963588,-0.23776620000000004,-0.3220656
-9.077099,-1.1283777,-2.3198857000000004,0.7223743,0.22588049999999998,0.019146262
-10.329209,-1.1087931,-3.6389184,0.5211553,0.39196604,0.2656042
-12.984053,-0.8390335999999999,-4.2207574999999995,0.27467993,0.2950828,0.30551988
-13.821554,0.21619642,-5.091519,0.039933134,0.24078563,0.23047073
-12.798646000000002,1.2411925,-2.7409682,-0.11974704,0.11196287,0.20971876
-12.889109,1.8033414,1.2180071000000001,-0.18203785,0.065641835,0.23525293
-13.910791,2.4797323,4.582942500000001,-0.22036527,0.016144296000000002,0.25124013
-11.280913,3.3830454,4.306853,-0.26988026,-0.07805113,0.22142991
-10.2842455,0.47785395,5.202619599999999,-0.3869744,-0.15257668,0.24644049
-10.735218,-0.5347784000000001,4.985561,-0.5291140000000001,-0.29791024,0.28742080000000003
-12.430886,0.5664394,3.097484,-0.6941349,-0.38734093,0.28424433
-12.730947500000001,1.2720968000000001,1.1415073999999998,-0.8384038,-0.38360593,0.23260003
-11.59735,1.9387001,-0.24303062,-0.97839665,-0.42833869999999996,0.14901622
-11.002142999999998,1.9672868000000001,-1.0012743,-1.0715622999999999,-0.35168386,0.053738687
-10.499742999999999,1.5573037,-0.42540178,-1.1529994,-0.19516271,-0.03621558
-9.491813,0.8380280999999999,-0.036564246,-1.2147491000000001,-0.09934414,-0.10485938
-8.311146,0.7417715,0.15334383,-1.2504237,-0.09508554,-0.17781414
-7.3093449999999995,0.9334896999999999,-0.13775279,-1.2860806999999999,-0.099885195,-0.23263493
-7.217942999999999,1.4714093000000001,-0.7775984,-1.3638003,-0.012060225,-0.23849924
-7.3204823,1.9803878000000001,-1.2619741000000002,-1.4569659,0.037437312,-0.17620844
-7.3007827,1.9988807000000002,-1.2492466,-1.5192393,0.04436627,-0.09955358
-7.6558910000000004,1.1123079,-1.0050955,-1.5213686000000002,0.026790803,-0.07187266
-7.737858999999999,0.39887398,-0.8148426,-1.4984698,0.20938715,-0.071331605
-7.44976,0.16181931,-0.9000665999999999,-1.5005991,0.44786894,-0.09316567
-7.481611999999999,0.06766972,-1.3730171999999998,-1.425009,0.6038315,-0.1314931
-7.769759,0.24803929,-1.8517808999999998,-1.1636634,0.71507883,-0.12404055
-8.124207,0.48565903,-1.8334317,-0.8729962,0.61980134,-0.07187266
-8.361797,0.433906,-1.4824514,-0.5275258,0.444675,0.04363323
-8.870269,0.11823526,-1.2384822,-0.16552703,0.049689524000000006,0.21556562
-9.479315,0.1530661,-1.2578082,0.16128588,-0.012583823999999999,0.3827158
-9.944747999999999,0.031948227,-1.2444581000000001,0.14320427,0.5005604,0.28476793
-9.843147,-0.44186428,-1.2367297,-0.0021118484,0.23706807,0.17936748
-9.518417,-0.44135672,-1.771307,0.0042586033,0.03265511,0.22408283
-9.544878,0.14644854,-2.4408597999999997,0.03832743,0.114633225,0.16126843
-10.666811000000001,0.0054587796,-2.2826703,0.10061823,0.04436627,0.057473693
-12.141608999999999,-1.4495455,-1.9831555,0.28585002,-0.11798426,-0.015446163999999998
-12.538903,-2.732646,-1.1699985000000002,0.53551936,-0.14034192,-0.079325214
-12.727307000000001,-2.3666875,1.2487198,0.7995528000000001,-0.11744320400000001,-0.20334831
-14.166070000000001,-1.8879142,4.617237,0.96563834,-0.13182472,-0.30077258
-14.303373,-1.3658538,5.940187,1.0768856000000002,-0.15311773,-0.31354840000000006
-10.829711999999999,1.2447071,3.4320402000000003,1.1210773,-0.17015214,-0.26670375
-10.1606,2.7658296,2.866731,1.0955257,-0.20367992,-0.24115214
-9.496132000000001,2.490755,2.8059950000000002,1.0433578000000001,-0.21006782,-0.1900489
-9.856775,0.60985106,2.0205243000000004,0.9879959999999999,-0.14779449,-0.09901253
-10.797007,-1.1522335,1.2540063,0.9379574,-0.09562659,0.0031764992
-10.552501,-1.516066,1.1516013999999999,0.8533264000000002,-0.0503702,0.08728392
-9.867138,-1.578095,1.2270093,0.8229751000000001,-0.07007497,0.1288053
-9.287597,-1.5449784,1.3629136999999998,0.77239543,-0.080721475,0.16924457
-9.434275999999999,-1.5427183,0.8897715,0.70054024,-0.043458696,0.2091777
-9.138399,-1.1885105,0.6233734999999999,0.6968227,0.03584906,0.24059364
-8.646611,-0.7531871,0.19002299,0.73939127,0.13910274,0.24696408
-8.2056,-0.66124976,0.013244724,0.77613044,0.31691688,0.21717131
-8.33729,-0.4717535,-0.24727315,0.7617664000000001,0.24504423,0.17032668
-8.421844,-0.117679805,-0.5110471,0.73780304,-0.071663216,0.1399754
-8.244616,0.0002777274,-0.7183946,0.71598643,0.2253569,0.17777924
-7.9683247,0.11923125,-0.9475676,0.64891344,0.53888786,0.13412856
-7.8023777,0.14011826,-1.1724694,0.6212325,0.52345914,0.026598819
-7.8122897,-0.26466465,-1.8488983,0.43544218,0.45052183,-0.11658800000000001
-7.744151,-0.5824997,-1.869431,0.13255775,0.23813272,-0.18205529999999998
-7.5322447,-0.92195916,-1.4528495000000001,-0.060667645,-0.12437216,-0.15810938
-7.272684599999999,-1.0646057,-1.0655825,-0.073426,-1.1714475,-0.33004177
-7.686719,-1.1127101000000001,-1.4560768999999998,0.022375122,-1.3795955,-0.6520899
-9.636642,-0.8609358,-1.4839643999999999,0.011728613,-0.55023247,-0.6089803
-11.23483,-0.043555316,-1.1474833,0.3864857,-0.33143803,-0.28639108
-10.128354,0.2776795,-2.2948616000000004,0.5988748,-0.32665583,-0.19270179999999998
-10.272839999999999,-0.12024638,-3.1076354999999998,0.5797111,0.10770427,-0.14318681
-11.738732,0.069259465,-3.1667533,0.5046444999999999,0.3382099,0.038309976
-12.987394,-0.2617916,-3.9832811,0.32791245,0.118350774,0.17085028
-13.3007,-0.76362586,-3.7705802999999998,0.18631389999999998,-0.03546509,0.23314108
-14.046187,0.66441965,-1.5117085,0.114458695,-0.13767157,0.22090632
-14.830614,3.3214377999999996,0.7893395999999999,0.13362241,-0.19357447,0.17830284
-13.371223,4.1121564,2.6349148999999996,0.14957471,-0.21006782,0.12772319
-9.020968,0.36797923,3.7670943999999995,0.13255775,-0.21752039,0.08196066
-8.303877,-1.1360391,6.59525,0.07667231599999999,-0.26755896,0.06279694
-8.842141,-0.95364887,4.4377675000000005,-0.0063704518,-0.29630455,0.07236135
-10.024474,0.24063642,3.2620711,-0.12507029,-0.33143803,0.075049154
-11.747256,1.5928336,0.991506,-0.22301817,-0.33250266,0.073984504
-11.434803,1.6481302,-0.2770283,-0.28476793,-0.29204595,0.062255893
-10.23144,1.433897,-0.5802779,-0.32735395,-0.28300515,0.045238934
-9.488000999999999,1.1240586000000001,-0.30983844,-0.36941640000000003,-0.18505725,-0.0047996556
-8.929174,0.7947313,0.28036103,-0.43594834,0.016685348,-0.05588544
-8.371364999999999,0.5791191,0.5641696999999999,-0.5147325,0.11143927,-0.10274753
-8.036616,0.5205952,0.43597454,-0.6211976,0.2253569,-0.13308136
-7.98245,1.0016094000000002,0.041410115,-0.72872734,0.35470328,-0.14479251
-8.206432000000001,1.3675585,-0.20907128,-0.80646425,0.34938002,-0.15013322
-8.466586999999999,1.1195766000000003,-0.37436694,-0.80431753,0.2216219,-0.13733996
-8.504511,0.69003767,-0.37800613,-0.7798305999999999,0.23280947,-0.09688323
-8.407373,0.5708734999999999,-0.53592765,-0.7958003,0.34086279999999997,-0.08464847
-8.219619999999999,0.86293733,-0.55849063,-0.8176344,0.45212755,-0.08304276
-7.797139,1.0478847,-0.64540017,-0.613204,0.78855723,0.022881266
-7.6569824,1.1008252,-1.2777375,-0.3779336,0.73797756,0.047350783
-7.731853999999999,1.0058042,-1.6295607,-0.12135274,0.5969201,0.08463102
-7.7578073000000005,0.7712107,-1.7327700000000001,0.16716763,0.663452,0.15116297
-8.001814999999999,0.38799474,-1.8698331999999998,0.18420205,0.43722242,0.20867157
-9.20471,0.60702586,-1.6432269,0.07667231599999999,0.16467181,0.29756117
-10.19046,0.6255569999999999,-1.1121067,-0.13730505,0.03424336,0.40722020000000003
-10.118777,0.19571163,-1.5535017,-0.23207644,-0.090826936,0.43436009999999997
-9.664703,-0.07964072400000001,-2.5045072999999998,-0.19959585,-0.06740461,0.3646342
-10.944586,-0.05902186,-1.8313631999999997,-0.050021138,-0.024818582000000002,0.105906576
-13.037635,-0.45989743,-1.4298267,0.14055136,0.04330162,-0.05429719400000001
-12.829559,-0.7360159000000001,-2.1347563,0.34920546,0.037437312,-0.14320427
-11.620564,-0.6885724,-0.7150331,0.48389253,-0.005131268,-0.20973621
-11.490349,-1.0311636,0.7693432,0.57597613,0.029984757,-0.27467993
-12.772472,-1.2145306,1.8294956999999998,0.6627539000000001,-0.00033161257000000006,-0.27415633
-12.859535000000001,-1.2345845,3.3243396,0.6819175999999999,-0.09775589400000001,-0.21612412
-11.787632,-0.21066102,3.020228,0.677659,-0.17386970000000002,-0.15969762
-10.9883995,1.5875472,3.447976,0.64146084,-0.19676842,-0.11285299
-10.477525,1.4457913999999998,2.8364968,0.60152775,-0.19996238,-0.056967545
-10.476385,-0.75362766,2.4752693,0.56321776,-0.24626596,-0.0069115036
-10.73198,-2.0558052,1.7538581000000002,0.5318018,-0.25797713,0.03351032
-10.653394,-2.3883216,0.89566123,0.54564226,-0.21113248,0.069184855
-9.968738,-1.4904002,0.61894906,0.54564226,-0.1653525,0.11177088
-9.468129,-0.910716,0.39893144,0.5142264,-0.09562659,0.15700983
-9.06825,-0.8892639999999999,-0.10331459,0.49399799999999994,0.005497787,0.21237166
-8.6710615,-0.86995715,-0.30851686,0.49134508,0.09653416,0.26188666
-8.114199000000001,-0.47866797,-0.11081323,0.5094442,0.18809414,0.31831315
-7.940436999999999,-0.20110336,-0.10140881,0.54935986,0.12154472599999999,0.33267722
-7.9549080000000005,-0.28182626,-0.2502707,0.610586,-0.024818582000000002,0.32735395
-8.125748,-0.7785178,-0.5296166,0.72130966,0.20086995,0.33960617
-8.116258,-1.0344962,-0.77307814,0.87088436,0.47661450000000005,0.33745942
-8.074062,-1.0326190999999998,-1.0971285,0.9821491,0.5729566999999999,0.2634749
-8.117455,-0.77741647,-1.5544785,1.0199354999999999,0.43987533,0.16339773
-7.7943716,-0.8585033000000001,-1.7263151,0.90495324,0.29827678,0.022863812999999997
-7.349164999999999,-0.97159576,-1.8672475,0.62229717,0.06033603,-0.09581858
-7.325491400000001,-0.844569,-1.7788248,0.39924407,-0.48848274,-0.11604694
-7.7413826,-0.736083,-1.6538092,0.3023783,-1.2214861000000001,-0.32630676
-8.39295,-0.8889575000000001,-1.3458287,0.14852752,-1.6601223000000003,-0.63720226
-8.992172,-0.99755853,-0.7464833000000001,0.07878416,-0.8946383,-0.71118677
-9.075758,-0.78267413,-1.1895735,0.24754004,-0.78977895,-0.47537532
-9.434619999999999,-0.59986246,-2.0941221999999997,0.25179866,-0.60240036,-0.28426176
-9.191742,-0.8622382,-3.1357912999999997,0.10115928,-0.10840239999999998,-0.109117985
-10.290087,-1.4664965,-3.039372,0.045779984,0.1412495,0.03244567
-12.398019999999999,-0.9971466999999998,-3.196192,-0.042551125999999995,0.25516713,0.13999286
-13.196551999999999,0.57780707,-3.6998365,-0.114964835,0.27272514,0.16287413
-14.389363000000001,2.0052493,-1.6071126,-0.20067796,0.2588847,0.14529866
-15.29302,2.6814196,0.7522485999999999,-0.29009120000000005,0.23333307,0.15329227
-15.4968815,2.0358758000000003,2.4690444,-0.43381903,0.20032889,0.17671458
-12.577996,0.021442471,3.302083,-0.5222025,0.11409217,0.20491910000000002
-11.499274,0.19086576,5.353722,-0.6153506999999999,-0.024294984,0.20491910000000002
-9.810098,1.5124843000000001,4.137995,-0.65952504,-0.1062731,0.22675318
-9.756764,1.2567452,3.7852042,-0.63186157,-0.23455479999999998,0.24696408
-10.344321,0.88672614,2.3801432,-0.6424906,-0.24680701,0.23047073
-10.015032000000001,0.71006274,1.2801605,-0.6771005,-0.23509584,0.20544271
-9.291101,1.0764714,0.79826516,-0.73141515,-0.22657864,0.18414968
-8.695003,1.4347973,0.43419325,-0.7920828000000001,-0.21326178,0.15275122
-8.380289999999999,1.3553671999999999,0.25112304,-0.8394510000000001,-0.14779449,0.10857693
-8.311193,1.0412383,0.20389022,-0.8799077,-0.027488936000000002,0.061732296
-8.152314,0.7911878999999999,0.26077646,-0.9427396,0.04647812,-0.0058643064
-8.083428,0.82961965,0.11217314,-0.9991661000000001,-0.021624627999999996,-0.08518952
-8.327206,0.88707083,0.2004713,-1.0225884,-0.055169857999999995,-0.14533357
-8.361721000000001,0.9112715,-0.045930367,-1.0433578000000001,0.041695915,-0.15758578
-8.247976,0.83342165,-0.24563551,-1.0369699,-0.10414380000000001,-0.16236798
-8.332799000000001,0.61126846,-0.43507433,-0.9730909,-0.2771583,-0.18154915
-8.370407,0.17322528,-0.7694964,-0.95870936,-0.07646287,-0.12245230000000001
-8.270789,0.022543802999999998,-1.0708594,-1.0215237,0.37971383,-0.06709046
-8.133917,-0.0091362735,-1.3457521000000001,-0.93155205,0.8284729,-0.006387905
-7.956487700000001,0.099598795,-1.7627358,-0.7755894,0.81356776,-0.011187561
-7.9038725,0.20050003,-2.0974548,-0.53443724,0.38983673,0.010611602
-7.949832000000001,0.33154905,-1.7173321,-0.20493656,0.10503391,0.119729586
-7.8807254,0.5034430999999999,-0.8427303,0.15861551,-0.23776620000000004,0.28583258
-8.515199,0.5385134,-0.7813142,0.4029616,-0.1557881,0.35609952
-9.814511999999999,0.43681732,-0.5223286,0.05534439,-0.3117507,0.19479620000000003
-10.375848,-0.5846353,-0.21726902,-0.32258922,-0.33145547,0.30710813
-10.039692,-1.1147307,-1.2326691,-0.41469023,-0.2335076,0.47373469999999995
-10.453516,-0.19787598,-2.1272962000000004,-0.3795393,-0.27874655,0.31936035
-12.084379,0.11124419,-2.7455458999999998,-0.17301449,-0.19783308,0.03933972
-13.093352000000001,-0.21121648,-2.936316,0.12826425,-0.26916468,-0.10276499
-13.223846,-1.4283137,-0.44064805,0.32096604,-0.2553242,-0.20816542
-13.267919000000001,-2.386454,2.8591747000000005,0.38273326,-0.23031364,-0.25553367
-14.785775,-2.2894793,6.3628497,0.3683343,-0.18453366,-0.25022787
-13.310938,-1.2971498,5.504605000000001,0.3475823,-0.13927728,-0.21296507
-11.070559,1.8596531000000003,2.7851942000000003,0.33161256,-0.15098843,-0.15332717
-10.651478,2.5013373,3.7110605000000003,0.30019662,-0.19411552,-0.12034045
-10.203053,2.6623907000000004,2.777791,0.27998573,-0.19730946,-0.10276499
-10.268203999999999,1.0098839,2.5517592000000002,0.24537584,-0.07913323,-0.08199557
-10.30677,-0.74972993,2.3683252,0.24750514,0.034766957,-0.050073497
-9.577133,-2.032093,1.8982955000000001,0.22568853,0.10983357,-0.0048171086
-8.861410000000001,-1.6920206999999998,1.881086,0.19427260000000002,0.15507251,0.036669366
-8.742149000000001,-1.0428281,1.3160352,0.17404424,0.15666075,0.06276204
-8.538853999999999,-0.97636503,0.6813515,0.19107865,0.17263052,0.08511971
-8.354088,-0.602793,0.49507302,0.29009120000000005,0.19713494,0.11121238
-8.191742,-0.126682,0.1692509,0.42263147,0.34191,0.1441991
-7.835657,-0.121079564,0.11242213,0.5780705,0.59796727,0.16177456
-7.5989184000000005,-0.32678938,0.54453725,0.7707723000000001,0.5617691,0.15006341
-7.560621,-0.785959,0.7030142,0.94432783,0.34245107,0.118664935
-7.824644,-1.0487753,0.41815212,1.1066784,0.42814672,0.11599458
-8.192986999999999,-0.8701965,-0.09575849,1.2157963999999999,0.684204,0.08299041
-8.367849,-0.25965598,-0.55789685,1.1700164,0.68153363,-0.026651177999999998
-8.116909,-0.069383964,-1.0485646,0.89160144,0.60913736,-0.1964717
-7.909389,-0.41716570000000003,-1.125677,0.5807234,0.018256145,-0.31677726
-7.941700999999999,-0.9156289000000001,-0.5884948,0.48862237,-0.46240753,-0.37161550000000004
-7.6966114,-0.7918390999999999,-0.0060812719999999995,0.40081486,-1.5856142,-0.6079505000000001
-7.6881647,-0.75891405,-0.35829705,0.39121556,-0.8989144,-0.7825707
-8.548592999999999,-1.4891743999999998,-0.88601744,0.42154938,-0.30963886,-0.6383018
-9.752895,-2.301996,-0.3164656,0.789395,-0.61945224,-0.39397317
-9.883054,-1.8554009999999999,-0.579167,0.86498517,-0.48795915,-0.3237062
-10.081505,-1.1880125,-1.9005651000000001,0.7393564,-0.17336355,-0.20073032
-11.80441,-0.6959561,-2.6703392999999997,0.5583657,0.1508139,-0.06232571
-13.0339,-0.09422620400000001,-3.5367913,0.31988394,0.20669934,0.034540065
-13.61006,0.38080257,-2.7920317999999997,0.08937831,0.320617,0.09946632
-13.989896,1.3572251,-0.42783427,-0.07189011,0.3562915,0.16814502
-15.848591,2.9406352000000004,2.4370005,-0.13205162,0.3983365,0.21605429999999998
-12.694967,3.5173218,2.8819292,-0.15173893,0.26047292,0.23150048
-10.467181,-0.71729326,4.4123797,-0.19540706,-0.01685988,0.22350687
-10.724798,0.3221159,5.8865185,-0.28536132,-0.21169098,0.23095942
-9.789249,0.9269296,4.0816445,-0.4099255,-0.27876398,0.26448720000000003
-9.431431,0.95367754,3.4870013999999996,-0.60049796,-0.30272737,0.31187287
-10.274410000000001,2.0859148999999997,1.9079393,-0.7639305999999999,-0.29740409999999995,0.34540066
-10.286363,1.9067327,0.8971457,-0.8858244000000001,-0.29099876,0.30813786
-9.906986,1.5951896,0.41775945,-0.9587617,-0.2766347,0.25171140000000003
-9.702455,1.149169,0.37542042,-1.0199704,-0.25905922,0.18198548
-9.543709,0.92454493,0.5918084,-1.0891901000000002,-0.16697565,0.08988445
-9.563073,0.76290756,-0.07673895,-1.1716919,-0.1004437,-0.017104227
-9.208885,0.91716117,-0.5621873000000001,-1.208431,0.020385446,-0.091088735
-8.638453,1.1127101000000001,-0.5409938,-1.2339826999999999,0.25406757,-0.10972885
-8.093024,1.5689298999999999,-0.82544416,-1.3691933,0.24183282,-0.13154547
-7.936501,1.8054866999999999,-0.79776716,-1.4767231,-0.11854276,-0.16615534
-7.828178,1.2453967,-0.40619066,-1.4405249,-0.20477948,-0.14964452
-7.82971,0.64835936,-0.2932131,-1.4501069,0.17901842,-0.0458498
-7.8867307,0.5035389,-0.53890604,-1.4730055,0.6517234000000001,0.051539574000000005
-7.7912016,0.5788126,-0.9357498,-1.3324542,0.90404564,0.18250908
-7.609692599999999,0.43630016,-1.4629147,-1.1323173,0.71347314,0.20059069
-7.487597500000001,0.33811873,-1.639013,-0.7314675,0.6283011,0.20910789
-7.4669313,-0.04168784,-1.3710826999999999,-0.37639770000000006,0.5574931,0.23467697
-7.458168,-0.26132232,-1.8768052,-0.1762608,0.34988615,0.28789207
-8.372791000000001,0.62268394,-2.1735713,-0.15123278,0.43931684,0.3347367
-10.26218,1.8319473999999998,-0.35270423,-0.33011156,0.07414158400000001,0.30012682
-10.630054,1.1490444,0.08057925,-0.32211795,-0.19519763,0.34911820000000005
-9.973632,-0.3805823,-1.8207808,-0.21032962,-0.09086184,0.34379494
-10.951069,-0.7179061999999999,-2.0271802,-0.017104227,-0.024312437000000003,0.18409733
-12.64785,-1.0192596,-1.5865513,0.21390755,-0.020053834,-0.0016755160999999998
-12.370515,-0.8807885,-0.80173194,0.5093569,-0.024312437000000003,-0.10494665
-12.0889,-0.7891959,1.1699697,0.7483623,-0.0999201,-0.19065976
-12.430781,-0.8692389000000001,2.2879565,0.91711813,-0.14037684,-0.23643975
-12.860177,-0.7820708000000001,3.507831,0.9889734,-0.16432275,-0.2508038
-12.653098,-0.39224684,2.842291,1.0198656,-0.25268877,-0.2279051
-12.228213,0.16480726,2.4619863,0.9809972,-0.33999014,-0.19224802
-10.964236999999999,-0.038402997,3.6873674,0.88196725,-0.40599850000000004,-0.15498523
-9.834777,0.12522632,3.8925888999999994,0.81171775,-0.4288972,-0.13156292
-10.146071000000001,-0.45592302,3.1610837000000003,0.77071995,-0.42676792,-0.12623966
-10.47424,-1.4473811,2.4326715,0.77071995,-0.35437164,-0.11452851
-10.378769,-2.2162647,1.8822256000000002,0.77550215,-0.2761111,-0.102293745
-10.1460905,-2.033999,1.3467194,0.74251544,-0.20265017,-0.060231313
-9.851767,-1.4045535,1.0850714,0.6850068,-0.13931218,-0.003822271
-9.765718,-0.72279036,0.71848077,0.64400905,-0.052010812000000003,0.034487706
-9.492732,-0.38765958,0.31393730000000003,0.6434854,0.09063495,0.066968285
-9.017491999999999,-0.2607956,0.07123229,0.64187974,0.28865999999999997,0.082920596
-8.725333000000001,-0.076394185,-0.0061100022999999995,0.6621255,0.48562040000000006,0.097843155
-8.499819,-0.0011492167999999998,0.07798394,0.7414333000000001,0.599538,0.12445943
-8.21757,-0.30590236,0.10078631,0.86493284,0.5287475,0.14042918
-7.979011999999999,-0.83300024,-0.034419045,1.0251540000000001,0.5085191,0.14149384
-7.8969007,-1.0301867,-0.44105026,1.119908,0.5590813,0.121789075
-8.049258,-0.64618546,-0.77997345,1.1497182,0.5947558000000001,0.046198864000000006
-7.908805,-0.15448347,-1.0045017,1.0379299000000002,0.6048613,-0.07993608
-7.606464999999999,-0.22596475,-0.7367819999999999,0.7664439000000001,0.48562040000000006,-0.20078267
-7.3255005,-0.35786609999999996,-0.6004275,0.5700071,0.06295402,-0.23272221
-7.222597599999999,-0.58073753,-0.5719652,0.47844709999999996,-0.5742133,-0.32428217
-7.321698700000001,-0.64857006,-0.95411813,0.33154273,-1.1113383999999997,-0.58990383
-8.0364065,-0.77946585,-1.6477375,0.24370033,-0.62851053,-0.6830695
-9.52196,-0.9511780000000001,-1.7044513,0.44546038,-0.22394319,-0.45629890000000006
-10.781674,-0.77235985,-1.812631,0.7728318000000001,-0.36875317,-0.28808406
-10.543481,-0.8484093,-2.6628695,0.8042303000000001,-0.3314904,-0.19706513
-10.747639,-1.0517632,-2.9975595,0.668496,-0.05893977,-0.09698795
-12.1711645,-0.810466,-3.2314827,0.48591712,0.18113028,0.076532684
-12.939885,0.21451089,-3.6088760000000004,0.2889567,0.34456290000000006,0.2122844
-13.716774,1.05523,-2.0394669999999997,0.14362314,0.41748276,0.28468066
-14.356878,2.300914,0.14473428,0.111666165,0.3349636,0.33789575
-13.441575,2.6509367999999998,1.5408125,0.13295919,0.22691025,0.31660274
-10.917924000000001,1.0646248999999999,3.0196054,0.1521229,0.015044739,0.26124087
-9.333910000000001,-0.63681936,4.8742113,0.041416664,-0.16964601,0.18247417
-9.7887125,0.18233283,5.0646176,-0.16299629,-0.27026424,0.12390092
-9.906871,0.94531703,3.7710782999999997,-0.34398693,-0.30913273,0.11431906
-10.398247999999999,1.2013912,2.9966116,-0.5031435000000001,-0.36608282,0.14254104
-10.749411,0.99505895,1.7215267,-0.6500653000000001,-0.39056978,0.17713347
-10.537973,0.86165404,0.5624554,-0.7554831999999999,-0.33361968,0.1590344
-10.478885,0.6541534000000001,0.04390966,-0.84011424,-0.36981782,0.0893085
-10.187942,0.41976099999999994,-0.13159491,-0.9183747999999999,-0.45870742,0.01956514
-9.383203,0.32391635,-0.3618022,-1.0131112,-0.46616,-0.0389732
-8.570946000000001,0.48982495,-0.696071,-1.1147941000000001,-0.23513076,-0.09007644
-7.928887400000001,0.91577256,-1.0268059999999999,-1.2074188,0.023561945,-0.12468632
-7.7049723,1.591378,-1.1724405,-1.2356408,0.036337756,-0.14969689
-7.8996395999999995,1.9041756,-0.77340376,-1.2723625,0.16036086,-0.1747249
-8.209057000000001,1.3796636,-0.65239125,-1.3309183,0.1523847,-0.15662585
-8.206375,0.8459002,-0.7562038000000001,-1.3985323,0.29876545,-0.11136946
-7.902819,0.59374285,-1.0902427,-1.4544178,0.4079009,-0.056007615999999996
-8.078477000000001,0.5191395000000001,-1.53589,-1.4192843000000002,0.40310124,0.01956514
-8.262525,0.47700158,-1.6714976000000001,-1.2627807,0.55215234,0.1462586
-8.130460000000001,0.30260795,-1.435276,-1.0695552,0.6676757,0.24579471
-7.429686500000001,0.019000385,-1.625797,-0.8800474,0.59315014,0.2889218
-7.588163400000001,-0.04361278,-2.0762327000000003,-0.79859287,0.39671335,0.3027448
-8.0252495,0.16814,-1.7596903000000002,-0.9247627,0.6612878000000001,0.31819096
-8.650835,0.093249366,-1.5920961999999999,-1.1499276000000003,0.43184683,0.27399924
-9.741221000000001,0.27314970000000005,-1.5539136,-1.3106898999999999,-0.33840188,0.3453483
-9.728484,0.33836773,-2.1594837000000005,-1.3436941,-0.20212658,0.44488442
-10.022445,0.29667032,-2.1950808,-1.1967896999999998,0.018762288999999998,0.39430478
-10.993858,-0.14809573,-1.2367105,-0.89975214,-0.07916813,0.1664695
-12.192950999999999,-1.0819589,-0.44327208,-0.53403586,0.06454228,-0.041643556
-12.814045,-0.6355457,-0.041639958,-0.26522022,0.0017278759,-0.1550376
-13.243881,0.42628282,0.8045091999999999,-0.10924016,-0.15262905,-0.19814722
-13.786292000000001,0.3893738,1.9802346000000002,-0.028850293,-0.18882717,-0.2833193
-13.375601000000001,-0.20111294,0.8948568000000001,0.041922808,-0.28412214,-0.26895523
-13.281756,1.3880337,0.23516805,0.038187806,-0.38632864,-0.21837559999999998
-12.330368,0.56948483,2.5057428,-0.00012217305000000001,-0.33522537,-0.18217747
-10.121603,-0.90971047,3.24512,-0.016091935,-0.34480724,-0.13800319
-10.306818,-1.5197052,3.0568974,0.024888393999999998,-0.39749873,-0.1007404
-10.731032,-2.4807856,2.7017705000000003,0.11910127,-0.4134685,-0.08635889
-10.451916,-2.9281947999999995,1.9470319,0.20214403,-0.36130062,-0.07625344
-10.614578,-2.7359883999999997,1.0089261999999999,0.29530972,-0.27719320000000003,-0.04909611
-9.784537,-2.344881,0.88820094,0.3442662,-0.20799088,0.003577925
-9.247834,-2.1399662,0.9266135,0.3501305,-0.10419615,0.03338815
-9.070404,-1.2266643999999998,0.69767034,0.4124213,0.051766466,0.054157566
-8.215866,-0.27223990000000003,0.5118516,0.54442054,0.15981979999999998,0.08234464
-7.7366614,0.21723070000000003,0.28102183,0.71371746,0.2790607,0.10951941
-7.5990142999999994,0.257166,0.16348568,0.9053546,0.39032543,0.13826498
-7.681010700000001,-0.27066928,0.16558299999999998,1.1443601,0.3983016,0.1579523
-7.89398,-1.3778343000000002,0.031048007000000002,1.3652663,0.32325244,0.15634659
-8.081772,-2.0816147000000003,-0.09952218,1.5127291999999999,0.5351179,0.14730579
-8.313452999999999,-1.8441865000000002,-0.41242516,1.5350694999999999,0.8300261999999998,0.07276278
-8.536584,-0.8614146,-0.86276495,1.4499148000000002,0.8768709000000001,-0.037926003
-8.018009,-0.6313701,-1.0580744,1.2646656,0.78424627,-0.18591247
-7.7606325,-1.0006518,-1.133099,0.99530894,0.14652039,-0.29450685
-7.6936617,-1.3451871000000002,-1.0705817,0.8952317,-0.6578146,-0.40470695
-7.70955,-1.4739280000000001,-0.96945053,0.9095958000000001,-1.528158,-0.61711353
-8.110712,-1.5569685,-0.83259803,0.8552985999999999,-0.93621206,-0.8683711
-8.866226,-1.7282498,-0.5548323000000001,1.0325716999999999,-0.38739327,-0.7224965
-9.660231,-2.018695,-0.45195824,1.2705125,-0.45179594,-0.6634171
-9.579345,-1.6668911,-1.2888945,1.2587838,-0.43050292,-0.61550784
-9.834308,-1.3068128,-2.4559145,1.0868514999999999,-0.20640263,-0.45155159999999994
-11.942221,-1.1391133,-3.2450050999999998,0.77757907,0.08370599,-0.22425735
-13.624951999999999,-0.10658029,-4.6809616,0.5284508000000001,0.27373743,-0.015044739
-14.157307999999999,0.64886695,-4.28134,0.28516933,0.24818581,0.14570008
-14.058925,1.4169652,-1.2627211,0.0956615,0.13533282,0.23139575
-14.263685999999998,2.1159475,2.3120902,-0.052831117000000004,0.09648179999999999,0.28995153
-10.678465,0.79195404,3.5239391,-0.18484782,0.09648179999999999,0.3027448
-9.301109,-0.21262427,5.449911599999999,-0.33445746,0.05974262,0.29153979999999996
-9.280845,0.7297335,4.7125645,-0.42280602,-0.012095132,0.30113912
-9.703095,0.86362684,3.5164695,-0.49146727,-0.10791371,0.32295573
-10.420475999999999,1.4604629999999998,2.558913,-0.59315014,-0.22504276,0.3298672
-10.833389,1.5182878999999998,1.2903693999999999,-0.7299665,-0.33150783,0.328279
-11.175588000000001,1.4848169,0.5441829,-0.871024,-0.30700340000000004,0.33466688
-11.205017999999999,1.3967198,-0.1932025,-0.9993232,-0.27986354,0.31763247
-10.602751,1.1492360000000001,-0.047874457999999995,-1.0573553999999998,-0.25165904,0.26172957
-10.067915,0.957786,0.033298556,-1.0866245,-0.23621286,0.17177531
-9.473597999999999,0.79284465,0.07671022,-1.1047236,-0.17713347,0.08553859
-9.0417595,0.6446244999999999,-0.012612655,-1.1281458999999998,0.056548666,0.03869395
-8.6757345,0.5129338,0.12533167,-1.1611501,0.14226179,-0.015044739
-8.427159,0.829361,-0.049406745,-1.2095829,0.020874137,-0.070424035
-8.282588,1.2558928999999999,-0.32584128,-1.2447164,-0.10897836,-0.07572984
-8.156557000000001,1.4976976,-0.4717535,-1.2569686000000002,-0.092484996,-0.06988298
-8.025632,0.9273222,-0.5796554,-1.2644212,-0.041922808,-0.06668903
-7.9055867,-0.06795702,-0.89998996,-1.2537748,0.06133087,-0.016126841
-7.682313400000001,-0.22212446,-0.93076986,-1.1494389999999999,0.2604206,0.08553859
-7.757567999999999,-0.014116213,-1.1216643,-0.9295798000000001,0.54894096,0.16432275
-7.5506516,0.093910165,-1.2709571000000002,-0.61711353,0.81032145,0.22392574
-7.381927,-0.093852706,-1.5782003,-0.31581733,0.8278795,0.26118850000000005
-7.875238400000001,-0.28282225,-1.8119797999999998,-0.24820328,0.42118284,0.23246041
-8.868583000000001,-0.09685025,-1.4566994,-0.27909559999999994,0.30993557,0.18294542
-9.848539,0.19067423,-0.7022480999999999,-0.3466922,0.117757365,0.21807889999999996
-10.156606,0.16868588,-0.810715,-0.43718752,-0.25485298,0.34424874
-10.255333,-0.019086577,-1.4120044,-0.44092253,-0.022218041,0.46774822
-10.773391,-0.4412322,-1.1571368,-0.30675906,0.061871924,0.40653953
-11.331871000000001,-1.145932,-0.67355597,-0.0927817,0.04803146,0.16004670000000001
-11.146274,-1.0777451,-0.5231235,0.14941764,0.11723377,-0.0076096356
-11.939855999999999,-0.9071246999999999,0.06442318,0.36180675,0.06239552,-0.07096509
-12.842355,-1.2789155,0.20850624,0.4672072,0.06080727,-0.096516706
-13.329421,-0.5798182,0.6177806,0.5193751,0.084753186,-0.124180175
-12.567242,0.5449874,2.0208880000000002,0.5917713000000001,-0.050440013,-0.14761995
-12.072723,-0.023894132999999998,2.267558,0.66149724,-0.22717206,-0.16465436
-11.083822,-0.73039436,3.5526218000000003,0.66097367,-0.31180307,-0.17156586
-9.796853,0.017401058,3.5829706,0.6237109000000001,-0.36344737,-0.16465436
-9.747791000000001,1.2071181999999998,3.0313944999999998,0.5747194999999999,-0.42572072,-0.1502903
-10.118232,-0.058207832,2.6200228,0.572084,-0.37622318,-0.12685053
-10.647464999999999,-1.6006197,1.7909298999999999,0.57580155,-0.27347565,-0.08958775
-10.557894000000001,-2.3303529999999997,1.1546181,0.568349,-0.23727751,-0.06244788
-10.109842,-1.7637796000000001,0.9308465,0.5646140000000001,-0.17980382,-0.020402899
-10.081332000000002,-0.7739401,0.44837654,0.55450857,-0.055222217000000004,0.032829642
-9.876953,-0.43142557,0.098238885,0.5630083,0.058677968,0.099885195
-9.165436,-0.3048393,0.01946007,0.61306435,0.04749041,0.15845844
-8.410591,-0.27138755,0.01553358,0.72165877,0.005969026,0.22020820000000002
-7.9803147,-0.43645340000000005,0.044982262,0.8675159,0.08742354,0.22073179999999998
-7.847063,-0.4030878,0.25457070000000004,0.9159488000000001,0.18163641,0.14620623
-7.5025663,-0.34347218,0.27587906,0.8462228999999999,0.16566665,0.080215335
-7.447663,-0.5355063,-0.23051374,0.78021455,0.478674,0.03122394
-7.680397999999999,-0.73911875,-0.67377627,0.8510051,0.7448366999999999,0.0051487214
-7.701600999999999,-0.5468644,-0.8724758,0.9835628000000001,0.7166321999999999,-0.0017627826
-7.762289,-0.46542326,-1.2024351,1.0149614,0.46963320000000003,-0.05338962
-8.201069,-0.5639973,-1.5520173000000002,0.83397067,0.45205772,-0.14549065
-8.604138,-0.92445874,-1.6176567,0.5183104000000001,0.21624629,-0.25247929999999996
-8.720419999999999,-1.2908865,-0.8200907,0.37936476,-0.25272366,-0.36267942
-8.597013,-1.1095784,-0.28843427,0.45654324,-1.1161555,-0.5223770000000001
-9.154517,-0.6474975000000001,-0.35204342,0.5933596,-1.5510741000000001,-0.7603352
-9.675572,-0.010448296999999999,-0.7233745,0.76742125,-0.70893526,-0.87957615
-9.088246,0.16683756,-2.1559307999999997,1.0591531,-0.5300564999999999,-0.6016848000000001
-9.440557499999999,-0.42883983,-2.9114162999999995,1.2183096000000002,-0.22610740000000001,-0.29667106
-9.53553,-1.3949193000000002,-2.9985366,1.0463598,0.07730063,-0.035831608
-10.97141,-2.465884,-1.9504602999999998,0.8238478000000001,0.39243728,0.16109389
-12.300566,-2.380574,-2.6079272999999996,0.54545027,0.49624947,0.24841271
-12.223980000000001,-0.35466745,-3.519218,0.29897490000000004,0.43182936,0.225514
-12.761277,2.2643402000000004,-0.63896453,0.11531389999999998,0.33121112,0.21752039
-13.975875,2.9899937999999997,2.8893802,0.016318828,0.26202628,0.2276433
-14.911864000000001,3.6203203,4.956169999999999,-0.081611596,0.14065608,0.26757643
-11.536144,2.0530088,4.136462,-0.14123204,-0.036599554,0.2814169
-11.0704155,-0.6908996000000001,6.4308643,-0.18914133,-0.17022195,0.27235863
-10.513572,-1.4053677,4.3047075,-0.29454178,-0.23994787,0.24682446
-10.149595,-0.11772768,2.9338547999999998,-0.43081707,-0.25537658,0.22605504
-10.147067,1.2303803,1.2992566,-0.5596398,-0.28733355,0.23989551
-10.039414,2.0185323,-0.11355219999999999,-0.70230305,-0.3623827,0.23617795
-9.645224,1.9199773999999998,-0.92144203,-0.7826929,-0.258588,0.19198622
-9.210321,1.3407817,-0.9378470999999999,-0.7837400999999999,-0.09515535,0.13449506
-9.013126,0.7812376,-0.67116183,-0.78375757,-0.02115339,0.075939275
-8.693739,0.45228383,-0.9142976999999999,-0.8055741999999999,-0.02755875,-0.0033684855
-8.447874,0.31440654,-0.61221653,-0.8311258,-0.016894788,-0.07841764400000001
-8.0037775,0.48152184,-0.45663172,-0.87266463,0.1752485,-0.08375835400000001
-7.7295940000000005,1.6003993,-0.8645940999999999,-0.9604896,0.25136232,-0.08428195
-7.921963000000001,2.3080678,-1.0952514,-1.0983531000000002,0.0017104226999999999,-0.079482295
-8.493822999999999,1.374042,-1.1501936000000001,-1.2080296,-0.052045718,-0.04223697
-8.441027,0.20971292,-1.0258197,-1.2420985,0.26626742,0.005131268
-7.920259,-0.2026165,-0.50880617,-1.2255876,0.5393591,0.05784021
-7.9145509999999994,-0.22913468,-0.81151944,-1.1004825,0.7261966,0.10307915
-7.963526700000001,-0.11089942,-1.40622,-0.9152332000000001,0.63304836,0.064751714
-7.835120699999999,0.17530344,-1.4853818,-0.5915793,0.5329712,0.078592174
-7.7673364000000005,0.3066302,-0.91696006,-0.2503675,0.38392007,0.15418239
-7.835159299999999,0.09491573,-0.83807594,0.042394046,0.18641862,0.21486749
-9.012713,0.051571105,-1.3183718999999998,-0.023596851000000002,0.41585959999999994,0.12915437
-10.570765,0.41300938,-1.0708879999999998,-0.30731758,0.12042772,0.17175785
-10.507328,0.16030617,-1.1158704,-0.3845135,-0.11112511,0.34529594
-10.084406,-0.16125427,-1.8337287,-0.46542695,-0.11112511,0.42088616
-10.701441,-0.32716286,-2.2683047999999997,-0.37226129999999996,-0.25059438,0.26490608
-11.961393,-0.32610944,-2.5277312000000003,-0.13538519,-0.18671532,0.1020145
-12.4396305,-0.30416897,-2.2923715000000002,0.10414380000000001,-0.07599164,-0.00017453292
-12.447617999999999,-1.0814035,0.06523721,0.25586528,-0.13348278,-0.041154865
-13.687429999999999,-2.1055567,2.329271,0.3564835,-0.21013764,-0.15774286
-13.555166,-2.147005,4.0731497,0.45867252,-0.27827528,-0.18383554
-10.346686,0.48170379999999996,2.5152907000000004,0.49914670000000005,-0.29530972,-0.19552924
-10.307057,1.8731372,2.2644167,0.49167669999999997,-0.27881634,-0.17584193
-10.543241,2.7698805,1.8831544999999998,0.41502184,-0.23197171,-0.13377948
-10.922914,2.8016758,1.5791388000000002,0.36658895,-0.21865484,-0.07628834
-11.12619,0.3847099,1.8138279999999998,0.34848988,-0.25804693,-0.019861847
-10.83494,-1.034525,2.4419327,0.35594246,-0.2713638,0.012583823999999999
-10.650922,-1.9903381000000002,1.3778057,0.3511428,-0.24048892,0.028553586000000002
-10.15607,-2.058525,0.7855089,0.3288026,-0.13987069,0.066881016
-10.07028,-1.5697727,0.5881596,0.30429816,-0.110601515,0.09243264
-9.818478,-0.5937045999999999,0.5163048,0.30803317,-0.08131489,0.10735519999999998
-8.80617,-0.34400848,0.41706994,0.36445966,0.020874137,0.09456194
-8.389704,-0.22843558,0.32199138,0.47144833,0.2817136,0.09456194
-8.084904,0.24532905,0.20969376,0.60133576,0.44779912,0.11904891
-7.796995599999999,0.116415665,0.123291805,0.78604394,0.3301465,0.14938273
-7.7499447,-0.41596859999999997,-0.010544063999999999,0.9356360999999999,0.29555404,0.12171926
-7.777449000000001,-0.7323767,-0.18200722,0.96651095,0.49464375,0.046111599999999996
-7.700069,-1.0107554,-0.48313072,0.8808153000000001,0.52073646,-0.045413468
-7.773197,-0.5544684,-1.0209066999999998,0.7147298000000001,0.4760210999999999,-0.2136283
-7.7577214,-0.32387802,-1.4584041,0.45228463,0.3046123,-0.35416222
-7.579917999999999,-0.56872827,-1.1906652,0.24150121,-0.47310638,-0.4260174
-7.212915400000001,-0.7204056999999999,-0.5512697,0.19996238,-1.6963903000000002,-0.5798682
-6.993271400000001,-1.026289,-0.69810134,0.11691961,-1.6782912,-0.91364497
-7.892974000000001,-1.4395186000000002,-1.201602,-0.030508353999999998,-0.44383723,-0.91151565
-9.317812,-1.7625155,-0.8887755999999999,0.48370054,0.2838429,-0.43081707
-10.334667,-1.60491,-1.1613027,0.78819066,0.25296799999999997,-0.20617574
-10.167657,-1.2393633,-2.7296867000000002,0.7557275999999999,0.38020253,-0.094387405
-10.677269,-0.80644375,-3.834611,0.60189426,0.46483353,0.057316612
-12.260716,0.08921753,-4.086261,0.3074921,0.24764477,0.18453366
-13.288279999999999,0.5822986,-3.9501166,0.048781954,0.13585643,0.26916468
-14.372785999999998,1.1539093999999999,-1.3678266000000001,-0.15720181,0.13213888,0.33039084
-16.691828,2.8559186000000003,3.0963156,-0.30199432,0.05974262,0.37137115
-15.025637,5.471306299999999,3.5684714,-0.46755624,-0.024364796,0.36711255
-7.4892449999999995,0.5506951,5.063296,-0.57719785,-0.11377801,0.33571407
-7.807539500000001,-3.0530381,8.087852499999999,-0.6826156999999999,-0.19842649,0.31016245
-10.035393,-0.8323298000000001,4.5763345,-0.7645764,-0.0898321,0.30377457
-10.639823,1.2055093000000001,2.9267488,-0.8859466,-0.048834313,0.32347932
-11.091532,1.9333273999999998,0.89248174,-0.92642075,-0.07225663,0.34581953
-10.711419,1.7429501,-0.45665088,-0.88062334,-0.22823670000000001,0.28886944
-10.001692,1.429166,-0.36149573,-0.81196207,-0.34428364,0.20263273
-9.93542,1.1164066000000001,-0.38854063,-0.7534063,-0.32032028,0.12330751
-9.900033,1.2185625,-0.31046093,-0.7518005999999999,-0.25591764,0.050911255
-9.343966,1.4653472,-0.5725398,-0.797057,-0.2287603,-0.018273598000000002
-8.689516000000001,1.5460126,-0.42453986,-0.8513542,-0.23143066,-0.07789405
-8.274427000000001,1.7276368000000002,-0.40555862,-0.8577421000000001,-0.12177162,-0.12315043
-8.097698,1.8296872,-0.9337004000000001,-0.8087681,0.009686577,-0.15507251
-8.16825,1.3793476,-1.1634672,-0.8561538000000001,-0.036599554,-0.19181168
-8.374496,0.7289291,-0.8033121,-0.94982564,-0.31873202,-0.22907446
-8.472016,0.023300372000000003,-0.6951516999999999,-0.9285325999999999,-0.31234413,-0.22853342
-8.196626,-0.28645188,-0.49945920000000005,-0.885423,0.09433505,-0.12580334
-7.9013919999999995,0.0073741414,-0.5760258,-0.7986451999999999,0.38871974,-0.019861847
-7.8466225000000005,0.4238599,-1.1587458000000002,-0.6751457,0.5308419,0.048781954
-7.890839,0.46558604,-1.5772521000000002,-0.3717377,0.5313654999999999,0.11426671
-7.681508999999999,0.41731894,-1.3849691000000002,0.023247786,0.27586675,0.25373596
-7.198253599999999,0.15930060000000001,-0.66442925,0.3564835,0.1662077,0.25799456
-7.205072400000001,-0.4516901,-0.46832502,0.018465584,0.32590532,-0.021450097
-8.468483,-0.58169526,-0.90429956,-0.47233847,0.118822016,0.11320206
-9.669644,0.80012304,-0.23627898,-0.6740811,-0.053092916,0.32560859999999997
-10.044586,1.0973008999999998,-0.26830384,-0.68048644,0.04003785,0.43205625
-11.124955,0.21374474,-1.571688,-0.5495169,0.005969026,0.31070352
-12.396784,-0.9884222,-1.7866107,-0.24980898,-0.06906268,0.13130112
-12.985977,-1.223485,-0.77389216,0.08445648,-0.0062482785,0.012060225
-13.788236999999999,-1.1125951,0.9134933000000001,0.4198215,-0.05841617,-0.07628834
-15.893332999999998,-1.5356313,3.9765296,0.5944417,-0.13667673,-0.16784832
-14.046120000000002,-0.90426123,3.865132,0.70727724,-0.109536864,-0.19552924
-11.140794999999999,2.4413962000000002,1.3650396999999999,0.77808523,-0.14093533,-0.18062413
-11.211061,2.3057790000000002,2.5525925,0.8297121,-0.159558,-0.16146041
-9.978823,1.9348598000000001,2.769172,0.85154617,-0.1483879,-0.15720181
-9.392961,1.0809917,2.5222342,0.81854194,-0.13826498,-0.13697344
-9.929922999999999,0.06500736,2.5534353,0.7637037,-0.115383714,-0.104510315
-9.809657000000001,-0.7944249,2.4367704,0.723788,-0.037664205,-0.079482295
-9.669549,-2.068734,2.3951017999999995,0.7844730999999999,-0.025411992999999997,-0.066706486
-9.944163,-2.1491504,1.9935178,0.86697483,-0.08290314,-0.040631264
-9.906728,-1.5753273,1.5701557,0.8345117,-0.0898321,0.0014137167000000002
-10.017866,-1.0380013000000001,1.404161,0.8068308000000001,-0.14465289,0.045605455
-9.473493,-1.1051252,0.92487055,0.81693625,-0.06321582,0.08923868
-8.861821,-0.8435347,0.6520178000000001,0.8228006,0.1624727,0.11107276
-8.541689,-0.28223807,0.37724,0.847305,0.41585959999999994,0.13025393
-8.296781,0.00479798,0.20612161,0.88987356,0.43130577,0.13290682
-7.781864,-0.21523874,0.15585294,0.9558819,0.18004817,0.13927728
-7.476967299999999,-0.32157958,0.28354052,1.0942866000000002,0.27851963,0.16910495
-7.543641,-0.69759375,-0.22569661,1.2539841999999999,0.5484173000000001,0.13823007
-7.691871000000001,-1.0123163,-0.9372821,1.3050874,0.5904623,0.014189526000000001
-7.767690700000001,-0.71324223,-1.6510702000000002,1.1070448999999998,0.62187827,-0.15400785
-7.6147103000000005,-0.66114444,-1.5398835,0.7839321,0.30726522,-0.25727898
-7.185133500000001,-0.6677045,-0.75913435,0.67640233,-0.19577359,-0.34883896
-6.954907,-0.5760449000000001,-0.40691853,0.7216413,-1.2066508999999999,-0.5314353
-7.145207400000001,-0.68339133,-1.0796987,0.7312406,-0.96336937,-0.6692989
-8.487722,-0.6621404000000001,-1.5374798,0.6519154,-0.58702403,-0.592644
-10.432906,-0.6639025,-1.300425,0.7583805,-0.58702403,-0.45211008
-10.195306,-0.42834184,-1.3460873,0.5449267,-0.30169759999999995,-0.3153112
-10.304788,-0.65088767,-1.8826853,0.27824038,0.043231804000000006,-0.118333325
-12.086093,-0.66604775,-1.8739512999999999,-0.043807764000000006,0.168337,0.087126836
-13.234994,-0.04540364,-2.7283459,-0.29239499999999996,0.29077184,0.1728225
-13.258428,0.22973803,-2.3750193,-0.44252822,0.32377604,0.21060888
-13.574463,1.5574378,0.23547453,-0.4781853,0.32909927,0.2335076
-15.109673,2.6290631,3.0986238,-0.47605600000000003,0.31045917,0.25321236
-12.329228,3.4560970999999996,2.8476923,-0.53515285,0.2966187,0.25905922
-9.954593,1.7502476999999999,4.533306,-0.6644992,0.2375393,0.26172957
-10.218338000000001,1.9669708,4.514775,-0.853466,0.13852678,0.24682446
-10.097105,1.6337745000000001,3.3489232,-1.0381917,0.0320617,0.2335076
-11.029848,1.8289498,2.2066305,-1.177661,-0.09941395,0.25055948
-10.827021,1.9026625,0.85874265,-1.304878,-0.20853193,0.25534168
-10.516962,1.9875131000000001,0.35429397,-1.3565222,-0.31819096,0.20743237
