accx,accy,accz,gyrx,gyry,gyrz
-11.091608,0.63127434,-2.1182845,-0.14906856,-0.002443461,0.038885936
-11.388825,0.9926743,-3.2345952999999996,-0.1751438,0.0044505894,-0.027104963
-11.037317,0.84979796,-4.783883,-0.17729054,-0.10519099,-0.0760789
-14.833976000000002,-0.0034859576000000002,-1.8829055000000001,-0.21348867,-0.19088666,-0.10056587
-17.115092999999998,-2.3780360000000003,1.6049674999999999,-0.23158774,-0.16322319,-0.10801843
-14.450539000000001,-2.4019206000000004,2.0882993,-0.14906856,-0.13554227,-0.13091715
-11.027683,0.63959664,1.5902863,-0.0074700094,-0.15470599,-0.14102261
-13.21335,1.6619016,2.1313855999999998,0.10536553,-0.19994491,-0.10695378
-14.866154000000002,1.7997501,2.7140095,0.17935003,-0.25530675,-0.054785885
-12.431989,1.3606153,1.2622518999999999,0.28316220000000003,-0.2499835,-0.02019346
-10.70551,1.5359187,0.97512966,0.34543556,-0.19303341,0.012269665
-10.41291,1.7775990000000002,0.6623031999999999,0.34969416,-0.14404203,0.039426986000000004
-9.901566,0.7276937,-0.27903944,0.37472218,-0.10625564,0.035168383
-8.430387,-0.48722002,-0.73744285,0.429543,-0.08709193,0.022392575
-7.093914,-1.1362115,-0.6952666000000001,0.40559706,-0.004590215999999999,0.028763026
-6.255110299999999,-1.3279583000000001,-0.2515061,0.26558676,0.17533578,0.028780478999999998
-6.247047,-1.1084962,0.08937076,0.088872164,0.37336084,0.008028515
-6.5392447,-0.79368746,0.031335313,0.018046705,0.36163223,0.07667231599999999
-6.4065389999999995,-0.42841846,0.013752295,-0.1293638,0.44095743,-0.11014773
-6.342001,-0.3583737,0.069230735,-0.55470055,0.37494907,-0.4034503
-6.5482283,-0.6488191,-0.87910295,-0.7340855,-0.40434042,-0.38055158
-6.7564660000000005,-0.6944909,-1.2848531,-0.80436987,-0.22017328,-0.32574826
-6.6993117,-0.47581404,-1.4304972,-0.66277134,0.0773879,-0.37418115
-7.367035400000001,-0.04006936,-1.5695237,-0.28375563,0.117844634,-0.33904767
-8.859916,0.593197,-1.8625165000000001,0.05906194,-0.10784389,-0.22991222
-10.215148,0.8321765999999999,-2.1907808999999996,0.30923745,-0.16800539,-0.1958434
-10.938246000000001,1.7315154,-3.227566,0.32096604,-0.12861331,-0.17455038
-10.357786,1.1872847,-4.3962335999999995,0.23844688,-0.07483972,-0.021240657000000003
-12.096867999999999,0.65555155,-2.9201982,0.24802874,-0.10358529,0.09211848
-15.15975,3.108574,-2.3047545,0.3156428,-0.11316715,0.14269812
-16.102567999999998,3.243588,-0.17941189999999999,0.35821137,-0.025342181000000002,0.15173893
-13.059231,0.088135354,1.9953276000000002,0.29433233,0.01616175,0.11395255
-12.057553,-2.4323268,4.048605,0.21076596,0.033737216,0.05539675
-13.525975,-2.3474383,4.2721753,0.14369296,-0.012566371000000002,3.4906585e-05
-13.689748000000002,-1.1233212,3.1886457999999998,0.05745624,-0.10199704,-0.03668682
-11.405182,-0.7981501999999999,1.9371868000000003,-0.044732787,-0.117425755,-0.0744732
-10.907561,-1.482394,0.9638098,-0.11232939,-0.055134952,-0.114388876
-11.062448,-1.2122897,0.40025306,-0.12245230000000001,-0.048223447,-0.11547098
-9.533989,0.25692657,0.06724834,-0.11393509,-0.057264253,-0.09628981
-7.631431599999999,1.291126,0.25685954,-0.2502104,0.018832102,-0.11492993
-6.4852223,1.6141613000000001,0.033145327,-0.34389967,0.26474899999999996,-0.12027064
-6.0403123,1.4978988000000002,-0.41645703,-0.1794024,0.43191662,-0.02443461
-6.167023,1.1970913,-0.65028435,-0.0048171086,0.57936203,0.13789846
-6.519162000000001,1.0022415999999998,-0.7712873,0.075031705,0.53251743,0.1719673
-6.637569999999999,0.8076121,-0.9525091999999998,0.072902404,0.43671629999999995,0.29016098
-6.4259699999999995,0.75076425,-1.1469280000000002,0.38962729999999995,0.24186772,0.5291664
-6.616739999999999,0.9634459000000001,-1.2256206,0.40985566,-0.12861331,0.52810174
-7.390374,1.1545415,-1.0312879000000001,0.29167940000000003,-0.007225663,0.5259724
-7.4288343999999995,1.235025,-1.3531357,0.19907226,0.0789936,0.54035395
-7.496608999999999,0.5879393,-2.4801342,0.07661995,0.10239847,0.3332706
-8.48777,-0.7059543,-2.356852,0.016999507,-0.0104370685,0.18688986
-10.838560000000001,0.21177192,-1.9184356,0.0015707964,0.03160791,0.18367845
-12.108187,1.1834921999999999,-2.7632727999999998,-0.07347836,0.05342453,0.121946156
-11.676503,0.80432725,-3.6094315000000003,-0.114458695,-0.13658947,-0.018587757
-14.5646,-1.2600205,-1.1760701999999998,-0.18952529999999998,-0.22334978,-0.10321877
-16.36659,-3.5554851999999997,0.59185624,-0.24754004,-0.17704620000000001,-0.16709782
-12.756125,-2.4928906000000004,-0.86615515,-0.23315853,-0.13817772,-0.18306759
-13.091514,0.46899540000000006,1.2246246,-0.16184439,-0.16161749,-0.15858062
-15.115879000000001,2.3013833,3.896707,-0.07613126,-0.21483257,-0.10267772
-14.651298,1.4812063999999998,2.222978,0.002635447,-0.24731316,-0.028693212000000003
-12.375628,-0.09916783,1.5756336000000002,0.0659909,-0.27658233,0.043685592999999995
-10.415496000000001,0.83488685,0.96988153,0.11068878,-0.25316,0.11288789999999999
-10.142403999999999,1.6270995000000001,0.070399106,0.17191494,-0.18343410000000002,0.15334463
-9.452250999999999,0.8194585999999999,-0.54782206,0.22780037,-0.12754866,0.15919147
-7.9059315,-0.48694232,-0.83784604,0.25336945,-0.10571459,0.15069173
-6.7987576,-1.1335684,-0.54375196,0.31831315,-0.048223447,0.17411405
-6.3567395,-1.1117618999999999,-0.41901404,0.31244883,0.14713125,0.19486602
-6.29767,-0.83887076,-0.31632194,0.22088887,0.33663909999999997,0.13472196
-6.303856400000001,-0.62451315,-0.24606647,0.12507029,0.36006144,0.108629294
-6.3161535,-0.44640368,-0.3582875,-0.044715334,0.20727529999999997,-0.04783947400000001
-6.3059535,-0.38960367,-0.6496331,-0.5264786,0.09761626,-0.31082568
-6.501962000000001,-0.544068,-0.9220933000000001,-0.833098,-0.5337042,-0.36777577
-6.889286500000001,-0.8825985000000001,-1.1162822000000001,-0.89645344,-0.35856044,-0.30922
-7.2801833,-0.9359988000000001,-1.2811469,-0.6813765,0.07845255,-0.32040754
-7.9006357000000005,-0.78198457,-1.3491038999999998,-0.37742746,0.096028015,-0.36351717
-9.01349,0.19196709,-1.4204128999999999,-0.017034413,-0.15521213,-0.31293753
-10.240374000000001,1.3887615,-2.4564703,0.18734364,-0.2478542,-0.23949409
-10.968547000000001,1.4576474,-3.4674074999999998,0.16339773,-0.14988887,-0.22352432
-10.922961,0.9182051,-4.5062323,0.072902404,-0.06419321,-0.08032005
-12.110561,0.74333256,-3.4393952000000003,0.10697123,-0.06525786,0.045291292999999996
-15.230657,2.3808131,-2.5551114,0.19533725,-0.09187413,0.09958848
-16.933853,3.2930135999999997,-0.4362044,0.23844688,-0.0013788101,0.11821115
-12.8649845,0.84187794,2.3462697999999995,0.19533725,0.025220007000000003,0.09532988
-10.850628,-2.2761962000000002,3.6547108,0.11761774,-0.0040317103000000005,0.04796165
-12.756661,-2.6254717999999997,4.428669999999999,0.036180675,-0.045553092,0.011222467
-13.6897,-1.1916323999999998,3.2348921,-0.044715334,-0.083339475,-0.0009948377
-11.279869,-0.24902572,1.9431342,-0.11657054,-0.080145516,-0.019093903
-10.293363000000001,-0.78725183,0.97398996,-0.18207274,-0.048747044,-0.037734017
-10.618419,-1.3664284,0.56509864,-0.20334831,-0.043964844,-0.057438787000000005
-9.298812,-0.48230714,0.21092917,-0.18311994,-0.02745403,-0.046251226
-7.6432495,0.65336806,0.16695248,-0.21985912,0.11252138,-0.048380528
-6.593708,1.2310793,-0.01817678,-0.19165461,0.32651618,-0.02815216
-6.2212276,1.4785249,-0.47178224,0.0031764992,0.5032482,0.07136651
-6.3448353,1.2310219,-0.6244844,0.16339773,0.6837153,0.13685127
-6.6526437000000005,1.0104393,-0.65972704,0.1357168,0.6182305,0.06658431
-6.752242599999999,0.67473394,-0.96557194,0.0037000979999999998,0.43298128,0.14056882
-6.6620007,0.39440164,-1.3846626,0.098995075,0.10028662,0.38491490000000006
-6.718542,0.31492370000000003,-1.7129842,0.19586085,-0.1940806,0.5871811
-7.2102146,0.4137372,-1.6049004,0.306602,-0.02693043,0.52970743
-7.5597973,0.70590645,-1.5123981000000002,0.21078339999999998,0.24933773,0.35562828
-7.832037,0.3377644,-1.9111571,-0.09262462,0.0837758,0.20446531
-9.129703999999998,-0.39240968,-1.6811318,-0.1868375,-0.07642797,0.12035791
-10.936254,0.22383870000000003,-1.9904627000000001,-0.1953547,-0.0045553090000000004,0.09321803599999999
-10.891846000000001,0.5671576,-3.3236787000000003,-0.20814797,0.011379546499999999,0.0021642083
-10.64443,0.538274,-4.3634324,-0.17673203,-0.11369075,-0.069673546
-14.799078,-0.21519084,-2.1403396,-0.15863298,-0.17544049,-0.1404641
-17.470651999999998,-2.0821319,0.8347431999999999,-0.14959218,-0.15894714,-0.20648989999999998
-14.813366,-1.7785471999999998,1.865447,-0.10646509,-0.14882423,-0.23628268
-11.006231,0.7698316,2.1193185000000003,-0.043650682999999996,-0.18395770000000003,-0.2054078
-12.410058,2.2070422,1.7859788,0.01595231,-0.23080234,-0.14365806
-14.730115,1.7847433000000001,1.4630967,0.06757915,-0.2819056,-0.04944518
-12.884157,1.3806498999999999,0.89545053,0.15594517,-0.30799824,0.044226642999999996
-10.611667,1.6567683999999998,0.6003126,0.25015804,-0.23186699,0.101717785
-10.1561365,1.4985211999999999,0.23059992,0.30819023,-0.13604842,0.095870934
-9.226535,0.30490637,-0.33175015,0.31883675,-0.068451814,0.0543321
-7.61269,-0.84227055,-0.62738615,0.3342829,-0.03117158,0.03837979
-6.4533787,-1.4967495000000002,-0.64801466,0.33747685,0.13542010000000002,0.035709437000000004
-5.987209,-1.5079737,-0.49424943,0.19427260000000002,0.34143877,-0.025481807000000002
-6.114293,-1.0991493,-0.3033262,0.021275562999999997,0.35632643,-0.10480702
-6.537808,-0.66427606,-0.2790011,-0.26083946,0.110933125,-0.29857346
-6.6940827,-0.21359152,-0.46248317,-0.78836524,-0.03010693,-0.56206584
-6.553227,-0.041764453,-0.5830743,-0.9901253000000001,-0.21163863,-0.43910740000000004
-6.532311,-0.25537515,-0.8462545,-0.8432035,-0.053529248,-0.3347716
-6.8527894,-0.70250666,-0.9582649,-0.606851,0.08271115,-0.28099802
-7.438411,-0.720511,-1.1614465,-0.22729422,-0.15201817,-0.25544637
-8.515831,-0.12231498,-1.6061454,0.03778638,-0.28775242,-0.18784979
-9.898280999999999,0.7895310999999999,-2.7601697,0.14477506,-0.23877849,-0.15217526
-10.774472,1.070869,-3.9146826,0.14316936,-0.23293164,-0.10161307
-11.528071,1.3158341999999998,-4.4156356,0.12135274,-0.18554595,0.035185836
-13.162735999999999,2.478966,-3.0178914,0.20758946,-0.18928096,0.09904744
-16.11766,4.284424,-1.4913098999999999,0.26349235,-0.13763666,0.10438814
-15.734789000000001,3.0471675,0.44894156,0.28424433,-0.11156145,0.067125365
-14.179773999999998,-1.6922026999999997,2.838259,0.30553734,-0.12966052,0.017610373000000002
-15.132944,-3.2481177000000003,4.1708527,0.27466246,-0.14669493,-0.022828907000000002
-14.033182,-1.7119691000000004,3.2480602000000003,0.1953547,-0.16851154,-0.027070057
-11.615594,-0.16758455,2.3152122000000004,0.09419542,-0.18928096,-0.03933972
-9.934453,-0.23560860000000003,1.5719754,0.021816615,-0.21429153,-0.051557027000000005
-10.21603,-1.0027013,1.1186668,-0.02713987,-0.25261897,-0.02867576
-9.483653,-0.8833837999999999,0.85454804,-0.073984504,-0.20525073,0.02295108
-7.861332400000001,0.4234098,0.3623672,-0.1953547,-0.0056199604,0.021886429
-6.7440929999999994,1.2023393999999998,0.17430747,-0.27148595,0.28288296,-0.012705997
-6.105329,1.1630266000000002,0.04073016,-0.09208357,0.55011034,0.03785619
-6.090955,1.0800053,-0.13519579,0.14477506,0.77262235,0.11344639999999999
-6.103165,1.0257047,-0.43023804,0.14316936,0.81679666,0.031991884
-6.2429476,0.947491,-0.72466743,-0.032986722999999996,0.5698151,-0.045169123
-6.3454676,0.6913976,-0.87981164,0.0015882496,0.325469,0.19542451
-6.824815299999999,0.797183,-1.0702465,0.12934636,-0.012548917,0.5983861
-7.660889999999999,1.2074918,-1.1498872,0.3252421,-0.23823744,0.5297248999999999
-7.848327,1.416448,-1.2370266,0.36144024,0.14341371,0.40622538
-7.525550999999999,0.9547502,-2.1481256,0.08569567,0.10560987,0.35990435
-7.9633927,-0.087666094,-2.4362247000000004,-0.035116023999999996,0.032166417999999995,0.25185102
-9.954889,0.3005202,-1.9593188999999998,-0.049497537,0.023631757000000003,0.181043
-10.919945,1.1533156999999998,-2.8558613999999998,-0.1346696,0.09285152,0.12409291
-9.612423,0.77589375,-4.610494999999999,-0.15596262,-0.03968879,0.09852383
-12.025127000000001,1.0461129,-2.5828457,-0.1346696,-0.13072516,0.045291292999999996
-17.753141,-1.4797508,2.91518,-0.09101892,-0.13444272,-0.05368633
-19.704319,-4.0906086,3.6683767,0.017558011999999998,-0.14456563,-0.13194689
-10.894767,-0.78158236,1.575423,0.14744541,-0.21587977,-0.15643387
-11.104087,1.605839,2.303835,0.22622958,-0.27125907,-0.13194689
-14.464282,2.1512764,2.3597155,0.25445154,-0.29679325,-0.074455746
-13.46771,1.9388533,1.5859767,0.25445154,-0.27337092,0.0021991148
-10.9376135,1.7662121,0.71533,0.2602984,-0.21268582,0.06925467
-10.264766999999999,1.5239573,-0.06609912,0.30714303,-0.13657202,0.10332349
-9.560411,0.23444024,-0.36891776,0.36089918,-0.09452703,0.110776044
-7.726012,-0.9218729999999999,-0.434471,0.3342829,-0.055134952,0.06232571
-6.31735,-1.4638628,-0.14765522,0.2586927,0.06675884,0.06286676
-5.9148755,-1.3034608,0.13489890000000002,0.12241739,0.3233397,0.056478854
-5.9970446,-0.7820708000000001,0.16721104,0.034051374,0.4452335,0.06873106
-6.412218,-0.42769063,0.010323798,-0.004782202,0.25998425,0.020804325
-6.6518393,-0.12317689,-0.34820312,-0.3428001,0.044401175999999994,-0.21603686
-6.7035637,0.12646173,-0.94671524,-0.65369564,-0.3351381,-0.41886157
-6.875783,0.09805692,-1.1341238,-1.0864675,-0.24942501,-0.49019316
-7.3436966,-0.096629985,-0.9646334000000001,-1.122142,0.27063075,-0.38266343
-8.121955999999999,-0.23377943,-0.84337187,-0.7005228,0.24242623,-0.35978216
-8.856803999999999,0.03369121,-1.6279422,-0.19481365,-0.01998402,-0.326778
-9.632113,1.2084013999999998,-2.6086549999999997,0.035657077999999995,-0.23132594,-0.26289895
-10.239349,2.4445662,-3.3566803999999997,0.03778638,-0.19458675,-0.23467697
-11.025175,2.348932,-3.8444462,-0.08676032,-0.03330088,-0.106395274
-12.381977000000001,0.8730121,-3.234643,-0.07665486,-0.075363316,-0.0068416907
-14.827847,2.1927630000000002,-2.371409,0.019163715,-0.07162831,0.06979571
-16.017248000000002,4.096642,0.09936895,0.08089601,0.010332349000000001,0.13845697
-13.018252,2.2097142000000005,0.6459939,0.043109633,0.06250024,0.10651744
-10.307891,-2.3371336,2.7436976000000004,-0.024469515,0.060370937,0.059672805999999995
-12.701155,-2.880598,4.9706883,-0.05588544,0.022584561,0.017627826
-14.581263,-2.1422935,3.7092888,-0.093148224,-0.054593899999999994,-0.016423548
-12.274939,-1.0125940999999998,1.6114509,-0.17247343,-0.09663888,-0.049968775
-10.800321,-0.8766801,1.1112256,-0.22197098,-0.072151914,-0.05368633
-10.926926,-1.2244618,0.52255845,-0.23368213,-0.098244585,-0.060615286
-9.345105,-0.31316158,0.17505446,-0.24165829,-0.03330088,-0.03239331
-7.754905,0.9042804,0.3499078,-0.27094492,0.23603833,-0.0073652896
-6.612642,1.4939243999999998,0.04478115,-0.18310249,0.48197266,-0.015358897
-6.067472,1.4978318000000002,-0.38863638,-0.0697259,0.7497411,0.02295108
-6.1093225,1.198049,-0.46765465,-0.039374627,0.80669117,0.050631999999999996
-6.3916855,0.9452596,-0.56481135,-0.15330972,0.5320113000000001,0.08841838
-6.4241033,0.5018534,-0.95608133,-0.08834857,0.3361155,0.35672784
-6.1768007,0.31795958,-1.3869802,0.15702727,-0.038083083999999996,0.63353705
-6.5554585,0.47541183,-1.3692535,0.24219935,-0.12486085,0.5531472
-7.050407000000001,0.5789084,-1.1464875,0.21293017,0.0779464,0.56592304
-7.1712375,0.64296764,-1.6993756000000002,0.048432887,0.055588737,0.46851617
-7.600689999999999,0.116540164,-1.9707537,-0.14638077,-0.16957618,0.23216370000000003
-9.07187,0.08971552599999999,-2.1589954,-0.16074483,-0.114214346,0.16135569
-10.963797,1.03034,-3.0328214,-0.14796901,-0.078016214,0.12676327
-11.69058,1.5985606,-3.9798717000000003,-0.15702727,-0.1700998,0.013910273999999999
-13.702179000000001,0.56127745,-3.0499926,-0.16180947,-0.26539478,-0.0845612
-17.742662,-2.9049234,0.9255313000000001,-0.16022122,-0.30318114,-0.15109316
-15.756768,-3.6559171999999998,0.9309135000000001,-0.11976449,-0.26698299999999997,-0.18676768
-10.830957000000001,-0.8151586,-0.38727649999999997,-0.061732296,-0.23450243,-0.17132153
-13.6201725,1.9204946,2.2598486,0.0037175512,-0.2542072,-0.10798352
-15.643963000000001,2.4033954,2.3488076,0.066549405,-0.29092893,-0.032375857
-13.618229000000001,0.463211,1.1901864,0.15063937,-0.34843752,0.051155599999999996
-10.828151,0.6038081,1.481034,0.26616272,-0.33086208,0.12569861
-10.154297999999999,1.7859021000000002,0.77287704,0.34866443,-0.22706734,0.15868534
-9.894958,1.2520527,-0.020187909,0.38912115,-0.09292133,0.13473941
-8.646832,-0.2316055,-0.6855173999999999,0.41894883,-0.035953782000000004,0.09801769
-7.253386999999999,-1.1794221,-0.45194867,0.48174578,0.013002703000000001,0.09269444
-6.2687669999999995,-1.570041,-0.24707204,0.4029616,0.18067649,0.07353072
-6.0378323,-1.3688321,-0.21927057,0.24167573,0.41383502,-0.025464353999999998
-6.193158,-1.0373118000000001,-0.24938963,0.13095206,0.40479422,-0.06272713
-6.346846599999999,-0.6671491,-0.37042129999999995,0.007976155,0.37391934,-0.18357372
-6.305905999999999,-0.31106427,-0.399372,-0.39870300000000003,0.26265459999999996,-0.40821505
-6.3615856,-0.06557239599999999,-0.5104151,-0.48493972,-0.33672637,-0.5375614000000001
-6.5825415,-0.22072624,-0.6655977,-0.6691243,-0.15945327,-0.62966245
-6.9426293,-0.7413885,-0.77546275,-0.6164154000000001,0.2647839,-0.47635272
-7.6085815000000006,-0.7009456000000001,-1.1907514,-0.34972906,0.18973474,-0.4007625
-8.817136,0.17051505,-1.8507179,0.025010569,-0.049270645,-0.32410765
-10.074187,0.87854755,-3.0152192,0.20706587,-0.1679705,-0.24478243
-10.7947855,1.0750636,-3.9636009,0.19270179999999998,-0.13124876,-0.18090338
-10.814877000000001,0.9853864,-4.4571223,0.16767378,-0.07747517,-0.07391469
-11.653768,0.76191163,-3.6617496,0.19589576,-0.11313224,0.0048520155
-14.756988,2.471745,-2.2929845,0.22251202,-0.11047934,0.06501351
-16.993920000000003,4.22387,1.8608694,0.20069541,-0.04818854,0.09321803599999999
-14.220898000000002,1.7804528000000002,2.6561944,0.120305546,-0.03330088,0.07405432
-12.205458,-2.0441884999999997,3.2322008999999996,0.059620447,-0.053511795,0.03042109
-13.106492,-2.247255,3.6756550999999997,0.008517206999999999,-0.12751375,0.0021991148
-13.578073499999999,-1.1212716999999999,2.9232150000000003,-0.07609635599999999,-0.17594664,-0.025464353999999998
-11.223922,-0.31517270000000003,1.1513332,-0.20439549999999998,-0.17329374,-0.049951322
-10.391036,-0.90569776,0.7007349,-0.29489082,-0.1200612,-0.052604225
-10.159335,-0.65915245,0.5240812,-0.30340803,-0.056705747,-0.027593656
-8.812357,0.41051942,-0.01855985,-0.29914942,0.041748274,-0.0015184365
-7.383459599999999,1.2048389,-0.21676144,-0.39390334,0.21369812,-0.04569272
-6.478690599999999,1.4456381999999999,-0.41271248,-0.29009120000000005,0.3462384,-0.06005678
-6.167885,1.356277,-0.5175402,-0.0010471975,0.5511924,0.04426155
-6.3214874000000005,1.1035258999999997,-0.6476314999999999,0.14053391,0.65818113,0.053825952
-6.651542699999999,0.9551523999999999,-0.63728863,0.09794788,0.5219058,0.021886429
-6.70205,0.7455735,-0.99666786,0.19963075,0.37500143,0.19917697
-6.716195,0.82564527,-1.4743111,0.44769440000000005,-0.01891937,0.43764132
-7.2824144,0.88212925,-1.5146295,0.58768725,-0.054576445,0.53185415
-7.7421875,0.94901365,-1.2801892,0.53232545,0.03536037,0.46532223
-7.4478064,0.9655431999999999,-1.831277,0.24328144,0.048677232,0.37110937
-7.499933,-0.112824365,-2.4865222,0.008517206999999999,-0.04499459,0.2539803
-9.069322999999999,-0.78138125,-1.8840548,-0.02979277,-0.07960447,0.19703022
-11.310141999999999,0.5826529,-1.8373869999999999,-0.04309218,-0.020507618999999998,0.17732546
-11.047766000000001,0.66756094,-3.6145167000000002,-0.03244567,-0.096621424,0.101229094
-11.902237,0.1965927,-3.243061,-0.025534166,-0.18659315,0.016039576
-15.574329999999998,-1.2717999,0.08367256,-0.033527777,-0.22387338,-0.060074233
-17.118446,-2.8285767999999996,1.7413317,-0.010088003,-0.20310396,-0.13458234
-12.965177,-1.1737143,0.6336494,0.07346091,-0.19671606,-0.16228071
-11.848081,1.6204053,1.1633618000000001,0.16608553,-0.23291420000000002,-0.13353515
-14.102442000000002,2.3330919999999997,1.9684263,0.21451841,-0.2792352,-0.09040806
-14.198957,1.5863981000000003,1.5061156999999998,0.23474678,-0.31862729999999995,-0.03239331
-11.636510000000001,1.0603536,1.0856556,0.25923374,-0.30105186,0.037332594
-10.277925,1.3665912,0.6216592,0.28319713,-0.20310396,0.08684758
-9.880142,1.3626263,0.21300735,0.3241949,-0.10515609,0.08471828
-8.833675,0.3795863,-0.44037029999999994,0.3678456,-0.060423300000000006,0.05438446
-7.4747167,-0.80343664,-0.5697626,0.40404373,-0.018378316999999998,0.040544
-6.427626999999999,-1.3841358,-0.36230975,0.33004177,0.13756685,0.052778757999999995
-6.174646,-1.2359826999999999,-0.20811358,0.19750145,0.40001202,0.028815385
-6.4293413,-0.69737345,-0.17744866,0.08358382,0.49954814,0.006457718
-6.6791043000000005,-0.30158323,-0.30836362,0.018640116,0.40372956,-0.03450516
-6.669594999999999,-0.024363395,-0.53985417,-0.31723103,0.2807711,-0.27246335
-6.552413,-0.029515719,-0.7983800999999999,-0.57648224,-0.24888395,-0.46355945
-6.662412,-0.18156669,-1.1619348999999999,-0.6776241,-0.38515925,-0.63231534
-6.9869223,-0.34906504,-1.0804075,-0.7340505999999999,0.041748274,-0.5695009
-7.382300999999999,-0.24088542,-1.0257144,-0.58552307,0.26693067,-0.4757942
-8.240105,0.16018167,-1.4514129,-0.21715386,0.070511304,-0.38477528
-9.555585,0.7124282,-2.4462900000000003,0.11180579,-0.14720106,-0.22507766
-10.454730999999999,1.1439017,-3.4182305,0.21401227,-0.15413003,-0.18942058
-10.680256,1.0006422,-4.3955245000000005,0.16929694,-0.077998765,-0.10157816
-11.140191,0.10882126,-4.1480885,0.16929694,-0.081716314,0.006475171500000001
-14.305786,1.5823375,-2.9712617000000003,0.23902284,-0.09983283,0.07620107400000001
-16.378235,4.002607299999999,0.20054792,0.27576202,-0.010384709,0.11452851
-14.048561999999999,3.8270261,2.006638,0.24754004,0.029513517000000003,0.10707595
-11.221451,-0.91600245,2.8530746,0.16662659,-0.025307272999999998,0.05969026
-13.057029,-2.8459492,4.271783,0.080389865,-0.074281216,0.013910273999999999
-14.658194,-2.0498388,3.8599799,0.013316861999999999,-0.1184555,-0.0015009831
-12.790783,-0.91668236,2.1579224999999997,-0.05534439,-0.13070771,-0.040369466
-10.789183,-1.0420524,0.8336418999999999,-0.12027064,-0.1184555,-0.056321774000000005
-10.616292999999999,-1.1140412,0.20082563,-0.14582226,-0.060423300000000006,-0.056862827000000005
-9.659081,-0.09850703,0.12398134,-0.16339773,-0.015707963999999998,-0.023317598
-7.983417500000001,1.0655921999999998,0.15116033,-0.21343632,0.025778513,-0.00842994
-6.7476454,1.5188433000000001,-0.036822822000000005,-0.31457815,0.16418312,-0.043563418
-6.1547456,1.548809,-0.5588354,-0.2677335,0.29513517,-0.025987952999999998
-6.2699356,1.3346813,-0.74285376,-0.1314582,0.48944268,0.07353072
-6.6232047000000005,1.1063797,-0.6130784,0.03195698,0.6390174,0.12198106
-6.823934599999999,0.7429879,-0.6423260000000001,0.07293731,0.35955527,0.19917697
-6.820181,0.41007885,-1.0251780000000001,0.22998203,0.16365953,0.41369540000000005
-6.9349966,0.47432965,-1.3259951,0.3784921,-0.17701129999999998,0.58032197
-7.438287,0.70597345,-1.5588549999999999,0.47059312,-0.11365584,0.6063972
-7.985764,1.0685513999999998,-1.6830662,0.35187584,0.08435176,0.45415214
-8.219600999999999,1.1077204999999999,-2.0908468,0.10009463,0.14556046,0.27103218
-8.88449,-0.120543264,-2.1757545,-0.04787438,-0.00027925267999999995,0.16723745
-9.9931,-0.46719494,-2.2099822000000002,-0.0755553,-0.06257005,0.20182988
-11.090891000000001,0.7515495,-2.74365,-0.035639625,-0.005602507,0.20767672
-11.297251,0.7527562,-3.4098413,0.04845034,-0.10194468,0.09271189
-13.981323999999999,-0.7168431,-2.075141,0.08731882,-0.1839228,-0.023317598
-15.934313000000001,-2.8813548,0.22675963,0.07452556,-0.19032815,-0.106901415
-14.952182999999998,-2.615177,1.0855407,0.08464847,-0.17434093,-0.15852825
-12.222389,0.5722524999999999,1.7114999,0.13735741,-0.17221163,-0.15587536
-12.198783,2.6887746,2.233474,0.1815317,-0.21640338,-0.10636036
-14.138834,2.223495,1.8834705000000003,0.20708331,-0.27282986,-0.043545965
-13.307509,1.0187902,0.97829956,0.23584634,-0.30157545,0.012339477
-10.96733,0.68513435,0.97139466,0.27150342,-0.22704989,0.054367005999999996
-9.846001,1.2742228999999998,0.97430605,0.27202702,-0.084910266,0.08100073
-9.087317,1.1650951999999999,0.56530935,0.25340435,0.0023736479,0.08206538
-7.872595,0.04658159,-0.17819566,0.23849924,-0.0013439035,0.047996555
-6.7722774,-1.0117418,-0.44066718,0.19378391,-0.0071907565,0.025638886
-6.3095837,-1.3655473999999999,-0.27920225,0.13735741,0.06784095,0.035220746000000004
-6.49069,-1.0157927,-0.14856501,0.028221974,0.22540927,0.019250982
-6.939325999999999,-0.5363874,-0.2268075,-0.0063529983,0.26480135,0.029356438999999998
-7.1453705,-0.07782113,-0.44649944,-0.026598819,0.21422172,-0.011623893
-6.991337,0.2949848,-0.6693805,-0.31670743,0.12746139,-0.17503907
-6.927239999999999,0.37321773,-0.94438803,-0.5924520000000001,-0.35534903,-0.26181683
-7.2104545,0.11732546,-1.4254407,-0.8000415,-0.42133993,-0.37519342
-7.695922,-0.014537593,-1.5705293,-0.8846898999999999,0.11362094,-0.32035518
-8.358072,-0.038431726,-1.5141698000000001,-0.6909234999999999,0.22169173,-0.3065147
-9.268317999999999,0.028807035,-1.7218906999999999,-0.30499628,0.025254915,-0.30332077
-10.169573,0.7248972,-2.315758,0.027698375,-0.1184555,-0.24689427
-10.613429,1.7336031000000003,-3.221609,0.14587462,-0.14985397,-0.22507766
-10.510402000000001,1.2750656999999999,-3.9635050000000005,0.08360127,-0.1386664,-0.17982127
-11.457567,0.07713160000000001,-3.4384854,0.015987216000000002,-0.10726794,-0.06112143
-14.088123999999999,1.0142412,-2.7114432,0.0596379,-0.12217305,0.024033183
-15.712944,3.0071842999999996,-0.4433391,0.13470452,-0.07958701,0.07513642
-13.618793499999999,3.1922848,1.1661966000000001,0.15119787,-0.021031217999999997,0.06981317
-10.484850999999999,-0.47273993,2.3045437,0.120322995,-0.015184363999999999,0.029356438999999998
-11.293928999999999,-1.8438896,3.4265049,0.094230324,-0.05190609,-0.007347836
-13.136601,-1.6895595,3.7646523000000003,0.03728023,-0.12110839999999998,-0.033440508
-12.417307000000001,-0.8723801,2.595037,-0.07822566,-0.14666001,-0.058451075
-10.599667,-0.5530798000000001,1.2143868999999998,-0.17776178,-0.103026785,-0.086149454
-10.7335415,-1.0679383999999998,0.7902685,-0.20809561,-0.071593404,-0.097843155
-10.143908,-0.6999784,0.40336555,-0.19107865,-0.08119272,-0.068032935
-8.847093,0.28420132,0.08040687,-0.19053759,-0.00986111,-0.04195771400000001
-7.7175364,1.0847361999999998,-0.031172507000000002,-0.22725932,0.14290756,-0.046739917
-6.9296240000000004,1.3434536,-0.23269725,-0.087807514,0.29674090000000003,-0.03609341
-6.682409,1.2518322,-0.47651318,0.07934267,0.5027595,0.06503097
-6.786029300000001,1.0735409,-0.71196854,0.13362241,0.6039014,0.10281735
-6.669892,0.8492329,-1.0561208,0.07347836,0.5107357,0.11348130599999999
-6.3034253,0.5560581,-1.3332734,0.27097982,0.47773153,0.35728636
-6.2239474999999995,0.5179233,-1.4482238,0.50892055,-0.0034732053,0.46746898
-6.771242999999999,0.60606825,-1.2908291,0.46898744,-0.058294000000000006,0.43446480000000004
-7.088589,0.72265625,-1.1248534,0.34229398,-0.060440753,0.44669956
-6.9735336,0.7984854,-1.8970889,0.16929694,-0.08011061,0.40945423
-7.547730400000001,-0.112661555,-2.0626142,-0.05532694,-0.16369443,0.27796113
-9.431622500000001,-0.19122967,-1.7582442999999999,-0.14475761,-0.14294246,0.23911011
-11.319288,0.570567,-2.2851027999999998,-0.12452924,-0.14133677,0.24656266
-10.930191,0.8164610999999999,-3.8948681000000005,-0.0803375,-0.19298105,0.1576556
-12.814581,0.8875784,-2.7605720000000002,-0.0026179939,-0.27070057,0.038414698
-16.90474,-0.9623446,0.59035265,-0.021781709,-0.30316368,-0.045675267
-16.9613,-3.1725087000000003,0.58596647,-0.052132983,-0.27389452,-0.10423106
-12.178394,-0.8580244,-1.2432898000000001,-0.024452062000000004,-0.24460789999999996,-0.12445943
-13.787872,1.6224163999999999,1.5983117,0.0048171086,-0.26963592,-0.11328932
-15.071395,2.3819816,2.359323,0.05857325,-0.32499775,-0.080808744
-13.729119,0.86415356,0.94953084,0.12404055,-0.37503636,-0.051539574000000005
-11.184772,0.10680055,1.2516983,0.19910716,-0.35426694,-0.012671091
-9.693089,1.0545405,1.3502052,0.24808110000000003,-0.25792477,0.019792033
-9.560678999999999,1.6705303,0.72244555,0.2773677,-0.14346607,0.051190507
-8.777439999999999,0.7302986,-0.10406158,0.3284535,-0.066811204,0.060772362999999996
-7.3577843,-0.81833816,-0.62622744,0.3667984,-0.026895522999999998,0.044279
-6.368087999999999,-1.6601776999999998,-0.34389356,0.30398400000000003,0.05347689,0.0400204
-6.2067285000000005,-1.5576676,-0.11674127,0.19591321,0.24031438,0.05490806
-6.5136747,-1.0377237,-0.11213484,0.1187173,0.3936241,0.05438446
-6.889957000000001,-0.4387997,-0.0019632454,0.08625417,0.31431633,0.0426733
-6.847905,0.053994037,-0.06891470400000001,-0.14741051,0.20572196,-0.15587536
-6.5417440000000004,0.27315927,-0.37089056,-0.44977134,-0.08543386,-0.41989129999999997
-6.6487940000000005,0.055689134,-0.8239693000000001,-0.74307394,-0.35266122,-0.56255454
-7.151567,-0.2277652,-1.1614368,-0.8452978999999999,0.1311964,-0.39008108
-7.711647,-0.30131507,-1.1623179,-0.6456670999999999,0.35955527,-0.37304667
-8.168844,0.04904283,-1.2710721,-0.24216443,0.19081685,-0.34536576
-9.004113,0.47525862,-2.0533345,0.10222393,-0.10566223400000001,-0.23038346
-10.068059,0.94094044,-2.5854888,0.24436355,-0.13601351,-0.22985986
-10.861009,1.58002,-3.2722322999999998,0.16557938,-0.054558992,-0.18460347
-11.312613,0.67437,-3.5612314,0.10702359,-0.05030039,-0.034487706
-13.9486475,1.2903502,-2.4170232000000005,0.20497146,-0.09927433,0.07621853
-16.442562,4.115432,0.07720821,0.28108528,-0.028483772999999997,0.13583897
-14.800016000000001,4.056831,0.9612624,0.26405087,0.039095376,0.13636257
-10.711381,-0.9323021,2.804185,0.1719673,0.0662527,0.09962339999999999
-12.232560000000001,-2.8246026,4.540977,0.08998918,0.047088984,0.046931904
-15.040002,-2.441473,3.9152668,0.020245818,-0.0024085543,0.010192723
-12.936197,-0.9898969999999999,2.2942774,-0.0776846,-0.034348078,-0.021729348
-10.433433,-0.7855663,1.4551861000000001,-0.15433946,-0.044453535,-0.044610616
-10.697379,-1.3806498999999999,0.691637,-0.16285667,-0.05668829400000001,-0.03822271
-10.030650999999999,-0.57630354,0.3437882,-0.14369296,-0.02794272,-0.039287362
-8.280087,0.7524018,0.42044097,-0.20490165,0.072640605,-0.062168628
-6.870889699999999,1.4799901000000002,0.20329645,-0.28209758,0.31538099999999997,-0.07867944
-6.149469,1.5157308999999999,-0.28142405,-0.16498597,0.5517335,0.01712168
-6.1040845,1.4211503,-0.5740625,-0.06810275,0.74656457,0.15126769
-6.2601767,1.3387035,-0.6998156,0.021851522999999998,0.6502224,0.10974629999999999
-6.3609343,1.0872357,-0.9052476999999999,-0.04574508,0.43196899999999994,0.18001325
-6.312638300000001,0.580728,-1.1104498999999999,0.09744173,0.10831513,0.39400807
-6.390402,0.5297794,-1.2209088,0.13896312,-0.26323056,0.4770683
-6.8069453,0.81810826,-0.92509085,0.27417377,-0.11046189,0.50260246
-6.947399000000001,0.97177774,-0.9101318000000002,0.2778913,-0.022619467,0.50899035
-7.38593,0.60662365,-1.7920886999999999,0.043668135999999996,-0.02263692,0.43978807
-8.632975,-0.43313023,-2.1021857,-0.052132983,-0.031154128,0.26092672
-11.070138,0.48178999999999994,-2.4531276,-0.05000368,0.037507123999999996,0.17362535
-12.108617,1.2242128,-3.8618858,-0.06597344599999999,0.093392566,0.093235485
-11.311291,0.87560743,-4.719125,-0.054785885,-0.07054621,0.003822271
-14.483282,-0.014326903,-2.7103512000000003,-0.0776846,-0.2014808,-0.07122689
-16.898236999999998,-2.3825371,0.6213049,-0.10323623,-0.21214478,-0.14362314
-14.638839,-2.2946315,1.3323733,-0.04839798,-0.18444639999999998,-0.17502162
-11.531376,-0.24956201,1.6990979,0.05857325,-0.17379989,-0.16011651
-12.993945,1.6829418999999999,2.783547,0.16823229,-0.20840977,-0.12552407
-14.724857,1.7121223,2.4809196,0.2454282,-0.25206044,-0.07655014
-12.684814999999999,0.66436225,1.5632318,0.2885553,-0.29038787,-0.010541788
-10.609167,1.3817034,1.0391123,0.32047737,-0.2403493,0.033632495
-10.327973,2.089803,0.2787138,0.35508722,-0.16369443,0.035220746000000004
-9.88517,0.84331447,-0.58998877,0.3933972,-0.083845615,0.022968533
-8.167369,-0.7694485,-0.8584937,0.42107815,-0.062028999999999994,0.044802602000000004
-6.5673046,-1.5495465,-0.46162125,0.4498237,0.051871184,0.06716027
-5.933972,-1.4512406999999998,-0.015763423999999998,0.34496433,0.29356438,0.0400204
-5.8478184,-0.9684833,0.18070477,0.20230111,0.53417546,-0.05099852
-6.0356483,-0.52904195,0.06959466,0.09264208,0.3734132,-0.12339478
-6.0934919999999995,-0.14808616,-0.39154777,-0.38643336,0.11416198,-0.35707690000000003
-6.0147614,0.056484005999999996,-0.8100638000000001,-0.7308392,-0.51448816,-0.49867547
-6.06933,-0.09832507,-1.0176314,-0.8437096,-0.4303982,-0.5210505999999999
-6.614364999999999,-0.44500550000000005,-0.7331141,-0.74735,0.087545715,-0.40180970000000005
-7.3944635,-0.67973304,-0.56179464,-0.47851689999999997,0.22647393,-0.34536576
-8.612680000000001,-0.5344336999999999,-0.75153995,-0.12931144,-0.058294000000000006,-0.31290263
-9.887048,0.48533339999999997,-2.0848517,0.15172148,-0.24940754,-0.20856684
-10.604465,1.4530505,-3.749636,0.17409660000000002,-0.20521581,-0.19099139
-11.208378999999999,2.0172586,-4.8080834999999995,0.07241371,-0.14720106,-0.08667305
-12.003071,1.2395357,-4.655802700000001,0.06867871,-0.13974851,0.022968533
-15.183979,2.4075422000000004,-3.3065076,0.12404055,-0.16901769,0.09855874
-17.966155999999998,3.9095779999999998,0.5580118000000001,0.15812683,-0.109938286,0.14168583
-14.186775,2.0729284,2.3247411000000002,0.120322995,-0.07106981,0.09377654
-11.417919,-2.298836,3.2883593999999996,0.074543014,-0.086498514,0.030438542000000002
-13.167793,-2.7582355,4.043136,0.03515093,-0.13494886,-0.010018189
-14.219029999999998,-1.5516725,3.3155482000000003,-0.040945426,-0.18444639999999998,-0.030770155
-11.603432000000002,-0.32813972,1.9087821,-0.15859807,-0.18444639999999998,-0.04993387
-9.893692999999999,-0.79147524,1.0566474,-0.253352,-0.16530013,-0.055257123
-10.1478815,-1.1961144,0.7168048,-0.29380873,-0.18233454,-0.03609341
-9.12527,-0.17236337,0.45382570000000005,-0.32520720000000003,-0.15252432,0.011798426
-7.6568103,0.9773706,0.16053599999999998,-0.4375366,0.016737707,0.034679692000000005
-6.5694213,1.6116138,0.017085023,-0.36939892,0.23553218,0.009145525
-6.143244,1.5461946000000002,-0.31644645,-0.10855948,0.4410098,0.08313003
-6.3840337,1.2942383999999998,-0.45133576,0.08251916599999999,0.6544635999999999,0.14381513
-6.581986,1.0624893,-0.3916052,0.043127085999999995,0.59964275,0.035220746000000004
-6.579161,0.7286226,-0.7825113,-0.051591933,0.39203584,0.103358395
-6.524286,0.3682474,-1.1128919,0.21294762,0.102450825,0.35194564
-6.927096000000001,0.46768335,-1.3215035,0.34815827,-0.10300933599999999,0.5302834
-7.7214246,0.7825688000000001,-1.1489103999999999,0.321542,-0.02422517,0.37857938
-7.8157179999999995,0.95691454,-1.4301142,0.18846065,0.058800142,0.31415927
-7.797034,0.40767509999999996,-1.9893901000000003,0.010122909,-0.052447144,0.34288737
-8.644283999999999,-0.42801625,-1.7970207999999999,-0.01860521,-0.08864527,0.24335125
-10.939385000000001,0.21289241,-1.6423169999999998,-0.010611602,-0.0039968040000000005,0.18640116
-11.421892999999999,0.42855249999999995,-3.3401508,-0.015934857,0.01993166,0.1060113
-10.75283,0.7662403,-4.3354683,1.7453292e-05,-0.1317549,0.03255039
-14.933086,0.38930675,-0.76821315,-0.024452062000000004,-0.19723965,-0.03502876
-17.617188,-1.9774286,2.5709705,-0.041486476,-0.15625933,-0.12554154
-14.862685999999998,-2.9125369,2.1665707000000003,0.011728613,-0.11259119,-0.17449802
-10.005484,0.031239542999999998,0.6106076,0.09744173,-0.12482595,-0.16172221
-12.460087,1.7134823000000001,2.168237,0.15065682,-0.15571828,-0.11648327
-14.895181,1.8631965,2.9712810000000003,0.17407914,-0.22225022,-0.043545965
-12.591586,1.2000408999999999,2.0944667000000003,0.22891739,-0.22917919,0.01870993
-10.56044,1.1103733,1.2615718999999999,0.3263242,-0.18126989999999998,0.06822492
-10.350966,1.3836954,0.46435059999999995,0.40458477,-0.10939724,0.059707712
-9.679069,0.5607508000000001,-0.33390495,0.42160174,-0.043406337,0.024033183
-8.002255,-0.8364287,-0.7620361,0.44769440000000005,-0.015184363999999999,0.010192723
-6.5715666,-1.524302,-0.42994115,0.4360007000000001,0.13173746,0.05864306
-6.1017575,-1.2854853000000002,-0.01046745,0.3023783,0.35796702,0.07141887400000001
-6.2359184999999995,-0.677176,0.13453498,0.17355554,0.5251172,0.042132247000000005
-6.356912,-0.2906561,-0.14610375,0.1267109,0.46123815,0.021903882000000003
-6.337356,-0.11087069,-0.37107253,-0.12507029,0.41226423,-0.2612758
-6.1940584,-0.22086032,-0.5041230999999999,-0.35503490000000004,-0.15411258,-0.49443433
-6.260397,-0.40937975,-0.6001880999999999,-0.5785941,-0.5304754,-0.6535909000000001
-6.3198595,-0.6085199,-0.5589312,-0.77396625,-0.07852236,-0.48165852
-6.664250999999999,-0.8002188,-0.99464715,-0.6573956999999999,0.26640704,-0.41777948
-7.966265700000001,-0.32602322,-1.2604611000000001,-0.29806733,0.14875442,-0.33738959999999996
-9.903769,0.7266305999999999,-1.9156103,0.06389651,-0.11472049,-0.29321529999999996
-11.22872,0.9430856,-3.0384142000000005,0.22092378,-0.16530013,-0.33206636
-11.312403,1.4366552,-4.436015,0.13735741,-0.07426376,-0.23785347
-10.750577999999999,0.7002560999999999,-4.7416973,0.10594148,-0.07002261,-0.016947147
-13.458631500000001,1.6001216,-2.804922,0.14268066,-0.13548991,0.10548769999999999
-16.422556,4.197255999999999,-0.44723687,0.12351695,-0.09716248,0.18053685
-15.273744,3.7147858,2.0442364,0.046862092,-0.05084144,0.18001325
-11.888800999999999,-1.6195722,3.1158812,-0.046286132,0.009826204,0.13475688
-12.31834,-2.7196597999999996,4.283456299999999,-0.08674286,0.011955505,0.07993608
-14.438817000000002,-1.441319,4.140724,-0.10430088,-0.053511795,0.0453262
-12.816697999999999,-0.8782889000000002,2.3257465,-0.14102261,-0.10833259,0.008080875
-10.712692,-1.1787517,0.9873495999999999,-0.16659167,-0.08651597,-0.023858652
-10.585426,-0.9806459000000001,0.40541494,-0.13039355,-0.07054621,-0.044610616
-10.129159,0.17710388,0.11929828,-0.112818085,-0.10567968,-0.040352013
-8.241522999999999,1.1280329,-0.047635037000000005,-0.15966272,-0.02370157,-0.022794
-6.763945,1.3327947,-0.2872659,-0.3119078,0.16313593,-0.03715806
-5.8947353,1.2917484,-0.41439799999999993,-0.31457815,0.33348006,-0.0068242373
-5.79619,1.0905302,-0.46699384,-0.1325054,0.5245761999999999,0.09005899
-6.196635,0.8925488000000001,-0.42997947,0.041015237999999996,0.6028366999999999,0.052255157
-6.571298,0.73543173,-0.63051784,0.014398966000000001,0.26001915,0.088453285
-6.4785851999999995,0.46334505,-1.0030938,0.17249089999999997,0.04335398,0.39292598
-6.613388499999999,0.4649827,-1.1655453000000002,0.38435640000000004,-0.29412287,0.6149144
-7.321114,0.48788086,-1.4365018999999999,0.42587778,-0.15624188,0.55689967
-7.865738,0.60240984,-1.2734663,0.32525957,0.047088984,0.47544515
-7.978735,0.4855441,-1.8655906999999998,0.054855697,-0.017313666999999998,0.40678388
-8.517631,-0.3654031,-2.753715,-0.013264502,-0.17008233,0.287543
-9.734316999999999,-0.22272779999999998,-2.5016917999999997,-0.08141961,-0.07054621,0.2401573
-11.175214,1.1091666,-2.3830736,-0.112818085,-0.042324234,0.12891002
-11.372181,0.5928043000000001,-3.498417,-0.0718203,-0.14559537,-0.0030892328
-14.633092999999999,-0.42562205,-2.2880043999999997,-0.08035496,-0.21266837,-0.09519026
-17.636927,-3.2160257999999997,1.3578763,-0.06810275,-0.23076743,-0.18781488
-15.092626000000001,-2.4300667999999996,2.1188972,0.004276057,-0.16423549,-0.22401302
-10.836644999999999,0.88348913,1.3651738000000002,0.1176701,-0.16795303,-0.20217894
-12.963089,2.5965595,2.420672,0.20123646,-0.20734511,-0.15852825
-15.825712,2.079929,2.4883417999999997,0.23317600000000002,-0.26218337,-0.105836764
-13.356657,1.0282426,1.7211724999999998,0.26670375,-0.27867672,-0.031311207
-10.778255,1.2932999,0.6445191,0.30344296,-0.23237313,0.026703538
-9.879176,1.5624177,0.5714001999999999,0.36253979999999997,-0.14240141,0.064489916
-9.191982000000001,0.7565294,0.09033802,0.4498237,-0.07426376,0.06661922
-7.6160994,-0.5586918000000001,-0.37830302,0.50731486,-0.079063416,0.047996555
-6.166276,-1.3778248,-0.260968,0.46261698,0.068382,0.030962141000000002
-5.605956,-1.4298843,0.058590904000000006,0.23795820000000004,0.4623028,-0.0062831854
-5.6477017,-0.99090266,0.19455282,0.03141593,0.53256977,0.005410521
-5.9631805,-0.61382544,0.03923618,-0.04839798,0.34252086,0.0038048178
-6.1860040000000005,-0.29324183,-0.30402529999999994,-0.37152824,0.21263346,-0.21549580000000002
-6.35764,-0.15351622,-0.5932257,-0.57327086,-0.44369759999999997,-0.45130724
-6.635443700000001,-0.15351622,-0.7437444000000001,-0.75906116,-0.5496390999999999,-0.67594856
-7.264889200000001,-0.38131016,-0.5651178000000001,-0.881496,0.028989919,-0.54447293
-7.908786,-0.482288,-0.6739774000000001,-0.69251174,0.28822368,-0.39114574
-8.658372,-0.43603203,-1.1992364,-0.24909338,0.049741883,-0.31930798
-9.613706,0.21132182,-2.604556,0.11873475,-0.14133677,-0.18460347
-10.633386999999999,1.6029276000000001,-3.7546256000000002,0.24169320000000002,-0.12323769999999999,-0.1425585
-11.073527,2.174893,-4.5028615,0.15810938,0.0045029493,-0.09944886
-11.351044,0.6171965,-3.996775,0.1272345,0.024731316,-0.022794
-14.436623999999998,1.7479109,-2.2242517000000004,0.16610299,-0.02316052,0.061837014
-16.813377,3.748975,1.4900361999999998,0.19910716,0.015673056,0.12943362
-14.336854,3.6447604,2.6670449,0.13309881,0.064647,0.11452851
-10.793223,-1.3837816,3.2363958,0.054855697,0.06731735,0.06716027
-12.062324,-2.7479784,4.582042700000001,0.023439772,0.013561208,0.028309241000000002
-14.463459,-2.0706491000000002,4.697739599999999,0.0016231562,-0.054576445,0.0022165682
-12.58695,-1.1577402,2.4235352999999997,-0.05958554,-0.09714503,-0.04194026
-10.365399,-0.8129656,1.148307,-0.12027064,-0.08330456,-0.06323328
-10.184550999999999,-0.68173456,0.7361691,-0.14369296,-0.07374016,-0.043545965
-9.497578,0.023769633999999998,0.41993339999999996,-0.13624041,-0.055641095999999994,0.025638886
-8.240191000000001,0.82468754,0.37209725,-0.17615607,0.077422805,0.046408303
-7.127414,1.3863769,0.13103944,-0.24270548,0.30473449999999996,-0.0057595866
-6.4993095,1.4967303,-0.4424005999999999,-0.08513716,0.49317768,0.030438542000000002
-6.5195456,1.2891244,-0.60106915,0.12616985,0.7151487,0.15020303
-6.828761,0.9284905999999999,-0.51952267,0.16662659,0.6299766,0.11932816
-6.687714,0.37549699999999997,-0.70877945,0.099571034,0.30314624,0.1576556
-6.423662,0.07998549,-1.0982203000000001,0.36945128,0.08967502,0.36793286
-6.4235663,0.23942016,-1.3312049,0.47272244,-0.15465362,0.51909584
-7.124560000000001,0.47352520000000003,-1.2988256999999999,0.43758896,-0.108856186,0.5116607
-7.4650345,0.8001996,-1.173743,0.25127506,-0.029024825,0.39720201
-7.357765,0.7388698,-1.6844933000000002,-0.021781709,-0.10513864,0.25666812
-8.003107,-0.22679794,-2.1820564,-0.10749483,-0.10726794,0.15074408
-10.284207,-0.014049175,-2.145588,-0.12079424,-0.02370157,0.15552629999999998
-11.6691,0.9155044,-3.0818164,-0.1303761,-0.00026179937,0.13742723
-11.082013,0.887272,-4.3229226999999995,-0.054785885,-0.12110839999999998,0.07195993
-14.553605,-0.37019145,-1.4562972,0.0016231562,-0.2398257,-0.016406095
-17.166292000000002,-2.7688177000000005,1.7903074,0.017592918,-0.23076743,-0.10210176
-15.152557,-2.3578386,1.5340798999999998,0.067631505,-0.20202187,-0.14308210000000002
-12.138344,0.9625553,1.392822,0.13735741,-0.23183209,-0.12445943
-13.425533999999999,2.7507942,2.1870077,0.17781414,-0.28241172,-0.09519026
-14.679808999999999,2.0411718,2.0638115000000004,0.20123646,-0.35320228,-0.05099852
-12.424097,1.1060253,1.4675403,0.2443461,-0.34842008,-0.003630285
-10.196387,1.2802083,1.0197575,0.30398400000000003,-0.26218337,0.036808994
-9.83789,1.0983832,0.37948096,0.3385764,-0.16688839,0.054925512999999995
-9.139213999999999,0.15443559,-0.05717354,0.40619048,-0.12110839999999998,0.06290167
-7.6633320000000005,-0.78876495,-0.3919787,0.4759164000000001,-0.14453071,0.038414698
-6.497078,-1.4061626,-0.29723534,0.39235002,-0.11046189,-0.014800391999999999
-6.1448526,-1.4233912,-0.08850885,0.15919147,0.10883873,-0.019058995
-6.4060025000000005,-0.8735867,-0.0045872903000000005,-0.0739496,0.3702018,-0.015341444
-6.804005,-0.33120429999999995,-0.19407399,-0.1341111,0.3084695,0.030962141000000002
-7.014877,0.12479537,-0.35660198,-0.28103292,0.09180432,-0.0951728
-6.871224400000001,0.30433175,-0.4445937,-0.6366263000000001,-0.08970992,-0.3182259
-6.8964024,0.07020757,-0.6460130999999999,-0.73670346,-0.48682470000000005,-0.5151863
-7.2791104,-0.3280152,-1.0093955,-0.9533511999999998,0.087545715,-0.41032690000000005
-7.8333683,-0.47502878,-1.165756,-0.81814057,0.33028612,-0.34590679999999996
-8.215282,-0.21609107,-1.3746357,-0.383763,0.1311964,-0.3714584
-8.795608,0.18078139999999998,-2.0847653999999998,0.07401941,-0.13974851,-0.24637067
-9.7819605,1.18739,-2.7546918,0.22359413,-0.19722220000000001,-0.16491616
-10.905339999999999,2.789446,-3.4072362999999997,0.1831374,-0.099815376,-0.12339478
-10.874196000000001,1.3709295,-3.95819,0.1219287,-0.052447144,-0.028117253999999998
-13.36181,0.923434,-2.2771924,0.17355554,-0.07213446,0.05173156
-15.99456,3.0040720000000003,0.15081555,0.25979227,-0.017837266,0.10494665
-15.061520999999999,4.1359453,2.241375,0.2651155,0.026860617000000003,0.122522116
-11.397943,0.08386410000000001,2.3886185,0.20336576,0.020472713,0.09538224
-11.071162,-2.6943292999999997,3.5744953,0.14639822,-0.011990411999999999,0.044802602000000004
-13.828592,-2.7422802,4.5626206,0.07880162,-0.082780965,-0.0030892328
-14.063675,-1.6249063999999998,3.140417,-0.038816124,-0.13707817,-0.059498273
-11.212449000000001,-0.55373096,1.6182889,-0.17615607,-0.14240141,-0.10848966
-10.612548,-0.8456991,1.0509013999999999,-0.26879814,-0.15411258,-0.11541862
-10.091982000000002,-0.78793174,0.7022098000000001,-0.28316220000000003,-0.12058479999999999,-0.068032935
-8.690482000000001,0.33819535,0.57190776,-0.34704128,0.07422885,-0.03396411
-7.3664603,1.222623,0.30450416,-0.31456068,0.357426,-0.042481314000000006
-6.5342746,1.4601375,-0.20526928,-0.12985249,0.5426751999999999,-0.009477138000000001
-6.245447599999999,1.4055784,-0.4313681,-0.0010297442999999999,0.6800151999999999,0.12784536
-6.2562885,1.123915,-0.5184117,0.026110126,0.5059535,0.23218115
-6.310359,0.78784555,-0.7989068,0.2496868,0.36383134,0.49195597
-6.150426400000001,0.52803636,-1.1885296,0.49295079999999997,0.16685347,0.62236696
-6.2366366,0.6855939999999999,-1.3401591999999998,0.25713935,-0.12643164,0.41369540000000005
-6.823858,0.92346275,-1.0324277,0.12512265,-0.002391101,0.48450340000000003
-6.9193387,1.0798521,-1.0003071,0.053249995999999994,-0.044453535,0.3232175
-6.9456940000000005,0.50697696,-1.7881048,-0.13463470000000002,-0.13814281,0.17201965
-7.785972599999999,-0.4613148,-1.9356929,-0.1974491,-0.12430235,0.23643975
-10.340548,0.09305783,-1.7811136000000003,-0.19905479999999998,-0.20734511,0.27157325
-12.46543,1.1029129999999998,-2.4331028,-0.16498597,-0.19617501,0.15817920000000002
-13.686827,0.5211315,-2.1946209999999997,-0.09046041,-0.24567254,0.01818633
-16.8728,-1.9713856,1.0174879000000001,-0.09897762,-0.23874359,-0.05045747
-15.463201000000002,-3.6254056000000006,-0.5167069999999999,-0.09737192,-0.1945693,-0.10477211
-12.280052,-0.74251854,-1.6111923000000001,-0.063844144,-0.14826572,-0.13191198
-16.128989999999998,2.374397,3.3036152999999997,-0.039898228,-0.15837118,-0.12020083
-14.798417,2.8968213,2.1941903,-0.015393803999999999,-0.23609069,-0.08506735
-13.520862,0.7134050999999999,1.3645418,0.03728023,-0.326586,-0.047804568
-11.392866,-0.078951195,1.3689662,0.10328858,-0.32499775,8.726646e-05
-9.733206,0.30575868,1.1422736999999998,0.16397369,-0.26429522,0.038955748
-9.421615,0.655044,0.76330984,0.19432496,-0.20788616,0.07089528
-8.589438000000001,0.0756855,0.0054970869999999995,0.2587276,-0.17008233,0.091106184
-7.145992999999999,-0.9484965,-0.4383496,0.3258006,-0.13548991,0.12093386
-6.1904955,-1.3930327,-0.40109584,0.33485886,0.041765727,0.13742723
-5.9397655,-1.2178538,-0.23377943,0.25766295,0.4021413,0.13955653
-6.081368,-0.9118364999999999,-0.21693382,0.124581605,0.49637163,0.11665781
-6.175096,-0.58146536,-0.16733554,-0.04946263,0.25043730000000003,0.06876597599999999
-6.0397186,-0.30088413,0.0063302694,-0.37313393,-0.15517722,-0.18833847
-6.002254,-0.16960526,-0.10653239999999999,-0.6275854999999999,-0.36332518,-0.56470126
-6.4092970000000005,-0.21941422,-0.5629534,-0.8458389000000001,-0.10513864,-0.4523719
-7.165261699999999,-0.42109218,-0.96151143,-0.8250695,0.30154052,-0.3714584
-7.9824600000000006,-0.4797214,-0.82711047,-0.49609238,0.31696925,-0.44865432
-8.752991999999999,-0.41429266,-0.8314296,-0.10217158,0.027384216,-0.29215068
-9.566195500000001,-0.0355108,-2.0186088,0.0575086,-0.08970992,-0.17236872
-10.401686,0.81002545,-3.4387536,-0.009546951,0.00715585,-0.12871803
-11.186391,1.5382075000000002,-4.1682096,-0.12239994,0.071575955,-0.05312782
-12.264096,1.1029321,-3.5238724,-0.103777274,0.03164282,0.025638886
-15.843841000000001,3.0648177000000003,0.42679042,-0.049480084,0.09019861,0.06874852
-17.12473,5.345601,3.190044,-0.06436774,0.11948524,0.08100073
-12.069410000000001,1.0062064,2.5634432,-0.13624041,0.11681489,0.05969026
-10.95784,-2.1064186,3.9804657,-0.17243853,0.099239424,0.024033183
-14.563382999999998,-2.7368598,4.917690299999999,-0.16179202,0.038030725,-0.002565634
-14.681312,-1.65877,2.8557463,-0.15968017,-0.04712389,-0.019600047
-11.490089,-0.6952762,1.7277803,-0.19053759,-0.09822713,-0.019600047
-10.499359,-0.6400946,0.9680428,-0.2091777,-0.109938286,-0.022794
-9.678550999999999,-0.11796711,0.47451162,-0.20491910000000002,-0.08225737,-0.029722957
-8.244223,0.7601303,0.5378526,-0.22141246,0.026319565,-0.043545965
-7.0424866999999995,1.3338098999999999,0.4676642,-0.17671458,0.18708184,-0.056862827000000005
-6.299844,1.4672531,-0.048860867,-0.04096288,0.4463156,-0.027052603999999997
-5.995282,1.3818278,-0.32223082,0.07187266,0.6390174,-0.011623893
-6.015939,1.0415065000000001,-0.26820803,0.08251916599999999,0.55758035,-0.086149454
-6.2928432999999995,0.5764663000000001,-0.45960054,-0.01754056,0.20998056,0.038414698
-6.343562,0.019115306000000002,-0.92367345,0.2592512,-0.0029496064,0.40411353
-6.4226375,-0.0061387336,-1.2737247999999999,0.5195496000000001,-0.25579545,0.55316466
-6.853335400000001,0.2965075,-1.1992652,0.5227436,-0.11419689,0.43179446
-7.1931009999999995,0.63811225,-1.0408361,0.32100096,-0.0066671576,0.40250784
-7.751075,0.42333317,-1.3748846000000001,0.1272345,-0.07534587,0.29497808
-8.924042,-0.19521362,-1.8332593000000001,0.06867871,-0.15306537,0.15817920000000002
-10.7573395,0.24245602,-2.4594197,0.0053407075,-0.0636347,0.13475688
-11.230635000000001,0.44405738,-3.736803,0.045256387,-0.06469935,0.08791223
-11.038821,0.5490767,-4.2298837,0.13733996,-0.19352211,0.036808994
-15.574857000000002,-0.29349083,-0.5994028,0.16236798,-0.26698299999999997,-0.058468528
-18.497822,-3.0234457999999997,3.1056147000000003,0.18259634,-0.20362756,-0.13992305
-13.372008,-2.1761281,1.8966386000000002,0.24061109,-0.15571828,-0.18090338
-10.827883,0.82143146,1.5823183,0.28639108,-0.19723965,-0.18994418
-14.277725,2.9725642000000003,3.0016105,0.32578316,-0.25366616,-0.16866861
-15.150891,2.497248,2.35418,0.36623988,-0.3170216,-0.12128293
-12.075415,1.447563,1.353787,0.39500290000000005,-0.3239331,-0.056339227
-10.399425500000001,1.5315708000000001,0.8634353000000001,0.38220966,-0.2653773,-0.014276793000000001
-10.381373,1.0758106,0.8544427,0.34761724,-0.16051793,0.016563175
-9.239253,-0.13538732,-0.031182082000000003,0.38381535,-0.08225737,0.019233529
-7.2343965,-1.3233231,-0.27260378,0.3891386,-0.016790068000000002,0.001134464
-5.932621,-1.5209118000000001,-0.016472107,0.30236083,0.09337512,0.008045968
-5.6807989999999995,-1.028367,0.20633231,0.17566739,0.37339574,0.0474555
-5.928819,-0.6107895999999999,0.27378175,0.043109633,0.5506514,0.02242748
-6.2870297,-0.29595205,0.19548178,-0.12348204,0.33932692,-0.09253736
-6.6376753,-0.0020111294,-0.08336610000000001,-0.4556531,-0.0029496064,-0.34805354
-6.8681602,0.21626346,-0.5483584,-0.61960936,-0.35534903,-0.5934643000000001
-7.1375465,0.29450595,-0.9051040000000001,-0.85329145,-0.012531463999999999,-0.51468015
-7.550440299999999,0.29667032,-1.0527973999999998,-0.82348126,0.40905282,-0.3427303
-7.946758,0.35771290000000006,-0.9430951999999999,-0.48172832,0.36753142,-0.28469809999999995
-8.691019,0.18142304,-1.4066988,-0.06012659,0.039095376,-0.2059314
-9.515056,0.14018529999999998,-2.1269035,0.1932254,-0.08492772,-0.14152876
-10.013634,1.0749582,-2.8880587,0.16447982,0.011397,-0.13192944
-10.607549,1.646368,-3.6756263,0.053232543,0.06675884,-0.07550294
-12.317833,1.2401389999999999,-2.8361042000000003,0.06707300000000001,0.067299895,0.0037873646000000003
-15.265104000000001,3.7730513,-0.30991504,0.15437438,0.0715585,0.07885397
-15.881803,5.003546,2.0620303,0.17140879,0.11894419,0.100146994
-12.073336999999999,0.63167655,2.16907,0.14266321,0.13011430000000002,0.051173054
-11.979762,-2.9079973999999997,3.6581295,0.11072369,0.09443977,-0.0052359877
-14.191304999999998,-3.0080942999999998,4.4034830000000005,0.09475392,0.03323107,-0.016406095
-13.771189999999999,-1.1749783999999999,2.9235022,0.058032195999999994,-0.025830872,-0.036110863
-10.934424,-0.055918977,1.7008313000000002,-0.005305801,-0.038083083999999996,-0.058468528
-10.47966,-0.62240624,1.0813458999999999,-0.06012659,-0.05724680000000001,-0.061662484000000004
-10.134646,-0.74688554,0.52368855,-0.09740683,-0.11686724400000001,-0.036128316
-8.762922,0.24622928,0.5013458,-0.20546016,-0.006684611,-0.004712389
-7.411060000000001,1.3403124,0.3082487,-0.30234340000000004,0.23338543,-0.023335052999999998
-6.613982000000001,1.5766393,-0.15267345,-0.22249457,0.4569621,-0.041975167
-6.35853,1.4932157,-0.37391683,-0.11337659,0.6927734999999999,0.07937758
-6.4323487,1.2801701,-0.34963006,-0.02713987,0.7161959,0.14378022
-6.442921,0.8547013000000001,-0.45081859999999996,-0.045238934,0.28714156,0.21352358
-6.280115599999999,0.35129642,-0.8288534,0.30501375,0.13117895,0.43497095
-6.219954,0.19041565,-1.1660431999999998,0.2491283,-0.037018432999999996,0.45200536
-6.6397824000000005,0.5414439,-1.2697216999999998,0.07185520000000001,-0.024242622999999998,0.48022735
-7.068353999999999,0.9379812,-1.2447455,0.018622663,0.028431414,0.5089555
-7.2087307,0.99616027,-2.1303509999999997,-0.12882276,-0.113149695,0.31360075
-7.96955,0.20290379999999997,-2.451969,-0.114964835,-0.059917152,0.19170697
-9.887344,0.48794788,-2.6280386,-0.04363323,0.0023561944,0.19542451
-11.77567,1.1728716000000001,-3.3219453999999997,-0.058555797,-0.05300565,0.119834304
-11.815616,0.81741875,-4.058804,-0.019146262,-0.16264723,0.014433873
-15.2281275,-0.51240706,-1.2540445,-0.012234758,-0.23664919,-0.03932227
-17.576802999999998,-3.305569,2.3452356,-0.013299409,-0.21162117,-0.06752679
-12.743751,-2.4220414,-0.8826847,0.022881266,-0.19086921,-0.11011282
-13.18801,0.61804885,1.082409,0.070249505,-0.22493804,-0.11917108
-15.151782,2.4458687,3.1356189999999997,0.1346696,-0.28084093,-0.090425506
-14.739137,1.1715212,1.8306544999999999,0.21238911,-0.34524357,-0.05368633
-12.423062,-0.04582502,2.1082861,0.27572712,-0.3777067,-0.0068416907
-10.669453,0.7805671999999999,1.2850639,0.3145956,-0.32873276,0.043703045999999995
-10.560536,1.1186668,0.36922422,0.34547046,-0.23984315,0.06819001599999999
-9.613783,0.24912147,-0.23227587,0.40402627,-0.21587977,0.05222025
-7.993282000000001,-0.8534563000000001,-0.6266679,0.45671776,-0.21535617,0.038920842000000004
-6.671653699999999,-1.3154606000000002,-0.42347682,0.41467276,-0.08653343,0.07670722
-5.9897849999999995,-1.2240978,-0.20416793,0.27518606,0.22591542,0.09426523
-6.0685353,-0.8922711,0.022237346,0.13625786,0.39838886,0.039985493
-6.2297797,-0.45976335,0.10403285,0.00424115,0.3339862,-0.016423548
-6.0293756,-0.121749945,-0.07406703,-0.38592719999999997,0.30363494,-0.21605429999999998
-5.889918,0.0673058,-0.41005015,-0.6190857,-0.18181095,-0.33848915
-6.131321,-0.1799865,-0.62054837,-0.7250272,-0.28829348,-0.45188320000000004
-6.6118179999999995,-0.6615371,-0.6457258000000001,-0.6994756,0.16842428,-0.39543924
-7.196146499999999,-0.7659722,-0.6132604,-0.49506265,0.22378612,-0.35072392
-8.169639,-0.32875264,-1.2367774999999999,-0.13414600000000002,0.04173082,-0.32944834
-9.646142999999999,0.65501523,-2.3313203,0.15542157,-0.09133308,-0.25970498
-10.90217,1.216331,-3.4959652,0.21345377,-0.10782644,-0.23574162
-11.502961,1.4163331000000001,-4.4687295,0.14477506,-0.034382987999999996,-0.15856317
-11.68945,0.9908068999999999,-4.1135736000000005,0.11869984,-0.01680752,-0.038798667
-13.982656,2.087064,-2.9275916,0.17406169,-0.029583331,0.029338984
-16.152826,3.6453733,0.23602998,0.22410028,0.032148965,0.07936012
-14.13325,2.592365,2.2642922000000003,0.17884389,0.07579965,0.093724184
-11.755971,-1.6852307,2.9898982000000003,0.09208357,0.06462954,0.06393141
-12.484267,-2.6655316000000004,3.8910565000000004,0.032463122000000004,0.027890362000000002,0.022410028
-13.414597500000001,-1.9040703,3.7523940000000002,-0.006387905,-0.030647982,-0.0004712389
-12.140796,-0.6770706999999999,2.1375146000000003,-0.086236715,-0.07855727,-0.028134707000000002
-10.443613000000001,-0.39557958,1.1089368,-0.15917403,-0.08761553,-0.04145157
-10.716236,-1.1241828999999999,0.74284416,-0.18472564,-0.13072516,-0.019093903
-9.915030999999999,-0.5804694,0.44789767,-0.17886133,-0.113149695,0.011222467
-8.157275,0.60174906,0.29224584,-0.26296875,-0.023195425,-0.005253441
-6.937228,1.4728649999999999,0.08173805,-0.33695325,0.2019695,0.021345377000000002
-6.4109063,1.782531,-0.42695320000000003,-0.1889668,0.43938664,0.119834304
-6.3386874,1.4842614,-0.6126188,-0.06600835,0.71884876,0.19966567
-6.522581,1.0262028,-0.62121874,-0.028745572999999996,0.64912283,0.12355186
-6.5469065,0.48629110000000003,-0.8653985999999999,-0.04951499,0.30735248,0.17037904
-6.337605,0.13396037,-1.2991322,0.13678145,-0.049811699999999993,0.3657512
-6.3954206,0.22044852,-1.444125,0.25762805,-0.27551767,0.59625685
-7.043607000000001,0.5342422,-1.256707,0.40507346,-0.15840608,0.5174552
-7.329465400000001,0.89303726,-1.159081,0.29010862,0.11040953,0.36629224
-7.884499000000001,0.68484706,-1.6189687,0.008499754,-0.062063905999999995,0.26408577
-9.287866000000001,-0.28433537,-1.8231751,-0.07826056,-0.12168436,0.18156660000000002
-10.862225,0.04696466,-2.3684402,-0.11550589,-0.024260076000000002,0.15175638
-11.337474,0.4913668,-4.037936,-0.09477138,-0.015219271000000001,0.07881907
-10.912302,0.47421476,-5.1488934,-0.052167892,-0.15414748,0.025062927999999998
-14.747229999999998,-0.06779421,-1.3707091999999998,-0.06815511,-0.23347269,-0.046792275999999994
-18.102808,-2.6243227000000005,2.0389118,-0.079325214,-0.19514526,-0.1404641
-15.244984,-2.6133667999999997,2.0869584,-0.0016057029000000002,-0.16959365,-0.17826793
-10.457317,0.6678003,2.1007972,0.105906576,-0.20685643,-0.16336282
-12.815826,2.150357,2.0962671999999998,0.16285667,-0.25476572,-0.12290609
-14.990651999999999,1.8059081000000001,1.9727550999999999,0.19055505,-0.28031734,-0.06700319
-12.471024,1.1807628000000001,0.9634555,0.21237166,-0.2696708,-0.0042062434
-10.438652000000001,1.2446688,0.57628435,0.23099433,-0.19727457,0.020263273000000002
-10.2235,1.2179111999999999,0.34032142,0.2778564,-0.10997319,0.021327923999999998
-9.114506,0.17947894,-0.28210402,0.3199014,-0.057264253,0.005375614
-7.2907557,-1.0186945,-0.55634546,0.3635521,-0.045553092,0.0016406095
-6.08925,-1.6047376,-0.18348204,0.2677335,0.047577675,0.01654572
-5.755929,-1.2416809,0.15709795,0.0643852,0.33077478,0.005899213
-6.0338,-0.6206824000000001,0.16429012,-0.037821285,0.36164966,0.039426986000000004
-6.3879695,-0.20720379,0.04255933,-0.10700613,0.3286455,0.009093165
-6.513062000000001,0.0073645646,-0.23935314,-0.42320743,0.101874866,-0.15749851
-6.5576134,-0.05551675,-0.582222,-0.49347440000000004,-0.36229545,-0.37789870000000003
-6.8313084,-0.30133423,-0.8447893,-0.7527256,-0.14510667,-0.5418549
-7.333411,-0.3662458,-0.7950186,-0.8804837,0.2620961,-0.3390302
-7.958336,-0.21054609,-0.7491266,-0.72663295,0.2802126,-0.30283207
-9.024216000000001,0.12946886,-1.4544871000000001,-0.32951817,-0.0045727626,-0.29485592
-10.318089500000001,0.42979753,-2.7288058,-0.040474183999999996,-0.13978341,-0.18999654
-10.999432,1.1899374,-3.7644322,0.0015707964,-0.092415184,-0.13144074
-10.845599,1.3624636,-4.338791400000001,-0.07241371,0.007120943,-0.04998623
-11.408984,0.123646155,-3.7817852,-0.06867871,-0.0013788101,0.016528267
-15.042855,1.4001962,-1.242313,0.0063529983,-0.0067020644999999995,0.08094837
-17.195032,4.2528877,3.2403986000000002,0.029251719,0.03213151,0.1150172
-13.985547,2.9534873999999998,1.9907022,-0.015987216000000002,0.04490732,0.10595894
-10.393583999999999,-1.7566354,1.745986,-0.054838244,0.03799582,0.09213593
-12.133699,-2.4216007999999998,3.5038949999999995,-0.041538835,-0.049288097999999995,0.086812675
-13.891637,-1.9052291000000001,3.551032,-0.055379298,-0.12754866,0.07508406
-11.751316000000001,-0.7777899,1.8795921000000002,-0.12938125,-0.172264,0.054855697
-10.444695,-0.873558,1.0735122,-0.18952529999999998,-0.19514526,0.042620942
-10.151674,-0.83728105,0.42729798,-0.20495401,-0.19514526,0.05539675
-8.686728500000001,0.020551826999999998,0.17929699,-0.20123646,-0.10890854,0.07243116
-7.334962400000001,0.9525761999999999,0.17108008,-0.23104669,0.04490732,0.060720004
-6.4646606,1.1903588,-0.04501099,-0.11126474,0.16788322,0.06391396
-6.1684019999999995,1.0644813,-0.27592698,0.052132983,0.35472070000000006,0.08414232
-6.3510704,0.93118167,-0.27468200000000004,0.1357168,0.49738392,0.03249803
-6.698037599999999,0.8770919,-0.34765723,0.07661995,0.39091885,-0.05000368
-6.7431545,0.5446905,-0.7807779,0.18893189999999999,0.2541025,0.116605446
-6.689849400000001,0.34166217,-1.3143498,0.37791613,-0.095609136,0.34976399999999996
-7.160434700000001,0.22363760000000002,-1.446232,0.46202356,-0.18662806,0.41577232
-7.7531815,0.28633696,-1.2285893,0.40612066,0.0039269909999999995,0.2773677
-8.113863,0.5255081,-1.4426118,0.16924457,0.010838495,0.23904029999999998
-8.841624000000001,0.008590396,-1.9573077,-0.038885936,-0.10464994,0.21296507
-10.111423,-0.16617675,-1.8432959,-0.10967649,-0.15257668,0.16290903
-11.032492,0.35404497,-2.7114333999999998,-0.11978195,-0.046635196,0.14908603
-10.473751,0.5368662,-4.121848,-0.06496116,-0.07272787,0.08199557
-11.583091,0.8567603000000001,-3.2766564,-0.029827677,-0.14191271,0.008552114
-16.367529,-0.40825927,0.9760011000000001,-0.03515093,-0.19036306,-0.10215412
-17.592144,-2.6774166,1.8369273999999998,-0.06602581,-0.14193018,-0.20064305
-12.222113,-1.3064775,1.1740495000000002,-0.052185345,-0.12702507,-0.21980676
-10.521444,1.7107146,1.6571514999999999,0.0004886922000000001,-0.18664551,-0.19586085
-13.878354000000002,2.5841383999999996,2.4329495,0.061714843,-0.25743607,-0.14474015
-14.517663,1.8880675,1.8627751000000001,0.1314582,-0.2941578,-0.07714355
-11.753998,1.101237,1.2928977,0.21502456,-0.29256955,-0.011676253000000001
-10.277474,1.4553394,1.1958175,0.25813420000000004,-0.21430898,0.030368729
-9.927433,1.5394238,0.7218518,0.25867525,-0.16055284,0.01972222
-8.811744000000001,0.24009055,-0.26935726,0.26612779999999997,-0.11531389999999998,-0.025516712999999996
-6.927287599999999,-1.1312029,-0.5033569999999999,0.34650022,-0.064734265,-0.010611602
-5.9133143,-1.5022275,-0.31887895,0.3305479,0.1465902,0.057526052
-5.897646400000001,-1.0958165000000002,0.0021835120000000003,0.203837,0.5074894,0.03728023
-6.1474385,-0.5696572,0.20139067,0.0670381,0.58522636,-0.0058119465
-6.507296599999999,-0.24694754,0.17935443,-0.13737486,0.28817132,-0.17830284
-6.541237000000001,-0.22021867,-0.18670943,-0.42481315,0.046513025,-0.48968703
-6.600239299999999,-0.31694442,-0.48565903,-0.6468016,-0.25317746,-0.49874529999999995
-6.9511433,-0.35033876,-0.7944344,-0.6989695,0.05607743,-0.2836858
-7.3906517,-0.40675572,-0.62153476,-0.58185786,0.21951006,-0.25973989999999997
-7.755528,-0.28147194,-0.7653784,-0.17303194,0.09494591,-0.24696408
-8.700403999999999,0.30559590000000003,-1.5761508999999998,0.25919884,-0.077510074,-0.20703095
-10.095400999999999,0.54402965,-2.6757886,0.40879099999999996,-0.06312856,-0.22619466
-11.132789,0.25533682,-3.5421447999999995,0.25867525,0.007644542,-0.15219271
-11.657195,0.7747349,-4.080706,0.21181315,0.0033859387,0.023439772
-13.4525795,1.5887347,-2.5181255,0.2842094,-0.056217055999999994,0.12299335
-16.319109,4.6893697,0.01415452,0.36194637,-0.027471482999999998,0.15547393
-15.880338,4.191902,1.6078118000000001,0.35608208,-0.0008552113400000001,0.12245230000000001
-12.565928999999999,-0.9631299000000001,2.4898837000000005,0.29061478,0.013508848,0.07189011
-13.274613,-2.4653668,4.1893454,0.20011945,-0.008831366,0.019198623
-13.894434,-1.5769457,4.2462125,0.12452924,-0.016283922,-0.017523106
-11.623649,-0.21407995,2.7316117,0.052656583,-0.040788345,-0.03190462
-9.8114,-0.67145866,1.3147902,0.010070549,-0.08550368,-0.05639159
-10.344752,-1.0851576,0.91008395,0.008464847,-0.13554227,-0.0760789
-10.014648,0.16575538,0.58877254,-0.028780478999999998,-0.15896459,-0.06970845
-8.179867,1.2156893999999998,0.31449276,-0.18421949999999998,-0.08922123,-0.09843657
-6.7471570000000005,1.5349226999999999,0.07267839,-0.32155946,0.11517428,-0.1319818
-6.087276999999999,1.3484143999999998,-0.23767719,-0.19219565,0.36376149999999996,-0.030839968
-6.030476999999999,1.1370924999999998,-0.5169465,-0.036233034,0.6453704,0.11074114
-6.067117700000001,1.0454521,-0.68930984,0.017523106,0.6442883,0.06815511
-6.232433,0.98795295,-0.75372344,-0.076689765,0.48247883,0.15280357
-6.3523245,0.9227445,-1.0295259,0.1303761,0.19928169,0.43545964
-6.410561,1.0551343,-1.2741846000000001,0.23310618,-0.28033477,0.49986228
-6.954811,1.1679683,-1.1199023000000001,0.28475046,-0.14725342,0.40777870000000005
-7.2552642999999994,1.259647,-1.3693876,0.31562534,-0.04930555,0.45568800000000004
-7.430606,0.8598249,-2.2621472000000002,0.1915848,-0.06527531,0.43333036
-8.660058,-0.16577452,-2.3041508,0.08724901,-0.15257668,0.25179866
-11.007419,1.0686951,-1.9691352,0.06595599,-0.07646287,0.19165461
-12.186113,1.4622347,-2.8069525,0.020176006,-0.022689281000000002,0.1267109
-11.367486999999999,0.8406138000000001,-4.485834,-0.003228859,-0.16800539,0.015987216000000002
-14.583101000000001,0.201745,-2.4024186000000003,-0.055920347999999995,-0.24626596,-0.06436774
-17.794483,-2.4427943,1.1620593000000001,-0.06550220400000001,-0.23987806,-0.14582226
-14.499812,-2.5918189999999997,0.8328949000000001,-0.0027052604,-0.19516271,-0.19320795
-10.861756,-0.104798995,0.90761316,0.089919366,-0.17919296,-0.19107865
-13.459704,1.7085407,3.4356410000000004,0.182544,-0.22710223,-0.16072737
-15.386472,1.5608472,3.0009785,0.23842943,-0.27555257,-0.11655309
-12.8579645,0.41011718,1.9800813999999998,0.29379126,-0.33302626,-0.04839798
-10.647427,1.10185,1.1993226000000001,0.3278601,-0.28831095,0.014922565
-10.281804,2.0825436,0.38725734,0.34595916,-0.14140658,0.05164429
-9.740464999999999,1.2727671999999999,-0.29699594,0.36618754,-0.03600614,0.05057964
-8.107743,-0.38579208,-0.7395881,0.4300666,-0.004590215999999999,0.040997785
-6.5505260000000005,-1.3936745000000001,-0.40324104,0.44338346,0.10292207,0.056967545
-5.818446,-1.4800571000000002,-0.07090668,0.3081728,0.35205036,0.055379298
-5.8025875,-1.1445339,0.06402095,0.17774433,0.45690975,0.0069289569999999995
-6.0392876,-0.6794744,0.042415675,0.103759825,0.29190633,-0.02125811
-6.1505413,-0.1931163,-0.16451997,-0.23638739,0.22961551,-0.23577653
-6.1192923,0.12809937,-0.35096124,-0.7788357,-0.080721475,-0.40880847
-6.2773957000000005,0.0613586,-0.54784125,-0.8773072000000001,-0.46239007,-0.4481831
-6.732457000000001,-0.42083362,-0.5386761999999999,-0.7969173,0.03213151,-0.36939892
-7.1706247,-0.64016163,-0.5701169,-0.6633124,0.22961551,-0.3683343
-8.075269,-0.30062556,-0.8599015,-0.34286994,0.051801372000000005,-0.30447268
-9.48509,0.54734325,-2.1026933,-0.0037699111,-0.14247122,-0.19107865
-11.06803,1.0228988,-3.2645322999999995,0.14739305,-0.15631169,-0.15542157
-11.874684,1.206534,-4.124817,0.10215412,-0.12330751,-0.11761774
-11.584000000000001,0.45606667,-4.203835,0.083514005,-0.08337438,0.010122909
-13.721371,1.2509033999999999,-3.2320478,0.14261085,-0.10999065,0.08784242
-16.330227,3.2374492000000004,-1.0507386,0.18252653,-0.08656833,0.13733996
-15.464216,4.020066,1.8191718999999997,0.17720328,-0.03174754,0.13042845
-11.474058,-0.16489346,3.11025,0.13622294,-0.042917646,0.08093092
-12.784118,-2.763081,4.019137000000001,0.073391095,-0.078592174,0.02555162
-14.2995615,-2.511029,4.0830812000000005,0.0074001959999999995,-0.14193018,0.010122909
-12.952306,-0.92287856,2.8699582,-0.07456046,-0.16854644,-0.0015707964
-10.300967,-0.44764867,1.4174919,-0.15707964,-0.17441075,-0.012758356499999998
-10.147392,-1.0757148,1.0173442,-0.20818287,-0.16109389,-0.03296927
-9.907187,-0.8009083,0.83568174,-0.22202334,-0.15631169,-0.010088003
-8.38547,0.25251165,0.3137841,-0.23427555,-0.08710938,0.019704766999999998
-6.963986,1.1444954999999999,0.10611102,-0.31412435,0.10770427,-0.0015707964
-6.073007,1.3711306,-0.074785285,-0.24064599,0.25942573,0.02289872
-6.055492,1.4648683999999998,-0.32376313,-0.047944195999999994,0.4728795,0.12777555
-6.3494706,1.2026362,-0.42148483,0.08086111,0.57615066,0.12351695
-6.550574299999999,0.8863525999999999,-0.46410159999999995,0.05370378,0.42816418,0.113394044
-6.4869843000000005,0.59516025,-0.6978428000000001,0.25172883,0.35257396,0.31833062
-6.595231,0.44871170000000005,-1.0241725,0.48328167,-0.08498008,0.5094442
-7.242939,0.427116,-1.180782,0.5210855,-0.08817403,0.49347440000000004
-7.976042999999999,0.6741976,-1.0563886999999998,0.38055158,0.054471727000000005,0.39287362
-8.143704,0.917573,-1.3099731000000001,0.10534807,0.04649557,0.2981197
-8.443152,0.19013792,-1.9198529,-0.10330604,-0.017907077,0.16130333
-9.927433,-0.14483963,-1.9363153999999998,-0.15388568,-0.054646257000000004,0.12456415
-11.297414,0.50321335,-2.3573117000000003,-0.15655604,-0.012060225,0.12616985
-10.668774,0.37177163,-3.6235190000000004,-0.107041046,-0.06901032,0.055361845
-12.109411999999999,0.17789876,-2.5786607000000004,-0.07723082,-0.14833553,-0.012217305
-16.282420000000002,-1.5464531000000001,1.5428906999999998,-0.085748024,-0.1823869,-0.11122983
-16.468315,-2.5399225,2.1253138,-0.061261058,-0.12330751,-0.193749
-11.476348,-0.8002859,0.8775228,0.005794493,-0.11320206,-0.20598376
-12.077665,1.9692596000000002,2.2873437,0.068608895,-0.19144517,-0.17406169
-14.912007999999998,2.9527786,2.8493872000000002,0.11810643,-0.26916468,-0.13306389999999998
-14.196801999999998,1.8805305,1.754605,0.16336282,-0.33304372,-0.07876671
-11.515977000000001,0.95712525,1.4022839,0.20968385,-0.29578096,-0.019146262
-10.344503,1.4148678999999997,1.0869004999999998,0.25865778,-0.18399261,0.015987216000000002
-9.795417,1.1504426,0.57458925,0.30761427,-0.07061602,0.010646508
-8.263664,-0.27481604,-0.101236425,0.36032322,-0.046652652,-0.0047647487
-6.467428,-1.4025329,-0.25949317,0.41088542,-0.053581607,0.016510814
-5.746697,-1.6332573000000001,-0.009548075999999999,0.34435347,0.04967207,0.030351276
-6.0190806,-1.2134197,0.14866076,0.23895302,0.26260224,0.0037175512
-6.4823203000000005,-0.78917676,0.20188865,0.1356819,0.31744048,-0.028187068
-6.7241154000000005,-0.3847961,0.081096396,-0.019739674,0.29667106,-0.1378461
-6.7281184000000005,-0.12774503,-0.20376572,-0.54513615,0.1604132,-0.38217473
-6.677936,-0.10105447,-0.46529874,-0.72240925,-0.51989865,-0.5275258
-6.9006257,-0.14664006,-0.6748201,-0.88371253,-0.26651177,-0.5514717
-7.384541499999999,-0.19706196,-0.69998795,-0.92788684,0.27911305,-0.41572
-8.131216,-0.16977763,-0.9136943999999999,-0.7112391,0.22321016,-0.33215362
-9.284705,-0.12983276,-1.3573208,-0.3141069,-0.040264744,-0.2656042
-10.583635000000001,-0.14269443,-2.239201,-0.0027052604,-0.18346901,-0.13891076
-11.169812,0.9058223,-3.3583562000000007,0.061156336,-0.10733775,-0.09047787
-10.746605,1.7151008,-4.263881700000001,-0.010698868,-0.016318828,-0.01595231
-11.298438,0.85445225,-3.6972318,0.022811454,-0.012583823999999999,0.063338
-14.721717000000002,2.4094767999999998,-1.9675837999999999,0.16175711,-0.013124876,0.13786356
-16.459533999999998,4.3109517,2.1093778999999997,0.25012314,0.051801372000000005,0.16875589
-12.47269,2.71558,2.8283951000000003,0.24692918,0.061924282000000004,0.14213961
-10.938907,-1.5491059999999999,3.2926116000000003,0.20169024,0.045413468,0.08888962
-13.311312,-2.7242568,4.419830999999999,0.16973327,-0.022165682000000003,0.04045673
-14.445444,-2.2325644000000002,3.786861,0.11545353,-0.09030333,0.0021293017
-11.704917,-0.94823796,2.1119158,0.011641346,-0.14514159,-0.030333823
-10.555144,-0.94572884,1.3472651000000002,-0.07031932,-0.12971286,-0.030333823
-10.495452,-0.9354529,0.8529391,-0.095870934,-0.14833553,0.00052359875
-9.005023,-0.04009809,0.6942323,-0.14058627,-0.11159635,0.028221974
-7.472494999999999,0.92091537,0.7508024999999999,-0.3093247,0.02146755,0.033527777
-6.5687413,1.1371978999999999,0.39737046,-0.32850587,0.28921852,0.076113805
-6.275011,0.98255163,-0.023127988,-0.15388568,0.575086,0.19643681
-6.328287,0.79605293,-0.24200589999999997,-0.009634216999999999,0.7672467,0.25284585
-6.3486185,0.6260933000000001,-0.391203,0.009512044499999999,0.7369129,0.17299703
-6.312658,0.49630845,-0.73468477,-0.10758209,0.46436229999999995,0.27096236
-6.302295,0.57639927,-0.971749,0.11704178,-0.016318828,0.56799996
-6.771520599999999,0.92020667,-0.91040957,0.22776547,-0.3783001,0.62760293
-7.575100999999999,1.1395442,-0.9523081,0.27886869999999997,-0.1712168,0.49080405
-7.761494,1.0757436000000002,-1.5034629,0.15697491,0.15454890000000002,0.38594466
-8.177521,0.2560072,-2.188942,-0.11344639999999999,0.059253927000000005,0.2512576
-9.44844,-0.0074507557,-1.7834696,-0.15974998,-0.029094638,0.11976449
-11.2391205,1.0140879999999999,-2.4597263,-0.14484487,0.05766568,0.109135434
-11.061557,1.2382427,-3.82671,-0.16294394,0.10770427,0.058555797
-10.32645,0.7594408,-4.3299613,-0.13632767,-0.024836035,-0.02607522
-15.001934,-0.67683125,-0.87354845,-0.10332349,-0.15259413,-0.10273008
-18.516489,-2.7786817999999998,2.3307555,-0.09161233,-0.14460053,-0.16660912
-14.140585999999999,-2.253193,2.3256986,-0.034121186,-0.12226032,-0.1953547
-10.123336,0.53682786,2.887235,0.04251622,-0.14247122,-0.18790215
-12.949902,2.5044212000000003,3.2928127999999997,0.11011282,-0.19997983,-0.14318681
-15.310335999999998,2.2424574,2.3266087000000004,0.18891443,-0.26651177,-0.096342176
-13.063751,1.0503841999999999,1.5267249,0.28312729999999997,-0.28939304,-0.049497537
-10.552789,1.0646057,1.1066479999999999,0.34861207,-0.20902063,-0.012758356499999998
-10.0626955,1.2148945,0.34736034,0.37946948,-0.05305801,0.012758356499999998
-9.183286,0.19186173,-0.13630669,0.40608576,0.02146755,0.013840461
-7.4650445,-0.8323394000000001,-0.46019432,0.39226276,0.020926498,0.011711158999999999
-6.2278166,-1.4483962,-0.28922915,0.30016172,0.040631264,0.025010569
-5.8338075,-1.4711603000000002,-0.027044903,0.19528489,0.17797123,0.046844635
-6.1479077,-1.0570784,0.23063825,0.11543608,0.25143212,0.035657077999999995
-6.626413,-0.60114574,0.17522684,0.04358087,0.29187140000000006,-0.0069115036
-6.6207720000000005,-0.17533219,-0.025905262999999998,-0.30721286,0.21256365,-0.23207644
-6.5845814,0.12269805,-0.2577119,-0.65376544,-0.22553144,-0.4317072
-6.83512,0.069834076,-0.5489999999999999,-0.9241693000000001,-0.3564835,-0.5046444999999999
-7.430567699999999,-0.2817305,-0.90497947,-0.9332101,0.11461577,-0.3209835
-8.079521000000002,-0.30573,-1.0649408999999999,-0.73467886,0.21256365,-0.33482397
-8.804897,-0.15343961,-1.5491635,-0.360969,-0.006736971,-0.33747685
-9.910480999999999,0.18676689999999999,-2.2949955,-0.03944444,-0.1531352,-0.22357668
-10.742888,1.3356677,-2.776872,0.060074233,-0.13130112,-0.17086773
-10.7439995,1.9925887999999998,-3.7271400000000003,-0.010175269,-0.072221726,-0.08995427
-10.654447,0.8702156999999999,-3.7812873999999996,-0.011239921000000002,-0.032288592000000005,0.021275562999999997
-13.493720999999999,1.3336183000000001,-2.514927,0.060615286,-0.05305801,0.09740683
-16.644108,3.4788900000000003,0.5919041,0.102136664,0.017191493999999998,0.14264576
-14.906414999999999,3.4085772000000003,1.7422317999999999,0.09998991,0.064577185,0.12934636
-11.04337,-1.0746326000000002,2.7656286,0.061138883,0.034766957,0.07239625599999999
-12.345644,-2.6084826,4.02971,0.014294246000000002,-0.034417894,0.02555162
-14.271023000000001,-2.194008,3.8316612,-0.069272116,-0.1004437,0.0090233525
-12.37965,-0.9677745999999999,2.4466537999999995,-0.16507325,-0.10309660000000001,-0.0031764992
-10.452749,-0.8937651,1.4475056,-0.23321089,-0.08552113,-0.026598819
-10.434171000000001,-1.2961441,0.99540377,-0.24226916,-0.09403834,-0.046303585
-9.480023,-0.6599186,0.6622266,-0.22417009,-0.102031946,-0.011711158999999999
-7.982144,0.47299847,0.27840734,-0.24918066,0.03211406,0.03832743
-6.829135000000001,1.1568016,0.032072727,-0.19116591,0.18008307,0.032986722999999996
-6.243427,1.2437207000000001,-0.22470063,-0.030403635,0.42388812,0.033527777
-6.1657877,1.2820568,-0.4225,0.063268185,0.62458354,0.04469788
-6.312418,1.2650865,-0.6166696999999999,0.00418879,0.63788295,-0.042044982
-6.3637023,0.9790177999999999,-0.84332407,-0.103340946,0.48563787,0.0090408055
-6.28137,0.5679429,-1.1443996,0.15323989999999998,0.23225096,0.23368213
-6.4359493,0.3655946,-1.4622252,0.28578022,0.032096606,0.39605013
-7.2267733,0.22329283,-1.3717721999999999,0.29749137,0.041154865,0.41095522
-7.719509599999999,0.3395457,-1.2913367,0.25970498,0.07841764400000001,0.4386187
-7.894258,0.27663565,-1.9355205000000002,0.05368633,0.024102997,0.36089918
-8.670994,-0.033461366,-1.8281646,-0.053284902,-0.032829642,0.20813051
-10.452022,0.2560455,-2.0048375,-0.048502699999999996,-0.025900686000000003,0.16608553
-11.237857,0.56119126,-3.5913217000000004,-0.03359759,-0.04187045,0.09049532
-10.9597845,0.9344857,-4.299153,0.01855285,-0.11320206,0.013823007
-14.90879,0.5598696999999999,-1.2523206,0.013770646999999999,-0.17123425,-0.03139847
-16.821749,-1.3478302,1.2492370000000002,-0.004310963,-0.1706932,-0.081437066
-15.343175,-2.461153,1.2642726,0.03932227,-0.17762215,-0.1261524
-12.080414,-0.47165775,1.0029503,0.10744247,-0.20530307,-0.12191125
-13.582363,1.6435142,2.6093352000000003,0.15535176,-0.25747097,-0.09688323
-14.527479000000001,1.5874131999999999,1.9416497,0.18622664,-0.33199653,-0.07930776
-12.526205000000001,0.90838885,1.4307462,0.21816616,-0.32613220000000004,-0.04152138
-10.455622,1.4492965,1.3146178,0.23415338,-0.27131143,-0.011170107
-9.621952,2.0915169999999996,0.7187968000000001,0.24584708,-0.14887658,-0.0026529005
-8.855156,1.2038428999999997,0.03416047,0.29482102,-0.06105162,0.013281955
-7.4936595,-0.41021296,-0.42532513,0.28098056,-0.07648033,-0.010646508
-6.282481,-1.6885729999999999,-0.20946391,0.19954349,-0.073809974,-0.04045673
-5.778348,-1.7917439,-0.052978896,0.09894271,0.064577185,-0.018099063999999998
-6.047361,-1.2150669,0.009155426999999999,0.03291691,0.27377236,0.023928462999999997
-6.5216236,-0.6501024000000001,-0.07107906,0.04462807,0.2514147,0.07983136
-6.8861550000000005,-0.13344322,-0.1443129,-0.055955257,0.17901842,-0.020751963999999998
-6.926818400000001,0.5141692,-0.53495085,-0.38599703,-0.1573938,-0.24858725
-7.0635557,0.71275383,-0.91467124,-0.53717744,-0.5646140000000001,-0.5190085999999999
-7.696889,0.38605067,-1.0020978,-0.9183399,-0.09777334,-0.49186867
-8.543116,0.0032561141999999997,-1.0706103999999999,-0.83421504,0.30305898,-0.31618384
-9.051624,-0.24191014,-1.6440120999999999,-0.4860742,0.22586305,-0.33163002
-9.647905,0.010898406000000001,-2.3235154,-0.1113171,0.017191493999999998,-0.23954643
-10.380157,0.8704072,-2.9504610000000002,0.10159562,-0.07489208,-0.17194983
-10.829443,2.1243369999999997,-3.6540019999999998,0.05422738,0.044348817,-0.13786356
-10.811468,1.0680341999999998,-4.325489,-0.025621433,0.05551892,-0.023963371
-12.591902000000001,-0.20631316,-2.9598463,0.046233773,0.010803588000000001,0.07770206
-15.439584,2.1502995,-0.2752087,0.15322246,0.058171824000000004,0.15755087
-15.410164000000002,5.029528,2.1230154,0.19634955,0.11620402,0.16821483
-11.62226,1.4786781,2.4512124,0.16812757,0.10875147,0.130411
-10.183641,-2.0735798,3.2430036,0.12341223,0.049131017,0.07185520000000001
-13.095986,-2.6422315,4.362877,0.061138883,-0.014189526000000001,0.012234758
-13.955141000000001,-2.0601723,2.9762322999999995,0.0036477381,-0.09299114,-0.013840461
-10.866572999999999,-1.0005655999999998,1.5245893,-0.009651671,-0.11854276,-0.016510814
-10.449636,-1.0720181,0.762965,0.038240165,-0.124930665,0.0015707964
-10.227378999999999,-0.6663734,0.1241633,0.079237945,-0.1637817,0.020210912
-8.62018,0.26236620000000005,0.35612315,-5.2359880000000005e-05,-0.14035937,0.0
-7.219159599999999,0.9377129999999999,0.46053907,-0.14325662,-0.006754424,-0.021816615
-6.473337,0.9378470999999999,-0.027265169,-0.121963605,0.23863886,0.03139847
-6.2542295,0.93601793,-0.43636718,-0.021886429,0.5590988,0.16074483
-6.2661524,0.7907761,-0.7101298,0.06274459,0.6522644000000001,0.21504201
-6.497116,0.75920135,-1.0614263000000002,0.04038692,0.48085567,0.35079372
-6.558656699999999,0.5713236,-1.2163024,0.24638812,0.20085248,0.5999220000000001
-6.578614999999999,0.4151833,-1.134976,0.30014428,-0.21594960000000002,0.59564596
-7.104467999999999,0.49005479999999996,-1.0530561,0.38744563,-0.13290682,0.5429545
-7.5657252999999995,0.61484057,-1.0775536000000001,0.23467697,-0.059445914,0.4386187
-7.7449265,0.62220514,-2.0643954,-0.09375909,-0.03070034,0.26668632
-8.530750999999999,0.0139438305,-2.6696022,-0.2891138,-0.046146505,0.17458528
-10.054068,1.250415,-2.5361109,-0.37428585,-0.02963569,0.1980076
-11.593922000000001,2.231808,-2.7625928,-0.36737436,-0.034435347000000005,0.16074483
-11.783752999999999,0.8567507,-3.6108010000000004,-0.26410323,-0.16538739,0.005305801
-14.84428,-0.9572976000000001,-1.1522719,-0.24600416,-0.22766075,-0.1293638
-17.093431,-3.3290703,1.1338747999999998,-0.2475924,-0.19839157,-0.23315853
-14.051781,-2.2092354,0.41066307,-0.19064231,-0.16697565,-0.25764552
-13.127378,1.3526951999999999,2.0508733,-0.105993845,-0.19465657,-0.21666518
-14.335772,2.808255,2.5154919999999996,-0.04691445,-0.25640630000000003,-0.14905111
-14.363917,1.9486791,1.578344,0.012688544,-0.3410548,-0.0697259
-11.852084,0.8591928,0.9464950000000001,0.088278756,-0.3735179,-0.00052359875
-9.777536999999999,1.1579413,0.7735091,0.1564164,-0.30538025,0.040439277999999995
-9.3629,1.2428589,0.5991251,0.17718582,-0.21382028,0.061208695
-8.609309,0.5419515,-0.029496565,0.16706291,-0.16749924,0.05482079
-7.1169080000000005,-0.65676785,-0.45079944,0.16973327,-0.16271704,0.05427974
-6.107158,-1.6230773,-0.24033953,0.2607522,-0.1094845,0.04363323
-6.00461,-1.6038853000000002,-0.04850653,0.25062928,0.09756391,0.021275562999999997
-6.372158,-1.0994654,0.085645385,0.14151129,0.3903429,-0.053232543
-6.86499,-0.58874375,-0.055660400000000006,-0.0037873646000000003,0.44518113,-0.09368927
-6.900089299999999,-0.1663204,-0.17119499,-0.31307715,0.036878806,-0.26083946
-6.6528068,-0.022294806,-0.3169157,-0.60746187,-0.28675759999999995,-0.5365840000000001
-6.774729,-0.13381673,-0.62583476,-0.6713234,-0.22659610000000002,-0.50145054
-7.4440618,-0.2768176,-1.1966125,-0.6207438,0.20830505,-0.38166859999999997
-8.132625,-0.278302,-1.3494296000000001,-0.47649235,0.37810809999999995,-0.38646826
-8.702167,-0.10922348,-0.97942007,-0.13528048,0.06403613,-0.31354840000000006
-9.329399,0.5021886,-1.4479365,0.11861257,-0.1094845,-0.19537215
-10.162467,0.7120643,-2.7114142999999995,0.14098770000000002,-0.07595673,-0.14746287
-10.844183000000001,0.55441093,-3.8870056000000006,0.055274576,-0.023788838,-0.05482079
-11.256618,0.73665756,-4.209304,0.04888667,-0.024853487999999996,0.05375614
-14.430525,2.0609574,-2.020352,0.13512339,-0.033370696,0.11229448
-17.390064000000002,4.4196672,1.9396482,0.17025687,0.03635521,0.1335875
-14.568401000000001,2.6646605,3.1085548,0.123935826,0.05071927,0.10857693
-11.630466,-1.7658578,3.5235178,0.054209925,0.05126032,0.050562188
-13.724579,-2.9549717999999996,4.260779,0.026005406000000002,-0.018989183,0.026057765
-14.332678,-1.7182418999999998,3.2052424,0.020141099,-0.087126836,0.009564404
-11.460142999999999,-0.5300762,1.8672282999999998,0.0015009831,-0.13397147,0.00424115
-10.004833,-0.73567116,1.2380129,-0.0021991148,-0.17390461,0.005305801
-9.943388,-0.7391667,0.6806045000000001,-0.009110618000000001,-0.19359192,0.010629055
-8.639611,0.02252465,0.5137574,-0.057019908,-0.18029252,0.027122416
-7.201873299999999,0.9606878000000001,0.46996266,-0.16774360000000002,-0.07435103,0.040439277999999995
-6.374313,1.3926018,0.16163735,-0.15763813,0.12098622,0.040439277999999995
-6.02679,1.4069862,-0.18746600000000002,-0.026162485,0.36266196,0.06544985
-6.121102,1.2979254999999998,-0.32768002,0.07763225,0.5473876,0.087807514
-6.416604,0.93625736,-0.29752263,0.04462807,0.30143583,0.061191242
-6.601858,0.441644,-0.4893844,0.2213601,0.1390853,0.22462387
-6.601915400000001,-0.060305152,-0.89179224,0.42524946,-0.08445648,0.46629962
-6.997859,-0.034677617,-1.0461991,0.49816933,-0.07436848,0.47534043
-7.798872500000001,0.32589874,-1.1613122999999999,0.35709438,0.056042522000000004,0.3678107
-8.427503999999999,0.82352877,-1.4036343,0.011100293999999998,0.042202063,0.25549874
-9.070778,0.8284799999999999,-1.6462721999999999,-0.24919811,-0.0019547688000000002,0.13360496
-9.748567,0.39932412,-2.1272674,-0.35566318,0.031031952999999998,0.09047787
-10.944280000000001,0.41375634,-2.8531222,-0.35407495,0.05284857,0.09580112
-11.315266000000001,0.33829114,-4.0879364,-0.26038566,0.043807764000000006,0.025534166
-12.315667999999999,0.57229084,-2.968063,-0.19064231,0.004939282,-0.046844635
-16.451738,-1.0538223,1.5394430000000001,-0.16615534,-0.013665928,-0.1277581
-17.097944000000002,-2.399584,2.6218328,-0.14751522,0.009738937,-0.17673203
-12.227705,-0.49795565,1.3796538999999999,-0.10920525,-0.020594886,-0.17566739
-12.115235,2.4904678,1.8371668,-0.05862561,-0.08979719,-0.15917403
-14.090221,3.0851014,2.192629,0.0031066859999999996,-0.16858135,-0.12349949999999998
-13.138411999999999,2.0193366999999998,1.3890966999999999,0.088278756,-0.22713715,-0.080389865
-10.790619,1.2823248,1.3522546,0.18994418,-0.20104447,-0.03939208
-9.679421000000001,1.6123991000000002,1.3513353000000001,0.24743533,-0.13610077,-0.013840461
-9.020835,1.3159108,0.95273906,0.28843309999999994,-0.10629055,-0.0037350047
-7.7314515,-0.06313988599999999,-0.00016280572,0.3304781,-0.08766789,-0.0042586033
-6.3285456,-1.36481,-0.24322216,0.35709438,-0.08447394,0.009546951
-5.801610500000001,-1.7097665000000002,-0.28680623,0.35922366,0.013997541,0.0005061455
-6.0033455,-1.3686502,-0.10788273,0.25755823,0.37597883,-0.07559021
-6.5031114,-0.98727304,0.13872963,0.09998991,0.50371945,-0.113394044
-6.954035799999999,-0.6173114000000001,0.18954416,-0.0048520155,0.21947515,-0.16289158
-6.922557,-0.14517482,0.09936895,-0.38334409999999997,-0.020071287,-0.44450045
-6.8383856,0.32643503,-0.2244612,-0.41367793,-0.16804029999999998,-0.497733
-7.274399000000001,0.27741137,-0.8042315,-0.53080696,0.11407472,-0.41308454
-8.15897,-0.23199815,-0.7874338000000001,-0.5313306,0.36798522,-0.500927
-8.865097,-0.62200403,-0.6928533,-0.1714786,0.11459832,-0.5057092000000001
-9.111201,-0.46740565,-1.3687076999999999,0.17664477,-0.05625196,-0.32897709999999997
-9.426374000000001,0.28420132,-2.760543,0.28682742,-0.057334065,-0.21985912
-10.194827,1.0520314,-3.9221144,0.30279717,-0.04988151,-0.11606439
-10.954182000000001,1.3407626,-4.4258924,0.26181683,-0.05092871,-0.0021293017
-12.5435295,0.84286433,-2.4866178,0.29427996,-0.102031946,0.05586799
-15.954348000000001,3.4022276,1.2866249,0.3427303,0.028361599999999997,0.07450811
-15.034858999999999,4.2068615,2.3830543,0.33740705,0.10501646,0.072902404
-11.25859,0.48073655,2.2071092,0.2650108,0.11194542,0.0665145
-12.440493,-2.2132287,3.7352227999999994,0.20165534,0.08372344,0.040439277999999995
-14.581043,-1.9952606,4.6518955,0.16226326,0.039008107,0.028187068
-13.040776,-1.0167887,2.7585417999999997,0.10742501,-0.009948377,-0.006405358000000001
-11.060963000000001,-1.1977999,1.4464426000000001,0.05953318,-0.026441738,-0.029286625
-11.358044999999999,-1.1041292,0.666201,0.07763225,-0.018465584,-0.013857913999999999
-10.363781,-0.10913729,-0.07251558,0.11861257,-0.059986967999999995,0.04522148
-8.413013000000001,0.8068076999999999,0.022601265,0.05953318,0.0006806784,0.07770206
-7.111152000000001,1.2859832,0.08193915,-0.09430013599999999,0.12259193,0.046286132
-6.555066,1.2668774,-0.22009417,-0.08471828,0.23277456,0.05586799
-6.338668,1.2210907,-0.5327003,0.015882496,0.42121777,0.144234
-6.278976,0.9389868,-0.73015493,0.0856084,0.52768284,0.13624041
-6.158710500000001,0.6396158000000001,-0.87125,0.090931654,0.32752848,0.17456783
-6.0586519999999995,0.25987622,-1.1962773000000002,0.28098056,0.022497293999999998,0.35503490000000004
-6.1704419999999995,0.34438196,-1.2893063999999999,0.23307127,-0.43048546,0.50248027
-6.9864335,0.7688644,-1.2266451999999999,0.30759683,-0.23991296,0.58660513
-7.732486200000001,1.0070491,-1.4157872,0.29801497,-0.08340929,0.49076912
-7.948510000000001,0.8148139,-2.0608523,0.069115035,-0.030176742000000003,0.40346777
-8.638203,-0.092042685,-2.4414152999999996,-0.11985176,-0.079150684,0.2506991
-10.375876,0.17772637,-2.5548909,-0.15498523,-0.059986967999999995,0.18947294
-11.682383,1.4071586,-3.4457160000000004,-0.16615534,-0.02804744,0.17191494
-10.944280000000001,1.3415096000000002,-4.3694370000000005,-0.14592698,-0.091402896,0.08194321
-13.313745,0.6702710999999999,-2.5124942999999997,-0.13421582,-0.17229891,0.008499754
-17.063322,-2.2048585,1.0447626,-0.115052104,-0.20052087,-0.059620447
-15.853426999999998,-3.300043,1.149801,-0.05703736,-0.16112879,-0.121387646
-11.883745,-0.20371783,2.1083534,0.04195771400000001,-0.1712517,-0.13309881
-11.954058,2.6477764,2.7427018,0.12500048,-0.24630086,-0.10487683
-14.670194,2.6694105,2.5017492999999997,0.17078047,-0.3123092,-0.084107414
-13.707514000000002,1.4925933,1.5648693999999999,0.18942058,-0.38098790000000005,-0.050056044
-11.198706,1.1489296,1.2034503,0.21603686,-0.328279,-0.013316861999999999
-9.989835000000001,1.8544816000000002,0.8157907,0.20591395,-0.20638518,0.011676253000000001
-9.496898,1.3792325,0.22789928,0.15639895,-0.1068316,0.02232276
-8.163269999999999,-0.12604035,-0.332727,0.10157816,-0.06637487,0.020734511
-6.688068400000001,-1.2329086,-0.20378487,0.055798177000000004,-0.12758356,-0.0010646508
-5.942830000000001,-1.5970091999999998,0.15208927,0.013753194,-0.13397147,-0.021293016
-6.173075700000001,-1.2502426000000002,0.23802195,0.066985734,0.05338962,-0.010646508
-6.6828202999999995,-0.7391763000000001,0.23006363,0.09519026,0.33656928,-0.0575086
-6.907837,-0.27564922,-0.035338417000000004,-0.0048694685,0.37224382,-0.15758578
-6.8770093999999995,0.12934434,-0.27204835,-0.35672784,0.08478809,-0.41842523
-6.8042064,0.4763312,-0.5876998999999999,-0.6500479,-0.47626543,-0.65849525
-7.084242,0.5354201,-0.9361136999999998,-0.93057466,-0.22287855,-0.43704790000000004
-7.7524733999999995,0.37705806,-1.1029223999999997,-0.77832955,0.30462977,-0.28267354
-8.403849000000001,0.21622515,-0.9853481,-0.48183304,0.3903429,-0.3284535
-9.058404,0.18120275,-0.87014866,-0.07885397,0.059236474000000004,-0.24380504
-9.774672500000001,0.47082454,-1.3970263,0.23359486,-0.14302973,-0.16184439
-10.232387,1.2806298,-2.2379465,0.23094197,-0.045622908,-0.15865043
-10.620593,1.6550063000000002,-3.9127769999999997,0.09944886,0.042202063,-0.040474183999999996
-11.75395,0.5618425,-3.9056036,0.08667305,0.039531708,0.10855948
-14.954356,2.4975736,-1.7757986000000001,0.20910789,0.0065275314,0.17830284
-16.50394,4.338935,0.8011189999999999,0.28363347,0.06190683,0.18416715
-12.648798,1.2982223999999998,2.4635475,0.28204522,0.076270886,0.14583970000000002
-10.654083,-1.9338063,4.2557220000000004,0.22615977,0.08691739,0.09206612
-13.444208999999999,-3.1079996,4.508742,0.16706291,0.04166101,0.038292522999999995
-14.143325,-1.9196422,3.2994494,0.11383037,-0.019530235,0.0052883476
-10.998531,-0.33758244,2.121234,0.043022364,-0.047211155,-0.019704766999999998
-10.144625,-0.63871557,1.3174238,-0.0027401668,-0.057857665999999995,-0.023439772
-10.651286,-1.3349015,0.7063374,0.002565634,-0.108960904,-0.026092672999999997
-9.258023,-0.5723674,0.59404933,-0.038938295,-0.071174525,-0.022375122
-7.5938525,0.59514105,0.5918179,-0.18746582,0.093305305,-0.029827677
-6.6105633,1.2277466000000001,0.22684583,-0.21141173,0.32272884,-0.023439772
-6.2633557,1.3966336000000001,-0.11598471,-0.13423327,0.5723982,0.06277949
-6.3454485,1.3984628000000001,-0.285906,-0.04852015,0.5979498000000001,0.16765633
-6.531526,1.1394581,-0.47661853,-0.03520329,0.2860071,0.29593801
-6.507325,0.6127431999999999,-0.7191703,0.22081906,0.108210415,0.5232497
-6.406203700000001,0.23943934,-1.1118576999999998,0.3326074,-0.14037684,0.65420175
-6.471958,0.23060949999999997,-1.1439209,0.18249163,-0.27930504,0.634497
-6.802328999999999,0.5109035,-0.99666786,0.07176794,-0.21116738,0.58552307
-7.1370864,0.75413525,-1.7594414,-0.060231313,-0.17336355,0.25602233
-7.9500523,0.5116313,-2.3237262000000003,-0.20608848,-0.17975146,0.07822566
-9.570343,0.42565075,-2.2013535,-0.30562459999999997,-0.20158553,0.09951867
-11.418379,1.1971486999999998,-2.8708587000000003,-0.39240238,-0.21809635,0.10536553
-12.271510000000001,1.5533197,-3.5351825,-0.41156608,-0.17018706,0.0063529983
-14.764516,0.06307285,-1.507418,-0.40730748,-0.21064378,-0.08731882
-17.210175,-3.1556535,1.4906586000000002,-0.43446480000000004,-0.22394319,-0.12245230000000001
-14.678994,-2.9690685,-0.54584926,-0.4456349,-0.19839157,-0.14161602
-14.915091,-0.30836362,1.0911621999999999,-0.42966515,-0.18774506,-0.15598008
-14.969344,2.7521348,3.431025,-0.39720201,-0.22607249,-0.13522811
-13.6707,2.7678979999999997,2.2591782000000005,-0.32320008,-0.27824038,-0.081454515
-12.2970705,1.2230061,1.3894318,-0.21193533,-0.33307862,-0.03195698
-10.110560000000001,0.74781454,1.5600427,-0.09430013599999999,-0.34637803,0.01701696
-9.065491999999999,1.2039483,1.343693,-0.006981317,-0.2872812,0.06012659
-8.944268,1.099992,0.6454193,0.056862827000000005,-0.22661355,0.08035496
-8.192728,-0.049454633,-0.16410816,0.17345083,-0.18083356,0.08194321
-7.110932400000001,-1.0558524999999999,-0.47197375,0.35177112,-0.12918927,0.08194321
-6.329752,-1.4421903999999999,-0.50208324,0.43161990000000006,0.008133234,0.05160938599999999
-6.137287000000001,-1.3683246,-0.30477232,0.35335937,0.30037117,-0.030892327
-6.349375,-1.0798903,-0.036190756,0.17502162,0.4254589,-0.114476144
-6.415483999999999,-0.8093743,0.25413972,-0.24174555,0.17156586,-0.29225537
-6.1517862999999995,-0.53122544,0.26188737,-0.68252844,0.008656833000000001,-0.43013638
-6.1275663,-0.3544855,-0.03385401,-0.686246,0.008656833000000001,-0.2773677
-6.6097399999999995,-0.291767,-0.4733241,-0.49035025,0.26736698,-0.30024898
-7.3329130000000005,-0.54818594,-0.5872785,-0.34288737,0.3466922,-0.40510836
-8.186063,-0.78805625,-0.16067965,-0.01977458,0.10766936,-0.363587
-9.165636,-0.56168926,-0.1327537,0.22081906,0.031555552,-0.24169320000000002
-9.962676,-0.21822670000000002,-1.6640756,0.25914648,0.059236474000000004,-0.24275784
-10.652589,0.047366887,-3.2560377000000003,0.21814871,0.066147976,-0.21081832
-11.878564,1.2482218,-3.6934775999999996,0.18303268,0.08159414,-0.054838244
-14.672386999999999,2.5265150000000003,-2.1897464,0.21390755,0.08958775,0.037245326
-16.509964,4.3460317,0.56895804,0.25808182,0.12524483,0.047350783
-13.690716,2.8836912999999997,1.9839887999999999,0.269793,0.14599679999999998,0.03351032
-12.397147,-1.215881,3.6544042,0.23465952,0.13747959,0.0074176495
-13.764515,-3.2091687,4.6314397000000005,0.16758652,0.083182395,-0.012793263000000001
-13.479192999999999,-1.5560108,3.6123812000000006,0.08189085,0.037943456,-0.017575465
-11.207019,-0.32514217,2.8681674,-0.0011519173,0.0065275314,-0.015987216000000002
-9.688203999999999,-0.32716286,1.7500082,-0.051190507,-0.017941985,-0.006405358000000001
-10.008863999999999,-0.6654923,1.3559992,-0.032009337,-0.034958944,0.011152654
-9.726272999999999,-0.42091024,0.78347856,-0.017645279,-0.09086184,0.036163222
-8.215952,0.36019328,0.49031335,-0.10281735,-0.07595673,0.064908795
-7.104965700000001,0.99854493,0.25300965,-0.2795494,0.10182251,0.08035496
-6.5172276,1.2441133999999998,0.059041015999999995,-0.23643975,0.33389893,0.10695378
-6.3676763,1.30846,-0.21564096,-0.07620107400000001,0.58463293,0.13891076
-6.4169874,1.1713583,-0.42152315,-0.01605703,0.6245661,0.078749254
-6.317206400000001,0.86533153,-0.5340698,-0.15233234,0.24288002,0.025516712999999996
-6.3861117,0.4992964,-0.70124257,0.03769911,-0.036041047,0.28902653
-6.690289999999999,0.39034107,-0.83845896,0.23837706,-0.22183135,0.6110747
-7.3891,0.6470090999999999,-1.0038313,0.42203808,-0.18296286,0.49342203
-8.195898,0.9508523999999999,-1.4867705,0.34697145,0.08957029999999999,0.42156679999999996
-8.741978,1.0159843000000002,-2.2194152000000003,0.11220722,-0.02274164,0.34224162
-9.212285000000001,0.21339041,-2.6722546,-0.025097834,-0.08873254,0.14636332
-9.916985,0.07600154,-2.6815347999999997,-0.09162979,-0.059463367,0.07716101
-11.026879,1.0843243999999999,-3.4603492999999994,-0.093235485,-0.031258848,0.053197637
-10.876945,1.4722998999999999,-4.319542,-0.09164724,-0.11908381400000001,0.02125811
-13.054232,1.1372361999999998,-2.15685,-0.14487977,-0.1728574,-0.021851522999999998
-18.574562,-2.2017176,3.5006294000000002,-0.14966199,-0.16112879,-0.11393509
-16.527012,-4.1130853,2.37342,-0.07513642,-0.11960741,-0.17620844
-9.698634,-1.0329926999999999,1.0826101000000001,0.030770155,-0.15102334,-0.18367845
-12.254214,2.153709,2.667792,0.086132,-0.22661355,-0.16610299
-15.08845,3.4600046000000004,3.0266156000000004,0.11009537,-0.28516933,-0.13203415
-13.087069999999999,2.0797758,1.6019603,0.1468171,-0.30485666,-0.066549405
-10.554158000000001,1.2793847,1.1925518999999998,0.18568558,-0.24204226,-0.027698375
-10.102333999999999,1.5485218,0.91690266,0.21654299999999999,-0.085014984,-0.004276057
-9.351483,0.6572084,0.02987006,0.25541148,0.021956242999999997,0.0015533429999999998
-7.6671724,-0.6749733,-0.57163,0.2761809,0.026214845,0.002094395
-6.148693,-1.2919496000000001,-0.09461885,0.3091851,0.024626596,0.026581364
-5.7926946,-1.088471,0.2769517,0.29640928,0.09862856,0.05586799
-6.1099453,-0.72417897,0.32860900000000004,0.23626523,0.31208232,-0.0016057029000000002
-6.499319,-0.42570823,0.3141001,0.10848966,0.41748276,-0.08571312
-6.676653,-0.22692244,0.046399627,-0.16830209999999998,0.30250046,-0.24541074
-6.7667703999999995,-0.09801862,-0.20626526,-0.5670050999999999,-0.07276278,-0.3907443
-6.808803,-0.045087605999999995,-0.6033101,-0.64420104,-0.5204572000000001,-0.5248903
-7.190688000000001,-0.026709715,-0.9755988999999999,-0.7176619000000001,0.017174039,-0.4599465999999999
-7.754339999999999,0.09508811,-0.97337705,-0.6149144,0.40629518,-0.37903315
-8.631393,0.2105078,-0.7656178000000001,-0.27209684,0.22849850000000002,-0.37638026
-9.747227,0.12169248,-1.2131516000000002,0.10210176,0.04272566,-0.258204
-10.5736475,0.10674309,-2.1038425,0.31929052,-0.059463367,-0.15439183
-10.40023,0.8891681999999999,-3.5532922999999994,0.27989846,0.027820547999999997,-0.11232939
-10.435694,1.577099,-4.2763029999999995,0.18514453,0.05763077,-0.0053407075
-12.884032000000001,1.7890433000000001,-3.27522,0.19633208,0.011850785,0.08300786
-15.926478,3.5440313999999997,-0.3642347,0.25860542,0.04059636,0.1341111
-15.106676,4.061428,2.591072,0.26445228,0.084247045,0.14049901
-11.543672,0.027945122000000003,3.9371017999999998,0.18140952,0.064018674,0.10428342
-11.767664,-2.6424038,4.361268,0.0882613,0.02994985,0.04787438
-13.758414000000002,-2.5390029999999997,4.328688,0.03822271,-0.019006636,0.0036826448
-13.494382,-1.5055794,3.0010362,-0.021903882000000003,-0.08395033,-0.03143338
-10.923421000000001,-0.7217848000000001,1.5134611,-0.086323984,-0.12068952,-0.04740314
-10.202124000000001,-0.9859610000000001,0.9172283000000001,-0.10709339999999999,-0.11856022,-0.050056044
-9.869091000000001,-0.64159817,0.24686134,-0.12411036,-0.11962487,-0.03143338
-8.384839,0.2855804,0.33851138,-0.17681931,-0.101525806,-0.010140363000000001
-7.0983577,1.127171,0.4043328,-0.29127800000000004,0.13374458,-0.014922565
-6.425683,1.5548712,-0.07041826,-0.19385372,0.41003019999999996,0.004223697
-6.2666698,1.5970284,-0.55340534,-0.04160865,0.6666111,0.11814134
-6.4234614,1.3033364,-0.5883703,0.04993387,0.54363513,0.17776178
-6.678692999999999,0.7782399999999999,-0.65146226,0.07335619,0.2088112,0.34437090000000004
-6.5704460000000005,0.24756046,-0.9822356,0.31237903,-0.10311405,0.55997145
-6.5878086,0.15715539999999997,-1.3021966999999999,0.36987020000000004,-0.222896,0.560495
-7.0955424,0.42995074,-1.3950056,0.24263567,-0.090338245,0.5839174
-7.8162065,0.87275356,-1.3201245000000001,0.045675267,0.089029245,0.44977134
-8.08566,1.0542245000000001,-1.6928058999999998,-0.11932816,0.041119955,0.21821852
-8.465188000000001,0.33027533,-1.9501442999999998,-0.16297884,-0.019547688,0.16816248
-9.9139,0.06353254,-2.397908,-0.15393804,0.007051130300000001,0.18360864
-11.730477,0.71878725,-3.3577816,-0.09697049,-0.02539454,0.09046041
-12.433885,0.45376825,-3.596953,-0.025638886,-0.14144148,-0.0053407075
-15.739491000000001,-2.1195102,-0.30614179999999996,-0.022985986,-0.18509217,-0.07401941
-16.236164000000002,-3.1335886000000004,1.5214193999999999,-0.008604473,-0.1622109,-0.12831661
-12.871458,-1.3128079,0.69337034,0.042481314000000006,-0.14730579,-0.15173893
-13.921182,1.9173244999999999,2.7875786,0.07707374,-0.19041543,-0.12725195
-14.599487,3.4212663,3.042408,0.12765338,-0.2665467,-0.084665924
-14.047661999999999,1.9610236,1.8253682,0.18727383,-0.32510248,-0.04420919
-11.687314,0.63486564,1.5862544,0.23038346,-0.3155206,-0.006946410500000001
-9.888494,0.92862463,1.2976669,0.24689427,-0.23300146,0.032951817
-9.475273,0.9998761,0.7921935,0.24209462,-0.13081242,0.04998623
-8.396676,0.14586435,0.14358507,0.27296948,-0.07436848,0.045727625
-6.964513,-1.090195,-0.010754753999999998,0.32461378,-0.04722861,0.03403392
-6.049218700000001,-1.6476322,0.05371631,0.31874949999999996,0.023561945,0.030839968
-6.0715804,-1.4220409,0.056598928,0.22825415,0.27747244,0.015917404
-6.588392999999999,-0.955976,0.08961018,0.122853726,0.45685738,-0.012810716000000002
-6.844735000000001,-0.39304173,0.09392932,0.05099852,0.46272168,-0.04740314
-6.7329836,0.1523191,-0.060669072000000004,-0.20182988,0.29345965,-0.24116959999999998
-6.5888815,0.3088903,-0.36846766,-0.52443653,-0.22448425,-0.44132397
-7.014896,0.038575377,-0.694692,-0.7703709,-0.31871456,-0.5419421999999999
-7.58667,-0.30713776,-0.919565,-0.7549246999999999,0.15823156,-0.29813713
-8.066592,-0.28888437,-0.8228966999999999,-0.63036054,0.32964033,-0.31995377
-8.65773,0.09522219,-1.1629307,-0.2896723,0.10554006,-0.3380528
-9.672737,0.36060506,-2.1763005,0.059515726,-0.10311405,-0.23638739
-10.475954,0.6171581,-3.1792412,0.14734070000000002,-0.06906268,-0.20338322
-10.834394,1.1904258,-4.1151347000000005,0.062168628,-0.029653143,-0.12831661
-10.729663,0.61551094,-3.8752836999999998,-0.010210176,-0.00837758,0.015917404
-13.446095000000001,1.3270485,-1.8351365000000002,0.0041538836,-0.0014486233,0.09417797
-16.246257999999997,3.7125258000000003,1.0149595999999999,0.028099801,0.050178215,0.12079424
-14.891762,4.073303,2.0834439,0.029164452,0.09168214,0.093636915
-10.875948,-0.43322602,2.9094532,0.012671091,0.061889375999999996,0.044662975
-12.261952,-2.6333442000000002,3.8567717000000004,-0.0022340214000000002,0.010245083,0.02656391
-14.111367000000001,-2.3633356,3.9050290000000003,-0.03202679,-0.04775221,0.015917404
-12.215351,-0.7516931,2.762066,-0.09058259,-0.07065093,0.011135201
-10.202862,-0.5121581000000001,1.5528697,-0.12573352,-0.06480408,0.0074001959999999995
-10.628349,-0.81622165,1.0715968999999999,-0.11615166,-0.07384488,0.0058119465
-10.076764,-0.3374388,0.633343,-0.106569804,-0.0993965,0.011117746999999999
-8.461625999999999,0.5541811,0.27658775,-0.16032594,-0.06000442,0.0031415927
-7.476977000000001,1.2536231000000002,0.06902962,-0.23219859999999998,0.043772858,0.001012291
-6.918036,1.266686,-0.12332054,-0.17149605,0.20455259,0.030822514
-6.8057194,1.2059977,-0.36521152,-0.06824237,0.47708574,0.09950122
-6.876185400000001,0.9704370000000001,-0.4428986,-0.045884706,0.6091024,0.05263913
-6.8137546,0.73492414,-0.6043826999999999,-0.11243411,0.66392326,-0.0538085
-6.630903999999999,0.19535728,-0.91426903,-0.13158037,0.45685738,0.05424483
-6.6047406,-0.12154883,-1.0701698,0.06323328,0.0320617,0.27036896
-7.069963,-0.02375048,-1.0545883999999999,0.18727383,-0.24738297,0.51206213
-7.494961999999999,0.3610935,-1.1137731000000002,0.32033774,-0.10046115,0.43751913
-7.659836299999999,0.690392,-1.5778843,0.12498303,0.018221237,0.40610322
-8.584104,0.44869256,-2.0294116,-0.18481292,0.064018674,0.3523645
-10.307527,0.40841252,-2.1606998,-0.3040538,0.07251843,0.17880899
-11.268291,0.5890694000000001,-3.2310135,-0.29181904,0.03473205,0.15060446
-10.130787,0.68231875,-4.521699,-0.19280653,0.09648179999999999,0.124511786
-10.2916765,1.4067180000000001,-4.204362000000001,-0.075694926,0.019285886999999998,0.03614577
-14.469971,0.9353570999999999,-0.5578394,-0.0352382,-0.05681047,-0.050073497
-16.79139,-1.8554201000000001,1.4726448,-0.041626103,-0.054157566,-0.15067427
-14.949587,-3.355263,2.6571903,-0.007557275699999999,-0.025935592,-0.19699532
-9.972635,-0.41291359999999994,1.5030799,0.05417502,-0.05042256,-0.1820902
-12.465899,2.0174692,2.0796514,0.124441974,-0.11271336,-0.13151056
-14.536664000000002,3.1626732000000004,2.4438,0.20003219,-0.20427333,-0.09318313
-13.0631,2.3395085,1.1289907,0.28148670000000003,-0.27506390000000003,-0.043161992
-10.910808,1.3186975,1.2266643999999998,0.32991958,-0.24153611,-0.011222467
-9.936311,1.3645513,1.0916698,0.31981415,-0.12548918,0.014311700000000002
-9.239234,0.7452575,0.06275681400000001,0.32885495,-0.031799898,0.030281462000000002
-7.8586990000000005,-0.5836680999999999,-0.53303546,0.36824703,-0.01956514,0.015376351000000002
-6.5908929999999994,-1.407101,-0.4553293,0.33789575,-0.07599164,-0.040509094
-6.1296735,-1.3760818000000001,-0.31946313,0.19896753,-0.011571533,-0.022933627
-6.288313400000001,-0.80572546,-0.30624714,0.12657128,0.19495328,0.026022859
-6.7677474,-0.6007531,-0.18142304,0.15105824,0.26789057,0.047315877
-6.929155000000001,-0.3151248,-0.3088903,0.088784896,0.22956316,-0.036233034
-6.918295,-0.0016950949,-0.59326404,-0.3061831,-0.03499385,-0.2496868
-7.015384,0.14522271,-1.0126131999999999,-0.609085,-0.53325045,-0.45729372
-7.4735192999999995,0.013915100000000001,-1.3315879,-0.8433082000000001,-0.38578758,-0.35562828
-8.195678,0.0018195934,-1.3279871,-0.7049036,0.20666444,-0.2922903
-8.765249,0.048812985,-1.5154339,-0.5228483,0.26841420000000005,-0.36946875
-9.490673,0.11296801,-2.2028284,-0.14329153,0.041119955,-0.31251866
-10.344033,0.94072014,-2.8608412999999997,0.15905185,-0.19149752,-0.22361158
-10.771542,2.254773,-3.6557066,0.17554522,-0.09833185,-0.24596925
-10.608449,1.1768938,-4.144507,0.022759092999999998,-0.04298746,-0.16346754
-12.1665,-0.16879122,-3.2693397999999996,-0.006492625,-0.013159783000000001,0.021240657000000003
-15.423495,2.0295074,-1.9762218999999996,0.12976523,-0.04298746,0.11119492
-15.650992,4.3767347,-0.36557543,0.22825415,-0.0030543262,0.13887584
-11.315246,2.1631134,1.1606513999999999,0.25911158,0.041643556,0.11812388
-9.918717,-1.416065,3.2497075,0.23144811,0.037926003,0.05318018
-12.930642,-2.9716926,4.2456093,0.17500417,0.010768682,-0.01441642
-13.976947000000001,-1.8641542000000002,3.0775547000000003,0.096761055,-0.07703883,-0.036233034
-11.510154,-0.08033983,1.9846207999999999,0.01850049,-0.10473721,-0.05487315
-10.076706,-0.22168393,0.8402881999999999,-0.030455995,-0.08503244,-0.07030186
-10.5049715,-1.3106626000000001,0.42262447,-0.042690754000000004,-0.06693338,-0.061261058
-9.7831,-0.8516845999999999,0.43160754,-0.031503193,-0.010506882,-0.038362335
-8.1321745,0.4325652,0.32528582,-0.054925512999999995,0.08210029,-0.03197443
-6.9216942999999995,1.1768076,-0.023894132999999998,-0.14702654,0.24925047,-0.05487315
-6.460810700000001,1.3173856000000002,-0.32910696,-0.15447909,0.46856853,-0.060720004
-6.5352516,1.3478686000000002,-0.56552005,-0.15234978,0.59367377,0.03986332
-6.5946565,1.1683705,-0.7002465,-0.15341444,0.5399001,0.09681341
-6.5945125,0.7622659,-1.0134655000000001,-0.20451768,0.25724408,0.22298327
-6.363846,0.24381591,-1.278657,0.10634291,0.008098328,0.53066736
-6.4391099999999994,0.09619903,-1.4226346,0.40338048,-0.39697513,0.7404036
-6.7504615999999995,0.20548955,-1.2824686,0.39805725,-0.35971236,0.7010115
-6.735186,0.42387906,-1.2189839,0.23355997,-0.27986354,0.7835131999999999
-7.1671867,0.8247833000000001,-2.2494771,0.012112585,-0.18777998,0.553025
-8.584621,0.7522965,-2.7011766,-0.12946853,-0.18671532,0.19156733
-10.822366,0.9327331,-3.0695292999999997,-0.1747249,-0.1552994,0.13939945
-11.932299,1.4928518999999998,-4.3302107,-0.18961257,-0.15210545,0.14793411
-11.350671,1.4742823999999999,-4.6134734,-0.18003072,-0.1552994,0.056897733
-14.641272,0.2885109,-1.8507657,-0.14756759,-0.21865484,-0.038362335
-17.534693,-3.289547,1.5996618,-0.14011504,-0.26495844,-0.11608185
-14.403851999999999,-3.8648257000000004,0.081891276,-0.13159783,-0.23940681,-0.16559684
-11.423521000000001,-1.2547915,0.11286267,-0.11615166,-0.23673646,-0.1820902
-15.332037,2.0791438,3.7649302000000002,-0.08901179,-0.29211575,-0.15336208
-14.907382,3.4853065,2.7774367,-0.033649947,-0.32937855,-0.104911745
-12.620880999999999,1.7413987000000002,1.2426099,0.062151175,-0.41400954,-0.045291292999999996
-10.86461,1.0319583,1.192389,0.15371114,-0.40496874,0.012723451
-9.616848,1.4658643999999998,1.1999068000000002,0.20322613,-0.29211575,0.056897733
-9.112886,1.0191636999999998,0.37207809999999997,0.22558379999999997,-0.18830357,0.06489134
-8.210426,-0.28287974,-0.5468548000000001,0.28838074,-0.095696405,0.035063665
-6.978523299999999,-1.290197,-0.61171854,0.392734,-0.034470253,0.02708751
-6.1436459999999995,-1.515702,-0.54390514,0.40390408,0.09220574,0.041992623
-6.053767700000001,-1.2210428999999998,-0.5066130999999999,0.30543262,0.33868113,0.0004712389
-6.4455934,-0.6596791999999999,-0.28574320000000003,0.20535544,0.41905355,-0.041573743999999996
-6.660152,-0.21985476,-0.113858655,0.06695083,0.31471777,-0.13526301
-6.4777904,0.094293244,-0.027140671,-0.30246556,0.040578905,-0.40568432
-6.420904,0.054453722999999996,-0.12874101,-0.53668875,-0.21652554,-0.60477406
-6.9799314,-0.28418216,-0.44821373,-0.6367659000000001,0.031520646,-0.41633084
-7.648650599999999,-0.5999678,-0.632912,-0.6495592,0.390308,-0.3614926
-8.138361,-0.43415496,-0.80904865,-0.43022367,0.30620056,-0.41685444
-8.920125,0.17859787,-1.3102987,-0.025673794,0.0049043754,-0.32264155
-9.927059,0.64775604,-2.6016352000000005,0.15105824,-0.06586873,-0.22734658
-10.6468525,0.72913975,-3.6011953,0.107390106,-0.033946656,-0.19381881
-10.775373,0.8990036,-4.0209470000000005,0.04405211,0.014486233000000001,-0.08415978
-12.103724,0.5881116999999999,-2.8640779999999997,0.04724606,-0.005183628,0.019093903
-15.73974,2.6882764999999997,-0.05692454,0.100478604,-0.024888393999999998,0.0771261
-17.243519,5.009685,2.6656372999999998,0.12603022,0.016615533999999998,0.079779
-12.377879,2.1468039,2.7309701,0.10208431,0.018744836,0.04464552
-11.028728,-1.7566258000000001,3.2163227,0.07972664,-0.016371188999999998,0.02815216
-13.284976,-2.6206452999999996,3.9457307,0.08450884,-0.04564036,0.009512044499999999
-13.395931,-1.3884168,3.0402915,0.05682792,-0.077597335,0.0026005406
-10.5745945,-0.49543694,1.520749,0.004660029,-0.09780825,-5.2359880000000005e-05
-9.890409,-0.7500268,1.0005369,-0.023544492,-0.11006046,-0.010157816
-9.977203,-0.4471411,0.5606933000000001,-0.044296455,-0.13187708,-0.009634216999999999
-8.596372,0.33794636,0.19597977,-0.10978121,-0.033405602,-0.012287118
-7.40925,1.1592628999999999,0.14224431,-0.23326325,0.12575097,-0.03783874
-6.715965700000001,1.3219633,0.020963632,-0.15182619,0.3509159,-0.031450834
-6.5030446,1.1145678999999997,-0.13558842,-0.0017104226999999999,0.588333,0.054768432
-6.691248,0.7647176,-0.29877722,0.062692225,0.6149493,0.059027035
-6.6299467000000005,0.5688623,-0.44413400000000003,0.049375363,0.34719834,0.08297295
-6.613771400000001,0.36356434,-0.78051937,0.32192597,0.19174187,0.31719613
-6.7580366,0.32957622,-0.99928236,0.46884778,-0.04724606,0.49392816
-7.164974000000001,0.5840703,-0.9486402,0.39964548,0.0054454273,0.47797588
-7.6784343999999995,0.8840446,-0.9483719999999999,0.21226694,0.083688535,0.42153192
-7.576153999999999,1.1281094999999999,-1.8276665,-0.023527037,0.043231804000000006,0.29696777
-8.133132000000002,0.66286826,-2.4804695,-0.15182619,-0.027017696,0.1968906
-9.752033,0.52827585,-2.5214965,-0.15769049999999998,-0.0073129297,0.2027549
-11.411703999999999,0.6276544,-3.1137740000000003,-0.1603434,-0.02115339,0.11384783
-10.916707,0.509352,-3.7527769999999996,-0.12681562,-0.12868312,0.010053096
-13.845773999999999,-0.2007969,-1.0321021000000001,-0.12733923,-0.16170475,-0.06021386
-16.998507,-2.5066621,2.2240121,-0.13692108,-0.14732324,-0.1293987
-14.895564000000002,-2.511393,1.2653451999999998,-0.08314749,-0.11271336,-0.16933185
-12.092749000000001,0.7404979,0.69198173,-0.03417355,-0.13613568,-0.16240288
-13.531395999999999,2.8641932,2.3548697999999995,0.028082347999999997,-0.20320868,-0.13206907
-14.633379999999999,2.5205580000000003,1.8813828000000001,0.1010022,-0.26656413,-0.09374163
-12.706632,1.0932117000000001,1.4230274,0.18352138,-0.31075588,-0.028274333
-10.5509405,1.2703155000000002,1.2248545,0.26069984,-0.26816985,0.02867576
-10.024253999999999,1.7855285,0.61146,0.34215435,-0.15318754,0.030281462000000002
-9.194195,0.7548726,-0.056867078,0.35866517,-0.052028265,-0.011763518999999998
-7.559366000000001,-0.7746295999999999,-0.4595718,0.37089992,-0.039252456,-0.0032463125
-6.251442400000001,-1.6078023000000001,-0.44665268,0.35173622,0.0959233,0.019617502
-5.9615817,-1.4640351999999999,-0.3885215,0.27560493,0.37592646,0.005253441
-6.0770397,-1.0329542999999999,-0.3299114,0.1585108,0.4765447,-0.051155599999999996
-6.408426,-0.7169964,-0.10536403,0.016371188999999998,0.36421529999999996,-0.1741315
-6.443841,-0.39196909999999996,-0.17361793,-0.36901495,0.101787604,-0.44668213
-6.434695,-0.16325583,-0.44374132,-0.41905355,-0.2990447,-0.6021211
-6.61675,-0.10273041,-0.6627054,-0.5484173000000001,-0.02115339,-0.45678756
-6.7661866999999996,-0.23442107,-0.43459549999999997,-0.5372298000000001,0.32429963,-0.34925783
-7.188839999999999,-0.40943724,-0.78924376,-0.29609509999999994,0.23593360000000002,-0.30827752
-8.334033999999999,-0.3348052,-1.490017,0.090355694,-0.04670501,-0.23321089
-9.956374,0.17472884,-2.5294836,0.3022212,-0.12550662,-0.1789137
-10.9936,0.6865613,-3.8335767,0.26282912,-0.11698942,-0.14536847
-11.347721,1.3822780000000001,-4.674506,0.1462586,-0.101543255,-0.010157816
-11.943781,1.1738868,-3.647844,0.159558,-0.10473721,0.08564331
-15.639404,3.2804873,-0.89226156,0.22930136,-0.12337732,0.13034119
-16.998507,5.000539,2.2636027000000003,0.26230553,-0.06321582,0.1314233
-13.356045000000002,0.84428173,2.3850367,0.23355997,-0.06695083,0.087231554
-13.125962,-2.9804937999999996,3.196556,0.16701056,-0.07864454,0.021223204
-14.168685,-2.7467048,3.8114061,0.11377801,-0.11431906,-0.03359759
-12.932625,-0.99597836,2.8231852,0.06960373,-0.1675516,-0.046355944
-10.310294,-0.08721598,1.2913462,0.010524335,-0.20001473,-0.056478854
-10.075567,-0.54724747,0.73016447,-0.0368439,-0.19896753,-0.04796165
-9.953367,-0.64517033,0.29701507,-0.074124135,-0.20587903,-0.031991884
-8.341446000000001,0.33790806,0.39315665,-0.15714945,-0.09728465,-0.004834562
-6.998357,1.2885115,0.25807577,-0.27000242,0.16301376,-0.01654572
-6.282788,1.5846071000000002,-0.0756855,-0.13852678,0.4094717,-0.015498524
-6.1540275,1.4715147,-0.35336503,0.06693338,0.6538003000000001,0.08297295
-6.2854019999999995,1.1761085,-0.44517785,0.19788542,0.6000267,0.11969468
-6.4968767,0.71308905,-0.5053489000000001,0.16170475,0.18163641,0.18572049
-6.593947999999999,0.38147295,-0.83800894,0.37833503,0.010210176,0.42844343
-6.745328,0.36558503,-1.1718373,0.42465606,-0.21013764,0.5370378
-7.260082000000001,0.73253,-1.2349291999999998,0.35545376,-0.16170475,0.59613466
-7.76047,1.0450116,-1.2213493999999998,0.27560493,0.00010471976000000001,0.5711241
-7.6468506,1.0817290000000002,-1.8734533,0.10367256,0.051749012999999996,0.37681657
-7.930323599999999,0.30393909999999996,-2.3745406000000004,-0.009162978,0.041102502,0.22031291
-9.629738,0.06820602,-2.4795504,-0.057072267,-0.007853981999999999,0.22563617
-11.73471,0.7528232,-3.23766,-0.07358308,0.008621926,0.16549212
-11.873441,0.766269,-3.9670775000000003,-0.050684362999999996,-0.08131489,0.033475414
-14.841407,-0.8607251,-1.3023403999999998,-0.06665412,-0.15531684,-0.04956735
-16.532307,-2.8024704,1.3055199,-0.09274679400000001,-0.15796974,-0.10332349
-14.168493,-1.9563501,0.9370235,-0.06133087,-0.1436057,-0.14749777
-13.292310999999998,0.83518374,2.3488363999999997,-0.0033161256,-0.14465289,-0.14323917
-13.902535,2.6818984,3.4115365,0.05735152,-0.18299778,-0.09854129
-14.366541,2.0684657,2.3344902999999997,0.11217231,-0.25326473,-0.056478854
-12.8364935,0.87214065,1.4361955,0.14412929,-0.28307495,-0.0085695665
-10.569673,1.052673,1.2355613,0.16701056,-0.23675391,0.031869713
-9.322753,1.9066560000000001,0.6511175,0.16168729999999998,-0.13454743,0.061679937000000004
-8.622698,1.2506926,0.040031053,0.13987069,-0.06482153,0.060074233
-7.371650999999999,-0.30579704,-0.31488540000000004,0.1526465,-0.05576327,0.04783947400000001
-6.182403,-1.4242436,-0.22569661,0.17713347,-0.035534903,0.045710173
-5.806083,-1.5946915000000002,-0.06558197,0.15849335,0.14863224,0.05263913
-6.169848,-1.0668945,0.0576428,0.13294172,0.38924333,0.024940755
-6.615390299999999,-0.5459738000000001,0.04903325,0.0919614,0.36421529999999996,-0.009634216999999999
-6.7825820000000006,-0.10875422,-0.16416562,-0.049619712,0.19441223,-0.13898057
-6.761493700000001,0.26644593,-0.4649827,-0.44940484,-0.14678219,-0.3614926
-7.033944,0.32420364,-0.7375961,-0.7128972,-0.5715953,-0.60477406
-7.635636,0.19123925,-1.0743261999999998,-0.91305155,-0.14945254,-0.41900119999999996
-8.195725,0.028625077000000002,-1.0780611,-0.84597856,0.37540287,-0.34021702
-8.699811,0.12184571,-0.9892936999999999,-0.5510703,0.2881015,-0.37055084
-9.533730499999999,0.35728192,-1.7865053,-0.10976376,-0.06321582,-0.22788765
-10.385558,0.45573149999999996,-2.8862388,0.092484996,-0.18884462,-0.15868534
