accx,accy,accz,gyrx,gyry,gyrz
-12.573091999999999,4.6497507,5.731422,0.6947283000000001,0.07913323,-0.22026055
-12.393288,2.389394,6.013746299999999,0.57763416,0.10576695,-0.056286868
-9.570514999999999,-0.26242363,4.444107499999999,0.43710026,0.11639601,0.07836528
-8.616196,-1.1486326,3.4745421000000003,0.32583553,0.15100588,0.16725489999999998
-7.7568784,-1.3285521,2.7434967,0.30508354,0.20690878,0.21252874
-6.3918194999999995,-1.3489028,2.8033805,0.36789796,0.22766075,0.21624629
-6.027623,-0.99923444,2.5398169999999998,0.39877284,0.17549285,0.19388862
-6.187776,-0.13073298,2.2563052000000003,0.42963025,0.27822295,0.15128514
-6.670370599999999,0.37566940000000004,2.106639,0.5462182,0.47624799999999995,-0.019041541999999998
-7.037458999999999,0.6114025,1.6038374,0.51534337,0.36925929999999996,-0.17181021
-7.518645299999999,0.612772,1.1141849,0.5137377000000001,0.15046483,-0.18990928
-7.7634387,0.82932276,0.7118919,0.5036322,-0.040072758,-0.11697197
-7.987766000000001,0.9065405000000001,0.6918380999999999,0.2369459,0.21807889999999996,-0.23088960000000003
-8.378738,0.6220806,0.9938906,0.18636626,0.0376293,-0.38686967
-8.589945,0.3316065,1.5150892,-0.23415338,0.015254176999999999,-0.537509
-8.661236,-0.0007374141000000001,1.7603799,-0.81171775,0.07702138,-0.6146875
-8.493642,-1.2441996000000002,1.930464,-0.6871536,-0.0070685832999999995,-0.57690114
-7.999239,-1.4569484,2.0156113999999996,-0.28632125,-0.46221554,-0.5364444
-9.750741,0.0031507695,1.1545511,-0.143117,-0.52663565,-0.5401794
-11.957409,0.40471584,0.23151929999999998,-0.16441001,-0.06775368,-0.36130062
-13.296151,0.66261923,-0.47921383,-0.1516342,-0.19072957,-0.12761848
-12.204587,-0.5060289000000001,-0.13620134,-0.19422024,-0.17901842,0.1699427
-11.286621,1.6402961999999999,1.4307749,-0.25225243,-0.028361599999999997,0.43449970000000004
-11.020271000000001,3.326887,3.650468,-0.3485946,0.062098815999999994,0.5542642
-11.213722,2.8391497,5.0016885,-0.42844343,0.18668042,0.5324476
-11.840247,4.855728599999999,5.1895565999999995,-0.50829226,0.26227063,0.43662903
-10.142356,0.9722183000000001,4.544214,-0.54449034,0.19359192,0.35093334
-10.155878,-2.5275395,5.574726,-0.5189387,0.14781193,0.3040887
-10.3604765,-0.7939939,5.481515,-0.42790237,0.14941764,0.25511476
-12.79336,1.053305,5.121427,-0.34700635,0.16804029999999998,0.20559978
-11.137788,1.1299003,3.4282095,-0.25542894,0.11641346,0.118839465
-9.416758999999999,0.8332396000000001,2.9968128,-0.17345083,0.08340929,0.024085544
-8.828562,1.1424077,2.3652797000000003,-0.15695746,0.0035430184000000003,-0.06373943
-7.365455,1.7285177999999999,1.9852912,-0.20219639,-0.18008307,-0.1462586
-6.2791386,1.8285189,1.8120468,-0.25651103,-0.24663247,-0.18139207
-6.560314,1.6075819,1.5554553999999998,-0.26181683,-0.08478809,-0.19256218
-7.000971300000001,0.89073884,1.5824428999999998,-0.3384717,0.20743237,-0.11217231
-7.290678999999999,0.08228392,1.7552084,-0.28630382,0.13238323,0.035255652
-7.415465400000001,-0.24840320000000002,1.6256533000000002,-0.25490534,0.10629055,0.12095132
-7.5999336,-0.47611097,1.3423715,-0.37840483,0.024853487999999996,0.10019935
-7.716953,-0.35908237,1.2331766000000002,-0.43589598,-0.1470789,0.08051204
-8.416289,0.114050195,1.3407338,-0.24904104,-0.013456488,0.20720549
-9.093341,0.6288706000000001,1.1656698,0.0053930674,0.02857104,0.42704716
-8.923802,0.83741516,0.9072205,0.52600735,-0.0022863813,0.5856800999999999
-8.144423,1.0773523999999999,1.4030021000000001,0.74319607,0.26918212,0.5015727
-7.5805216,1.6293596000000001,1.6271857,0.47436303,0.06105162,0.40043090000000003
-9.686278999999999,1.0782334999999998,0.98645896,0.021886429,-0.5053426,0.3738146
-11.801623,1.0165493,1.3172706,-0.08562585,-0.5846504,0.369556
-12.765308000000001,0.89331496,0.11722012,-0.06485643,-0.31529373,0.29770082
-12.161539,1.2555097,-1.5144379,-0.12821189,-0.36692056,0.13213888
-11.354234,2.8165772000000002,0.28395233,-0.013753194,-0.22479841,-0.1574287
-13.167506,-0.04260721,3.3054254000000003,0.15709709,-0.14388494,-0.42411499999999996
-13.805579999999999,-1.7003621,5.551521299999999,0.24439846,-0.17582446,-0.49439943
-14.051503,-2.8696517999999998,8.230864,0.29391345,-0.23596852,-0.42146212
-10.806239,-3.008458,3.9687339999999995,0.3450167,-0.21521655,-0.33361968
-9.376105,2.9750063,2.069912,0.39557886,-0.07894124,-0.29476866
-10.763584,3.1106138,3.9830801,0.41474259999999996,0.00143117,-0.24951227
-11.594391,0.91593534,6.3784122000000005,0.35246924,0.05518731,-0.16701056
-11.142261,-0.5147246,5.1116495,0.24068089999999998,0.110025555,-0.030735249
-8.679345,-0.21885876,4.0325828,0.12676327,0.11800171,0.07838274
-7.4617786,0.113169126,3.7162129999999998,0.052237704,0.12651892,0.15769049999999998
-7.4141245,-0.05415684,2.8763459,0.024556782000000003,0.18509217,0.19388862
-7.238955000000001,-0.79743195,2.4078486,0.048502699999999996,0.1573938,0.20614083
-6.981463400000001,-1.2002516,2.176789,0.1624378,0.12705997,0.19282398
-6.7383275,-0.9026235999999999,2.2095034,0.33489376,0.22394319,0.114039816
-6.9441047000000005,0.07710288,2.1110826,0.5755223,0.3469191,-0.0344528
-7.1627045,0.6230479,1.5931785,0.59466857,0.30112165,-0.18085101
-7.3403350000000005,0.7925382,0.97090626,0.52441907,0.094055794,-0.24473007
-7.58304,0.8981321,0.6863698,0.5414359999999999,-0.018256145,-0.18191567
-7.962464,0.8565591999999999,0.6420387,0.2971074,0.2255489,-0.22396065
-8.047649,0.38703707,0.5869241999999999,0.17201965,0.31443852,-0.37035885
-8.147861,-0.04620809,0.71817434,0.02295108,0.09831439999999998,-0.50715774
-8.31355,-0.28864497,0.9479028,-0.5609837,0.091402896,-0.55826104
-8.112741999999999,-0.7459949,1.7622856,-0.5977229000000001,0.006754424,-0.6471680999999999
-8.02774,-1.9873118000000003,2.5876436000000003,-0.30440290000000003,-0.43240532,-0.7243465
-10.0761795,-2.1002512,2.2123953999999997,-0.20113175,-0.72464323,-0.7669326
-11.96645,-1.2193382,0.30477232,-0.23893557,-0.28016025,-0.58700657
-12.450385,1.0874751,-0.29579884,-0.13086478,-0.35253906,-0.18882717
-12.639057000000001,0.3056438,-0.5171093,-0.09201376,-0.3855607,0.18004817
-12.568783,0.33572456,1.2607579,-0.09466666,-0.2189341,0.44408157
-12.427897999999999,3.6508510000000003,2.9821312,-0.17238617,-0.06297148,0.5718397
-11.465036999999999,1.8151688999999998,3.8943317000000004,-0.29056242,0.07063347,0.5548053000000001
-11.735725,3.3234775,4.5390615,-0.4012861,0.16751671,0.46272168
-10.78087,1.555647,4.217702,-0.48113492,0.18668042,0.3738146
-10.763948,-1.5629444,5.6394652999999995,-0.4869992,0.19413297,0.32803464
-10.432830000000001,-0.37792954,5.824269,-0.41458549999999994,0.24577726,0.27373743
-12.811363,1.0592332,5.655516,-0.3262195,0.22394319,0.17207201
-12.076305,0.1827159,4.072067700000001,-0.24958208,0.14142403,0.061348322999999996
-10.028027999999999,-0.09928276,3.520147,-0.15748106,0.09670869,-0.03286455
-8.600451,0.72436094,2.6997304,-0.13034119,0.034958944,-0.11962487
-7.2760940000000005,1.6843017,2.0206106,-0.21123719,-0.052307516,-0.18350391
-5.9921985,2.0489292000000003,1.579723,-0.2926917,-0.11566297,-0.20160298
-5.9220963,1.968187,1.4490188,-0.35124752,0.08819149,-0.15423475
-6.391417,1.2829473999999998,1.5765531000000002,-0.40341540000000004,0.33519047,-0.020612339
-7.108528,0.15399505,1.7076212,-0.23253022,0.24417156,0.10660471
-7.0638337,-0.2079029,1.6556383000000001,-0.25436428,0.29208085,0.13480923
-6.9572625,-0.44278365,1.217825,-0.43961352,0.17071065,0.037384953
-7.0625979999999995,-0.47628329999999997,1.0335578,-0.38477528,-0.032079153,0.11618657
-7.6527970000000005,0.22382914,1.208593,0.01870993,-0.09649926,0.30675906
-8.330022,0.8557546999999999,1.0062255,0.57072264,0.011013027,0.5537406
-8.517794,1.1796615,0.89137083,1.0125527,0.39428732,0.55428165
-8.20266,1.6463009999999998,1.383025,0.6282138,0.18561576,0.5148896
-8.286610000000001,1.8503634999999998,1.2080853999999999,0.0085870195,-0.489879,0.50052553
-9.9553585,0.8978927,0.8182807,-0.06644469,-0.472321,0.44355798
-11.969447,0.80891454,1.0832326,-0.027052603999999997,-0.1523847,0.26043802
-13.098514999999999,1.0418895000000001,-0.74533415,0.025097834,-0.28227209999999997,0.034208454
-11.980988,2.5811985,-1.4859374,0.23109904,-0.26736698,-0.31710887
-12.517307,1.5188146,2.413662,0.4222126,-0.33550465,-0.5438795
-13.528177,-2.8350987,6.5448184000000005,0.57445765,-0.33711034,-0.55133206
-14.368160000000001,-3.7665677000000004,10.571023,0.6676059,-0.23383921,-0.45818383
-12.023882,-5.322014,5.9177485,0.7426725000000001,-0.19018853,-0.40282199999999996
-9.998934,2.8977501,2.1072998,0.7948404,-0.10979866,-0.37566468
-11.832184,4.0057006,4.353377,0.7714181,-0.02729695,-0.31232667
-12.636395,1.9489473000000002,7.1759973,0.66441196,0.01314233,-0.18989182
-10.770239,-0.6201557,5.3453040000000005,0.5020614000000001,0.044558257000000004,-0.039776053
-8.488555999999999,-1.1558248,4.056381,0.31946507,0.05359906,0.102869704
-7.943434700000001,-0.94631296,3.4783440000000003,0.16083209,0.032829642,0.21624629
-7.3282490000000005,-0.99512595,2.6981792,0.084177226,0.016877335,0.27640778
-6.400851,-1.3961165,2.4779317,0.07298967,-0.044331364000000005,0.31579986
-6.3552074,-1.2549447,2.1656225,0.14008012,0.034976397,0.32964033
-6.717364,-0.7074291,1.9915353,0.30136599999999997,0.27878144,0.24446827
-7.252103999999999,0.09888053,1.8394843,0.47970375,0.43634978,0.025691247
-7.538411999999999,0.6531765,1.2496775,0.42540655,0.328279,-0.16540486
-7.845148,1.2113512,0.74103415,0.37536797,0.02804744,-0.2378011
-8.015863000000001,1.4684213,0.35830665,0.41369540000000005,-0.14547320000000002,-0.15634659
-8.249423,1.4003686000000002,0.29095298,0.25984463,0.00143117,-0.18935077
-8.325606,0.95240384,0.33446038,0.086306535,0.33573154,-0.32457888
-8.441553,0.35083672,0.91356033,0.05597271,0.071174525,-0.5007524
-8.586785,-0.18649873,1.4604727,-0.6999294,0.06583382,-0.57529545
-7.8545713,-0.7414841999999999,2.1944103,-0.86812675,0.15580554,-0.6317219000000001
-7.27889,-1.1368437,2.8311532,-0.5359556999999999,-0.17208946,-0.63863343
-9.494599000000001,-0.25798960000000004,1.8483621,-0.2713987,-0.6069906,-0.6801548000000001
-11.753376,0.24376804,0.16099569,-0.32463124,-0.4787089,-0.621599
-12.911384,1.3179983999999998,0.1280036,-0.34379494,-0.16090190000000001,-0.33894295
-12.443634,0.0035625721999999996,-0.39980295,-0.3347367,-0.26949629999999997,0.0065275314
-10.990478,-0.9898875,1.2953972,-0.407674,-0.10501646,0.37861428
-11.722222,2.7726102000000004,3.0842680000000002,-0.49549899,0.05094616,0.67245793
-11.727164,1.6601203999999998,4.2595339999999995,-0.6158045,0.14728834,0.77094686
-12.336575,3.8107073,4.509363700000001,-0.7073645000000001,0.2319368,0.6916216
-10.295086999999999,3.4067383,3.8111956,-0.73026323,0.22448425,0.5335297
-9.839441,-1.6302502,4.727121400000001,-0.7073645000000001,0.19573867,0.42865285
-10.235729,-1.9109464,6.0985875,-0.6365739,0.20584413,0.38819614
-11.327103,0.5367417,5.5907290000000005,-0.524262,0.24150121,0.31206486
-12.301973,1.1618773,5.0061035,-0.4098032999999999,0.24523622,0.20294689
-10.662759,0.20361249,3.7371383000000002,-0.33314845,0.18668042,0.1007404
-9.433183999999999,0.109664015,2.9665885,-0.28150415,0.094055794,0.06295402
-8.714616,0.7133188,2.3660936,-0.2974739,-0.038467057,0.020891592
-7.1884565,1.3422278,1.9140589,-0.3629412,-0.15557864,-0.028588492000000004
-6.403235,1.7750898999999998,1.8611852999999998,-0.4470661,-0.046460666,-0.052010812000000003
-6.435336599999999,1.6007633,1.7888422,-0.45078364,0.23246041,-0.042970005
-7.0869327,0.52984643,1.8063006000000001,-0.49284607,0.4507138,0.0065275314
-7.609136599999999,-0.5959264,1.7006397,-0.31237903,0.32136747,0.10766936
-7.39928,-0.7255868000000001,1.315202,-0.24211207,0.30220374,0.16036086
-7.294903,-0.7073334,0.9063203000000001,-0.37945202,0.24736552,0.11458086
-7.3683567,-0.42639774,0.7178391,-0.3986332,0.22127284,0.13426818
-8.110531,0.21617725,0.7272626999999999,-0.1585457,0.26652923,0.25565583
-8.561703,0.8465993,0.6199545999999999,0.14220943,0.17390461,0.48136179999999995
-8.252344,1.3179603000000002,0.8451244000000001,0.79058176,0.3623478,0.57505107
-7.557815,1.7105997,1.5563078000000001,0.64365995,0.5002287999999999,0.5042430999999999
-7.7745185,1.9568671999999998,1.7514447,0.086323984,-0.28759536,0.47177994
-9.534927,0.19120094,0.52228075,-0.13138838,-0.71932,0.4829675
-11.085202,0.25634238,0.9528539,-0.047804568,-0.25139722,0.35627407
-12.228203,0.9543384,-0.5482722,-0.04888667,-0.27110198,0.150779
-11.696107000000001,2.754845,-1.721182,0.054367005999999996,-0.3051708,-0.11482521
-11.616887,3.8253790000000003,1.4124066000000002,0.23109904,-0.20348793,-0.44486699
-14.114872,-0.46975195,3.6041162000000004,0.37536797,-0.2173284,-0.5704958000000001
-14.434192999999999,-2.0688584,7.742311999999999,0.44722316,-0.20189969,-0.5034228000000001
-14.452503,-5.430547,7.9533944000000005,0.51377255,-0.24075072,-0.39109337
-10.906326,0.23302285,1.8057356,0.58297485,-0.20827013,-0.32721433
-11.690658,3.9654205,2.0071168000000004,0.61224407,-0.1523847,-0.27132890000000004
-12.335894999999999,2.5615373,5.60971,0.5723284000000001,-0.11032226,-0.20851448
-12.172236,-0.34086728,5.714700700000001,0.47544515,-0.10447541,-0.11854276
-9.5577965,-1.1491882,3.7839398,0.36845645,-0.112992615,-0.0136833815
-7.8786380000000005,-0.8566166,3.4798765,0.32213542,-0.14493214,0.07253588
-7.348686,-0.3722505,2.6253857999999997,0.31520647,-0.22319270000000002,0.11245156
-6.944248,-0.6654923,2.212817,0.33704054,-0.30782372,0.12789772
-6.5303288,-1.1675659999999999,1.7689032999999998,0.417954,-0.32644638,0.107145764
-6.7085724,-1.2011996999999999,1.7922898999999997,0.57285196,-0.030490901,0.061889375999999996
-7.1644190000000005,-0.64629084,1.8559564,0.71657985,0.16964601,-0.004642576
-7.5498185,0.14395855,1.5611823999999999,0.8299738999999999,0.2255489,-0.11534881
-7.702894000000001,0.5970373000000001,1.0427132,0.79803437,0.06743952,-0.24790657
-7.921465400000001,0.9229264000000001,0.76667124,0.7426725000000001,-0.024626596,-0.27026424
-8.284657000000001,0.8042984999999999,0.66803014,0.78899354,-0.08689994,-0.21490239
-8.522908000000001,0.5918753999999999,0.85219216,0.488762,0.31337386,-0.38205257
-9.029321000000001,0.049943045,1.1118002,0.39187878,0.45019022,-0.52417475
-8.881894,-0.2769517,1.5392417999999999,-0.11913618,0.1622109,-0.5896595
-8.449061,-0.56916875,1.8626506,-0.66264915,0.15634659,-0.5987003000000001
-7.243839299999999,-0.88510764,2.4426126,-0.44919538,-0.04166101,-0.4980995
-7.7863940000000005,-0.9226296,1.3948811,-0.07070329,-0.53885293,-0.5268451
-10.5389595,-0.23222798,0.32523796,-0.014800391999999999,-0.6181607,-0.6029589
-12.186391,0.37810190000000005,-0.29231286,-0.09519026,-0.21839304,-0.44540802
-12.355814,0.41561425,-0.14421713,-0.06112143,-0.44251078,-0.17498670000000002
-11.039473,-0.81754327,0.27686548,-0.060580377000000005,-0.39831904,0.12522738
-11.145124000000001,0.6873560999999999,2.313546,-0.07442084,-0.17793632,0.38076103
-12.1437645,3.620828,3.6524599,-0.17236872,-0.040072758,0.50426054
-13.647975,2.7219965,3.8067712999999994,-0.26499334,0.12653637,0.51597166
-12.739835000000001,5.1175966,4.7794204,-0.35974726,0.21596704,0.47177994
-10.802313,-1.0571167,3.8568672999999993,-0.43481390000000003,0.17976889999999998,0.41163590000000005
-10.999671000000001,-2.6979206000000002,5.7528358,-0.48644072,0.21012019,0.359468
-11.104681,0.11561121,5.7700167,-0.5199859,0.30487412,0.29504790000000003
-12.112525,1.9837877,5.021397599999999,-0.516792,0.25429448,0.18167132
-10.467842999999998,0.7896365,3.3911949999999997,-0.5034926,0.19680333,0.07572984
-8.999259,-0.021250935,2.9564082999999997,-0.492305,0.15048228,0.026755897
-8.786873,0.5375270000000001,2.476591,-0.5364793000000001,0.10470230000000001,-0.0051661744
-7.1892895999999995,1.338014,1.9208872,-0.6056815999999999,0.009948377,-0.0371057
-6.163134599999999,1.771939,1.7276081,-0.65413195,0.056269415,-0.058398715999999996
-6.255676,1.9784917000000002,1.5831228000000002,-0.6413561,0.25696483,-0.07489208
-6.480376000000001,1.3528101000000001,1.5575911,-0.67116636,0.44751987,-0.0067718774
-6.668005,0.49122316,1.4690535,-0.52211523,0.25429448,0.08637635
-7.2974404999999996,0.07108864,1.1193947,-0.45078364,0.21755528,0.09276425
-7.516999,-0.11969093,0.5961658000000001,-0.566307,0.24577726,-0.003036873
-7.4771204,-0.124239914,0.6996623000000001,-0.6046344,0.13824753,0.021956242999999997
-8.188092999999999,0.25488672,0.7474026999999999,-0.32728413,0.081297435,0.26152015
-8.897409,1.0561493999999998,0.60526377,0.11346386,0.18029252,0.48029715
-8.7935295,1.6619686000000002,0.79236585,0.51590186,0.33946654,0.5250125
-8.036128,1.7013581000000002,1.5704334999999998,0.34184018,0.39802232,0.42121777
-7.203980400000001,1.7560798999999998,1.6030138,-0.13245304,-0.25672048,0.44409904
-9.210274,0.52905154,0.62821937,-0.40074503,-0.63893014,0.5138424
-11.238689,0.528113,1.1310401,-0.38371062,-0.27747244,0.44464007
-12.156549,0.8394646000000001,-0.20590135,-0.37732273,-0.26256734,0.25565583
-11.565,2.859194,-1.7108869999999998,-0.23040092,-0.23169246,-0.05466371
-11.846472,3.5311506,0.7880946,0.030438542000000002,-0.16461946,-0.36819467
-14.694567000000001,-1.9146334999999999,5.020564599999999,0.22205824,-0.24181537,-0.49064696
-13.862226500000002,-2.8944175,8.307095,0.30564207,-0.24288002,-0.41132173
-12.256033,-3.963687,6.194164,0.36046284,-0.24713862,-0.29742154
-10.339907,1.1595790000000001,2.3302956000000004,0.45628142,-0.19071212,-0.24151866
-11.726771000000001,2.9255996,3.2322776,0.5031260999999999,-0.12203342,-0.20903808
-13.041475,1.3076364,6.125584,0.5015377999999999,-0.098087505,-0.13451253
-12.537524000000001,-0.532729,5.7072405999999996,0.44776422,-0.08477064,-0.030176742000000003
-9.579307,-0.93464845,4.2175775,0.38440877,-0.07892379,0.08531169599999999
-8.037527,-0.89848644,3.8659847000000003,0.31841788,-0.06827728,0.16996016
-8.144988,-0.8843319,2.9990537,0.26464427,-0.13109168,0.22903955
-7.6081023000000005,-1.0662816000000002,2.4945667,0.280073,-0.22319270000000002,0.21998130000000002
-7.0027814,-1.2607291,2.1994860000000003,0.38601446,-0.24129176,0.15983725
-6.600278,-1.2679596000000002,2.0289998,0.5670050999999999,-0.15344934,0.08637635
-6.861667,-0.7708467,2.1363939999999997,0.66336477,0.08662069,0.02994985
-7.382138,-0.052193597,1.7955842,0.7309613,0.24099506,-0.07063347
-7.6770844,0.21178152,1.3322392,0.6495243,0.18083356,-0.1669931
-7.557346000000001,0.54445106,0.8222359,0.5845806,0.06852163,-0.21329668
-7.547107700000001,0.6744849,0.71719754,0.664953,-0.022497293999999998,-0.19413297
-7.9974479999999994,0.5680483000000001,0.67884237,0.42062435,0.307527,-0.3447898
-8.392097999999999,0.14186123,0.6749733,0.38388517,0.49277624,-0.46403068
-8.726011999999999,-0.42438662,1.127602,0.14433873,0.06211627,-0.49438196
-8.68239,-0.89157194,1.5240339,-0.44066072,0.08768534,-0.47041859999999996
-8.127137,-1.4095719,2.4525723,-0.34166566,0.045081854000000005,-0.46563640000000006
-7.736911,-1.7158957,2.157099,-0.023858652,-0.39884263,-0.47200683
-9.775372500000001,0.22267033,1.4089303,0.045867253,-0.6618114,-0.52258646
-11.641997,1.0067139999999999,0.049368437,-0.11541862,-0.30888838,-0.4858473
-12.608221,1.0778408000000002,-0.07918104,-0.12712978,-0.25033256,-0.20373228
-12.026841000000001,-0.30281863,0.435036,-0.1452114,-0.3956487,0.11672762
-11.608794999999999,-0.28866413,2.7816505,-0.12658873,-0.12948598,0.41322416
-11.866334,3.6105616,4.434033,-0.14416419,0.030717794,0.55801666
-12.671647,1.6134716,3.7605917,-0.24902357,0.17444566,0.57665676
-12.543778,4.28722,4.316707599999999,-0.37943459999999996,0.23034856,0.52448887
-10.800578999999999,-0.15425363,3.1217134,-0.50506335,0.19947368,0.44835764
-10.880402,-2.5862837000000005,4.8751407,-0.56948346,0.21437879,0.40470695
-10.586403,0.038699877,5.986902,-0.5572486999999999,0.28516933,0.34934509999999996
-11.505116000000001,3.0051349999999997,5.024654,-0.48857,0.30806807,0.26364943
-11.453429,1.9877046000000003,3.9294019999999996,-0.40713295,0.21757275,0.15931365
-9.593662,-0.45654553,3.1861846000000003,-0.3310017,0.13772394,0.094369955
-8.937258,-0.514083,2.982208,-0.2830924,0.062133722,0.058171824000000004
-8.096548,0.63153297,2.237142,-0.30173249999999996,-0.10554006,0.015044739
-6.852023599999999,1.7286712,1.7711633000000002,-0.37784633,-0.31314698,-0.045622908
-6.155923400000001,2.27113,1.4480898000000002,-0.46249480000000004,-0.26043802,-0.079150684
-6.330135299999999,1.9899647,1.531523,-0.45078364,0.086079635,-0.094055794
-6.530424,0.78467566,1.8070668,-0.3911632,0.29316294,-0.07702138
-6.904552499999999,-0.044101197,1.7243041000000001,-0.2745752,0.23354250000000001,-0.033911746
-7.237260000000001,-0.61789554,1.3908014,-0.24849997,0.22129029,0.026755897
-7.2631845,-0.53993076,1.2224411,-0.42894956,0.22767820000000003,0.0054628807
-7.636267999999999,0.060908493,1.3520631,-0.6078109,0.16114625,-0.024853487999999996
-8.527907,0.8159727,1.3026661,-0.5013458,0.13718288,0.123115525
-9.216747999999999,1.1550204,1.0994078,-0.20804325,0.18083356,0.3051708
-9.339483999999999,1.0771897,1.1441028,0.30935959999999996,0.10470230000000001,0.41161844
-8.467727,1.124231,1.7359111,0.6468714,0.30061552,0.4111123
-6.975104300000001,1.3865013000000002,2.2198176,0.43340015,0.25802946,0.45048693
-8.992306,0.9374353000000001,0.76328105,-0.073879786,-0.30302405,0.55110514
-11.289848,0.517636,0.17537048,-0.19685568,-0.40735984,0.5367411
-12.479087,0.7051498,-0.40900627,-0.18620917,-0.15983725,0.3466922
-11.879282,1.9791046,-1.3720788000000002,-0.20378464,-0.23701571,0.08372344
-11.135786,3.9431927000000004,-0.32716286,-0.09358455,-0.13960889,-0.24151866
-13.003436,1.6405644,2.9403384,0.026720991,-0.17420131,-0.45869
-13.123826000000001,-1.7143058999999998,5.3252315999999995,0.09697049,-0.13641493,-0.4619014
-13.226997,-2.64747,7.743825,0.15287338,-0.14810865,-0.36341247
-11.161844,-3.2786964999999997,5.592874500000001,0.22153464,-0.13535029,-0.33466688
-10.363244,1.6953342,2.765715,0.29977775,-0.10341076,-0.3325376
-12.307481,3.1493330000000004,4.0216937,0.3615275,-0.08105309,-0.28516933
-13.196237,1.8867363000000001,6.5129275,0.38177332,-0.065065876,-0.19039796
-11.742861,0.020274099,5.1806307,0.35833356,-0.014503686000000002,-0.06159267
-9.035162,-0.63946253,4.0452433,0.33864623,0.052028265,0.033161256
-8.249978,-0.60086805,3.3092462999999994,0.33384657,0.09246755,0.08850565
-7.877373700000001,-0.6658275,2.4722237999999996,0.33599332,0.095137894,0.10501646
-6.67581,-0.716326,2.222097,0.3391873,0.03338815,0.11353367
-6.1235347,-0.7844937,2.0606701000000003,0.43765876,0.06585127,0.08159414
-6.215539,-0.5742636999999999,2.1707366,0.62770766,0.2319368,-0.019530235
-6.6017523,-0.27332205,2.0746717,0.820392,0.24525367,-0.15687019
-6.975181,-0.09228211,1.6748686000000002,0.8794889000000001,0.12227777,-0.2846283
-7.443065600000001,0.08719682,1.1178528,0.84274966,0.004642576,-0.31763247
-7.8694158,0.28995696,0.8893214,0.8390321,-0.014503686000000002,-0.25216517
-8.179627,0.57690686,0.88292414,0.72404987,-0.027803095,-0.2761111
-8.330002,0.43830174,0.64399236,0.39346704,0.3032684,-0.45870742
-8.564127000000001,0.19801964,0.5381781999999999,0.36313320000000004,0.0935322,-0.50555205
-8.6958275,-0.27495968,0.6915891,-0.20270254,-0.04590216,-0.45603707
-8.206643,-0.83220536,1.6106943999999999,-0.4475897,0.032847095,-0.54972637
-8.121927000000001,-1.3934925,1.9539846,-0.29054496,-0.14599679999999998,-0.5981767
-10.109986,-1.6381032,1.7601501,-0.014276793000000001,-0.6197664,-0.6359630999999999
-11.316453,-1.2079802,0.7395019,0.031503193,-0.6969449000000001,-0.62851053
-11.969821000000001,0.28183585,0.35076013,0.07302458,-0.31314698,-0.37034142
-12.192596,0.34661338,-0.7796574000000001,0.1752136,-0.45261624,-0.05094616
-11.276872000000001,0.013713988,0.57788366,0.19120082,-0.36370915,0.21999875
-12.963569,3.6966953,2.1339998,0.1666964,-0.099152155,0.4121595
-12.327802,1.8673816000000003,3.038759,0.10548769999999999,0.0136833815,0.472321
-12.813873,2.7117016,3.9009783,0.030962141000000002,0.08288568,0.4121595
-11.377514999999999,3.327318,4.164599,-0.010000736,0.13772394,0.29719466
-10.531672,0.48730624,4.3749247,-0.051539574000000005,0.08662069,0.22212805
-10.875862,-1.4532038999999999,5.7175355,-0.12498303,0.1574287,0.20617574
-10.847869000000001,0.42136994,5.710573,-0.1484228,0.21277308,0.15931365
-12.210946,1.008658,5.2854395,-0.13404128,0.1712517,0.045937065
-10.493767,-0.075762115,3.7477205000000002,-0.13350023,0.15049975,-0.045605455
-8.531613,0.23818476,3.1045133999999996,-0.1452114,0.12494812,-0.06211627
-8.254412,1.0227742,2.425987,-0.19950859,0.08396779,-0.046146505
-7.037679,1.5942606000000001,1.9965056,-0.30545008,0.04829326,-0.022724187000000003
-5.9182177000000005,1.7899817999999998,1.7826746999999998,-0.42308527,-0.019303342,-0.023788838
-5.918705999999999,1.5930923000000001,1.7785279999999999,-0.5604252,0.101525806,0.040072758
-6.4143057,0.5631736999999999,1.5871356,-0.6291039,0.25802946,0.15079644
-6.9625015,-0.08603803,1.1973115,-0.45130724,0.2878397,0.22692771
-7.3255479999999995,0.29817387,0.9215187,-0.38475785,0.30435053,0.24342106
-7.2621694,0.7000933000000001,0.6797616999999999,-0.52211523,0.14624114,0.21413444
-7.5841316999999995,0.8441955,0.647622,-0.3634648,0.21863739,0.32326987
-8.320914,1.1010263999999998,0.509352,0.047472954000000005,0.23195426,0.5005430000000001
-8.544705,1.4181049,0.42439620000000006,0.39296088,0.27986354,0.5564458999999999
-8.320157,1.5981774,0.558845,0.11880456,0.63065726,0.5660103
-7.972529,2.234585,0.5358319,-0.39275143,-0.23169246,0.64266515
-8.887985,2.3014312,0.75871295,-0.47738245,-0.644777,0.57719785
-10.216461,1.6857958,1.0874081,-0.3709348,-0.34508649999999996,0.46486846
-11.365294,1.3684393999999998,1.5237082,-0.40818015,-0.32538173,0.26843163
-11.777576,1.5730671999999999,-0.13273454,-0.42734388,-0.43184683,-0.0056897732
-11.95967,2.5074666000000003,0.2555571,-0.27881634,-0.21624629,-0.2249904
-14.038373000000002,0.50159484,4.0629315,-0.16915731,-0.09700539999999999,-0.40493384
-14.745994,-1.9177843,7.668618700000001,-0.15905185,-0.13480923,-0.345837
-13.374815,-2.849167,5.971656299999999,-0.16863371,-0.16249016,-0.17123425
-12.387849000000001,1.0490338,0.78489596,-0.15426965,-0.16036086,-0.07063347
-13.436059,3.186309,2.6055137999999998,-0.10156071,-0.06667158,-0.05305801
-12.776178,0.58116853,7.4771686,-0.07548549,-0.021956242999999997,-0.008883726
-11.861708,-2.7981706,6.227625,-0.105819315,-0.025150195,0.09384635
-10.387197,-1.4542955,4.548552,-0.15426965,0.0014486233,0.21628119999999998
-8.096309,-0.36783558,3.980341,-0.18779743,0.012112585,0.27057838
-7.042994500000001,0.18972611,3.1837614,-0.16915731,0.04829326,0.24076816
-7.213097599999999,0.10273998,2.0903680000000002,-0.10848966,0.015830137,0.20296434
-6.7843723,-0.60773456,1.9296978999999999,0.005410521,-0.08848819,0.17315412
-6.358358,-0.91221005,1.9902233,0.16723745,-0.22476350000000003,0.1385617
-6.0139949999999995,-0.7976714,2.0152473,0.36367425,-0.10552260000000001,0.075206235
-6.713628999999999,-0.3514401,1.946189,0.56862825,0.14091788,-0.03656465
-7.557288000000001,0.08553047,1.3896521000000002,0.6894574,0.25324726,-0.09616764
-7.6189723,0.32059318,0.9654761999999999,0.6330309000000001,0.25644124,-0.14622368
-7.4663367,0.44395202,0.8887564,0.5691519,0.18137461,-0.14035937
-7.432894999999999,0.33489135,1.0155534,0.56115824,0.1531701,-0.16858135
-7.9384546,-0.30656317,1.1313752000000001,0.2822372,0.39962804,-0.3069685
-8.799515,-0.9778686,1.2391334999999999,0.12466887,0.15636405,-0.40971604
-9.496889,-1.4793101999999998,1.4998236999999999,-0.41776199999999997,0.11856022,-0.4970174
-9.62562,-1.8829917,1.7447984,-0.40978587,0.12494812,-0.58751273
-8.107016999999999,-1.8906532999999999,2.0486515,0.112416655,-0.45633379999999996,-0.6412863
-7.686344999999999,-1.8105624,1.5530133,0.29873055,-0.7368606,-0.65725607
-10.043025,-1.199926,0.46191812,0.11986921,-0.24020967,-0.41610396
-12.089252,-0.3816932,-0.003715801,0.08100073,-0.29344222,-0.14035937
-12.420716,0.26023057,-0.019450495,-0.05258677,-0.41374776,0.16783085
-11.468685,-0.9465620000000001,1.0906641000000001,-0.1510757,-0.20027652,0.41856486
-12.333261,1.6179057,2.6749362999999997,-0.25115287,-0.045378562000000004,0.48244390000000004
-12.447042999999999,2.5154824000000002,5.413318599999999,-0.3528183,0.08822639,0.4387932
-13.052556,5.0525317,5.675924299999999,-0.45663050000000005,0.14304718,0.35201547
-11.515439,1.5783151000000002,4.2382254999999995,-0.5529727,0.031782445,0.27907816
-12.024744,-2.4373164000000003,5.674775599999999,-0.58224183,0.02380629,0.24876177
-11.8995075,-0.8797541999999999,6.4049206,-0.5641602,0.037123155,0.18592992
-12.4969,2.0602777,5.277874,-0.50028116,0.019547688,0.08904669999999999
-10.997727000000001,2.1200368,3.3949013,-0.42680280000000004,-0.0006457718,0.004956735
-8.833474,1.2331671999999998,2.4959648,-0.3352603,0.031782445,-0.018465584
-8.220664,0.9715671,2.353462,-0.30171508,-0.02141519,-0.008342674
-6.9162360000000005,1.4451785,2.143615,-0.34163076,-0.18004817,-0.007278023000000001
-5.9490833,1.9863254000000001,1.8019338,-0.41989129999999997,-0.33655185,-0.012060225
-6.145800599999999,2.0222385,1.5157882,-0.5039987,-0.25033256,0.01558579
-6.3982263,1.3207661,1.5896446000000002,-0.5412615,0.14252359,0.05551892
-7.0481086,0.22383870000000003,1.7882580000000001,-0.5300914000000001,0.38100538,0.109275065
-7.2777414,-0.20684946,1.762889,-0.5082573,0.37620570000000003,0.15666075
-7.119609,-0.22825362,1.6395494,-0.5109102,0.3022212,0.16783085
-7.331017,-0.016280571,1.6710666,-0.6205693,0.19788542,0.0879995
-8.193858,0.23479457,1.7517129,-0.72064644,0.05681047,-0.018989183
-8.935333,0.6900856,1.4640543,-0.59184116,-0.19921188,0.06349508
-9.332723,1.1401955,1.3358784,-0.14840534,-0.039514255,0.22427481
-9.370704,1.2324680000000001,1.3578476000000002,0.26626742,0.075450584,0.40791836
-8.183698,1.2189839,1.9275334,0.82466805,0.10951941,0.45263368
-7.015528,1.1370543,2.5458407000000003,0.7735648,0.26122344,0.28867745
-8.903011,1.0066181,1.5307856000000002,0.24710372,-0.08796459400000001,0.3525565
-11.165982000000001,0.19141163,0.43626186,-0.04246386,-0.5478763000000001,0.39940116
-12.312191,-0.0028634653000000005,-0.18518671,-0.046198864000000006,-0.32964033,0.27111945
-11.837891,0.29434317,-1.1526071000000002,-0.03396411,-0.21465804,0.08159414
-10.678331,1.1639651000000002,-0.9879051,0.07621853,-0.19123572,-0.19678587
-11.087318,2.2107005,3.9443038,0.19120082,-0.16514306,-0.42516220000000005
-12.8139305,-2.3792331,6.22842,0.3040538,-0.17100736,-0.52682763
-14.206465,-2.8199866,9.231524,0.4126482,-0.14065608,-0.51565754
-12.311263,-4.26098,7.8824015,0.4877148,-0.061871924,-0.46879545
-8.160598,0.9884700999999999,2.6236238,0.5505291999999999,0.024347342999999997,-0.39107594
-10.777595,4.3986177,3.1511332999999997,0.5830098000000001,0.11697197,-0.296322
-12.940584,4.2427363,6.1827865,0.54998815,0.19947368,-0.18985692
-12.771189999999999,0.3964511,6.2105303,0.45471063,0.28305749999999996,-0.087126836
-9.942085,-0.7226946,4.6063676,0.36847392,0.32777283,0.0028274334000000004
-8.597004,-0.2352734,3.7883932999999996,0.31789428,0.3480012,0.09171705
-7.841786,-0.11901098,3.0369490000000003,0.33599332,0.37622318,0.13962634
-6.7302539999999995,-0.5322981,2.6784317000000004,0.3839026,0.29211575,0.15294321
-6.025545,-0.65306157,2.562447,0.43128829999999996,0.15210545,0.15985471
-6.174742,-0.6279321,2.4062302000000004,0.580863,0.29902726,0.0922581
-6.5074687,-0.11366712,2.3005022999999998,0.85021967,0.41613886,-0.074874625
-6.6474724,0.29721618,1.8749281000000002,0.90612257,0.35119516,-0.25214770000000003
-6.8310885,0.5624170999999999,1.379903,0.7629183,0.07438593,-0.31016245
-7.325892999999999,0.6787753000000001,0.9806363000000001,0.6979746,-0.12362167,-0.23776620000000004
-7.796363400000001,0.63160956,0.8326075999999999,0.633572,-0.11510447,-0.19837412
-7.9927073,0.43462422,0.8349731,0.47333329999999996,0.26867598,-0.3218736
-8.044844,0.15566142,0.83498263,0.587792,0.22930136,-0.48582986
-8.5156,-0.078797966,0.7075153000000001,0.11986921,0.0993965,-0.5646140000000001
-8.742984,-0.61064595,1.1207353999999998,-0.22718951,0.15796974,-0.6646911999999999
-8.114763,-1.3037195,2.3772889999999998,0.08634144,-0.23062779999999997,-0.66203827
-9.707645,-1.2203342,2.0075572,0.43289402,-0.82042694,-0.70673615
-11.625889,-1.0094529,-0.007173028299999999,0.44619343,-0.5595875,-0.68226665
-12.373091,0.2745958,-0.70624167,0.41318923,-0.24338616,-0.39585814
-12.294044,-0.12717041,-0.8944929,0.4036074,-0.3487866,-0.066881016
-11.005158999999999,-1.0102094000000001,0.9799276,0.35409240000000003,-0.2311514,0.21895155
-11.800523,1.6922313000000002,3.084565,0.24816836,-0.06613053,0.41643557
-11.477151,2.261333,5.0314627,0.13477433,0.008918633,0.44465753
-13.094933000000001,4.13809,4.54838,0.030979594,0.055222217000000004,0.34883896
-11.9381695,4.2475343,4.4120254999999995,-0.055780724000000004,0.04935791,0.25087363
-11.429909,-0.21473116,4.1590157,-0.11911872,-0.016632987,0.20669934
-11.054489,-0.7475368,5.482875,-0.17393951,0.0035953782000000003,0.18116517
-11.832987,0.8487541,5.094085,-0.1521229,-0.041102502,0.10770427
-12.214441,1.6977953999999997,3.9391131,-0.12709488,-0.050160762000000005,0.027314402
-9.867875,1.1895735,2.781143,-0.10156071,-0.039514255,-0.038676497000000004
-9.147689999999999,1.2487868,2.1974080000000002,-0.09941395,-0.078906335,-0.07274532
-8.374744999999999,1.5852008999999998,1.7320805000000001,-0.1585108,-0.19547687,-0.09562659
-6.622831,2.0214915,1.5388110000000002,-0.26443484,-0.32004103,-0.1105317
-5.7246037,2.1729105,1.3915674999999998,-0.37250564,-0.31951743,-0.11054915
-6.488162,1.8773798,1.3806498999999999,-0.43744934,-0.0368439,-0.103620194
-7.0042276,1.0095199000000001,1.3445263,-0.5071752,0.2181138,-0.05836381
-7.2377768,0.34987906,1.3258706,-0.48431140000000006,0.177116,0.020909045
-6.9446216,0.4633642,1.3286383,-0.4976108,0.24260077,0.08693485
-6.871828,0.68403304,1.4162181999999999,-0.6477265999999999,0.23355997,0.05445427
-7.720620599999999,1.1443805,1.3435398,-0.5801125,-0.025132742000000003,0.11355112
-8.6231,1.4065552,0.99451303,-0.24846508,0.072797686,0.29028317
-9.154803999999999,1.4861385,0.71808815,0.28862509999999997,0.1483879,0.501084
-9.11192,1.4213132,0.7820037,0.75016,0.54337335,0.45211008
-8.288055,1.610838,1.1118289,0.48452085,0.36451203,0.3499036
-7.8164177,1.8675348000000003,1.3088813999999998,-0.025429446,-0.44992843,0.44839254
-9.856287,1.086163,0.5919041,-0.17715092,-0.6602057,0.45369834
-11.528742,1.1010072,0.6020939000000001,-0.13828243,-0.34559265,0.36109117
-12.269048,1.306784,-0.20158220000000002,-0.102607906,-0.3423987,0.19339994
-11.564847,2.0924654,-1.3048016000000002,0.060789815999999997,-0.27586675,-0.13501868
-11.660682000000001,3.6150625,2.8373396,0.22368139,-0.20453514,-0.38575268
-13.955283999999999,-1.5794454,6.420732,0.32482323,-0.14704399,-0.47837728
-14.725979,-2.8817666,10.608678999999999,0.407866,-0.12894492,-0.42833869999999996
-12.098103,-4.666366,5.8026643,0.49888492,-0.057613317000000004,-0.36393607
-9.965461999999999,2.719143,1.1040047,0.566499,0.0019896755,-0.31496212
-11.951184,4.0018506,4.068697,0.58088046,0.05841617,-0.24521875
-12.457462,1.6243222,7.100062400000001,0.5595875,0.0940907,-0.15098843
-11.5947075,-1.2071851,6.093817700000001,0.48506190000000005,0.16168729999999998,-0.059969515
-8.820861,-0.7912932,4.6211348,0.39721948,0.1574287,0.023055799999999998
-7.588307,0.063484654,3.9225642999999994,0.34133404,0.14571753,0.090669855
-7.198378,0.08850885,3.0457501000000002,0.33227578,0.11484266,0.13910274
-6.75592,-0.3231502,2.7664616,0.35728636,0.02115339,0.17369516
-6.2980623,-0.7669776999999999,2.6387072,0.4249004,-0.0347146,0.19552924
-6.523338,-1.1275445,2.6128402000000004,0.5036845999999999,0.0073129297,0.1609368
-7.1307945,-0.54413503,2.4512603,0.630378,0.20427333,0.06724753
-7.379552400000001,0.36363134,2.0372262,0.75016,0.25378832,-0.091909036
-7.193014999999999,0.73325783,1.5687863000000002,0.7176794,0.15584044,-0.23776620000000004
-7.424208999999999,0.8313243,1.1254663,0.7144854,0.06373943,-0.296322
-7.9293759999999995,0.8155513000000001,0.9650356,0.75122464,-0.07410668,-0.20476203
-8.402115,0.45116335,0.94673437,0.71076787,-0.04749041,-0.20741493
-8.630589500000001,0.15999013,0.9827145,0.46270424,0.35651842,-0.3825587
-8.734229,-0.27409777,1.0894,0.56862825,0.26602307,-0.5225516
-8.631767,-0.5194364,1.5757582,-0.24314182,0.06534512,-0.55503213
-8.056364,-0.8024311,2.1326207999999998,-0.46884778,0.12496557,-0.5656611999999999
-8.298735,-0.9396188,2.2757175,-0.13348278,-0.2311514,-0.49647635
-10.061537,-0.03323152,1.3312528000000001,0.13159783,-0.61761963,-0.539586
-11.267439,0.903294,0.34332854,0.044296455,-0.48026225,-0.5651376
-12.029523,1.0184742,0.054990023,-0.08025024,-0.18057176,-0.35753068
-11.66411,-0.28650934,-0.47809336,-0.15371114,-0.2375393,-0.046652652
-10.382025,-1.5136813999999998,1.4610281,-0.23623031,-0.09859365,0.30466467
-11.610403,2.4729997999999997,3.2548117999999997,-0.27347565,0.061627574000000004,0.5426054
-11.817291,2.2485863999999998,4.5196013,-0.33471924,0.17446311,0.6272364
-13.292406,4.046364,4.492595,-0.38313466,0.22504276,0.5378232
-11.707894999999999,4.181502,3.9255714,-0.42945573,0.22930136,0.41006509999999996
-10.192767,-1.6857383000000001,3.8188089999999995,-0.44649014,0.20748474,0.34405676
-10.188554,-1.8590688999999998,5.1324883,-0.44542548,0.21066125,0.31211722
-11.246121,1.1854746,4.957932,-0.40709805,0.2213252,0.24504423
-11.413101,2.8796402999999997,3.9263759,-0.35280085,0.18298031,0.13751449
-10.176669,1.3472747999999999,2.9154383999999998,-0.32459635,0.13615313,0.059253927000000005
-9.572028,0.14391068,2.7081772999999996,-0.34376004,0.07812094,0.04276056599999999
-9.03904,0.36945403,2.4246464,-0.40283945,-0.06613053,0.04647812
-7.3080997000000005,1.0951556999999998,2.0873513,-0.5018520000000001,-0.24710372,0.04914847
-6.17818,1.5457923,1.8400398,-0.5966059,-0.26148522,0.05073672
-6.461625,1.5757965,1.7689223000000003,-0.65196776,0.00040142572999999997,0.06618288
-7.1677322,0.83686924,1.8762401000000002,-0.68338364,0.30169759999999995,0.1508139
-7.381458,0.3638995,1.7112508999999998,-0.58278286,0.2804046,0.24663247
-7.132202,0.18447803,1.4153083999999998,-0.5178217,0.24952972,0.30199432
-7.089107,0.21523874,1.1283681,-0.6232222,0.19151498,0.24130923
-7.3227615,0.36446455,0.96569645,-0.7408748000000001,0.036075957,0.13697344
-8.253435000000001,0.8208473,0.8931234,-0.61470497,0.016371188999999998,0.24504423
-8.821638,1.2922848,0.7075824000000001,-0.28094566,0.21067870000000002,0.45211008
-8.961488000000001,1.4651078000000002,0.6558006,0.116692714,0.25591764,0.4601037
-8.493546,1.4095719,1.0489190000000002,0.1731192,0.37782887,0.43881068
-7.4618936,1.6190646,1.4865023000000002,-0.17448056,-0.15714945,0.48085567
-9.062225,1.0514472,1.0810395000000002,-0.44861943,-0.6351777,0.5378232
-10.885123,0.8905472,0.5937237,-0.41027454,-0.45949283,0.47822022
-11.914947,1.0923114,-0.21928972,-0.4225442,-0.22848105,0.30040607
-11.960436,1.8428936999999999,-1.065123,-0.3714235,-0.33281684,0.029984757
-11.730199,3.1722407,0.0962086,-0.17341591,-0.12840387,-0.26544714
-13.321501000000001,0.11737335,3.8682735,-0.023300145,-0.10871656,-0.41502184
-13.515039000000002,-2.0590327,7.4235477,0.046949357000000004,-0.09752899999999999,-0.35274848
-13.513497000000001,-3.0887022,6.986386,0.10072295,-0.037384953,-0.2271197
-11.881092,-0.50918925,2.7807217,0.18057176,0.020629792,-0.21912609
-12.217564,2.4620917,2.9339888,0.25190338,0.062692225,-0.21327923
-12.350710000000001,1.6480536,5.925457499999999,0.2881015,0.10314896,-0.15365879
-11.8267145,-0.89971226,6.241194999999999,0.2726728,0.08450884,-0.053564154
-10.537428,-1.0444944,4.559087,0.2231578,0.061086524,0.05127777
-7.967951299999999,-0.25322035,3.9968513999999997,0.18428932,0.008395034000000001,0.09705776
-7.7393913,0.18793526,3.2701635,0.18802431,-0.07836528,0.10611602
-7.648258,-0.16705781,2.5105407000000004,0.23540999999999998,-0.18109536,0.10079276599999999
-7.020556,-0.7902494000000001,2.4185842999999996,0.33175218,-0.27478462,0.10183996
-6.6418505,-0.89560384,2.2878897,0.45844564,-0.25987953,0.10131636
-6.580798,-0.61833614,2.1481256,0.5792748000000001,-0.07464773,0.07415904
-6.899716000000001,-0.02570415,2.1478862999999997,0.6862809,0.1483879,-0.004590215999999999
-7.1342039999999995,0.1278408,1.8315546999999999,0.6969274000000001,0.16170475,-0.11904891
-7.2413110000000005,0.014595054,1.4948534,0.68734556,0.08398525,-0.22497293
-7.3078694,0.21522915,1.2668104,0.7336666000000001,-0.020333085,-0.21964969
-7.778742299999999,0.33563834,1.1307049,0.57768655,0.10793116,-0.30483920000000003
-8.379964999999999,-0.08096232,1.0750349,0.33546972,0.37889352,-0.40598103
-8.935275,-0.41348820000000003,1.2959718,0.14117968,0.07705629,-0.48263590000000006
-9.296427,-0.6932746,1.5122927,-0.39271653,0.008918633,-0.4815538
-8.7848625,-0.948305,1.738315,-0.32564354,0.06428047,-0.48422414
-7.850366999999999,-1.2929455,1.951916,-0.0019896755,-0.51965433,-0.5481031999999999
-8.722154,-0.9204269,1.1793455,0.058677968,-0.7650650999999999,-0.65350366
-10.810080000000001,0.8883446,0.079142734,-0.08396779,-0.37486179999999997,-0.60081214
-11.964161,0.9381919,-0.23307075,-0.10899581,-0.31737068,-0.32398546
-11.979455,-0.52457917,-0.086152956,-0.18830357,-0.41266564,0.023073252000000002
-11.512364999999999,-0.6956018,2.1172883999999996,-0.25804693,-0.18376571,0.28923595
-12.579184,3.010728,3.498647,-0.35065409999999997,-0.044279,0.48247883
-13.0400095,3.1168675,4.822353,-0.47256535,0.025429446,0.53836423
-12.422335,4.8362680000000005,4.7614160000000005,-0.5854358000000001,0.061086524,0.48139670000000007
-10.727767,0.07985142,3.1300166000000003,-0.6418448,0.04405211,0.37121409999999994
-11.304808,-2.3001192,5.225632,-0.65196776,0.036599554,0.28443632
-10.916057,0.47160986,6.0826993,-0.59767056,0.10847221,0.20991075
-11.564072,2.9276009999999997,5.230708,-0.50769883,0.12870058,0.12421508
-10.698481,1.6709421999999998,3.6886410000000005,-0.44649014,0.087702796,0.05979498
-9.30494,0.097597234,3.1527326,-0.42200315,0.086638145,0.027331855
-9.155858,0.29673737,2.8391592999999995,-0.42839107,0.058957222999999996,0.043825217
-8.262189,0.90381116,2.2446504000000003,-0.4709771,-0.07623598,0.04649557
-6.8647413,1.6863415000000002,2.048048,-0.57211894,-0.20080014,0.023596851000000002
-6.066955,2.2831395,1.9082171,-0.6690022,-0.13692108,0.02094395
-6.1091695,2.0693563999999998,2.0321984,-0.70998245,0.2064201,0.025202554
-6.552345799999999,0.9462939,2.2325068,-0.7312755,0.43690827,0.090669855
-6.8385777,-0.024679432,2.1839237000000002,-0.66209066,0.35866517,0.16413076
-7.062492999999999,-0.51967585,1.8176588,-0.6466445,0.32192597,0.18968238
-6.9805535999999995,-0.27970982,1.4901512,-0.7749262,0.24846508,0.10505137
-7.59933,0.22715229,1.4112383,-0.79676026,0.0099832835,0.0832173
-8.500239,0.6247813,1.3023117,-0.40388665,0.13615313,0.31585222
-8.9453125,1.0254557,1.2068788000000001,0.058136917999999996,0.44011968,0.54527575
-9.21262,1.2136303,1.1428578,0.42544144,0.46087164,0.5686981
-8.602683,1.5199063,1.6322518999999998,0.26148522,0.3490833,0.42816418
-7.437137599999999,1.5941743999999998,1.9057751,-0.17181021,-0.3056595,0.3861192
-9.193055000000001,0.92647946,0.844253,-0.30435053,-0.5867273000000001,0.3909014
-11.037576,0.16873376,0.50980216,-0.2202431,-0.29342476,0.29242992
-12.361455,0.017353173,-0.10166738,-0.20374973,-0.28117254,0.15454890000000002
-11.994826,1.4909556000000002,-0.934524,-0.08025024,-0.18589501,-0.12011356
-11.563544,3.1171932,2.5601293999999997,0.07571238,-0.08262388400000001,-0.38041195
-14.016222,-1.8444067,6.6946473,0.1704663,-0.123604216,-0.45121998
-14.161204999999999,-3.8625657999999996,8.911313999999999,0.22209315,-0.11667526,-0.39159954
-12.457999000000001,-3.8550383999999998,6.1594,0.28864256,-0.13690363,-0.29523990000000006
-10.955484,2.0092906999999998,2.5691794999999997,0.36049774,-0.10498156,-0.20528562
-12.546431,3.2262156,4.342028,0.40788344,-0.06291912,-0.12702507
-12.846088,0.6206728,6.849725200000001,0.41959462,-0.026720991,-0.052499502999999996
-11.379286,-1.5766008999999999,6.081071400000001,0.37327355,0.014241886,0.031049407999999997
-8.684172,-0.5629821999999999,4.611328,0.30993557,0.04405211,0.10718067
-7.128151400000001,0.11490252599999999,4.085963700000001,0.26096162,0.033946656,0.1582839
-7.0661416,0.22463357,3.0748349999999998,0.2226342,-0.028850293,0.17690657
-6.669364999999999,-0.46505934,2.6029377,0.22848105,-0.13053317,0.16732472
-6.520914599999999,-0.8245726000000001,2.3698957000000003,0.33868113,-0.25295058,0.17425367
-6.528691,-1.2227092,2.1995819,0.49624947,-0.08527679,0.1582839
-6.909331,-0.8945695,2.1294127,0.62613684,0.2234545,0.07789405
-7.368874000000001,0.08948568,1.9300234,0.683628,0.26816985,-0.03440044
-7.370483,0.41887996,1.431024,0.6405009,0.25007078,-0.14301229
-7.4013586,0.7035314,1.1532103,0.6602057,0.18619172,-0.21167353
-7.745203999999999,0.6798861999999999,0.98746455,0.7991339,0.11325441,-0.1669582
-8.253838,0.22618502,0.8727823,0.70917964,0.24952972,-0.25745353
-8.608792999999999,-0.08108682,0.96121454,0.4595103,0.49439943,-0.36231290000000005
-8.998071000000001,-0.19747375,1.3615441000000001,0.26787314,0.124441974,-0.39531708
-9.062408,-0.596884,2.1665799999999997,-0.5103692,0.19097392,-0.41502184
-7.898097999999999,-1.2741559,2.9784252999999996,-0.6232222,0.1436057,-0.39851102
-7.6013603000000005,-1.5091228,2.42728,-0.26122344,-0.32269390000000003,-0.36337754
-9.227473,0.21224120000000002,0.9964093,0.018744836,-0.6889338,-0.43151522
-10.624155,1.6387162,0.07894162,-0.070668384,-0.37379718,-0.4118279
-12.074860000000001,1.1969571,0.25540385,-0.11964232,-0.32375857,-0.23989551
-12.036839500000001,-0.4327376,0.035855565,-0.18456857,-0.45949283,-0.02321288
-10.985353,-1.5638638,1.9319867,-0.19895008,-0.3466573,0.21842796
-12.418332000000001,3.0373034,2.8834232999999996,-0.24898867,-0.21676989,0.37334338
-12.873622,2.0942849999999997,4.0304947,-0.36610025,-0.08740609,0.41859975
-13.178462,5.150962,5.737685,-0.50450486,0.04139921,0.3861192
-11.529777000000001,2.8241906,4.4188247,-0.6551617,0.028623400000000004,0.35363862
-11.053512,-2.9582086,5.0000696,-0.77279687,0.020629792,0.33766884
-11.090010000000001,-2.041076,6.141242,-0.80793035,0.17606881,0.3403392
-11.440827,1.117642,5.471297,-0.75576246,0.18353882,0.28710666
-10.493107,2.1388266,3.5910248999999994,-0.6471680999999999,0.1521229,0.19554669
-9.053913,0.6413875,2.9500968,-0.54176766,0.15692255,0.12740904
-8.902523,0.26583302,2.8475199,-0.48321185,0.1521229,0.0837409
-8.059572,1.0766438,2.2412794,-0.46245990000000003,0.06375687599999999,0.03530801
-6.762987599999999,1.8156859,1.6667857,-0.49492303,-0.07834783,-0.0104370685
-6.5116735,2.0509212,1.2649622,-0.5279272,-0.11030481,0.016144296000000002
-6.6067038,1.8834611,1.1688684,-0.5508259,0.17022195,0.061924282000000004
-6.719939699999999,1.0873698,1.5512511999999998,-0.53325045,0.40816268,0.09653416
-7.3097663,0.42746080000000003,1.8405473,-0.54602623,0.42680280000000004,0.15669566
-7.3450565,-0.18351077,1.8475001,-0.53325045,0.33896038,0.20086995
-7.1814084000000005,-0.49227659999999995,1.9007566999999999,-0.6658082,0.28359854,0.14177309
-7.689792999999999,-0.23012109,1.7588762999999998,-0.7531095999999999,0.07386234,-0.00726057
-8.280165,0.13770491,1.5634712,-0.579554,-0.122539565,0.09121091
-8.702396,0.3348722,1.2853223999999999,-0.065327674,0.087720245,0.30787608
-9.087806,0.48699978,1.2051454,0.42120029999999997,0.20854940000000002,0.47609090000000004
-8.71748,0.8444636999999999,1.7702535,0.8816530999999999,0.20800833,0.3946364
-7.688969,1.1152288000000001,2.3021588,0.6809576999999999,0.23677136,0.2588847
-8.734211,1.0689536,1.2935872,0.019285886999999998,-0.30778882,0.35363862
-10.771647,0.43310150000000003,0.08677544400000001,-0.18243927,-0.52497756,0.39304814
-11.893332000000001,0.49703628,-0.027811047000000002,-0.1723338,-0.15873769,0.28658307
-11.9918375,0.74542993,-1.0131974,-0.18298031,-0.12679817,0.12686798
-11.128691,2.1081522,-0.6473538000000001,-0.07332128,-0.07623598,-0.17386970000000002
-11.983353,1.7103411,4.2270303,0.041643556,-0.14915584,-0.39692277
-13.213944,-3.3615453,7.6222954,0.11829842,-0.09379399599999999,-0.43577382
-14.278856,-4.3669662,9.405909,0.1795071,-0.07197738,-0.37083012
-11.634097,-3.6971934,6.592138,0.24605651,-0.122539565,-0.32824406
-9.259221,2.2441428,2.4521987000000003,0.3434808,-0.059725165,-0.29044023
-12.125855,4.126799,3.2640439999999997,0.42757076,-0.059725165,-0.21380283
-13.276720000000001,3.376782,6.482646,0.47708574,-0.016074482,-0.10840239999999998
-11.645502,-0.18897912,5.3617477,0.46163958,0.05045747,-0.0019373155
-8.9164095,-1.0106788,3.9283009,0.4079009,0.08506735,0.05183628
-8.449857000000002,-0.5446905,3.2645897999999995,0.36369172,0.11379547,0.07735299
-7.4673039999999995,-0.50548303,2.4983112999999997,0.37114426,0.1409528,0.08908161
-6.482167,-0.6072653,2.5000541000000003,0.45472807,0.12870058,0.104510315
-6.046231,-0.79304576,2.109627,0.6186843000000001,0.17393951,0.0874759
-6.0965185,-0.4508665,2.0913925,0.8044746,0.26497588,-0.03811799
-6.5079864999999995,-0.09153512,2.1056237,0.8534311,0.23038346,-0.225514
-6.857491499999999,-0.05733634,1.4820588,0.6687229,0.1590344,-0.2994985
-7.232175,0.022495917999999997,1.1527028,0.55906385,0.06749188,-0.20048597
-7.5923395000000005,0.24411279999999996,0.82741696,0.5212775,0.028623400000000004,-0.14245377
-7.915317,0.5675599,0.72575915,0.23595107,0.46460664,-0.30588642
-8.149096499999999,0.48026729999999995,0.6450170999999999,0.13053317,0.258588,-0.5108404000000001
-8.4414,-0.13374011,0.9876944,-0.35173622,0.0940907,-0.56885517
-8.74802,-0.80035293,1.3690715,-0.32883748,0.14786429999999998,-0.71897095
-8.779672,-1.3956089,1.6603693,0.10978121,-0.38018507,-0.68118453
-8.855663999999999,-1.4132781,1.4133643,0.32855824,-0.76771796,-0.6433807
-10.401332,-1.0533816999999999,0.3471401,0.24977407,-0.33601078,-0.41980404
-11.834519,-0.2624428,-0.2992465,0.26789057,-0.26040313,-0.108384944
-12.400577,0.342888,-0.21962489999999998,0.14917329,-0.3099181,0.19182913
-11.400288,-0.11174218,1.3275465,0.042708207000000005,-0.09857619599999999,0.43189920000000004
-11.967274,3.4771852,3.1690803,-0.06534512,0.06908013,0.5186595
-12.108627,2.6968095,5.3724833,-0.14730579,0.11007792,0.44254568
-13.10925,4.3188624,5.193137999999999,-0.17498670000000002,0.09410815,0.31265828
-11.895197999999999,2.228839,4.3558187,-0.20107938,0.013194689499999999,0.22003366
-12.051252999999999,-1.3996121000000001,5.193683999999999,-0.22610740000000001,-0.00010471976000000001,0.18277088
-11.715356,-0.7059448,5.8857713,-0.22982496,0.032882,0.13699089
-13.041715,1.7888707999999998,5.413549,-0.23143066,0.029147000000000003,0.07630579
-11.40819,1.5849903,3.7555544000000003,-0.21333160000000004,0.046198864000000006,0.041695915
-9.305227,0.9827336,2.700583,-0.17393951,0.10740756,0.006562438
-8.783856,0.9715478999999999,2.2574162,-0.15636405,0.16489871,-0.042917646
-7.549962,1.4938669,1.8716528000000001,-0.19895008,0.16383405,-0.09349729
-6.120413,1.9734447,1.6965792000000002,-0.23994787,0.072815135,-0.13288938
-5.7430387000000005,2.1981645,1.6294266000000002,-0.33468434,0.15905185,-0.12116075
-6.4507837,1.4360708999999998,1.4828153,-0.49225265,0.32459635,-0.026947884
-6.642003999999999,0.4548313,1.2681416,-0.42092106,0.258588,0.01881465
-6.522782299999999,0.1396873,1.160776,-0.38367572,0.26230553,-0.019495327
-6.568693,0.38009387,0.9891979,-0.53485614,0.23835962,-0.027488936000000002
-6.995531599999999,0.88643885,1.0436134,-0.4805415,0.03609341,0.09601056
-7.8661213000000005,1.5652238,1.0829358,-0.11857767,0.08452629,0.29030059999999996
-7.979615700000001,1.653225,0.8063001000000001,0.32484066,0.09197885,0.45638615
-7.6779366,1.6487622,0.735221,0.6229429,0.3490833,0.42444659999999995
-7.980822,2.1344116,0.90278643,0.33122858,0.22771311,0.398895
-8.401158,2.136346,0.905602,-0.11004301,-0.48877946,0.39570105
-10.004507,1.3889626,0.8714703000000001,-0.10471976,-0.6351602,0.3403392
-11.461024,1.9328581000000002,1.3447657,0.093811445,-0.32162929999999995,0.23600341
-12.317708,1.9766337999999999,-0.26778668,0.14491469,-0.46855109999999994,0.11410963
-12.051703,2.4040658,-1.4997280000000002,0.25937337,-0.33386403,-0.16481145
-12.629816,2.9683697,2.3759005,0.38287288,-0.20078267,-0.4256509
-14.695217999999999,-1.9123637999999998,5.550765,0.40201914,-0.26361454,-0.46345472
-14.0353365,-2.7436595,8.054985,0.38074356,-0.28117254,-0.35219
-11.786491999999999,-3.076348,4.627628,0.38713148,-0.27797859999999996,-0.21964969
-11.000524,3.159312,0.94874555,0.41214204,-0.18268362,-0.1781283
-12.269747,3.4946437000000006,3.9647693999999998,0.44940484,-0.0959233,-0.15310028
-12.408735,0.15284584,7.01593,0.45101053,-0.066636674,-0.08602728
-12.3876,-2.3953889999999998,5.9117055,0.3956487,-0.006492625,-0.0019198620999999999
-9.753919999999999,-1.1724885,4.4171968,0.3131295,0.047787115,0.07045894
-8.304184,-0.04981855,4.029221,0.2604206,0.04405211,0.09386381
-8.048282,0.17010324,2.750526,0.22476350000000003,-0.029391345,0.11782718
-7.395105,-0.34290713,2.2404366000000002,0.2290221,-0.14435618,0.14283775
-6.575311,-0.7322618000000001,2.138319,0.30248302,-0.24443336,0.16147786
-6.1702695,-0.78794134,2.1891909,0.44940484,-0.03577925,0.120480075
-6.377502,-0.3533746,2.1916903999999997,0.60962605,0.23942427,0.041695915
-6.795999,0.10315178,1.9252924999999999,0.70225066,0.36824703,-0.06901032
-6.8989787,0.25131455,1.4713136,0.7134381999999999,0.28946286,-0.21326178
-7.125010499999999,0.37510437,1.2124141000000002,0.7592182,0.08346164,-0.24200736
-7.507805,0.42989329,1.0678523000000002,0.7182379,-0.056531213,-0.20420352
-8.031407000000002,0.39708313,1.0416023,0.24499187,0.145735,-0.28352875
-8.692024,0.23709299999999997,1.1077396000000002,-0.12601277,0.09995501,-0.39051740000000007
-8.919808999999999,0.14359464,1.3377362,-0.9037489,0.06642723,-0.4948532
-8.939086999999999,-0.12903789,1.5824332,-1.1677823,0.061627574000000004,-0.46664867
-7.806419,-0.7816494,2.2482797999999997,-0.787702,-0.23378685,-0.37028906
-7.197841599999999,-1.6070360000000001,1.8090588,-0.49172905,-0.6942571,-0.3724358
-9.419374000000001,-0.9320244000000001,0.5584619000000001,-0.55028486,-0.44991097,-0.31440362
-11.90173,0.3991613,0.18985061,-0.54496163,-0.22474605,-0.10999065
-13.254167,1.2642438,0.18054196,-0.49651125,-0.40093702,0.11623893
-12.151005,-0.06368577,0.5709405,-0.47256535,-0.32108822,0.34353316
-12.223549,2.6711628,1.6487334999999999,-0.47043604,-0.18216002,0.5016425
-11.9310255,4.005298000000001,3.8461125,-0.5055695,-0.037891097,0.53410566
-12.892355,5.7151510000000005,4.772027,-0.5540024,0.13243559,0.48300242
-11.229303,3.8902905,3.8541667,-0.6061703,0.13137093,0.3919835
-11.103886,-3.2654900000000002,4.828837,-0.63385123,0.0893085,0.3147876
-11.808107000000001,-2.5744278,6.5151973,-0.6029763000000001,0.13137093,0.25197318
-11.6915,0.6327491999999999,5.95301,-0.50715774,0.19364429,0.19235274
-10.785831,1.2452052,4.9520040000000005,-0.37727037,0.16437511,0.108786374
-9.37102,0.15424405,3.6583498,-0.26017624,0.14786429999999998,0.044889867
-8.743528999999999,0.18245733,3.1504822,-0.18671532,0.14732324,-0.010454521999999999
-7.812864299999999,0.614898,2.658627,-0.22184879999999998,0.008395034000000001,-0.07007497
-6.449587,1.3324212,2.2798643,-0.31658527,-0.17896606,-0.1115789
-5.9094167,1.6117096000000002,1.8473563999999998,-0.37994072,-0.19439477,-0.108384944
-6.0311375,1.5426513000000002,1.6267258999999998,-0.3522598,0.07492699,-0.07272787
-6.296980400000001,0.6243791,1.7219002,-0.27773425,0.33524284,-0.026947884
-6.640931,-0.151122,1.9201784,-0.28996900000000003,0.36826447,0.08484045400000001
-7.190208999999999,-0.57967454,1.8602851999999999,-0.30541515,0.27242845,0.16573647
-7.3407273,-0.60580003,1.5639118,-0.42252675,0.15957545,0.12473868
-7.780705499999999,-0.13750379999999998,1.5900277,-0.44008476,-0.14009757,0.09494591
-8.544801,0.36914757,1.5239286,0.05602507,-0.043755405,0.29030059999999996
-9.202421000000001,0.56959975,1.2571282,0.6224193,0.13082989,0.5197416
-9.342462,0.8896183000000001,1.1385865,1.1637856000000002,0.23090705,0.6006551
-8.876579,1.1637735,1.4090546,0.8097979000000001,0.36718237,0.36589083
-7.720199000000001,1.34512,2.2808602000000002,0.19069467,-0.47865656,0.23546237
-8.808757,1.36232,1.262338,-0.02115339,-0.7597244000000001,0.19928169
-11.560327000000001,0.92473644,0.0759345,0.05974262,-0.36102134,0.14924310000000002
-12.72569,1.0282234000000001,0.04891833,0.004921828400000001,-0.35248670000000004,0.10293952
-12.107286,1.2531538999999998,-0.72348946,0.06454228,-0.27211428,-0.12915437
-11.737622,2.1802175,2.2597625,0.18697712,-0.123604216,-0.41128683
-13.351534,-2.404497,6.196979499999999,0.23488641,-0.1635199,-0.48952994
-13.532889,-3.6055910000000004,8.892813,0.23966861,-0.18428932,-0.39851102
-12.956864,-4.2530503,7.045053,0.27108455,-0.10868165,-0.33035590000000004
-9.912808,2.263172,1.2195393,0.33602825,-0.020315632,-0.33409092
-11.887748,4.519391000000001,3.0281289,0.38233182,0.076532684,-0.28885198
-12.218846000000001,1.8802813999999999,6.5696225,0.3610388,0.104754664,-0.1823869
-11.819780999999999,-1.171799,6.078514,0.29237756,0.12711233,-0.046111599999999996
-9.633348,-0.77498394,4.3781524,0.21570525,0.14467034,0.036913715
-7.910384700000001,0.033308133,3.776154,0.18004817,0.145735,0.08323475
-7.6989675,0.53792924,2.9322746,0.20666444,0.1606401,0.11250392
-7.1575809999999995,-0.26255774,2.5499685000000003,0.31686452,0.15959291,0.1465902
-6.380912,-1.0541478000000002,2.4954762,0.46111599999999997,0.1542522,0.17425367
-6.2390695,-1.0212803,2.5083572999999997,0.6016499,0.19737929,0.109851025
-6.4264874,-0.27358064,2.5451799999999998,0.7086560000000001,0.30065042,-0.036529742000000004
-6.8520713,0.37475959999999997,2.2205169999999996,0.68577474,0.35175365,-0.18928096
-6.947953999999999,0.39464104,1.6105316,0.6831044,0.20537289999999997,-0.21217968
-6.9720974,0.5890215,1.3946703999999999,0.58302724,0.01691224,-0.19409807
-7.3280387000000005,0.7333823,1.3369031,0.23595107,0.20003219,-0.33515558
-8.0028305,0.10498096,1.5586444,-0.10259046,0.11698942,-0.5305276999999999
-8.666808,-0.42484632,1.7708473000000002,-0.6301161999999999,0.1579872,-0.63219315
-9.108568,-0.81377,2.1809359,-0.5843362,0.15852825,-0.553409
-8.694869,-1.0482677,1.9891218999999998,-0.053092916,-0.46694538,-0.5427625
-7.778053,-1.5951418,1.904779,0.12468632,-0.7049036,-0.6013183000000001
-8.001049,-1.3289351,0.8030727,0.03260275,-0.37432078,-0.53956854
-10.84265,-0.64347523,-0.08802043,0.08370599,-0.2545388,-0.35164893
-13.495607000000001,0.06379111,-0.4470262,0.08583529,-0.36154497,-0.050893802
-13.379230499999998,0.1853591,0.37832218,0.08157669,-0.15606734,0.23122121
-12.35591,3.4459457000000002,2.1744425,0.066147976,0.028099801,0.37974873
-11.585082,4.438352,5.6186742999999995,0.04431391,0.15426965,0.37123153
-12.128911,4.8778315,5.4937260000000006,0.023020892999999997,0.2149373,0.28391272
-10.932508,0.29047412,4.3234878,-0.0072954763,0.16704546,0.19291124
-11.829128,-3.2645705,5.905346400000001,-0.01155408,0.13084733,0.15617207
-11.4855795,-0.73514444,6.3923078,-0.006754424,0.13723524,0.14713125
-11.075797,2.6371173999999997,5.368806,0.0043982295,0.1452114,0.119973935
-10.499599,1.8087523,4.2168019999999995,0.00013962633999999998,0.11487757400000001,0.08323475
-9.320704,0.060142346,3.0983365000000003,-0.02380629,0.09197885,0.06939429
-8.975842,0.32963368,2.78234,-0.045622908,0.0909142,0.057683133
-7.908861999999999,1.1059488000000002,2.473421,-0.13292427,0.032899458,0.016702801
-6.541515,1.6286222,2.3899974999999998,-0.30007446,-0.0043458696,-0.018413223
-6.159562599999999,1.8588103,1.9644712,-0.43369687,-0.0016929694,-0.026406832
-6.574028,1.4235349,1.8024412,-0.4975759,0.22080160000000001,-0.012566371000000002
-7.123247999999999,0.2504239,1.724419,-0.4831944,0.27989846,0.06195919
-7.087411400000001,-0.18398961,1.5494506000000001,-0.44486699,0.18673277,0.14285520000000002
-7.028725,0.19743545,1.3812149999999999,-0.5337566,0.09997246,0.11412708
-7.109495599999999,0.55341494,1.1314998,-0.4815887,-0.11826351,0.12903219999999999
-7.613494,1.1737334,1.1638405,-0.045622908,-0.092170835,0.30841714
-8.287309,1.7448846000000002,1.0648069,0.33231068,-0.07513642,0.4457571
-8.400975,1.9796984,0.7859685000000001,0.6479884,0.17395696,0.44895104
-8.007158,1.7969251,0.66828877,0.3259228,0.24422392,0.3808134
-7.8896227,2.1514008,0.6442414000000001,-0.19254473,-0.36898005,0.39891246
-9.254624,2.1684092999999995,0.5365885,-0.31017992,-0.60854393,0.41755256
-11.599791999999999,1.2964122999999999,0.22654894,-0.2319368,-0.29925415,0.3414213
-13.377248000000002,1.6392142,-0.2694722,-0.23565435,-0.32267648,0.19556414
-13.032855999999999,2.1858964,-1.4988852,-0.08234464,-0.21195279,-0.13978341
-12.465957000000001,2.7430942000000003,1.8165957,0.13163273,-0.12623966,-0.46502550000000004
-14.364694,-2.0247669999999998,6.248311,0.25939083,-0.21834070000000003,-0.5060059
-13.319509,-3.016043,8.156901,0.32326987,-0.21247639,-0.38039452
-11.618391,-2.6757598,6.2827687,0.3898193,-0.1773429,-0.3010693
-10.743196000000001,2.1954062000000003,1.9160701,0.44996333,-0.11878711,-0.29894
-12.2195835,3.0266445,4.1254587,0.48989648,-0.043196898,-0.277647
-12.665739,1.2803904,7.0546303,0.45582765,-0.021380282999999996,-0.20577432
-11.7734585,-0.9735782,6.0190325,0.33976325,-0.02776819,-0.10145599
-9.016956,-0.7734229,4.8030753,0.18060666,-0.07674213,0.03694862
-7.4965234,-0.47723144,4.0881186000000005,0.05391322,-0.14433873,0.1412844
-7.756074000000001,-0.53554463,3.26232,-0.003036873,-0.19970058,0.2008874
-6.875611,-1.1561887,2.740365,0.062430426,-0.27155578,0.20994565
-6.095321,-1.3429843000000001,2.6846185,0.20350539999999998,-0.37962657,0.19664624
-6.177682,-0.9348687,2.5705970000000002,0.31581733,-0.20556487,0.17907079
-6.495498,-0.16694289999999998,2.5390797000000003,0.37810809999999995,0.03450516,0.11679743
-6.833741000000001,0.41520244,2.2150578,0.37117916,0.22614232,0.008726646
-6.883138000000001,0.64822537,1.4664773000000002,0.28920105,0.22720696,-0.10517354
-7.080976,0.94951165,1.1068873,0.30730012,0.11541862,-0.21589723
-7.4921940000000005,1.0973008999999998,1.1230913,0.33445746,-0.059166662,-0.22813198
-8.054641,0.80823463,1.501672,0.09862856,-0.091106184,-0.3095865
-8.60275,0.22889526,1.9955001,-0.22125539,0.17132153,-0.43732715
-8.78016,-0.0042329486,2.522215,-0.5795191,0.15535176,-0.53527504
-8.960683,-0.62332565,2.352131,-0.8957204,0.18250908,-0.56721455
-8.073899,-1.5301343,2.4791574,-0.6481978,-0.0032637657,-0.48844784
-7.9811380000000005,-1.0648163999999998,1.7963023999999999,-0.41184536,-0.53825957,-0.5224992
-10.2794285,0.45531009999999994,0.8450190999999999,-0.44539058,-0.5600762,-0.51026446
-12.176335,1.9810199,0.14169843,-0.45015532,-0.24174555,-0.35321975
-12.755033500000001,1.7004291,-0.17855957,-0.40332812,-0.30136599999999997,-0.06736971
-12.349618,-0.36337277,0.3079039,-0.43739697,-0.24068089999999998,0.2860769
-11.375532000000002,-0.1960085,3.4497766000000003,-0.43525020000000003,-0.03626794,0.56555647
-11.208178,3.1325064,5.187431,-0.48478267,0.12819444,0.7294953000000001
-11.322227499999999,3.3960122999999998,6.793968700000001,-0.550791,0.24797638,0.7545233
-10.852409,4.126693700000001,5.1210154999999995,-0.5885774,0.29162705,0.65498716
-10.411099,-1.6643628000000001,4.111955,-0.60081214,0.3086615,0.5490457
-10.681204,-3.1718767000000003,6.523567,-0.55503213,0.37840483,0.46973792
-11.027807000000001,0.13251428,6.800528999999999,-0.44006732,0.43481390000000003,0.36219072
-12.146339999999999,2.0039276999999998,6.279244,-0.30803317,0.4012861,0.22753857
-10.841175,-0.022476764,4.5129647,-0.22924899999999998,0.33527774,0.12372639
-9.092958,-1.1301111000000001,3.5174462999999996,-0.20315632,0.25438175,0.076358154
-8.472178999999999,-0.48429912,3.0751223999999997,-0.20156808,0.21551326,0.054524086
-7.584639500000001,0.49747682,2.722782,-0.23670155,0.1585457,0.016720254
-6.4451623,1.5055794,2.4470560000000003,-0.30590385,0.10107201,-0.00720821
-5.898786,1.6387162,2.134316,-0.32932618,0.21870720000000002,0.017802358
-6.1379285,0.94621724,2.1053174,-0.41715115,0.42044982,0.078487456
-6.6073647,-0.24863306,2.0854552,-0.39533454,0.3533768,0.21582742
-6.7922163,-0.5469984999999999,1.8069613999999998,-0.3117507,0.37892842,0.2536138
-6.9934826,-0.51087475,1.3572153999999998,-0.43898519999999996,0.32250193,0.18441148
-7.1691213000000005,-0.3471784,1.0180337,-0.3761708,0.08297295,0.21209241
-7.583653,0.10152373,0.95950985,0.22055726,0.00577704,0.40905282
-7.973774000000001,0.6911581,0.9727258,0.6086138000000001,0.34060100000000004,0.45324454
-7.897255400000001,0.91996723,0.8223891999999999,0.34458035,0.74570936,0.41385248
-7.8552895000000005,1.4209396,0.87572235,-0.33569664,-0.33063516,0.47666687
-8.071726,2.425307,1.5043632,-0.54490924,-0.8720189,0.5160589
-9.573167999999999,1.6153487,0.3682474,-0.35433674,-0.38758525,0.43781585
-11.451975,1.5159223,0.2754864,-0.34049627,-0.23961625,0.26319566
-12.271701,1.8815264999999999,-0.2527894,-0.2510656,-0.2917667,-0.016249016
-12.664465,2.2713888,-0.8073344,-0.048781954,-0.22256438,-0.30105186
-13.72206,1.1371883,3.9792110000000003,0.13538519,-0.17571975,-0.43837434
-15.06155,-3.259035,9.383461,0.19181168,-0.23746950000000003,-0.35320228
-12.857944999999999,-4.726135,7.5842853,0.23706807,-0.22949335,-0.24940754
-11.4437,0.67116183,1.20255,0.28710666,-0.24757496,-0.22383848
-13.544151999999999,3.6557447999999995,1.8035713,0.34672709999999995,-0.20498893,-0.21957988
-13.410604000000001,1.6459561999999999,7.279608199999999,0.3797313,-0.15709709,-0.14453071
-12.066019,-2.0885196,7.027000999999999,0.33660419999999996,-0.05009095,-0.057229348
-9.528798,-2.0837886,4.8146343,0.2546261,-0.00059341197,0.022602014
-8.33934,-0.71178657,4.1656046,0.19448204,0.03452261,0.06944665
-7.8711777000000005,-0.33232477,3.5043354,0.16147786,0.04783947400000001,0.10084512
-7.55702,-0.50938076,2.9206102,0.19554669,0.07871435,0.12322024
-6.875151,-1.0844871999999999,2.5435423999999998,0.29136527,0.04783947400000001,0.15835372
-6.3501987,-1.3476003,2.4450831,0.4159294,0.060615286,0.18762289
-6.5625644,-0.9691249,2.4188237,0.5532694,0.16814502,0.12959069
-6.749704400000001,-0.29887298,2.4022653,0.65442866,0.25385815,0.0109083075
-6.760928599999999,0.10771034,2.0093482,0.6661224,0.24321163,-0.14398967
-6.988081,0.31757647,1.6021901,0.6474996999999999,0.15430456,-0.19137534
-7.087650999999999,0.6696008000000001,1.4058369,0.61023694,0.03932227,-0.20999801
-7.343284599999999,0.49545609999999995,1.3624253,0.17851228,0.22350687,-0.32552135
-8.069035000000001,-0.21477905,1.4127132,0.029461157999999998,0.07606145,-0.39098865
-8.543038000000001,-0.9109554,1.6612025000000001,-0.43310344,0.027611108,-0.48361328
-9.281526,-1.0720853000000001,1.6407081000000001,-0.72855276,0.31773720000000005,-0.5421691
-8.893616999999999,-1.2302461999999998,1.7308259,-0.24678956,-0.09745918,-0.5608092
-8.329705,-1.7233273,1.8786056,0.052883476,-0.6436251000000001,-0.54803336
-9.240431,-0.5614595,1.2736195,0.03584906,-0.5520651,-0.53099895
-10.907753,0.09566272,0.339833,0.026808257999999998,-0.27419123,-0.41547564
-12.885172,-0.057384225999999997,-0.37496072,0.023073252000000002,-0.28857273,-0.10407399
-12.439544,-0.63086253,0.28692114,-0.09615019,-0.26195645,0.23500858
-12.8227415,2.3719930000000002,1.8055439999999998,-0.20207421,-0.09374163,0.47987828
-11.721303,3.544654,5.2199826,-0.33674383,0.097354464,0.5810201
-11.921477000000001,4.276466,6.1866364,-0.43416809999999995,0.17507398,0.52724653
-11.725909,4.0821333,4.8772187,-0.46397832,0.2054078,0.40641737
-11.266452000000001,-2.5775018,4.893777,-0.46930158,0.13409364,0.28665286
-11.513496,-2.8781176,6.4973173,-0.42458624,0.19530234,0.22809708
-10.743644999999999,0.94558513,5.9937787,-0.33674383,0.23575908,0.17751744
-10.7488165,2.359055,5.4792166,-0.22123794,0.17348573,0.09608038
-9.789077,0.78009796,3.7915056000000003,-0.11262609999999999,0.09628981,0.0066497047
-8.658755000000001,0.4055969,2.808437,-0.04024729,0.017505653,-0.048712137999999995
-7.7848234,1.0130346,2.4083467,-0.051958452999999995,-0.086812675,-0.07904596
-6.7510357,1.560761,2.0969374,-0.15734144,-0.28269097,-0.116291285
-5.839295,1.9386712,1.9780224999999998,-0.26541220000000004,-0.40301397,-0.1370607
-6.177663,1.7922131999999997,1.8537058999999998,-0.33567917,-0.27152088,-0.120567344
-6.530214,0.94513506,1.7860074000000001,-0.31545082,0.11280063,-0.08063421400000001
-6.989269,-0.22791843,2.0425987,-0.27499408,0.27940977,-0.011972958
-7.50565,-0.70962226,1.777149,-0.27766442,0.33370695,0.08223991
-7.632849,-0.5280077,1.519619,-0.43573890000000004,0.28687978,0.13548991
-7.809206,-0.054865524000000006,1.4935987,-0.63536966,0.0803375,0.07052875
-8.498219,0.62260735,1.5252023000000001,-0.7301236,-0.21457078,0.06148795
-9.355841,1.1610537,1.4174345,-0.39903462,-0.08307767,0.2563016
-9.653364,1.4195414,1.2785803,-0.00031415926,0.09896017,0.46605527
-9.1954975,1.4730756,1.3510096999999999,0.5671273,0.07501425,0.58690184
-7.6430387,1.4004357,1.7568748,0.6246184,0.34435347,0.43092179999999997
-7.974559299999999,1.2560462,1.9138578000000002,0.23975588,-0.085748024,0.35213763
-10.490147,0.7903356,1.0504512,-0.1104968,-0.67289424,0.37981856
-12.25136,0.72526115,0.46119985,-0.10358529,-0.49987975,0.29571113
-12.457434,1.2111787,-0.8725236999999999,-0.10677924,-0.28588492,0.17647023
-11.513879,2.102904,-1.6807488000000002,-0.029583331,-0.32581806,-0.07105235
-10.804055,3.0116472,1.8228494,0.15351915,-0.19167206,-0.39790016
-12.830488,-0.6173784000000001,5.6876655,0.29670596,-0.22519983,-0.587408
-13.776303,-2.5184321,8.238592,0.38934806,-0.25129250000000003,-0.5900609
-13.800839000000002,-4.904177,8.735446000000001,0.45586255,-0.20231856,-0.5506863000000001
-8.777871000000001,-0.56133497,2.9914403,0.5186944,-0.11714649999999999,-0.5160589
-10.245996,4.3314075,2.8733199000000003,0.540511,0.005270894,-0.46497315
-12.121478999999999,4.2574744,6.0410976,0.49527207,0.088854715,-0.3494498
-12.308266,0.5300858,6.8905315,0.37709585,0.1979727,-0.19985765
-9.925834,-0.9451924999999999,5.033837999999999,0.22165681,0.24535839999999998,-0.056129787
-7.835781599999999,-0.5666405,4.209792,0.10400417,0.24801129,0.03541273
-7.409355000000001,0.0093182335,3.5083961,0.053441983,0.24483478,0.07267551
-6.913917999999999,-0.4600602,2.8750916,0.06304129,0.17615607,0.11206759
-6.201911,-0.9332215,2.7518954,0.17748253,0.11814134,0.15943582
-6.146365599999999,-0.9367936,2.6162688999999997,0.32440436,0.18839084,0.16262978
-6.465493700000001,-0.3793756,2.547536,0.3968006,0.35395277,0.11152654
-6.830581,0.47087243,2.117298,0.45216244,0.46467647,0.00986111
-6.9147324999999995,0.73731834,1.5235168,0.42448149999999996,0.42367867,-0.15833627
-7.316728599999999,1.1233785,1.081528,0.38296014,0.12718214,-0.1993166
-7.558648,1.3361753,0.9061478999999999,0.31641075,-0.099571034,-0.16153023
-7.552155,0.98737836,1.2054901000000002,0.073146746,0.16550957,-0.24350834
-8.066410000000001,0.30849767,1.5414636,-0.05724680000000001,0.15060446,-0.37552503
-8.868028,-0.37216428,1.8976921000000002,-0.5762728,0.103759825,-0.47825512
-8.996471000000001,-0.8188745,2.24579,-0.7561988000000001,0.2565285,-0.58739054
-8.654273,-1.3651163999999998,2.2589867000000003,-0.29468140000000004,-0.084665924,-0.5102121000000001
-8.291935,-1.7570089,1.8554106,0.005009094699999999,-0.52117276,-0.44792129999999997
-9.638137,-0.29935184,0.8933437,-0.01574287,-0.44184756,-0.4175875
-12.1266985,0.77360487,0.28405768,0.0076619955,-0.13309881,-0.27757716
-13.968549,0.9914198000000001,-0.13633542,0.022043508,-0.16132078,-0.06304129
-13.141323000000002,-0.21511422,0.36107433,-0.035971235,-0.08625417,0.23450243
-12.025979,2.0591378000000002,2.39718,-0.06258751,0.09311332,0.460732
-11.490799,2.7153025,4.584685299999999,-0.122207955,0.18521434,0.47511354
-11.894471000000001,3.4363690000000005,5.10123,-0.12538445,0.18893189999999999,0.34842008
-10.861678999999999,3.5242839999999998,4.6511005999999995,-0.09878564,0.12133529,0.21427408
-10.459473,-1.8276953999999999,4.3400555,-0.08759808,0.13357005,0.18765779999999999
-10.3681965,-2.7081199000000002,5.3276634000000005,-0.08227482,0.15751596,0.20788616
-11.006413,0.37995023,5.382347,-0.030630529,0.2512227,0.178617
-11.477219,1.8971943,5.0774794000000005,0.035342917,0.27410397,0.10300933599999999
-10.027481,0.8406425,3.5709519999999997,0.067299895,0.22034782,0.04766494
-9.186944,0.20164925,2.8493872000000002,0.08911651400000001,0.20491910000000002,0.028501227
-8.680092,0.6003509,2.43701,0.042271875,0.18147933,0.00986111
-7.236714,1.2489688,2.1248252,-0.06682865,0.13252285,-0.02417281
-6.2962812999999995,1.3649056,1.9482671999999999,-0.13496631,0.08833111,-0.056653388
-6.4539537000000005,1.0753796,1.6614131999999997,-0.20738003,0.15433946,-0.027384216
-7.1329009999999995,0.39244798,1.5644288,-0.1679705,0.13943435,0.04979424
-6.9367589999999995,0.2050107,1.4002632,-0.09611528,0.20863666,0.08651597
-6.649273,0.2604604,1.4460499,-0.14028956,0.063844144,0.05618215
-6.464594,0.29188192,1.2008836,0.06304129,-0.1703616,0.15306537
-7.163873,0.6268499,1.0957781999999998,0.54213417,0.04787438,0.3750538
-7.915632700000001,1.2909343999999998,1.2085451999999999,0.76571083,0.46734682,0.45116759999999995
-7.994163,1.6795325,1.179786,0.40798816,0.3523645,0.4128402
-7.820842,2.0565045,0.9943215,-0.014137166999999999,-0.5248903,0.37824777
-8.069963000000001,3.134776,0.96349376,-0.010402163,-0.7468613000000001,0.32182127
-9.720995,2.5667183,0.42696276,0.10189232,-0.37212166,0.25101325
-11.159786,1.4218016000000002,0.22783223,0.10084512,-0.37583920000000004,0.10463249
-12.606105,1.7165468999999998,-0.7069312,0.24562019,-0.3300592,-0.17217673
-13.245078,2.413882,-0.25263616,0.37498400000000004,-0.1772731,-0.44738024
-14.559763,0.5658265,4.5795045,0.43460444,-0.21347122,-0.52509975
-14.840832999999998,-2.7325407999999998,8.953375999999999,0.42928118,-0.21614157,-0.40266490000000005
-13.239035999999999,-3.5442133,4.9625580000000005,0.42875758,-0.16023868,-0.2855533
-12.255678999999999,1.9556701,0.6140744,0.44472733,-0.09370673,-0.2685189
-12.833706,2.8651795,3.7479887,0.46654397,-0.05644395,-0.24403194
-12.439822,-0.3435871,6.957406,0.45324454,0.002094395,-0.1391551
-11.212334,-2.6837467999999998,5.739744,0.36753142,0.0665145,-0.0028797933
-8.984548,-1.4251438,4.412964,0.25893706,0.08939576,0.07482226
-7.399825999999999,-0.07683472,3.8549519999999995,0.17695893,0.112818085,0.117931895
-7.586678999999999,0.2726421,2.9404724,0.13437290000000002,0.10962413,0.14828317
-7.826071000000001,-0.36711732,2.4321067000000003,0.110426985,0.07661995,0.16264723
-7.0100408,-1.0407786,2.4228937999999998,0.14130186,0.025534166,0.16479398
-6.5507946,-0.8644696,2.359007,0.25043730000000003,-0.026092672999999997,0.13604842
-6.6819296,0.055660400000000006,2.3237834,0.43460444,0.10803588,0.05565855
-6.961007,0.60564685,2.0741544,0.57887334,0.17617354,-0.046530478
-7.103022,0.71080977,1.8091066999999998,0.541087,0.18629645,-0.14287265
-7.1413193,0.6294643,1.5354686000000002,0.5027421,0.11229448,-0.20942205
-7.4154077,0.6331131,1.3495923,0.44313909999999995,-0.04632104,-0.19078194
-7.933167999999999,0.4069664,1.2917389,0.15248941,-0.059620447,-0.21420425
-8.623043,-0.12320562,1.3196169,-0.19936895,0.11974704,-0.27810076
-8.877786,-0.4472273,1.2575976,-0.33299136,0.03296927,-0.36911967
-9.263339,-0.47370717,1.2381471000000002,-0.7551167,0.04202753,-0.44577456
-8.773964,-0.6999209,1.2665231000000001,-0.6358758000000001,0.13678145,-0.60386646
-8.082739,-1.3242426,1.6435332999999999,-0.20097466,-0.44610617,-0.71567225
-9.102765,-2.0284731,1.0828878,-0.08651597,-0.5839696999999999,-0.77740455
-11.222505,-0.8637035,0.1189631,-0.14987142,-0.09210102,-0.55223966
-12.416742,0.84220356,-0.75571537,-0.07161086,-0.1213702,-0.15671311
-12.551314999999999,0.60291743,-1.3673095,-0.11686724400000001,-0.18950784,0.21163863
-11.707972,0.5666309,0.8058116999999999,-0.18926351,-0.046844635,0.47087237
-11.33577,3.3337917,3.136136,-0.29944614,0.11548844,0.59437186
-10.383317,2.94347,5.782543,-0.42879248,0.21078339999999998,0.5592384
-10.574297999999999,3.8647682999999997,5.4089035999999995,-0.5725378000000001,0.27092746,0.46767843
-10.538835,0.5284960999999999,3.8900031999999998,-0.6965609,0.23207644,0.41231660000000003
-11.080471000000001,-1.9262884999999998,6.195973400000001,-0.7434055,0.24324654,0.40273473
-11.4785795,-0.2512092,6.6611,-0.7348883,0.2523048,0.3516315
-12.995794,1.7254821,6.04782,-0.68537337,0.2022662,0.25687757
-12.232264,0.7698795,4.245332,-0.601807,0.14955726,0.12859586
-10.914534,0.32466334,3.1704497000000003,-0.5033181,0.14051646,0.030647982
-9.384964,1.0785112,2.4821646,-0.42348668,0.16179202,-0.03323107
-7.66542,1.7371561999999998,2.0505092,-0.40378192,0.1309346,-0.09176941
-6.116505,2.1508167,1.6617866999999997,-0.41708133,0.023928462999999997,-0.13274974
-5.9681606,2.0169330000000003,1.3913664,-0.4516912,0.061191242,-0.14821336
-6.44974,1.5529463,1.3963846000000002,-0.5017298,0.27572712,-0.06569419
-6.913899000000001,0.47283569999999997,1.5519503000000001,-0.40111157,0.27892107,0.049270645
-6.811858,0.10469365,1.338694,-0.3654545,0.29914942,0.10197959
-6.8719716,0.06895301,1.1812034,-0.51982886,0.22355922,0.03010693
-7.034241000000001,0.13038823,1.1850245000000001,-0.6465223000000001,-0.035133477,-0.05185373
-7.8370940000000004,0.14027148,1.1919198,-0.4351804,-0.18099064,0.06471681
-8.300428,0.19929335,0.84173423,0.02953097,-0.043109633,0.24251350000000002
-8.186484,0.4352084,0.49614564,0.6289119000000001,0.09206612,0.43308599999999997
-8.511713,1.0165014,0.74348587,0.7726573,0.47748718,0.39049998
-8.603572999999999,1.7073148,0.9225625,0.29302332,0.061208695,0.41498694
-9.747695,1.093317,1.1463437,-0.13123131,-0.45514697,0.43415064
-11.096464,1.0381929,0.9163855,-0.09716248,-0.22198842,0.35269612
-11.928555000000001,1.3823546,-0.6446149,-0.099815376,-0.05162684,0.21005037
-11.600826,1.9563501,-1.7321761999999998,0.029513517000000003,-0.17088519,-0.05183628
-11.194530499999999,2.6532257,-0.20353587,0.28557077,-0.18257889,-0.35526177
-12.612606,-0.896868,3.7511778,0.46389106,-0.2635098,-0.47984338
-12.511523,-3.087639,7.9897860000000005,0.5453456,-0.28852037,-0.41435862
-13.664435999999998,-4.6306634,9.520197999999999,0.58260834,-0.29544935,-0.32492796
-11.297596,-2.525059,3.8835962,0.63851124,-0.29330257,-0.29031807
-11.316338,3.5621986000000003,2.2127979,0.6768387,-0.21771237,-0.25837854
-12.299617,3.8735502,5.2763230000000005,0.6464873999999999,-0.14692181,-0.17798868
-12.420496,0.9310093,6.4621515,0.5533392,-0.09208357,-0.056635935
-10.259202,-1.2437207000000001,4.6569332999999995,0.40481165,-0.049497537,0.074298665
-8.420686,-1.4599746,3.995396,0.26481882,-0.013840461,0.14990632
-8.371450999999999,-1.3824503000000001,3.2974765,0.16685347,-0.0047996556,0.186087
-7.7543883000000005,-1.3231604,2.6291687,0.11522663400000001,-0.095294975,0.21643828
-7.0921902999999995,-1.0429716999999998,2.0517063,0.12800245,-0.19003145,0.25050712
-7.170969,-0.5919424,1.832704,0.1892286,-0.16554448,0.22921409
-7.376104400000001,-0.17243999,1.828902,0.24724334,-0.022881266,0.16214108
-7.488527,0.30380505,1.6829610000000002,0.24724334,0.070249505,0.070581116
-7.4188075,0.5062779000000001,1.2846520000000001,0.21584487,0.07930776,-0.043319073
-7.7047133,0.57049036,1.0482773,0.2563016,0.056409042,-0.101874866
-8.12955,0.69528574,0.9423961,0.386189,0.04098033,-0.10719812
-8.380519999999999,0.6627725,0.9255026,0.5049063,-0.029810224,-0.05023057400000001
-8.695559,0.7740454000000001,0.92136544,0.50597095,-0.20813051,-0.063006386
-8.698805,0.7047475999999999,0.98788595,0.035377822999999996,-0.122958444,-0.26050785
-8.518187,0.27910644,1.3235337999999999,-0.21373302,-0.059079394,-0.29564133
-8.168605,-0.14874697,1.7021433000000001,-0.71837753,-0.10060078,-0.35154423
-8.085564,-0.68056625,1.8249179,-0.91586155,0.008499754,-0.36058503
-9.144165,-0.14333607,1.1180538,-0.57943183,-0.18577285,-0.3808134
-10.7046585,0.66027296,0.44058100000000006,-0.41547564,-0.28159142,-0.37123153
-11.769091,1.5415787,0.09809523,-0.46499062,-0.12082914,-0.1939759
-11.779415,1.1275063,-0.1146248,-0.46924922,-0.095277525,-0.04544837400000001
-11.369719,-0.10004891,-0.67240673,-0.5102295,0.021816615,0.23134339
-10.186926,-1.4339161,1.2396123,-0.5937958999999999,0.01436406,0.48685959999999995
-11.415208999999999,1.5393184,2.6307104,-0.65608674,0.07291985,0.60184187
-10.686749,2.9269404,5.167463,-0.700802,0.21558307,0.5991890000000001
-12.188805,4.4595833,6.423155,-0.74658203,0.28424433,0.53263956
-10.731454,3.8614737999999997,5.1401887,-0.7790626,0.23048818,0.45333183
-9.46969,-1.5534059999999998,4.8541,-0.7896917,0.25816910000000004,0.41181043
-11.090498,-4.7480183,4.966896,-0.72155404,0.2773328,0.32450905
-12.071574,-1.8790845,5.0499177,-0.58794904,0.1932254,0.18771017
-10.884979,1.7830003,4.2723665,-0.44954446,0.1277581,0.07644542
-9.870202,2.0552115,3.2698857999999995,-0.34733796,0.05429719400000001,-0.017767452
-8.683013,1.0710509,2.421936,-0.30262265,-0.076113805,-0.10719812
-7.2380257,0.9895905999999999,2.1533642000000004,-0.32443926,-0.260822,-0.16043067
-6.6662908,0.9313157,2.0212233,-0.34999087,-0.33908257,-0.12688543
-6.778933,0.9104861999999999,1.7040491000000002,-0.31752774,0.035657077999999995,-0.03267256
-6.9936929999999995,0.26457843,1.5057805,-0.29037043,0.30023155,0.06632251
-7.347010000000001,0.034284968,1.6101581,-0.35904914,0.30555478,0.19675097
-7.601408,-0.17514063,1.5289468000000002,-0.41386992,0.16395622,0.23879595
-7.3057914,-0.5833425,1.2577028000000001,-0.6177593000000001,0.028745572999999996,0.1270076
-7.612786,-0.7553802,1.1916996000000002,-0.633188,-0.19003145,0.09135053
-8.450372999999999,-0.46593082,1.1405402,-0.26588345,0.096342176,0.25317746
-9.076055,-0.013560758999999999,0.8898865,0.061470497,0.080372415,0.42830379999999996
-9.270349000000001,0.32078472,0.6191884,0.8258898000000001,-0.09794788,0.55073863
-8.750511,1.1413351,1.5014709,0.9110619000000001,0.37847465,0.35377824
-8.020125,1.5606746999999999,2.708752,0.4458269,-0.12348204,0.24040166
-9.014563,1.38291,0.8664712,0.04230678,-0.7436499,0.32344443
-11.183689,0.8782219000000001,-0.23481372,0.08862782,-0.5456074000000001,0.28298768
-12.025366,0.7386208000000001,-0.53483593,0.1285435,-0.26508059999999994,0.16268215
-11.864696499999999,1.1344876,-1.5599086000000002,0.16687092,-0.30075514,-0.049706977
-11.585436999999999,2.7988217,1.9899262999999998,0.29304078,-0.22781783,-0.36430258
-12.919974,-1.5272516999999999,4.7141066,0.40749946,-0.28157398,-0.511748
-13.693407,-2.4235642000000004,7.30674,0.52461106,-0.18310249,-0.52345914
-14.811384,-5.106535,10.256894,0.6193475,-0.17671458,-0.49206066
-9.805060000000001,-1.7012048,2.6219189999999997,0.7220951,-0.126676,-0.47556729999999997
-10.437035,4.555151,1.6101676999999999,0.7567049,-0.035639625,-0.43083453
-12.389285000000001,3.8670666,5.1147428,0.7189011,-0.0031764992,-0.31906363
-12.020301,0.49828124,6.4323387,0.59646624,0.03672173,-0.19928169
-9.328194,-1.0725545,4.187411,0.45221480000000003,0.035133477,-0.074717544
-7.581249000000001,-0.53983504,3.4005997000000003,0.34946728,0.055361845,0.020559978
-7.521518700000001,0.20231962,2.603024,0.26855382,0.080372415,0.09827949
-6.759233500000001,-0.44625047,2.602593,0.23661429,0.06335545,0.16055284
-6.328105,-1.2966708999999998,2.4924982000000004,0.2621659,0.023963371,0.15735888
-6.61992,-1.1502798,2.311209,0.32710959999999994,0.086236715,0.123290055
-6.989555999999999,-0.54369444,2.4712565,0.46711993,0.2533869,0.04452335
-7.210617,0.27073634,2.0344488999999997,0.6805737,0.40137336,-0.09440486
-7.4230595,0.8040208000000001,1.506039,0.78597414,0.36304593,-0.31107002
-7.710717999999999,1.2478292,1.1630266000000002,0.7827801999999999,0.13414600000000002,-0.45319220000000005
-7.8190029999999995,1.1564952,1.0565133,0.71996576,-0.04202753,-0.42605233
-8.155014999999999,0.6913688,1.130523,0.42879248,0.0675966,-0.47342056
-8.659052,0.5503887,1.0840083,0.21266837,0.26190412,-0.56285125
-8.765853,0.43354204,1.2970636,-0.044959683,0.16236798,-0.7172255999999999
-8.607078999999999,0.2611212,1.6195625,-0.6943967,0.15969762,-0.73638934
-8.188036,-0.7399806999999999,2.1424944,-0.5038242,-0.049497537,-0.68422145
-8.061728,-1.7917246999999998,2.5257009999999998,-0.22540927,-0.7047814,-0.7300014
-9.636738000000001,-1.1991408000000001,1.6362549,-0.26375416,-0.5690297,-0.73106605
-11.46066,-0.35754050000000004,0.27539065,-0.2919587,-0.17617354,-0.4675737
-12.618611,0.44285070000000004,-1.1977042,-0.1913579,-0.25602233,-0.011362093500000002
-12.493452,-0.029343337,-1.267385,-0.19826939999999998,-0.22036527,0.40170497
-12.048063,0.8746785,1.2860311000000002,-0.23394394,-0.09154252,0.65296257
-11.670411999999999,3.80001,4.370653,-0.33880332,0.03248058,0.6918135999999999
-11.507386,3.7360656000000003,5.7075567000000005,-0.42451644,0.16076228,0.6077062
-11.845303999999999,5.7057753,4.580644,-0.495307,0.19802506,0.5071054
-10.215734,-0.45092395,3.4114212999999998,-0.5538628000000001,0.15063937,0.43949136
-11.030028999999999,-2.0576441,6.2156057,-0.5682268,0.16023868,0.4208687
-11.29888,0.8688461999999999,6.0140815000000005,-0.5490805999999999,0.23102923,0.3687008
-12.765127,1.5761412000000001,5.659979,-0.49317768,0.16289158,0.23720770000000002
-11.631664,-0.1692126,4.0303035000000005,-0.42399284,0.09581858,0.11105530000000001
-10.263846000000001,0.016749837,3.0513334,-0.33613297,0.10220648,0.020559978
-8.994135,0.67648643,2.1603362999999995,-0.31379274,0.113394044,-0.04330162
-7.006678999999999,1.3840305,1.9637913,-0.40641737,0.12456415,-0.07311184
-5.8194137,1.6366763,1.8323305,-0.46443212,0.08997172,-0.047560222
-5.9834356,1.5476216,1.6877016,-0.5182057,0.26136306,0.0503702
-6.3805285000000005,0.8857684000000001,1.7152444,-0.46389106,0.33590606,0.15524703
-6.7050385,-0.22472936,1.6921259999999998,-0.35583773,0.27893853,0.18983947
-6.7402334,-0.6099946999999999,1.3144360000000002,-0.47027898,0.19324285,0.09456194
-6.6234922,-0.52374595,0.9532083,-0.50008917,-0.05321509,0.08391543
-6.934135,-0.104042426,1.0493115,-0.14238396,-0.07876671,0.29897490000000004
-7.7894297,0.59791833,1.0850714,0.34468508,-0.022863812999999997,0.5550147
-8.181811,1.0419278,0.9639343,0.8397476999999999,0.26192155,0.5709845
-8.400995,1.3767139,0.8028907,0.5884901,0.45088837,0.48741809999999997
-8.351234,2.1310502999999996,0.71035963,-0.038571775,-0.26719245,0.48368308
-9.843253,1.5869918,0.59023774,-0.2003987,-0.4774697,0.44535565
-11.405727,1.2849202,0.6984365,-0.17058848,-0.03031637,0.26490608
-13.033086,1.391376,-0.12699804,-0.2009223,-0.012217305,0.057822755999999996
-12.402578,2.03284,-1.981652,-0.03218387,-0.037768926,-0.24823818
-11.571703,2.3220596000000002,0.9192011,0.21160372,-0.084089965,-0.51014227
-13.226441000000001,-1.9807901,5.7308855,0.36332518,-0.08141961,-0.46703264
-13.524845999999998,-3.4691792,9.305075,0.39791763,-0.05693264,-0.31264082
-12.549419,-4.8617907,7.842907,0.47244316,-0.07822566,-0.24504423
-11.077971,0.49823338,2.163573,0.5405808000000001,-0.021799162,-0.23546237
-12.489057,3.5605898000000002,3.2778633000000004,0.5538976999999999,-0.062255893,-0.16784832
-13.023682,2.7592123,6.782017,0.5166349,-0.06332055,-0.04967207
-11.669052,-0.24009055,5.5779347,0.44050366,-0.022340214,0.055693455
-9.100572,-1.2138219,3.9472342000000005,0.34468508,-0.032986722999999996,0.12702507
-8.400352999999999,-1.3096282,3.237995,0.29731685,-0.013805554,0.19357447
-7.8696837,-1.0910663999999999,2.5827880000000003,0.32073915,0.010663961999999999,0.24467771
-6.381658,-1.4325179,2.4187088,0.32765067,-0.0047647487,0.27981117
-5.583565,-1.0140498,2.272289,0.31222194,0.027698375,0.28674015
-5.4825015,-0.56541467,2.282852,0.31435126,0.10754719,0.24041910000000002
-6.4461393,-0.14733917,2.0605555,0.35587263,0.27415633,0.099885195
-7.024808,-0.09730994,1.5067286,0.21959732,0.1831374,-0.034766957
-6.998367,0.29381645,1.2969582,0.1679705,-0.0015707964,-0.0874759
-7.280834700000001,0.5345295,1.2971019,0.13922492,-0.14849262,-0.040631264
-7.953098,0.31568027,1.2878219,0.103026785,-0.20650735,-0.081611596
-8.995763,-0.39288850000000003,1.6315814,-0.13065535,0.011187561,-0.306794
-9.402403,-0.5637866,1.6558778000000003,0.07054621,-0.07344346,-0.42816418
-9.463924,-0.5456003,0.9886138000000001,-0.18334684,-0.04787438,-0.5447347
-8.559664,-0.27919266,0.55319464,-0.6384938,-0.13091715,-0.6591934
-8.6717415,-0.35769373,1.0476931,-0.6363645,-0.10697123,-0.67729247
-11.18843,-0.08030152,1.0326861999999999,-0.3052581,-0.30925488,-0.6576052
-13.248056,-0.35439932,0.34174836,-0.26638959999999995,-0.33161256,-0.5277003
-13.074305,0.51188034,-0.6837744,-0.31538099999999997,-0.03351032,-0.25675538
-12.395213,-0.16885826,-1.4685075,-0.35688493,-0.13891076,-0.02412045
-10.578809,-1.181711,0.64226854,-0.4548327999999999,-0.073426,0.26810002
-11.197911,3.1273637,2.5887352999999997,-0.5676858,-0.016475908,0.48689449999999995
-8.874338999999999,1.0637438,5.059303,-0.70450217,0.042603485,0.59442425
-9.858939,1.5821555,5.0762057,-0.8359778,0.120322995,0.57206655
-10.796279,3.7967730000000004,5.6438136,-0.95523614,0.105417885,0.48848274
-9.794114,2.8733103,5.296568,-1.0286796,0.012793263000000001,0.4325973
-9.524460000000001,-0.5992495,5.394979,-1.0175094999999998,-0.030839968,0.4155629
-11.452979,-1.0990151000000001,5.2910037,-0.93286103,-0.06597344599999999,0.35753068
-12.7254305,0.49360779999999993,4.5421643,-0.798715,-0.12985249,0.2335076
-11.001003,1.4038163000000001,3.2415192000000004,-0.65872216,-0.19160224,0.10787880400000001
-9.565439,1.6540293999999998,2.7481892000000006,-0.55066884,-0.2634749,0.01844813
-8.304586,1.6488866999999998,2.1682083999999997,-0.47080258,-0.4481831,-0.071488686
-7.210675,1.5450741000000001,1.7436205000000002,-0.41650537,-0.5354845,-0.15454890000000002
-6.5836716,1.4131345,1.3471693999999999,-0.332939,-0.32416,-0.14761995
-6.6859517,1.1259068,1.1876868999999999,-0.22699752,0.03460988,-0.09971066
-6.74482,0.5627715,1.2631807,-0.13437290000000002,0.3167598,-0.06297148
-7.2220325,-0.15378436,1.5367423,-0.13650220000000002,0.38915607,-0.021991148999999998
-7.549405999999999,-0.49879840000000003,1.6138451999999999,-0.24883159,0.37316886,-0.010279989
-7.8305050000000005,-0.76552206,1.6443089,-0.4399277,0.23795820000000004,-0.079482295
-8.818074000000001,-0.6129539,1.9157444,-0.5629036000000001,-0.073426,-0.04808382
-9.883303,-0.26871565,1.9768540000000001,-0.09711012,-0.31403708,0.23511331
-9.578914,-0.082485035,1.712448,0.5187642,-0.062255893,0.41769218
-8.691154,0.0057365075,1.4876419,1.0798527,0.046862092,0.5662196999999999
-7.835035,-0.024784777,1.7924048,1.092611,0.20336576,0.41130429999999996
-7.5119996,0.29024428,1.8390247,0.61086524,-0.1388933,0.35274848
-8.958757,0.399621,1.0571549999999998,0.3196745,-0.40824997,0.345837
-11.087424,0.18511967,-0.0024133553,0.24888395,-0.32255429999999996,0.18188076
-11.892154,0.09411128,-0.8554004000000001,0.27391198,-0.15912166,-0.009215338
-11.1984,0.77510846,-1.5759976999999998,0.41976914,-0.24909338,-0.30251792
-10.574019999999999,2.1107473,0.87581813,0.5826433000000001,-0.29860840000000005,-0.525571
-12.475937,-0.22494003,6.6835,0.7434055,-0.2639985,-0.63788295
-13.498835,-3.9428193999999994,9.560756,0.85254097,-0.19638444,-0.62458354
-13.994032,-6.6705523,9.032595,0.9073791999999999,-0.12292354,-0.5905147
-8.947132,-0.9842563,3.8731,0.94197166,-0.06543239,-0.5622927
-10.806851,4.507697599999999,3.3887339,0.9217433,-0.02232276,-0.47712067
-12.531702000000001,5.5771875,5.7349176,0.82112503,0.00853466,-0.34723327
-11.454733000000001,2.0285976000000003,5.9294224,0.6795439,0.09424778,-0.20350539999999998
-9.533730499999999,-0.65957385,4.4859676,0.5618913000000001,0.16503833,-0.054995324000000005
-8.767644,-1.0837594,3.6320230000000002,0.46500808,0.258204,0.07860963
-7.7536697,-1.0992258999999998,3.1403882999999997,0.37398916,0.2975961,0.18081611
-6.640060000000001,-1.1017350000000001,2.925006,0.34417892,0.29173177,0.23937191
-5.8668857,-0.79297876,2.5955348,0.37344809999999995,0.23211133,0.23937191
-5.8080745,-0.2959808,2.3695988999999997,0.35056683,0.30983084,0.18666296
-6.3600626,0.27158865,2.3031932999999998,0.4612905,0.49083894,0.07435103
-6.93492,0.63521045,1.7892252,0.56934386,0.4759164000000001,-0.13962634
-7.2341185,0.90938485,1.3265411,0.5730789000000001,0.20338322,-0.25406757
-7.625992299999999,1.1326681,1.1297375,0.5485919,-0.052656583,-0.21043435
-8.009907,1.0558524999999999,1.0984023,0.3814417,0.027174776,-0.19339994
-8.156911000000001,0.81134707,1.0455575000000001,0.26007152,0.04420919,-0.27642524
-8.34408,0.6506195,1.0240288,0.08066912,-0.07449065,-0.47125635
-8.333652,0.57388055,1.2230061,-0.4159643,0.07721337,-0.6256482
-8.439138999999999,-0.21023005,1.7323487000000002,-0.3100403,0.0564614,-0.70547956
-8.644916,-1.4509531999999998,2.333485,0.04766494,-0.6648308,-0.6389476
-9.712501,-0.8767471,2.0290953999999997,0.17383479,-0.77023125,-0.6112666999999999
-11.510517,-0.29931352,0.68880224,0.22865559,-0.22832397,-0.4776617
-12.758471,0.23496695,-0.0987273,0.3553665,-0.28633872,-0.19338249
-12.754275999999999,-0.02705448,-0.06653008,0.39847612,-0.22513002,0.07595673
-12.2151785,0.61915016,1.1294790000000001,0.408058,-0.10108947,0.29047516
-11.683522,2.7559845000000003,2.6657040000000003,0.3521551,-0.028693212000000003,0.3543542
-11.525466999999999,3.0342197,4.7121625,0.25101325,0.07986627,0.3165678
-11.926917,5.185726,5.1136317,0.15680037,0.14055136,0.21914354
-11.082654,1.9893421999999998,4.35648,0.08227482,0.13842206,0.1637817
-10.940927,-2.1156986,5.6178026,0.03010693,0.12884021,0.14727089
-10.580102,-0.40083724,6.031406,0.020001473,0.13631022,0.11747811
-12.390500999999999,1.2621944999999999,5.4040675,0.037559487,0.10967649,0.069027774
-10.941713,0.29177657,3.7362092000000002,0.043406337,0.09850638,0.018465584
-9.264028999999999,0.0069048777,2.9879541,0.01891937,0.0575086,-0.022514747
-8.853557,0.5263126,2.1645212000000003,-0.06462954,-0.055850536,-0.08052949
-7.3002367,1.6319836,1.9944849999999998,-0.24668483,-0.1979727,-0.09916960400000001
-5.877152400000001,2.413164,1.9206668000000002,-0.39414770000000005,-0.20011945,-0.07255334
-5.603016,2.443053,1.9154474999999997,-0.43725735,0.1192758,-0.027838001
-6.144489,1.2127111000000002,1.7771008999999998,-0.47452012,0.29653144,0.0418879
-6.490929599999999,0.3566307,1.6410912,-0.36006144,0.28642598,0.1068316
-6.576278,0.27270913,1.548043,-0.4154407,0.25659829999999995,0.09403834
-6.530942,0.7582532,1.3120226000000001,-0.49687780000000004,0.09318313,0.0418879
-7.171533999999999,1.1848041999999999,1.210901,-0.29351202,-0.013247048999999999,0.2255489
-8.368155999999999,1.7084066000000002,1.0848893999999998,0.13124876,-0.031363565,0.43420299999999995
-8.927211999999999,2.023857,0.7711628,0.5315575,0.23052308,0.5092696
-8.899669,1.8297063999999998,0.57775915,0.5805314,0.37798595,0.46136034
-8.291992,2.02673,1.0219793,0.19619246,-0.10641272,0.4842416
-8.580789999999999,2.2706034,1.0746997999999999,-0.055588737,-0.500351,0.5294979999999999
-10.483185,1.3190327,0.8029960999999999,-0.09443977,-0.22247712,0.43739697
-12.102939,1.6072947,0.725989,-0.17322393,-0.24055873,0.25747097
-12.621149,1.5868003000000002,-1.1785122,-0.09763372,-0.20064305,-0.07894124
-11.629672,2.6201088,-0.21501847,0.09559168,-0.17935003,-0.40205404
-13.002976,0.6299431999999999,4.4496139999999995,0.24731316,-0.24694663,-0.47657959999999994
-13.432315,-2.745211,8.363904,0.33620277,-0.19212584,-0.37172022
-12.821371000000001,-3.4005612999999997,7.9998130000000005,0.4000818,-0.102695175,-0.29613
-11.496611999999999,-0.54583967,4.3676558,0.47460738,-0.069690995,-0.29398325
-12.180674,2.5109527000000003,3.8816714,0.5060059,-0.021240657000000003,-0.26312584
-12.791128,2.3409162,6.541486,0.47619563,-0.038816124,-0.1561197
-11.883046,0.73386115,6.3089322999999995,0.38091812,0.01972222,-0.031555552
-9.198781,0.05886863,4.591092,0.26220079999999996,0.038885936,0.081279986
-7.8211865000000005,-0.026326641,3.9517447999999997,0.16318828,0.038362335,0.15741125
-7.768092599999999,-0.7322426999999999,2.9578927000000004,0.10890854,0.0543321,0.20158553
-6.675082000000001,-1.3386173000000001,2.7704554,0.1195376,0.006946410500000001,0.21436134
-5.730311,-1.6601203999999998,2.5390222000000002,0.22174408,-0.0744732,0.22287855
-5.9889903,-0.94055736,2.476313,0.32768556,-0.040945426,0.17975146
-6.582982,-0.008293514,2.2975142,0.44692647,0.11821115,0.085014984
-7.1367607,0.5141213,1.8900881,0.5278399,0.29227284,-0.08691739
-7.2941656,0.7087603,1.4261684,0.44584435,0.18421949999999998,-0.22373375
-7.708659,0.9217198,1.1636298999999999,0.3686659,-0.016982054,-0.25459117
-8.166239,0.95830315,0.9991770000000001,0.17863445,-0.0744732,-0.25513223
-8.391005999999999,0.5493544,1.0106404,-0.17959438,0.20924753,-0.36053267
-8.938513,0.20401470000000002,1.2306963,-0.35313246,0.14430383,-0.5420469
-9.301751,-0.06464345,1.4770501,-0.8844107,0.07082546,-0.5974088000000001
-8.954763999999999,-0.51001287,1.7972602,-0.7747341999999999,0.18102555,-0.59901446
-7.998185,-1.2584212,2.2843080000000002,-0.37549013,-0.4950103,-0.53407073
-7.864196000000001,-1.5741397,2.2788587000000002,-0.24507913,-0.7467914999999999,-0.5021312
-10.090449000000001,-0.17977582,1.140885,-0.30895817,-0.41144392,-0.3818257
-11.940726,1.2565441000000002,0.0024899698,-0.31375784,-0.33585370000000003,-0.12472123
-12.582889999999999,1.7230686000000002,-0.41475236,-0.38934806,-0.3688579,0.20532054
-12.2568,0.7316298000000001,0.8855769,-0.47024405,-0.12077679,0.55293775
-12.2256365,3.089028,3.5074096,-0.5405285,0.036756635,0.7573333000000001
-11.552856,2.6569605,6.2314940000000005,-0.5958903,0.14376277,0.7823438
-12.443385000000001,4.7507377,6.0312333,-0.6246184,0.23266985,0.6647086
-10.577832,0.2747969,4.280248599999999,-0.62570053,0.27097982,0.50714034
-11.191677,-3.4724832,5.493103,-0.59534925,0.21935298,0.39004618
-11.320408,-1.016329,6.4964265999999995,-0.49846604,0.24331635,0.26972318
-12.121815,2.0475883,5.628586299999999,-0.37549013,0.31890655,0.14835298
-11.179878,1.570357,4.37164,-0.26424286,0.29813713,0.031782445
-8.915452,0.07570466,3.3674638,-0.18545869,0.28216738,-0.034749504
-8.670171,-0.46801856,2.8887289000000003,-0.12955579,0.24544565,-0.07998844
-7.788913000000001,0.44935337,2.5307574,-0.13435544,0.12885766,-0.13747959
-6.3405643,1.3084023999999999,2.4902859,-0.18598229,0.019739674,-0.16996016
-5.5344462,1.8967345000000002,2.2694063,-0.25411993,0.09852383,-0.15983725
-6.1865025000000005,1.1876581,2.2413654,-0.28340656,0.41472512,-0.092240654
-6.6864405,-0.10234734,2.149093,-0.29351202,0.5041558,0.06000442
-6.594722999999999,-0.59804285,2.1651627999999996,-0.31906363,0.53448963,0.18509217
-6.9381475,-0.38006514,1.8548265,-0.50166,0.3939557,0.15687019
-7.213145699999999,-0.08244673,1.4020541000000002,-0.67411596,0.17517869,0.045622908
-7.849754300000001,0.32402167,1.1174506000000002,-0.5692566,0.0005585053599999999,0.15793484
-8.507882,0.6505429,0.8090678000000001,-0.046513025,0.1251401,0.42676792
-8.464478999999999,0.7200801,0.34433407,0.4245688,0.33220598,0.57953656
-8.416165,0.8901450000000001,0.53496045,0.73492324,0.325277,0.54972637
-8.176649000000001,1.6404591,1.200424,0.44640285,0.17784905,0.47734755
-8.794458,1.8798218,1.7952874,-0.0768643,-0.18465583,0.49331729999999996
-10.817798,1.6027936,1.2581818,-0.19769344,-0.29750884,0.4895823
-11.916028,1.6997683000000001,0.008350976,-0.22537437,-0.11918853,0.34159583
-12.135557,1.4343375,-1.4765808999999999,-0.23069762,-0.23043582,0.11908381400000001
-11.498135000000001,2.269186,-1.3416723999999998,-0.03960152,-0.17613862,-0.23010421
-12.18505,1.0946673,3.0284063999999997,0.14243633,-0.19052014,-0.43345252
-13.014899,-3.686697,6.8288856,0.24198989999999998,-0.19264944,-0.42758822
-13.679865,-3.6471832,8.338621,0.28670523,-0.16496852,-0.32964033
-12.665633999999999,-2.6716704,6.2837453000000005,0.34843752,-0.12505284,-0.28972465
-11.192779,1.2862799999999999,3.4811117999999994,0.38465312,-0.046251226,-0.2657613
-12.015244500000001,3.2825942,4.1624726999999995,0.36016613,-0.001012291,-0.18964748
-12.473168,2.2864914,6.049535,0.28405234,0.042638395,-0.07147123
-11.013137,0.1941602,4.5098715,0.16266468,0.050614547,0.054681167
-8.569728999999999,-0.8522783000000002,3.7852519,0.024260076000000002,0.061261058,0.15102334
-7.916916400000001,-1.1080940000000001,3.1860409,-0.047054075,0.043161992,0.21331415
-7.369113400000001,-1.1800159,2.5505812000000003,-0.02841396,-0.036669366,0.23884831
-6.2435225999999995,-1.1594065,2.1508646000000002,0.056740652999999995,-0.13035864,0.25961772
-6.0123196,-0.7284694,1.9092801,0.21272072,-0.0004712389,0.22396065
-6.468539,-0.2520041,1.8891879,0.41713370000000005,0.18847811,0.07969173
-7.337012,0.34436283,1.5932647,0.5384864,0.21828833,-0.097022854
-7.7940745,0.5663628,1.1052593000000002,0.5337042,0.0543321,-0.21574014
-8.005281,0.8563964,0.8430368,0.5635145,-0.15484561,-0.22743386
-8.044795,1.0271796,0.61458194,0.55021507,-0.23628268,-0.20774654
-8.321287,0.8861898000000001,0.6330269000000001,0.19940387,-0.031869713,-0.32911673
-8.927384,0.23198856,0.91656744,0.019495327,-0.048380528,-0.47495645
-9.338402,-0.39262992,1.3105094,-0.57457983,-0.17559758,-0.62880725
-9.193266,-0.9053913,1.3590447,-1.0190629,-0.060091686,-0.70652676
-7.763936500000001,-1.3515747,1.6933519000000001,-0.6970147,-0.18784979,-0.6532941999999999
-7.469736999999999,-1.5441356000000002,1.5016049999999999,-0.32171655,-0.8458040000000001,-0.59154445
-10.0347595,-1.4674924999999999,0.5184404,-0.30894074,-0.7728666999999999,-0.5026374
-12.404722,-0.8572103999999999,0.088518426,-0.36751398,-0.41196752,-0.27588418
-12.614963000000001,-0.049789815999999994,-0.13481271,-0.32332224,-0.55887187,-0.036337756
-11.849718,-0.95220274,0.4277385,-0.36217326,-0.47530553,0.25963518
-12.0888605,1.8857881999999997,1.6521523,-0.41914082,-0.26663396,0.54494417
-11.815826,3.2063627,3.4702900000000003,-0.50057787,-0.10587167,0.6908013000000001
-12.734452000000001,4.463481400000001,4.5811519999999994,-0.5223945,0.048485245999999996,0.6705904
-12.038803,5.8996673,4.905288,-0.46544442,0.17411405,0.5114164000000001
-10.703422,-1.3362901000000003,4.1185827,-0.39837140000000004,0.21137683,0.33255503
-11.469117,-2.5559444,5.9340095999999996,-0.29616493,0.24492206,0.19149752
-11.482324,0.60206515,5.9763484,-0.1513724,0.28112018,0.08820894
-11.531825999999999,1.9884037,5.211305599999999,-0.016685348,0.26408577,-0.018762288999999998
-9.502011,0.8714607,4.036643499999999,0.057805302999999995,0.23054054,-0.09222319999999999
-8.201883,-0.08464939999999999,3.1743188,0.11210250000000001,0.20231856,-0.13322099
-8.273048,0.11988247,2.6131852,0.13446017,0.13526301,-0.15025539999999998
-7.3298297,1.2311752,2.4519307999999995,0.092415184,0.032515485,-0.18963002
-5.739026,1.7774842,2.3635175,0.033859387000000005,-0.0073827426000000005,-0.21945770000000003
-5.283811599999999,1.5761317,2.1967087000000003,-0.03160791,0.11609929999999999,-0.21891665
-5.8566675,0.36721307,1.9985647000000002,-0.17746508,0.36255723,-0.11564551
-6.3761897,-0.86726606,1.8254255000000001,-0.16786577,0.25769785,0.007836528
-6.876769500000001,-0.9353188,1.7152922,-0.20354029999999998,0.35351643,0.07916813
-7.133438000000001,-0.3036997,1.3917878000000001,-0.40742967,0.30560714,0.090355694
-7.5358167,0.3204304,1.2871611,-0.42179373,0.08148942,0.15210545
-8.145304,0.9782325000000001,1.1548958999999999,-0.10613347,0.057526052,0.26387632
-8.596725,1.3604907,0.86803216,0.36868334,0.06286676,0.48851764
-8.353446,1.4573698,0.7777899,0.92444855,0.26940903,0.59393555
-7.9413943,1.6735374,1.1220953000000002,0.69074893,0.47169268,0.45233697
-7.973046000000001,2.3500144,1.1255141000000002,0.042917646,-0.18357372,0.32138494
-10.034578,2.102492,0.96660626,-0.19769344,-0.7159166,0.29796259999999997
-11.295135,1.8384596000000002,1.5510693000000002,-0.12423254,-0.35978216,0.307527
-12.177313,1.6053122,0.15402378,-0.06354744,-0.38426915,0.20799088
-11.874533,2.6438593999999997,-1.2806681,0.11903145,-0.35074136,-0.11723377
-12.6271925,3.4644767999999995,1.3332161,0.3548429,-0.2660929,-0.43184683
-15.146935999999998,-1.1604983,4.9526362,0.51934016,-0.27940977,-0.5574756
-15.219145999999999,-3.5069883,9.998052000000001,0.5858896,-0.25118777,-0.49357912
-13.477870999999999,-6.1444983,7.8068213,0.6055769,-0.26715755,-0.41640064
-9.183314999999999,1.498052,2.0463145000000003,0.6380574999999999,-0.24959953,-0.34932765
-10.613649,4.546522,2.3508284,0.6077062,-0.13674654,-0.25511476
-12.175531,2.5131552000000004,6.147725599999999,0.51242864,-0.053162728,-0.12681562
-11.895611,-0.8871091999999998,6.0611324,0.35538393,-0.0026005406,-0.011309733999999998
-9.034433,-1.6114316999999998,4.526516,0.20793852,0.033580136000000003,0.07012733
-7.4734817,-1.0324659,4.0011325,0.07272787,0.043179445,0.13880603
-7.0118694,-0.6191884,3.156975,0.002443461,-0.0009948377,0.18298031
-6.4062324,-0.9568379000000001,2.5964255,0.030665435,0.035185836,0.22450170000000003
-6.491581,-1.2568506000000002,2.1926577000000003,0.11955505599999999,0.020280726000000002,0.23354250000000001
-6.615696400000001,-1.2025117,1.9859232,0.22762585,0.09267698,0.22130775
-7.167300999999999,-0.5011256,2.0878875,0.37189475,0.23162265,0.14730579
-7.5658884,0.4867891,1.7668825000000001,0.5358510000000001,0.34712854,-0.04909611
-7.611214599999999,1.1188008999999999,1.2633628000000001,0.53105134,0.21031217,-0.22317526
-7.543497599999999,1.5122257,1.0719607,0.5156225999999999,0.013892821000000001,-0.23382176
-7.6739625999999985,1.2820568,0.94479984,0.39158207,-0.017505653,-0.18111281
-8.318558,0.58308387,0.90431875,0.058346357,0.18849556,-0.27960175
-9.024005,0.05007712,1.2454925,-0.029461157999999998,0.09854129,-0.40681880000000004
-8.972109,-0.14045344,1.6729532,-0.59426713,0.15016812,-0.5888741
-8.684977,-0.51359457,1.9330209999999999,-0.6778335,0.13952161,-0.6144257
-7.9030776,-1.3150104999999999,2.4422197,-0.26527259999999997,-0.4002389,-0.5510703
-7.792571000000001,-1.8609842,2.2617831,-0.17160077,-0.6930179,-0.5601285
-9.958261,-0.6727611,1.1303504999999998,-0.28284806,-0.18039723,-0.36316812
-12.158263,0.6015384,0.05589982,-0.2626197,-0.29431486,-0.11671016
-13.431069,1.1528273,-0.8683004000000001,-0.31691688,-0.33635986,0.19842649
-12.391688,-0.081948735,0.3287622,-0.35897929999999995,-0.16282177,0.50982815
-12.060675999999999,2.6336312,2.9840086,-0.4249702,-0.049427725,0.6402566
-10.88428,2.5721578999999997,5.9661784,-0.48246136,0.14112732,0.6232222
-12.180185,3.8642510999999997,6.847225,-0.5633748000000001,0.22577579999999997,0.5508259
-11.363781,2.771068,4.449155,-0.6224717,0.14271557,0.45659557
-11.129064,-2.9942653,5.4012519999999995,-0.6416354000000001,0.13632767,0.39645153
-10.589889999999999,-1.7329903000000002,5.853276999999999,-0.5937260999999999,0.19062486,0.3330961
-12.228892,0.9515994000000001,5.7019353,-0.48033208,0.181043,0.22237240000000003
-10.630858,1.6397505,4.104274299999999,-0.34885642,0.17359045,0.09567895
-9.3859215,0.6909379,3.3088443,-0.23547982,0.11716395,-0.008639379
-9.128995,0.38259345,2.7768526000000002,-0.17851228,0.038920842000000004,-0.08529424
-7.240267299999999,0.91580135,2.464754,-0.18650588,-0.07391469,-0.13905038
-6.0579433,1.3870186000000002,2.4001584,-0.23813272,-0.1356819,-0.13587388
-6.074923,1.7996256000000002,1.9762026999999998,-0.21790436,0.008045968,-0.08049458
-6.3632040000000005,1.1497627000000001,1.8187313000000003,-0.26954865,0.27153832,0.0323235
-6.8100576,0.10036494,2.0589466,-0.23228587,0.28483772,0.18243927
-7.167292,-0.16435716,2.0225353,-0.28071874,0.26780329999999997,0.19734438
-7.169225999999999,-0.43306320000000004,1.7915715,-0.44200462,0.14645058,0.06161012
-7.513742,-0.33066799999999996,1.5635766000000002,-0.5245238,-0.12875293,0.0014660766
-8.282712,-0.11848425,1.3015839,-0.15296066,-0.09201376,0.22184879999999998
-8.733108999999999,-0.016558299,0.9568761999999998,0.26223573,0.21724114,0.44381976
-8.660430999999999,0.36764404,0.9481421999999998,0.76368624,0.13367477,0.5934119000000001
-8.481114999999999,1.0151894000000001,1.3929561000000001,0.82276565,0.31305972,0.49225265
-8.034117,1.9309621,2.2597914,0.31386256,0.12568116,0.32138494
-9.553803,1.2523876,1.2248735,-0.12421508,-0.36562902,0.30063295
-10.901241,1.1862216,0.7431793999999999,-0.24612632,-0.30122638,0.24207717
-11.798789,0.7551408000000001,-0.5480710999999999,-0.32489303,-0.13140585,0.16648696
-11.399339999999999,1.4870673,-1.6894924999999998,-0.21204005,-0.09307841,-0.06558947
-11.200008,2.4429857999999998,0.9225051,0.019512782,-0.12234758,-0.3514395
-13.13325,-1.6672933,5.546119999999999,0.21645573,-0.17985618,-0.47760934
-13.024238,-2.9866613999999996,8.388019,0.32346186,-0.15908676,-0.4302411
-13.13889,-3.6540114999999997,9.83652,0.37775907,-0.14896385,-0.37114426
-10.5664835,-2.3619182,5.2194457000000005,0.43097416,-0.10958923,-0.35571554
-9.626942,2.9955868999999997,2.5301828,0.43577382,-0.021223204,-0.31152382
-11.629011,4.1667440000000004,4.540441,0.37508872,-0.0036477381,-0.20558234
-12.069286,2.2871330000000003,5.7445903,0.27127653,0.041050144,-0.08210029
-9.9741,-0.44186428,4.6571913,0.15205309,0.045832347,0.029147000000000003
-8.641632000000001,-1.2718191,4.0860977,0.05836381,0.05169665,0.1031315
-8.173163,-1.070821,3.3410127,0.03600614,0.14803882,0.14945254
-6.918965299999999,-1.3262154,2.8749192000000003,0.10786135,0.22842869,0.17552777
-6.2659707000000004,-1.5392035,2.444978,0.28778735,0.21245892,0.18990928
-6.1992199999999995,-0.7154832,2.2522924,0.44961426,0.14006267,0.14678219
-6.6738853,0.09849746,2.2495344,0.5528854000000001,0.16187929,-0.038449604
-7.4687696,0.5294154999999999,1.8891784,0.46612507,0.15709709,-0.20451768
-7.663811,0.74903077,1.3227868,0.34901348,0.03785619,-0.20025907
-7.892869,0.7962157,0.9636183,0.23828979999999997,-0.15908676,-0.08901179
-8.091741,0.8429984,0.76550287,-0.024661502000000002,0.15283848,-0.15343189
-8.310839,0.25450364,0.7802033,-0.064594634,0.06393141,-0.28864256
-8.403265,-0.24536738,1.1681598,-0.29934140000000004,-0.036128316,-0.42278856
-8.597052,-0.42794920000000003,1.6400473000000002,-0.6017023,0.13367477,-0.5537406
-8.672584,-1.0673256000000002,1.8943593999999997,-0.31637582,0.06447246,-0.6543414000000001
-8.748585,-2.2463646,1.8330871,0.049846604,-0.48912853,-0.63091904
-9.403975,-1.4121481000000002,1.2417288,0.12011356,-0.6057165,-0.6000441999999999
-11.352424000000001,0.05980716,0.42978793,0.09030333,-0.22137757,-0.38978437
-12.688091,1.5131066999999998,-0.5968936,0.114790305,-0.24425882,-0.118822016
-12.492542,0.45155603,-0.07041826,-0.019338248,-0.15908676,0.2181138
-11.876437,1.6974506,2.2262247000000004,-0.1502903,-0.00045378560999999995,0.48694685
-11.656391000000001,2.6566446,4.5842160000000005,-0.26953119999999997,0.10386454,0.62482786
-11.34866,1.8589923,5.7509875,-0.33714524,0.16348499,0.547632
-10.967158,3.8102381000000003,5.896325,-0.35416222,0.17893115,0.3512126
-10.910684,0.19666931,4.6056685,-0.29988247,0.14271557,0.20853193
-10.471319,-2.2138607999999995,5.380892,-0.20991075,0.13793337,0.1585108
-10.777211999999999,-0.30447543,5.551866,-0.109292515,0.16880825,0.111666165
-12.139924,1.4187368999999999,5.2131157,0.014713125,0.18957767,0.0009424778
-10.613017999999999,0.8475857,3.9587934000000002,0.1062731,0.17146115,-0.07517133
-8.98653,0.6486850000000001,2.898727,0.16163494,0.13473941,-0.09060004
-8.649082,0.9439091999999999,2.2615342000000003,0.16802284,0.08522443,-0.0996583
-7.4306636,1.5248288,2.247035,0.10733775,-0.0025830872,-0.14702654
-5.954733999999999,1.7695161,2.126415,0.013648475,-0.028134707000000002,-0.16992526
-5.573576999999999,1.7604661,1.9857414,-0.09599311,0.10067059,-0.13639748
-6.5987644,0.64710486,2.1563137,-0.23972097,0.27049112,-0.05440191
-7.2679534,-0.6789956,1.9910851999999999,-0.2913478,0.22949335,0.05417502
-7.375808,-0.89220405,1.7870321,-0.32063442,0.1869073,0.11698942
-7.2097454,-0.34696773,1.6515203999999999,-0.4601037,0.13261011,0.102607906
-7.418022000000001,0.19621919,1.3822588,-0.5090776,-0.046233773,0.050963614000000004
-8.262371,0.7816398,1.1817875,-0.31850514,-0.015358897,0.1499936
-8.796727,1.3836473999999999,0.86650944,-0.10505137,0.019757127,0.3629063
-8.490596,1.5817533000000001,0.75020874,0.34527847,0.16561429,0.5188864000000001
-8.039021,1.8001331999999999,0.93335557,0.50977576,0.48394490000000007,0.5662721
-8.095945,2.4125986,1.0623553,0.10787880400000001,0.10547025,0.64132124
-9.751584,1.7958428,0.6718991999999999,-0.34405676,-0.5593955,0.68710124
-11.411168,1.6031958,0.79513353,-0.33341023,-0.45238933,0.5747893
-12.288135,1.8070285,-0.21324675,-0.32648128,-0.19209094,0.32939598
-12.05631,2.1545229999999997,-1.5508872,-0.2546261,-0.28206265,0.033405602
-11.294704,2.8144512,-0.39311835,-0.010279989,-0.16973327,-0.3253643
-12.490502000000001,0.6499108,3.584369,0.20261528,-0.20966639999999998,-0.528189
-13.157182999999998,-1.8199189999999998,6.710708,0.33677873,-0.24052383,-0.4898441
-13.117026000000001,-3.2519867000000002,8.677842,0.37669440000000004,-0.24052383,-0.36901495
-11.48532,-2.8880966,4.209275,0.42355649999999995,-0.26607543,-0.31257102
-11.813260000000001,2.659575,2.1700467999999997,0.43418556,-0.17399187,-0.295013
-12.651269000000001,3.2496116,4.9222584000000005,0.41023964,-0.051015973,-0.23006929999999998
-12.517413000000001,0.86236274,6.669327,0.3218736,-0.004712389,-0.123604216
-10.64963,-1.2233126,5.181876,0.19996238,-0.0052359877,-0.011292281000000001
-8.319918,-1.3238497999999999,4.500409599999999,0.090844385,0.0048520155,0.078661986
-8.198752,-1.018685,3.6418872,0.047193702000000004,0.006457718,0.11540117
-7.383469,-0.88783705,2.7074974,0.08817403,0.018168878,0.14467034
-6.673769999999999,-1.0719511999999998,2.4619575,0.20102702,-0.04462807,0.15744615
-6.413348,-0.94282705,2.1812997000000003,0.3703065,0.010716322,0.14093533
-6.471489,-0.6213719,2.1343064,0.5411916999999999,0.17254324,0.088784896
-6.8407516,-0.015581464,2.1107569,0.68066096,0.28220227,-0.041102502
-7.317935,0.6542011999999999,1.5542966,0.5997475,0.23481660000000001,-0.164602
-7.433517500000001,1.1001836,0.98407435,0.5779134,0.051173054,-0.15767305
-7.4391484,1.1758594999999998,0.89240515,0.5475795999999999,-0.1473756,-0.07836528
-7.737102,0.9463513000000001,0.97948706,0.18453366,0.14112732,-0.22048745
-8.158711,0.18246691,1.1925614,0.13449506,0.12515756,-0.30831242
-8.801478,-0.6202036,1.4818385,-0.24185027,0.037332594,-0.4179889
-9.043772,-1.0548278,1.6588753,-0.5883854000000001,0.20926498,-0.50155526
-8.509127000000001,-1.5046313,1.9566468999999997,-0.24397957,0.08470083,-0.5611756999999999
-8.116209,-1.9988616000000001,2.023742,0.09616764,-0.41458549999999994,-0.5292361999999999
-9.570295,-0.62338305,0.9828389000000001,0.07752752,-0.5002986,-0.51700145
-11.40272,0.44100237,-0.11239339999999999,0.022706734,-0.10053097,-0.3530452
-12.772051,0.7593833000000001,-0.55319464,0.03600614,-0.12395328,-0.11562806
-12.2476635,-0.8154938,-0.0044915224,-0.07841764400000001,-0.101054564,0.18460347
-12.245882,1.2428397,2.0488048,-0.20085248,0.05810201,0.43586108
-11.604619,3.1627116,4.4463099999999995,-0.3344749,0.20502383,0.52687997
-11.282886,2.8636088,5.473653,-0.38503709999999997,0.26464427,0.46141270000000006
-11.470533999999999,4.151268,5.405897,-0.4036772,0.19648917,0.33417818
-11.141053999999999,-0.40109584,4.5974129999999995,-0.39620718,0.1603085,0.25220007
-11.256876,-2.4923352999999997,5.2848654,-0.33660419999999996,0.20341812,0.22823670000000001
-10.744344,-0.1213956,5.189471,-0.24558528,0.28379053,0.18671532
-11.68107,1.9130150000000001,5.061285,-0.17263052,0.26516786,0.08824385
-10.1511755,1.4667742,3.6822437999999993,-0.12419763,0.22844614,-0.017139133
-9.090036999999999,0.77960956,2.6534173,-0.096516706,0.17093755,-0.07675958
-8.678167,1.1325531999999998,2.2814155,-0.11142181599999999,0.07937758,-0.0980526
-7.257026,1.7071233000000001,2.1109486,-0.18221237,0.03413864,-0.12999213
-6.330997,1.8191718999999997,2.1288571,-0.2599319,-0.0094945915,-0.15128514
-6.349605,1.5505520000000002,1.8113285,-0.29560640000000005,0.057560957999999995,-0.14648548
-6.9410973,0.700553,1.8610799999999998,-0.37013197,0.22364649,-0.122539565
-7.199096000000001,-0.08350018,1.9745747,-0.39036033,0.21725859,-0.006492625
-7.1685076,-0.24911189,1.6806912,-0.320617,0.112399206,0.008936086
-7.220519500000001,0.028960262999999997,1.2679884,-0.47979102,0.14966199,-0.016598081
-7.3887463,0.53016245,0.98106724,-0.48883182,0.041067597000000004,0.055780724000000004
-8.044106,0.88369024,0.7781826000000001,-0.18594737,0.07033677,0.2905275
-8.691173,1.0375034,0.39992747,0.28035223,0.18373081,0.48589966
-8.605623,1.1312603,0.17387651,0.7386931999999999,0.34821063,0.5141042
-8.212284,1.583659,0.48573563,0.36445966,0.26090926,0.48003536
-8.212705999999999,2.338934,0.9482571,-0.20884609,-0.18942058,0.48909359999999996
-9.236284,1.3397092,0.2650094,-0.28867745,-0.39009854,0.47151816
-10.981839,1.3157766000000002,1.0653527,-0.1508139,-0.043563418,0.31714377
-11.552952000000001,1.4592563,0.09675448,-0.08585274,-0.14948745,0.07442084
-11.4754095,1.8934495,-1.8438991000000002,0.105749495,-0.14896385,-0.27052602
-11.100237,3.1177964,1.5318006000000002,0.26810002,-0.15961036,-0.45258132
-13.227467,-1.3837625,5.566739,0.33093187,-0.19207348,-0.37857938
-13.702236,-2.9598843999999995,8.830524,0.3612657,-0.15906931,-0.24336872
-13.402493,-4.150195,6.8300633,0.38468802,-0.1564164,-0.20078267
-12.315899,1.1308485000000001,2.5365033,0.44004986,-0.14576989999999998,-0.18641862
-12.832395,3.6451626000000004,3.1279,0.47837728,-0.11170107,-0.12679817
-12.474153999999999,2.465252,6.312044599999999,0.45708427,-0.07124434,-0.020333085
-11.544792999999999,-1.2742228999999998,5.690931299999999,0.38203509999999996,0.0016755160999999998,0.08398525
-9.602625999999999,-2.2501283,4.001448600000001,0.29312804,0.027750734,0.1606401
-8.514471,-1.3844233,3.4567866,0.23083724,0.028274333,0.2234545
-8.014714999999999,-0.8877986999999999,2.5603783,0.21434389,0.018168878,0.2772281
-7.300840400000001,-0.43383893,2.0527884999999997,0.2361605,0.04691445,0.29691540000000005
-6.7294396999999995,-0.14596969,1.8566938999999998,0.33093187,0.11452851,0.25752333
-6.628271000000001,-0.26582342,1.6608672999999998,0.49008846,0.15498523,0.17289232
-6.7695479999999995,-0.11476845,1.6950851999999998,0.63861597,0.08258898,-0.02459169
-7.19675,-0.05249048,1.347744,0.59920645,-0.014294246000000002,-0.19493583
-7.245764299999999,0.17908628,1.0989673,0.67160267,-0.14896385,-0.20132373
-7.560936999999999,0.52637964,0.77555853,0.6817255999999999,-0.22828907,-0.13531537
-8.022165,0.54135776,0.59453773,0.36552429999999997,0.12250466,-0.21889919
-8.565601,0.22550507,0.41747215,0.26544714,0.1603085,-0.38496727
-8.691173,-0.03250368,0.52804595,-0.34192744,0.044244096,-0.50848424
-8.38617,-0.40171832,0.7458895999999999,-0.66130525,0.16189674,-0.5111371
-8.0766,-0.52863973,1.1828313999999998,-0.31635840000000004,-0.18994418,-0.58192766
-8.53531,-0.85219216,1.2987681999999998,-0.13538519,-0.64296186,-0.6436949000000001
-10.20584,-0.86627966,1.0451456000000001,-0.20882864,-0.55991906,-0.6766816
-11.376941,-0.6803746,0.5643516,-0.27644270000000004,-0.25914648,-0.516984
-12.032281,0.08434294,0.09860281,-0.3190462,-0.38105774,-0.17577212
