accx,accy,accz,gyrx,gyry,gyrz
-9.542225,0.73665756,-0.36026030000000003,-0.18140952,-0.16816248,0.09986774
-8.920442,0.8617881,-0.40295374,-0.18460347,-0.0760789,0.049288097999999995
-8.366164,1.0476931,-0.5489999999999999,-0.13615313,0.0021642083,-0.0039095376000000005
-8.035669,1.0695187,-0.48354253,-0.13030629,0.08998918,-0.04490732
-7.88086,0.9147383,-0.40745485,-0.17980382,0.14641567,-0.081629045
-7.679316,0.8418492,-0.52223283,-0.29000390000000004,0.19432496,-0.10400417
-7.5822163,0.8069513,-0.66645956,-0.43479642,0.2731091,-0.10613347
-7.8138795,0.7538191999999999,-0.78435963,-0.44809583,0.21828833,-0.09601056
-8.037594,0.7174369,-0.9992056999999999,-0.5013458,0.22999948,-0.09548696
-8.203972,0.6172251999999999,-0.9439666999999999,-0.5822593,0.31730086,-0.08908161
-8.329284,0.38088876,-0.87095314,-0.49813443,0.21402973,-0.04649557
-8.5927515,0.257913,-1.1485463,-0.56094885,0.09424778,-0.011903145
-9.098924,0.34005326,-0.98633444,-0.6897715999999999,0.00057595863,-0.016685348
-9.643989,0.32676065,-1.4044003,-0.6881833,-0.018587757,-0.013508848
-10.394263,0.65114623,-1.7939083999999998,-0.56201345,-0.08618436,-0.019355701
-11.234504,1.1565334999999999,-2.0161189999999998,-0.45661303,-0.18093829,-0.04384267
-12.192184,1.2386928999999998,-1.2095506,-0.41830307,-0.21181315,-0.035866518
-13.902057000000001,0.18092503,0.56925493,-0.4411843,-0.21500711,-0.01829105
-12.366147,-0.30083624,0.18420988,-0.44809583,-0.23630013,-0.031590457999999995
-10.682142,0.33713233,0.9772078000000002,-0.40179226,-0.24162339,-0.057683133
-10.695713,1.1811842,2.7180605,-0.32140237,-0.23417082,-0.07737044
-11.051606,0.84954894,2.2316928,-0.24422392,-0.24162339,-0.09334021
-11.083525999999999,-0.054750602999999995,1.5111914,-0.19631463,-0.23204152,-0.10665707
-11.346256,-0.38609853,1.3278722,-0.16172221,-0.20542525,-0.11358603
-11.6691,-0.2481255,1.7702824000000001,-0.11486012,-0.17402677,-0.10292207
-11.242491000000001,-0.5296453000000001,1.3532889,-0.06377433,-0.14528121,-0.08110545
-10.472564,-0.57199395,0.80582124,-0.008936086,-0.097354464,-0.05235988
-9.575944999999999,-0.52916646,0.37750813,0.046931904,-0.02284636,-0.020961404
-8.671319,-0.6781815999999999,0.45060790000000006,0.08100073,0.05326745,0.0104370685
-8.009811000000001,-0.7435816,0.5517677,0.10709339999999999,0.13046336,0.029077185
-7.5655813,-0.6637685000000001,0.50727385,0.13583897,0.21135937,0.031730086
-7.5182147,-0.98710066,0.24212083,0.17523105,0.26513296,0.026406832
-7.568942999999999,-1.1314328000000002,0.117957525,0.23059290000000002,0.29546678,0.021624627999999996
-7.765986,-1.1398793,-0.0972812,0.30777135,0.32368878,0.029059732
-8.201856,-1.0483252,-0.3885885,0.42435935,0.41950732,0.034924038
-8.501762,-0.98060757,-0.7474890000000001,0.45097563,0.37692129999999996,0.043441243
-8.599724,-0.94112235,-0.9359892,0.38870227,0.2922903,0.071663216
-8.666551,-0.72894824,-0.9352709000000001,0.44193482,0.4227013,0.06154031
-8.726722,-0.68402344,-1.1366808000000002,0.5026199,0.36468655,0.008307766999999999
-8.7306385,-0.86845356,-0.9355008,0.60428536,0.15495034,-0.013491395
-9.121027,-1.0527973999999998,-0.6985418999999999,0.60376173,0.013351769,0.014695672
-9.934204,-1.2019084999999998,-0.76640314,0.6617765,-0.041469023,0.015219271000000001
-10.689219,-1.307215,-1.0534393,0.61545545,-0.07075564599999999,0.009372418
-10.862665,-1.5562502,-1.2984618,0.488762,-0.102695175,0.03864159
-11.241294,-1.5172535,-0.92966855,0.3881612,-0.19264944,0.07325147
-13.022791,-0.22414516,0.12334927,0.37165040000000005,-0.21820106,0.09187413
-12.191341,0.23147142,-0.15478994,0.40093702,-0.23736478,0.09880309
-10.396131500000001,0.02635537,0.25368962,0.36367425,-0.27249825,0.12541936
-9.747887,0.114519455,1.2129601,0.2907544,-0.28740337,0.14193018
-10.988974,1.163266,3.0020797000000004,0.24284512,-0.30283207,0.14618878
-11.333357000000001,0.53577447,1.8659929,0.20184733,-0.3081728,0.15310028
-10.871638,0.5286206,1.3181611999999998,0.15287338,-0.29592058,0.15257668
-11.08953,0.90590847,1.0416502,0.08951793599999999,-0.27197465,0.14458308
-11.708949,1.1533156999999998,0.5001104000000001,0.017139133,-0.24375269,0.12754866
-11.515258,1.1436336,-0.28998572,-0.06588618,-0.20703095,0.10732029400000001
-10.545136,0.9308082000000001,-0.30346027,-0.11646582,-0.17083283,0.06899287
-9.656687,1.0133985,-0.22112846,-0.14734070000000002,-0.10641272,0.014695672
-8.895264,1.0468024999999999,-0.24071305,-0.18088593,0.015463616999999999,-0.050771628
-8.2199745,1.0637438,-0.31981748,-0.1606401,0.124599054,-0.10930997
-7.9623103,1.0726023999999998,-0.3101449,-0.14947,0.17996089,-0.15350170000000002
-7.901364,0.97010183,-0.33860713,-0.16118115,0.21242402,-0.1577603
-7.762002000000001,0.9845628000000001,-0.47520113,-0.24954717,0.27523842,-0.12421508
-7.8127875,0.9641929,-0.7246291,-0.36400586,0.3667984,-0.08909906
-8.020872,1.0319775,-1.0853683,-0.3762406,0.26352727,-0.09707521
-8.130201,1.0784059,-1.3005878,-0.49495792,0.2970725,-0.11304498
-8.19315,1.0211174,-1.0462949000000001,-0.51251596,0.34391713,-0.09920452
-8.14358,0.77500314,-0.8732899,-0.396469,0.27365017,-0.08749335
-8.16191,0.5092371,-1.0183688,-0.42734388,0.12618731,-0.06832964
-8.777652,0.4075027,-1.2204108,-0.5705481,0.053791045999999995,-0.060353484000000006
-9.731846,0.48240292,-1.1967944,-0.5332854,0.08040732,-0.040648717
-11.127187,0.86887497,-1.1822186000000001,-0.42682028,0.010681415,-0.013508848
-11.7452545,1.3742813999999999,-1.5001781,-0.36292377,-0.08086111,-0.02893756
-12.938821,1.2714936000000001,-0.1790001,-0.3395189,-0.1308997,-0.023614304
-13.736711999999999,0.36362177,-0.14251247,-0.34590679999999996,-0.13357005,-0.019355701
-11.682737,0.21530578,-0.058083333,-0.3070383,-0.124511786,-0.033737216
-10.012542,0.5712661,0.7308062,-0.22506021,-0.13995795,-0.04490732
-10.395116,0.54867446,3.4072843,-0.14414674,-0.16070992,-0.047577675
-11.02029,0.22267033,2.040061,-0.07229154,-0.18519689,-0.06354744
-10.253485000000001,-0.34024477,1.4277583,-0.033423055,-0.17667969,-0.08058185
-10.647532,-0.019249381,1.3412030000000001,0.0043458696,-0.16922712,-0.08803441
-11.213052000000001,0.059060167999999996,1.6035405,0.054925512999999995,-0.16444492,-0.0837758
-11.13255,-0.6110960999999999,1.1825249,0.10655235,-0.14793411,-0.07419395
-10.687141,-0.73158187,0.62244457,0.1677785,-0.118664935,-0.060894538
-9.820345,-0.7245524999999999,0.33285149999999997,0.2263343,-0.0723439,-0.03213151
-8.9509535,-0.7281246,0.5290611,0.24282765,-0.015393803999999999,-0.0055152406000000005
-8.480885,-0.7528232,0.6127241,0.23113395,0.066566855,0.013107423
-8.209804,-0.8504109000000001,0.46848783,0.19598302,0.15334463,0.02586578
-8.190228999999999,-1.1076056,0.31365958,0.18694222,0.23797564,0.033318337
-8.144194,-1.1167513999999998,0.01997722,0.23591615,0.30504864,0.029600783999999998
-8.235432000000001,-1.0515335,-0.09067321,0.33173472,0.34337607,0.03705334
-8.470532,-1.0645962,-0.17961301,0.45204028,0.35934582,0.050893802
-8.540769000000001,-1.1347653999999998,-0.44975558,0.34025192,0.2347817,0.077510074
-8.586958000000001,-0.98927456,-0.65922904,0.287543,0.3055897,0.10306169
-8.6729765,-0.6491734,-0.76468885,0.28221974,0.33698818,0.06899287
-8.633395,-0.42851419999999996,-1.2203151,0.35728636,0.23638739,-0.000715585
-8.489139999999999,-0.6094871000000001,-1.1454053,0.44724062,0.115540795,0.0072431164
-8.864877,-0.65315735,-0.8286619000000001,0.5813866,0.038362335,0.019477874
-9.584688,-0.70070624,-0.943507,0.6122615,-0.032951817,-0.014573500000000001
-10.540942,-1.0737419,-1.1290001,0.56489325,-0.054785885,-0.03267256
-11.237243,-1.3046867,-1.1029034,0.50579643,-0.08831366,-0.0039269909999999995
-12.448489,-0.5704617,0.15683937,0.45256388,-0.15379842,0.022671826000000003
-13.2495985,0.38688385,-0.45596135,0.46214575,-0.16177456,0.03544764
-11.384917999999999,0.3740126,-0.28772559999999997,0.4738569,-0.16283922,0.05248205
-9.901231,-0.019938912,0.35852692,0.43872342,-0.18786724,0.09239773
-10.394082000000001,0.5263509,2.3046203,0.3886848,-0.22139502,0.13287191
-11.197136,0.22193292,2.350675,0.33599332,-0.24535839999999998,0.14936528
-11.046885000000001,0.07387549,1.7503339,0.28221974,-0.25494024,0.16214108
-10.907312,0.13046484,1.2812139999999999,0.2225993,-0.2576106,0.16585864
-11.094961,0.503242,0.91266966,0.15500268,-0.24907593,0.15310028
-11.462481,0.7198981,0.30269409999999997,0.07993608,-0.23577653,0.13765411
-10.684585,0.74993104,-0.25353637,0.014992378999999998,-0.19425514,0.11370819999999998
-9.74985,0.61880535,-0.2438255,-0.043545965,-0.15060446,0.08283333
-9.056116000000001,0.7039335999999999,-0.19422722,-0.11114257,-0.04946263,0.041311942000000004
-8.601027,0.93747365,-0.08406521,-0.13936454,0.060720004,-0.010838495
-8.218902,1.0011976999999999,-0.20082563,-0.11807153,0.16931438,-0.06354744
-8.087508,1.0000963,-0.298126,-0.095696405,0.26300368,-0.10665707
-8.065798,0.99125695,-0.45305958,-0.10742501,0.3188891,-0.1465902
-8.128612,1.0701028000000001,-0.6046413,-0.20430824,0.3423114,-0.16043067
-8.285125,0.9968403,-0.7984088,-0.38529888,0.3982143,-0.16575392
-8.566942,0.9439284,-1.108956,-0.5114512999999999,0.43441245,-0.20460495
-8.667661,0.95940447,-1.1929063,-0.51038665,0.29972538,-0.23973842
-8.593919999999999,0.80494976,-1.0402901,-0.5178391999999999,0.41950732,-0.24347343
-8.266048,0.56590307,-1.2052124,-0.35761797,0.3545462,-0.2115339
-8.200417999999999,0.41539398,-1.2287808999999998,-0.32567844,0.35934582,-0.1375494
-8.609453,0.20859243,-1.0612059999999999,-0.36772340000000003,0.16399114,-0.05715953
-9.072405999999999,0.19852720000000001,-1.5001781,-0.47472957,0.014940018999999999,0.009896017
-9.743864,0.60670984,-1.5870971999999999,-0.48270569999999996,-0.014852752,0.029600783999999998
-10.246656,1.2452052,-2.0434799999999997,-0.37411132,-0.0782082,0.020018926
-10.177579,1.5012603,-2.2384446,-0.2665816,-0.1931905,-0.010838495
-11.8900175,0.84088194,-0.8867644,-0.2058965,-0.23045327,-0.022549653
-11.784883,-0.5229128,-0.32655954,-0.20324358,-0.24003513,-0.039584067
-10.507097,-0.5932353,0.96889514,-0.17076302,-0.23151793,-0.06407104
-10.176822999999999,-0.044857762999999995,2.0859816,-0.0882613,-0.22513002,-0.0837758
-10.377399,0.43917322,2.4246943,0.0027576203000000002,-0.249617,-0.0842994
-12.430906,0.4312053,2.184776,0.055990162999999996,-0.27570966,-0.06993534400000001
-13.071709,-0.5723387,1.2056051,0.05757841,-0.25387558,-0.07579965
-12.776332,-0.7061459,0.68943435,0.05757841,-0.22671826,-0.0773879
-12.551525,-0.19206287,0.8368501,0.07089528,-0.1974491,-0.06674139
-11.684288,-0.5397967,0.5065173,0.08100073,-0.14899875,-0.044383723
-10.58196,-0.41784567,0.29798234,0.086323984,-0.10695378,-0.011379546499999999
-9.284742999999999,-0.42593804,0.019182345,0.07941248,-0.055309486,0.021083577000000003
-8.298542999999999,-0.8601025999999999,0.10882126,0.035220746000000004,0.012810716000000002,0.044505894000000004
-7.8149524,-1.0789135,0.18940051,0.017662732,0.09902998,0.059411008
-7.798450999999999,-1.0417745999999999,0.18390343,0.067701325,0.21722367,0.06101671
-7.8258796,-1.0518686000000002,-0.10444465,0.18640116,0.2768441,0.06312856
-7.807932000000001,-1.1699603,-0.34934276,0.29180159999999994,0.27897343,0.058869954
-8.051528,-1.0825909,-0.5632406999999999,0.39081413,0.3337942,0.064734265
-8.437750999999999,-0.82011944,-0.9281937,0.39613740000000003,0.28427923,0.063669614
-8.696305,-0.6669384,-1.2933956,0.26092672,0.15386823,0.09667379
-8.713046,-0.57769215,-1.3091111999999998,0.28701940000000004,0.30291936,0.08815658
-8.723111,-0.38120479999999995,-1.2120981000000002,0.33812264,0.254469,0.022130774
-8.592953,-0.60206515,-1.5286115,0.41210714,0.095853485,-0.0007330383
-8.4267,-0.94612145,-1.2356666,0.4802448,-0.056915186,0.029600783999999998
-9.058366,-0.9809235999999999,-1.0721618999999998,0.56543434,-0.12397074,0.028536132999999998
-10.185260000000001,-1.1118576999999998,-0.95797753,0.51963687,-0.10056587,0.0045727626
-10.963979,-1.5759018999999999,-1.1785697,0.39507273,-0.12983504,0.018413223
-11.275005,-1.9289796000000001,-0.8214027,0.30298916,-0.21394245,0.06047566
-13.312614000000002,-0.277057,-0.09789412,0.287543,-0.21715386,0.085486226
-12.657521000000001,0.49120402,-0.5772516,0.3067067,-0.15486306,0.100391336
-10.472976,0.22471020000000003,-0.24308809999999997,0.26359707,-0.15805702,0.13287191
-9.867519999999999,0.39468893,1.0831082,0.16830209999999998,-0.13995795,0.16053538
-11.101894,0.80543816,2.4033759999999997,0.09005899,-0.13941689999999998,0.17278759
-11.728543,0.547257,1.8538303,0.033632495,-0.13569935,0.16852899
-11.037164,0.36651397,1.3709008,-0.01160644,-0.119729586,0.15149458
-10.819867,0.4508952,0.87814534,-0.057386424000000005,-0.10321877,0.12754866
-11.406187,0.8101404000000001,0.30057767,-0.11859512,-0.09311332,0.10519099
-10.954583999999999,0.82699555,-0.37045962,-0.17821556,-0.068626344,0.078574724
-9.833714,0.67743456,-0.4924394,-0.22026055,-0.012723451,0.04930555
-8.89265,0.82542497,-0.34481293,-0.25541148,0.052726395,0.0072431164
-8.340403,0.95090985,-0.24689008,-0.27296948,0.12086405,-0.05183628
-7.947974,0.99217635,-0.35959953,-0.25434682,0.16184439,-0.101874866
-8.009084,1.0525581,-0.43441355,-0.26392868,0.23904029999999998,-0.13114405
-8.147592999999999,0.97739935,-0.49157748,-0.29906216,0.28536132,-0.1465902
-8.244492,0.95532477,-0.58904064,-0.40339795,0.34869933,-0.1487195
-8.327619,0.8582158999999999,-0.7937736,-0.530615,0.47699848,-0.14978416
-8.491956,0.8760863000000001,-1.0064745000000002,-0.5886471999999999,0.4924272,-0.16362461
-8.439829,0.95772856,-1.2092538000000002,-0.5614899,0.42216024,-0.18437658
-8.3011,0.932034,-1.1554897,-0.49389327,0.43067744,-0.17320648
-8.323614,0.7444722,-1.1185519,-0.38849282,0.3167598,-0.1471138
-8.663246000000001,0.45834598,-0.9563016,-0.39859828,0.26672122,-0.08375835400000001
-9.120932,0.3765313,-0.87492746,-0.36772340000000003,0.07562511400000001,-0.05023057400000001
-9.760748,0.45492706,-1.109406,-0.42575562,-0.05372123400000001,-0.01829105
-10.225252000000001,0.90228844,-1.5605693999999999,-0.35868259999999996,-0.08405506,-0.002321288
-10.37015,1.2582008999999998,-2.5706065,-0.21547835,-0.1303761,-0.020420352
-10.3094225,1.2243181,-2.613386,-0.07494444,-0.22033036,-0.06780604
-11.50572,0.6087114,-1.2998695,0.016598081,-0.21500711,-0.0795172
-11.292808,-0.36807498,-0.09138189,0.031503193,-0.26930429999999994,-0.0837758
-10.908194,-0.80371433,1.275669,0.01288053,-0.2799508,-0.06991789
-10.521730999999999,-0.44326252,1.6487238000000002,0.008080875,-0.27888617,-0.04490732
-10.631519,-0.006071695,2.4625132,0.056531213,-0.3209486,-0.04384267
-12.561283999999999,-0.32287246,2.5073326000000002,0.10389945,-0.34650022,-0.04490732
-13.029063,-0.93866116,1.4077715,0.11719886,-0.32201326,-0.04277802
-12.639383,-0.9018765999999999,0.9852139999999999,0.10283479999999999,-0.28527406,-0.04543092
-12.342934,-0.80004644,1.0506235000000002,0.08580039,-0.24055873,-0.039043017
-11.573302,-0.9979415999999999,0.56978166,0.06928957,-0.18467329999999998,-0.022549653
-10.655366,-0.7212196999999999,0.029831752000000003,0.063442715,-0.12718214,-0.0044505894
-9.448516,-0.41157284,-0.35368106,0.057054814,-0.0739496,0.020018926
-8.50928,-0.3663416,-0.28012162,0.033632495,-0.027104963,0.044505894000000004
-8.085334,-0.47685793,-0.05996996,0.04373795,0.04420919,0.05461135
-8.02546,-0.9085421,-0.21811177,0.11189306,0.14854497,0.055152405
-7.9099827000000005,-1.0876378999999998,-0.71488947,0.18641862,0.22413518,0.059952057999999996
-7.7322087,-1.0748626000000001,-0.9886425,0.22314034,0.29600784,0.06421066
-7.956708,-0.9886425,-1.0945524,0.20823523,0.35882223,0.06740461
-8.377331,-0.8252620999999999,-1.3561141,0.21355848,0.40086722,0.07271042
-8.615725999999999,-0.7102352,-1.7280389999999999,0.18587756,0.3188891,0.099326685
-8.477236999999999,-0.5836298000000001,-1.674045,0.31682962,0.38276815,0.09293878
-8.231438,-0.40635347,-1.4180568,0.34131658,0.30239573,0.06421066
-8.1144285,-0.62345016,-1.3381767,0.31524137,0.095853485,0.057281705999999995
-8.077931,-1.1785122,-1.0072406999999999,0.34079298,0.06497861,0.062081363
-8.923888,-1.3512013,-0.77599907,0.41158354,-0.024975661,0.03757694
-10.049432000000001,-1.4766575000000002,-1.0572985000000001,0.40626028,-0.047856927,0.0024609142000000003
-10.637858999999999,-1.4486643999999997,-1.7280773,0.32162929999999995,-0.07553785,0.0051138145
-11.115359,-1.5721094999999998,-1.8831544999999998,0.19865337,-0.17987363,0.043982297000000004
-12.539086,-0.92036945,-1.1126621,0.15233234,-0.23790583,0.06686357
-12.37877,-0.678986,-1.294928,0.1693842,-0.22085397,0.08496263
-11.121267,-0.26203102,0.1930876,0.12945107,-0.22938862,0.117425755
-11.368578999999999,0.8630044,1.4242626,0.06983062599999999,-0.25759315,0.14193018
-11.438442,1.3218195,1.9239134999999998,0.028850293,-0.29911453,0.15577063
-10.976045,0.42221270000000005,1.1800253,-0.026494099,-0.30070278,0.16854644
-10.505738000000001,0.07414364,1.0574709,-0.08026769,-0.29644418,0.16481145
-10.789738999999999,0.31140903,0.6987526,-0.13988814,-0.27462757,0.15257668
-11.69464,0.74701965,0.014844051,-0.20696114,-0.23362978,0.13767157
-11.546086,1.1536509,-0.6007627,-0.25487044,-0.16390386,0.10093239
-10.257909,1.0356263,-0.7525263000000001,-0.26551694,-0.05956809,0.03546509
-9.025077,0.95008624,-0.5096681,-0.25274113,0.06391396,-0.04384267
-8.392424,0.9940534,-0.45873863,-0.19683823,0.13524556,-0.11569787599999999
-8.072913,0.98668885,-0.47921383,-0.19099139,0.15495034,-0.16360717
-7.976292599999999,0.93192863,-0.4985111,-0.28307495,0.21615903,-0.19289379
-7.8379655,0.8620466999999998,-0.60102123,-0.41243875,0.2885553,-0.2083225
-7.850414999999999,0.8651496,-0.6897791,-0.49122292,0.34552282,-0.19128808
-8.023430000000001,0.7614519000000001,-0.9056595,-0.49015826,0.29122564,-0.18969983
-8.026408,0.6224637,-1.2697216999999998,-0.5391322,0.3183655,-0.17905332
-7.842361,0.49720865,-1.2607867,-0.551367,0.32635912,-0.13646729999999999
-7.730322,0.22302467,-1.1535169,-0.47790605,0.32794738,-0.05820673
-7.884987400000001,0.115314335,-1.4297215,-0.37730527,0.124599054,-0.024678955
-8.809063,0.33415392,-1.1379449,-0.48270569999999996,-0.014852752,-0.001256637
-9.842419999999999,0.42357259999999997,-1.074307,-0.43851396,-0.023369959,0.008307766999999999
-10.439792,0.5640739,-1.440189,-0.30543262,-0.05050983,0.010978121
-11.133823,0.80823463,-2.2562478,-0.18193312,-0.16655678,-0.0033859387
-12.136275,0.93791413,-1.6504861000000002,-0.11486012,-0.20116664,-0.016685348
-13.758519,-0.1732636,-0.11966220000000001,-0.12817699,-0.200102,-0.01616175
-12.747563000000001,-0.49323428,0.35672647,-0.15692255,-0.19052014,-0.020420352
-10.719329,0.30838275,0.60711205,-0.1366942,-0.16920967,-0.027855453999999998
-10.573752,0.65638477,3.0806098,-0.06642723,-0.16922712,-0.025202554
-12.162641,0.15492399,2.1653830000000003,0.011815879,-0.17613862,-0.037437312
-11.455057,-0.5512026999999999,1.2609398,0.06717772,-0.16816248,-0.06033603
-11.003876,-0.31666669999999997,1.0973966999999998,0.10976376,-0.15430456,-0.07044149
-11.289389,-0.053227894000000005,1.2460862,0.13744467,-0.1266411,-0.06352998
-11.113961,-0.6637014,0.89942497,0.1651256,-0.08511971,-0.036913715
-10.376728,-0.74750805,0.37433824,0.18748327,-0.05318018,-0.0033684855
-9.228067,-0.52285534,-0.07315723,0.20345303,0.0042935097999999994,0.029077185
-8.277388,-0.46911988,-0.039485175,0.19013616,0.060196407,0.048781954
-7.793576700000001,-0.60211295,-0.02132755,0.18800686,0.14376277,0.054105207
-7.7776027,-0.86654776,0.019009963,0.20929988,0.25609216,0.048240899999999996
-7.9027715,-1.2285032,-0.21218373,0.27317894,0.31464794,0.046652652
-8.005894999999999,-1.4085568000000002,-0.41669643,0.34025192,0.33061773,0.04930555
-8.118872,-1.2638128999999998,-0.5797033,0.39402553,0.36521015,0.05623451
-8.417860000000001,-0.9769684000000001,-0.8700912000000001,0.41744784,0.35829863,0.06740461
-8.556216000000001,-0.7767556999999999,-1.2880421999999998,0.37486179999999997,0.3029368,0.10520845
-8.438249,-0.60206515,-1.3559896,0.46748644,0.37905059999999996,0.11105530000000001
-8.339196000000001,-0.39634573,-1.4513267,0.633572,0.3614926,0.046635196
-8.25897,-0.6351817,-1.6029084999999998,0.5356241,0.096935585,0.0067195175
-8.250093,-1.0970520000000001,-1.2570516,0.39615482,-0.06274459,0.063687064
-8.929203999999999,-1.2323244,-1.1536986999999999,0.46162212,-0.087231554,0.059952057999999996
-10.434869,-1.2306579,-1.3129897,0.40573668,-0.0819083,-0.000715585
-11.402596,-1.5042865,-1.6662495,0.31630602,-0.12503539,-0.00710349
-11.6584215,-1.5603683000000002,-1.5578208,0.24497442,-0.24479988,0.015777776
-12.819983,-0.30640036,-0.8277329999999999,0.20291197,-0.2868623,0.031206487
-12.015627,-0.23030305,-1.1386919,0.20984094,-0.28047442,0.053040557
-9.762616,-0.46573925,-0.4532224,0.18481292,-0.27567476,0.08656833
-9.474967,1.0848893999999998,2.1539102000000003,0.15554374,-0.2799508,0.103602745
-12.770968,2.3202784,2.8111184,0.09646435,-0.30761427,0.12117821
-13.069526,1.160029,0.93793327,0.03417355,-0.30070278,0.14512412
-11.370925999999999,0.6465494,1.0280223,-0.017976891000000002,-0.29112092,0.15524703
-11.136562,0.6580224,0.5957923,-0.06428047,-0.25492278,0.15205309
-11.995209,0.9611475,-0.017180791,-0.12018337,-0.21659537,0.13449506
-11.716973,1.1509406999999998,-0.4197227,-0.16170475,-0.18411478,0.1062731
-10.360448,0.89989424,-0.57208014,-0.1483879,-0.122365035,0.06421066
-9.107486,0.77580756,-0.40666953,-0.13135348,-0.035063665,0.010454521999999999
-8.241609,0.83569133,-0.31481835,-0.08133234,0.060720004,-0.06085963
-7.734469,0.9219400999999999,-0.39433458,-0.031293754,0.16985545,-0.12634438
-7.715066,0.9796499,-0.6348465,-0.010524335,0.21617648,-0.17743017
-7.727525,0.99474293,-0.7378929,-0.05256932,0.22841124,-0.19394098
-7.776089,1.0500298000000001,-0.8382196,-0.18992673,0.22628194,-0.18702948
-7.8684573,0.89331496,-1.0335578,-0.37357026,0.2917667,-0.19446458
-7.9607015,0.7157034999999999,-1.3424098,-0.5141042,0.37693876,-0.215234
-8.000579,0.6663829000000001,-1.2851213,-0.52633893,0.23746950000000003,-0.24078563
-7.9691863,0.45939940000000007,-1.1455585,-0.4539427,0.23586379,-0.23439772
-7.965212299999999,0.09575849,-1.2667817,-0.32726669999999997,0.1789137,-0.19713494
-8.0435505,-0.16721104,-1.0680916,-0.26124087,0.20073032,-0.13964379
-8.460027,-0.25357470000000004,-1.3187455,-0.31927308,0.1182286,-0.090669855
-9.313426,0.042377368,-1.5807668,-0.43264967,0.018151425,-0.06405358
-10.300056,0.7362649,-1.6094015,-0.37782887,0.035185836,-0.05979498
-10.85126,1.3155756,-2.2777479,-0.28253388,-0.02867576,-0.067788586
-10.946817,1.4103763,-2.7346573,-0.18619172,-0.1420698,-0.08854055400000001
-12.450155,0.8457278,-1.7662889,-0.09089675,-0.19263199,-0.09386381
-12.98727,0.037866697000000005,-0.18108785,-0.019041541999999998,-0.23362978,-0.10290461
-12.714925,-0.56459105,2.0561883,0.057595864000000004,-0.22883011,-0.11142181599999999
-11.187406,-0.30012757,2.0193846,0.18270107,-0.21978931,-0.12527974
-10.253226,0.554114,2.6656084,0.32162929999999995,-0.25384068,-0.12526228
-11.239858,0.56369084,1.4785535,0.42331216,-0.28047442,-0.12899728
-11.493872999999999,-0.20917661,0.8243715,0.46057492,-0.2676986,-0.12739158
-11.465956,-0.3301221,0.7648325,0.46642178,-0.24586453,-0.10822786400000001
-11.750187,-0.37246117,0.9030258,0.43928190000000006,-0.22137757,-0.07841764400000001
-11.185642999999999,-0.8858642,0.6085581999999999,0.40041342,-0.17879152,-0.04117232
-10.412028999999999,-0.82662207,0.45205402,0.3706032,-0.122365035,0.0019373155
-9.34207,-0.88691765,0.14927368,0.32642892,-0.05368633,0.045605455
-8.419469,-1.2477717,0.09312487400000001,0.25296799999999997,0.0037699111,0.07433357
-7.9697227,-1.4319624,0.2005958,0.16831955,0.06925467,0.079656824
-8.030861,-1.568748,0.073559456,0.118822016,0.18584266,0.06742207
-8.027557,-1.4947863000000001,-0.110640846,0.14969689,0.26569146,0.06529277
-8.005808,-1.2654506,-0.37505648,0.21783455,0.30721286,0.08445648
-8.208702,-0.78793174,-0.55582833,0.31578243,0.39877284,0.12224286
-8.400986,-0.4967394,-0.9812970999999999,0.44938737,0.48127455,0.14620623
-8.471672,-0.44906604,-1.3785813,0.35943309999999995,0.2981546,0.15472344
-8.416117,-0.31662840000000003,-1.4220409,0.32269390000000003,0.26036823,0.14194763
-8.339062,-0.06488287,-1.6424894,0.15128514,0.20181242,0.07913323
-8.375157000000002,-0.22284271,-1.7874439999999998,0.13425073,0.1805194,0.049323004000000004
-8.360312,-0.8810279000000001,-1.4637573999999998,0.34985125,0.07670722,0.05092871
-8.8734665,-1.0167983,-1.2024542999999999,0.44886377,-0.05688028,0.012583823999999999
-10.011565,-0.8592120000000001,-1.4085376,0.39988983,-0.08510225,-0.012409291000000001
-10.653364,-1.0532093,-1.9085043999999998,0.2795843,-0.097337015,0.018971728
-10.686701,-1.7628698,-2.058726,0.1651256,-0.20434316,0.07113962
-12.171816,-1.1066861000000001,-0.41812340000000003,0.16619025,-0.19369663,0.10307915
-13.869218,0.48597506,0.114394955,0.21251129,-0.17985618,0.11691961
-12.279784,1.2796721000000002,1.1988341999999998,0.19493583,-0.1984963,0.13662437
-11.565297,1.1154969,1.1341333,0.15608479,-0.17931512,0.14940019
-10.756574,0.065122284,1.3527334999999998,0.12892747,-0.17240362,0.1605703
-10.653814,0.053706735,1.6629071,0.10550515,-0.17772688,0.17123425
-10.747954,-0.35838327,1.3373915,0.07517133,-0.17292722,0.17549285
-11.282789999999999,0.053189587,1.12606,0.017680185,-0.16653931,0.162176
-12.1893215,0.8260475,0.5790137,-0.061627574000000004,-0.1537635,0.13768902
-11.343527,0.9244013000000001,-0.16869545,-0.12018337,-0.1388584,0.10681415
-10.036647,0.79315114,-0.3307446,-0.14199999,-0.101054564,0.06742207
-9.170548,0.69817793,-0.21057484,-0.15371114,-0.06380924,0.023771385
-8.534151,0.7307008,-0.16597563,-0.1590344,0.028274333,-0.0251851
-8.065366000000001,0.67384326,-0.19038692,-0.14093533,0.08683013,-0.057124626
-7.991270500000001,0.72714776,-0.2798343,-0.13828243,0.16294394,-0.07574729
-7.895483500000001,0.7123611999999999,-0.47992250000000003,-0.17235126,0.26834437,-0.07361799
-7.760288,0.7682227,-0.629359,-0.25111797,0.35992178,-0.08267625
-7.808239,0.76701605,-0.9164525,-0.3522598,0.47701594,-0.10555751599999999
-7.9944024,0.83481026,-1.2957036,-0.42680280000000004,0.5414359999999999,-0.13004448
-8.037353999999999,0.83640957,-1.3927166000000002,-0.3597298,0.3625747,-0.15507251
-8.020403,0.7327789000000001,-1.1973690000000001,-0.28626890000000005,0.33009413,-0.14868459
-8.0311775,0.44269747,-0.9220261999999999,-0.23781857,0.20181242,-0.11674507
-8.368731,0.37555447,-1.0373023000000001,-0.2633702,0.23588125,-0.06244788
-9.091761,0.47387955,-1.03147,-0.31127948,0.19915952,-0.036878806
-10.014610000000001,0.5456099,-1.4780173,-0.3884754,0.061802108,-0.027314402
-10.655653,0.75899065,-2.2394884,-0.40870374,0.026145032000000002,-0.015062191499999999
-10.692007,1.1134378999999999,-2.9919956,-0.35493016,0.0085870195,-0.03635521
-10.528042,1.3692919,-3.3522557999999996,-0.2889218,-0.073391095,-0.08428195
-11.818144,1.0565611000000001,-1.6716220000000002,-0.22717206,-0.122365035,-0.11355112
-12.676043,-0.32657868,0.6146969,-0.20109683,-0.13992305,-0.13323843
-12.289984,-1.5698014,2.7405180000000002,-0.18139207,-0.18037978,-0.13695599
-10.861353999999999,-0.7600058000000001,1.3560854,-0.14145893,-0.21977186,-0.12526228
-9.043014999999999,0.4330536,1.5820118,-0.05469862,-0.25703463,-0.117268674
-10.207861,0.37530547,2.2218957,0.023544492,-0.28523916,-0.10503391
-11.96353,-0.32836,0.90087104,0.07623598,-0.29429743,-0.08958775
-12.110821000000001,-0.75831074,0.6112301,0.083688535,-0.28310984,-0.06990044
-12.171432000000001,-0.82733077,0.5628768,0.08155923,-0.25490534,-0.039025564
-11.841654,-0.93265647,0.4054724,0.10871656,-0.23148301,-0.008150687
-10.827614,-0.7278085999999999,-0.004520253,0.14704399,-0.19367918,0.022706734
-9.607826,-0.62633276,-0.18009186,0.17418386,-0.14896385,0.040805798
-8.89987,-0.5414439,-0.16070838,0.1688606,-0.06539748599999999,0.058381262999999996
-8.538806,-0.6466546999999999,0.013991713999999999,0.16940166,0.04796165,0.070092425
-8.255092999999999,-1.0670958000000001,-0.079238504,0.1667313,0.1826487,0.075939275
-8.002647999999999,-1.2505681999999998,-0.16790058,0.18483037,0.29284879999999996,0.08234464
-7.838080000000001,-1.2759563,-0.26543078,0.21251129,0.34341097,0.09192649
-7.9405136,-1.1973115,-0.5472762,0.27319640000000006,0.38121483,0.11267845
-8.242144999999999,-1.15005,-0.84129375,0.38817868,0.45361108,0.13290682
-8.458657,-1.08578,-1.1316721,0.27639034,0.28326693,0.1637817
-8.534496,-0.97906566,-1.2191466,0.27639034,0.34873423,0.19146262
-8.603698,-0.73204154,-1.3996121000000001,0.29129544,0.38653806,0.115872405
-8.351397,-0.7424228,-1.9370048999999998,0.23593360000000002,0.24120450000000002,0.020577433
-8.112005,-0.8940045,-1.8378276000000002,0.21092305,0.06660176,0.02698279
-8.45271,-0.92853844,-1.6781437,0.31471777,-0.030264008999999998,0.055710907999999996
-9.38257,-0.9801383,-1.6888794999999999,0.29555404,-0.04410447,0.026441738
-10.539601,-1.22586,-1.9250627,0.18856537,-0.069115035,-0.006544985
-11.0207405,-1.5671487,-1.8974718999999998,0.07623598,-0.16334537,0.015795228999999997
-12.222696000000001,-0.93407387,-0.40945637,0.020874137,-0.24158847,0.032288592000000005
-13.459771,0.11397358,-1.0943416000000001,0.016091935,-0.26129323,0.044540804
-10.79331,0.15320976,-0.5663436,-0.0339292,-0.25916395,0.07435103
-9.604617999999999,0.42717347,0.9385558,-0.08131489,-0.28578022,0.1068316
-11.373242999999999,1.0685706,2.5667949,-0.13028882,-0.29588565,0.12758356
-12.112861,0.40568309999999996,1.6695248,-0.16275196,-0.29003882,0.1531352
-11.250899,0.08063671,1.1028459,-0.19575612,-0.27459264,0.17708111
-10.697303,0.025742456,0.54866487,-0.23994787,-0.26555184,0.18188076
-11.384524,0.40592253,0.2289623,-0.30435053,-0.23945917,0.17655751
-11.882203,0.9328001,-0.40262812,-0.3623827,-0.22029546,0.15845844
-10.736577,0.90590847,-0.673307,-0.38367572,-0.18729128,0.12119567
-9.633415,0.76837593,-0.5847694,-0.39591047,-0.10744247,0.06689847
-8.938541,0.8678693999999999,-0.35652536,-0.37355283,6.981316999999999e-05,0.009948377
-8.565036,0.9659454,-0.43132022,-0.2676288,0.11770499999999999,-0.043807764000000006
-8.278258000000001,1.0070587,-0.6629353,-0.18617427,0.19277161,-0.07574729
-8.111325,0.9246215,-0.65184534,-0.17287487,0.26996753,-0.08850565
-8.005425,0.8311040000000001,-0.74660784,-0.23675391,0.31414179999999997,-0.08478809
-7.835551700000001,0.6450363,-0.90352386,-0.34641296,0.36685076,-0.08798204
-7.9487114000000005,0.5532713,-1.196009,-0.40762165,0.37589157,-0.10128146
-8.026752,0.5554835,-1.338761,-0.42839107,0.31468287,-0.120462626
-7.941184,0.52735645,-1.3172131999999999,-0.47949430000000004,0.42964769999999997,-0.123115525
-7.821991400000001,0.34818396,-1.1013328000000002,-0.42997932,0.38175586,-0.11992157
-7.969905000000001,0.04723281,-1.1811937,-0.34321898,0.2624975,-0.08265879
-8.682257,-0.08907388,-0.97977436,-0.4001691,0.050631999999999996,-0.033702306
-9.587974,-0.25584438,-1.3568993999999999,-0.5556081,-0.056339227,-0.004415683
-10.327552,0.036928166,-1.6167853,-0.6051231,-0.07389724,0.008883726
-10.966421,0.9634841999999999,-2.2330527,-0.55454344,-0.15269886,0.026441738
-11.258800500000001,1.4518919,-2.4386957000000002,-0.46830675,-0.28949776,-0.004939282
-12.308083,0.7128591999999999,-1.7361026999999998,-0.38793433,-0.34060100000000004,-0.041678462
-11.264547,-0.09255984,-1.2306963,-0.36877063,-0.32888985,-0.056042522000000004
-10.321624,-0.18106867,0.34394145,-0.37088245,-0.31930798,-0.07201228
-10.78403,-0.11404062,1.6484845000000001,-0.3485248,-0.30653217,-0.08637635
-12.447464,0.30316338,2.992953,-0.28199285,-0.30759683,-0.07574729
-12.70236,0.15153381,1.8346289,-0.2202431,-0.3278252,-0.064018674
-11.889691000000001,-0.31531638,1.2087846000000002,-0.16701056,-0.3299545,-0.07094763
-11.725228999999999,0.061444793,0.6582139,-0.11164871,-0.31450832,-0.08265879
-11.945927000000001,0.17316781,0.6966456,-0.071733035,-0.28204522,-0.08904669999999999
-11.610748,-0.58288276,0.66422814,-0.027541295,-0.24158847,-0.084247045
-10.5302925,-0.8272158000000002,0.3617926,-0.0062482785,-0.18887953,-0.05550147
-9.573186999999999,-0.5067567,0.010630256000000001,0.01982694,-0.12341223,-0.021973696
-8.450096,-0.63534456,-0.08789594,0.02300344,-0.029181905,0.008360127
-7.8237147,-0.8026226,0.013934253999999998,0.009162978,0.06873106,0.034435347000000005
-7.630455,-0.70941156,0.1417942,0.027803095,0.19490092,0.033911746
-7.7576447,-0.8685780999999999,0.035347994,0.078906335,0.27796113,0.031782445
-7.892562400000001,-0.9950398000000001,-0.11441411,0.20240583,0.31840040000000003,0.031241393
-8.050512,-1.0580551999999999,-0.28629863,0.32217032,0.34449309999999994,0.02857104
-8.328661,-1.0236361999999999,-0.6240439,0.40948915,0.42753586,0.03656465
-8.468301,-0.84669507,-1.1481538,0.43717006,0.42966515,0.04881686
-8.419459,-0.6719279,-1.4565653,0.51063097,0.36737436,0.08820894
-8.353858,-0.49349287,-1.3146753,0.72994906,0.46319294,0.073303826
-8.374936,-0.47469357,-1.4208341999999998,0.746966,0.22258183,0.040282197
-8.291714,-0.8360552,-1.641072,0.52712435,-0.004694935999999999,0.06478662
-8.525638,-1.1956835,-1.17698,0.55215234,0.06288421,0.06424557
-9.626022,-1.2508458999999998,-1.155777,0.5670575,0.024574235,0.01420698
-10.727288,-1.3693205,-1.1642333,0.47336819999999996,-0.032375857,-0.026232297999999998
-11.376002,-1.69724,-1.4529357,0.3498687,-0.11435397,-0.020909045
-11.741308,-1.8971846,-1.4025999,0.24712117,-0.19367918,-0.003874631
-12.700742,-0.9471748999999999,-0.9392261999999999,0.21092305,-0.18887953,0.017400933
-10.926955,-0.85855114,-0.48991114,0.14172074,-0.17025687,0.04775221
-9.930574,0.27217284,1.7744004,0.040055305,-0.16706291,0.08660324
-12.421827,2.3868084,3.2687939999999998,-0.039252456,-0.19739674,0.0999201
-12.035814,1.2262719,1.440007,-0.09728465,-0.21551326,0.1052259
-10.502521,0.31488540000000004,1.0156587,-0.14465289,-0.24371777,0.10843731
-10.498948,0.2869786,0.78814244,-0.20214403,-0.24317673,0.110025555
-11.360621,0.6360915,0.48674121,-0.25644124,-0.22614232,0.0935322
-12.006853999999999,0.9471461999999999,-0.08437166,-0.293704,-0.22081906,0.06743952
-11.154117,1.2633723,-0.29368234,-0.31286773,-0.20059069,0.033370696
-9.773629,1.3916153999999998,-0.41735724,-0.32723179999999996,-0.1521578,-0.0006806784
-8.845858,1.4170705,-0.26271096,-0.31606168,-0.091996305,-0.04059636
-8.444972,1.3387418,-0.28736165,-0.24205971,-0.0808262,-0.08105309
-8.093474,1.1200937,-0.47793055,-0.1702045,-0.016947147,-0.097022854
-8.185881,0.96197104,-0.49320555,-0.11697197,0.07407177,-0.092240654
-8.264171000000001,0.8772164000000001,-0.52844816,-0.07012733,0.12943362,-0.09011135
-8.164553999999999,0.8325597,-0.7815249,-0.12388347,0.22738150000000001,-0.07998844
-8.054037,0.68885016,-1.0056220999999999,-0.24579471,0.35566318,-0.07892379
-8.160981,0.568077,-1.1683321000000002,-0.28038713,0.34395203,-0.09011135
-8.087575,0.55634546,-1.3283415,-0.29583332,0.29391345,-0.10128146
-7.956832400000001,0.50596184,-1.3837816,-0.26548204,0.29764846,-0.0916996
-8.086043,0.3694349,-1.1550107,-0.13452998,0.1603085,-0.043249257
-8.661877,-0.012009315,-0.16687585,-0.0993965,0.04639085,0.009948377
-9.199385000000001,-0.35917813,-0.34861493,-0.29476866,-0.039287362,0.034976397
-9.865337,-0.33781227,-0.834159,-0.39430478,-0.11435397,0.032847095
-10.519797,0.012488157,-1.6682317999999998,-0.33894295,-0.11967722,0.014224433
-10.635485000000001,0.7279521999999999,-2.5501982999999995,-0.23088960000000003,-0.21176079999999997,-0.031555552
-11.295001,1.1010168,-2.5677621,-0.17179276,-0.2612758,-0.058695424
-12.747964999999999,0.6003126,-1.1728524,-0.15636405,-0.2676637,-0.060301125
-12.219345,-0.07268797,0.117488265,-0.18563321,-0.2676637,-0.064018674
-11.809553,-0.26906040000000003,1.9307321,-0.16540486,-0.25808182,-0.07731809
-12.06896,0.14331691,3.1584597000000003,-0.09993755,-0.23731242,-0.0916996
-11.223980000000001,0.7737294,2.1781106,-0.008901179,-0.24637067,-0.099152155
-10.977041,0.6612115,1.6142666,0.06080727,-0.21921335,-0.10660471
-11.167218,0.28976545,1.1318923,0.079970986,-0.20217894,-0.11351621
-11.431116000000001,-0.07602069,1.1013136000000001,0.078906335,-0.16917476,-0.10606366
-11.416157,-0.51716673,1.325229,0.09115855,-0.13777629,-0.08850565
-10.714723,-0.6538373000000001,0.88672614,0.12203342,-0.0882613,-0.06667158
-9.749381,-0.31472259999999996,0.39273527,0.15823156,-0.030770155,-0.042184606
-8.829203,-0.5101182,0.14342226,0.17313667,0.05490806,-0.009197885
-8.306577,-0.89974105,0.32107199999999997,0.15449655,0.13049826,0.013159783000000001
-8.0630865,-1.0068671999999999,0.45489833,0.09009389599999999,0.2332458,0.025935592
-8.008604,-1.2131133,0.20610246,0.027803095,0.34662238,0.02274164
-7.9089484,-1.17449,-0.018148048,0.046984263,0.41263074,0.028064894
-7.891116,-1.0595299999999999,-0.28172090000000005,0.1571669,0.4349884,0.044034656
-8.07365,-0.8119121,-0.47351563,0.2742785,0.44776422,0.07808603
-8.378461,-0.661834,-0.77179486,0.45420447,0.5371949,0.0977908
-8.469862,-0.68052787,-1.0757723,0.40948915,0.39346704,0.12334242
-8.508964,-0.6452278,-1.1222198,0.46643925,0.4243419,0.13557717
-8.404701,-0.49229574,-1.3710923000000002,0.40470695,0.38494983,0.10259046
-8.1917515,-0.5001296,-1.2699612,0.43717006,0.28115508,0.026459191
-7.993933,-0.5668129,-1.2307633,0.45207518,0.12891002,0.0051661744
-8.554397,-0.55179644,-1.3531933,0.49359655,0.03361504,0.005707226700000001
-9.887411,-0.80743015,-1.4277008,0.45793948,-0.007888888,-0.03473205
-10.903626,-1.2901586999999999,-1.198547,0.3647738,-0.04939282,-0.050160762000000005
-11.279774,-1.8582261000000002,-1.5191306,0.22689279999999998,-0.12500048,-0.0033335788
-12.325992999999999,-1.3517567,-0.2851686,0.1529083,-0.18088593,0.0136833815
-13.423561,-0.5502833,-1.0421002000000001,0.16674876,-0.17023942,0.023265239
-12.042767999999999,0.48380113,0.41982806,0.1587726,-0.17290977,0.044558257000000004
-10.863499000000001,0.48499823,0.36101687,0.11245156,-0.19207348,0.070109874
-10.801307000000001,1.0727748,1.9343905,0.06613053,-0.20910789,0.08342674
-11.301925,0.46143928,1.8454124,-0.008901179,-0.2075022,0.10204939999999998
-10.99563,0.12035173,1.244803,-0.06852163,-0.20059069,0.11749557
-10.955274000000001,0.14748281,0.7431698,-0.10684906,-0.17556266,0.11749557
-11.625209,0.70989996,0.37398390000000004,-0.15475835,-0.1468171,0.09459685
-11.894155,1.1142423000000001,-0.44598234,-0.19415042,-0.12126548,0.071174525
-10.57563,0.9180709999999999,-0.6460035,-0.20160298,-0.084002696,0.041364305
-9.37466,0.7645451999999999,-0.64178973,-0.19734438,-0.021188296000000002,-0.007051130300000001
-8.607192999999999,0.8613188,-0.530488,-0.177116,0.086323984,-0.06719518
-7.994795,0.9162418,-0.45393106,-0.12229522,0.17575465,-0.11138691
-7.8285035999999995,0.9462843000000001,-0.6319735,-0.09833185,0.26570892,-0.13055062
-7.8698559999999995,0.87613416,-0.7673512,-0.11323696400000001,0.3136182,-0.12948598
-7.7447734,0.90819734,-0.8609931999999999,-0.19627973,0.36845645,-0.12257447
-7.6907214999999995,0.78707945,-1.0625850000000001,-0.34746015,0.45469317,-0.12468632
-7.838922999999999,0.53665555,-1.3249224,-0.46244243,0.40784854,-0.15770794
-8.121065,0.5736220000000001,-1.3981371999999999,-0.49651125,0.38920844,-0.18271852
-8.20919,0.59119546,-1.2639182,-0.406557,0.40571925,-0.17100736
-8.184904,0.37544912,-1.2485378999999999,-0.22235495,0.21992894,-0.124162726
-8.375577999999999,0.023942016,-1.1960665000000001,-0.16594589999999998,0.10655235,-0.07253588
-9.04313,-0.18846197,-1.4661038,-0.33681363,0.06609562,-0.033143803
-9.803624000000001,-0.14998238,-1.7132428,-0.3405312,0.054925512999999995,-0.018221237
-10.451323,0.46676397,-2.1084297000000003,-0.26122344,-0.016388642,-0.0038571777
-10.745905,1.1405402,-2.5598419999999997,-0.17818066,-0.18833847,-0.019303342
-11.077167,1.2799401000000001,-2.3345957000000004,-0.10791371,-0.28415707,-0.045919612
-12.112496,0.23113623,-1.5718796,-0.105260804,-0.31876692,-0.051766466
-11.001711,-0.57692605,0.054990023,-0.07171558,-0.31716123,-0.048572514000000004
-11.130424,-0.7942716,2.3290314999999997,-0.005707226700000001,-0.3389953,-0.052831117000000004
-12.687038000000001,-0.6729143,3.3941063999999996,0.07944739,-0.34005994,-0.04485496
-12.201589,-0.36258748,1.8394363999999999,0.14385004,-0.32141984,-0.035796702
-11.372735,-0.11763192,0.7130506999999999,0.154514,-0.29002136,-0.043249257
-11.421433,-0.11946109,0.2608818,0.14439109,-0.24795893,-0.050701816
-12.178192999999998,-0.058064178,0.44331038,0.14439109,-0.20856684,-0.051766466
-11.845696,-0.7281438,0.448683,0.14493214,-0.15214035,-0.041119955
-10.755730999999999,-0.8072769000000001,0.21506634,0.15025539999999998,-0.10529571,-0.01823869
-9.452653,-0.7276362,-0.11195287,0.16887806,-0.04886922,0.011030481000000002
-8.576156,-0.83839196,-0.04537491,0.16303120000000001,8.726646e-05,0.039235003
-8.152458,-1.0283959,0.16410816,0.13267992,0.05384341,0.06265732
-7.9647145,-1.0932212,-0.06500736,0.11351621,0.14168583,0.065327674
-7.895263000000001,-1.1127675,-0.27679846,0.12362167,0.19757128,0.070109874
-7.8244905,-1.1872175,-0.4281982,0.16355479999999997,0.23537510000000003,0.086079635
-7.9805446,-1.0431536,-0.6614413,0.20614083,0.28701940000000004,0.106325455
-8.296914,-0.8740751,-0.9035716999999999,0.30195943,0.43340015,0.10578441
-8.584324,-0.8150533,-1.2758031,0.38180822,0.46373397,0.08395033
-8.549081,-0.78005964,-1.4999291000000001,0.30993557,0.3322583,0.07756243
-8.384733,-0.5842331000000001,-1.3671371,0.39618975,0.3801676,0.041364305
-8.415399,-0.5815229000000001,-1.4368658,0.35892695,0.25240952,-0.026755897
-8.371516999999999,-0.92427677,-1.2483655,0.36212093,0.120392814,-0.08477064
-8.923458,-0.90971047,-1.183722,0.29930650000000003,0.030962141000000002,-0.05602507
-10.014773,-0.94543195,-1.4617367,0.38074356,-0.013735741000000001,-0.013439035
-10.812358999999999,-1.1586691,-1.7424905,0.39777797,-0.042481314000000006,-0.036861353
-10.891387,-1.6639606,-2.4281897999999997,0.2929186,-0.06005678,-0.051242866
-10.747619,-1.9447526000000002,-2.0913258000000003,0.21731095,-0.17662732,-0.012915436
-12.35773,-0.51834464,-1.0983161,0.19655898,-0.2500882,-0.0017453292000000002
-11.506121,-0.22768858,-0.92973554,0.22743386,-0.2825688,0.0009075712300000001
-10.412297,0.56523275,0.91946924,0.23914501,-0.31503192,0.030717794
-10.399866000000001,0.8903556999999999,1.1946492,0.18324211,-0.3326074,0.07597418
-11.03749,1.1543691,2.5307,0.118839465,-0.3437775,0.11215486
-11.89834,0.5448916,1.440821,0.038990654,-0.33845425,0.13505358
-11.600501,0.5369524,1.1408372,-0.011571533,-0.30864403,0.14676474
-11.172265,0.6536744999999999,0.72128683,-0.040317107000000005,-0.26818728,0.14570008
-11.801078,0.76602,0.2954349,-0.08609709,-0.22827162,0.13240068
-11.84426,0.8644984,-0.26617777,-0.11910127,-0.21389009999999997,0.10950196
-10.488289,0.55088663,-0.20129491,-0.12016592,-0.17610373,0.07756243
-9.626719999999999,0.43414540000000007,-0.31725088,-0.116430916,-0.12978268,0.041905355
-8.840838,0.65596336,-0.38420233,-0.12068952,-0.10477211,0.021135937
-8.177261,0.7599675,-0.41402449999999996,-0.09993755,-0.055798177000000004,-0.019844393999999998
-8.092421,0.81422967,-0.58206874,-0.053092916,0.044802602000000004,-0.06560693
-8.131035,0.6224350000000001,-0.82484084,0.012374383999999999,0.18373081,-0.09276425
-8.104305,0.54993856,-0.95062256,0.07145378,0.26412067,-0.10660471
-8.064207000000001,0.60415286,-1.1646738,0.019285886999999998,0.31841788,-0.10979866
-8.237557,0.44178770000000006,-1.3517281,-0.11697197,0.43605307,-0.108210415
-8.347576,0.2507208,-1.4349887,-0.2878397,0.5201604999999999,-0.10395181
-8.188217999999999,0.16164693,-1.5915504999999999,-0.32032028,0.41476005,-0.0959582
-8.007494,0.27048734,-1.5740056,-0.19947368,0.18318976,-0.09756391
-8.1499,0.30117142,-1.2139176999999999,-0.23034856,0.23057544,-0.08904669999999999
-8.503313,-0.0012258312,-0.93956137,-0.23034856,0.16776104,-0.035814155
-8.765202,-0.41248265,-1.0852723999999998,-0.21598449999999997,0.05544911,0.02274164
-9.176094,-0.43076476,-1.6091621,-0.35171875,-0.081873395,0.03869395
-9.637457000000001,0.091171205,-1.96925,-0.37994072,-0.19207348,0.033911746
-10.116622999999999,0.7229149,-2.4534152000000002,-0.29796259999999997,-0.23146556,0.011030481000000002
-10.52378,1.1463534,-3.0951664,-0.21172589,-0.31717870000000004,-0.024102997
-11.331498,1.388503,-2.6174085,-0.14198254,-0.36880553,-0.037943456
-14.6694565,0.41403409999999996,-0.484098,-0.15210545,-0.37997562,-0.030490901
-13.664475,-0.7732697,0.95394576,-0.1680752,-0.33738959999999996,-0.042202063
-11.643682499999999,-0.20884143,1.2628456000000001,-0.13027138,-0.3086615,-0.065083325
-10.668007000000001,0.46004108,2.174931,-0.0365821,-0.30386183,-0.074124135
-11.033496000000001,0.5986845000000001,2.1432607000000004,0.06454228,-0.31185544,-0.08531169599999999
-11.457336999999999,0.09004114,1.464897,0.13587388,-0.26872835,-0.09756391
-11.705683,-0.37885848,1.109789,0.16036086,-0.24424137,-0.09649926
-11.7881975,-0.48582184,1.1201991000000002,0.17845991,-0.19952604,-0.08105309
-11.309376,-0.7747349,1.0316231,0.20134118,-0.13671164,-0.046984263
-10.602635000000001,-0.5453034000000001,0.57594913,0.2263692,-0.0765676,-0.008656833000000001
-9.290575,-0.40651628,-0.113896966,0.23914501,-0.011082841000000001,0.023265239
-8.107255,-0.6116706999999999,-0.04513549,0.22795746,0.05862561,0.050405107000000005
-7.685741999999999,-0.85077477,0.1812219,0.18963002,0.11772246,0.06637487
-7.7469187,-1.0912292,0.37284425,0.13055062,0.22045253,0.06159267
-7.834728200000001,-1.3993152,0.09662041,0.09009389599999999,0.26996753,0.06265732
-7.818716,-1.4024563,-0.18277337,0.14332643,0.29019588,0.07808603
-7.9818664,-1.1752848999999999,-0.3933003,0.23540999999999998,0.32265902,0.09672615
-8.328345,-0.8925776,-0.7371938,0.29503044,0.32691762,0.11428416
-8.58307,-0.7694677,-1.0940353,0.25085616,0.28220227,0.14622368
-8.496782000000001,-0.60765797,-1.2266933,0.32112312,0.35194564,0.16112879
-8.341141,-0.37187698,-1.424684,0.4046895,0.35992178,0.13664183
-8.224591,-0.33642364,-1.6547285,0.40203658,0.21992894,0.059463367
-8.153961,-0.5941930000000001,-1.2441708999999999,0.32909927,0.09908234,0.033370696
-8.477486,-0.62399596,-1.0112438,0.35571554,0.06555457,0.03656465
-9.792544,-0.6094201,-1.3192913999999998,0.43237042,0.01605703,-0.022497293999999998
-10.985047999999999,-0.75948864,-1.3515173,0.42652357,-0.0052359877,-0.06827728
-11.561485000000001,-1.100739,-1.3382918,0.35838592,-0.023858652,-0.05391322
-12.490895,-1.1051061000000002,-1.0177752,0.26841420000000005,-0.07337364,-0.017715093
-12.705684,-0.8029578,-1.2585743999999999,0.24818581,-0.11383037,-0.0012042772
-11.686174000000001,-0.6331514,-0.49057192,0.23808037,-0.10637782,0.01155408
-11.275569,-0.29874846,0.49249685,0.21252874,-0.09519026,0.0371057
-11.291466999999999,0.60253435,2.017546,0.16355479999999997,-0.12660618,0.05094616
-11.118758999999999,0.54364663,1.9952033,0.08848819,-0.14097025,0.08075638
-10.249127,0.08284895,0.93267566,-0.005707226700000001,-0.14948745,0.11641346
-9.890993,-0.29858568,1.0495318,-0.11430161400000001,-0.16226326,0.13451253
-10.689814,-0.06707596,0.8515984000000001,-0.23247786,-0.15533431,0.12918927
-11.518839999999999,0.5856218000000001,0.46405375,-0.3527834,-0.14257595,0.10950196
-11.309482000000001,1.0200448,-0.31128449999999996,-0.43636720000000007,-0.13405874,0.08340929
-10.191781,0.9663476999999999,-0.5109130999999999,-0.46883035,-0.07283259,0.042428955
-9.232588,0.8989461,-0.41182184,-0.47256535,0.029880037999999998,-0.012915436
-8.748949,0.9982767,-0.37963417,-0.41133919999999996,0.103340946,-0.060824725999999996
-8.369306,1.0286448000000001,-0.48175168,-0.3586477,0.18479545,-0.08265879
-8.096960000000001,1.1342005,-0.7255963000000001,-0.32244956,0.24815091,-0.098087505
-7.9665723,1.2528378999999998,-0.8970787,-0.36503562,0.29658379999999995,-0.10128146
-7.729105499999999,1.174806,-1.0209259,-0.46883035,0.40252528,-0.111927964
-7.6384229999999995,1.0177559999999999,-1.2635638999999999,-0.5284508000000001,0.4057018,-0.13641493
-7.7036123,0.90770894,-1.4149828000000002,-0.51834536,0.30881855,-0.13535029
-7.752482400000001,0.8518953000000001,-1.3196936000000001,-0.46085417,0.25078636,-0.12843879
-7.627237299999999,0.5613733,-1.0103531,-0.43743187,0.18638371,-0.10234611
-7.8804765,0.08105809,-1.0556705,-0.37196457,0.039461896,-0.07572984
-8.846689999999999,0.0077572134,-1.1136485,-0.4629835,-0.07496189,-0.07147123
-9.674422999999999,0.024210166,-1.1265868,-0.47521824,-0.13671164,-0.064018674
-10.556083000000001,0.2841247,-1.5698493999999998,-0.357042,-0.1489464,-0.061889375999999996
-10.607616,0.84172475,-2.6916572999999997,-0.21970205,-0.23465952,-0.08798204
-10.881838,1.0151128,-2.7232606,-0.13240068,-0.33314845,-0.108210415
-12.451017,0.53244174,-1.6901148999999998,-0.08503244,-0.3086615,-0.12576842
-12.806346000000001,-0.23317608,-0.11038228,-0.05948082,-0.2841745,-0.14599679999999998
-12.369566,-0.97780156,1.2522728,-0.0073129297,-0.27937484,-0.1561197
-11.903837,-0.6681355,2.3368366000000003,0.05708972,-0.28363347,-0.15079644
-11.937231,-0.27142587,2.332278,0.11032226,-0.31131437,-0.13322099
-11.6344595,-0.48580268,1.6637881999999997,0.13480923,-0.32037264,-0.11140437
-11.261387,-0.6615850000000001,1.0116075999999998,0.11616912,-0.31290263,-0.08585274
-11.267966,-0.5667746,1.1316146,0.09168214,-0.2926917,-0.054436818
-11.463735,-1.0118471,1.0341132,0.08955284,-0.2612758,-0.01665044
-10.700598,-1.3185156999999998,0.6587023,0.107651904,-0.24424137,0.027523842000000003
-9.566195500000001,-1.2248448,0.08488881599999999,0.14917329,-0.21708405,0.06850417
-8.633961,-1.0106978000000002,0.09775046,0.17207201,-0.16758652,0.111090206
-8.131341,-0.96687436,0.10715489,0.14545573,-0.10850712,0.14357078
-7.929385000000001,-0.90210646,0.14300089,0.10499900599999999,-0.01160644,0.1691224
-8.001288,-1.1030278,-0.06830179,0.07784168400000001,0.12411036,0.18242182
-8.003883,-1.2528378999999998,-0.34314656,0.10819296,0.20182988,0.19786797
-7.9928026,-1.1434133,-0.54922026,0.16355479999999997,0.24389231,0.19999728
-8.194366,-0.97927636,-0.85452884,0.23062779999999997,0.32265902,0.20106193
-8.565419,-0.9305399999999999,-1.075169,0.34081045,0.45574036,0.19148007
-8.728456,-0.9324075000000001,-1.3138709,0.26363197,0.27742007,0.18774506
-8.645491999999999,-0.80607027,-1.3086898,0.40948915,0.35726890000000006,0.19093902
-8.412948,-0.5463856,-1.2750177,0.348263,0.35513958,0.13718288
-8.215817999999999,-0.6419142,-1.3916058999999998,0.2748021,0.30829495,0.07808603
-8.139003,-0.7490595,-1.2412404,0.17526597,0.17201965,0.062133722
-8.912905,-0.6280661999999999,-1.0312018,0.18643607,0.07993608,0.08075638
-10.319766,-0.5911093000000001,-1.0894383,0.28651324,0.04852015,0.0051661744
-11.095707,-0.87684286,-1.4469213,0.2242399,0.07087782,-0.05763077
-11.149376,-1.6641808999999999,-1.9704568,0.14864969,-0.016406095,-0.050701816
-12.231689,-1.5412242,-0.59054416,0.08477064,-0.12445943,-0.041119955
-12.8835535,-0.46310565,-0.7707414,0.052831117000000004,-0.13458234,-0.019303342
-10.306033,0.2635537,0.782473,-0.004642576,-0.14044665,0.034435347000000005
-9.565017999999998,0.8818707,1.1352346000000002,-0.10046115,-0.1436406,0.08714429
-9.578646,1.0155724,2.757048,-0.21118484,-0.16598082,0.12388347
-11.76548,0.69668394,2.7515125,-0.28625146,-0.18249163,0.14570008
-12.292539999999999,0.24468741,1.6008399,-0.31339133,-0.17449802,0.14463544
-11.839835,0.018081011,1.0188764000000001,-0.32564354,-0.15533431,0.13025393
-12.029465,0.055986013,0.45381615,-0.35119516,-0.12767084,0.10470230000000001
-12.150966,0.5414821999999999,-0.22553379999999998,-0.37301177,-0.12871803,0.07489208
-10.7946415,0.83378553,-0.30877540000000003,-0.3671649,-0.08028515,0.0376293
-9.639199000000001,0.8668063,-0.26185864,-0.3416133,0.014451326,-0.0028099802
-8.754082,1.0132741,-0.12295662,-0.28464574,0.111334555,-0.050178215
-8.031062,1.0364308,-0.15316187,-0.17179276,0.14381513,-0.07253588
-7.7024817,1.1743463,-0.28375122,-0.13081242,0.19118336,-0.07040658
-7.729958,0.97061896,-0.4357926,-0.1574287,0.24228661,-0.07305948400000001
-7.764425,0.65446943,-0.6124655,-0.21437879,0.28593728,-0.07892379
-7.802080999999999,0.50097233,-0.8139999,-0.29848620000000003,0.35568064,-0.07892379
-8.099747,0.4594473,-1.1097028,-0.32032028,0.28113765,-0.08637635
-8.232214,0.35430357,-1.3180081,-0.34000759999999997,0.2987131,-0.0959582
-8.077519,0.28365543,-1.4194646999999998,-0.41879174,0.36898005,-0.09489355
-7.8947554,0.15992309,-1.2050495,-0.3937812,0.31841788,-0.07892379
-8.323298,0.030042442000000003,-1.0309049000000001,-0.41826814,0.10920525,-0.06934193
-9.227387,0.05900271,-0.60253435,-0.59232986,-0.063250735,-0.06295402
-9.710575,0.030933086000000002,-0.9669223,-0.62906903,-0.07229154,-0.061365776
-10.337205,0.19335572,-1.4593903999999998,-0.54016197,-0.109030716,-0.05602507
-10.746011,0.9069715,-1.9390734,-0.44914302,-0.24956463,-0.07838274
-11.611639,0.96181786,-1.8019432,-0.39697513,-0.29906216,-0.10021680599999999
-12.833869,0.04306689599999999,-0.9173049000000001,-0.37620570000000003,-0.23944172,-0.11032226
-11.639479,-0.17731458,-0.17792750000000002,-0.3229732,-0.23837706,-0.124162726
-10.484334,0.17353174,0.062019399999999995,-0.24099506,-0.21495475,-0.13480923
-11.345777499999999,0.41848729999999995,2.4145236,-0.12707742,-0.21762510000000002,-0.12203342
-12.316500999999999,0.34819356,2.3302095,-0.05681047,-0.2527586,-0.10606366
-12.001242999999999,-0.06870401,1.4897201999999998,-0.03764675,-0.26073474,-0.09489355
-11.308629,-0.38935465,1.0361339,-0.024347342999999997,-0.27085763,-0.07679449
-11.551199,-0.22563915,1.003496,0.016091935,-0.2612758,-0.06668903
-11.621578999999999,-0.51677406,1.1241351000000002,0.07944739,-0.23891813,-0.046443213
-10.482638,-0.8321861999999999,0.3546579,0.12948598,-0.18727383,-0.021432644
-9.449358,-0.6706638,-0.025349807000000002,0.17633061,-0.11754792,0.013159783000000001
-8.536411,-0.7116142,0.037991192,0.17578956,-0.03769911,0.044558257000000004
-8.008786,-0.8743049999999999,0.08107725,0.14758503,0.06874852,0.073303826
-7.840339999999999,-1.1001356000000002,0.20980869,0.14385004,0.19278906,0.08449139
-8.046203,-1.3270773,0.115247294,0.16941911,0.27956682,0.08342674
-8.260485000000001,-1.2997833,-0.1598369,0.28014278,0.3114889,0.08182103
-8.35045,-1.258335,-0.3290495,0.42491785,0.32320008,0.07916813
-8.390872,-1.1713679,-0.5423824,0.55588734,0.41050145,0.081297435
-8.623292,-1.0739239999999999,-0.8275415,0.51860714,0.39240238,0.08342674
-8.609453,-0.9971276,-1.1191553,0.45474553,0.3274761,0.10951941
-8.615765,-0.7428825,-1.2077981000000002,0.49305552,0.39346704,0.09672615
-8.454443,-0.62831515,-1.5281328,0.5878269,0.40837213,0.039235003
-8.229647,-0.8679173000000001,-1.5116223,0.62508965,0.23802800000000002,0.007836528
-8.591258,-1.0284437,-1.1426376,0.60006166,0.07674213,0.066392325
-9.79015,-1.1298143,-1.1949843,0.6681993,-0.015865043,0.08342674
-10.83742,-1.4806030000000001,-1.1575677,0.64690626,-0.05206317,0.055745817999999996
-11.19091,-1.9670091,-1.49312,0.5654691999999999,-0.060580377000000005,0.07332128
-11.142289,-1.7835557,-1.165057,0.46804494,-0.20059069,0.101525806
-12.415668499999999,-0.3073772,-0.8324256,0.44142866,-0.22879522,0.09087929
-11.038649000000001,0.44579077,-0.22683625,0.43823472,-0.22401302,0.089273594
-9.714454,0.62079734,-0.060448802999999995,0.38180822,-0.22347195,0.11164871
-8.976514,0.6180009,1.555647,0.26469663,-0.22985986,0.12653637
-11.383701,1.1805136999999999,2.8317757,0.16887806,-0.26073474,0.12707742
-12.697543,0.72236896,1.5426991,0.097022854,-0.2719223,0.12814207
-11.787737,0.54896176,0.85744023,0.04379031,-0.26019368,0.12388347
-11.79763,0.6958795,0.6672831,-0.0041015237,-0.24422392,0.10845476
-12.577144,1.0931925,0.040921696,-0.052010812000000003,-0.21176079999999997,0.08929104
-11.925748,1.0027204,-0.71885425,-0.08396779,-0.17875662,0.05893977
-10.447425,0.9657539,-0.77537656,-0.072239175,-0.12606514,0.007836528
-9.221258,1.214885,-0.7811418000000001,-0.07916813,-0.058451075,-0.04059636
-8.230317,1.3423523000000002,-0.7405074,-0.091402896,0.05864306,-0.0916996
-7.708783599999999,1.3364433,-0.82249445,-0.05148721,0.10442304599999999,-0.12255702
-7.535338,1.1419768,-0.7144394000000001,-0.0041015237,0.11719886,-0.12042772
-7.514221000000001,0.97442096,-0.7107236,-0.017418386,0.14009757,-0.09913469999999999
-7.568224400000001,0.9172379,-0.70950735,-0.09459685,0.20343557,-0.06560693
-7.807989599999999,0.8021725000000001,-0.9649015999999999,-0.21809635,0.3477045,-0.052290063
-8.040610000000001,0.7647271999999999,-1.3391534999999999,-0.24312437,0.27157325,-0.062412973
-8.008107,0.7713350999999999,-1.5209023000000002,-0.22502529999999998,0.09590584,-0.07838274
-7.9769630000000005,0.8445786,-1.313574,-0.21970205,-0.002024582,-0.06667158
-7.9135933000000005,0.52016425,-1.3698281,-0.33894295,-0.005742133000000001,-0.036320303
-8.226871000000001,0.07264966,-1.3941629,-0.54494417,-0.019058995,-0.028344147000000004
-9.114352,0.09991483,-1.5368476999999998,-0.7190233,-0.066968285,-0.024609142999999997
-9.992842999999999,0.46423572,-1.5776258,-0.70783573,-0.15639895,-0.018221237
-10.720153,0.92696786,-1.4882454,-0.59232986,-0.24157102,-0.011309733999999998
-11.11014,1.2753146,-2.3416824,-0.515675,-0.3480361,-0.035796702
-11.9427185,1.4753741000000002,-2.0538995,-0.50555205,-0.36559412,-0.039514255
-14.417931,0.83538485,-0.10027875,-0.4938409000000001,-0.32407275,-0.051766466
-14.1276865,-0.075359896,1.7803476000000003,-0.42837359999999997,-0.26764625,-0.08316494
-12.704333,0.10631213,2.0576537,-0.33361968,-0.25699973,-0.12096877
-9.9370575,0.98259956,1.0398114,-0.21490239,-0.2506118,-0.15236725
-9.265885,1.1191169,1.075236,-0.13240068,-0.24954717,-0.17418386
-9.979281,0.49030378,0.9140296,-0.11430161400000001,-0.25221753,-0.17952457
-10.981533,0.087512866,1.4091889,-0.104178704,-0.23144811,-0.16887806
-11.490617,-0.57388055,1.7908341,-0.056269415,-0.18833847,-0.13587388
-11.138545,-0.94558513,1.3604621000000001,0.03473205,-0.14947,-0.09646435
-10.417641,-0.8762969999999999,0.43558192,0.14173819,-0.09838421,-0.046984263
-9.298955,-0.8896758,0.31153354,0.2173284,-0.016929694,-0.00066322513
-8.546438,-0.91517884,0.43962333,0.24394467,0.07302458,0.038711403
-8.002361,-1.005354,0.54346466,0.27269024,0.18481292,0.080232784
-7.867069,-1.1954919,0.31139943,0.27694884,0.287543,0.10684906
-7.971561400000001,-1.2444487,0.17529386,0.32964033,0.3477045,0.12229522
-7.9936074999999995,-1.2515737,0.03659298,0.39777797,0.36473890000000003,0.13559464
-8.074647,-1.1853884,-0.21971111,0.46752134,0.40945423,0.15796974
-8.436535000000001,-1.1901671999999999,-0.31098765,0.56918675,0.5473178000000001,0.1675516
-8.661761,-1.2644546,-0.56909215,0.5771804,0.58512163,0.1600816
-8.614041,-1.1144052,-0.79673284,0.47656214,0.46214575,0.17872171
-8.446589999999999,-0.8779825000000001,-1.0564655,0.5755746999999999,0.53347737,0.13294172
-8.360141,-0.85266143,-1.04912,0.43132323,0.404131,0.04935791
-8.300075999999999,-0.7403638000000001,-0.82643056,0.30250046,0.22526965,-0.0022514747
-8.817376,-0.70127124,-0.95771897,0.27747244,0.19172442,0.066392325
-10.125089,-0.9865069,-0.8726674000000001,0.43984044,0.06930702,0.05735152
-11.055111,-1.3854191,-1.0535253999999998,0.40842449999999997,0.034697145,0.00040142572999999997
-10.865902,-1.6796474,-1.9088203999999998,0.31314698,-0.022776546,-0.0027925267
-10.374439,-1.6665558999999996,-1.882168,0.18804178,-0.17023942,0.0062482785
-12.199415,-0.09730994,-1.0563984,0.11990411599999999,-0.20802579999999998,0.008918633
-10.952391,0.5010777,-0.64774644,0.097022854,-0.22134265,0.027017696
-9.927481,1.5173397,1.3148668,0.035273105,-0.23303635,0.06747443
-10.398361999999999,1.373678,2.094687,-0.070109874,-0.26232300000000003,0.1031315
-12.045103999999998,1.0873411,2.907777,-0.18456857,-0.29267427,0.12175417
-12.449418,0.3073868,1.6511372,-0.26441738,-0.30065042,0.13240068
-12.12509,0.20048088,1.4051281999999998,-0.28677505,-0.28094566,0.13028882
-12.153772,0.21022049,0.7832391,-0.2968805,-0.25167647,0.12123057
-12.692372,0.9564835999999999,0.40165126,-0.32562608,-0.22027801,0.0967436
-11.819561,1.1862983,-0.26342922,-0.3362726,-0.18992673,0.06428047
-10.18321,0.9291035,-0.5936471,-0.32190853,-0.10742501,0.014241886
-8.982211999999999,1.1077013999999998,-0.44219947,-0.2995334,-0.010000736,-0.03790855
-8.0924015,1.2383865,-0.26586172,-0.20586158,0.058119465,-0.101787604
-7.6285586,1.258153,-0.3412408,-0.104178704,0.07515388,-0.13320352
-7.669375,1.0770843,-0.35873762,-0.07969173,0.13583897,-0.14065608
-7.7135625,0.9173049000000001,-0.35591245,-0.11908381400000001,0.15659094,-0.14278539
-7.7820463,0.8052083000000001,-0.45278186,-0.20266764,0.21090558,-0.13585643
-8.048445,0.60964036,-0.77909243,-0.30168015,0.26413813,-0.12733923
-8.368136,0.48662627,-1.0676416000000002,-0.38578758,0.26572640000000003,-0.13266248
-8.377867,0.4177116,-1.1152861,-0.41666245,0.2747672,-0.14810865
-8.193552,0.2249592,-1.14258,-0.36182420000000004,0.24071582,-0.15502015
-8.188217999999999,-0.08395029,-1.5750399,-0.28038713,0.22526965,-0.11351621
-8.607136,-0.01934515,-1.0994078,-0.19573867,0.15873769,-0.06293657400000001
-9.305812,-0.059510275999999994,-0.9981044,-0.3602185,0.031503193,-0.023544492
-9.859907000000002,-0.020369867,-1.1218655,-0.515675,-0.11753047,0.007853981999999999
-10.493499,0.30068302,-1.3047058999999999,-0.48691195,-0.14308210000000002,0.012112585
-10.819360000000001,1.0213952,-1.5008197,-0.33946654,-0.19418533,0.0019896755
-11.573896000000001,1.0971093,-1.7118830000000003,-0.22874285,-0.32087877,-0.025132742000000003
-12.237761,0.34141317,-1.0983735000000001,-0.173381,-0.31503192,-0.035796702
-12.313179,-0.27163655,0.090347596,-0.16592845,-0.2942625,-0.04642576
-11.733475,-0.46508804,1.2231976,-0.12599532,-0.27881634,-0.06771877400000001
-11.055743,0.07981311,2.0474349999999997,-0.05253441,-0.25539404,-0.09220574
-10.65708,0.7077452,2.413748,0.053895768,-0.26551694,-0.09327039
-10.9153185,0.6033196999999999,1.7831438999999998,0.09435249999999999,-0.27403414,-0.08635889
-11.029397,0.029678523999999998,1.3296343000000002,0.09969321,-0.27296948,-0.08316494
-10.925691,-0.41060558,1.2486528000000001,0.10766936,-0.24848253,-0.07623598
-11.126152000000001,-0.40112454,1.3875643,0.13109168,-0.21334904,-0.06452482
-10.911086,-0.7552939999999999,1.0283191999999999,0.1497318,-0.16915731,-0.043231804000000006
-10.152746,-0.84557456,0.39734169999999996,0.18058921,-0.11698942,-0.012356931000000002
-9.352336,-0.7899811999999999,0.12372277,0.23277456,-0.05630432,0.01956514
-8.710096,-0.8053903,0.19716729,0.24340361,0.0155334305,0.04618141
-8.341073,-0.8314870999999999,0.40209179999999994,0.20083503,0.08101819,0.06908013
-8.390719,-0.92936206,0.30526072,0.16570155,0.19600047,0.077579886
-8.318079,-0.93662125,-0.077945635,0.16303120000000001,0.3104417,0.08609709
-8.2509365,-0.9757138000000001,-0.25956976,0.2151991,0.36102134,0.08450884
-8.14291,-0.99533665,-0.37534377,0.28387779999999996,0.40893063,0.08025024
-8.346484,-0.9608314,-0.51846915,0.38341394,0.51379,0.08025024
-8.475876,-0.997683,-0.90421337,0.5047841,0.6048264,0.08077384
-8.5042515,-0.9274180000000001,-1.1432889,0.4680624,0.42915902,0.10899581
-8.281821,-0.74271965,-1.1214728,0.51755995,0.44566983,0.110601515
-8.121247,-0.5885139,-1.1740686000000002,0.42334706,0.31311208,0.06161012
-7.9256697,-0.79333305,-1.0728035,0.44729298,0.20771164,0.010524335
-8.157256,-0.76333857,-0.7411873999999999,0.41908845,0.12573352,0.035534903
-9.293515,-0.7474602,-1.1876965,0.49467868,-0.0025481808,0.03499385
-10.51949,-1.258584,-1.514505,0.46645668,-0.046722464000000005,-0.0038397241999999997
-11.149519999999999,-1.8342650000000003,-1.9503741,0.3051708,-0.03021165,0.019041541999999998
-11.065559,-2.0522044,-1.8592125,0.1603783,-0.12070697,0.062692225
-12.5848055,-0.8281831000000001,-0.65881723,0.07147123,-0.15905185,0.08025024
-12.714725,-0.28924829999999996,-0.74195355,0.048048913,-0.1563815,0.1010022
-11.655271,0.72676474,1.0205811,0.008133234,-0.17341591,0.13348278
-10.686146,0.79747987,1.1587074,-0.06372197,-0.2149373,0.14945254
-10.690024000000001,1.6091143,2.6359682,-0.13770647,-0.24900612,0.14306463
-11.42583,0.7706552,1.4924879,-0.18935077,-0.26019368,0.13828243
-11.463888,0.4229597,1.074738,-0.22661355,-0.26551694,0.13348278
-11.388967999999998,0.5998433000000001,0.90400267,-0.2633353,-0.25007078,0.12016592
-12.007639999999999,1.2283021,0.34823185,-0.30592132,-0.20587903,0.10847221
-11.697025,1.3097143999999998,-0.36941573,-0.34904840000000004,-0.16863371,0.086638145
-10.500146,1.1781005,-0.4455322,-0.3575656,-0.11805407,0.05417502
-9.393028,1.1268453999999999,-0.46142015,-0.36341247,-0.035011306,0.020629792
-8.557806,1.0000389,-0.14172716,-0.3032684,0.06452482,-0.0352382
-8.024683999999999,0.9811247,-0.2233886,-0.18509217,0.10976376,-0.08634144
-7.790483500000001,0.89584327,-0.49408662,-0.16805775,0.19121827,-0.10976376
-7.879174000000001,0.91878927,-0.5511261,-0.18668042,0.24603906,-0.13372713
-7.98767,0.94071054,-0.58067054,-0.25429448,0.27584928,-0.13798574
-8.021533,0.74971074,-0.8467334000000001,-0.38098790000000005,0.36315066,-0.13266248
-8.081446000000001,0.6598324000000001,-1.2290586000000001,-0.45019022,0.41425390000000006,-0.14224434
-8.156978,0.542392,-1.3801712,-0.43900266,0.37646753,-0.1651256
-8.070558,0.5004648,-1.1811745,-0.40067524,0.41479495,-0.17151349999999999
-7.863525999999999,0.26956797,-1.1929063,-0.3687357,0.44992843,-0.12041026
-8.01098,-0.11704773,-0.9390059000000001,-0.29155725,0.36049774,-0.07675958
-8.862434,-0.34820312,-0.5847119000000001,-0.4161214,0.14915584,-0.050684362999999996
-9.266815,-0.39480385,-0.9525188,-0.5555906,0.021397736,-0.021938787999999997
-10.347826,0.042453982,-1.5898457000000001,-0.5044874,0.014486233000000001,-0.017139133
-10.86121,0.7702626,-2.3247697,-0.41877429999999993,-0.07333873,-0.029914944
-11.136849,1.1737909,-2.6020950000000003,-0.36341247,-0.20907299,-0.03790855
-12.339678,0.5525817,-1.4565078000000002,-0.35011303,-0.2064201,-0.045884706
-12.597437,-0.43818679999999993,-0.29789615,-0.35224235,-0.18884462,-0.04907866
-11.4059,-0.39222768,0.40946594,-0.30911526,-0.18938568,-0.058677968
-10.314364,0.4365779,1.2914516000000003,-0.21277308,-0.18299778,-0.06930702
-11.490692999999998,0.62598795,2.9323514,-0.07169812,-0.19629718,-0.07730063
-12.2195835,0.25361300000000003,1.5765243999999998,0.028902652,-0.22823670000000001,-0.06876597599999999
-11.6688795,0.09277053,0.86267877,0.064018674,-0.23781857,-0.069848076
-11.194664999999999,0.10454042,0.64016163,0.10766936,-0.20907299,-0.068783425
-11.497761,-0.04771165,0.85416496,0.18432422,-0.17393951,-0.06133087
-11.140153,-0.6536266,0.47957775,0.22532201,-0.13295919,-0.045361105
-10.007782,-0.63689595,0.06841671,0.24129176,-0.102607906,-0.027262043
-9.149221,-0.58094823,0.051513645999999996,0.2737549,-0.059498273,-0.0049043754
-8.400526,-0.78765404,0.216953,0.28759536,-0.028623400000000004,0.015306537
-7.842629,-1.0113969999999999,0.33606932,0.27216664,0.018744836,0.016371188999999998
-7.7883477,-1.1293641,0.18075265,0.25886723,0.10232865,-0.004363323
-8.10512,-1.2256589,-0.030061595,0.28014278,0.19015363,-0.027262043
-8.196664,-1.3919218999999998,-0.25047179999999997,0.28387779999999996,0.256162,-0.04907866
-8.400037,-1.3285425,-0.7117196,0.32433453,0.3578274,-0.05920157
-8.685847,-1.1473205,-1.1245181999999998,0.32485813,0.37114426,-0.06239552
-8.74056,-1.0334235,-1.6116999,0.19125319,0.30353022,-0.0368439
-8.492128,-0.9217294,-1.7098432000000001,0.2173284,0.33972833,-0.049619712
-8.289177,-0.6908325,-1.3755168,0.21574014,0.25349160000000004,-0.08740609
-8.387424000000001,-0.73661923,-1.2270473999999998,0.25513223,0.11295771,-0.107634455
-8.607825,-1.0952514,-0.93685114,0.28333676,0.09752899999999999,-0.041626103
-9.440213,-1.3866353999999999,-1.0569444,0.40791836,0.032585297,0.0073303827000000005
-10.490473,-1.57187,-1.2177483999999998,0.46380379999999993,0.032585297,0.021170842999999998
-10.993849,-1.9017624,-2.1198072,0.451028,0.0027750734999999996,0.043528512000000005
-10.953510000000001,-1.8996363,-1.9469743999999998,0.38395497,-0.06853908,0.11433652
-12.496574,-0.09178412,-1.1543021,0.28865999999999997,-0.12070697,0.17395696
-11.651153,0.35294363,-1.3212928999999998,0.2556733,-0.1680752,0.18460347
-10.676243,0.73165846,0.3155845,0.21734585,-0.19310322,0.20535544
-10.545444,0.6202898,1.3139762,0.14601424,-0.22771311,0.22399555
-11.189492999999999,0.9085612,2.4194459999999998,0.070424035,-0.23568927,0.23677136
-11.252489,0.5531755,1.5118042999999999,0.019303342,-0.26975808,0.2234545
-10.441908,0.33809957,1.2973988,-0.012077678,-0.2883982,0.20109683
-10.15357,0.3992571,1.1108426000000002,-0.0397586,-0.28785715,0.17819811
-11.1030245,1.0996281,0.7782017,-0.06318091599999999,-0.26124087,0.1521229
-11.853491,1.4057986,-0.045461102999999996,-0.10735519999999998,-0.2202431,0.122853726
-11.277762,0.9344761,-0.51217717,-0.14355333,-0.18298031,0.09730211
-10.241284,0.84539264,-0.42778638,-0.15048228,-0.14732324,0.066409774
-9.665775,1.0114353,-0.31750947,-0.13503613,-0.09993755,0.026494099
-9.238841,1.0703996,-0.52445465,-0.08288568,-0.045657814000000005,-0.022985986
-8.761246,1.1127387,-0.75373304,0.006544985,-0.025411992999999997,-0.048537605
-8.428749,1.0373980999999999,-0.70100313,0.044331364000000005,0.052813664,-0.05227261
-8.130028999999999,0.910898,-0.6194854000000001,0.03635521,0.1603434,-0.062378067999999995
-7.945502799999999,0.73214686,-0.75611764,-0.035499997,0.2822372,-0.07995354
-7.941931200000001,0.70499665,-0.9771407,-0.11215486,0.46057492,-0.10869910599999999
-8.104716999999999,0.79284465,-1.3433195,-0.15419984,0.5787512,-0.12838642
-8.07343,0.8151874,-1.5171099,-0.12705997,0.4706804,-0.14170328
-7.855088,0.6326151,-1.314685,-0.115872405,0.369556,-0.14063863
-7.8928785,0.1418325,-1.0172389000000002,-0.12013101,0.33601078,-0.14063863
-8.395843,-0.18058027,-0.6521518,-0.13344787,0.31630602,-0.10070549999999999
-9.112647,-0.18234241,-0.33034238,-0.049864057,0.17898351,-0.064507365
-9.484688,-0.0060812719999999995,-0.8367543,-0.18561576,0.0347146,-0.05014331
-9.865413,0.51022357,-1.4837538000000001,-0.32667327,-0.08077384,-0.0352382
-10.044413,0.8487062,-2.8694506,-0.30485666,-0.11431906,-0.05120796
-9.936693,0.9816323,-3.3002345999999996,-0.19572122,-0.18298031,-0.07941248
-10.965166,1.051744,-2.7701008,-0.12332497,-0.26443484,-0.09911725
-12.977857,0.5623884,-1.8656291,-0.09299114,-0.27134633,-0.11454595599999999
-12.565709,-0.021164743,0.09223423,-0.11321951,-0.2351482,-0.11402236
-12.191065,-0.62391937,1.3871717,-0.13344787,-0.22291344,-0.10711086
-11.399398,0.27422228,1.8778586,-0.09299114,-0.21385519,-0.08580039
-11.533339,0.88221544,2.314063,-0.023247786,-0.23834217,-0.055990162999999996
-11.450931,0.5190055,1.2500606,0.039008107,-0.23834217,-0.041626103
-11.290585499999999,-0.09825804,0.9195937,0.06084218,-0.21598449999999997,-0.030438542000000002
-11.168538999999999,-0.28207526,0.8191809,0.046460666,-0.18458602,-0.016074482
-11.192424,-0.5103193,0.86656696,0.049131017,-0.1590344,0.00041887903
-10.756574,-0.7214975,0.41470447,0.06084218,-0.13613568,0.020647245
-9.773332,-0.60374105,-0.14042471,0.08372344,-0.092484996,0.037140608
-8.838923,-0.5701169,-0.27522784,0.09171705,-0.01850049,0.056845374000000004
-8.225586,-0.55279243,-0.35606566,0.045396015,0.04909611,0.07014478
-8.141625999999999,-0.6137201,-0.13260046,0.06084218,0.14437364,0.06270968
-8.26488,-0.7661541000000001,-0.2901006,0.07733554,0.1795071,0.045675267
-8.163577,-1.0504512,-0.5127327,0.13004448,0.19708258,0.026494099
-8.117139,-1.1911631999999999,-0.6163058000000001,0.20083503,0.231675,0.005742133000000001
-8.297068,-1.085847,-0.86205626,0.23650956,0.24925047,-0.01712168
-8.52989,-0.99666786,-1.2037281000000002,0.13376203,0.2290221,-0.0022340214000000002
-8.421192,-1.0026054,-1.4772512,0.19870573,0.35198054,0.0036128315
-8.13724,-0.89157194,-1.4774139,0.23012166,0.33601078,-0.0155334305
-8.170950999999999,-0.7628404999999999,-1.5342332,0.3291342,0.22369885,-0.062378067999999995
-8.093149,-0.96258396,-1.763253,0.37330848,0.10817551,-0.045343652000000005
-8.616291,-0.9970222,-1.1120589,0.45635125,0.0320617,-0.0070162233999999995
-9.834222,-1.3707954,-0.93055916,0.49042007,0.0027750734999999996,-0.0155334305
-10.959601,-1.9018581,-1.1751126,0.48083820000000005,-0.00572468,-0.016074482
-11.63674,-1.9222567,-1.0391506,0.42442918,-0.05735152,0.045134213
-12.890382,-1.0886913999999999,-0.61154616,0.29771826,-0.13774139,0.11859512
-12.587755,-0.5041327,-1.6368103,0.2732313,-0.16062266,0.12978268
-10.88225,-0.019057846,-0.42350554,0.2769663,-0.16594589999999998,0.1388235
-10.727824,0.14904384,-0.008657433,0.25354397,-0.19310322,0.16170475
-11.038064,0.97469866,1.8397142,0.23650956,-0.20320868,0.18088593
-11.17124,0.87804955,1.9136758000000003,0.21947515,-0.20586158,0.18140952
-10.568878,0.6114408,1.4736791,0.17475982,-0.19788542,0.17660987
-10.072080999999999,0.30513623,1.1288373,0.10395181,-0.18830357,0.16969836
-10.789622999999999,0.69209665,0.962766,0.010803588000000001,-0.14945254,0.1579872
-11.803328500000001,1.2478962,0.09306741,-0.08340929,-0.10793116,0.13562953
-11.0460615,1.0878678999999998,-0.43532333,-0.16964601,-0.071733035,0.10421361
-9.691096,0.8652358,-0.42395565,-0.22394319,-0.041381758,0.05311037
-9.102984,0.87901676,-0.3694828,-0.23352505,-0.006789331,-0.004886922
-8.840399,0.90118706,-0.31071950000000004,-0.18401006,0.012356931000000002,-0.062378067999999995
-8.45067,0.78348815,-0.42351514,-0.13823007,0.07410668,-0.09590584
-8.148158,0.8601888000000001,-0.5421718000000001,-0.13557717,0.13798574,-0.1118756
-8.085459,0.9230891999999999,-0.68435866,-0.18668042,0.17578956,-0.13210396
-8.131322,0.90138817,-0.91537035,-0.30325097,0.23966861,-0.14648548
-8.163175,0.9289982,-1.2672318,-0.44643778,0.3647738,-0.16032594
-8.251702,0.99278927,-1.5409656999999999,-0.5598318,0.50370204,-0.17681931
-8.052543,0.9262113000000001,-1.6881708,-0.57953656,0.4818854,-0.21834070000000003
-8.0146475,0.6454671999999999,-1.5041908000000002,-0.5252394,0.44462264,-0.23963371
-8.386467,0.44663355,-0.9459491,-0.437938,0.344528,-0.21727604
-8.876953,0.17223887,-0.2652009,-0.3602185,0.25457373,-0.14700909
-9.293209,0.059615623,-0.4778156,-0.3373198,0.16674876,-0.07035422
-9.837966999999999,0.13049358,-1.0194224,-0.48265335,0.014486233000000001,-0.029373892000000002
-10.197097,0.4443351,-1.7913033999999999,-0.53907984,-0.06586873,-0.0011519173
-10.094922,0.87484133,-2.7846002999999997,-0.44059092,-0.08290314,-0.010210176
-9.962444999999999,1.2203628999999998,-3.543093,-0.27769932,-0.16648696,-0.060772362999999996
-10.550452,1.0798136999999999,-2.8668077000000003,-0.16538739,-0.25591764,-0.096446894
-11.993619,0.19504124,-1.4897776000000003,-0.10629055,-0.25483552,-0.10974629999999999
-11.939271000000002,-0.58520997,1.0818535,-0.11852531,-0.272411,-0.1049641
-11.982357,-0.72493553,2.1179492000000004,-0.088715084,-0.30754447,-0.09697049
-10.994241,0.25441745,2.2062569,-0.033894293,-0.3155206,-0.08578293
-11.430273,0.86339706,1.8307598999999999,0.03954916,-0.33150783,-0.07993608
-11.92573,0.22610842,0.79955804,0.10716321,-0.30806807,-0.07941248
-11.679835,-0.15950173,0.37756562,0.13590878,-0.28038713,-0.081541784
-11.332963000000001,-0.3173179,0.5858036999999999,0.14014994,-0.2378011,-0.07834783
-11.489151,-0.6378824000000001,0.61373925,0.13749704,-0.18671532,-0.064507365
-10.554186999999999,-0.80952746,0.23580971,0.13484414,-0.14678219,-0.0400204
-9.559626,-0.36036566,-0.13031161,0.13962634,-0.12761848,-0.018727383
-8.719778,-0.39192122,-0.31613040000000003,0.16358972,-0.10206685,0.003630285
-8.317839999999999,-0.67592144,-1.9153613e-05,0.17954202,-0.06000442,0.019058995
-8.135775,-0.85694224,0.26083392,0.16250761,0.0006457718,0.015865043
-8.307516,-1.2333682,0.03143108,0.12897983,0.11032226,0.0041538836
-8.465064,-1.2793465,-0.54812855,0.12365658,0.20985839,0.012671091
-8.449683,-1.2324106000000001,-0.8961496999999999,0.16943656,0.29077184,0.030229102999999997
-8.47285,-0.9272743,-1.1134857,0.22586305,0.36475635,0.054192472
-8.730131,-0.65528345,-1.4538455,0.33232814,0.45046946,0.08454375
-8.742772,-0.5303730999999999,-1.6286508999999998,0.5271593000000001,0.5516113,0.09623746
-8.612911,-0.49169242,-1.3816746000000002,0.5260946,0.44621086,0.0951728
-8.500335,-0.59763104,-1.1881753000000002,0.6197838999999999,0.4675039000000001,0.10210176
-8.416261,-0.7756255999999999,-1.2295088,0.5606869999999999,0.31419417,0.10529571
-8.361222,-1.1524155,-1.0820258999999999,0.46914449999999996,0.10021680599999999,0.08932595
-8.865776,-1.0852723999999998,-0.94745266,0.29506537,-0.08503244,0.13297664
-9.834548,-0.8278575,-1.6004473,0.42814672,-0.11749557,0.1446878
-10.371356,-1.1182742,-2.0835204,0.48244390000000004,-0.16701056,0.061103977000000004
-10.287127499999999,-1.6745621,-2.3322303,0.35842082,-0.16753416,0.030246556
-10.170914,-1.9158688999999998,-2.455589,0.22799236,-0.28304005,0.06005678
-10.615191000000001,-1.4861575,-1.092254,0.1497318,-0.31764993,0.07974409
-11.594505999999999,-0.99127614,-1.3518046000000001,0.17208946,-0.29051006,0.10103711
-10.647072,0.34793496,1.0377429,0.17369516,-0.30487412,0.13990559
-11.226556,1.4617463,1.4201063,0.14442599,-0.30754447,0.16439256
-12.521119,2.0649990000000003,2.7254633999999998,0.0879995,-0.31393236,0.18088593
-12.523159,0.33918175,0.86785024,-0.0014137167000000002,-0.29796259999999997,0.19472638
-11.364529,0.06946058,0.85018104,-0.07063347,-0.27028167,0.20004964
-11.191687,0.26221300000000003,0.76598173,-0.116937056,-0.23300146,0.18196803
-12.253582000000002,0.5251442,0.21307437,-0.16324064,-0.17446311,0.15374605
-12.182235,0.934658,-0.56031984,-0.17868681,-0.15475835,0.11913618
-10.506878,0.8674959000000001,-0.7481689,-0.15791739999999999,-0.124424525,0.081873395
-9.323002,0.868626,-0.5365981,-0.13664183,-0.06054547,0.036617007
-8.376764999999999,0.62593055,-0.13713029,-0.113743104,0.020891592,-0.009128072
-7.815057799999999,0.5540374,-0.1407216,-0.014189526000000001,0.07145378,-0.06290167
-7.775582000000001,0.7828082,-0.42197326,0.0858702,0.13374458,-0.09962339999999999
-8.007666,0.8455267,-0.7329705,0.13962634,0.20559978,-0.11452851
-8.118345,0.8896949000000001,-0.89130384,0.13377948,0.2258456,-0.101229094
-8.036378,0.72609437,-1.0427802,0.017191493999999998,0.28173104,-0.078330375
-8.212054,0.5613541,-1.2209183000000001,-0.17601645,0.3647738,-0.08580039
-8.480808,0.41955990000000004,-1.2366244,-0.35967746,0.43769366,-0.1118756
-8.365934,0.3623672,-1.3666486999999998,-0.45656067,0.39884263,-0.13369222
-8.086513,0.3144832,-1.3670892,-0.4954117,0.32590532,-0.16830209999999998
-8.204881,0.09975202400000001,-1.3546201,-0.43579125,0.3046123,-0.17469001
-8.596343,-0.36087322,-0.8343314000000001,-0.28302258,0.21094050000000003,-0.12571606
-8.886884,-0.6004658,-1.131222,-0.18453366,0.11564551,-0.07194247
-9.456522,-0.29394093,-1.3813586000000002,-0.39906952,0.051242866,-0.036285397000000004
-10.261500999999999,0.47018290000000007,-1.6169481,-0.5076639000000001,0.0027925267,-0.008063421
-10.623437,1.1360487,-2.3060758,-0.47837728,-0.040317107000000005,-0.009669124
-10.613889,1.2604322000000001,-3.151775,-0.38309976,-0.12814207,-0.043196898
-11.052363,1.315499,-2.8055830000000004,-0.27131143,-0.21170844,-0.07513642
-12.25384,1.0313742000000001,-1.6035213,-0.19198622,-0.23195426,-0.08897688
-12.012054,-0.09373779,0.82494617,-0.13236576,-0.23195426,-0.09855874
-12.3072405,-0.9854917,2.3468156000000002,-0.06476917,-0.24418901,-0.10175269999999999
-12.159136,-0.13824122,2.872065,0.059777527999999996,-0.27080529999999997,-0.10707595
-11.496938,0.8172751,2.1645882000000003,0.17050122,-0.3203028,-0.09430013599999999
-10.882776,0.42978793,0.88893837,0.24343853,-0.32243213,-0.08258898
-11.123011,0.24233152,0.5798565,0.25302038,-0.31072098,-0.08204792400000001
-11.175569,-0.10232818,0.50519574,0.22692771,-0.28625146,-0.07728318
-11.107631,-0.5069577999999999,0.71279216,0.21256365,-0.25164157,-0.061837014
-10.482035,-0.8496543,0.51819146,0.20404644,-0.22769566,-0.03947935
-9.548010000000001,-0.70120424,0.22640529999999998,0.18701203,-0.19627973,-0.021380282999999996
-8.749706,-0.8328949000000001,0.17813818,0.17795376,-0.16327555,-0.003281219
-8.360677,-1.0655347,0.23061907,0.17156586,-0.11430161400000001,0.011082841000000001
-8.321297,-1.1362499,0.35439932,0.14388494,-0.04829326,0.016929694
-8.588098,-1.1331756000000002,0.15992309,0.11407472,0.07677703,0.014800391999999999
-8.620889,-1.1842488000000002,-0.19303969,0.12152728,0.13854423,0.012688544
-8.528262,-1.1993802,-0.389709,0.13910274,0.1614255,0.017470745
-8.573167,-0.92520577,-0.7169101999999999,0.18275343,0.21200514,0.023317598
-8.637551,-0.5788318,-1.087456,0.29187140000000006,0.28918362,0.03663446
-8.70165,-0.57776874,-1.2811181999999999,0.44359288,0.37754962,0.04621632
-8.589945,-0.65509194,-1.3159298000000001,0.40420079999999997,0.27960175,0.07337364
-8.477791999999999,-0.56840265,-1.2808118,0.5127952,0.3908665,0.08880235
-8.362267,-0.5836298000000001,-1.2247204,0.46169195,0.31579986,0.07176794
-8.210513,-0.84966385,-1.0925891,0.39355429999999997,0.19230038,0.03663446
-8.505219,-0.90517104,-1.1163971000000001,0.34084535,0.08157669,0.039304815
-9.713208999999999,-0.81840515,-1.1110628999999999,0.45317474,0.01823869,0.088278756
-10.495328,-1.0248427,-1.2609111000000002,0.6096784000000001,-0.05094616,0.06485643
-10.659331,-1.6137302,-1.4347781000000002,0.5692216999999999,-0.082362086,0.025987952999999998
-10.635859,-1.9002491000000001,-1.6609343,0.46382123,-0.07916813,0.041416664
-11.661897999999999,-1.1237712,-0.87953395,0.37172022,-0.18615682,0.094125606
-11.882644,-0.7863708,-1.6575058999999996,0.35522687,-0.20212658,0.11541862
-10.504684,-0.08386410000000001,0.025512612999999996,0.37864918,-0.19148007,0.1436406
-10.744803,0.6967797,0.5870390999999999,0.35522687,-0.20160298,0.17983873
-10.545922000000001,1.1467843,1.94187,0.30145326,-0.22022565,0.19687314
-11.157995,0.8644791999999999,2.0198921999999997,0.23598596,-0.22448425,0.20271999
-11.164756,0.49405790000000005,1.53453,0.16413076,-0.19467403,0.20271999
-10.9955435,0.22954647,1.3225954,0.0879995,-0.17392206,0.18622664
-11.448335,0.25990498,0.7934959,0.019861847,-0.14304718,0.1649336
-12.435397,0.62728083,0.39705440000000003,-0.04612905,-0.11323696400000001,0.12767084
-11.869715,0.8516654,-0.29219794,-0.115872405,-0.07543313,0.08454375
-10.39729,0.7898184,-0.5999199000000001,-0.16004670000000001,-0.027523842000000003,0.03398156
-9.376585,0.91108954,-0.49224785,-0.19252726,0.045378562000000004,-0.028291788
-8.512536,0.81820405,-0.29137436,-0.19730946,0.11990411599999999,-0.09536479
-8.0035095,0.7870028,-0.29305990000000004,-0.17442821,0.16622515,-0.14646803
-7.7189255,0.8701390999999999,-0.5718886,-0.17388715,0.19977039,-0.15179129
-7.5834804,1.0319488,-0.7324533000000001,-0.20954423,0.23755677,-0.13528048
-7.5926743000000005,1.0655633,-0.9275040999999999,-0.3298672,0.2865307,-0.12676327
-7.848021000000001,0.9604867,-1.1552118999999998,-0.4890238,0.40044835,-0.13208652
-7.992008,0.7832391,-1.459266,-0.5459739,0.34508649999999996,-0.15870279
-7.961276,0.7846469,-1.6303268999999998,-0.6231698,0.34028685,-0.1730843
-7.814722,0.75463325,-1.6075628,-0.63966316,0.38128462,-0.15603243
-7.7923990000000005,0.59063995,-1.5192838,-0.5614201,0.31899384,-0.10920525
-8.285642999999999,0.26919445,-1.325497,-0.46666613,0.18058921,-0.08098327
-9.261376,0.03892014,-1.0481335999999999,-0.6045297,0.020891592,-0.079395026
-10.180672,0.24263798,-1.1509598,-0.6795963,-0.040299654,-0.07566002
-10.86778,0.6560975,-1.632855,-0.61093503,-0.022200587999999997,-0.08045968
-11.046138000000001,1.1690791,-2.6062226,-0.49328240000000007,-0.079150684,-0.08843583599999999
-11.845877999999999,1.3698665,-2.3282654,-0.3825587,-0.18987437,-0.1044056
-13.225609,0.6191789000000001,-1.2541882,-0.3005806,-0.20052087,-0.09962339999999999
-11.935908999999999,0.09581595,-0.43803358,-0.22605504,-0.19999728,-0.08789478
-11.395816,0.19184259,0.8774175,-0.13182472,-0.22183135,-0.083112575
-11.024275,0.32039207,1.8657056,-0.015254176999999999,-0.23938936,-0.083112575
-11.519998,0.374434,2.33337,0.10503391,-0.24844761,-0.087371185
-11.323922999999999,-0.18054196,1.3997078,0.18381807,-0.26387632,-0.08470083
-10.762128,-0.53587985,1.0685129999999998,0.22214551,-0.27132890000000004,-0.07991862
-10.626655,-0.3728634,0.81797427,0.24237387,-0.25590017,-0.07513642
-11.084743,-0.54113746,0.9933639000000001,0.25675538,-0.22607249,-0.06768387
-10.895332000000002,-1.0992641,0.7556771,0.26686084,-0.18296286,-0.048502699999999996
-10.10018,-1.1325915000000002,0.40278134,0.28867745,-0.13878858,-0.017645279
-9.220033,-1.0169131999999999,0.40033928,0.3238284,-0.089273594,0.017488198
-8.782344,-1.0419565,0.48690403,0.34405676,-0.030176742000000003,0.052604225
-8.565017999999998,-1.2763107,0.42029732,0.34458035,0.027820547999999997,0.07496189
-8.456186,-1.4008952,0.28370333,0.36109117,0.13322099,0.088278756
-8.484715,-1.3896233999999998,0.034869153,0.39248964,0.18858282,0.10266027
-8.417602,-1.2701432,-0.18053238,0.41538835,0.217852,0.11063642
-8.267475,-1.1343058000000001,-0.41876504,0.42549380000000003,0.26417303,0.12873548
-8.337989,-1.0400795,-0.70590645,0.42549380000000003,0.35040975,0.1436406
-8.502566,-0.9685599,-1.1171058,0.44678682,0.36957347,0.1436406
-8.449895,-0.90997857,-1.357723,0.35575047,0.31367058,0.15481070000000002
-8.294961,-0.72345114,-1.1829176000000001,0.41271800000000003,0.40098938,0.12927654
-8.318807000000001,-0.6495085999999999,-1.3673382,0.29721212,0.29398325,0.08454375
-8.202036999999999,-0.9991003,-0.9777153000000001,0.19926424,0.13002703,0.014276793000000001
-8.594743,-0.94541276,-0.8547779000000001,0.16200146,0.08531169599999999,0.014294246000000002
-9.745349000000001,-0.84876364,-0.9560526,0.3259577,0.042184606,0.030246556
-10.565669999999999,-1.0467163000000002,-1.4345194,0.39461893,-0.019006636,-0.006998770400000001
-10.589573,-1.2442379,-1.9306459999999999,0.30625293,-0.041364305,-0.042114794000000004
-10.691489,-1.3152211999999999,-2.054388,0.19500564,-0.07543313,-0.015515977
-12.145603,-0.505234,-1.4770021,0.07363544400000001,-0.18668042,0.026005406000000002
-11.464108,-0.34686238,-1.6737959999999998,0.030508353999999998,-0.21596704,0.038781215
-10.896443,0.6628874,0.06424121599999999,0.025726152999999998,-0.21703169,0.060597833
-11.03863,0.9067225,0.6869921999999999,-0.009930924,-0.22661355,0.09466666
-11.168453,1.0464003000000002,1.7272154,-0.053040557,-0.25322983,0.118088976
-10.929148,0.3009416,1.5923357,-0.098820545,-0.26759390000000005,0.12606514
-10.698184,0.24756046,1.431972,-0.14727089,-0.26548204,0.13671164
-10.874388,0.09041463599999999,1.0581413999999998,-0.19943877,-0.2553591,0.13725269
-11.35406,0.5451981,0.7092295,-0.26438248,-0.21703169,0.13140585
-12.065924,1.1862121,0.0028155812,-0.32026792,-0.18242182,0.11437143
-11.299731,1.2296141,-0.75989085,-0.36020106,-0.14943509,0.08028515
-10.230443,0.9215953000000001,-0.81969804,-0.36658895,-0.10204939999999998,0.03291691
-9.264287,0.91305274,-0.49777368,-0.34636059999999996,-0.06691592,-0.023492131
-8.647885,0.92874914,-0.37281552,-0.26277676,-0.021135937,-0.08789478
-8.310877,0.9331927999999999,-0.55366397,-0.18985692,0.027820547999999997,-0.14166838
-8.121630999999999,0.9044241,-0.5905155,-0.18240435,0.08850565,-0.17732546
-8.160857,0.87763774,-0.5424208,-0.21221459,0.13269739,-0.19223057
-8.053175,0.740699,-0.6365225,-0.31494465,0.2125462,-0.18425441
-7.9920177,0.7144489,-0.90002835,-0.430468,0.35999159999999997,-0.1757372
-7.985543700000001,0.56598926,-1.1912686000000001,-0.49167669999999997,0.4180238,-0.16615534
-7.9326797000000004,0.43738234,-1.3874878000000002,-0.48422414,0.29239499999999996,-0.16561429
-7.8394113,0.35526124,-1.3191669,-0.5092522,0.2865307,-0.1714786
-7.857521,0.13415192,-0.8576126000000001,-0.52202797,0.31688198,-0.14857988
-8.371997,-0.089150496,-0.4010192,-0.39159954,0.18167132,-0.09801769
-8.946902,-0.22535184,-0.77221626,-0.38201767,0.034208454,-0.07566002
-9.637447,-0.18379807,-1.2385110000000001,-0.5060582,-0.080215335,-0.057019908
-10.265341000000001,0.430918,-1.5288414,-0.5145754,-0.12440707,-0.037332594
-10.495395,0.80026674,-2.6323576,-0.41769218,-0.17390461,-0.039985493
-10.630054,0.95759445,-3.1349485,-0.28832838,-0.27026424,-0.056496307
-12.353123,0.72204334,-1.8211256000000002,-0.18399261,-0.32934362,-0.06553711
-13.5793085,-0.1989773,-0.6123123,-0.13662437,-0.29260445,-0.077248275
-12.676733,-0.65951633,0.41568130000000003,-0.09775589400000001,-0.27930504,-0.08735373
-11.458477,-0.15037501,1.4109126,-0.047193702000000004,-0.26387632,-0.08470083
-11.928047,0.15245318,3.0238576,0.030508353999999998,-0.24843016,-0.07246607
-11.482525,-0.018464083,1.8025561999999997,0.11568042,-0.2803697,-0.058608155999999995
-10.80555,-0.54294753,1.233531,0.16039576,-0.27291712,-0.053825952
-10.546104,-0.56881446,0.9912186,0.17530087,-0.24897122,-0.045308746
-10.708019,-0.5461844,1.1742506000000001,0.19607028,-0.22074924,-0.031991884
-10.792812,-0.95407975,1.0246896,0.22108085,-0.17976889999999998,-0.0085870195
-10.050533,-1.2318552,0.67315376,0.25089110000000003,-0.13503613,0.01855285
-9.206452,-1.2375821000000002,0.097635545,0.28389525,-0.08447394,0.051015973
-8.510727000000001,-1.2069937,0.1382891,0.30518827,-0.02591814,0.078173295
-8.171783,-1.1757925,0.14731044,0.29773572,0.054436818,0.10266027
-8.229399,-1.0914591999999999,0.12191275,0.26153758,0.18486528,0.11383037
-8.369143,-1.2229774,-0.08502289,0.21256365,0.30410618,0.10850712
-8.2860155,-1.386195,-0.37020105,0.20991075,0.35466835,0.089343406
-8.253272,-1.3701155,-0.60435396,0.2759191,0.3818257,0.06752679
-8.388708,-1.2261376,-0.7028131,0.4148473,0.46699774,0.06272713
-8.541955999999999,-1.0939202,-0.9387665000000001,0.53037065,0.49787262,0.061138883
-8.5041275,-1.0606122,-1.2014486999999998,0.46116835,0.37597883,0.07124434
-8.304145,-0.99246365,-1.2479346000000002,0.41378266,0.3770435,0.07550294
-8.176228,-0.8600546999999998,-1.1750358,0.34883896,0.32485813,0.040369466
-8.040217,-0.8868219,-1.0342281999999998,0.34938002,0.19764109,0.0015184365
-8.064983,-0.87383574,-1.1341430000000001,0.41964698,0.058695424,0.027070057
-9.031044,-0.9133209000000001,-1.4091791999999999,0.5745449,-0.039217547,0.00842994
-10.19157,-1.1751508,-1.5645438,0.5308943,-0.031241393,-0.025621433
-10.812722,-1.8317558999999997,-1.5569110000000002,0.40474185,-0.034435347000000005,-6.981316999999999e-05
-11.01102,-2.1599722000000003,-1.4061721999999999,0.2674019,-0.13025393,0.04888667
-12.490225,-1.1227368999999998,-0.6264476999999999,0.23598596,-0.15632914,0.07017968599999999
-12.369778,-0.055737015,-0.25895685,0.23439772,-0.11908381400000001,0.102119215
-11.278922,1.0434889,0.70986164,0.18488273,-0.13185963,0.14205235
-10.388757,1.1636298999999999,1.2906758,0.09332275400000001,-0.14196508,0.1601514
-11.453123,1.1069351,2.3030305,0.02412045,-0.15793484,0.16973327
-11.998675,0.27175146,1.6871939999999999,-0.020036379,-0.16645205,0.17453292
-11.629806,0.016903065,1.6734703999999998,-0.06529277,-0.15154694,0.17079791
-11.722682,0.28479508,0.96032387,-0.12011356,-0.12440707,0.16441001
-12.445194,0.7284215,0.21012473,-0.19144517,-0.108960904,0.14631096
-11.687553,0.9629191999999999,-0.51145893,-0.25319493,-0.096185096,0.12182398
-10.204728999999999,0.882474,-0.6574286,-0.28513443,-0.05305801,0.079237945
-9.162065,0.8720832000000001,-0.50690037,-0.31281537,0.01665044,0.030787607999999998
-8.393573,0.88663036,-0.41979933,-0.28300515,0.08213519,-0.038920842000000004
-7.906267,0.86225736,-0.48627195,-0.21699679,0.12098622,-0.10279989
-7.8167715,0.97445923,-0.50419015,-0.21380283,0.16889551,-0.13952161
-7.799954400000001,0.95780516,-0.57588214,-0.24467771,0.19444713,-0.15442674
-7.7406745,0.87103933,-0.6641899,-0.33730233,0.21999875,-0.15283848
-7.9086614,0.74770916,-0.9651793,-0.46506044,0.31742302,-0.14751522
-8.1354685,0.70540845,-1.323122,-0.50977576,0.36957347,-0.15763813
-8.21691,0.6657988,-1.5031755,-0.46399578,0.29080677,-0.1629614
-8.06596,0.5627619,-1.5565662,-0.47942448,0.31262338,-0.13419837
-7.9492188,0.2585642,-1.7036563999999998,-0.47677159999999996,0.34510395,-0.058608155999999995
-8.296005000000001,-0.10235691,-1.1365466999999998,-0.41715115,0.21361084,-0.012304571
-9.057983,-0.26993188,-1.0237319999999999,-0.5587496999999999,0.015044739,-0.00059341197
-9.736155499999999,-0.054712295999999994,-1.1917666,-0.6402042,-0.044540804,0.012688544
-10.60797,0.37386897,-1.4875846000000001,-0.57578415,-0.034976397,0.0068416907
-10.85011,0.7480444,-2.3027816000000003,-0.4730366,-0.14887658,-0.025080381000000002
-10.868718,0.9440912,-2.5723207,-0.40170497,-0.23246041,-0.05222025
-12.463994,0.4054724,-1.0020691,-0.34794885,-0.21490239,-0.06873106
-12.657876,-0.27691337,0.16807295,-0.3074921,-0.21809635,-0.07459537
-11.299904,-0.34818396,0.86966026,-0.26223573,-0.24575981,-0.06873106
-10.272083,0.27498844,1.8869470000000002,-0.22073179999999998,-0.25642377,-0.055955257
-11.735391,0.66746515,2.5117474,-0.15631169,-0.27878144,-0.041591197
-12.082215,0.31935778,1.1335203999999999,-0.09349729,-0.27876398,-0.036250487000000005
-11.286372,-0.024210166,0.48584098,-0.042394046,-0.27291712,-0.047438048
-11.328357,-0.0222565,0.5428038000000001,0.010821042,-0.25055948,-0.050631999999999996
-11.8437805,-0.3877649,0.6124559,0.065659285,-0.21594960000000002,-0.044244096
-11.052133,-0.93739694,0.2705927,0.10077531,-0.18135716,-0.026686084
-9.865872999999999,-0.7735378,-0.05890694,0.14177309,-0.13664183,-0.0048520155
-8.9861765,-0.72375757,-0.024238897000000002,0.17584193,-0.06263987,0.021746803
-8.369247999999999,-0.76669043,0.12397176,0.15826645,0.024644048999999998,0.04569272
-7.970565299999999,-0.91711336,0.20164925,0.15135495,0.14175564,0.05368633
-8.016448,-1.1071746,0.10187807,0.19181168,0.22692771,0.055274576
-8.134798,-1.2039195,-0.09918699,0.27646014,0.24448572,0.062203534000000005
-8.164869,-1.2727959,-0.29073268,0.37386698,0.24342106,0.07072074
-8.198274000000001,-1.3024075000000002,-0.5673683,0.45958009999999994,0.29665359999999996,0.08297295
-8.399951,-1.1313465,-0.9495787,0.56709236,0.38873717,0.09094911
-8.55387,-0.9073833,-1.265441,0.5058837,0.2641905,0.122365035
-8.391475999999999,-0.7645165,-1.4531943,0.58466786,0.32326987,0.14152876
-8.184387,-0.56972426,-1.5353729,0.5250474,0.2774899,0.106395274
-7.975325,-0.7327311,-1.7047386000000002,0.4856553,0.13323843,0.03932227
-8.1279125,-1.0382790000000002,-1.384155,0.41325906,-0.032306045,0.052621678
-9.228336,-1.0798615,-1.0448296000000001,0.47075020000000006,-0.08447394,0.06965609
-10.468293,-1.1726034,-1.0632937,0.47872636,-0.12973033,0.028134707000000002
-10.927663,-1.6484366999999998,-1.5103773,0.36002649999999997,-0.13503613,0.009512044499999999
-10.962226,-2.057711,-1.9014846,0.25994933,-0.20797344,0.025481807000000002
-12.107161999999999,-1.186097,-0.85256565,0.17371263,-0.28782225,0.045710173
-12.393278,-0.18567513,-1.3767331,0.15667820000000002,-0.282499,0.057403877
-10.978247999999999,0.28947815,0.25152525,0.13432054,-0.25534168,0.0861669
-10.754553,0.7291972,0.78278905,0.05766568,-0.25001842,0.12075933
-11.623963999999999,1.7883251,2.087313,-0.041329395,-0.26172957,0.146852
-11.818823,1.3239169,1.5172153,-0.13501868,-0.27131143,0.16334537
-11.108157,0.62674457,1.3168205,-0.19996238,-0.26279423,0.17346828
-11.074735,0.65590596,1.0779079,-0.23935445,-0.25534168,0.17081538
-11.56184,1.0879827,0.5682302,-0.27555257,-0.21968459,0.1580221
-11.775747,1.1968518,-0.16318879,-0.29843384,-0.20050342,0.12981759
-10.825661,1.165641,-0.3369312,-0.31120965,-0.16964601,0.08775515
-9.502213000000001,1.1642141000000001,-0.45021528,-0.32133257,-0.10042624,0.033475414
-8.6501255,1.3046867,-0.25463772,-0.34049627,0.004939282,-0.02453933
-8.166229,1.3874495,-0.2918436,-0.27181756,0.086393796,-0.09480628
-8.123603,1.2841252,-0.40290585,-0.15844099,0.1513375,-0.15070918
-8.153224,1.0464673,-0.5001487,-0.080721475,0.23916246,-0.18371336
-8.1722145,0.95352435,-0.57260686,-0.04930555,0.2184105,-0.19329521
-8.0786495,0.95721143,-0.7548630000000001,-0.14512412,0.20828760000000002,-0.17359045
-8.10421,0.88409245,-0.94950205,-0.32665583,0.2796192,-0.15177383
-8.388794,0.7536468000000001,-1.0961996,-0.4954117,0.42282346,-0.13739231
-8.2505045,0.7150236,-1.200309,-0.50391144,0.36266196,-0.13526301
-7.939297,0.69680846,-1.2351590000000001,-0.39318776,0.25354397,-0.14751522
-7.959696000000001,0.41975144,-1.4855733999999998,-0.25904176,0.19444713,-0.15709709
-8.242633,0.04199429599999999,-0.8152065,-0.22390829,0.23650956,-0.110776044
-8.587705,-0.4755938,-0.78905225,-0.1781283,0.14227924,-0.059672805999999995
-9.191072,-0.31864908,-1.1490061000000003,-0.34208453,-0.022724187000000003,-0.030403635
-9.96482,0.31119832,-1.2641481,-0.39638174,-0.13451253,-0.005375614
-10.536087,1.1035928999999998,-1.9361814,-0.23776620000000004,-0.08660324,-0.02295108
-10.762933,1.5660378000000001,-2.6704925999999998,-0.06527531,-0.13344787,-0.066060714
-11.578676,1.3132675,-2.4138627,0.05873033,-0.23139575,-0.08309512599999999
-13.447389000000001,0.458164,-1.039639,0.13379695,-0.24363051,-0.07936012
-13.597342000000001,-0.63147545,1.1772577,0.18435913,-0.21008529,-0.08735373
-12.178394,-0.6660573000000001,1.5779705,0.25356144,-0.20690878,-0.10173524
-10.312708,0.2973024,2.0376284,0.35683256,-0.22818434,-0.12620476
-10.669080000000001,0.8666052,2.9762511000000003,0.46064475,-0.2894105,-0.12568116
-11.459147,0.441395,1.5434843,0.4893903,-0.30750957,-0.11503465
-11.247489999999999,-0.40009028,1.233646,0.4808731,-0.29421017,-0.105993845
-11.058961,-0.9105628000000001,1.1949843,0.47075020000000006,-0.2718525,-0.09267698
-11.121966,-1.207099,1.1583244,0.45958009999999994,-0.23352505,-0.06766641
-10.637016000000001,-1.1385962,0.76805985,0.44680429,-0.18294542,-0.035185836
-9.728158,-0.85419375,0.32643503,0.41112974,-0.14035937,0.0036477381
-8.778791,-0.8528434000000001,0.16805379999999998,0.3845135,-0.09616764,0.04145157
-8.360849,-1.1349378,0.29233202,0.36960837,-0.033353243,0.0728675
-8.322954,-1.1771428999999998,0.44340616,0.33341023,0.018256145,0.07871435
-8.451618,-1.0126610999999999,0.19574036,0.2541025,0.07681194,0.067544244
-8.396207,-0.8981321,-0.18537825,0.17264797,0.17954202,0.062203534000000005
-8.235527000000001,-0.88412124,-0.49824294,0.14922565,0.23703316,0.078173295
-8.32462,-0.72335535,-0.66726404,0.16838937,0.30997047,0.09894271
-8.534036,-0.52790236,-0.96850246,0.24397957,0.4201531,0.11384783
-8.632045,-0.34133655,-1.1901578000000002,0.31798154,0.42921138,0.123429686
-8.561397999999999,-0.23308991,-1.2615911,0.29614747,0.33871606,0.1473756
-8.541707,-0.18237112,-1.1214153999999998,0.41964698,0.43985787,0.123429686
-8.484342,-0.35268506,-1.1224114,0.32915163,0.36372662,0.049427725
-8.57285,-0.5994219,-1.0812024,0.20565215,0.18008307,0.005253441
-8.672335,-0.7342920999999999,-0.83502096,0.28391272,0.140691,0.022811454
-9.382417,-0.3292123,-1.122306,0.398895,0.037943456,-0.0016580628
-10.205744000000001,-0.28382779999999996,-1.6090951,0.34885642,0.006544985,-0.031450834
-10.439007,-0.90812075,-1.8949914,0.23652703,-0.00408407,-0.012287118
-10.82545,-1.3716382,-1.655648,0.13273229,-0.09564404,0.03080506
-12.847899,-0.5416834,-0.38672104,0.10292207,-0.10735519999999998,0.052098077
-12.1235,-0.23012109,-0.62598795,0.119415425,-0.09032079,0.064332835
-11.115253,0.39596266,0.8455267,0.08428195,-0.11267845,0.09307841
-11.177628,0.921308,1.6741886000000001,0.004974188300000001,-0.12864822,0.12288863
-11.615862,0.7396550999999999,1.9667505,-0.070598565,-0.1643053,0.1511106
-11.230080000000001,0.45760855,1.5426033000000001,-0.14034192,-0.17762215,0.17879152
-10.994261,-0.010342951999999999,1.7009845000000001,-0.18771017,-0.17868681,0.18889698
-11.348975,0.08315541,0.9304634,-0.21380283,-0.16058774,0.17825048
-11.794364,0.73356426,0.5494023,-0.26862362,-0.14620623,0.15803957
-11.540904,0.99472374,-0.08536765,-0.33463198,-0.14088298,0.1335526
-10.068719999999999,0.8240938,-0.23928609999999997,-0.39638174,-0.11426671,0.09894271
-9.123,0.8873582,-0.35559640000000003,-0.44535565,-0.07274532,0.046251226
-8.504357,1.1198639,-0.28345433,-0.43737950000000003,-0.023247786,-0.0085695665
-8.164659,1.2449274,-0.25887066,-0.36657152,0.041154865,-0.067125365
-8.182376,1.2708901000000001,-0.2477041,-0.2909813,0.16144295,-0.107058495
-8.186781,1.0332417,-0.341643,-0.21539108,0.22799236,-0.12568116
-8.057714,0.83003145,-0.43205765,-0.16322319,0.2684491,-0.10971139
-7.963305999999999,0.72506964,-0.7085113000000001,-0.23455479999999998,0.3568151,-0.06925467
-8.124015,0.77984893,-1.0905876,-0.40383428,0.45956263,-0.06445501
-8.27935,0.80432725,-1.3596193,-0.5102994000000001,0.51651275,-0.09213593
-8.209889,0.75234437,-1.56712,-0.45973718,0.3328692,-0.12461651
-8.152103,0.7086358,-1.5094005,-0.43099160000000003,0.34883896,-0.12568116
-8.305457,0.50670886,-0.96691275,-0.27927014,0.15453145,-0.10864674
-8.626424,-0.05443457,-0.52318096,-0.19889772,0.1513375,-0.05009095
-9.03565,-0.56620955,-1.116627,-0.21964969,0.075206235,-0.0021816615
-9.765384,-0.5280173,-1.4510683000000002,-0.35805428,-0.022706734,0.023893557000000003
-10.427151,0.37998852,-1.9060911,-0.39692277,-0.045605455,0.026022859
-10.378844,1.2988065,-2.8357308,-0.37882373,-0.055710907999999996,0.015899949
-10.185049000000001,1.6856425,-3.2940001000000003,-0.32452652,-0.15791739999999999,-0.020280726000000002
-11.748654,1.3332448000000001,-1.8285476000000003,-0.2388134,-0.23670155,-0.05222025
-12.13389,0.13215037,-0.48886725,-0.19409807,-0.25747097,-0.07564257
-11.76029,-1.0528933,1.774975,-0.14779449,-0.24363051,-0.08948303
-11.738138000000001,-1.1926379999999999,2.5589612,-0.09562659,-0.24521875,-0.100653134
-10.941195500000001,-0.32391635,2.7650349999999997,0.000715585,-0.28195795,-0.1155757
-11.7334175,0.34418085,2.19533,0.08854055400000001,-0.31442106,-0.12409291
-11.544122,0.17397228,1.1314998,0.1476374,-0.31602678,-0.120881505
-11.343564,-0.05707777,0.6773866999999999,0.16200146,-0.31070352,-0.12035791
-11.49441,-0.10807426,0.5731527,0.15241960000000002,-0.28248155,-0.111840695
-11.578636999999999,-0.63211715,0.626869,0.1609368,-0.23457225,-0.100653134
-10.992345,-0.73786426,0.41406279999999995,0.18116517,-0.18188076,-0.08576548
-9.708957,-0.6495278,0.30439879999999997,0.21949259999999998,-0.11746066,-0.066060714
-8.874951,-0.6829891,0.33907643,0.24771458,-0.05199336,-0.04103269
-8.570859,-0.8685877000000001,0.3563913,0.23493877,0.031031952999999998,-0.017086774
-8.456952000000001,-1.0574231,0.23115538,0.19500564,0.12313298,0.0020594885999999997
-8.376478,-1.1527985,0.034198776,0.19022344,0.2120226,0.016441
-8.317294,-1.0493594,-0.10348698,0.19394098,0.28921852,0.026546458
-8.281907,-0.88776046,-0.29149884,0.24504423,0.32806954,0.04038692
-8.411634,-0.7461003,-0.6172443,0.35257396,0.34245107,0.07393215
-8.555114,-0.6600335,-0.9312773999999999,0.47822022,0.39248964,0.097354464
-8.627898,-0.7620744,-1.2227284,0.5697802,0.48511428,0.09787806
-8.598306,-0.67792296,-1.2856576000000002,0.40634754,0.34084535,0.11013027
-8.429898,-0.55849063,-1.3014688,0.4010243,0.39353684,0.11065388
-8.14268,-0.63499016,-1.3824503000000001,0.40369466,0.31422907,0.08405506
-8.037393,-0.6825678000000001,-1.2934434,0.444675,0.22640412,0.025481807000000002
-8.528118,-0.6057809000000001,-1.1861258999999997,0.3972893,0.08426449400000001,-0.021868976000000002
-9.364633,-0.7766408,-1.5254513,0.38186058,0.03635521,0.037734017
-10.315733999999999,-1.1607952,-1.532586,0.5096187,-0.034958944,0.05050983
-10.749774,-1.4218589,-1.6850392,0.48567277,-0.075939275,0.018570304
-10.771877,-1.7295137999999999,-1.9813359,0.398895,-0.09457939,0.0015358897
-11.904143,-1.0289897,-1.2023584999999999,0.28923595,-0.16910495,0.045710173
-12.570574,-0.28650934,-1.895863,0.19500564,-0.21275564,0.061156336
-11.297653,0.19259916,-0.29787698,0.16413076,-0.20582668,0.06487389
-10.976505,0.6239577,0.6909666,0.13966125,-0.2340312,0.08724901
-10.455565,0.9108309000000001,1.8335179,0.07895869999999999,-0.26492350000000003,0.107459925
-11.2542515,1.0107554,2.2886173999999997,0.00816814,-0.29686305,0.11278318
-11.536567,0.12448891,1.3705559999999999,-0.07379252,-0.29740409999999995,0.12023573
-11.061183999999999,0.33043814,1.341768,-0.1669582,-0.2808933,0.13088223
-11.014755000000001,0.54805195,0.59457606,-0.2329491,-0.250542,0.12822933
-11.4627,0.92488015,0.46541366,-0.27768190000000004,-0.21540853,0.11704178
-11.508161999999999,0.9248226,-0.2930503,-0.30855677,-0.19146262,0.08883726
-10.174686,0.7128113,-0.66472614,-0.32717943,-0.16058774,0.053162728
-9.240822999999999,0.78286564,-0.60136604,-0.34793139,-0.103620194,0.0074001959999999995
-8.698709,1.0142988000000002,-0.3770772,-0.37934732,-0.012060225,-0.035709437000000004
-8.295947,1.0240575,-0.28034186,-0.3042807,0.045413468,-0.08042477
-8.279628,0.938077,-0.2942474,-0.16374679,0.07096509,-0.104911745
-8.39023,0.88900536,-0.4172232,-0.12861331,0.13004448,-0.1123643
-8.316278,0.8377312,-0.71944803,-0.21326178,0.16837192,-0.1081057
-8.272044000000001,0.81860626,-0.91219085,-0.35431929999999995,0.20245819,-0.10117674
-8.375751,0.75241137,-1.0335386,-0.5390449,0.28761279999999995,-0.12142256
-8.51291,0.48194325,-1.143327,-0.7280291999999999,0.40100685,-0.16187929
-8.363234,0.3853707,-1.2554715,-0.8137249,0.36747909999999995,-0.19593066
-8.051834,0.42082402,-1.2575306,-0.7887143,0.29719466,-0.23160519
-8.081311999999999,0.20019357,-1.360031,-0.6907664000000001,0.25514970000000003,-0.22575834
-8.521682,-0.017860743999999998,-1.1689067,-0.50604075,0.12472123,-0.19435987
-9.041865,-0.034744654,-0.81709313,-0.43737950000000003,0.18221237,-0.12142256
-9.501486,-0.067621835,-1.1804277,-0.5071054,0.040090214,-0.07616617
-10.225616,0.46263638,-1.6666134999999997,-0.6002711,-0.13449506,-0.034644786000000004
-10.385491,1.0798712,-2.3857164,-0.45919612,-0.15631169,-0.03197443
-10.155457499999999,1.3397762,-3.101832,-0.25478315,-0.18027505,-0.06232571
-10.52652,1.3283701,-2.9577298,-0.06846926,-0.28886944,-0.096935585
-12.285855,0.58614844,-1.4397006,0.05127777,-0.30218629999999996,-0.10332349
-12.100334,-0.3853228,0.5718215,0.11143927,-0.29206340000000003,-0.10438814
-12.860905,-1.2334545,2.4376995999999997,0.13859660000000001,-0.2553242,-0.11023499999999999
-11.441248,-0.57289416,2.1708705000000004,0.22589797,-0.24202481,-0.1192758
-10.8302765,0.21253806,2.7141243999999998,0.32915163,-0.24521875,-0.120881505
-11.774723,0.057029884,1.7829715,0.398895,-0.26279423,-0.10971139
-12.019879,-0.69681805,1.4109031,0.39995965,-0.26384142,-0.104911745
-11.5230055,-1.1335587999999999,1.2980403999999999,0.38931313,-0.23830725,-0.08522443
-11.336718,-1.0596736999999998,1.3950343,0.35524429999999996,-0.19624482,-0.055414204
-10.809466,-1.2370745,1.0810874,0.3211755,-0.14460053,-0.025586527
-9.773371000000001,-1.0875612,0.51571107,0.3062704,-0.11213741,-0.0016406095
-8.720103,-0.85359037,0.28670087,0.29562387,-0.075939275,0.019634955
-8.008892,-0.96528465,0.20208020000000002,0.29562387,-0.037611846000000004,0.044121925
-7.851228999999999,-1.1123268999999998,0.5055788,0.29136527,0.030508353999999998,0.061156336
-8.09154,-1.2144636,0.28974628,0.23015657,0.07895869999999999,0.061156336
-8.329609,-1.2100871000000002,-0.10732727,0.16519542,0.16571902,0.055833083
-8.525513,-1.1557578000000002,-0.38601235,0.10505137,0.24343853,0.06274459
-8.7426195,-0.89658064,-0.45738829999999997,0.12102113,0.31318188,0.08405506
-8.988313,-0.65779257,-0.7575446,0.17851228,0.35948548,0.10107201
-9.117550999999999,-0.54643345,-1.1342195,0.26529005,0.40100685,0.108542025
-8.998713,-0.54324436,-1.3476291999999999,0.3403392,0.39036033,0.11280063
-8.8529625,-0.4964138,-1.2817216,0.30414107,0.2833542,0.13939945
-8.623924,-0.48122498,-1.211083,0.36908478,0.35842082,0.15004596
-8.408311999999999,-0.47071922,-1.1695674999999999,0.45319220000000005,0.36320302,0.09361946
-8.286735,-0.8981703999999999,-1.2622038999999998,0.25303784,0.06510078,0.040927973
-8.424468,-0.8172560000000001,-0.80991054,0.29722956,0.06777114,0.020176006
-9.157209,-0.50848055,-1.3159108,0.44093999999999994,-0.011536626000000001,0.0009948377
-9.80213,-0.652918,-1.6300682,0.49045497,-0.08339183,-0.035709437000000004
-10.426557,-1.2632478,-1.7493665,0.45212755,-0.12863077,-0.050073497
-10.932136,-1.4528303,-1.4776438,0.35897929999999995,-0.15098843,-0.005358161
-12.265141,-0.95438623,-0.7452384,0.25942573,-0.20902063,0.048380528
-12.4077015,-0.6499396,-1.0462375,0.25357887,-0.16536994,0.054768432
-11.236994000000001,-0.47379336,-0.33824322,0.29136527,-0.15100588,0.06593854
-12.151474,0.8974809000000001,1.7402781999999999,0.28497735,-0.14940019,0.094701566
-12.010858,0.056790464000000006,0.84258664,0.23706807,-0.14514159,0.11599458
-10.526731,0.13363476,1.6787183999999997,0.17585938,-0.14566518,0.1335526
-10.14995,0.12910494,1.5685468999999999,0.090687305,-0.14194763,0.15271631
-10.196436,-0.1467071,1.248308,0.0065798913,-0.13608332,0.15803957
-10.828735,0.23115538,1.0341706,-0.06846926,-0.114807755,0.14100514
-11.508851,0.8611369000000001,0.6433506999999999,-0.14990632,-0.08339183,0.107477374
-10.785648,0.64110976,-0.15209885,-0.24040166,-0.06316347,0.0707382
-9.646708,0.5467112,-0.29332802,-0.30962140000000005,-0.037088245,0.027611108
-9.111383,0.7140946,-0.31923327,-0.34686673,-0.006736971,-0.012287118
-8.58714,0.8437549999999999,-0.20260692,-0.35220745,0.029443703999999998,-0.06499606
-8.192115,0.8202822,-0.3814825,-0.35166640000000005,0.1534668,-0.10225884
-8.244501,0.9066171000000001,-0.59885687,-0.3160093,0.22001621,-0.13472196
-8.348467,0.9989087999999999,-0.7624766,-0.28192303,0.27537805,-0.14430383
-8.236829,1.0065701999999999,-0.87974465,-0.30321604,0.32009340000000003,-0.13791592
-8.156155,0.8520964,-1.1040716999999998,-0.38573520000000006,0.3999422,-0.12833406
-8.258138,0.7615764,-1.3094655000000002,-0.46239007,0.42762312,-0.13206907
-8.207514999999999,0.7743327,-1.5550051999999999,-0.45334926,0.35575047,-0.13100441
-8.122416000000001,0.7791210999999999,-1.6369156999999999,-0.42353904,0.3690673,-0.12461651
-8.23139,0.7393008000000001,-1.0946768999999998,-0.35219,0.324352,-0.10756464
-8.554032000000001,0.19688958,-1.0118280000000002,-0.34580207,0.30625293,-0.07243116
-8.650903,-0.04222414,-1.0604111,-0.3649658,0.15666075,-0.05326745
-9.380272,-0.21430978,-1.0846308,-0.5150816,-0.022183135,-0.0538085
-10.208273,0.021308396,-1.6160287,-0.57150805,-0.071157075,-0.049549895999999996
-10.617365,0.612092,-2.2369025000000002,-0.5007175,-0.09297369,-0.058608155999999995
-10.842017,0.9853002000000001,-2.4005704,-0.41606903,-0.18133971,-0.07457792
-12.247883999999999,0.46020390000000005,-1.8408346000000002,-0.35273105,-0.25799456,-0.07616617
-12.39847,-0.13293566,-0.98230267,-0.3207915,-0.25853562,-0.08415978
-11.670709,-0.67692703,0.25677335,-0.27874655,-0.25534168,-0.09374163
-10.796547,-0.6094871000000001,0.86624134,-0.2276433,-0.27183503,-0.09480628
-10.813719,-0.28902802,2.0306756,-0.15364133,-0.28726375,-0.09053023
-11.5692425,0.06373365,1.7182324,-0.06262241,-0.2771583,-0.08735373
-11.567164,-0.29247567,1.165392,0.00816814,-0.27077037,-0.08255407
-11.154307000000001,-0.5545545999999999,0.6249249,0.04649557,-0.2681175,-0.071907565
-11.15043,-0.59155935,0.7146309000000001,0.059812434000000005,-0.24202481,-0.042620942
-11.32376,-0.9438613000000001,0.5799426999999999,0.098663464,-0.20689133,-0.008552114
-10.626453,-1.1690695,0.24021505,0.1582839,-0.17388715,0.031346112
-9.608918,-1.0753030000000001,-0.13271539,0.22748621,-0.13130112,0.06808529
-8.911094,-1.0842094,0.05059427,0.30255282,-0.09936159,0.10428342
-8.562268,-1.1064659,0.22205742,0.36482617,-0.054646257000000004,0.1340762
-8.341685,-1.0537361,0.07252515,0.37388444,0.03637266,0.15964526
-8.157581,-1.2897469,-0.21463539,0.36376149999999996,0.14390239,0.16549212
-8.240526,-1.4143794,-0.3020525,0.36004397,0.20139354,0.17135642
-8.420177,-1.3233423,-0.37834135,0.34992105,0.23917992,0.16976817
-8.634314999999999,-1.1706593,-0.6238906999999999,0.33875096,0.29400072,0.17559758
-8.7523775,-1.099293,-0.8479496,0.36536723,0.37013197,0.17933258
-8.751064999999999,-1.1041292,-1.1261941999999998,0.43828708,0.48830822,0.16282177
-8.582284,-1.0442742,-1.2013147,0.43722242,0.5000194,0.108542025
-8.544619,-0.98337525,-1.1413064,0.37281978,0.437205,0.09522516
-8.317083,-1.1129687,-1.0562451000000002,0.43828708,0.4499808,0.06647959
-8.141081,-1.084602,-1.0979999999999999,0.28871235,0.30305898,0.027628561
-8.521519999999999,-0.86036116,-1.074173,0.286042,0.23970352,-0.044226642999999996
-9.559358,-0.6744658,-1.2623188,0.25303784,0.18966493,-0.033580136000000003
-10.258742,-0.8316882,-1.6330084999999999,0.36908478,0.08693485,0.0020769418
-10.495097999999999,-1.1577114,-2.1339808,0.43244022,0.03689626,-0.021868976000000002
-10.346485000000001,-1.485449,-2.6281056,0.31159362,0.04647812,-0.041573743999999996
-10.545816,-1.5902288,-2.3053672,0.15721926,-0.020036379,0.0015358897
-12.078355,-0.7699178000000001,-1.8610034,-0.0019198620999999999,-0.08445648,0.038798667
-11.3327055,-0.3668396,-1.0818153999999998,-0.08124508,-0.08658578,0.05370378
-11.279257000000001,1.2947843,0.9400115,-0.12863077,-0.10042624,0.08084365
-10.713871000000001,1.1191553,0.79117835,-0.20420352,-0.11800171,0.11119492
-10.320102,0.6701754,2.2616970000000003,-0.30056316,-0.14994124,0.12184144
-11.639459,0.018665198,1.6544508000000002,-0.40756929999999997,-0.1706932,0.11651818
-12.035633,-0.0016089035,1.2050976,-0.48474774,-0.18559831,0.12184144
-11.220875999999999,0.060918067,0.40688023,-0.51295227,-0.17015214,0.123447135
-11.242214,0.6826730999999999,0.21965364,-0.51934016,-0.14833553,0.11758283
-11.7334175,1.2281585,-0.46124774,-0.5150816,-0.13130112,0.098419115
-10.671513000000001,1.0845447,-0.8980555,-0.4905946,-0.09723229,0.07180285
-9.632659,1.0357028,-0.98307836,-0.46877798,-0.06794567,0.03933972
-8.89783,1.1966125,-0.6411193000000001,-0.44429103,-0.030682888,0.001012291
-8.416165,1.031652,-0.5334952,-0.40329322,0.0006981317,-0.041556288
-8.288658999999999,0.9434017,-0.6462525,-0.32237977,0.07363544400000001,-0.070842914
-8.493631,0.9888628,-0.8281927,-0.24148375,0.16730726,-0.07777187
-8.507365,0.93593174,-0.9023363000000001,-0.2473306,0.21842796,-0.108629294
-8.332311,0.7107523,-0.99415874,-0.30642745,0.2599319,-0.14323917
-8.339732000000001,0.38284245,-1.154465,-0.40809290000000004,0.31264082,-0.17889625
-8.346771,0.10118854,-1.3817511999999998,-0.51455796,0.42017058,-0.21830578
-8.311653,0.1282526,-1.4362146,-0.5757667,0.49150217,-0.25022787
-8.213883000000001,0.08386410000000001,-1.4791281,-0.57683134,0.37119663,-0.29016098
-8.337606,-0.06156929,-1.3543903999999998,-0.553409,0.4036772,-0.29494318
-8.655663,-0.26224169999999997,-1.0610144,-0.4320388,0.28763026,-0.23745205
-9.048665,-0.17056292,-0.7912358,-0.35538393,0.26579618,-0.13791592
-9.262955999999999,0.22939324,-1.239373,-0.29256955,0.08319984400000001,-0.07670722
-9.731692,0.034830846,-1.7458998,-0.46397832,-0.059969515,-0.027715827999999998
-10.006824499999999,0.17844464,-2.4949784,-0.49165925,-0.12543681,-0.003228859
-9.728044,0.6235651,-3.142744,-0.40276963,-0.14994124,-0.033580136000000003
-9.731616,0.6072653,-3.3225198,-0.29469883,-0.28886944,-0.08255407
-11.084187,0.045805868,-2.2501377999999996,-0.1845162,-0.34316665,-0.11288789999999999
-11.673869,-0.8198704,-1.1150084999999998,-0.10999065,-0.34742525,-0.13205162
-11.724971,-1.1626147,1.0130538,-0.07805113,-0.35381314,-0.13419837
-11.479163,-0.6237661999999999,1.6807488000000002,-0.025883233,-0.35861279999999995,-0.12301081
-11.953205,0.32687557,2.6324728,0.031590457999999995,-0.37564722,-0.09426523
-12.695484,0.3694349,1.5293393999999998,0.05235988,-0.3761708,-0.05274385
-12.193354,-0.007967903,0.56522316,0.03000221,-0.3719122,-0.020280726000000002
-11.568533,-0.32891545,0.44485226,-0.014695672,-0.34264305,0.0015358897
-11.3644905,-0.52388006,0.40168000000000004,-0.041852996,-0.29312804,0.022828907000000002
-11.280463000000001,-0.7692666,0.28377995,-0.059952057999999996,-0.23509584,0.043598324
-10.096387,-0.87613416,0.0051714759999999995,-0.064734265,-0.1728225,0.059027035
-9.117503,-0.65275514,-0.0970801,-0.048240899999999996,-0.10946705,0.06702064
-8.510869999999999,-0.7417045,-0.07890331,-0.010978121,-0.06529277,0.0766025
-8.275951,-1.0722193000000002,-0.13180558,0.009773844,-0.036547195,0.079796456
-8.393324,-1.1250641000000001,-0.32838870000000003,0.0172264,0.045413468,0.073391095
-8.564183,-1.0836443999999998,-0.814766,0.029461157999999998,0.11248647,0.06328564
-8.706525,-1.2321615,-1.0402901,0.03265511,0.16678366,0.0723439
-8.742284,-1.1114843,-1.2309165000000002,0.07311184,0.23066272,0.08831366
-8.828331,-0.844636,-1.5220035,0.16467181,0.3115762,0.09628981
-8.742801,-0.75830114,-1.8782511999999998,0.30255282,0.43507567,0.08883726
-8.533030499999999,-0.75863636,-1.9447047999999998,0.45958009999999994,0.5106659,0.067544244
-8.237548,-0.77625763,-1.7771298,0.41538835,0.28016025,0.072326444
-8.082997,-0.7619403,-1.3842889999999999,0.47022662,0.21469295,0.08084365
-7.942094,-0.9876848,-1.2751327,0.42179373,0.07841764400000001,0.0707382
-7.9104233,-1.3632298,-1.1620115,0.32171655,-0.050911255,0.09416051
-8.781797000000001,-1.3874303,-1.053851,0.46490335,-0.09403834,0.11918853
-9.508017,-1.2915378,-1.5686139,0.5772326999999999,-0.17601645,0.1372876
-9.875430999999999,-1.3975913999999998,-2.0596454,0.5633923000000001,-0.23989551,0.13515829999999998
-9.943886000000001,-1.8422999,-2.3271257999999997,0.5090951,-0.25745353,0.11705923
-10.180586,-2.2680175,-2.0269790000000003,0.37920767,-0.29578096,0.14845770000000003
-12.316367,-1.3974763000000001,-0.8265455,0.28071874,-0.33464944,0.17987363
-13.87824,-0.72852683,-0.6736901,0.30307642,-0.30962140000000005,0.18465583
-13.114431,0.08538681,0.55523455,0.36856118,-0.26810002,0.18891443
-13.18915,1.0212898000000001,0.82541543,0.36908478,-0.26064748,0.21500711
-11.187875,0.51389146,0.1997243,0.32810444,-0.27502897,0.24055873
-9.956346,0.9870049000000001,1.1439781999999998,0.30468214,-0.28408724,0.24959953
-9.783676,0.8252813,0.9161078000000001,0.30253538,-0.29099876,0.23841198
-9.750148,0.714516,0.73927206,0.28871235,-0.29152235,0.22033036
-10.392099,1.2229007,0.9074216,0.26103145,-0.27129397,0.19477874
-11.199262,1.3002048000000002,0.06502652,0.19821705,-0.23883085,0.16070992
-10.461675,1.1004708,-0.57471377,0.13486159,-0.22286109999999998,0.11812388
-9.654330999999999,1.034975,-0.71759015,0.08375835400000001,-0.19676842,0.06382669
-9.21308,1.0266336,-0.28643270000000004,0.022008602000000002,-0.15683529,0.011658799
-8.858039,0.96710426,-0.28786924,-0.030141836,-0.104684845,-0.046355944
-8.591296,0.9697474,-0.45091435,-0.030141836,-0.048781954,-0.104911745
-8.434725,0.949981,-0.50089574,-0.052499502999999996,0.0038920840999999997,-0.15334463
-8.433135,0.9633214,-0.5606933000000001,-0.12754866,0.085329145,-0.18315485
-8.333057,0.9969743000000001,-0.6970000000000001,-0.22443189,0.17477727,-0.19699532
-8.240306,1.0099318000000002,-0.9761351999999999,-0.37615335,0.28337166,-0.20073032
-8.28616,1.0745274,-1.1538807,-0.5672495,0.437205,-0.21191788
-8.331123,1.1040621000000002,-1.2036513,-0.7477165,0.5814739000000001,-0.23532274
-8.336160000000001,1.05659,-1.1904738000000001,-0.80998987,0.5378232,-0.25448647
-8.2173605,0.8434485,-1.1073662,-0.7450635999999999,0.4648859,-0.26248008
