accx,accy,accz,gyrx,gyry,gyrz
-8.111162,1.2166376,-0.6915891,-0.26310837,-0.18558086,0.19207348
-9.2863035,1.1297663,-1.0792583,-0.37222636,-0.04024729,0.23731242
-10.795274000000001,1.2655941000000002,-1.5229325,-0.5441762,-0.20633282,0.24635322
-11.48852,1.4268581,-2.3014505,-0.5808979000000001,-0.30269244,0.16758652
-12.314558,1.2655368,-2.3121762,-0.50052553,-0.27394688,0.07389724
-15.345981,0.08100063,0.35364273,-0.38447857,-0.15950564,-0.047472954000000005
-14.134553,-1.308977,-1.7765073,-0.28920105,-0.120637156,-0.16723745
-13.22989,-1.071865,-0.78128546,-0.25513223,-0.14032447,-0.2247286
-13.173204,-0.3159772,1.4771363000000002,-0.25830874,-0.16215853,-0.20982349
-14.61914,-0.83923477,3.1435199000000003,-0.21626374,-0.16268215,-0.18320721
-11.431336,-0.633975,1.4759487,-0.12203342,-0.17386970000000002,-0.1603085
-10.080719,0.6171007,1.113275,-0.04379031,-0.14831808,-0.13475688
-10.349463,1.0637246,1.2098763000000001,-0.022497293999999998,-0.119572505,-0.077265725
-10.486305999999999,-0.061272413,1.3447081,-0.0060039326,-0.06154031,-0.01446878
-9.563562,-0.7597185000000001,1.639444,0.04881686,-0.010454521999999999,0.03874631
-8.284636500000001,-0.8500278,1.3374489999999999,0.14144148,0.048624873,0.0951728
-7.7668285,-0.82720625,0.6736039,0.2633353,0.15987216,0.15479325
-7.578213000000001,-0.8811812,0.06700892,0.33414328,0.3376863,0.21547835
-7.519814,-0.92549306,-0.03814442,0.34585443,0.48993137,0.27138126
-7.415762400000001,-0.9370809999999999,0.08592311,0.26972318,0.48193777,0.33206636
-7.377206,-0.936401,-0.08226477,0.15475835,0.33927456,0.34058356
-7.715755499999999,-1.1394868,-0.33553299999999997,0.16327555,0.2812598,0.35655332
-7.8676724,-1.1128728,-0.7237289000000001,0.25907668,0.5026897,0.34697145
-7.8380322,-0.835155,-0.9019341000000001,0.22661355,0.7188313000000001,0.27724555
-7.879681599999999,-0.7899908,-0.82179534,0.039235003,0.5165476,0.13243559
-7.5181475,-0.70548505,-0.71827006,0.0046251225,-0.062081363,0.16278686
-6.829422,-0.61866176,-0.92817456,0.079150684,0.08801696,-0.013927726999999999
-6.4360356,-0.40922654,-1.0309337,0.038711403,0.14285520000000002,-0.061295964
-7.1213326,-0.047414772,-1.5195231000000002,0.06105162,0.03265511,-0.09218829
-9.143543,-0.15726075,-1.6730107,0.2968805,-0.11531389999999998,-0.08100073
-11.454646,-0.6289089,-1.1337502,0.41079813,-0.12596041,-0.035761796
-12.182235,-0.37828390000000006,-1.5884187,0.39856339,-0.087632984,0.014276793000000001
-11.17146,0.033825282000000005,-3.0109193,0.35383059999999994,-0.06314601,0.04939282
-12.583656,0.011099518999999999,-2.6769187000000003,0.2995334,-0.13128367,0.095713854
-15.190798000000001,0.6512995,-2.5304031000000005,0.30220374,-0.19516271,0.13510594
-15.981766,1.1875911,1.5514618999999998,0.31124458,-0.20100957,0.13404128
-12.689219999999999,0.56190956,1.7966952,0.22607249,-0.21380283,0.10103711
-11.057792999999998,0.047165774,2.0068965,0.111090206,-0.2478542,0.054733526
-12.001271000000001,-0.42549753,3.3654432,0.02698279,-0.27447048,0.054716073
-12.177225,-0.98628664,2.4502835,-0.027820547999999997,-0.29630455,0.05899213
-12.123059,-1.057787,0.9782804,-0.061889375999999996,-0.27659976,0.031293754
-12.00198,0.4195312,0.5934268,-0.06881833,-0.21964969,-0.013927726999999999
-11.663333999999999,1.1283872,0.42668507,-0.123115525,-0.13021901,-0.05438446
-10.436622,1.0441114,0.17766891,-0.20455259,-0.056758105999999996,-0.09964084599999999
-8.948702,0.46112326,0.10386047,-0.2796192,-0.0035255651,-0.12625712
-8.011267,0.062019399999999995,-0.06404011,-0.30730012,0.061924282000000004,-0.1725607
-7.591391000000001,0.36397609999999997,-0.5971234999999999,-0.27110198,0.11517428,-0.20982349
-7.256557000000001,0.8982469999999999,-0.646061,-0.23542747,0.20352285,-0.19917697
-7.3382664,1.347677,-0.45145068,-0.2189341,0.24026202,-0.15606734
-7.2954197,1.4478121000000002,-0.5299039000000001,-0.18380062,0.24078563,-0.13849187
-7.3120356,1.2617539,-0.56122005,-0.2088112,0.3424685,-0.17948966
-7.3809314,0.9857406999999999,-0.55753297,-0.23755677,0.3334277,-0.18427186
-7.1646194,0.89152414,-1.1071651000000002,-0.034208454,0.28497735,-0.103358395
-6.8265009999999995,1.101984,-2.2332923,0.0041015237,0.10238101,-0.101229094
-6.944583000000001,1.1343536,-1.8610418000000002,-0.14014994,0.18757053,-0.046931904
-7.711561,0.91327304,-0.54294753,-0.1476025,0.07098254,0.03715806
-8.571089,0.5266956,-0.38889495,-0.1412146,0.00816814,0.12339478
-9.421662,0.57231957,-0.92118347,-0.36904988,0.008150687,0.0951728
-10.972281,0.93934107,-1.020313,-0.6176371,-0.07433357,0.16650441
-11.525974,1.1022426,-1.5135471999999999,-0.71452034,-0.12808971,0.15001105
-10.989203999999999,1.1531049999999998,-2.5647743,-0.6655464,-0.09136798,0.033423055
-12.330426,0.87820274,-1.531772,-0.5606869999999999,-0.069533914,-0.06822492
-13.832778,-0.30906272,-1.1222581,-0.44783404,-0.053564154,-0.1619142
-12.404656,-0.2961053,-1.7584548999999998,-0.41961205,-0.03227114,-0.23059290000000002
-12.949988000000001,-0.5750105999999999,0.77747387,-0.45368087,-0.04717625,-0.2343279
-12.98254,-0.74750805,1.4947289,-0.451028,-0.14193018,-0.19013616
-12.453708,-0.20607373,1.2952249,-0.39566615,-0.20687388,-0.15287338
-10.699475999999999,0.6167847,0.4700584,-0.32220525,-0.22392574,-0.14489724
-10.936656,1.6244947,0.8780878000000001,-0.27003735,-0.2302962,-0.13423327
-10.643892,0.9985545,0.81380826,-0.21094050000000003,-0.19783308,-0.087388635
-10.638893,-0.54582053,1.0330405,-0.12737413,-0.1653525,-0.03843215
-10.110953,-1.0766438,1.0343717,0.0046251225,-0.099885195,0.0036128315
-8.946606,-0.6489531999999999,0.4288111,0.17018706,-0.009372418,0.07070329
-8.121285,-0.5169943,-0.19275239,0.28143433,0.052883476,0.16915731
-8.120768,-0.84668547,-0.3428401,0.36341247,0.18116517,0.23944172
-8.031042999999999,-0.9348687,-0.19305885,0.3559599,0.3286106,0.2665816
-7.717163,-1.0131208,0.10846691,0.24790657,0.41699407,0.29693288
-7.609233000000001,-1.2839912,0.08449617,0.13077752,0.4015479,0.33417818
-7.7330227,-1.4676169,-0.038125265,0.13238323,0.3371278,0.37836993
-7.877259,-1.2143774,-0.2131893,0.22394319,0.38238418,0.41509166
-7.9797210000000005,-1.0736748999999999,-0.35346079999999996,0.25108308,0.52024776,0.41615630000000003
-7.9233899999999995,-1.1090803999999999,-0.5882265999999999,0.09724975,0.5633748000000001,0.30490902
-7.7682076,-0.92492795,-1.3008657,0.05253441,0.10183996,0.25220007
-7.9725575,-0.7073813,-1.091392,0.014730578999999999,0.2631433,0.14679964
-7.9318757,-0.3369312,-0.9686365,-0.11301007,0.32222268,-0.029373892000000002
-8.088361,-0.02828031,-1.5595733999999999,-0.06775368,0.17477727,-0.11934561
-8.846308,0.20785502,-2.2896614,-0.056583576,0.07628834,-0.17896606
-10.133364,0.31576648,-2.3761878,0.10576695,-0.13236576,-0.17364279999999999
-11.034388,0.17401057,-2.11883,0.1004437,-0.066881016,-0.11454595599999999
-10.830363,-0.25074953,-2.4549186,0.025377087000000003,-0.052516956,-0.043755405
-11.363494000000001,-0.43123403,-2.1252081,-0.0970403,-0.11159635,0.011588986
-13.213704000000002,0.53612876,-3.1846137000000003,-0.15453145,-0.17654005,0.094631754
-13.727145000000002,1.5381118,-0.85425115,-0.16837192,-0.23670155,0.17182766
-12.30906,1.1893532,1.0177082,-0.22692771,-0.26064748,0.18034486
-11.362815,0.22751620000000003,0.5970181,-0.35627407,-0.27129397,0.11857767
-11.279525,-0.13821247,1.9152943,-0.49415508,-0.28406978,0.037140608
-13.418370000000001,-0.2043499,2.6055331,-0.5958205,-0.32133257,-0.0022340214000000002
-12.509205999999999,-0.27597484,1.20255,-0.677275,-0.35220745,-0.010210176
-11.60867,-0.52464616,0.6954677,-0.7006973000000001,-0.35168386,-0.0389732
-11.587439,0.42730755,0.17240167,-0.6857922,-0.36233035,-0.102852255
-10.7756405,0.7224839,-0.5499864000000001,-0.7251843000000001,-0.2894105,-0.17844246
-9.597674000000001,0.81860626,-0.6086731,-0.79810417,-0.14940019,-0.23061036
-8.505497,0.96689355,-0.81693035,-0.81833255,-0.0014137167000000002,-0.23912756
-7.778684599999999,1.1662443999999998,-1.1061786,-0.71560246,0.12899728,-0.23911011
-7.433527000000001,1.2624433000000002,-1.1297375,-0.5622927,0.19978784,-0.24551547
-7.435586,1.1080653999999999,-0.96551454,-0.47499135,0.23759167,-0.24923302
-7.555909,0.9998857,-1.0871111999999998,-0.45582765,0.27750736,-0.20984094
-7.4955754,1.1841818000000002,-1.1890851,-0.45741588,0.31477013,-0.19334757
-7.644667,1.263382,-0.7996154999999999,-0.49467868,0.40313616,-0.25136232
-7.831797999999999,1.0272754000000002,-0.68829465,-0.49202576,0.3499036,-0.2795843
-7.6844296000000005,0.55579,-1.1321892,-0.17263052,0.12100368,-0.13053317
-7.2892814,0.28179756,-2.2658916000000002,-0.124180175,-0.08286823,-0.121474914
-7.248053,0.58183885,-2.25212,-0.3211406,0.16465436,-0.10976376
-7.7826686,0.82547283,-1.090894,-0.45848054,0.07044149,-0.06504842
-8.554136999999999,0.66306937,-0.8989940000000001,-0.54845226,-0.20795599,0.08183849
-9.423616,0.23609701,-1.2745198,-0.62882465,-0.19039796,0.12070697
-10.88021,0.22153070000000002,-1.4216387,-0.80449206,-0.19678587,0.1414764
-11.102278,0.92904603,-2.0750546,-0.9088453000000002,-0.22179644,0.14145893
-10.327005,1.3717052,-3.2001283,-0.8646536,-0.22392574,0.04511676
-13.051751,0.55239975,-0.42632115,-0.75073594,-0.19624482,-0.04855506
-15.147808,-1.5618718,-1.1516302,-0.6011438,-0.15207054,-0.15660839
-12.677126,-0.9622584000000001,-1.8615493000000003,-0.47712067,-0.13290682,-0.23380429999999996
-12.08163,-0.30996293,0.006933608000000001,-0.4260174,-0.1664346,-0.25829127
-12.572556500000001,-0.12120406,0.654728,-0.36320302,-0.22870794,-0.21357594
-13.978432000000002,-0.11067916,2.4479659,-0.26631978,-0.25586528,-0.17044885
-11.674405,0.37380192,1.1957985,-0.16304865,-0.30325097,-0.16406095
-10.839145,0.85838836,1.0668275,-0.10822786400000001,-0.32241467,-0.17153096
-10.471654,0.62315327,1.0994654,-0.101298906,-0.296322,-0.14596188
-10.4369955,-0.5967883,1.2086408000000002,-0.09332275400000001,-0.21382028,-0.07730063
-9.689066,-1.0597502,1.1566484,-0.06244788,-0.15207054,0.004118977
-8.782181,-1.0714339,0.82214016,0.0030194195,-0.08925614,0.07386234
-8.092555,-1.0993600000000001,0.18847156,0.10309660000000001,-0.02857104,0.13987069
-8.060271,-1.3073682,-0.07410533,0.1685639,0.06777114,0.21172589
-8.103280999999999,-1.1258494,0.14814363,0.20050342,0.17369516,0.27028167
-7.8932905,-1.0865079,0.20524053,0.18081611,0.24982643,0.29689795
-7.8530293,-1.1722203000000002,0.05315128,0.11320206,0.28283059999999993,0.3410897
-7.998692999999999,-1.2151818,-0.24638249999999998,0.0014137167000000002,0.2769663,0.38154644
-8.260292999999999,-0.9355008,-0.35119107,0.0450644,0.25513223,0.39006364
-8.508303999999999,-0.7702338000000001,-0.5184117,0.25373596,0.34988615,0.37355283
-8.573799000000001,-0.97527325,-0.665454,0.38097048,0.51490706,0.32086134
-8.206517999999999,-1.0832806000000001,-0.7265062,0.21753784,0.5995555,0.23249531
-7.761178,-0.9325799000000001,-0.8770534999999999,0.0450644,0.08958775,0.24260077
-7.381506,-0.56868035,-0.7293121,0.06316347,-0.0019547688000000002,0.13081242
-7.2513380000000005,0.004520253,-0.6565093000000001,-0.080546945,0.31955233,-0.14278539
-7.6769023,0.16299726,-0.8183956,-0.24502677,0.42549380000000003,-0.1688606
-8.641354,0.34827015,-0.99375653,-0.16784832,0.18060666,-0.107651904
-9.725506,0.59734374,-1.3695217,0.07967428,-0.06263987,-0.15395549
-10.846711,0.25703192,-1.385151,0.21114993,-0.17390461,-0.24925047
-11.155562,-0.5275191999999999,-2.1418722000000003,0.2223375,-0.21010274,-0.25296799999999997
-11.87275,-1.2943341999999998,-2.6751373,0.05677556,-0.16910495,-0.19814722
-13.805235,-0.48518017,-3.5823962999999996,-0.16146041,-0.17071065,-0.07571238
-15.401554999999998,1.8247839,-1.7290830000000001,-0.31955233,-0.23246041,0.05948082
-14.267382999999999,2.8506036,2.5306903999999997,-0.4734031,-0.24256586,0.11271336
-11.990469000000001,1.0559195,1.2025596,-0.66982245,-0.21488494,0.054157566
-11.499619500000001,-0.5366843000000001,0.9387569,-0.8987224,-0.23938936,-0.021956242999999997
-11.375781,-1.0062829,2.8735306,-1.1116526000000002,-0.25801203,-0.06346017
-10.524767,-1.2497445,1.9779457999999999,-1.2388871000000001,-0.2681175,-0.08157669
-10.458917,-1.2823153,1.2950428999999999,-1.266027,-0.24788912,-0.114039816
-10.882508999999999,0.22311087,0.93741614,-1.2117298,-0.20903808,-0.1704663
-10.361913000000001,0.96389604,0.18868226,-1.1377453000000002,-0.18561576,-0.20347048
-9.5232525,1.4347111000000001,-0.37703887,-1.1217754999999998,-0.15474088,-0.22369885
-8.517783999999999,1.5577538,-0.7454969,-1.1345513,-0.07328638,-0.26148522
-7.6605550000000004,1.6645543999999999,-0.98915964,-1.1420038000000001,0.02942625,-0.29609509999999994
-7.3891287,1.631409,-1.3354952,-1.1068704,0.118333325,-0.31100023
-7.5682054,1.3916153999999998,-1.241317,-1.0429913,0.18858282,-0.32431707
-7.819405000000001,1.3249799999999998,-0.98857546,-1.0030582000000001,0.26525515,-0.31525883
-8.1411,1.424981,-0.86824286,-0.9290736999999999,0.23331562,-0.24712117
-8.427207000000001,1.2975712,-0.85073644,-0.80131555,0.23490386,-0.16779596
-8.733177,0.99111336,-0.9734345,-0.80344486,0.35627407,-0.16249016
-8.713889,0.6420291,-1.3443921,-0.8902051999999999,0.3253992,-0.16249016
-8.328279,0.34216973,-1.6002653,-0.6474648000000001,0.33019885,-0.06825983
-7.6518307,0.25045264,-2.0509880000000003,-0.4739267,0.13323843,-0.07623598
-7.512469,0.03454354,-1.8536580000000002,-0.6091548000000001,0.22425735,-0.13535029
-7.7051444,0.11018116,-1.1508832,-0.8683886000000001,0.017191493999999998,-0.09594075
-8.064093,0.40346129999999997,-0.78440756,-1.1191051,-0.19945623,0.07438593
-9.089587,0.35038662,-0.9172091,-1.2053418,-0.17123425,0.12229522
-10.7724905,0.8002954000000001,-0.586091,-1.4273303,-0.20052087,0.12655382
-11.479269,1.6006004999999999,-1.2603365,-1.509832,-0.15793484,0.05735152
-11.030028999999999,1.4528687,-2.7815645,-1.4230716,-0.14674728,-0.061348322999999996
-13.457999,-1.018752,-0.41048107,-1.2798673999999999,-0.11854276,-0.15236725
-15.253516000000001,-2.3506560000000003,-0.47062343,-1.14998,-0.13238323,-0.19760618
-13.385541,-1.5328636,-0.5524477,-1.0674783,-0.19200367,-0.21891665
-12.957974,-1.2253716000000001,0.7979586999999999,-0.9727244,-0.22127284,-0.21146409
-13.356407999999998,-1.1017350000000001,0.21162829,-0.9045867,-0.2558827,-0.19282398
-13.709764000000002,-1.0866323999999998,2.0859911,-0.8550716999999999,-0.25375342,-0.14917329
-11.2198715,-0.37295917,0.5099458,-0.80131555,-0.22446679999999997,-0.11988667
-10.038178,-0.42573693,0.5958689,-0.71933746,-0.20690878,-0.14439109
-9.897725999999999,-0.8972319,0.87557876,-0.61926025,-0.1776396,-0.14385004
-9.478050999999999,-1.3491614,0.39204574,-0.5127952,-0.11747811,-0.10925761
-8.787621000000001,-1.9611863999999999,-0.022380996,-0.37597883,-0.07063347,-0.07305948400000001
-8.202382,-2.2118976000000004,-0.24464911,-0.23917992,-0.042952552000000005,-0.019303342
-7.815651400000001,-2.1373613,-0.19870916,-0.09332275400000001,0.021973696,0.067456976
-7.6974350000000005,-1.8575270000000002,-0.1332517,0.08819149,0.17528342,0.17181021
-7.804360400000001,-1.7345513,-0.048420332,0.31496212,0.30730012,0.28996900000000003
-7.8886647,-1.6497198,-0.012852075,0.49382347,0.23118632,0.45605454
-7.818802000000001,-1.4870483,-0.2439117,0.5667433000000001,0.09756391,0.533774
-7.7735033,-1.7460146,-0.44592488,0.6183876,0.10555751599999999,0.5422912
-7.900175999999999,-2.1058729,-0.79657966,0.74454,0.30730012,0.62852794
-8.0297785,-2.141939,-1.0352528,0.8158715999999999,0.58037436,0.63598055
-8.061823,-1.8465616000000002,-1.101984,0.70249504,0.48083820000000005,0.56677824
-8.07818,-1.755898,-0.8110789,0.6162583,0.31368804,0.5476145
-7.7805233,-1.8224663,-0.5865028,0.40332812,0.3903429,0.28890434
-7.121419,-1.3445548999999999,-0.4522647,0.1637817,0.06403613,0.13507102
-7.509001700000001,-0.7745434,-0.71526295,0.17442821,0.08319984400000001,0.12868312
-9.375531,-0.9588491,-0.8030919,0.39320523,0.1513375,0.10791371
-10.786616,-1.2773257,-0.73654264,0.43100905,-0.05305801,0.0062482785
-11.349071499999999,-0.92896944,-0.865389,0.4432438,-0.14622368,-0.06080727
-10.952994,-0.20808485,-2.0732636,0.38309976,-0.15100588,-0.05708972
-11.715442,-0.2784744,-2.9416022,0.26012388,-0.16166985,-0.043249257
-13.601354999999998,-0.9586191999999999,-3.4660377999999996,0.13184217,-0.18296286,0.03286455
-13.881984,-0.46744394,-0.5679333000000001,0.008866273000000001,-0.25642377,0.11749557
-14.649267000000002,0.3806589,1.0099221,-0.0922581,-0.2995334,0.14039429
-13.796176,0.41727105,0.8478251,-0.17582446,-0.33786082,0.09300859
-10.892612,-0.37203020000000003,3.210634,-0.22800982,-0.3575656,0.005707226700000001
-10.145161,-2.6372802,1.8851369999999998,-0.2641905,-0.33625513,-0.042167153
-10.613055000000001,-2.4598026,0.7247344,-0.27324873,-0.39908698,-0.036320303
-11.165082,-0.80607027,0.76390356,-0.28228956,-0.45923102,-0.045378562000000004
-11.128604,0.4509431,0.09982864,-0.28017770000000003,-0.46616,-0.10766936
-9.952908,1.375105,-0.53395486,-0.33445746,-0.40919244,-0.19601792
-8.833599000000001,1.5587881000000001,-0.60655665,-0.38877209999999995,-0.2947512,-0.2652377
-8.171486999999999,1.2684577,-0.86375135,-0.37917277,-0.19891517,-0.26789057
-7.772421400000001,1.0403476999999999,-0.93584555,-0.26953119999999997,-0.14090043,-0.25405014
-7.503926299999999,1.031786,-0.9748328000000002,-0.26846653,-0.05094616,-0.34028685
-7.531842,0.9697474,-0.8302613000000001,-0.39940116,0.094911,-0.37754962
-7.884805,1.0311539,-0.7499501000000001,-0.40313616,0.112992615,-0.31367058
-8.201261500000001,1.008476,-0.63408995,-0.34351570000000003,0.11779227,-0.31738812
-7.977192999999999,0.9333077,-0.6971628000000001,-0.43507567,0.028885199,-0.39512509999999995
-7.615410000000001,0.5683739000000001,-0.9550183000000001,-0.31422907,-0.0030194195,-0.369556
-7.4090776,0.21757548,-1.276981,-0.08480555,-0.32243213,-0.31473523
-7.287988,-0.13339534,-1.7596521,-0.17903587,-0.13931218,-0.20933479
-7.768342,-0.080780365,-0.89588153,-0.03635521,-0.13610077,-0.025150195
-8.132155000000001,0.83271295,-0.20493408,0.21434389,-0.20532054,0.18936822
-8.08769,0.9280978999999999,-1.517263,0.0014137167000000002,-0.1627345,0.085014984
-9.273931,0.57190776,-1.7793324000000001,-0.34032175,-0.29366909999999996,0.19734438
-11.165905,0.7655699,-1.027802,-0.4734031,-0.42516220000000005,0.22821926
-11.654572,0.7613656999999999,-1.9959694,-0.42816418,-0.36980036,0.177116
-12.386039,0.015868768000000002,-2.0558436,-0.31637582,-0.2777168,0.13824753
-16.06699,-1.9415731,1.466142,-0.24504423,-0.22022565,0.027523842000000003
-14.637518,-2.4627142,-1.198499,-0.25089110000000003,-0.14889404,-0.09063495
-13.565872,-0.92445874,1.6345693000000001,-0.25834364,-0.08820894,-0.11671016
-13.940470000000001,0.054779336,3.6683097,-0.20511109,-0.11215486,-0.103934355
-12.870271,0.15753847,3.8301193999999996,-0.18861774,-0.090338245,-0.09328785
-10.225368,-0.06483498,1.3689183,-0.16571902,-0.02804744,-0.07784168400000001
-11.480533,0.5855451,2.1552222000000003,-0.10768682,0.0033510323,-0.08051204
-11.151167,1.095692,2.3625312000000003,-0.012409291000000001,0.028885199,-0.060283672
-10.545032,-0.20401470000000002,2.5071027000000004,0.123848565,0.12152728,-0.0320617
-9.712645,-0.6487520999999999,2.0433075,0.25213027,0.25139722,0.0062482785
-8.487225,-0.97028375,0.77499354,0.3612657,0.3866079,0.054681167
-7.5369186,-1.5479568000000001,0.07978438,0.4192979,0.53780574,0.116430916
-7.2064509999999995,-1.2299589,0.24496514,0.43737950000000003,0.6384065,0.20851448
-6.9781113,-0.629359,0.32893458,0.34796628,0.67621034,0.27028167
-6.8368344,-0.6572084,0.3331005,0.1685639,0.6330833,0.28197540000000004
-7.1269927,-1.1102774,0.3452343,0.07752752,0.5021312,0.28251645
-7.339741,-1.4922868,0.04514507,0.123848565,0.42228240000000006,0.26867598
-7.2640753,-1.587145,0.0044436384999999995,0.22977260000000002,0.52768284,0.28197540000000004
-7.2000446,-1.3026277,-0.15700217,0.25425956,0.6501177,0.28516933
-7.048961,-1.0283862,-0.5079347,0.12543681,0.44409904,0.20638518
-6.5141535,-0.7097180000000001,-0.9461023000000001,0.099885195,-0.06850417,0.19202112
-6.423145,-0.5502833,-1.0111,0.24308945,-0.13079497,0.08874999
-7.0999,-0.08366299,-0.8862856,0.15685274,-0.2846283,-0.036320303
-8.051289,0.18702547,-1.1904066,0.2553242,-0.3841819,0.04988151
-9.605642,-0.17949809,-1.1621647,0.44004986,-0.27878144,-0.02994985
-11.35703,-0.50357723,-1.0957781999999998,0.5023232,-0.19254473,-0.09382889999999999
-11.778457000000001,-0.814584,-1.9078531000000003,0.5465149,-0.23619539999999997,-0.028344147000000004
-11.475744,-1.3692822,-3.0414884,0.45973718,-0.26813492,0.07278023
-12.187291,-1.8195168000000002,-2.6594505,0.36871827,-0.27398178,0.13400638
-14.575679999999998,-0.32847488,-1.8658397,0.36393607,-0.29633945,0.19415042
-15.291278,1.3659303999999999,3.4137678,0.32772046,-0.33094934,0.20319124
-14.641654,2.3123007,4.7222085,0.21327923,-0.36714745,0.18085101
-14.707792000000001,2.106591,2.9090316,0.08126253,-0.42942079999999994,0.15901695
-12.4192705,1.2890382,3.2447944,-0.03689626,-0.49277624,0.13292427
-10.432619,-0.23682486,2.9036686,-0.14442599,-0.5161986,0.096202545
-11.537026,-0.5294346,1.8907202,-0.23598596,-0.51087534,0.049898963
-12.759735000000001,0.27423188,1.4539316999999998,-0.32967523,-0.4581664000000001,0.004642576
-12.000409,0.93288636,0.036717474,-0.43455207,-0.31443852,-0.05815437
-9.900464999999999,1.3099922,0.22098482,-0.57615066,-0.17816322,-0.12735668
-8.629688999999999,1.2310889999999999,0.30441797,-0.6740984999999999,-0.012618731000000001,-0.19549432
-7.759608,0.85369575,-0.15357366,-0.6730339,0.13747959,-0.24979152
-7.310148700000001,1.065324,-0.45359588,-0.6932621999999999,0.2652377,-0.27960175
-7.096481,1.6394536,-0.3763781,-0.7289193,0.37756708,-0.30302405
-6.8929734,1.9598936000000002,-0.45139322,-0.79812163,0.4249353,-0.32857567
-6.623760000000001,1.9348693,-0.45487920000000004,-0.8662593000000001,0.44303438,-0.37063813
-6.944028,1.6961292000000001,0.04960786,-0.8779703999999999,0.45954520000000004,-0.43451717
-7.132728999999999,1.5100708999999999,0.39317579999999996,-0.9498431,0.40257764,-0.47336819999999996
-6.699445699999999,1.410405,-1.0389878000000001,-0.6873979,-0.25801203,-0.28333676
-6.310321,0.98614293,-2.2075498,0.032288592000000005,-1.0533062,0.04881686
-6.5483236,0.88035756,-1.1724023000000001,0.49487066,-0.40334558,-0.29345965
-7.494809,1.0714531,-0.7754436,0.17601645,0.27536058,-0.44462264
-8.490328,1.0615987,-1.3503298000000001,-0.48192029999999997,-0.20690878,0.066392325
-9.776502,0.96649134,-1.5528792,-0.5404760999999999,-0.6109525,0.1664695
-11.59804,1.037963,-1.5556756,-0.52824134,-0.5444031,0.014224433
-12.239494,1.6044408000000001,-2.1939602000000002,-0.42390558,-0.22396065,-0.12522738
-11.375255000000001,1.7433236,-3.212128,-0.18168877,-0.12227777,-0.19336502
-11.472114999999999,0.75490135,-2.2717144,-0.03689626,0.010786135,-0.24979152
-19.269282999999998,-3.4164681000000003,8.901,-0.030508353999999998,0.032620203,-0.27640778
-20.079155,-6.8179493,7.8432803,-0.0879995,0.04166101,-0.26204374
-8.513024,-1.5400751,3.510072,-0.24876177,0.0006806784,-0.21626374
-9.008768,0.46355575,0.5429092,-0.39568359999999997,-0.073303826,-0.12735668
-13.545848000000001,2.5476892,4.147945,-0.4904375,-0.08447394,-0.06560693
-12.725574499999999,3.2741282000000003,4.925361,-0.5628338,-0.10311405,-0.083182395
-10.965894,0.44328165,4.2495165,-0.5851914,-0.15367624,-0.11618657
-11.681186,-2.9763184,3.3589212999999996,-0.52024776,-0.20851448,-0.13055062
-10.443767,-4.16662,2.4689581,-0.3892957,-0.2670703,-0.13428563
-9.160407000000001,-2.5585494,1.9443696,-0.26633725,-0.25748843,-0.11671016
-8.593221,-0.6622458000000001,1.5758827,-0.12206833,-0.2255489,-0.07466519
-8.228402,0.082111545,1.1161288999999999,-0.0017627826,-0.17071065,-0.027279496
-8.208981,-0.23301329,0.71985984,0.040805798,-0.10737266,0.011030481000000002
-7.8758893,-0.6210941999999999,1.0441304,0.058904864,-0.05094616,0.052010812000000003
-7.282003,-0.61749333,1.0489667999999999,0.11691961,0.039531708,0.08714429
-6.978677,-1.0114353,0.8828666,0.2356369,0.15557864,0.12334242
-7.221400699999999,-1.4856691,1.1338844,0.39320523,0.21200514,0.16964601
-7.6024523,-1.5156254999999998,1.4760733,0.5225516,0.26310837,0.22076669999999998
-7.6412770000000005,-1.7985435,1.6127821000000002,0.5933596,0.34135148,0.31977922
-7.671032,-2.0074232,1.5667943000000002,0.52735126,0.29239499999999996,0.39004618
-7.995417599999999,-1.6513193,1.2301600000000001,0.14672983,0.21413444,0.31817353
-8.078985000000001,-1.0611198,0.5818198,-0.045954518,0.09754645,0.2553591
-8.351311,-0.9093370000000001,0.3414802,-0.013473942,0.117774814,0.2670703
-8.788205,-0.9375119000000001,0.40030092,0.12171926,0.150779,0.34639549999999997
-9.183631,-0.82043546,0.4345476,0.21060888,0.05763077,0.37566468
-9.771561,-0.5926224,0.38700834,0.27555257,-0.05042256,0.26813492
-10.5552025,-0.55691046,0.1285782,0.4847652,-0.20266764,0.16645205
-11.187569,-0.94931054,-0.7901249,0.53000414,-0.19573867,0.09885545
-11.697772,-1.233895,-1.6044981000000003,0.4368559,-0.12973033,0.11962487
-12.088994999999999,-1.0448009,-1.2811469,0.33836700000000003,-0.14730579,0.20797344
-13.032022,-0.38639542,-0.50740796,0.30855677,-0.14837044,0.2558827
-13.101388,0.84261537,1.4917122,0.36765359999999997,-0.19413297,0.25216517
-12.521512,2.0439491000000003,3.1509035,0.48315948,-0.24736552,0.19254473
-12.345077999999999,0.6501024000000001,2.9172293999999996,0.61411154,-0.26387632,0.11376056
-11.50073,-1.1322945,2.9060438,0.6774495,-0.286234,0.08714429
-11.360785,-2.6671505,3.4174643,0.6795963,-0.31017992,0.08820894
-10.934626,-1.8464754,3.9700365,0.6865078,-0.30485666,0.0977908
-10.256558,-0.30582574,3.4016434999999996,0.69343674,-0.28996900000000003,0.08766789
-10.622067,0.4122911,2.4961946,0.6673441,-0.28304005,0.071174525
-10.230998,0.754365,1.9895337,0.6082647,-0.25216517,0.03817035
-9.702455,0.38523662,1.7632241999999998,0.51829296,-0.18402752,-0.019303342
-9.503583,-0.23584802,1.4334086000000001,0.40491638,-0.05042256,-0.0916996
-8.827863,-0.38012263,1.341701,0.24361305,0.07625344,-0.15557864
-8.072693,-0.23151929999999998,1.0556035,0.06955137,0.16622515,-0.2189341
-7.536659700000001,-0.006991069,0.8341398999999999,-0.06244788,0.2609791,-0.29185396
-7.1608276,0.31116003,0.61909264,-0.18968238,0.42599997,-0.36904988
-6.8497534,0.75516,0.5015565,-0.31798154,0.62189573,-0.42121777
-6.8495717,1.1800063,0.23321441,-0.47713809999999995,0.7507185000000001,-0.47603855
-6.869376700000001,1.4489326,-0.0491769,-0.64961153,0.45153412,-0.48935542
-7.043626299999999,1.6407846999999998,0.056723427,-0.27059585,0.13000958,-0.36372662
-7.1873645999999995,1.6697833999999998,0.012545617,-0.04754277,-0.08288568,-0.41908845
-7.179071400000001,1.5457923,-0.45616248,-0.03265511,0.17100736,-0.3509508
-7.313117500000001,1.373678,-1.0532764,-0.13857915,0.1529083,-0.37650242
-7.666761,1.5066614999999999,-0.60557026,-0.31105259999999996,-0.07597418,-0.17102481
-8.275702,1.9070102999999998,-0.3473795,-0.44680429,-0.18935077,-0.046460666
-9.04424,2.0027880000000002,-0.55962074,-0.40954152,-0.24312437,-0.008133234
-10.34478,2.087945,-1.4653089,-0.27433085,-0.17976889999999998,-0.12524483
-11.281842999999999,1.8626218,-2.7503439999999997,-0.09705776,-0.08449139,-0.21999875
-13.882156,0.77408373,1.140636,0.03387684,-0.037123155,-0.25193828
-18.262214999999998,-1.4039503,5.669211,0.07592182,-0.042428955,-0.26204374
-14.435466,-2.9357509999999998,2.7736635,0.053040557,-0.026459191,-0.23596852
-11.926371000000001,-0.5036634,3.3414724000000002,0.019495327,-0.024870941,-0.18912388
-11.531509,0.17300501,2.5005713,0.013648475,-0.02380629,-0.12470377
-12.061548,0.72755957,2.8147001,0.0024609142000000003,-0.02380629,-0.076270886
-11.875288000000001,0.32078472,3.512811,-0.013491395,-0.06480408,-0.034749504
-11.214536,-0.84995115,3.52664,-0.005497787,-0.07543313,0.008360127
-10.30227,-1.7332679,2.9359425999999997,0.024818582000000002,-0.08981464,0.03176499
-9.552597,-1.7866011999999998,2.3979939999999997,0.07113962,-0.10791371,0.06689847
-8.776864999999999,-1.1783017,1.7997596999999999,0.12969542,-0.09567895,0.115872405
-8.301761,-0.72347987,1.1890851,0.17067574,-0.040317107000000005,0.16804029999999998
-7.903164,-0.75074506,0.8957761999999999,0.23828979999999997,0.034208454,0.21170844
-7.6238850000000005,-0.8135785,0.87551165,0.27342328,0.118839465,0.25534168
-7.2945194,-0.8866016,1.0807331,0.24041910000000002,0.20134118,0.303792
-7.036128,-1.1119246,0.88778913,0.19463912,0.32964033,0.3682121
-7.167014,-1.4278923000000001,0.70866454,0.175999,0.41959462,0.43313837
-7.153444,-1.2976477,0.5172625,0.22390829,0.34082788,0.49916416
-7.331103,-1.0680916,0.41311473,0.37137115,0.2790607,0.550791
-7.6764235,-1.1456925,0.43780372,0.52839845,0.35412732,0.57260764
-7.821953,-1.0853393999999998,0.3988453,0.30108675,0.34559265,0.43153265
-7.809953,-0.7900387,0.34166217,-0.29827678,0.041119955,0.18242182
-7.993157400000001,-0.49708417,0.21563138,-0.52558845,-0.18137461,0.25481808
-8.121141,-0.47869667,-0.11682746599999999,-0.73638934,0.29663616,0.21223204
-8.364775999999999,-0.38779363,-0.31268275,-0.77045816,0.36316812,0.21594960000000002
-8.7358675,-0.17713262,-0.49093586,-0.6038315,0.2918365,0.12386601400000001
-9.712472,-0.116817884,-0.9361233,-0.36163223,0.020891592,-0.010803588000000001
-11.383394000000001,-0.27396372,-0.7937065999999999,-0.29721212,-0.005707226700000001,-0.05284857
-12.385962,-0.87206405,-0.6839181,-0.30414107,0.10445795,-0.024644048999999998
-12.091514,-1.383274,-0.5026291,-0.36322048,0.17578956,0.01314233
-13.791291000000001,0.36970305,1.1162056,-0.36749652,0.1603434,0.09403834
-17.397457,2.939869,1.3783706,-0.29988247,0.08955284,0.17229891
-14.066749,4.413864,1.8266802,-0.23919737,0.041643556,0.17921041
-10.603469,0.80395377,2.175247,-0.25357887,-0.020629792,0.14301229
-9.225519,-1.2966806,3.0627396,-0.30946434,-0.08662069,0.12226032
-10.686913,-2.205347,4.541915400000001,-0.34192744,-0.14997615,0.100967295
-12.334831,-1.6442131999999998,3.2314157000000003,-0.36695546,-0.22821926,0.11747811
-11.850983,-0.90231717,2.6412737,-0.37547270000000005,-0.25431192,0.12332497
-10.406053,-0.107231505,2.5051777000000004,-0.38292524,-0.25802946,0.09245009
-9.829329,0.4058938,1.6756539000000001,-0.35259143,-0.21226694,0.032829642
-9.489121,0.59283304,1.2517459999999998,-0.3509857,-0.17659241,-0.031031952999999998
-8.707099000000001,0.7566826999999999,1.1170579,-0.37386698,-0.09194394,-0.07681194
-8.012081,0.649365,0.776612,-0.33714524,-0.030194197000000002,-0.13377948
-7.48053,0.40827844,0.054827217000000004,-0.21790436,-0.037123155,-0.18008307
-7.337787599999999,0.5009819000000001,-0.20226216,-0.018273598000000002,-0.015289084,-0.22479841
-7.556694500000001,0.5989144000000001,-0.12667242,-0.080564395,-0.0365821,-0.27164304
-7.9696940000000005,0.6336303000000001,0.27844566,-0.03478441,-0.007853981999999999,-0.24396212
-8.041739999999999,0.71400845,0.22073582,-0.066723935,-0.20905554,-0.24396212
-8.103779,0.9957964,0.027523743,0.14512412,-0.47895324,-0.124180175
-7.905788,0.92527276,-0.14828728,0.6572212,-0.42413247,-0.09758136
-7.69982,0.5810248,-0.7150236,0.32398546,-0.051504667999999997,-0.29667106
-7.227233,0.18628804,-0.93720543,-0.020420352,-0.19310322,-0.32274628
-6.9229493,0.19004215,-0.47601518,-0.09759881,-0.21172589,-0.29773572
-7.735100699999999,0.17140569,1.6609821,-0.25996679999999994,0.028326694,-0.24822073
-8.380471,0.059251702999999996,0.49721822,-0.33662164,0.12520991,-0.2013761
-9.277579,-0.052251056,-0.6791105,-0.21312216,0.16407839999999999,-0.13962634
-11.127426,0.7773973000000001,-0.44589612,-0.21151645,0.24658011,-0.18647097
-13.749173,0.55304146,0.8843319,-0.26316074,0.1752485,-0.21415189999999998
-19.154331,-1.1412871999999998,5.7020597,-0.22109829999999997,0.017156586,-0.18168877
-16.273301999999997,-0.62550914,-1.1430973,-0.21258110000000002,-0.05735152,-0.17156586
-14.116222,0.8995781999999999,-1.9912289,-0.26741934,-0.072797686,-0.15826645
-13.535964000000002,1.7321953,1.3788111,-0.32862803,-0.092484996,-0.13536774
-11.114708,1.0373980999999999,2.3324119999999997,-0.3211755,-0.13400638,-0.08693485
-8.997956,-0.14315411,2.8157343999999997,-0.24719098,-0.09354965,-0.051801372000000005
-8.716427000000001,-1.2127013999999998,3.8366027000000003,-0.1540253,-0.038728856,-0.028379052999999998
-8.151539,-0.9019915999999999,3.6482365,-0.08375835400000001,-0.008395034000000001,-0.023596851000000002
-8.12186,-0.49153918,2.3557124,-0.012426743999999998,-0.037123155,-0.008691739
-9.532112,-0.27888620000000003,2.1492555,0.08176868,-0.025411992999999997,0.010995574
-10.157103999999999,-0.09967541,2.1017451,0.21645573,0.018744836,0.045588
-9.717557000000001,-0.7336313,1.591014,0.38093555,0.094876096,0.08710938
-8.742054,-1.2154308999999999,0.9442731,0.47568950000000004,0.2401922,0.14620623
-8.223460000000001,-1.1818928999999998,0.81133753,0.51082295,0.41692424,0.20582668
-7.8046474,-0.8602940999999998,1.1433941,0.46026078,0.58620375,0.25427702
-7.3275213,-0.78398615,1.2290395,0.29630455,0.6964038,0.29312804
-7.1446423999999995,-1.2967858,1.0129963,0.20048597,0.67724013,0.3335848
-7.045044,-1.6668624,0.55172944,0.30908036,0.57396895,0.39481091
-7.1249046,-1.5002546,0.2956552,0.50443506,0.61655504,0.43792057
-7.2212570000000005,-1.289498,0.374434,0.53637457,0.75920075,0.3724358
-7.364056599999999,-1.1286459,0.37622485,0.33728486,0.63997734,0.14407693
-7.0644083,-1.0756093999999998,-0.021519085,0.18184586,0.21837559999999998,0.10733775
-6.9347286,-0.93780875,-0.15795027,-0.074717544,0.47441540000000004,-0.11355112
-6.983685,-0.09652463,-0.44027454,-0.16947147,0.415336,-0.05232497
-7.6763754,0.54556197,-1.3300462,0.0051138145,0.27639034,-0.009756391
-9.218595500000001,0.5059140000000001,-1.7047386000000002,0.26275933,0.07995354,-0.07415904
-11.324938000000001,0.14233051,-1.3503872,0.39371136,0.04803146,-0.086393796
-12.152757000000001,-0.38749677,-1.1813373999999999,0.33941418,0.026197392000000003,-0.016144296000000002
-11.323148,-1.1531817,-1.7580622,0.2473306,-0.02755875,0.07113962
-12.545799,-0.8547779000000001,0.62399596,0.21910863,-0.077597335,0.18027505
-15.438502,1.8792088,-0.3392584,0.24253096,-0.163293,0.27235863
-14.414357999999998,3.4052634,3.233331,0.27181756,-0.20322613,0.27768190000000004
-13.452492000000001,1.3573496,3.3611815000000003,0.24466026,-0.19577359,0.19411552
-12.914707,-0.78319126,3.7785292,0.19622737,-0.19896753,0.07806858
-13.369126999999999,-1.8956236000000002,4.139843,0.14990632,-0.1654223,0.0008901178999999999
-13.037549,-1.6352015,2.4553877999999996,0.14831808,-0.15744615,-0.027314402
-12.611103,-0.8727726999999998,1.5137483999999999,0.14138912,-0.109536864,-0.054471727000000005
-11.953933000000001,0.15273091,1.098182,0.11477285,-0.08876745,-0.094387405
-10.360362,0.7147937,0.6203664000000001,0.059952057999999996,-0.007853981999999999,-0.14070845
-9.092651,0.6933417,0.52336293,-0.04436627,0.07623598,-0.18488273
-7.9005113,0.47863922,0.44420102,-0.15350170000000002,0.13266248,-0.22055726
-6.6205425,0.43472955,0.17813818,-0.19022344,0.22102849,-0.23970352
-5.9986242999999995,0.675117,0.059184667,-0.17851228,0.37592646,-0.21736329999999998
-5.9466705,0.9183870000000001,0.055641245,-0.0864287,0.4722861,-0.16678366
-6.4357004,1.1907802,0.02333868,0.018954275,0.53190655,-0.14229669
-7.0333796,1.3245107,-0.11388739,-0.001256637,0.56384605,-0.16732472
-7.4800034,1.2820088,-0.67046267,-0.10398672,0.47069785,-0.19713494
-7.953002000000001,1.1194521000000002,-0.75751585,0.094544485,0.32162929999999995,-0.12580334
-7.757032000000001,0.880281,-1.6117096000000002,0.11477285,-0.013177236,-0.14390239
-7.706964,0.77878594,-1.9148058999999997,0.053023104,-0.03234095,-0.07735299
-7.9717913000000005,0.9932201999999999,-1.2792507,0.19516271,0.0011693706,-0.029443703999999998
-8.524574000000001,0.86255425,-0.9036386999999999,0.11477285,0.106569804,-0.06618288
-9.308522,0.5897206,-1.0408458,-0.27806586,-0.12070697,-0.0017627826
-10.127809,0.46403462,-1.5529749,-0.4111472,-0.29691540000000005,0.12065461
-10.6849,0.9141828000000002,-2.2788298,-0.36803758,-0.34854224,0.10946705
-11.344839,1.6019219999999998,-2.7234714,-0.25092600000000004,-0.2867925,-0.00710349
-13.50866,1.4729416000000002,-1.1791635,-0.15030776,-0.22823670000000001,-0.10770427
-15.549325,0.38171238,0.20251116,-0.075782195,-0.20854940000000002,-0.21204005
-14.242053,-0.98395944,0.46205219999999997,-0.02094395,-0.19683823,-0.27750736
-15.087522,-2.1125286,2.3355916000000003,-0.059812434000000005,-0.19577359,-0.26792550000000004
-11.981926,-0.5879489,0.6864272,-0.13805555,-0.23888321,-0.20671679
-9.977988999999999,0.69024837,-0.47119805,-0.15243706,-0.2671052,-0.14709635
-10.096636,0.64710486,0.92113554,-0.11782718,-0.26656413,-0.120480075
-10.776714,1.0484976000000001,2.196862,-0.063006386,-0.26178193,-0.105574965
-10.103100999999999,0.6733836,1.8871194,-0.010297443,-0.24740042,-0.08854055400000001
-9.762827,-0.7118057,1.8773414000000002,0.015236723999999998,-0.23781857,-0.056059975
-9.331275999999999,-1.4142454,1.5276347,0.052499502999999996,-0.22664845,-0.017208947
-8.553918,-1.0673542,0.85114825,0.12967797,-0.1585108,0.028029988
-8.192766,-0.76841426,-0.27110982,0.19249237,-0.037140608,0.07913323
-8.172866,-0.87272483,-0.7689314,0.21910863,0.091664694,0.15044738
-8.238975,-0.7986003,-0.4773847,0.19142771,0.25987953,0.20528562
-8.001863,-0.6285929,-0.088958964,0.07431612,0.35463345,0.23083724
-7.859082000000001,-0.81223774,-0.15890796,-0.07365289,0.39402553,0.2425484
-7.9917974,-1.0501735,-0.42114967,-0.123691484,0.37325612,0.23083724
-8.11122,-1.0799477,-0.64317834,-0.019355701,0.3386637,0.24202481
-8.273814999999999,-1.0014945,-0.7537043000000001,0.12487831,0.36847392,0.22338470000000002
-8.109899,-0.89490473,-0.75975686,0.0503702,0.39189622,0.06316347
-7.874500299999999,-0.63506675,-0.8320234000000001,-0.13700834,0.07410668,0.01844813
-7.6638779999999995,-0.3686879,-1.0089261999999999,-0.32011083,0.05014331,-0.010279989
-7.415589999999999,-0.14962804,-0.96668285,-0.37868407,0.09911725,-0.07150614
-7.180862400000001,0.14454274,-1.2739068,-0.34407422,0.11349876,-0.025202554
-7.812682000000001,0.27753586,-1.6507063000000002,-0.2115339,-0.05417502,0.023771385
-9.235097,0.05281609,-1.7191995,0.026406832,-0.145735,0.013124876
-11.21401,-0.3710055,-1.2316923,0.1200961,-0.14414674,-0.018273598000000002
-12.305114,-0.7031579000000001,-1.4452741000000002,0.15948819,-0.12604767,-0.008691739
-12.797812,-0.97516793,-1.5703089,0.21378538,-0.10899581,-0.00017453292
-14.088057500000001,-0.51478213,-2.6425955,0.28618163,-0.17022195,0.048258353
-14.853809,0.8308167,-1.737022,0.4469439,-0.276146,0.12969542
-14.325725,1.3356485,0.624676,0.6039711999999999,-0.3320489,0.15098843
-12.519060000000001,-0.046112325,1.2518802,0.6391220999999999,-0.33363715,0.12011356
-11.426777000000001,-1.2397752,1.8373392,0.58161354,-0.32459635,0.099885195
-11.804755,-1.5358038,3.941469,0.46504298,-0.33737215,0.08710938
-11.24796,-0.5837255,2.6488204,0.33728486,-0.32246703,0.07698647
-10.957025999999999,-0.9022597,1.79138,0.21217968,-0.30169759999999995,0.047717302999999996
-11.020394999999999,-0.31362128,1.8606874,0.103602745,-0.2883982,-0.014538593
-10.838695,-0.4652317,1.4473428,0.03918264,-0.20268509,-0.094387405
-10.135173,-0.7440604000000001,0.7120451999999999,-0.002321288,-0.07014478,-0.17957693
-9.056882,-0.6619297,0.32019094,-0.090687305,0.04321435,-0.23759167
-8.272092,-0.22063048,0.3240696,-0.15830137,0.18109536,-0.30253538
-7.705642699999999,0.15966453,-0.014279018999999999,-0.18704693,0.27691394,-0.34831536
-7.358933,0.59305334,-0.49230534,-0.23122121,0.35198054,-0.331822
-6.935485400000001,1.2403401,-0.759163,-0.20301670000000002,0.40093702,-0.22748621
-6.739927000000001,1.6538571,-0.74206847,-0.13966125,0.38711402,-0.15880750000000002
-6.8725366999999995,1.6542976000000003,-0.7023439,-0.084823005,0.42809436,-0.18648843
-6.847005,1.2625678999999999,-0.844751,-0.17107718,0.36847392,-0.27272514
-6.633758,0.8264497,-1.0414778,0.12274901,0.27904323,-0.23865633
-6.470282,0.42164764,-1.8712984000000001,0.07644542,-0.057910025,-0.17212437
-6.5678315000000005,0.16291106,-2.1056046000000004,-0.17746508,0.048014008,-0.0832173
-7.186972,0.5352956,-1.3957909,-0.16627751,-0.18671532,-0.016144296000000002
-8.611005,0.8570859000000001,-0.9311721,-0.022026055,-0.29159215,0.1802576
-10.356138,1.1285213,-1.0320253000000001,-0.047577675,0.02724459,0.1823869
-12.393288,1.2407615,-0.9319095,-0.26316074,0.007557275699999999,0.16163494
-12.724828,0.7683089,-2.029651,-0.46970302,-0.097825706,0.13821262
-10.7219925,0.7424801999999999,-3.1783028,-0.54955184,-0.07014478,0.0450644
-12.666706,0.5836489,-0.56426543,-0.47024405,0.0011693706,-0.026267204
-16.196344,-1.5882272,0.8894938,-0.29510027,0.023527037,-0.05766568
-13.374595000000001,-1.1343153,-1.8454124,-0.18224728,0.025132742000000003,-0.12421508
-12.774138,-0.11113884,1.7099485,-0.16627751,0.028326694,-0.14337879999999997
-12.727556,-1.2003857,3.0929349999999998,-0.17479472,-0.023823743999999997,-0.11993903
-12.37378,-2.055154,4.2487507,-0.17266542,-0.10899581,-0.09121091
-10.406752000000001,-0.40827844,2.5971344,-0.15243706,-0.17606881,-0.061924282000000004
-10.844575,1.4210066000000001,1.5280753,-0.13646729999999999,-0.21015509999999998,-0.050754175
-10.483577,1.5502169,0.8056297,-0.118909284,-0.18725638,-0.039566614
-10.046558000000001,-0.32815890000000003,1.1983745000000001,-0.09761626,-0.14734070000000002,-0.000715585
-9.710901,-1.8270057000000002,1.6074958000000001,-0.034801867,-0.1452114,0.040788345
-8.836194,-1.8225523999999997,1.2410872,0.042900192999999996,-0.10262536,0.08389798
-7.944335000000001,-1.3237158000000002,0.5534628,0.14671238,0.009145525,0.12808971
-7.727678999999999,-1.2104126,0.21175277,0.18024015,0.15873769,0.19889772
-7.7502894,-1.3487592,0.01685518,0.21165608,0.26733208,0.26010639999999996
-7.902283000000001,-1.5300481000000001,0.04390966,0.17917550000000002,0.3040538,0.25904176
-8.230518,-1.5130972,0.16080417,0.057805302999999995,0.30724776,0.25052455
-8.163672,-1.2356858,-0.021250935,-0.04597197,0.269985,0.25478315
-7.8749027,-1.2452816999999998,-0.32570723,-0.038519416,0.2742436,0.26171213
-7.8325830000000005,-1.2322669,-0.57388055,0.055676002,0.39348447,0.27927014
-7.7616663,-1.1483166,-0.47784436,0.08389798,0.45097563,0.33782592
-7.5787306,-1.0866513999999998,-0.3650583,-0.012444196999999999,0.43874088,0.30108675
-7.3871082999999995,-0.9095189,-0.71108747,0.03970624,0.28595474,0.31014502
-7.685914,-0.5131253,-0.7730399,0.22814944,0.38976693,0.27448794
-8.090103,-0.008561665,-0.69503677,0.07909832,0.23165755,0.013107423
-8.683588,-0.23778254,-1.1864322,-0.05448918,-0.0052010813,0.00991347
-10.193429,-0.6716789000000001,-1.3396324,0.048223447,0.10709339999999999,0.03281219
-11.459799,-0.11063127,-1.7024498,0.14936528,0.040561453,0.023230333
-11.086936,0.39899850000000003,-2.3397287999999996,0.17332865,-0.007871435,-0.0044505894
-10.916955999999999,-0.13010092,-2.9230235,0.20685643,-0.040858157,0.046111599999999996
-11.91281,-0.97848153,-2.3694553,0.20259781,-0.11114257,0.093479834
-13.446918499999999,-0.89708817,-2.3486542999999998,0.21272072,-0.18673277,0.14086552
-13.30816,-0.5905347,0.039724596,0.23507840000000002,-0.25912905,0.20954423
-12.608767,0.43489236,2.4410417,0.22869049,-0.28893927,0.25000095
-13.269834,0.048717215999999994,1.4376415,0.14617133,-0.31662017,0.21273819
-12.3051815,0.38428852,1.7629465,0.053023104,-0.34801865,0.15524703
-11.641748,-0.59766936,2.3283037999999996,-0.007644542,-0.3512126,0.10307915
-11.262334,-1.3416818000000001,0.98307836,-0.05129523,-0.34430109999999997,0.06794567
-11.420323,-1.053851,0.63321847,-0.109851025,-0.35227725,0.024294984
-11.507769,-0.43850285,0.76440156,-0.14978416,-0.28307495,-0.0198793
-10.4292,-0.21713494,0.49016014,-0.24080308,-0.19151498,-0.09386381
-9.007552,-0.0028730421,0.10768162,-0.3163933,-0.11698942,-0.15669566
-7.777334700000001,0.18500476,-0.100575626,-0.33609805,-0.036617007,-0.21416935
-6.9917583,0.54094595,-0.17612706,-0.2892534,0.045884706,-0.24984388
-6.8584304000000005,0.8845618000000001,-0.27660692,-0.24240878,0.17842501,-0.2604904
-7.034203,1.2847478,-0.3013534,-0.2115339,0.2827608,-0.24877924
-7.499444500000001,1.7419924999999998,-0.29109663,-0.19982274,0.28808406,-0.22855087
-7.9702782999999995,1.8834705000000003,-0.72267544,-0.19928169,0.32108822,-0.2865656
-8.133600999999999,1.1941799,-0.76311827,-0.28019515,0.37379718,-0.37121409999999994
-8.022376,0.5639398,-1.1236466999999999,-0.17373008,0.19493583,-0.3855956
-7.77699,0.08846097,-2.1014004,0.016824974,-0.1542522,-0.37014943
-7.537560000000001,0.20065325,-1.8893698,-0.1359437,0.018203784,-0.42444659999999995
-7.7265773,0.6869921999999999,-0.66856647,-0.23441517,-0.048328165,-0.32808699999999996
-8.140736,0.87488914,-0.36934870000000003,-0.0773879,-0.32459635,-0.09546951
-8.886481,0.5883894000000001,-0.9806459000000001,0.18875736,-0.16598082,0.07379252
-10.065750999999999,0.3694445,-1.5038267,0.004049164,0.0421497,0.008848819
-11.650644999999999,0.47502878,-1.5620825,-0.21525146,-0.13243559,0.06260496
-11.553776,0.53244174,-2.4094957999999997,-0.29616493,-0.25007078,0.108384944
-11.93794,0.8070088000000001,-2.584397,-0.26050785,-0.24952972,0.041329395
-15.339995000000002,-0.29587546,0.6393380999999999,-0.15936601,-0.17448056,-0.04223697
-13.732289000000002,-1.4624263000000002,-2.709997,-0.04544837400000001,-0.15852825,-0.13912019
-12.243038,-0.5017576,-1.2853128999999999,0.026406832,-0.12552407,-0.21471039999999997
-12.905475,-0.61024374,1.0257622,0.026406832,-0.10156071,-0.22961551
-13.626379,-1.1405882,3.1598482000000003,0.008831366,-0.1452114,-0.20195204
-10.936895,-0.22001757,2.3627324,0.058869954,-0.18353882,-0.15988961
-9.246685000000001,0.27791893,1.5008676,0.14617133,-0.2075022,-0.12795009
-10.248667999999999,0.59365666,1.7505733,0.19940387,-0.22773056,-0.09121091
-10.369173,0.7820803000000001,1.8487354999999999,0.22708479,-0.2075022,-0.060877085
-9.809121000000001,-0.020906169,2.040492,0.23507840000000002,-0.17289232,-0.001256637
-9.468617,-0.8805874,1.8936411,0.21856758,-0.13721779,0.06421066
-8.996462,-0.8478251,1.2565441000000002,0.24837779999999998,-0.07335619,0.12915437
-8.4431715,-0.7355946,0.45479298,0.3117158,0.038414698,0.1871691
-8.153617,-0.9697761999999999,0.04024174,0.31599185,0.17790142,0.20900318
-8.018134,-1.1092241000000003,0.12233413,0.20631537,0.3024481,0.22602014
-7.755672,-1.1021277,0.35934094,0.063669614,0.37486179999999997,0.25104815
-7.641889599999999,-1.2371031000000001,0.09546161,-0.00286234,0.42807690000000004,0.28033477
-7.8102117,-1.3204023,-0.15708837,0.002443461,0.45682248,0.29256955
-8.06097,-1.1227368999999998,-0.35296279999999997,0.07218682,0.44458770000000003,0.30962140000000005
-8.270301,-0.8276372,-0.6140553000000001,0.16214108,0.43713516,0.34580207
-8.1492405,-0.6978236,-0.8415523000000001,0.13391912,0.51111966,0.34473744
-7.74303,-0.31041303,-1.0118854,-0.05396558,0.50101423,0.21272072
-7.258195,0.16922218,-1.3172898000000002,-0.07792895,0.04960226,0.21006782
-7.1409554,-0.06475837,-1.3932912,0.013613568000000001,0.1635199,0.12808971
-7.6283574000000005,-0.5142074999999999,-1.0652761,0.0013788101,0.2311165,0.059952057999999996
-8.523415,-0.25510700000000003,-0.9808278,-0.012444196999999999,0.09484119,0.029077185
-9.409193,0.39469853,-1.3379087,0.11794935,-0.048328165,0.02480113
-10.446477,0.29252356,-1.6465020000000001,0.25476572,-0.0951728,-0.016702801
-11.586806,-0.42169553,-1.6699172999999998,0.25209534,-0.15214035,-0.052883476
-11.835410000000001,-0.9259335999999999,-2.4344435,0.23560199,-0.17502162,-0.048624873
-12.66345,-0.98745495,-2.2623097999999997,0.1855634,-0.18460347,-0.025202554
-14.711986999999999,-0.30187052,-2.3048213,0.16692328,-0.20856684,0.06421066
-15.495358999999999,0.9499618000000001,0.2833011,0.26541220000000004,-0.29160962,0.10519099
-13.584949499999999,0.81752414,1.3301705,0.31810370000000004,-0.31716123,0.08815658
-11.94721,-0.8654273000000001,0.37742198,0.2696708,-0.29906216,0.041311942000000004
-10.629432000000001,-1.3510096999999999,0.8549024,0.15681784,-0.30970868,0.029077185
-11.061278999999999,-0.35967615,3.426476,0.032253683,-0.35335937,0.046111599999999996
-11.257986,0.3367397,1.8943785,-0.096028015,-0.36665878,0.055676002
-11.202153,0.06151183,1.5074851999999999,-0.19982274,-0.35123006,0.008307766999999999
-10.8897295,0.16182889,1.6210661,-0.23656192,-0.3714584,-0.049706977
-10.416433999999999,-0.28282225,1.1511897,-0.27063075,-0.28841567,-0.10293952
-9.762702,-0.42943358,0.42938572,-0.31906363,-0.11807153,-0.15030776
-8.714233,-2.8730421000000003e-05,0.16612886,-0.3760312,0.049061205,-0.17001252
-8.012972,0.51418835,-0.1957595,-0.35739106,0.19545943,-0.18544123
-7.548908,0.74281543,-0.5458301,-0.25998425,0.2832844,-0.20566959999999998
-7.296885499999999,1.2027799,-0.7327215,-0.14926055,0.34876913,-0.19982274
-7.1383505000000005,1.6499688999999997,-0.66006225,-0.03960152,0.33384657,-0.13646729999999999
-7.185382400000001,1.5470278,-0.563461,-0.029478611000000002,0.33705798,-0.10133382
-7.496455999999999,0.92217946,-0.54895216,-0.1423316,0.32693508,-0.17533578
-7.5850610000000005,0.6915604000000001,-0.5187373,-0.21579250000000003,0.19917697,-0.19076449
-7.398725,0.51419795,-0.85286254,0.09239773,-0.0068242373,-0.09761626
-7.0539119999999995,0.3407428,-1.9899168,0.056199603,-0.16652186,-0.119973935
-7.0525804,0.37523845,-2.0288177,0.030124382999999998,-0.15959291,-0.01616175
-7.6703997,0.8317936,-0.8395604,0.07269296,-0.11541862,0.049288097999999995
-8.485951,0.7713350999999999,-0.49638504,0.075363316,-0.051539574000000005,0.08175122
-9.518244000000001,0.35713828,-0.8754063,-0.1870644,-0.079220496,0.08494517
-11.116412,0.38400123,-0.9169314000000001,-0.38241908,-0.2160194,0.16266468
-11.913633,0.8780687,-1.7926058999999996,-0.42127013,-0.15481070000000002,0.14671238
-11.876322,1.1774781,-2.5060778,-0.39467129999999995,-0.08719665,0.07909832
-15.337112,0.0027293898,0.7307104,-0.36751398,-0.04194026,0.028536132999999998
-14.834503,-1.2208417999999999,-1.9985647000000002,-0.29140016,-0.013735741000000001,-0.046513025
-13.931773000000002,-0.47268248,-0.2348616,-0.20090485,0.028815385,-0.119973935
-13.759343,-0.54800403,1.6591433999999998,-0.191323,0.009669124,-0.141808
-11.96985,-0.09692687,1.9603053,-0.21898647,-0.07389724,-0.12423254
-10.467766000000001,0.40432322,1.9167691000000002,-0.19716984,-0.13990559,-0.09496336400000001
-10.714177000000001,-0.1829266,1.6762762999999998,-0.15512486,-0.17397442,-0.0795172
-10.666848,0.58465445,2.1514776,-0.11573278,-0.20165534,-0.086969756
-9.973286,0.9233860999999999,1.830214,-0.05611233400000001,-0.18407987,-0.067282446
-10.033534,-0.32965285,1.4630967,0.023195425,-0.1500285,-0.019373154
-9.412602,-0.8967626,1.3216951000000001,0.09239773,-0.11487757400000001,0.031189033999999997
-8.561311,-0.81215155,1.0993122,0.18448131,-0.04675737,0.09719738
-7.938924,-0.86245847,0.36564250000000004,0.27871162,0.045867253,0.16585864
-7.9247212,-0.9728120000000001,0.008858547,0.34950218,0.1624378,0.22228514
-7.953174000000001,-1.0183593,0.20534588,0.31384509999999993,0.31094787,0.24996606
-7.7884145,-0.95775735,0.4349594,0.17331119,0.33810517,0.2616772
-7.674614,-1.1447636,0.28254452,0.022130774,0.25825638,0.27019440000000006
-7.7442656,-1.4539222,0.12629893,-0.018849555,0.25186846,0.26220079999999996
-7.861016800000001,-1.2887414,-0.08371087,0.1168847,0.33810517,0.27497659999999996
-7.899544000000001,-0.99645716,-0.42884940000000005,0.20844467,0.42114794,0.27551767
-7.940954,-0.9686461,-0.5208921,0.029583331,0.35407495,0.15041247
-7.719193499999999,-0.8535040999999999,-0.4951209,-0.15725416,-0.10264281,0.15414748
-7.3244853,-0.7049486999999999,-0.6035974000000001,-0.19291124,0.040002946,0.079080865
-6.9406757,-0.35793316,-0.7135295,-0.21952751,0.20821778,-0.110933125
-7.3105035,-0.06554367,-0.8113566,-0.19664624,0.2279051,-0.067282446
-8.747378999999999,0.09187031,-0.9608697,0.07855727,-0.061138883,0.0034906585
-10.429210000000001,0.34997480000000003,-0.99063444,0.38090065,-0.14151129,-0.0034033920000000003
-11.621972999999999,0.49265010000000004,-1.4070243999999998,0.43467426,-0.21443115,-0.055571284000000006
-11.791155999999999,0.22364718,-2.3428795,0.29307568,-0.1436406,-0.025237462000000002
-12.874753,-0.26916575,-2.0722773,0.14295992,-0.10477211,0.022654373
-15.122420000000002,0.06460514,-2.6420112000000002,0.04394739,-0.053145275,0.08546878
-15.546135999999999,1.3218579,-1.1013614999999999,0.065764,-0.12660618,0.15254177
-13.823853,1.2380896000000001,2.0857232,0.14508922,-0.22722441,0.15093607
-12.724205,-0.22878033,1.1722777,0.15999433,-0.26820475,0.08492772
-11.647572,-1.4600224,1.0255036,0.11473794,-0.2836509,0.006143559
-11.066881,-1.6325198,3.7334223,0.03330088,-0.27672195,-0.026843164
-10.897908000000001,-0.6769748999999999,3.297668,-0.06197664,-0.29110345,-0.025778513
-10.748032,0.34742740000000005,1.4312346000000002,-0.12424999,-0.29749137,-0.03323107
-10.463667,0.33909559999999994,1.2745101,-0.13809045,-0.29749137,-0.08433431
-9.871715,0.4860804,1.3605865,-0.15247196,-0.30068532,-0.1348965
-9.58692,0.19661185,0.95221233,-0.23125613,-0.22455406,-0.18067649
-9.072502,-0.052021213,0.5837446999999999,-0.31909853,-0.11863003,-0.21795672
-8.138792,0.16949032,0.15535496,-0.37018433,-0.020141099,-0.25094345
-7.512985700000001,0.38100368,-0.13204502,-0.37285468,0.12463396,-0.2898119
-7.191674000000001,0.45461103,-0.24464911,-0.31749284,0.23109904,-0.30524063
-7.2577543,0.92957276,-0.3803333,-0.22645646,0.27101472,-0.2850297
-7.576346000000001,1.7081288000000001,-0.51480126,-0.12585570000000001,0.31731832,-0.23924974
-7.968794,1.7349056,-0.483782,-0.15247196,0.40783107,-0.23977333
-8.260761,1.2066393999999998,-0.7415034,-0.27916542,0.42060688,-0.28075367
-7.926665299999999,1.0615603,-1.1208025,-0.41757002,0.25239205,-0.30311134
-7.544474,0.8950004999999999,-1.4732769,0.09238028,0.2624975,-0.20518091
-7.1224723,0.5628864,-2.0998588,0.058852499999999995,0.057019908,-0.20676915
-6.7901473,0.46238738,-1.4735258,-0.11840314,0.06234316,-0.15406021
-7.0294914,0.3685634,-0.47127464,-0.022584561,-0.15004596,-0.028448867000000003
-7.9041505,0.19408357,-0.21919395,0.14561282,-0.24479988,0.18606955
-9.214439,0.24323173,-0.36705986,0.23291420000000002,-0.005794493,0.17114699
-10.932481,0.6821464,-0.9206280000000001,0.026895522999999998,-0.058485985,0.16955873
-11.970166,1.2493614,-2.0619247,-0.16472417,-0.19954349,0.17062339
-11.924321,1.7714412,-3.178954,-0.26532495,-0.24373522,0.10355038
-14.248488,0.57946384,0.22384828,-0.24989624,-0.22828907,0.031154128
-14.923797,-1.8806836999999998,-1.0784633999999997,-0.14554301,-0.1580221,-0.04759513
-12.891406,-1.5953141000000002,-2.0270557,-0.052394785,-0.1447227,-0.14501941
-14.349905999999999,-1.9302247,1.2396123,-0.04441863,-0.13514084,-0.20570451
-13.5579815,-1.7616918999999998,2.4405822999999995,-0.07049385,-0.1452463,-0.18228218
-12.848713,-1.3408391000000002,4.1589775,-0.07262315,-0.20114920000000003,-0.11840314
-9.930458999999999,0.3437116,2.6404788,-0.036966074,-0.21233675,-0.08009316
-9.707213000000001,1.1142328000000001,1.7747643,-0.010873401999999999,-0.22989477,-0.062517695
-9.813134,1.5313983999999998,1.5913396999999998,0.015184363999999999,-0.23308872,-0.051330134000000006
-10.236897,0.18395129999999998,1.1277839,0.05989969999999999,-0.19369663,-0.029513517000000003
-10.016592999999999,-1.0969466,1.3273455,0.08758062,-0.1463284,0.017837266
-9.040179,-1.2345462,1.2573006000000002,0.14348352,-0.11756538,0.076934114
-8.325971000000001,-1.1624423000000002,0.61043525,0.22598523,-0.090425506,0.13709562
-8.009361,-1.4117745000000002,0.13709200000000002,0.30051079999999997,-0.014294246000000002,0.21162117
-7.983618700000001,-1.2692143,-0.041189846,0.37877136,0.12781046,0.29996973
-7.7294216,-1.0639353,0.14169843,0.41709880000000005,0.31571259999999995,0.3888768
-7.647568700000001,-1.1517546,0.10071927,0.36173695,0.40781364,0.44423866
-7.851794,-1.4636806999999998,-0.030827742,0.2462136,0.33967596,0.46979028
-7.856447999999999,-1.3454552,-0.15528792,0.2526015,0.21137683,0.46392596
-8.029185,-1.1947450000000002,-0.374185,0.4367861,0.23055799999999999,0.41229913
-8.22845,-1.1972061,-0.65786916,0.46820202,0.46902233,0.28241172
-8.020471,-1.0571262,-0.8017989999999999,0.35321975,0.31677726,0.108873636
-7.723828999999999,-0.95747954,-0.9182434000000002,0.13816026,0.10971139,0.080128066
-7.4145746,-0.92954403,-0.77167034,-0.055065135999999994,0.036250487000000005,-0.04441863
-7.032287599999999,-0.61711985,-0.47396576,-0.24083798,-0.058485985,-0.0667763
-7.176466499999999,0.03787627,-0.67435086,-0.00022689281000000004,-0.062220987,-0.0028972465
-8.048013000000001,-0.0089543145,-1.3923143999999998,0.23078490000000002,-0.11650073,-0.06517059
-10.053645,-0.9456713999999999,-1.3241947,0.29892254,-0.11013027,-0.18495254
-12.11942,-1.4761594999999998,-0.7793127,0.26378906,-0.106395274,-0.13171999
-12.569903,-1.4069766000000001,-0.98477346,0.10622074,-0.09787806,-0.029513517000000003
-13.574845000000002,-0.35845029999999994,-0.6848183000000001,-0.0028972465,-0.102136664,0.053511795
-15.476723000000002,1.5479472,-1.3754879999999998,-0.0023561944,-0.121300384,0.14187782
-15.412664000000001,1.9352619999999998,0.31415758,0.063093655,-0.13939945,0.17221163
-15.609276000000001,1.2670978000000002,2.2794428,0.10461503,-0.1425934,0.13814281
-14.038018,0.5635663000000001,2.327461,0.08066912,-0.13247049,0.07641052
-11.593194,-0.41399579999999997,4.136012,0.00986111,-0.1511106,0.040212385
-10.052966,-1.3003867,3.2234576,-0.056129787,-0.15430456,0.050858892999999995
-10.630139999999999,-1.3386173000000001,2.1691563,-0.09871582,-0.18997909,0.057229348
-10.84944,-0.10214622,1.4570729,-0.12746139,-0.18784979,0.02316052
-10.154404,0.9079290999999999,0.89544106,-0.20198695,-0.22350687,-0.021537364
-9.090209,1.3338864,0.5629439,-0.26319566,-0.23734732,-0.08433431
-8.14381,1.0378865,0.72976226,-0.37072540000000004,-0.24000022,-0.17057103
-7.367092599999999,0.54833925,0.6626097,-0.512324,-0.21125466,-0.26373670000000005
-6.954505,0.30746338,0.26206929999999995,-0.65339893,-0.121300384,-0.31642818
-7.027297999999999,0.42825565,-0.16194381,-0.7295126999999999,-0.008447394,-0.3377212
-7.311489599999999,0.86338747,-0.23637474,-0.7870039000000001,0.120898955,-0.33985052
-7.723905,1.5314081,-0.30062556,-0.77635735,0.22097613,-0.33559190000000005
-7.999095,1.6075915,-0.04633259,-0.6065368,0.21511184,-0.26373670000000005
-8.179694,1.1449072,-0.53227895,-0.41704643,0.2539803,-0.30365238
-8.161547,0.8488786,-1.0670382,-0.41757002,0.11770499999999999,-0.40905282
-7.7705636,0.7075345000000001,-1.071482,-0.10669198,-0.030264008999999998,-0.38191295
-7.4413032999999995,0.7921071999999999,-0.8734814000000001,0.10142108,-0.4438896,-0.35477307
-7.303627499999999,1.0130154,-0.66074216,-0.063582346,-0.23254767,-0.24350834
-7.3563766,1.598982,-0.19889113,0.15413003,-0.17931512,0.008796459
-7.685885400000001,1.8245254000000002,-0.12861651,0.4474326,-0.11437143,0.1727527
-8.633607000000001,1.1431451000000001,-0.71547365,0.5618913000000001,0.0085695665,0.13548991
-10.461177000000001,-0.1498483,-0.9620094000000001,0.35321975,0.043179445,0.13336061
-12.430944,-0.63668525,-0.90779513,0.104091436,-0.0866905,0.21959732
-12.062600999999999,-0.5240045999999999,-2.1810603,-0.0028797933,-0.10585422,0.178617
-13.483512,-0.41213787,-0.6194854000000001,0.00986111,-0.0819083,0.10674433400000001
-16.72574,-1.7996448,1.3904181999999998,0.11580259,-0.021746803,0.00720821
-13.618429999999998,-1.6822331000000001,-0.89002055,0.21481512,-0.00045378560999999995,-0.12692034
-13.430897,-1.4855924999999999,1.7862468,0.25474826,0.018692477,-0.1886701
-13.080242,-1.0999728000000002,3.4733067,0.27391198,0.019757127,-0.15140732
-11.718574,-0.7162877,4.205348000000001,0.31169835,-0.010035643,-0.11362094
-9.398697,-0.18456422,3.1651156000000005,0.32660347,-0.064332835,-0.08433431
-9.668505,0.1884141,2.651626,0.33937928,-0.10107201,-0.06997025
-10.247297999999999,1.7614142,2.6459662999999995,0.38515925,-0.11171853,-0.054524086
-10.108606,1.1113118,2.1890762,0.4378682,-0.09681341,-0.026843164
-9.944767,-0.5744648,2.5695052000000005,0.48258352,-0.055274576,0.00827286
-9.181256,-1.083769,2.256516,0.49961796,-0.046774823,0.065764
-8.3641815,-1.1129398000000001,1.2055476,0.5155877000000001,-0.026005406000000002,0.14828317
-8.032278,-1.1688397,0.5956391,0.5485919,0.11079349999999999,0.21003293
-8.050637,-1.0313168,0.5457918,0.5395336,0.32904693,0.24516639999999998
-7.936951,-0.8998559000000002,0.51045334,0.48045424,0.49778536,0.28934067
-7.812615400000001,-0.9097296,0.3384348,0.32182127,0.5653994000000001,0.30052823
-7.753239,-1.0454424999999998,0.43971908,0.14402457,0.5228134,0.28401740000000003
-7.8692910000000005,-0.940203,0.44278365,0.04872959,0.49939105,0.2350435
-7.865766499999999,-0.7186819000000001,0.20481917,0.09025098,0.50897294,0.2499486
-7.993406299999999,-0.66663194,-0.12958378,0.18554595,0.52333695,0.3010693
-8.029836999999999,-0.6845979999999999,-0.43775582,0.13763666,0.50523794,0.22706734
-7.620035000000001,-0.39586687,-0.6737092,0.047141342999999995,0.15816173,0.014660765
-7.0641303,-0.09171708,-0.78289443,-0.017261306,0.19064231,-0.011920598000000001
-6.860202,-0.086583905,-1.0581892,-0.12585570000000001,0.28433159999999996,-0.191323
-7.003069,0.0012066776,-1.3082972,-0.262131,0.16667895,-0.25891959999999997
-7.969321000000001,0.14206235,-1.3959633,-0.16205382,0.057560957999999995,-0.19825195
-9.727939,0.4471794,-1.1190499,0.008813913,-0.023876105,-0.17109463
-11.376164,0.21097705,-1.1186188,0.052464597,0.016039576,-0.17641789
-12.243718,-0.63633096,-1.7641148999999998,0.07162831,-0.042498767,-0.07367035
-12.554026,-1.4357452,-2.1476564,0.024242622999999998,-0.04782202,-0.0012915436
-14.515768,-0.9692207,-1.0982395,-0.013526301999999999,-0.0808262,0.048205994
-14.929399499999999,1.0389973,-1.7577751,0.026389378999999998,-0.16599827,0.13763666
-13.440675,1.9401461,1.7234038,0.072151914,-0.20380209999999999,0.20523326
-12.933572999999999,1.3508853,2.226665,0.035430185,-0.22615977,0.1850049
-12.389907000000001,0.47691542,2.1215596000000003,-0.047054075,-0.22294836,0.14350097
-11.464194,-0.34353920000000004,3.7205991999999997,-0.12266174,-0.25703463,0.09185668
-10.663784,-0.66727364,2.6455355,-0.16896532,-0.25436428,0.04979424
-11.575266000000001,-1.0028926999999999,1.8390724999999999,-0.20036379999999998,-0.27885124,0.017872171
-11.816295,0.06842628,1.4664103000000002,-0.25520205,-0.31237903,-0.016702801
-10.847257,0.36956897,0.9017904,-0.3233397,-0.2926917,-0.06941175
-9.89333,0.4695317,0.60094464,-0.4079707,-0.21764256,-0.12212068599999999
-8.919914,0.39631698,0.28263074,-0.46600290000000005,-0.055798177000000004,-0.18280579
-8.082251,0.5757671999999999,-0.10374554,-0.52349406,0.08471828,-0.22113322
-7.4128795,0.6128965000000001,-0.38122395,-0.5612804,0.2364223,-0.25891959999999997
-7.1236405,0.7563283000000001,-0.41251138,-0.5224293999999999,0.37802085,-0.26797786
-6.9734,1.0845542,-0.45742659999999996,-0.39147735,0.38015017,-0.21420425
-7.17163,1.2974658000000001,-0.29235120000000003,-0.28501227,0.29604274,-0.15245451
-7.6555176,1.2957324,-0.49116567,-0.31641075,0.29126054,-0.17002997
-7.8906279999999995,1.1232636999999999,-0.83381426,-0.52349406,0.24973916,-0.25040239999999997
-7.853221400000001,1.0184549999999999,-1.1591288,-0.2754304,0.19170697,-0.17214182
-7.530205199999999,0.97526366,-1.1027597,0.12966052,-0.28150415,-0.08059931
-6.9919405,0.81942034,-1.6465499,0.11156145,-0.18942058,0.033841934
-6.726414,0.67634284,-1.745622,0.18928096,-0.23520057,0.11475539999999998
-6.8344307,0.65758187,-1.1143285,0.3729245,-0.21656045,0.19833921
-7.958239999999999,0.38052484,-0.9737697,0.40592867,-0.11967722,0.12699015
-10.151702,0.30404446,-0.8269764000000001,0.046094145999999996,-0.2830924,0.16374679
-12.277475,0.6090849,-0.7028993,-0.22804472,-0.35177112,0.2441192
-12.252768,1.2465746000000002,-2.3213508,-0.24082053,-0.31183797,0.13446017
-13.03345,1.0924838,-1.5949405,-0.11732103,-0.23731242,0.0045727626
-16.276808,-1.1634958999999998,1.3350548,0.024260076000000002,-0.13404128,-0.11091567599999999
-14.142022,-2.3139863,-1.0535063,0.07164577,-0.115942225,-0.20940460000000002
-13.881504999999999,-2.3089874,1.4663241000000002,0.058328904,-0.115942225,-0.25996679999999994
-13.610854000000002,-1.7269856,2.7211826,0.022130774,-0.10742501,-0.23975588
-13.308686999999999,-0.7328939,4.021349,-0.0028797933,-0.12925908,-0.17959438
-10.558679,0.41962695,1.750104,-0.043860123,-0.17610373,-0.119973935
-10.709503999999999,0.40410292,2.322299,-0.06887069,-0.19472638,-0.0752586
-10.33438,1.1140412,2.7426922,-0.06461209,-0.19312069,-0.05129523
-9.833705,0.10971189999999999,2.4455430000000002,-0.028955012999999998,-0.16756906,-0.012967796
-9.715173,-0.9402126000000001,2.4329305,0.054070299999999995,-0.13458234,0.034382987999999996
-8.965203,-1.0844296999999998,1.6513096999999999,0.16160004,-0.12924163,0.09400343
-8.184042,-0.9199385,0.7390996999999999,0.27658233,-0.084002696,0.16800539
-7.9812536,-0.9768343,0.21228908,0.4000818,0.07621853,0.23879595
-7.995360000000001,-0.9033418,0.09345048,0.49057713,0.33438763,0.29948103
-7.873457000000001,-0.83271295,-0.014298173,0.54593897,0.6000267,0.34473744
-7.665582700000001,-0.8721023999999999,0.11348516,0.45385543,0.6841166999999999,0.3649658
-7.750864,-0.94624597,0.25045264,0.19833921,0.61758476,0.33674383
-7.821282400000001,-1.0792391000000001,0.040002324,0.021607175,0.47918016,0.33409092
-7.9697227,-1.2195488,-0.078290395,0.073234014,0.3881612,0.31120965
-8.105914,-1.1360966000000001,-0.2980494,0.11529645,0.5159193,0.20207421
-7.9603470000000005,-1.1735898,-0.30570126,-0.035342917,0.5947034999999999,-0.040648717
-7.6193075,-1.1911056999999998,-0.09087432,-0.15723671,0.2976659,-0.052883476
-7.0877852,-1.0174879000000001,-0.2664938,-0.22804472,0.54998815,-0.15243706
-6.642147500000001,-0.53859,-0.45386400000000005,-0.17373008,0.6372895000000001,-0.15934856
-6.7873898,0.32836953,-1.0353582000000001,-0.2637018,0.47013932,-0.27646014
-7.543746499999999,0.56840265,-1.7633773999999998,-0.13542010000000002,0.120392814,-0.30361748
-9.405832,0.07506301,-1.875158,0.14404203,-0.040352013,-0.28817132
-11.3613205,0.06861782,-1.5917993000000001,0.25954792,-0.03822271,-0.24452063
-11.8542385,-0.15216587,-1.1263187,0.22123794,-0.044069562,-0.11943288
-13.344859,-0.47139916,-0.6037889,0.11316715,-0.019582594,0.0019373155
-14.56415,0.3559412,-2.2625206,0.051417399999999995,-0.05736897,0.105732046
-13.784644,1.131787,0.27147377,0.07431612,-0.11592477,0.1776047
-11.7202015,0.6173593,0.31520146,0.099326685,-0.14575244,0.19409807
-10.533319,0.19077957,1.2622231000000002,0.04024729,-0.15531684,0.14885913
-12.148505,-0.26626393,2.3070145,-0.06993534400000001,-0.19205603,0.07326892
-13.768307,-0.34611538,3.8240190000000003,-0.12901473,-0.25007078,0.038659044
-12.475639,-1.3462118,2.7883065,-0.11465068,-0.23464206,0.004590215999999999
-11.746997,-1.8229738000000002,2.2329476,-0.09122836,-0.24368288,-0.036390115
-12.019046000000001,-0.09039548,1.3122811,-0.06991789,-0.27029914,-0.09971066
-11.532554,0.683353,0.27152163,-0.06780604,-0.27084020000000003,-0.1561546
-10.249617,0.77250355,-0.19072211,-0.08803441,-0.28733355,-0.20512855
-8.941807,0.5130487,-0.22318749,-0.108786374,-0.279881,-0.28763026
-8.071333000000001,0.5044487,-0.5802108,-0.14604916,-0.19737929,-0.37121409999999994
-7.571663,0.55320424,-0.91999596,-0.25890213,-0.008395034000000001,-0.45690975
-7.3590007,0.621257,-1.1316338,-0.38826594,0.1795071,-0.4893903
-6.999917999999999,0.818501,-0.8498554,-0.49844858,0.20929988,-0.44041640000000004
-6.9481744999999995,1.1342866000000003,-0.46492523,-0.3962421,0.11348130599999999,-0.25729644
-7.330375,1.0560726999999999,-0.39273527,-0.20725785,0.09485865,-0.12632693
-7.397317,0.8619222,-0.812276,-0.108786374,0.06346017,-0.11993903
-7.3383045,0.44846270000000005,-1.4074554,0.03651229,0.022462387,-0.16467181
-6.948682300000001,0.37577474,-1.7855668999999998,0.32824406,-0.17235126,-0.09864601
-6.371449500000001,0.29562643,-1.5198393,0.20739748,-0.18725638,0.048781954
-6.246779,0.13963942,-1.1568973999999999,0.042900192999999996,-0.28468066,0.1754754
-6.997083,0.58635914,-0.8530540999999999,0.10732029400000001,-0.6743254,0.30962140000000005
-8.738023,1.3802573999999999,-1.5377766000000002,0.62102306,-0.20640263,0.29738665
-11.126783999999999,1.6127917999999999,-1.5980338,0.47942448,0.15128514,0.14566518
-13.28961,0.6902292,-1.1534879999999998,-0.075782195,-0.06747443,0.19783308
-12.594344,-0.71817434,-2.5070834,-0.31107002,-0.27295205,0.1749518
-12.261655000000001,-0.71238995,-2.3829968,-0.3147876,-0.21919589999999997,0.05623451
-15.348317000000002,-1.9472331000000003,0.2501366,-0.18383554,-0.08450884,-0.017732546000000002
-14.568334,-1.0088017,-1.9267290000000001,-0.06407104,-0.028082347999999997,-0.09279916
-13.909516,0.40361452,-0.15412913,-0.004974188300000001,-0.039793506,-0.16146041
-13.135864000000002,-0.47090116,1.2067636999999998,-0.019355701,-0.07014478,-0.15507251
-15.300529500000001,-3.5279903,5.994832,-0.04703662,-0.12018337,-0.11196287
-9.04744,-1.2267028,3.092332,-0.059812434000000005,-0.16168729999999998,-0.06511823
-8.303177999999999,-0.013120225,1.2336268,-0.07045894,-0.18458602,-0.017191493999999998
-10.313033,1.6801262,1.6259885,-0.04543092,-0.1675516,0.013648475
-10.453218,1.6158947,1.3936169,0.006178465699999999,-0.13880603,0.024312437000000003
-9.740389,-0.31469387,1.7234038,0.07805113,-0.107390106,0.05305801
-9.209010000000001,-1.6157701,1.8705131999999998,0.18718657,-0.08503244,0.10841985
-8.428517999999999,-1.5958982,1.0000676,0.32663837,-0.03021165,0.16324064
-7.9147997000000005,-1.2696357,0.13540648,0.4320388,0.050684362999999996,0.2223375
-7.932057,-1.1138879,-0.07281246,0.5033704000000001,0.16940166,0.30218629999999996
-7.912922999999999,-0.9857982,0.14318284,0.58321923,0.39243728,0.34264305
-8.029003,-0.98660266,0.33821452,0.5401096,0.5766219,0.33997267
-8.093598,-1.0099318000000002,0.21980686,0.25904176,0.5681046999999999,0.32613220000000004
-7.944737,-1.1178911,0.051427454000000004,-0.010838495,0.28916615,0.33412582
-7.8790593,-1.3228155000000001,-0.10531615,0.08283333,0.11562806,0.34051374
-7.962588,-1.3702208,-0.24119188,0.39957568,0.32803464,0.36606535
-7.9413853,-1.2824494,-0.36676297,0.46984264,0.64849454,0.28780478
-7.6295357,-1.2005773000000002,-0.5780751999999999,0.28724629999999995,0.37540287,0.03176499
-7.4834223,-1.0405296,-0.7813525,0.16322319,0.10817551,0.039741147000000004
-7.258157000000001,-0.81742835,-0.837463,0.13076007,0.18217747,-0.18273596
-6.508302,-0.35801935,-1.1327543,-0.24078563,0.042708207000000005,-0.3504272
-6.521882,0.18601032,-1.9383074,-0.23015657,-0.05948082,-0.22266911
-8.273603999999999,0.43582132,-2.5242546000000003,0.07592182,-0.12603022,-0.12685053
-11.448613,0.51177496,-1.1038898000000001,0.20420352,-0.08929104,-0.15933111
-12.784500999999999,0.012852075,-0.37436694,0.30482176,-0.17179276,-0.13056809
-12.206368,-1.1534977,-1.6102635,0.26275933,-0.20533799,-0.056583576
-12.704008,-1.5157117,-2.0624897,0.17758726,-0.14145893,0.019512782
-13.949874,-0.16500838,-3.2778343999999997,0.15364133,-0.159558,0.13184217
-13.4908,1.0732057,1.3468151000000002,0.13606587,-0.2202431,0.22766075
-12.879119000000001,1.758589,2.3754215,0.06260496,-0.24047147,0.2335076
-14.970771,1.9514946,2.365414,-0.04223697,-0.26389378,0.165911
-14.236757,0.46493483,4.257139700000001,-0.12102113,-0.30915016,0.08019788
-11.873086,-2.2746737,3.2976968,-0.16838937,-0.30647979999999997,0.012060225
-11.500586,-2.5805854999999998,2.3516807999999996,-0.2083225,-0.26495844,-0.012391837
-12.026591999999999,-0.7728003999999999,1.6681648,-0.25197318,-0.21385519,-0.034225907
-11.067389,0.10652282,0.7727526,-0.33501595,-0.18245672,-0.0858702
-9.694303999999999,0.5651178000000001,0.31065246,-0.41912335,-0.07970919,-0.15453145
-8.572842,0.6443946,-0.017812861,-0.44732788,0.10232865,-0.20669934
-7.504289999999999,0.6850769,-0.25317246,-0.43029347,0.31792918,-0.27057838
-6.883081,0.6735464,-0.7527562,-0.43402848,0.47015680000000004,-0.2812249
-6.5624113,0.7278948000000001,-0.71683353,-0.43455207,0.4424759,-0.26153758
-6.759137599999999,0.87643105,-0.42651266,-0.4052829,0.33548720000000004,-0.19551179
-7.1274524,0.99067277,-0.45476425,-0.35737363,0.41746530000000004,-0.16091935
-7.40879,1.1109383,-0.6883713,-0.46916196,0.54363513,-0.23331562
-7.421680499999999,1.2761573999999998,-1.2076354,-0.44200462,0.5218010999999999,-0.24767968
-7.369764999999999,0.9391016999999999,-1.5608853999999999,0.037594393,0.17737779999999997,-0.13217378
-6.9256115000000005,0.42920375,-1.9096824000000001,-0.084823005,0.061348322999999996,-0.09969321
-6.3584733,0.44840524,-1.5622741000000002,-0.15880750000000002,0.023544492,0.009948377
-6.316861599999999,0.6268786,-1.2630371,-0.027872908999999998,-0.38100538,0.2526713
-7.6308856,0.7202429,-1.0482869000000001,0.19250982,-0.22396065,0.30911526
-9.8519,0.98537683,-0.5584045,0.11211995,0.09861110000000001,0.19891517
-12.276019999999999,1.1910962,-0.15081555,-0.2083225,-0.16966346,0.18507472
-12.334649,0.96140605,-1.6943574000000001,-0.34192744,-0.30700340000000004,0.10576695
-11.252537,0.55063766,-3.1411352000000003,-0.2950828,-0.26017624,-0.017191493999999998
-14.851702,-1.0060244,0.9762501,-0.13644984,-0.18989182,-0.109275065
-13.6649065,-1.7055144,-1.868866,0.039723694,-0.1638166,-0.19764109
-13.103819999999999,-1.5764764999999998,0.8366394,0.12224286,-0.11697197,-0.23596852
-13.304176000000002,-1.638898,2.3213605999999998,0.15631169,-0.11217231,-0.2104169
-15.599891,-2.5253465,4.6490417,0.1717404,-0.14411184,-0.16250761
-11.773516,-1.2201043,3.6569898000000003,0.22071433,-0.1643402,-0.11779227
-10.352556,1.0087921999999998,1.7099674999999999,0.29523990000000006,-0.17818066,-0.08958775
-11.084703999999999,2.0281569999999998,1.3109021,0.35805428,-0.12334242,-0.049113564000000005
-10.931628,0.70582026,1.0870537,0.39744636,-0.014748032,0.016877335
-10.426509,-1.0169803,1.1018116000000002,0.44109705,0.043772858,0.098837994
-9.177665,-1.621995,0.91727614,0.46080184,0.12255702,0.16697565
-7.823571,-1.3378511999999998,0.50031155,0.47890088,0.22211060000000002,0.22287855
-7.2780759999999995,-1.2164556,0.09707051,0.47516587,0.32431707,0.2995334
-7.2125516,-1.2636882999999999,-0.02809835,0.49113566,0.44729298,0.3969577
-7.422686,-1.2274688,0.044015,0.49274135,0.42280602,0.43900266
-7.622736,-1.1615231000000001,0.12397176,0.44483206,0.28173104,0.40919244
-7.6412770000000005,-1.259963,-0.069259465,0.34369025,0.18858282,0.31550318
-7.4330006,-1.151726,-0.39004418,0.29578096,0.34402186,0.24151866
-7.602040299999999,-0.9571635000000001,-0.74112034,0.21380283,0.52234215,0.19839157
-7.563436500000001,-0.90030605,-1.0627861,-0.055012777,0.49040259999999997,0.023788838
-7.1070247,-0.7057149,-1.252359,-0.30307642,-0.11803662,-0.020385446
-6.7573566,-0.41765413,-1.4858893999999998,-0.32063442,-0.10419615,-0.08798204
-6.6369185,-0.11422257,-1.1753902,-0.40900046,-0.06798057,-0.33550465
-7.134865,0.1893622,-1.2318934,-0.5160066,-0.002513274,-0.39193115
-8.559999000000001,-0.40193856,-1.043642,-0.26899013,0.05708972,-0.2088112
-10.670689,-0.7234224,-0.81651855,-0.02146755,-0.116430916,-0.16357225
-11.688962,-0.01481532,-1.7741035,0.050387654000000004,-0.13931218,-0.16676621
-10.7891445,0.98219734,-3.342229,0.10840239999999998,-0.24577726,-0.10021680599999999
-11.719702999999999,0.66575086,-3.6500466,0.073809974,-0.21650809,-0.04166101
-13.737824,0.6013181,-3.8970902,0.048781954,-0.17498670000000002,0.017400933
-15.392427,0.5365789000000001,-2.1347947,0.16109389,-0.24684192,0.11641346
-14.222803,1.0395433,2.0666368000000004,0.27181756,-0.3192382,0.17603391
-13.288739000000001,0.46876553,2.4097638,0.26384142,-0.3032684,0.16858135
-12.815617,-0.02267788,2.4047650000000003,0.22392574,-0.28677505,0.11588986
-12.425963000000001,-0.8858450000000001,4.6074977,0.17921041,-0.2968805,0.081279986
-11.376337,-1.5911386,2.3366642000000004,0.12065461,-0.2910162,0.057334065
-11.907160000000001,-1.207166,1.7146698,0.018971728,-0.2904926,0.02539454
-12.17917,0.073214695,1.6082907,-0.07044149,-0.30113912,-0.028885199
-11.159834,0.12004527400000001,0.9501821,-0.14655529,-0.30913273,-0.10766936
-9.968105,0.03593218,0.45042595,-0.2216219,-0.15954055,-0.18113028
-8.804072999999999,-0.08440039999999999,0.14748281,-0.3472507,0.036861353,-0.24394467
-7.853585000000001,-0.14024276,-0.45497495,-0.5362175,0.19390608,-0.2955715
-7.3319554,-0.032628182,-0.67232054,-0.58732074,0.4079009,-0.30621803
-7.038455,0.40486908,-0.56038684,-0.5356939000000001,0.5180835,-0.25352654
-6.808487400000001,0.92197835,-0.53116804,-0.41432372,0.42334706,-0.103934355
-6.570053,1.2858299,-0.84988415,-0.22481586,0.26630235,-0.039531708
-6.501618,1.1693665000000002,-1.0844777,-0.20671679,0.23542747,-0.1476025
-6.550114,0.792883,-0.76292676,-0.027314402,0.23488641,-0.21094050000000003
-6.761877,0.45828852,-0.3523403,0.21114993,-0.16538739,-0.18751818
-6.5823116,0.6696199,-0.85845536,0.035482544,-0.105243355,-0.051766466
-6.750260400000001,1.0532093,-1.8998468999999998,0.042394046,-0.19999728,0.116430916
-7.421172599999999,1.5115745,-1.7691714,0.33304372,-0.18029252,0.29103366
-8.576308000000001,1.7518758,-1.7792557,0.21380283,-0.0072954763,0.1712517
-10.570486,1.4211694,-1.8543953999999998,-0.14283775,-0.12866567,0.20160298
-13.196438,0.6706733,-1.1495999,-0.35470328,-0.25481808,0.20586158
-12.582037,-0.027140671,-1.9700543999999998,-0.39620718,-0.2926219,0.09780825
-12.2414665,-0.38688385,-1.6972497,-0.2743134,-0.21703169,0.0136833815
-15.633830999999999,-1.6564429,1.3366156999999999,-0.14229669,-0.16325809,-0.07679449
-14.351811999999999,-1.3455413999999999,-0.7931224,-0.06085963,-0.12386601400000001,-0.1571669
-13.750657,-1.0952514,1.6038374,-0.06138323,-0.1068316,-0.17100736
-13.983229999999999,-1.3207088,3.2924870999999998,-0.081611596,-0.13397147,-0.13480923
-12.352807,-0.7901536,3.2135932,-0.043284167000000005,-0.13505358,-0.08105309
-9.63422,-0.18281166,1.6456113999999997,0.015254176999999999,-0.12973033,-0.048572514000000004
-10.364758,0.7411012,1.8276569999999999,0.08604473,-0.14728834,-0.032079153
-10.806564,1.157769,1.3213121,0.1557881,-0.14302973,-0.0065275314
-10.528358,-0.13419022,1.5442027,0.19996238,-0.08979719,0.037123155
-9.691537,-0.9758095999999999,1.6838325,0.22232004,-0.06211627,0.09993755
-8.515074,-1.0215963,1.1327543,0.25425956,0.021432644,0.16488126
-7.773264,-0.94027,0.2752853,0.32454398,0.13802063,0.226631
-7.664892999999999,-0.9847256,0.0050374004,0.38840556,0.2987829,0.29529226
-7.68986,-1.0480665,0.15546031,0.36604790000000004,0.4249353,0.36130062
-7.5110225999999995,-1.044638,0.20803697,0.26651177,0.43453459999999994,0.39324012
-7.4166527,-1.2096273000000002,0.06723876,0.17601645,0.38343138,0.37248817
-7.5411224,-1.4367222,-0.12977532,0.1728225,0.2881364,0.31871456
-7.5349073,-1.2761573999999998,-0.3793277,0.28780478,0.30571187,0.29848620000000003
-7.6751113,-1.117642,-0.76871115,0.2569299,0.56707495,0.20053834
-7.603055499999999,-1.0367564,-0.79286385,0.014189526000000001,0.32326987,0.025411992999999997
-7.083016000000001,-0.8275606,-0.7663648000000001,-0.19339994,-0.08182103,0.120148465
-6.5358543,-0.50716853,-0.8998463,-0.14388494,0.08319984400000001,-0.0017278759
-6.382089,-0.052222326,-0.89532614,-0.20244074,0.06988298,-0.17313667
-6.9174523,0.45821187,-1.2828803,-0.32274628,0.059777527999999996,-0.17100736
-8.387636,0.40836462,-1.3835708,-0.043284167000000005,-0.072221726,-0.107651904
-10.753653,-0.24353819,-1.0749966,0.030159289,-0.1616524,-0.12149237
-12.402003,-0.46187025,-1.4755943999999999,0.07274532,-0.21488494,-0.123098075
-12.011174,-0.06537128,-2.4806516,0.034417894,-0.23139575,-0.04909611
-13.148563000000001,0.36583403,-1.8616164000000002,-0.011344640500000001,-0.20797344,0.040317107000000005
-16.251219,1.4199148000000001,-3.23517,0.02857104,-0.23937191,0.15262905
-15.551059,0.8278958000000001,0.35446635,0.09138544,-0.27398178,0.22930136
-12.892546000000001,0.05473145,2.1126723,0.10309660000000001,-0.2569299,0.20268509
-12.812897,0.27354229999999996,2.1494855999999998,0.06370452,-0.24469516,0.12707742
-13.310602,0.2733508,3.9904351000000005,-0.018256145,-0.24895376,0.05948082
-11.841904,-0.5917509,2.8737507,-0.10396926,-0.24097762,0.020612339
-11.674884,-1.6270898999999999,1.9947147,-0.14388494,-0.20956168,-0.010245083
-11.974159,-0.8478251,1.957097,-0.13643239999999998,-0.21647319,-0.05920157
-11.282436,-0.15681064,1.0946386000000001,-0.15027285,-0.16324064,-0.09752899999999999
-9.93272,0.2347467,0.7283162,-0.21308725,-0.007801621700000001,-0.13426818
-8.668906,0.38032374,0.49950707,-0.30251792,0.14655529,-0.1731192
-7.420273,0.48534298,-0.008944738,-0.37597883,0.29719466,-0.21676989
-6.628912400000001,0.4748085,-0.32596576,-0.3504272,0.35096827,-0.19814722
-6.3590093,0.7614806,-0.31400433,-0.25780258,0.33658674,-0.1747249
-6.450295400000001,1.0824665,-0.27220157,-0.18807667,0.37543777,-0.15449655
-6.693556,1.3543615,-0.39023572,-0.15294321,0.46008626,-0.16353735
-7.074569,1.3056538999999998,-0.42114007,-0.22640412,0.4712738,-0.25190338
-7.356979400000001,0.94431144,-0.42180088,-0.100234255,0.31529373,-0.2694614
-7.4014063,0.74474996,-0.54391474,0.27876398,-0.06476917,-0.24923302
-7.0264169999999995,0.7641717,-1.1819216000000001,0.12119567,0.03635521,-0.21944025
-6.823015,0.82023436,-1.6095643,0.06689847,0.19233528,-0.10498156
-7.1688814,0.8846001,-1.185417,0.074874625,0.06297148,0.010506882
-8.4334135,0.97397083,-0.46265554,0.006213371999999999,-0.08765043,0.12815952
-9.9952755,0.9223614,-0.4463271,-0.043266714000000005,-0.1595231,0.13454743
-11.529786,0.5362916,-0.9069619000000001,-0.12685053,-0.24469516,0.13880603
-11.554427,0.43782288,-2.583832,-0.1539904,-0.23828979999999997,0.048851766
-11.567203,0.56909215,-2.9678812000000003,-0.06775368,-0.18826866,-0.014486233000000001
-15.645763,-0.6535309,1.9921961,0.024312437000000003,-0.18081611,-0.12041026
-14.820654000000001,-1.9660800999999999,-1.1949365,0.039217547,-0.17921041,-0.21783455
-13.079007,-1.5289468000000002,0.35595074,-0.012391837,-0.17228144,-0.25242698
-11.95557,0.024076091,1.2218089,-0.012391837,-0.1749518,-0.20825268
-12.324853,0.19772275,1.7723604,0.047211155,-0.15311773,-0.14756759
-12.158244999999999,0.17858829,2.5198781,0.09299114,-0.12810716,-0.092729345
-11.885325,-0.037751775,2.0903869,0.13770647,-0.14407693,-0.056007615999999996
-11.23276,0.22957522,1.7064625,0.19678587,-0.11958996,-0.013945181000000001
-10.515352,-0.09871773,1.7745727,0.23830725,-0.06316347,0.060562924000000004
-9.836558,-0.102720834,1.7983519000000001,0.27131143,-0.037611846000000004,0.12550662
-8.753842,0.16316007,1.1499829,0.3165678,0.0033684855,0.19205603
-7.9979935,-0.17889474,0.24104823,0.36925929999999996,0.105574965,0.22984241
-7.7430973,-0.9285671999999998,-0.11544839999999999,0.39800490000000005,0.26579618,0.27296948
-7.5183964,-1.0788465,-0.21157081,0.3522249,0.38610172,0.31820843
-7.224264,-0.9645185,-0.051159300000000005,0.22394319,0.36374408,0.34962437
-7.309852,-1.1129303,-0.14070244,0.11641346,0.25673792,0.33896038
-7.532253999999999,-1.1715786,-0.38518876,0.20158553,0.21097539999999998,0.31981415
-7.49931,-1.1983075,-0.70068705,0.39906952,0.3557679,0.30063295
-7.6720757,-1.2475227,-0.881229,0.44378486,0.5793446,0.26071727
-7.726597,-1.0813556,-0.81769645,0.16219345,0.42177626,0.13934709
-7.349844999999999,-0.5068429,-0.8123239000000001,-0.04379031,-0.114790305,0.16170475
-6.6154094,0.03295379,-1.0347165999999999,0.053075462999999996,0.066723935,0.01584759
-6.291742,0.40697598,-1.4438568,-0.00013962633999999998,0.08854055400000001,-0.16723745
-7.0773273,0.70199907,-1.6464830000000001,-0.16144295,-0.070598565,-0.22952825
-9.097832,0.23202688,-1.3187647,0.091402896,-0.062081363,-0.13051572
-11.56454,-0.5318001,-0.7429783,0.20797344,-0.07539822,-0.15393804
-12.647332,-0.685029,-1.1433461999999999,0.19093902,-0.065816365,-0.101229094
-11.510986,-0.45549209999999996,-2.792051,0.14728834,-0.08923868,-0.012339477
-12.243325,-0.6202419,-2.7711642000000003,0.03656465,-0.11266100400000001,0.05258677
-14.684673000000002,0.5481573000000001,-3.5952002999999997,0.02539454,-0.16641714,0.12233013
-14.930098999999998,1.4032034,0.8273403,0.06531022,-0.22019073,0.19046777
-13.265668,1.4646002,2.350043,0.046146505,-0.24839526,0.19364429
-12.700273,0.26398468,2.3132203,-0.009721484,-0.24413666,0.13243559
-13.172984,-0.073549874,3.394566,-0.044331364000000005,-0.27288222,0.060580377000000005
-12.112879,-0.45954305,3.3376992,-0.07679449,-0.31866223,0.032358404
-11.030710000000001,-1.5039226,1.6889560000000001,-0.11992157,-0.35753068,0.011065387
-11.6366825,0.02864423,1.1323329,-0.14547320000000002,-0.35805428,-0.02989749
-11.642917,0.5962041,0.71687186,-0.18912388,-0.32930872,-0.086323984
-10.464433999999999,0.6906793000000001,0.28281268,-0.28014278,-0.19835667,-0.15126769
-9.148541999999999,0.74783367,0.3473412,-0.40577158,-0.08656833,-0.19065976
-8.01052,0.6348465,0.05254794,-0.49946088,0.0198793,-0.22898720000000003
-7.156269,0.49303317,-0.18104953,-0.48403215,0.14444345,-0.2939309
-6.851621000000001,0.76770556,-0.19418892,-0.43984044,0.20086995,-0.3104417
-6.985073599999999,1.0464098,-0.378236,-0.43132323,0.2865656,-0.269985
-7.1710076,1.3227868,-0.48229757,-0.33976325,0.34779176,-0.18907152
-7.260781,1.2790112,-0.46821007,-0.2561969,0.30946434,-0.18373081
-7.216717699999999,0.92068547,-0.44884579999999996,-0.23064525,0.2216219,-0.25295058
-7.201471300000001,0.7548918000000001,-0.45513776,-0.019844393999999998,0.1582839,-0.29658379999999995
-6.7980675999999995,0.80087006,-1.354716,-0.019844393999999998,-0.09295624,-0.2891487
-6.566069000000001,0.6559155,-2.5191597999999997,-0.154514,-0.046111599999999996,-0.11719886
-6.843558,0.92573243,-1.57436,-0.20933479,-0.08496263,-0.020839231
-7.968851600000001,1.2552418,-0.38525578,-0.08689994,-0.15310028,0.12819444
-9.340269000000001,1.0668275,-0.6984653000000001,-0.12948598,-0.043441243,0.07974409
-10.823209,0.6680589,-1.084286,-0.28227209999999997,-0.12648399999999999,0.11967722
-12.353631,0.30510747,-1.4819916000000002,-0.38714895,-0.21752039,0.065903634
-12.103714,0.4954082,-2.6617298,-0.3259228,-0.22603759,0.007888888
-13.777338,0.26976907,-0.6832189999999999,-0.16355479999999997,-0.13660692,-0.06928957
-15.274605,-0.9838254000000001,-0.16858053,-0.037402406,-0.100391336,-0.15179129
-14.434594,-1.8284806,-0.17881814,0.00038397242,-0.08656833,-0.21834070000000003
-12.854718,-0.73087317,1.3012868999999998,-0.027820547999999997,-0.08496263,-0.20875883
-12.4652195,-0.53592765,2.881374,-0.020891592,-0.10252064,-0.15285593
-12.421942999999999,-0.7211526999999999,3.3567474,0.04988151,-0.12061971,-0.08578293
-10.172197,-0.41692626,1.8665580000000002,0.12601277,-0.13446017,-0.0453262
-10.4781,0.37963417,2.1672504,0.1664695,-0.14618878,-0.01712168
-10.834767999999999,0.536713,1.6969144,0.19734438,-0.14564772,0.017470745
-10.440779,-0.50659394,1.8028339,0.21757275,-0.12807226,0.07335619
-9.42263,-0.7726089,1.7802613999999999,0.25164157,-0.10519099,0.12978268
-8.484084,-0.7334876,0.9796403,0.31339133,-0.065798916,0.17770943
-7.9520826,-0.88422656,0.09151596599999999,0.37885863,0.012426743999999998,0.21814871
-7.818936,-0.9506705,-0.18875886,0.41718605,0.15191346,0.2676637
-7.5666447,-0.9460735999999998,-0.01910573,0.4012163,0.3286455,0.31185544
-7.298101400000001,-1.0380589,0.14462894,0.33894295,0.37229618,0.3342131
-7.322263700000001,-1.2453967,-0.046648625,0.25961772,0.32438690000000003,0.3299545
-7.485405,-1.3453499,-0.36823779999999995,0.24684192,0.26422540000000005,0.29056242
-7.6421385,-1.2770097,-0.53123504,0.36342990000000003,0.27913052,0.28310984
-7.920296700000001,-1.298232,-0.65246785,0.4895823,0.41008255,0.31504938
-7.783980400000001,-1.0373118000000001,-0.62200403,0.35011303,0.5671273,0.19261454
-7.404499499999999,-0.6742168000000001,-0.5111142,0.16114625,0.11677998,0.14257595
-7.108183400000001,-0.43962333,-0.5849321999999999,0.05841617,0.17907079,0.0866905
-6.8192897,-0.29698637,-0.8841882999999999,-0.20348793,0.117844634,-0.15072663
-7.0254307,0.072132505,-1.2006826000000002,-0.22369885,-0.008831366,-0.050631999999999996
-8.210436,0.26129362,-1.6226176,0.16594589999999998,0.039584067,0.04675737
-10.386535,-0.22234473,-1.4859086000000001,0.38631117,0.050771628,-0.03520329
-12.298210000000001,-0.7099478,-1.6626008,0.49331729999999996,0.05503023,-0.050108402999999996
-12.136667999999998,-0.88322103,-2.5579555,0.4108156,0.061418135,0.07391469
-11.698098,-0.7483892,-1.995002,0.22769566,0.05503023,0.13086478
-13.821036999999999,0.57766336,-2.0164542,0.11856022,0.018832102,0.19793779
-15.462482000000001,1.9575185000000002,0.5221179,0.11910127,-0.07164577,0.28204522
-14.699729000000001,2.0324283,2.4580022999999995,0.116430916,-0.17118189,0.24158847
-15.542056,1.0318435,2.7767568,0.031799898,-0.1813048,0.18037978
-13.697648999999998,-0.29471666,4.0547623999999995,-0.052831117000000004,-0.2377313,0.13992305
-10.563065,-1.8220450000000001,3.4812171000000003,-0.11564551,-0.30534536,0.104248516
-10.403017,-2.6409001,1.3284276000000002,-0.16407839999999999,-0.31916836,0.07976155
-11.758805,-0.72166026,0.9962752,-0.18697712,-0.30852184,0.035046212
-11.615183,0.871183,0.6607135000000001,-0.21998130000000002,-0.31545082,-0.027750734
-10.252938,1.4377851000000001,0.27845523,-0.30621803,-0.32929125,-0.09642944
-9.017999999999999,1.155844,0.24169944,-0.45366344,-0.19620991,-0.17467254
-7.997897999999999,0.8367256,0.047376465,-0.5835508,-0.049288097999999995,-0.22471114
-6.815861,0.5382260999999999,-0.40353790000000006,-0.6122964,0.0773879,-0.27794367
-6.477579599999999,0.6372406999999999,-0.45908338,-0.55215234,0.20408134,-0.32265902
-6.7548,1.1814524,-0.03257072,-0.5031784,0.29777062,-0.32637656
-7.1861105,1.5483015,0.1921299,-0.46643925,0.31586970000000003,-0.27262044
-7.3748693,1.6161245000000002,0.21703917,-0.36370915,0.34941490000000003,-0.21991149
-7.277760000000001,1.1972158000000002,0.025665842,-0.3376165,0.40477675,-0.27155578
-7.2393575,0.87543505,-0.75901943,-0.30728266,0.18491763,-0.2582389
-7.2355266,0.8405754999999999,-1.2501084999999998,0.096202545,-0.051940999999999994,-0.21458822
-6.9371133,0.6670054,-2.1430306,-0.074124135,-0.07271042,-0.21087068
-6.9511337,0.9033610000000001,-2.0654395,-0.019285886999999998,-0.07749262,-0.06660176
-7.4853473,1.0365937,-0.9735782,0.28145180000000003,-0.06897541,0.07017968599999999
-8.44793,0.65048546,-1.038327,0.28305749999999996,0.03906047,0.0808262
-9.968967,0.6831423000000001,-1.3685545000000001,-0.0043807765,0.022026055,0.10957177
-12.1301565,0.76023567,-1.0088017,-0.24872687,-0.18343410000000002,0.18570304
-12.676733,0.58767116,-2.0950894,-0.32271138,-0.20525073,0.11278318
-11.899718,0.76806945,-3.3887532,-0.25617942,-0.17278759,0.058468528
-15.461295000000002,-0.40467754,1.0316423000000001,-0.13959143,-0.15999433,-0.022410028
-14.171347,-1.3225187,-1.6595265,-0.04909611,-0.16692328,-0.14803882
-13.341363000000001,-1.7279816000000003,0.92094404,-0.043772858,-0.15573573,-0.23108159
-13.305163,-0.80870384,3.5389462,-0.08103564,-0.17064084,-0.21671753
-12.342838,-0.41731894,3.6446357000000003,-0.075188786,-0.18236946,-0.16029103
-10.234724,0.18420988,2.2763495,-0.026738444,-0.20312142,-0.09534734
-10.863288,0.5870486999999999,1.3395078999999999,0.005183628,-0.20683897,-0.06339036
-11.293439999999999,1.5635573999999999,1.2853223999999999,0.0339292,-0.20738003,-0.045308746
-10.836502000000001,0.7721300999999999,1.4019487,0.091420345,-0.17011724,-0.013892821000000001
-10.448728,-0.36064342,1.745306,0.14997615,-0.12486085,0.037192967
-9.331152000000001,-0.68172497,1.2933382,0.2287603,-0.03330088,0.09307841
-8.209947999999999,-0.90050715,0.4997944,0.32670817,0.09550442,0.13566445
-7.7064085,-1.1068299,0.017860743999999998,0.4001691,0.29085913,0.19315559
-7.6098360000000005,-1.0276200999999998,-0.0360471,0.4017748,0.48303732,0.25064674
-7.458015,-0.77959996,0.04631344,0.31873202,0.5352051999999999,0.29218557
-7.3075247,-0.87684286,0.0063589998,0.25696483,0.45588,0.31984904
-7.3414744999999995,-1.2235806999999999,-0.17322528,0.27986354,0.36592573,0.30229104
-7.3810077000000005,-1.2853894,-0.30025205,0.40282199999999996,0.39892990000000006,0.31133184
-7.4743433,-1.1731588,-0.33728555,0.53166217,0.51497686,0.33742452
-7.653755,-1.0134273,-0.31234756,0.45500734,0.5980196,0.24001768
-7.3908815,-0.70948815,-0.44665268,0.26549947,0.1306379,0.12716469
-6.7771134,-0.4503781,-0.82012904,0.2181138,0.11679743,0.12503539
-6.195207599999999,-0.16465403,-1.1858289,0.03499385,0.16948892,-0.12142256
-6.636507000000001,0.13560759,-1.5918568000000002,-0.13213888,0.09176941,-0.20607102
-8.265416,0.092808835,-1.8340733,-0.0043807765,0.13648474,-0.09639453
-10.612136,-0.29422826,-1.3034991000000002,0.20694369,-0.027436575,-0.101717785
-12.434593,-0.65084934,-1.2898235,0.29263934,-0.05511749999999999,-0.12674580000000002
-12.402721000000001,-0.74246114,-2.6299443,0.28731609999999996,-0.08972738,-0.03837979
-11.695503,-1.0091847,-2.9307902,0.18245672,-0.09772099,0.02867576
-13.300431,-0.22788969,-1.8060805,0.048834313,-0.11475539999999998,0.09468411
-14.761297,1.5401133,-0.9068757,-0.0011868239,-0.1700998,0.19210839999999998
-13.729664999999999,2.3517189999999997,2.7432284,-0.012356931000000002,-0.22867304,0.24692918
-13.737614,2.0535738,2.3457527000000002,-0.08210029,-0.3031986,0.2144486
-13.214442000000002,0.95781475,2.3891165,-0.18270107,-0.34578463,0.1356819
-11.87865,-0.49469954,3.3445656,-0.25829127,-0.3691895,0.062220987
-10.855894000000001,-1.4576474,2.048364,-0.32004103,-0.39048252,0.025481807000000002
-11.59735,-1.2945257,0.9853385,-0.37220892,-0.3750538,-0.0010995574
-12.2647295,0.30801883,0.7274064,-0.36849135,-0.35376078,-0.050614547
-11.017905,1.1269316999999999,0.1478276,-0.3503923,-0.37611845,-0.13739231
-9.276775,1.1512854,-0.13161406,-0.41053635,-0.30691615,-0.21031217
-8.011046,0.9077185,-0.06136818,-0.49837875,-0.16053538,-0.26515043
-7.392519,0.7963401999999999,-0.32428983,-0.5835508,0.02310816,-0.32902947
-7.0352372999999995,0.9139721,-0.5798278,-0.58407444,0.22593287,-0.36735690000000004
-6.8621077999999995,1.0328873,-0.2662065,-0.5399001,0.30684632,-0.34126422
-7.150063,1.1415936000000002,-0.14618038,-0.5063549,0.2536138,-0.2880317
-7.1522369999999995,1.271436,-0.49376099999999995,-0.44141123,0.2062281,-0.23905775
-7.110109,1.3164757,-0.79348636,-0.48347366,0.13756685,-0.24970426
-7.4178690000000005,1.2268081,-0.9036579,-0.29342476,0.14873695,-0.23425809
-7.659692999999999,0.9960071,-0.9818046,-0.04003785,-0.19352211,-0.25982717
-7.542186,0.7883819000000001,-1.3099922,0.10419615,0.008203047,-0.09906489
-7.132106299999999,0.7579468,-1.8804348000000002,0.20214403,0.19612265,-0.10012954
-6.983599000000001,0.74140763,-1.6909001000000001,0.12548918,-0.009337512,0.031346112
-7.7647314,0.68202186,-1.5211226,-0.07304203,-0.11154399,0.056374136
-9.55998,0.98028195,-1.2573773000000001,-0.28438395,-0.20842722,0.1308997
-11.702273,0.96959424,-0.69238394,-0.36742672,-0.19671606,0.12768829
-12.162736,0.83391005,-1.3973901000000002,-0.32749358,-0.20842722,0.069673546
-13.407031,0.31348717,-0.54357,-0.19760618,-0.15999433,0.019093903
-16.169231,-1.0795839,1.2838188,-0.04749041,-0.13604842,-0.07777187
-15.142510999999999,-2.374435,0.45211148,0.039252456,-0.11740830000000001,-0.16240288
-13.703510000000001,-1.2769715,1.8563968999999998,0.023823743999999997,-0.11208504400000001,-0.18317229999999998
-10.782863,0.5808236999999999,0.60095423,-0.0118333325,-0.14348352,-0.131528
-12.370764,-0.024344241000000003,2.8852525,0.006789331,-0.15732397,-0.06977826
-11.656630499999999,-0.60225666,2.0810401,0.053092916,-0.15573573,-0.034121186
-11.354626,-0.22441332,2.3141396,0.097825706,-0.14295992,-0.035168383
-10.774386,0.5132880999999999,1.9192783,0.12974778,-0.11580259,-0.03890339
-10.413935,-0.22282356,1.9607842,0.14732324,-0.09876818,-0.0016406095
-9.523675,-0.4782849,1.9912478999999998,0.18565068,-0.066305056,0.05422738
-8.566224,-0.35058773,1.4604438999999998,0.2681524,-0.0056199604,0.11810643
-7.920775999999999,-0.68899375,0.50289726,0.3581241,0.13543755,0.15910421
-7.852972,-1.1397071,-0.06804321,0.45020768,0.33930945,0.20966639999999998
-7.9467381999999995,-1.2098763000000001,-0.0640018,0.4800179,0.547981,0.2762158
-7.701428999999999,-1.0167696,0.26883054,0.39910445,0.61079544,0.3310366
-7.544302,-1.0364308,0.29714918,0.20374973,0.5139122,0.35765287
-7.543660000000001,-1.046994,-0.12695014,0.08822639,0.40479422,0.31560788
-7.726788000000001,-1.0040133,-0.5449586,0.21491985,0.3664668,0.2762158
-8.037594,-1.0728897,-0.62679243,0.32138494,0.51497686,0.2112721
-7.929787599999999,-1.1925327,-0.55013967,0.276146,0.4574857,0.011641346
-7.5220647,-1.0510832,-0.33182678,0.055222217000000004,0.22432716,0.0020594885999999997
-6.9302850000000005,-0.89274997,-0.47050852,-0.23008676,0.19399334,-0.11609929999999999
-6.4006205000000005,-0.36890817,-1.0524528,-0.12520991,0.25893706,-0.11449360000000001
-6.4757414,0.25036645,-1.5039896000000001,-0.14596188,0.19453439,-0.07562511400000001
-7.442903,0.6285833000000001,-2.1551454,0.24633577,-0.056723199999999994,0.019093903
-9.232042,0.30068302,-1.9808284,0.45659557,-0.14083062,-0.046896997999999995
-11.217851,-0.41534609999999994,-1.1460947,0.48853509999999994,-0.15041247,-0.08361872
-12.042385000000001,-0.6724163000000001,-1.2360879999999999,0.40496874,-0.16531758,-0.012287118
-12.99993,-0.37784332,-0.9424344000000001,0.21600194,-0.09079203,0.056897733
-14.406064,0.40513724,-2.234786,0.16062266,-0.07162831,0.15430456
-15.078203,1.1528559999999999,-0.14725298,0.23568927,-0.13123131,0.21233675
-14.491010999999999,1.7192186999999999,0.43266097,0.2867925,-0.19671606,0.18200293
-13.135404999999999,1.0465246,2.5628111000000002,0.24952972,-0.22652629,0.10374237
-13.720460999999998,-0.7398562,3.2163897,0.1702045,-0.26113617,0.035063665
-12.1251955,-0.7612508000000001,3.0251408,0.08609709,-0.30265754,0.021223204
-10.588596,-1.8593848999999998,1.7263631000000002,0.021694442,-0.31756267,0.023352506000000002
-11.383127,-1.2490358,1.631543,-0.016091935,-0.31916836,0.00418879
-11.661897999999999,0.5786210999999999,0.9735686,-0.035255652,-0.30531046,-0.046896997999999995
-10.503219,1.1050965,0.42490378,-0.08794714,-0.26220079999999996,-0.1272694
-9.271488,0.8190468000000001,0.31131327,-0.20292944,-0.13763666,-0.21244147
-8.434130999999999,0.37899256,0.10354444,-0.33068752,-0.012007865,-0.2885553
-7.7854266,0.35740644,-0.38764998,-0.44195226,0.13756685,-0.3588397
-7.3743043,0.5187277,-0.5534724,-0.46430993,0.24935518,-0.39184386
-7.222971,0.85026723,-0.7187489,-0.45366344,0.26158994,-0.41046652
-7.2520084,1.3432908000000001,-0.5581459,-0.46856853,0.20357521,-0.39662609
-7.515590700000001,1.6351345,-0.47084373,-0.44992843,0.1993166,-0.3045425
-7.774356,1.3391440000000001,-0.5253932,-0.52497756,0.28183576,-0.2992018
-7.544206,1.0641268,-0.78840107,-0.4866675999999999,0.24562019,-0.28696704
-7.049017999999999,1.0625371000000001,-1.2390951000000001,0.041381758,-0.009878564,-0.25396284
-6.515293,0.90938485,-1.8193443,0.016894788,-0.060458205999999994,-0.25982717
-6.0847197,0.8553334,-2.3175488,-0.10976376,0.040160026,-0.16824974
-5.9381084,0.77950424,-1.8731947,-0.06771877400000001,-0.16851154,0.016982054
-7.132451,0.9507662,-1.1112256,0.18404497,-0.10676179,0.17879152
-9.444283500000001,1.1856948,-0.75891405,-0.0389732,-0.04766494,0.16123351
-12.039769,1.0588021,-0.55780107,-0.24551547,-0.20949186,0.23469442
-12.722328,0.8500661,-1.6977380000000002,-0.2790607,-0.20949186,0.19369663
-11.614042999999999,0.6972776999999999,-2.8554685,-0.168337,-0.182352,0.04944518
-14.698915,-0.654048,1.0808383,0.04511676,-0.080145516,-0.06764896
-14.666476999999999,-1.5086727,-1.1784549,0.23143066,-0.052464597,-0.16079718
-13.182004999999998,-1.3893648,-0.48213476,0.32672563,-0.050858892999999995,-0.23319344
-14.115160000000001,-1.2948226,1.7837857,0.31182054,-0.04872959,-0.23638739
-15.087779999999999,-2.0923598,3.5620741999999996,0.28785715,-0.074281216,-0.17889625
-12.126392,-0.7876253000000001,2.1112933,0.301174,-0.1221905,-0.10011209
-10.469173,-0.22717144,1.4395378,0.33841935,-0.18767525,-0.045832347
-10.47765,0.9734153,2.3291560000000002,0.35438909999999996,-0.23345524,-0.0543321
-10.342971,0.5939248,1.5289276000000003,0.3666413,-0.24623105,-0.04103269
-9.828284,-1.125677,1.66307,0.39006364,-0.19406316,0.005270894
-9.107754,-1.6680977,1.6687874,0.42519712,-0.17648770000000003,0.061679937000000004
-8.223547,-1.2492370000000002,1.1480868,0.4757593,-0.178617,0.12077679
-7.794965299999999,-1.0437762,0.26507646,0.54815555,-0.10463249,0.18891443
-7.7987866,-1.2038716999999999,-0.30297187,0.56573105,0.020996312000000003,0.27408649999999996
-7.8604417,-1.3313771,-0.3034986,0.5257979,0.16205382,0.34541813
-7.9206038,-1.2517653,-0.06341761,0.46671850000000004,0.24349089,0.42580798
-7.8231589999999995,-1.0953665000000001,0.013340491999999999,0.39006364,0.23764403,0.46307075
-7.8413076,-1.1367191,0.004759673,0.33363715,0.15938346,0.43643704
-7.894545,-1.1849478,-0.015236700000000002,0.29372147,0.13117895,0.36725217
-8.139759,-1.2281106000000002,-0.19743545,0.3597298,0.2009223,0.34969416
-8.1639595,-1.2040727,-0.5229128,0.40283945,0.27968899999999997,0.36884043
-7.831424,-1.1084197,-0.50509036,0.23195426,0.35208526,0.17400932
-7.38028,-0.5982727,-0.8245726000000001,-0.0006457718,-0.065240405,0.10215412
-7.094613000000001,-0.12849201,-1.1591862,-0.14543828,0.11681489,0.020699605
-7.202975299999999,-0.09456139,-1.009156,-0.28651324,0.2685189,-0.16985545
-7.7237043000000005,-0.17507361,-1.1343728000000002,-0.42331216,0.23923229,-0.21563543
-8.726281,-0.18126023,-1.0808096999999999,-0.19654153,0.13596115,-0.06232571
-10.188525,0.042195413,-0.9564835999999999,-0.0394968,0.013002703000000001,-0.043685592999999995
-11.411484,-0.028902802999999998,-1.3538348999999998,0.04724606,-0.022113321000000002,-0.067125365
-11.475285000000001,-0.05695327,-2.231415,0.06534512,-0.046076692999999995,-0.020804325
-12.135261,-0.09314402,-1.3426013,-0.026197392000000003,-0.017313666999999998,0.029216811000000002
-14.264807000000001,1.0881167999999999,-2.1652396,-0.09911725,-0.062028999999999994,0.09628981
-15.053984,1.9319197,-0.9327139000000001,-0.094876096,-0.13444272,0.19956094
-13.247319000000001,1.455847,0.9389006,-0.08901179,-0.16530013,0.24268803
-12.565709,0.09323022,2.3499567999999997,-0.18750072,-0.19245745,0.22191861
-12.510011,-0.30344114,3.246413,-0.30567697,-0.19991001,0.15643387
-12.01512,-0.6404489999999999,3.9624612,-0.39615482,-0.21800907,0.09789552
-11.6675,-1.6556575,2.4453322999999996,-0.44299948,-0.22333233,0.058503438
-11.869284,-1.5780566999999999,1.7852508999999999,-0.49357912,-0.21535617,0.020699605
-11.771352,-0.20228131,1.4883986,-0.5153957,-0.22598523,-0.051679197999999996
-11.047163000000001,0.29059863,0.80037206,-0.5036845999999999,-0.22704989,-0.14323917
-9.802866999999999,0.5534724,0.17323487,-0.50155526,-0.18661061,-0.22254694
-8.513283,0.5391454999999999,0.054597374000000004,-0.5207189999999999,-0.099309236,-0.29387853
-7.768591000000001,0.60972655,-0.24708162,-0.5308419,0.07422885,-0.32901199999999997
-7.2620163,0.8449042,-0.33794636,-0.48719120000000005,0.26958355,-0.3593633
-6.976196300000001,1.0523761999999999,-0.19715771,-0.34559265,0.37817794,-0.3636219
-7.037669999999999,1.1264528,-0.09504023,-0.12788028,0.37018433,-0.32262412
-7.0319905,1.1096838,-0.2545132,-0.018203784,0.3462384,-0.27045622
-7.2125516,1.0312593,-0.43716207,-0.11402236,0.35955527,-0.27471483
-7.268422999999999,1.0236745,-0.5724249,-0.44087017,0.28557077,-0.34391713
-7.326908,0.88539493,-0.49398127,-0.22261675,0.23338543,-0.23425809
-7.238811500000001,0.49891332,-0.8033887,-0.04907866,-0.22652629,-0.1081057
-7.007771000000001,0.03124912,-1.4269059,-0.08527679,-0.13390166,-0.035168383
-6.6905775,0.023855826,-1.7950191000000002,0.16702801,-0.32073915,0.062220987
-7.0214562,0.10794977,-1.4011827,0.4661949000000001,-0.052447144,0.15591027
-8.179934,-0.03638229,-0.93242663,0.12870058,0.15727162,0.043598324
-10.204136,-0.036985625,-0.63452095,-0.3466573,-0.05989969999999999,0.12397074
-12.236976,0.24050234,-1.0511503,-0.48986155,-0.16318828,0.17987363
-12.0862465,1.1313082,-2.8596152999999997,-0.38285542,-0.10622074,0.11971214
-13.001741,1.2457415,-1.6302216,-0.17257816,0.048136182,0.014311700000000002
-16.503288,-0.91688347,0.7927489000000001,0.036075957,0.06784095,-0.09744173
-14.583743,-2.2893262,-0.38016093,0.18884462,0.043877575999999995,-0.20177752
-15.018070000000002,-2.8868325,2.5884384999999996,0.24207717,0.05878269,-0.24223424
-15.261207,-2.578086,4.622360700000001,0.20961404,0.011414453,-0.21509437
-11.37331,-0.20829555,3.0314520000000003,0.19842649,-0.06841691,-0.14430383
-9.340567,0.7852311,1.0608898,0.22078414,-0.1227141,-0.071907565
-10.59215,1.4119277,1.4607791,0.24101251,-0.15732397,-0.02984513
-10.724836,1.4981287,1.7406325,0.276146,-0.17116444,-0.025586527
-9.995677,-0.39828983,2.030149,0.25591764,-0.11206759,-0.002687807
-9.190660000000001,-1.7810944,2.0618865,0.23090705,-0.07960447,0.06382669
-8.400919,-1.5541722,1.5485122,0.23942427,-0.06574655,0.1372876
-7.739745599999999,-1.1477133,0.71625894,0.2947861,0.0045029493,0.21235421
-7.54683,-1.0192116,0.11260410000000001,0.36292377,0.07796386,0.29220300000000005
-7.8678927,-1.1438442,-0.12989023,0.36877063,0.09178686,0.39653879999999997
-8.163826,-1.2805243999999998,-0.0022026657,0.37995818,0.05932374,0.47532296
-8.237711000000001,-1.2946118999999998,-0.15614025,0.35653585,0.12054989,0.45670029999999995
-8.319506,-1.3226528,-0.29850906,0.24740042,0.2131745,0.39440949999999997
-8.042057000000002,-1.2875538,-0.59000796,0.21120229999999998,0.22860323,0.3491531
-7.912013000000001,-1.2113512,-0.8814396999999999,0.31607914,0.20676915,0.31988394
-7.916246000000001,-0.911214,-1.0270168,0.36611772,0.39894736,0.2645221
-7.4291697,-0.79484624,-0.934658,0.08079129,0.31110492,0.11173598
-6.949706599999999,-0.62220514,-1.0421672,-0.07836528,-0.02528982,0.029234264
-6.8393817,-0.5332845,-1.148623,0.024888393999999998,0.18975219,-0.05539675
-7.0520735,-0.23294625,-0.7165366999999999,-0.10869910599999999,0.20731021,-0.17090264
-7.3231254,0.069699995,-0.4613531,-0.40041342,0.103515476,-0.23797564
-8.375262,-0.24609520000000001,-0.8449329,-0.38498473,0.036442474,-0.17676695
-10.855147,-0.45650724,-1.2530103000000001,-0.10072295,-0.15411258,-0.109693944
-12.871955999999999,0.14124832,-1.9439481,-0.06291912,-0.09342747,-0.12831661
-12.132627000000001,0.50092447,-3.0151713,-0.054942965999999996,-0.14453071,-0.07136651
-11.889327999999999,-0.37052664,-2.6470199,-0.12041026,-0.15252432,-0.005358161
-14.714391,-0.34081940000000005,-3.071397,-0.17470746,-0.14187782,0.026040312000000003
-14.0209055,0.19668846,-0.7915996999999999,-0.12786283,-0.18020524,0.09950122
-12.880394,1.0644046,0.38262215,-0.049619712,-0.20256291,0.17509143
-12.275063000000001,0.36703113,1.4557991000000001,-0.04907866,-0.20682152,0.16976817
-13.138564,1.0009009,2.116484,-0.10817551,-0.2376964,0.11492993
-13.172792000000001,0.55870134,4.139881,-0.15234978,-0.26696557,0.054785885
-11.124333,-0.50580865,3.0027885,-0.13264503,-0.24673720000000002,0.029775318
-11.044702000000001,-1.5630498,1.8802240000000001,-0.08634144,-0.20362756,0.012740903500000001
-11.744133999999999,-0.27626213,1.4480898000000002,-0.056531213,-0.17008233,-0.028239427
-10.984971,0.41510668,0.7989834,-0.07623598,-0.11739085,-0.08892453
-9.641727000000001,0.5609423000000001,0.24174733,-0.16671385,-0.0018675023000000002,-0.16290903
-8.446819999999999,0.27613762,0.012440273,-0.28330183,0.15833627,-0.22519983
-7.665343300000001,0.35363317,-0.28076324,-0.40573668,0.3494498,-0.30665433
-7.319007400000001,0.5349795999999999,-0.48234546,-0.44032910000000003,0.46176177,-0.35082862
-7.011755,0.71394134,-0.41896614,-0.492497,0.4543092000000001,-0.35189328
-6.8222394,0.8515314,-0.13719733,-0.5111371,0.40907028,-0.30930725
-7.009169,0.90057415,0.0004405331,-0.43235296,0.47401398,-0.23904029999999998
-7.510783,0.9311912,-0.28138575,-0.5420119999999999,0.5261819000000001,-0.27895597
-7.6685419999999995,1.0439295,-0.49605945,-0.5467941999999999,0.45324454,-0.26139796
-7.4166527,0.9442156999999999,-0.8055723000000001,0.028099801,0.12533209,-0.12831661
-6.815545599999999,0.7330758,-1.5021701,-0.09538224,0.29089403,-0.1267109
-6.2997093,0.6343677,-1.8732616999999998,-0.34663984,0.3569024,-0.15652113
-6.35809,0.7887171,-1.2941331,-0.5792748000000001,-0.14187782,0.06597344599999999
-7.506234,1.1665603999999998,-0.9145371999999999,-0.3956138,-0.30688125,0.28529152
-9.630991999999999,1.1859246,-0.9225146999999999,-0.17151349999999999,-0.034330625,0.24483478
-11.953368,1.200175,-0.55692005,-0.11721631,0.04921828599999999,0.1319818
-12.3258295,0.99165916,-2.0232441000000003,-0.09112364,-0.0029321532,0.027646014
-11.675814,0.47703987,-3.389069,-0.06824237,-0.05935865,-0.040474183999999996
-16.443684,-1.9176981,3.088501,0.008936086,-0.09023352,-0.10754719
-14.224929000000001,-1.8127650000000002,-2.2644455000000003,0.13402383,-0.08756317,-0.16397369
-10.5644245,-0.46574885,-0.47084373,0.26445228,-0.10088003,-0.17568484
-10.659216,0.61880535,0.61753166,0.33152529999999997,-0.15304792,-0.14587462
-14.203315,-1.5463288,3.087141,0.3879518,-0.22811453,-0.09370673
-14.739576999999999,-2.1904743,4.4470089999999995,0.43479642,-0.29038787,-0.05644395
-11.659742999999999,-0.5830743,2.11816,0.43744934,-0.29199359999999996,-0.053249995999999994
-10.340988000000001,0.5757289000000001,1.5751643999999998,0.42893213,-0.23502603,-0.047926743
-10.335423,-0.23620236,1.0120770000000001,0.39912188,-0.14772467,-0.0047996556
-9.958127000000001,-1.0301963,0.6304411999999999,0.3634648,-0.1317549,0.04946263
-9.160599000000001,-1.1920156000000002,0.36198413,0.38208747,-0.14772467,0.101630524
-8.254758,-1.248174,0.27008513,0.4113741,-0.11365584,0.17137387
-7.811226400000001,-1.3373723,0.10427227,0.46141270000000006,-0.02794272,0.24802874
-7.5705423,-1.4184879,-0.08780974,0.4976108,0.06679375,0.31244883
-7.740502,-1.4810628000000001,0.041726146,0.44916049999999996,0.15196581,0.3481059
-7.8619259999999995,-1.3095421,0.10449254,0.3357839,0.1285435,0.36566392
-7.8968143,-0.9130431999999998,-0.12009315,0.21973695,0.025795966,0.3640757
-7.821751600000001,-0.77190024,-0.46156379999999997,0.16809265,0.028989919,0.3262893
-8.132806,-1.0094625,-0.8580915000000001,0.22186625,0.16420057,0.3182957
-8.295487,-0.9411128000000001,-1.0208684000000001,0.25965264,0.24617869,0.29806733
-8.014427,-0.86643285,-1.1897554,0.12124802,0.16632988,0.18308504
-7.5949535,-0.72275203,-1.2960771,-0.041626103,-0.16050048,0.1969255
-7.278526299999999,-0.29109663,-1.2448700000000001,-0.20238838,-0.08117526,0.088854715
-7.034567,-0.012334928,-1.426609,-0.39880773,-0.12323769999999999,-0.12191125
-7.294864,-0.22347479,-1.62392,-0.38229692,0.07424631,-0.12990485
-8.537981,-0.33514994,-1.6058868,0.04087561,0.022602014,-0.023963371
-10.217065,-0.100824624,-1.2882912,0.25539404,-0.10088003,-0.06867871
-11.283566,0.31679120000000005,-1.6007153,0.266058,-0.09342747,-0.1293638
-11.5623665,0.40276217,-2.3287156,0.14947,-0.04124213,-0.03302163
-12.581233000000001,-0.08183382,-2.0980964,0.005742133000000001,-0.01144936,0.036163222
-14.1481905,-0.12442187,-2.549978,-0.04160865,-0.042847835,0.105906576
-15.155766,0.6087975999999999,-0.36960727,-0.02724459,-0.08703957,0.18202038
-14.912094,1.7093067,1.1238096000000002,-0.029914944,-0.12376129599999999,0.23260003
-14.493089000000001,0.90347594,1.8408825,-0.10124655,-0.16688839,0.2070484
-12.553824,-0.5684409,2.7472315,-0.21940534,-0.17273523,0.13039355
-11.341305,-1.7386502000000001,4.0526075,-0.31789428,-0.19083429999999998,0.072902404
-10.843502,-2.2444298,2.2465656000000003,-0.38336158,-0.21638592,0.026057765
-11.066125,-1.1852448,1.0646726999999998,-0.4259476,-0.24459045,0.0015707964
-11.006021,0.07570466,1.0382025,-0.48504445,-0.28026497,-0.028221974
-10.2192955,0.82400763,0.85885763,-0.5388006,-0.28771752,-0.08943067
-9.066975999999999,0.8499129000000001,0.5587492,-0.5883156,-0.23289673,-0.16929694
-8.034414,0.68975997,0.28086859999999997,-0.6351602,-0.15144221,-0.23369959
-7.341408,0.6682121,-0.1256094,-0.6697701,-0.08969247,-0.2693741
-6.7994466000000005,0.9595769000000001,-0.32808223,-0.59522706,-0.058276545,-0.28693214
-6.6617317,1.0854353,-0.43818679999999993,-0.49195597,0.022078415,-0.33803537
-7.048913000000001,1.230974,-0.30781773,-0.5228483,0.15568337,-0.40245548
-7.652951,1.2898043,-0.18403749,-0.6463303,0.2451315,-0.40404373
-7.9395942999999995,1.0794115,-0.26774836,-0.60428536,0.24884905,-0.3034255
-7.947878,0.99975157,-0.61450535,-0.51965433,0.19401079999999998,-0.33538246
-7.694878,0.98705274,-0.6225689999999999,-0.2742436,-0.111509085,-0.3795393
-7.515264999999999,0.5800384,-1.0166546,0.11433652,-0.63372904,-0.38114499999999996
-7.2089987,0.13474567,-1.9113581999999998,0.042481314000000006,-0.53791046,-0.33803537
-7.237691000000001,-0.057566185,-1.7431799,0.20111428,-0.42877504,-0.10007718
-7.4185677,0.6036836,-0.48788086,0.61152846,-0.20413370000000003,0.10218903
-7.730293,0.6046604,-0.2592154,0.66743135,-0.014625859,0.036180675
-8.916447999999999,0.013005303000000001,-1.4917216,0.41510909999999995,-0.035395276,0.06012659
-11.393633,-0.008178593,-1.2495914,0.15426965,-0.17699383,0.17297958
-12.680525999999999,0.4568041,-1.3948619,0.029705504,-0.2563016,0.16926204
-13.045287,-0.23479457,-1.7094218,0.025970499999999997,-0.22329742,0.10325368
-16.594576,-2.1317685,1.5316954,0.10316641,-0.13227850000000002,0.013823007
-15.436491,-3.3403711000000005,-0.8525178,0.2160194,-0.10140363,-0.12349949999999998
-14.841714000000001,-3.2955900000000002,0.9141062,0.24315926,-0.096603975,-0.19376646
-14.712762,-1.6581092,3.6722937000000004,0.17289232,-0.097668625,-0.15330972
-13.021823,0.52764374,4.6326847,0.13510594,-0.08489282,-0.105400436
-9.341571,0.6216688,2.5318970000000003,0.14042918,-0.07318166,-0.060161497
-9.243628999999999,0.43536162,2.2635549999999998,0.15852825,-0.07052875,-0.013840461
-9.760911,1.7024593000000001,2.3430042,0.17928022,-0.050282937,0.013299409
-9.924205,1.5682883,2.2669644,0.2096315,-0.02687807,0.050544735
-9.969676,-0.26142767,2.5989347,0.26338765,-0.009302605,0.098995075
-9.173653,-0.6241300999999999,2.577904,0.35335937,0.014102261000000001,0.16233307
-8.23772,-0.8601025999999999,1.441568,0.47099456,0.086498514,0.23260003
-7.8749413,-1.3745016,0.2772294,0.51890385,0.21638592,0.27944466
-7.8538630000000005,-1.314685,-0.03565445,0.4582362,0.40749946,0.31566024
-7.929433,-1.0052199,0.13146083,0.34749505,0.56506777,0.36250487
-7.8781686,-0.7481496999999999,0.195635,0.18992673,0.6539574,0.3758043
-7.717939,-0.63561267,0.20355502,-0.045867253,0.58210224,0.34388223
-7.522983999999999,-0.90071785,0.18371189,-0.11561061,0.46605527,0.27572712
-7.374955,-1.2144636,0.014480132,0.122853726,0.43411574,0.29541442
-7.447049000000001,-1.3388950000000002,0.06358042,0.36987020000000004,0.4420919,0.31618384
-7.4973755,-1.1073278999999998,0.21121648,0.29002136,0.47031388,0.124023095
-7.203817999999999,-0.618633,-0.24236983,0.15959291,0.06839945,-0.06227334599999999
-6.7253413,-0.152118,-0.8075545999999999,-0.003281219,0.14985397,-0.16395622
-6.6479893,-0.055315635999999994,-1.1433846,-0.20182988,0.22012092,-0.15756832
-6.9128838,0.36483803,-1.2379651000000003,-0.20769417,0.2488665,-0.15915658
-7.878197,0.9067225,-1.5834771,0.104754664,0.07052875,-0.103271134
-9.705297999999999,0.5972384,-1.9054685000000002,0.29799749999999997,0.0008028514599999999,-0.17086773
-11.6841345,-0.65676785,-1.0123547,0.3416482,0.05935865,-0.11709414
-12.664829,-1.7283455,-1.1905311,0.30864403,0.09714503,-0.023422317999999998
-12.985575,-2.2708428,-1.2127589,0.2133665,0.08810422,0.012758356499999998
-14.308823,-0.5868475999999999,-2.030513,0.17397442,0.006126106,0.057473693
-14.793954000000001,1.6809787,1.4728267,0.18992673,-0.09712757,0.13999286
-14.225292999999999,3.097599,1.5387342,0.16385151,-0.15515977,0.1868375
-12.702945,1.703283,2.2659492,0.044610616,-0.20359266,0.14796901
-12.110552,-0.3106237,3.3296642,-0.077265725,-0.24565509,0.07717845599999999
-12.177743,-1.2173558,4.2204604,-0.13103932,-0.30206412,0.04045673
-11.567001,-1.798055,2.4709406000000005,-0.15179129,-0.32974505,0.02607522
-12.041953,-0.6715161000000001,1.4869237,-0.15924384,-0.34999087,0.0010471975
-11.711774,0.25433126,1.3208811000000003,-0.18160151,-0.35157913,-0.053232543
-10.653671000000001,0.7702626,0.5913487,-0.24921556,-0.32922146,-0.12934636
-9.555777,0.9077185,0.11243171,-0.36046284,-0.19027579,-0.19907226
-8.414738999999999,0.96161675,-0.17826268,-0.48874456,-0.020996312000000003,-0.24911085
-7.602194,1.166819,-0.5437998,-0.5776515999999999,0.16210619,-0.30447268
-7.0273843,1.0778216999999999,-0.68961626,-0.56328756,0.31435126,-0.33269465
-6.851592,0.9795446,-0.3702968,-0.55955255,0.397394,-0.34121186
-6.909925,1.0092039000000002,-0.08221689,-0.58191025,0.37290704,-0.35770524
-7.0468254,1.2406944,0.15603492,-0.5994857,0.21905628,-0.3108606
-7.413042,1.1791346999999999,0.055037912,-0.6250373,-0.06944665,-0.24485224
-7.703152,1.2892967,-0.5448437,-0.21940534,-0.23553218,-0.17086773
-7.592636,1.3557502000000001,-1.0362296,0.20165534,-0.35477307,-0.16660912
-7.153529600000001,1.1133517,-1.5773863000000001,0.43748423,-0.30579913,-0.009564404
-6.754282000000001,0.8938896000000001,-2.075141,0.6695607,-0.31963959999999997,0.17353809
-6.5385075,0.700055,-1.4332649,0.9522341999999999,0.081716314,0.053232543
-7.0693693,0.39830896,-1.4629816999999998,0.558837,0.06841691,-0.05215044
-8.47737,0.39615417,-1.5426799,0.095713854,-0.050282937,0.063338
-11.224066,0.43765047,-0.85706675,-0.09004153,-0.13919,0.21078339999999998
-13.630161,0.6478326999999999,-0.9181189000000001,-0.20608848,-0.12161454,0.10220648
-15.94184,-0.32784283,0.8119695,-0.17894861,-0.05773549,-0.0037175512
-15.635497,-2.242055,-0.68221337,-0.073548175,-0.029513517000000003,-0.110182635
-14.467576999999999,-3.0846127999999995,0.20258777,-0.022968533,0.0018675023000000002,-0.23048818
-14.614120999999999,-3.0807438,1.6379404,-0.0474555,0.011466813000000001,-0.23898794
-15.523083999999999,-2.0497816,4.690059,-0.08791223,-0.028989919,-0.17406169
-10.468522,0.92189217,2.1366142999999997,-0.103358395,-0.088610366,-0.09473647
-9.647264,0.99209017,1.1269795,-0.116116755,-0.07422885,-0.014346606000000001
-9.780735,1.8128896,2.000298,-0.10016444,-0.035901424,0.03778638
-9.676166,2.3371336,1.6953534,-0.03626794,-0.03642502,0.059096847
-9.392596000000001,0.2047234,1.1790007,0.06963864,-0.022060962000000003,0.08197811
-9.683856,-1.3493146,1.7841017,0.17823303,-0.030578168,0.14318681
-8.709205,-1.3939424999999999,1.4731809999999999,0.29693288,0.04605924,0.20015436
-7.7720766,-1.117872,0.50549257,0.46303585,0.29305825,0.22944099
-7.846996300000001,-0.9464471,0.012832921,0.5418026,0.5352576,0.2602984
-8.0852,-0.7341101,0.09569145,0.44067818,0.65130454,0.30449015
-7.8146453,-0.7119398,0.23553199,0.29108602,0.60925955,0.32843605
-7.529620599999999,-0.86707455,0.14839262,0.21230185,0.46286133,0.34334117
-7.5311337,-1.1089942,-0.07889373599999999,0.29534462,0.43624505,0.29330257
-7.543756,-1.4630584,-0.15245318,0.4790056,0.50279444,0.27361527
-7.716224700000001,-1.4982722,-0.18277337,0.41671482,0.53845155,0.19589576
