accx,accy,accz,gyrx,gyry,gyrz
-9.027548,-0.0024995466,-0.06216305,0.27256808,-0.06766641,-0.0035081116999999998
-8.897093,-0.0012258312,0.04144842,0.40990803,0.038257618,-0.016824974
-9.178765,0.07929596,0.08928457,0.33751178,0.09520771,-0.10997319
-9.772605,-0.17668252,-0.074469246,0.12034045,-0.06021386,-0.15255924
-9.742659,-0.92577076,-0.6126379,-0.043615777,-0.15177383,-0.16160004
-9.723821000000001,-1.4681532,-0.94956917,-0.0782082,-0.14165092,-0.1168847
-10.406675,-1.1540053,-0.5288121,-0.004223697,-0.13048081,-0.031730086
-10.609722999999999,0.36479017,-0.039485175,0.08998918,-0.1853016,0.036390115
-11.218347999999999,2.1153060000000004,2.4813316000000003,0.15599753,-0.21619393,0.058224183
-15.575872,3.3579159,4.064962,0.18207274,-0.17200220000000002,0.06513569
-13.586155999999999,5.327262,2.9025002,0.16077973,-0.09800023599999999,0.06993534400000001
-10.085086,1.9771892,3.0404735,0.11712904,-0.10173524,0.070999995
-10.564971,-0.16423267,2.3531459999999997,0.09157742599999999,-0.1155757,0.070999995
-10.8827,-1.0626999,1.9189048,0.07667231599999999,-0.07991862,0.0795172
-10.765873,0.009959879,2.3314543,0.064420104,-0.07459537,0.09227556
-10.401112,1.6674944999999999,2.2392297,0.052726395,-0.07298967,0.0842994
-10.195431,2.7971458,1.6539528000000001,0.04579744,-0.041050144,0.061941735
-9.420608999999999,2.8747754,1.3393452,0.030368729,0.008970993,0.03267256
-8.474794000000001,2.141508,1.2858396,-0.0004886922000000001,0.0845612,0.0060562924
-7.94353,1.2381471000000002,1.0927806,-0.010070549,0.17345083,-0.020559978
-7.8974757,0.6410619000000001,0.78447455,0.024504422999999997,0.26129323,-0.048764499999999995
-7.917606,0.40970537,0.47865838,0.005881759300000001,0.38053414,-0.07696902
-7.6224008,0.70079243,0.35375765,-0.103759825,0.40873864,-0.100391336
-7.596035499999999,1.2123183000000002,0.3626162,-0.28209758,0.36828193,-0.11264355
-7.592703299999999,1.4880155000000002,0.36317167,-0.45190066,0.43057272,-0.11210250000000001
-7.621031299999999,1.5663635,0.35263717,-0.5785941,0.6307271,-0.094544485
-7.854800999999999,1.6461668999999999,0.28262115,-0.78941244,0.5876,-0.029077185
-8.211978,1.6110487,0.13993629999999999,-0.9299289000000001,0.4385489000000001,0.19928169
-8.537619,1.3133249,-0.07356903,-0.70157,0.03556981,0.24664994
-8.733692999999999,1.1639843,-0.2858102,-0.429543,-0.6564183000000001,-0.012025318
-8.870335,1.4682777,-0.45410344,-0.18308504,0.19954349,0.14978416
-9.619625,1.5659707,-1.0617996,-0.11920599,0.5562015,0.17744762
-10.733561,1.5577921000000001,-1.6596317999999999,-0.13730505,0.28258625,0.21577506
-10.815241,2.1382136000000003,-2.199802,-0.12826425,0.24958208,0.25144958
-9.993321,3.0902822,-2.1654787,-0.15008086,0.1564164,0.218969
-9.365418,3.507285,-1.375622,-0.21289526,0.05794493,0.1497667
-10.18727,2.4858518,0.38796604,-0.2027898,-0.08204792400000001,0.11730358
-15.991408999999999,0.0008140285499999999,6.0358305,-0.14529866,-0.14166838,0.10770427
-19.41643,-4.5903263,5.985073000000001,-0.0782082,-0.1629614,0.10400417
-10.951145,-1.4803540000000002,4.8064556,-0.0074176495,-0.1060113,0.16627751
-9.125471000000001,2.9624224,2.3995457,0.010663961999999999,-0.09430013599999999,0.23867378
-11.278328,4.0448985,0.6598803000000001,0.044732787,-0.16242033,0.25357887
-11.846692,2.135082,0.9323021,0.119258344,-0.17945476,0.22909191
-11.263196,0.03098097,1.6627060000000002,0.18900171,-0.18158406,0.18704693
-10.339398,-1.4723191,1.3516896999999999,0.24914575,-0.18371336,0.17425367
-9.596458,-1.7689415000000002,0.72633374,0.3130248,-0.13686872,0.18331192
-8.637361,-1.0153905,0.44779232,0.34815827,-0.13793337,0.18702948
-8.073229,0.18620186,0.48724878,0.41894883,-0.12198106,0.17851228
-7.8256397,0.82801074,0.73117965,0.5094442,-0.09162979,0.15934856
-7.9975243,0.93477297,0.5468261,0.5855754,-0.051714107,0.12688543
-8.141579,0.94542235,0.111330375,0.64519584,0.03398156,0.09227556
-7.9006834,-0.052634127,0.22536142,0.6904348000000001,0.09201376,0.058747783
-7.6511309999999995,-0.50479347,0.2790873,0.6297497,0.13672909,0.03000221
-7.753144,-0.44002554,0.08246588,0.61751497,0.16812757,0.03317871
-7.977422,0.16241308,-0.25069207,0.5296725,-0.07353072,-0.10040879
-8.4011965,0.6741593000000001,-0.60147136,0.15545648,-0.58510417,-0.18771017
-8.872835,0.5174253,-0.70829105,0.3130248,-0.25132743,0.0172264
-9.039616,0.44981304,-0.62822896,0.16982053,-0.28113765,-0.15044738
-9.552443499999999,0.5788126,-0.8794765,-0.04574508,-0.24174555,-0.28939304
-10.010177,0.33099359999999994,-1.3301802,-0.22354177,-0.19648917,-0.33676127
-9.877728999999999,0.07944919,-1.7856816999999998,-0.3438473,-0.23322834,-0.32450905
-9.8308325,-0.07751467,-1.5615367,-0.3475823,-0.28433159999999996,-0.28085837
-10.354424,0.5521699000000001,-1.2562472,-0.2725157,-0.318924,-0.21697932
-10.06938,1.6144773000000001,-0.702114,-0.21289526,-0.26357964,-0.13980088
-12.226834,1.9008237000000001,3.0063033,-0.22780037,-0.18106046,-0.06421066
-17.092781,5.526957,5.6147385000000005,-0.274645,-0.10812314599999999,-0.014695672
-12.618994,8.959237,2.1036797000000003,-0.3033906,-0.05810201,0.002321288
-10.123182,2.4859188,1.2290683,-0.28103292,-0.025097834,-0.0067195175
-9.899612,-0.31751904,1.4287543,-0.24057618,-0.011257373999999999,-0.024818582000000002
-10.248332000000001,-0.29966784,1.3832548,-0.21076596,-0.01870993,-0.048240899999999996
-9.870489,1.243127,1.5298758,-0.20970131,-0.04426155,-0.054628804
-9.359221,2.6863806,1.3532218999999999,-0.22621213,-0.042655847999999996,-0.04930555
-8.643604,3.521229,0.99394804,-0.25654593,-0.006998770400000001,-0.050911255
-8.046624000000001,3.4000826,0.7439455,-0.29647908,0.087214105,-0.06794567
-7.8146744,2.7533605,0.7593546,-0.27358037,0.22881266,-0.08337438
-7.911563,1.8778107,0.8981608,-0.18734364,0.38158134,-0.098820545
-7.9531837,1.1902151,0.9466674,-0.18256144,0.6040934,-0.14938273
-7.937066000000001,0.78010756,0.9138572,-0.26028094,0.6882008000000001,-0.24520129999999998
-7.899707,0.7896076999999999,0.67255044,-0.38803905,0.6674488000000001,-0.33091444
-7.9867887,0.99015564,0.42513362,-0.51419145,0.650938,-0.32611477
-8.031149000000001,1.1224496000000002,0.23185450000000002,-0.62226224,0.43322563,-0.20048597
-7.9619083,1.3031926999999999,-0.042789172,-0.46734682,0.23094197,-0.09669124
-7.8834167,1.3762828999999999,-0.3079901,-0.49663344,-0.12889257,-0.23722515
-7.901632000000001,1.2838379999999998,-0.39528272,-0.6861413000000001,-0.07620107400000001,-0.07752752
-8.026752,1.5613258999999997,-0.20121829,-0.8330631,0.040369466,0.08375835400000001
-8.177052,2.0616183,-0.35401624,-0.6866649,-0.055431657,0.20991075
-8.816983,1.356957,-1.4322784,-0.33639476,-0.15392059,0.19661134
-10.093159,0.5703372,-2.1256874,-0.12665854,-0.13369222,0.09918706
-10.9648695,0.9802245,-2.1599817000000003,-0.11548844,-0.15604989,0.0028448866
-13.013655,1.8465328,-0.20637060000000002,-0.19001399,-0.25239205,-0.071663216
-16.445626999999998,1.8864298,2.929957,-0.23101178,-0.32374109999999995,-0.113725655
-17.708054,0.1464581,4.2730274,-0.21237166,-0.32159436,-0.12543681
-12.381604,0.5698583,1.3181709,-0.13252285,-0.26038566,-0.11798426
-11.153532,1.1895735,1.1842201,-0.037768926,-0.23429299999999997,-0.09827949
-11.222275,1.6549968000000002,1.8629474999999998,0.020769417,-0.23589870000000002,-0.06901032
-11.460278,1.4528781000000002,3.2751722,0.043127085999999995,-0.21567033,-0.028012535
-10.591661,0.20134279,3.6376638,0.030874874,-0.18853046,0.0225322
-9.889747999999999,-0.7071323,2.2763782000000004,0.042603485,-0.12198106,0.07044149
-9.349644999999999,-1.3477248,1.0896682,0.07878416,-0.012863076000000001,0.10876892
-8.482341,-1.5731916000000001,0.44441172,0.124581605,0.0877377,0.13538519
-7.781059700000001,-1.315566,0.50469774,0.24062854,0.21123719,0.15561356
-7.385068400000001,-0.6793786999999999,0.9307794,0.38062140000000005,0.2889567,0.19074704
-7.3923179999999995,-0.03826892,1.2902066,0.52541393,0.3432539,0.19341739
-7.5892076,0.236346,1.1285309,0.5695882,0.35177112,0.14603170000000001
-7.726089,0.17277518,0.65655714,0.6041981,0.3714584,0.0853466
-7.963239,-0.13345279999999998,0.18938135,0.63133794,0.5098630000000001,0.042219516
-8.277656,-0.3269905,-0.057987563,0.7596371,0.38212240000000003,0.031049407999999997
-8.423989,-0.32107199999999997,0.004501099000000001,0.54723054,0.10423106,-0.10786135
-8.497003,-0.2288761,-0.10941502,0.43385395,-0.049043752,-0.005654866999999999
-8.473855,-0.46043372,-0.18885463,0.2943847,-0.024556782000000003,-0.016301375
-8.581585,-0.42804495,-0.337841,0.03195698,0.122871175,-0.062081363
-9.543949000000001,-0.23685358,-0.48154098,-0.21237166,0.041434117,-0.05836381
-10.387149,-0.51515555,-0.83630425,-0.33800048,-0.0479791,-0.004590215999999999
-10.607433,-0.97968817,-1.4107976999999998,-0.31723103,-0.07780678,0.05766568
-11.011844,-0.95731676,-0.5192832000000001,-0.17456783,-0.18214256,0.09599311
-11.342386,-0.09362286,0.19553925,0.0032114058000000003,-0.22844614,0.11728612
-11.839835,1.7987447,1.7650150000000002,0.09264208,-0.1688257,0.11143927
-14.894223,3.1679117999999997,3.2805923999999997,0.084107414,-0.13423327,0.12367403
-14.200536999999999,6.518827,2.8999145,0.030874874,-0.047996555,0.13912019
-11.252671000000001,3.3181529999999997,2.7270436,-0.004223697,-0.0085870195,0.13857915
-11.549304,1.1771428999999998,2.5571032000000002,0.017575465,0.0030892328,0.12845623
-11.404014,0.06468175,2.2577226,0.039933134,-0.02776819,0.10983357
-10.648777,0.30764535,1.9276388,0.0596379,-0.052255157,0.08641125
-9.776972,1.1970338,1.025609,0.05644395,-0.057560957999999995,0.066723935
-8.927011,1.8691053,0.5747711999999999,0.019704766999999998,-0.037873644,0.064594634
-8.062617,2.1636113999999997,0.5605496999999999,-0.02979277,-0.008063421,0.06033603
-7.6335387,1.8743343000000001,0.42634985,-0.039898228,0.055257123,0.03424336
-7.692004700000001,1.4530219,0.32501766,-0.002635447,0.109030716,0.005497787
-7.698430999999999,0.918004,0.1385285,-0.007958702,0.25808182,-0.040264744
-7.730772,0.72996336,0.015524004,-0.08407251,0.40819759999999994,-0.11105530000000001
-7.841786,0.96253616,0.035223495,-0.18469074,0.49443433,-0.17601645
-7.959782000000001,1.3555298999999998,0.07040869,-0.29914942,0.60035837,-0.21912609
-7.9597435,1.5541817,0.11084197,-0.42689008,0.7137524000000001,-0.21806143
-7.985687700000001,1.6493176,-0.03898718,-0.49715704,0.5572486999999999,-0.20261528
-8.087106,1.6428629000000001,-0.3431274,-0.54188985,0.21708405,-0.11424925
-8.121238,1.3884168,-0.4819049,-0.34599406,-0.09271189,0.012950343000000001
-8.246828,1.1001451999999998,-0.5499576999999999,-0.100059725,-0.40304887,-0.036529742000000004
-8.524355,1.3193871000000001,-0.40623856,0.105400436,-0.22685789999999997,0.006038839
-8.880822,1.4167832,-0.95920336,0.18685494,-0.15498523,0.07311184
-9.735284,1.2634968999999998,-1.7976911,0.3284535,-0.16989034,0.14070845
-10.318166999999999,1.7591254,-2.4692933999999997,0.37477455,-0.101229094,0.11037462
-10.571904,2.6374237999999997,-2.6868498,0.2635098,-0.12730432,0.06298893
-11.354472999999999,3.150961,-1.5442505,0.025028022,-0.20130627,0.021991148999999998
-12.681436,2.8626895,0.29187235,-0.19268435,-0.25612706,-0.047193702000000004
-15.034773000000001,0.7099287,3.4905449999999996,-0.27199212,-0.25612706,-0.09723229
-16.502714,-1.5922495,5.2113533,-0.29222047,-0.22738150000000001,-0.10733775
-12.896386999999999,-2.0430298,3.4019306000000005,-0.2868972,-0.17362535,-0.06742207
-11.146187,0.6579170999999999,2.1725178,-0.30819023,-0.15550883,-0.012042772
-11.17305,3.1356094,1.3897191,-0.32735395,-0.11878711,0.029461157999999998
-11.052764999999999,2.9843438,1.7219480999999999,-0.33641222,-0.073548175,0.05660103
-10.192394,1.5636628000000001,0.97898906,-0.30234340000000004,-0.009669124,0.080564395
-9.204191999999999,0.7318021,0.24110568,-0.22675318,0.0946492,0.0874759
-8.124379,0.15708837,-0.25874615,-0.16552703,0.23040092,0.0901288
-7.185957000000001,-0.06875189999999999,-0.14384364,-0.07131415599999999,0.35390040000000006,0.09705776
-6.9894886,0.10476069,0.27057353,0.0628144,0.45343652,0.12739158
-6.977853,0.42633072,0.44109815,0.18950784,0.43374923,0.12473868
-7.277712299999999,0.64655894,0.37138858,0.25979227,0.36721727,0.07417649
-7.5147767000000005,0.5544971,0.08661264,0.4237485,0.32196090000000005,0.006038839
-8.052610000000001,0.1022803,-0.1935281,0.58555794,0.23998277,-0.087632984
-8.703737,-0.06747818,-0.33741006,0.72823864,0.20591395,-0.14618878
-8.770516,-0.0055832784,-0.25189874,0.83416265,-0.14116223,-0.22392574
-8.543077,0.13271539,-0.33430716,0.5850344,-0.28487265,-0.28726375
-8.363894,0.13261962,-0.44602063,0.49399799999999994,-0.2981895,-0.10681415
-8.493344,0.3378506,-0.6754616999999999,0.4391772,-0.09112364,-0.065816365
-9.062819500000002,0.47854346,-0.8200045,0.26563909999999996,-0.072483525,-0.08550368
-10.225013,0.089686796,-0.5823656,0.03728023,-0.092170835,-0.10840239999999998
-10.950562,-0.8473367,-0.546127,-0.11335913,-0.12891002,-0.08285078
-11.051473,-1.5655589,-0.7934479999999999,-0.098995075,-0.11932816,-0.00726057
-11.754563000000001,-1.8146995,-0.86895156,0.028745572999999996,-0.15126769,0.05766568
-11.85127,-0.36049974,-1.0647973,0.14905111,-0.2247286,0.0832173
-12.885038,1.8383447,0.8099968000000001,0.16662659,-0.2944545,0.076829396
-15.055918,3.9340374,1.6663357,0.10807078,-0.28593728,0.065659285
-12.462241,5.026828,1.7706558000000001,0.054314647,-0.22896974,0.053948127
-10.116355,3.1100583,1.9866128,0.03673918,-0.20556487,0.041154865
-9.839585000000001,1.5879782,1.8489941000000003,0.05749114599999999,-0.2225993,0.032637656
-9.744775,0.40379646,1.5631647,0.08464847,-0.23057544,0.016667895
-9.765652000000001,0.36662892,1.4431673,0.08730136599999999,-0.23483405,-0.005131268
-10.0241585,1.323869,1.2892489999999999,0.06335545,-0.22898720000000003,-0.030159289
-10.333423,2.468786,0.8942631,0.03141593,-0.18586011,-0.058904864
-9.942181,2.8887289000000003,0.3020525,-0.014346606000000001,-0.09377654,-0.088715084
-9.225453,2.3247507,-0.032790985,-0.04522148,0.068032935,-0.114790305
-8.748069000000001,1.4872016000000001,-0.036430172999999996,-0.061191242,0.26392868,-0.14672983
-8.389052000000001,0.98898727,-0.0026815059,-0.04522148,0.3922104,-0.1749518
-8.068144,0.9275808000000001,-0.083615094,-0.048956484,0.42097342,-0.1781283
-7.6860576,1.1197968999999999,-0.13346238,-0.12719959,0.41139156,-0.1648289
-7.3513484,1.314388,-0.23909456,-0.3300243,0.41830307,-0.13821262
-7.0413375,1.5223292,-0.33592567,-0.46362928,0.5013458,-0.10307915
-6.8336453,1.7600926,-0.38573462,-0.65474284,0.3134437,0.04808382
-6.760469400000001,1.868416,-0.5147246,-0.42530182,0.12658873,0.10398672
-6.839123700000001,1.864068,-0.48143566,-0.41200240000000005,-0.30990067,-0.077003926
-7.1850567,1.6718231,-0.6902388,-0.45085344,-0.061295964,0.039566614
-7.874950999999999,1.4799806,-1.2154883,-0.46949357,0.010018189,0.13697344
-9.288641,1.4993832,-1.4420084999999998,-0.34225908,-0.1624378,0.15987216
-10.751679,1.6710473999999997,-1.7276368000000002,-0.15488052,-0.11719886,0.10770427
-11.228701,2.1786947,-2.4122155,-0.124005646,-0.112399206,0.03317871
-12.00084,2.6135488,-2.0781286,-0.23420574,-0.2311165,-0.049846604
-13.0236435,2.3976015999999998,-0.61853725,-0.32361895,-0.31520647,-0.12543681
-16.990395,1.1549151000000002,4.118602,-0.29541442,-0.3109653,-0.1690875
-17.115248,-1.6102059,3.6744769999999995,-0.18310249,-0.26092672,-0.18186331
-11.975787,-1.0859907,1.7105901000000001,-0.04202753,-0.18586011,-0.1648289
-10.214144000000001,0.7701093000000001,1.432901,0.05749114599999999,-0.18746582,-0.13608332
-10.620516,2.4617755,1.6303748,0.094230324,-0.21834070000000003,-0.09403834
-10.461205999999999,2.373765,2.5742457,0.07239625599999999,-0.19545943,-0.029618237000000002
-9.754103,1.1183698,2.2254869999999998,0.027157322999999997,-0.1688257,0.04276056599999999
-9.365093,-0.46573925,0.89627415,-0.009564404,-0.09271189,0.10770427
-8.800222999999999,-1.6510509999999998,0.10565133,0.0058643064,0.049410272000000005,0.16784832
-7.8646080000000005,-2.063591,0.114806764,0.056426495,0.1468171,0.21308725
-7.400812599999999,-1.5361294,0.5790233,0.17353809,0.23359486,0.24558528
-7.3029470000000005,-0.71246654,0.85218257,0.2986433,0.25221753,0.25782004
-7.598775,0.062067285,0.79574645,0.40084976,0.27724555,0.20884609
-8.041739999999999,0.44162488,0.4031261,0.55735344,0.3980747,0.148161
-8.365647000000001,0.26187778,0.056014743,0.68404686,0.44598398,0.06085963
-8.673062,0.080119565,-0.31450236,0.8400095,0.54445547,0.004956735
-8.802244,-0.10863930000000001,-0.47339115,0.7644193,0.084002696,-0.1733461
-8.503160000000001,-0.28995696,-0.5082124,0.5280668000000001,-0.021380282999999996,-0.14353588
-8.2212,-0.18128896,-0.6189682,0.6079331,0.010018189,0.016685348
-8.231208,-0.12992854,-0.8309795,0.51370275,0.23572417,-0.08445648
-8.790894999999999,-0.0924928,-0.75469065,0.34548792,0.055257123,-0.123848565
-9.821638,-0.17601213,-0.6261603,0.24486970000000002,-0.14540339,-0.13714798
-10.247997,-1.0863451000000002,-0.80031455,0.23157029,-0.14805628,-0.088697635
-9.9662,-1.612131,-1.0619912,0.31726596,-0.19650662,-0.03281219
-10.41221,-1.580403,-0.47035527,0.40510836,-0.28009045,0.0006981317
-11.074055,0.071375936,0.30651528,0.46312309999999995,-0.28806659999999995,0.041695915
-14.359157999999999,1.7161925,3.4406977,0.45673522,-0.2401573,0.07841764400000001
-17.309877,6.554108,3.3641982000000006,0.3827507,-0.17149605,0.09864601
-11.285242,4.6470400000000005,2.093126,0.2901261,-0.12784536,0.10822786400000001
-10.984922000000001,1.3486155,1.6857383000000001,0.23102923,-0.12678072,0.094387405
-11.436986,-0.7199365,1.4574751,0.20282471,-0.112399206,0.07257079
-11.089167,-0.8778676,1.6725127,0.18099064,-0.13210396,0.04860742
-10.743855,0.4423144,1.1278796,0.14639822,-0.1725607,0.02412045
-10.344052,1.9182823,0.607093,0.10594148,-0.17201965,0.00017453292
-9.382082,2.7811716,0.17639521,0.05429719400000001,-0.07993608,-0.023771385
-8.409634,2.6790736,0.1384136,-0.0021118484,0.106901415,-0.04187045
-7.9363856,2.004943,0.14244542,-0.06332055,0.2676637,-0.078592174
-7.7881656,1.2706986999999998,0.03188119,-0.10962413,0.30653217,-0.10040879
-7.582331699999999,0.8176007,-0.028385654,-0.17671458,0.27776915,-0.09721484
-7.2987720000000005,0.93866116,-0.09105628,-0.32789502,0.26499334,-0.089779735
-7.212705000000001,1.298184,-0.26813143,-0.48811623,0.3741288,-0.064751714
-7.2915415999999995,1.6133950000000001,-0.4243483,-0.68668234,0.35974726,0.006021386
-7.3514056,1.8529876,-0.51178455,-0.72021013,0.29586822,0.17156586
-7.3230395,1.9639252,-0.5552632,-0.6994581,-0.060772362999999996,0.015603243000000001
-7.3493943,1.9928569999999999,-0.5641409000000001,-0.7383092,-0.06874852,0.031049407999999997
-7.6151795,1.8535814,-1.1154011000000001,-0.7899535,0.010541788,0.11569787599999999
-8.5813265,1.5228271,-1.5949118,-0.69359386,-0.103358395,0.18381807
-10.385108,1.5312548000000001,-1.5022084,-0.42423720000000004,-0.15500268,0.14283775
-11.723189,1.9048171999999999,-1.7477577000000002,-0.2735978,-0.12358677,0.053930674000000005
-11.483425,2.41438,-2.4189672000000004,-0.3071256,-0.19226547,-0.03600614
-12.066116000000001,2.9223819,-1.5460222,-0.41093776,-0.32267648,-0.12171926
-14.178472,2.6528714,0.68382233,-0.45298275,-0.37697366,-0.17441075
-17.181164000000003,0.57685894,4.579332,-0.41784927,-0.33810517,-0.18612191
-13.081104,-1.3312528000000001,1.7465606,-0.32683036,-0.24549802,-0.1690875
-10.783302,0.1392372,1.3673382,-0.23898794,-0.18905406,-0.13714798
-10.682717,1.7308546000000002,1.6840144000000001,-0.1894904,-0.20076522,-0.09136798
-11.08072,2.7695646000000003,2.4541142000000002,-0.17297958,-0.20450023,-0.029618237000000002
-10.548354,1.5279125,2.938557,-0.17723818,-0.19437732,0.031573005
-10.263396,0.09138189,1.6325678999999997,-0.16233307,-0.14487977,0.0874759
-9.829051,-1.2856671,0.54561937,-0.11974704,-0.06661922,0.13484414
-8.902417999999999,-1.6447017,0.21440555,-0.03457497,0.08028515,0.17743017
-7.93946,-1.1654016,0.5020641,0.036198127999999996,0.13829988,0.20298178
-7.327713,-0.31094936,0.7115759,0.15118042,0.18887953,0.20936969
-7.097515,0.27991092,0.71047455,0.20547761,0.16917476,0.18329448
-7.209094500000001,0.4720312,0.51997274,0.30183724,0.29002136,0.12206833
-7.611397,0.29500398,0.17348386,0.47324604,0.37517598,0.074700095
-7.979845500000001,-0.09215761,-0.12887509,0.603657,0.45556584,-0.015254176999999999
-8.253177,-0.47808376,-0.27902025,0.7404734000000001,0.53541464,-0.06049311
-8.424985000000001,-0.6821943,-0.21288285,0.7979645000000001,0.14947,-0.1733461
-8.428958999999999,-0.70238215,-0.127429,0.43811256,-0.10494665,-0.27448794
-8.338775,-0.36728013,-0.5101085999999999,0.48495720000000003,-0.05703736,-0.024294984
-8.613610000000001,-0.09918699,-0.606978,0.43598324,0.15639895,-0.08658578
-9.3804245,0.12459426,-0.61462986,0.19057249999999998,0.020123646000000002,-0.12650147
-10.162026,-0.42535388,-0.2961053,-0.024469515,-0.17149605,-0.11320206
-10.298506,-1.2526655,-0.5923829,-0.16446237,-0.23485151,-0.06901032
-10.323166,-1.5653291,-0.86525494,-0.13678145,-0.20556487,-0.021642083
-10.830525,-1.4922773,-0.69349486,0.006387905,-0.28009045,0.006562438
-10.857092,0.13192052,-0.48380113,0.14692181,-0.31628856,0.034766957
-12.441651,1.8274941000000002,2.6636547999999998,0.19057249999999998,-0.27530822,0.07309439
-17.512234,4.849398000000001,4.0850735,0.14533357,-0.21886429,0.09918706
-12.554905999999999,6.148013,2.527444,0.08836602,-0.13316862,0.10716321
-10.86664,2.4536161,2.1464307000000002,0.06761405599999999,-0.12411036,0.0879995
-11.537811,0.20647596,1.4085471999999999,0.06974336,-0.14433873,0.05979498
-11.248745,-0.5626949,1.3752198,0.06867871,-0.14433873,0.03211406
-10.618122,0.43156922,1.3503872,0.061767202,-0.14807373,0.004974188300000001
-10.131822,1.9075658,1.0355401,0.046844635,-0.12836896,-0.016842427
-9.536574,2.899005,0.71344334,0.03567453,-0.05757841,-0.033353243
-8.567469000000001,2.9395819,0.6078015999999999,0.027698375,0.09147271,-0.045046947999999996
-7.8161974,2.2012099999999997,0.39337692,-0.011693706000000002,0.24050637,-0.06742207
-7.4947133,1.2571762,0.1406354,-0.024469515,0.34538320000000006,-0.114790305
-7.554319400000001,0.59837806,0.081852965,-0.039374627,0.37304667,-0.15046483
-7.6377234,0.4915679,0.03637271,-0.11070623,0.36135298,-0.15472344
-7.496236,0.87343353,-0.03182373,-0.31457815,0.37039378,-0.13608332
-7.4407190000000005,1.3359455,-0.21830331,-0.5839348000000001,0.4278849,-0.09936159
-7.3821187,1.6416370999999998,-0.33952653,-0.8282809000000001,0.3395189,-0.039200094
-7.318979,1.7766794999999997,-0.39075288,-0.6217385999999999,0.28096309999999997,0.10716321
-7.448581699999999,1.8688947,-0.36245340000000004,-0.49078658,-0.18479545,-0.091909036
-7.7649326,1.8856636999999998,-0.62931114,-0.5205968,-0.23804545,-0.01685988
-8.206118,1.4295874,-1.1460947,-0.5844759,0.002024582,0.14336134
-8.700192999999999,1.1394771000000001,-1.3392686000000003,-0.50940925,-0.092170835,0.24717353
-9.733455000000001,1.168246,-1.4754795,-0.22568853,-0.14859733,0.23280947
-10.770422,1.7495102999999999,-1.7939179,-0.06597344599999999,-0.09430013599999999,0.1502903
-11.247471,2.4566138,-2.3114102,-0.105906576,-0.13103932,0.074700095
-12.006779,2.9197385,-0.84099686,-0.24218188,-0.23537510000000003,-0.00034906584
-13.830096,2.246221,1.5345013,-0.32470104,-0.27848473,-0.06262241
-17.579866,0.46647668,5.6861809999999995,-0.30447268,-0.24069835,-0.08710938
-14.626685,-2.317501,1.7346468999999998,-0.22355922,-0.15498523,-0.08765043
-10.920337,-0.4250090999999999,1.4036247,-0.15861551,-0.101229094,-0.06901032
-10.426098,1.5182207,1.9824852,-0.105906576,-0.11878711,-0.030682888
-11.324966,2.8098542999999996,2.6352882,-0.06705555,-0.14008012,0.012409291000000001
-10.728514,1.2639278,3.1450999,-0.02872812,-0.12358677,0.054995324000000005
-10.204902,0.15145720000000001,1.8739129,0.009581857,-0.086323984,0.0901288
-9.623073,-0.95313174,0.72375757,0.06122615,0.008412487,0.12208578
-8.620295,-1.4718977,0.1942368,0.11232939,0.10742501,0.15507251
-7.7945538,-1.2298919,0.42442492,0.14905111,0.17556266,0.18488273
-7.283036999999999,-0.3329377,0.75870335,0.18950784,0.2500882,0.20565215
-7.0506077000000005,0.3437882,0.8093551,0.16608553,0.20111428,0.19339994
-7.2117476,0.54482454,0.66393125,0.21399482,0.23092452,0.15400785
-7.6387773,0.3157282,0.38605067,0.37262779999999995,0.2783102,0.11889183
-7.922021000000001,-0.13067552,0.12989023,0.51635563,0.336866,0.03317871
-8.230136,-0.5216104,-0.064116724,0.63294363,0.48218212,-0.016842427
-8.354308,-0.6716023,-0.16592775,0.76283103,0.22081906,-0.091909036
-8.196117999999998,-0.47890738,-0.2930886,0.5520301999999999,-0.09642944,-0.31972685
-8.18023,-0.09300995,-0.53222144,0.58129936,-0.24654521,-0.03546509
-8.4543,0.26117867,-0.78815204,0.6238854,0.04515166599999999,-0.019495327
-9.225204,0.5457918,-1.0351666,0.37262779999999995,-0.038938295,-0.09030333
-10.383192999999999,0.030463824,-0.55239975,0.11178834,-0.20076522,-0.105749495
-10.615642,-0.5453034000000001,-0.53155106,-0.029775318,-0.2385516,-0.087632984
-10.247873,-0.7416854,-0.70808995,-0.027122416,-0.15552629999999998,-0.042394046
-10.780467999999999,-1.0679097,-0.5572648,0.07826056,-0.1603085,0.008150687
-11.061939,-0.1786266,-0.5713906,0.179926,-0.20024163,0.06405358
-11.664254,0.6323278,1.945356,0.20867157,-0.17414895,0.10396926
-17.197789999999998,2.0855124,4.7085233,0.16556193,-0.11826351,0.11569787599999999
-14.593032999999998,7.011199,3.055959,0.07613126,-0.060772362999999996,0.11089822
-10.9976225,3.2522453999999996,2.4207869,0.015446163999999998,-0.060231313,0.11461577
-11.386564,0.5096681,1.388436,0.0037350047,-0.077265725,0.11674507
-10.693893,-0.8452202,1.7039726000000002,0.042062435,-0.09484119,0.11142181599999999
-9.722230999999999,0.25652435,1.8571056000000001,0.08358382,-0.12571606,0.09599311
-9.465572,1.9151794999999998,1.3312049,0.084107414,-0.153397,0.07150614
-9.356751,3.1811087000000002,0.7113556,0.060161497,-0.13901548,0.053407077000000004
-8.733521000000001,3.2711115,0.39596266,0.023422317999999998,-0.05438446,0.03689626
-8.149662,2.5187001,0.38969943,-0.0031764992,0.055798177000000004,0.016144296000000002
-7.9639196,1.4487793,0.23763889,0.0021293017,0.107966065,-0.016318828
-8.043387,0.6667373000000001,0.031028853999999998,0.011711158999999999,0.19579104,-0.05836381
-8.033686999999999,0.62759686,-0.08634449,-0.037768926,0.2575408,-0.100949846
-7.877105,1.06021,-0.11525687,-0.16233307,0.2783102,-0.13288938
-7.7400618,1.5679148,-0.0062440783,-0.3428001,0.30545008,-0.15098843
-7.8170686,1.8387756000000002,-0.038307227,-0.48546332,0.30599109999999996,-0.14460053
-7.8889523,1.9019633999999999,-0.21899284,-0.67816514,0.07122689,-0.108943455
-7.859254400000001,1.7291404,-0.3831489,-0.63929665,-0.08152433,0.06777114
-7.9683437,1.2811948,-0.57251114,-0.46629962,-0.42114794,-0.048781954
-8.20695,0.99565274,-0.83446544,-0.49609238,-0.29604274,-0.052499502999999996
-8.455075,1.1820844,-0.8493094999999999,-0.65580744,-0.050125855999999996,0.06511823
-8.720707,1.4554543,-1.1042155,-0.66964793,-0.08258898,0.1561546
-9.527899,1.4985882,-1.6584443,-0.48705158,-0.08951793599999999,0.17318901
-10.129676,1.9435171999999998,-2.2015548,-0.31831315,-0.044802602000000004,0.10983357
-10.6024065,2.6697648,-2.394518,-0.28530896,-0.017645279,0.016685348
-11.8850765,3.0458844,-1.1536986999999999,-0.36248744,-0.121457465,-0.06049311
-14.69334,2.4098022,1.6500647000000002,-0.41306707,-0.21886429,-0.11798426
-18.133779999999998,0.6941748999999999,5.5751669999999995,-0.3954916,-0.18427186,-0.13501868
-13.185539000000002,-0.17111838,2.8374162,-0.33374184,-0.11400491,-0.124913216
-9.816178,0.9244108,1.078224,-0.27998573,-0.09004153,-0.1020145
-9.346724,1.8400207,1.1953578999999999,-0.23952898,-0.08525933,-0.077003926
-10.056211,2.7624874,2.0341616,-0.20811306,-0.08152433,-0.05836381
-10.038687,1.8390821,3.4831230000000004,-0.16659167,-0.062360615,-0.04452335
-10.336899,0.38279456,2.8128995999999997,-0.09047787,-0.036808994,-0.020036379
-10.187788000000001,-0.8181849,1.3841455,0.038868482999999995,0.013735741000000001,0.017732546000000002
-9.597761,-1.1495615,0.46572012,0.15330972,0.07016224,0.057124626
-8.641363,-0.6954198,0.6910815,0.2651155,0.17025687,0.105574965
-8.032422,0.06536171,1.0215963,0.33590606,0.25914648,0.16358972
-7.7775545,0.3239259,1.1097412,0.36891025,0.38051668,0.21629865
-7.747062,0.17387651,0.9480656,0.3763628,0.43853143,0.22427481
-7.750835400000001,-0.15750016,0.7489541999999999,0.49506265,0.51038665,0.22321016
-7.8148756,-0.39724594,0.50349104,0.75218457,0.55299014,0.18275343
-7.9750857,-0.5136137,0.35720533,0.97043794,0.59131753,0.10770427
-8.156680999999999,-0.48889598,0.26735570000000003,1.0971313999999999,0.63390356,0.066706486
-8.148311,-0.3665906,0.22959436,1.1434524,0.26340508,-0.070598565
-8.187087,-0.3553666,0.15120820000000001,0.765484,-0.19491836,-0.26651177
-8.282950999999999,-0.31776804,-0.11526645,0.69788736,-0.17947221,0.035831608
-8.500507,-0.05630205,-0.40529045,0.5887519,0.2617994,-0.020036379
-8.989576,0.3505207,-1.0324372,0.34442326,0.22347195,-0.088715084
-9.899929,0.2779764,-1.1550874,0.15704472,-0.04160865,-0.10149089
-10.31403,-0.24493642,-0.84756655,0.06867871,-0.10442304599999999,-0.06262241
-10.226038,-1.0880688,-0.56161267,0.09848893,-0.16404349999999998,-0.03174754
-10.456599,-1.3846433999999999,-0.60137564,0.14905111,-0.27157325,-0.011519173
-10.111144,0.012497733,-0.90338975,0.1772731,-0.29925415,0.016667895
-11.841932,1.0119812,2.5077347999999997,0.14585717,-0.27689648,0.05607743
-18.577166000000002,5.461001400000001,4.164379,0.09264208,-0.25612706,0.08588765599999999
-13.096072,9.34048,1.7796387999999999,0.04632104,-0.27103218,0.09279916
-10.355621000000001,2.9600186,1.8340063000000002,-0.0015707964,-0.30616567,0.07630579
-11.361349,0.3247974,1.3324498,-0.027122416,-0.29019588,0.045954518
-11.450327,-0.44026494,1.0240958,-0.05108579,-0.28221974,0.009215338
-11.692611,0.96229666,0.46591166,-0.0707731,-0.24230406,-0.020036379
-11.106136,2.6586556,0.03967671,-0.09580112,-0.16830209999999998,-0.050911255
-10.132664,3.4124653,-0.2872755,-0.103777274,-0.050125855999999996,-0.08604473
-8.929386000000001,3.2567942000000003,-0.43163627,-0.07131415599999999,0.16652186,-0.13236576
-7.9789259999999995,2.5444522000000003,-0.3309553,-0.011152654,0.28415707,-0.18505725
-7.3242270000000005,1.7418776000000002,-0.22457613,0.03832743,0.3134437,-0.24096015
-6.951401700000001,1.1197777,-0.06838798,0.023422317999999998,0.25221753,-0.25958282
-6.601858,0.8348293999999999,0.011166556999999999,-0.07237881,0.23944172,-0.21753784
-6.398973000000001,1.0515046000000001,-0.00824563,-0.24485224,0.2852217,-0.1754754
-6.5532365,1.5711422,-0.24837448,-0.33800048,0.42523202,-0.13501868
-6.8724217,2.011752,-0.49043787,-0.43062508,0.4997576,-0.08710938
-7.3062130000000005,2.17473,-0.7032728,-0.5727647,0.30705577,0.031573005
-7.822537,1.9573748,-0.82740736,-0.5312433000000001,0.13138838,0.090669855
-8.408063,1.4276817,-1.1999547,-0.55360097,-0.32852334,-0.08339183
-9.084827,0.92043644,-1.3657389,-0.50675637,-0.14062117,0.05766568
-9.843109,0.5346348000000001,-1.5766201000000002,-0.5126032,-0.038938295,0.07522369
-10.631117,0.8558984000000001,-1.6149274,-0.28476793,-0.12836896,0.051818825
-10.633656,1.9203317,-2.2543037,-0.036180675,-0.0048694685,-0.0030019663
-10.576634,3.0423026,-2.461383,-0.04150393,-0.08313003,-0.09508554
-10.607894,3.859635,-2.063936,-0.17884389,-0.20662953,-0.20369738
-11.033611,3.327318,-0.75991964,-0.26879814,-0.25825638,-0.31388003
-14.379202,1.0260782,4.092006700000001,-0.23366468,-0.3072303,-0.37882373
-16.351288,-2.2741182,3.7842083,-0.083025314,-0.30829495,-0.39001128
-12.698663999999999,-2.0630262,1.6086353999999998,0.08943067,-0.27157325,-0.35646605
-11.088564,1.7053898999999997,1.3364625,0.23424064,-0.283808,-0.28352875
-11.9359665,4.4096694,1.5833335,0.33164746,-0.2832844,-0.18292795
-11.407662,3.221877,2.3356013,0.3550698,-0.23856905,-0.07272787
-10.752915,1.0590224,1.6235752,0.3114191,-0.19598302,0.008691739
-10.023843,-0.8416864,0.56306833,0.23315853,-0.14114478,0.06244788
-8.984059,-1.78482,0.14973336,0.17407914,-0.051714107,0.09759881
-7.9629235000000005,-1.7940901999999999,0.22835897,0.19963075,0.044610616,0.12154472599999999
-7.524516,-1.3064392,0.7630511999999999,0.28799677,0.0834791,0.12367403
-7.1711035,-0.5868667,1.0539659,0.39179152,0.12871803,0.10983357
-7.236636999999999,-0.27001807,0.8837956,0.45088837,0.22879522,0.058712877000000004
-7.418884299999999,-0.12670116,0.4730367999999999,0.5025152,0.29160962,0.037437312
-7.771167,-0.25136244,0.08206366,0.58129936,0.33419564,0.0251851
-8.259632,-0.43425074,-0.33014128,0.63720226,0.4433311,-0.0035430184000000003
-8.600307,-0.47711653,-0.6745137,0.72769755,0.54447293,0.030508353999999998
-8.589065,-0.22484426,-0.75886613,0.78731805,0.20217894,-0.035482544
-8.626223,0.24971524,-0.6552547,0.36678094,-0.15392059,-0.1685639
-8.778053,0.77859443,-0.61331785,0.36517525,-0.28700194,0.03211406
-9.412,0.74284416,-0.3273065,0.2986433,-0.04108505,-0.017907077
-10.087825,0.02557965,-0.17283262,0.03248058,-0.08897688,-0.08552113
-10.265044,-0.7878264,-0.77677476,-0.16713274,-0.13742723,-0.11691961
-9.919464999999999,-0.8662030000000001,-1.6985328000000002,-0.3236364,-0.20662953,-0.12278391400000001
-9.491219000000001,-1.0177082,-2.0984316,-0.31244883,-0.15924384,-0.054105207
-9.951289,-1.3236583,-1.5027351,-0.16978563,-0.25240952,0.0225322
-10.867722,0.026412832,-0.06953719,0.0042586033,-0.28115508,0.061924282000000004
-13.420075,1.0961803999999997,3.5257108,0.10594148,-0.24122195,0.06937684
-17.923416,3.6018562000000007,4.864749400000001,0.104335785,-0.17416641,0.06510078
-12.672682,7.9373627,2.010938,0.04790929,-0.11506956,0.06352998
-9.975404,3.1611316,1.0290375,0.04152138,-0.13742723,0.041695915
-10.978363,-0.47702074,0.9631681999999999,0.071331605,-0.09377654,0.025726152999999998
-10.879214,-1.3491614,1.1658996000000001,0.09955358,-0.060231313,0.020926498
-10.196014,0.24756046,1.5875568000000002,0.10859439,-0.037873644,0.013473942
-10.047996000000001,1.7028807000000001,1.2066106,0.11604694,-0.00061086525,0.0017627826
-9.445864,2.4658267000000005,0.6940695,0.109135434,0.10955431,-0.008866273000000001
-8.471892,2.4606263999999998,0.40424657,0.08197811,0.269793,-0.029618237000000002
-7.930525,1.6045653,0.24303062,0.03567453,0.38688713,-0.055169857999999995
-7.7270083,0.4972661,-0.10712616,0.006387905,0.44917792,-0.07326892
-7.7112064,-0.32235533,-0.26755682,-0.059602994000000006,0.54606116,-0.07752752
-7.454175,-0.026412832,-0.19721518,-0.12507029,0.6397503999999999,-0.08658578
-7.429457000000001,0.8254824000000001,-0.26125529999999997,-0.35609952,0.6828601,-0.090844385
-7.6243925,1.4053963,-0.49933472,-0.51153857,0.7542091,-0.047193702000000004
-7.6067905,1.6836026999999998,-0.6104544,-0.70371675,0.5189212999999999,0.17584193
-7.4915433,1.7187591,-0.63639796,-0.4322308,-0.17575465,-0.005654866999999999
-7.4657817,1.5000345,-0.7396071999999999,-0.37632790000000005,-0.51431364,-0.061034165
-7.546782,1.0807331,-1.1910386999999998,-0.33587116,0.080808744,0.06084218
-8.085066000000001,1.1366711999999999,-1.5010017,-0.27998573,-0.062360615,0.12100368
-8.936664,1.7048631999999997,-1.4994694,-0.102712624,-0.13369222,0.14390239
-9.680236,2.340945,-1.7633773999999998,0.06122615,-0.18160151,0.08002335
-9.666789999999999,2.8365927,-2.6715652999999997,-0.0058293995,-0.31468287,-0.020577433
-10.394417,2.1365279999999998,-2.3473136,-0.17139134,-0.48502700000000004,-0.11691961
-11.957419,0.8773983,-0.44100237,-0.24698155,-0.5201604999999999,-0.15683529
-18.66536,-1.4975731,5.646533,-0.2656042,-0.46692795,-0.15524703
-17.48861,-3.0429442000000004,3.6171887000000003,-0.24856979,-0.34449309999999994,-0.12171926
-11.8979,-0.16571707,2.0151038,-0.23792328,-0.26092672,-0.07379252
-12.233172999999999,2.6624383999999996,1.9733107,-0.21397737,-0.24441591,-0.028553586000000002
-12.807466,2.7368405,1.5592191,-0.15329227,-0.20450023,0.009215338
-11.743167,0.22744916,2.370231,-0.09047787,-0.1688257,0.04276056599999999
-11.097403,-1.1362402,1.6015103000000002,-0.040439277999999995,-0.091106184,0.07096509
-10.446525,-1.5845401000000001,0.33596396,0.0021293017,0.016929694,0.09812241
-9.2413025,-1.3543425,-0.021212627999999997,0.052708942,0.13032374,0.13805555
-8.28571,-0.8434964,0.21952914,0.07613126,0.2096315,0.21577506
-7.529314500000001,-0.0867946,0.29691932,0.08943067,0.24637067,0.28337166
-6.9905996,0.30612263,0.26438690000000004,0.07187266,0.25115287,0.28284806
-6.8796043000000004,0.18346289,0.31665709999999997,0.17140879,0.3065147,0.22055726
-6.7824955000000005,-0.2493226,0.4569669,0.33697072,0.30864403,0.17638297
-6.9597815999999995,-0.624494,0.36958814,0.45408230000000005,0.39062214,0.11409217
-7.284693700000001,-0.91651,0.03982994,0.51370275,0.5258328,0.090669855
-7.451033,-1.034774,-0.19501251,0.63507295,0.36774087,0.06033603
-7.542089999999999,-0.8864004999999999,-0.2950231,0.55415946,0.044610616,-0.13023646
-7.909360400000001,-0.35694674,-0.8178880999999999,0.15172148,-0.20182988,-0.04452335
-8.771981,0.16262375,-0.8994537,0.31354840000000006,0.00095993106,0.090669855
-10.10922,0.103573166,-0.97037953,0.20601867,0.11967722,-0.05942846
-11.063539500000001,-0.44056183,-0.6654156999999999,-0.007958702,-0.036808994,-0.058904864
-10.771666999999999,-0.60620224,-1.2504628,-0.13836971,-0.12304571,-0.058887407
-9.911802999999999,-1.0966977,-2.000212,-0.18894935,-0.121457465,-0.019512782
-10.515085000000001,-1.9357311999999998,-1.6462531000000002,-0.08196066,-0.22631684,0.04276056599999999
-10.374889,-0.7524976,-0.8718055,0.059096847,-0.3029717,0.067788586
-9.766686,0.35086548,1.1040047,0.13840461,-0.31628856,0.07415904
-14.3285885,0.19464861,4.356547,0.12404055,-0.27689648,0.07630579
-17.644289,7.475473399999999,5.2040176,0.056967545,-0.22792254,0.08267625
-10.907332,5.66041,2.6439455,0.015446163999999998,-0.21088813,0.0858702
-11.1399145,0.16390704,0.98065543,0.021834067999999998,-0.19757128,0.079499744
-11.428837,-1.9088299,0.7708659000000001,0.03673918,-0.18001325,0.0837409
-11.392014,-0.7292164000000001,1.3153456000000001,0.030351276,-0.17414895,0.09812241
-11.261339,1.0792583,1.3126928999999998,0.020245818,-0.14753269,0.10663961599999999
-10.899067,2.2733232999999995,1.0253503000000002,0.01277581,-0.092170835,0.09758136
-9.984367,2.3194451000000003,0.47367844,-0.007958702,-0.02883284,0.054995324000000005
-9.137383999999999,1.9506998,0.09548077,0.0058643064,0.09519026,0.017749999
-8.499761,1.4918175,-0.15205096,0.07559021,0.18249163,-0.004066617
-7.9242907,0.9566464,-0.20104589999999997,0.029286625,0.2527586,-0.045046947999999996
-7.300103,0.53702897,0.048994943,-0.12986995,0.30970868,-0.10520845
-6.831385000000001,0.80751634,0.08217858,-0.34545302,0.3671998,-0.14514159
-6.6581693,1.3672806999999998,-0.06666415,-0.56744146,0.48218212,-0.13236576
-6.6912575,1.6391950000000002,-0.25004086,-0.5796762,0.6110049,-0.05623451
-6.7525205999999995,1.5496901,-0.25991455,-0.7122165,0.29321529999999996,0.09653416
-6.9608927,1.2316061000000003,-0.39794505,-0.49078658,-0.020315632,0.07895869999999999
-7.232164999999999,0.74204934,-0.50617254,-0.49237484,-0.22418754,-0.040264744
-7.791681,0.5134605,-0.7690272,-0.6004456,-0.06928957,0.081629045
-8.729795,0.91171205,-0.9145276,-0.6126804,-0.0027401668,0.15241960000000002
-9.943063,1.1629786,-1.7535421000000002,-0.39175659999999995,-0.10068805,0.17212437
-10.695530999999999,1.5068914,-2.4348167999999997,-0.1373225,-0.062360615,0.09705776
-10.990563,2.4103577,-2.6768131,-0.054803338,-0.02776819,0.025726152999999998
-11.702178,3.2205746,-2.2072914,-0.13943435,-0.12891002,-0.03387684
-13.4021,3.4078587999999996,-0.28620288,-0.28850293,-0.23696335,-0.1020145
-17.439518,0.9004593000000001,4.0703154,-0.3545113,-0.27370253,-0.14353588
-15.615682999999999,-1.3643024,3.206449,-0.33693582,-0.2316401,-0.15257668
-10.904353,-0.83022296,1.0541286,-0.2677335,-0.18266615,-0.14885913
-10.255238,0.93114334,1.3324690000000001,-0.20971876,-0.22153464,-0.12596041
-11.103599,2.3464708,1.912814,-0.18469074,-0.23057544,-0.08018043
-10.818919000000001,2.5456684,2.6795522999999997,-0.16605063,-0.19704767,-0.020036379
-10.172359,1.3389046,2.2984430000000002,-0.17989108,-0.16934929999999998,0.03317871
-9.862932,-0.059989117,0.94923395,-0.20811306,-0.116116755,0.07204719
-9.21262,-1.1452806999999998,-0.06368577,-0.23579398,-0.007522369300000001,0.098663464
-8.145227,-1.5159893999999998,-0.21654119,-0.1969255,0.10157816,0.13325588
-7.331600999999999,-0.9727258,0.11737335,-0.09951867,0.16332792,0.15987216
-6.963804,-0.15607323,0.30314425,0.0074700094,0.29588565,0.14657275
-7.041442999999999,0.24276248,0.28965050000000003,0.042062435,0.41139156,0.09014626
-7.238237,0.54132897,0.17091727,0.1314931,0.5625720000000001,0.035831608
-7.5257034,0.42507613,0.04136223,0.25127506,0.57854176,-0.03600614
-8.088398,0.18420029999999998,-0.2211955,0.29225537,0.5205270000000001,-0.10307915
-8.46514,-0.0739138,-0.45932280000000003,0.38381535,0.13458234,-0.21273819
-8.404587,-0.41594946,-0.52444506,0.35133478,0.14575244,-0.22338470000000002
-8.335279,-0.5167069999999999,-0.5131253,0.5797111,0.15322246,-0.15896459
-8.540941,-0.21475032,-0.7086358,0.6169739000000001,0.060597833,-0.18399261
-9.195794,0.019498378,-0.61874795,0.48654544,-0.05703736,-0.19783308
-9.834902,-0.105938636,-0.93713844,0.29544935,-0.15444419,-0.1892984
-10.160657,-0.8075451,-1.2765692,0.20708331,-0.10653489999999999,-0.13447762
-9.995045,-1.3176823999999998,-1.6410528000000002,0.2438225,-0.091106184,-0.087632984
-10.373559,-1.4861672,-1.2022148000000001,0.28054422,-0.21725859,-0.043441243
-10.991273,-0.6246185000000001,-0.49848235,0.28853783,-0.27581438,0.0012391837
-12.657541,1.6160861,3.2765223999999997,0.24115214,-0.26410323,0.039043017
-14.062382000000001,4.0975327,3.4364839,0.15332717,-0.28965485,0.06724753
-12.146801,3.8148730000000004,2.2704215,0.094230324,-0.29391345,0.09546951
-12.359961,1.3616687,2.2703161,0.07347836,-0.29817206,0.11515682
-12.8487425,-0.50348145,1.9667983,0.07187266,-0.29551914,0.11623893
-12.236114,-0.40614279999999997,1.9165870999999999,0.08997172,-0.28061405,0.10185742
-11.818192,0.8349155999999999,1.7352695,0.11819369,-0.25719172,0.077911496
-11.843684,2.2860603,0.80574465,0.13575171,-0.23057544,0.05714208
-11.085892,2.9426847,9.576806999999999e-05,0.13522811,-0.18053685,0.029984757
-9.768745,2.6038477,-0.18570386,0.12245230000000001,-0.04426155,-0.0013962634
-8.985448,1.9272462,-0.27129179999999997,0.10061823,0.08241445,-0.025883233
-8.276133,1.2246246,-0.21795854,0.013316861999999999,0.04569272,-0.056217055999999994
-7.490557000000001,0.81444037,-0.12745772,-0.14104006,0.05953318,-0.09402089
-6.754196,0.8416193999999999,-0.04793192,-0.2789036,0.18090338,-0.12489576
-6.302008,1.0919954,-0.09581595,-0.44233623,0.3379481,-0.15310028
-6.105789,1.4777588,-0.15309483,-0.6887941999999999,0.47420597,-0.13819517
-6.278420400000001,1.7971452,-0.35660198,-0.87510806,0.44813073,0.012967796
-6.673262599999999,1.8102654999999999,-0.67275155,-0.5503895999999999,0.09786061,-0.048764499999999995
-7.0615163,1.4922101,-0.86663395,-0.42210788,-0.13899802,-0.15896459
-7.6095967,1.0539371000000002,-1.1266346999999999,-0.44924775,0.24904104,0.020961404
-8.622028,0.7436008000000001,-1.5073128,-0.47160542,0.18889698,0.11676253
-10.151684,1.2536806999999999,-1.5699643,-0.29541442,0.10266027,0.1471138
-10.895093,1.9991393,-1.8127267,-0.16125096,0.1500285,0.12955579
-10.588157,2.5934183999999996,-2.3098779,-0.17030923,0.07285004,0.10293952
-11.038783,2.7876743999999998,-2.3796258,-0.24429373,-0.100146994,0.05290093
-13.015244500000001,1.9425403,-0.23390393,-0.29220300000000005,-0.22523473,-0.0077667153
-17.217029999999998,0.3128264,4.6013589999999995,-0.25706956,-0.23746950000000003,-0.05248205
-15.693685999999998,-1.7202818,4.4852114,-0.15379842,-0.18636626,-0.059393555
-11.551496499999999,-0.46403462,2.5290142999999996,-0.021781709,-0.17519616,-0.065798916
-11.137233,1.8181856,1.9152943,0.067631505,-0.20980603,-0.045029495
-11.287311,2.7364864,1.999982,0.09902998,-0.25078636,-0.002984513
-10.012044,1.531092,2.9973109,0.085730575,-0.24813347,0.04544837400000001
-9.860778,0.20651427,2.2582781,0.03621558,-0.2364223,0.08536405
-9.634803999999999,-0.9913145000000001,1.1512088,-0.026040312000000003,-0.20980603,0.11571533
-9.025432,-1.9012643,0.56279063,-0.05372123400000001,-0.1113171,0.15084879999999998
-7.981933000000001,-1.9637243000000002,0.41613140000000004,0.010140363000000001,-0.004310963,0.18118262
-7.275251,-1.3050506000000002,0.7731069,0.14428636,0.15482816,0.20621064
-7.216488000000001,-0.4026377,0.96032387,0.25340435,0.35976472,0.20940460000000002
-7.461060499999999,0.055622093,0.7673321,0.28108528,0.4635769,0.17320648
-7.801707700000001,0.26870605,0.31095892,0.32260665,0.5114862,0.11836823
-8.278785000000001,0.22177011,-0.15829505,0.41364303,0.42896703,0.06354744
-8.633030999999999,0.16596606,-0.6397594,0.5988923,0.40448004,0.0842994
-8.775056,0.07515878,-1.0215197,0.727715,-0.0059166662,-0.07164577
-8.739497,-0.052883125999999996,-0.9612624,0.44771186,0.0020594885999999997,-0.056740652999999995
-8.569164,-0.18694885,-0.6775974,0.48336893,-0.013892821000000001,0.024155356
-8.584314,-0.1931642,-0.6418759,0.35667548,0.09307841,-0.093479834
-8.85982,-0.22261287,-0.91058195,0.20071286,0.009512044499999999,-0.10625564
-9.492187,-0.48249868,-1.7612512999999999,0.07773697,-0.046896997999999995,-0.11316715
-9.786319,-1.1463821,-2.1842492,-0.029234264,-0.12568116,-0.085486226
-9.784413,-1.4366263000000001,-1.8861521,-0.038816124,-0.15390313,-0.033318337
-10.693511,-1.1590618000000001,-0.39256290000000005,0.0005585053599999999,-0.26143286,-0.015219271000000001
-11.197758,0.5357649,1.5095825,0.035691983999999996,-0.28804913,0.007644542
-14.044807999999998,1.2064096000000002,4.834937,0.014398966000000001,-0.22682299,0.036407568
-17.586023,5.6895614000000005,4.614182,-0.06702064,-0.1293987,0.061418135
-11.899403,4.5449324,1.4238126,-0.11386528,-0.06339036,0.08431686
-11.113042,1.394067,1.621114,-0.102695175,-0.08735373,0.096028015
-11.138842,-0.28777346,1.807766,-0.037227873,-0.11770499999999999,0.09974556400000001
-10.79693,-0.15322891,2.046688,0.038885936,-0.14645058,0.10028662
-10.495691,1.0604206,1.6694767,0.06976081,-0.181043,0.08325221
-10.474317,2.4062686,0.66306937,0.07030186,-0.20659462,0.05715953
-10.009563,3.021837,0.015466543000000001,0.0522028,-0.19114846,0.031084314
-9.224371000000001,2.9856942,-0.15388013,0.03303908,-0.09639453,0.0055326936
-8.733894,2.3032508,-0.04514507,0.034627332999999996,0.06700319,-0.033318337
-8.385059,1.3603375,-0.060467955,0.025586527,0.1335526,-0.10356784
-8.067741,0.5665064000000001,-0.16586071,0.003228859,0.14952235,-0.16425294
-7.481047,0.34177706,-0.18298405,-0.04998623,0.21711896,-0.20844467
-6.8810887,0.68720293,-0.09598833,-0.22406536,0.28632125,-0.2430371
-6.6649885,1.1509502,-0.002422932,-0.41463786,0.32039008,-0.23027875
-6.7109380000000005,1.4619665000000002,-0.07545566,-0.58604664,0.12077679,-0.14617133
-6.869567999999999,1.666077,-0.25525063,-0.5077861,0.06274459,-0.07056366
-7.079951299999999,1.6809977999999999,-0.48437575,-0.52588516,-0.05009095,-0.13763666
-7.401253,1.546932,-0.74672276,-0.6211800999999999,-0.0016406095,-0.047141342999999995
-8.049287,1.2287905000000001,-1.0985171999999999,-0.7249749,-0.03996804,0.031625368
-9.390423,0.92008215,-1.2883295,-0.673348,-0.13898057,0.11679743
-10.8191,1.0455287,-1.3766564,-0.45402995,-0.17571975,0.12796754
-11.15835,1.5596117,-2.0111868000000004,-0.30178487,-0.13578662,0.067282446
-11.340366,2.130983,-2.6132807999999996,-0.2756922,-0.14217453,-0.00029670597999999996
-13.202452,2.8162804,-1.36096,-0.32520720000000003,-0.1746551,-0.055134952
-15.677252,2.69409,1.8721700000000001,-0.3821573,-0.177308,-0.08388052
-15.036506,0.7450468000000001,3.4207015,-0.38589229999999997,-0.15175638,-0.10517354
-11.437723,0.14105679,1.4478886,-0.31934288,-0.101717785,-0.113149695
-10.842105,0.8717863000000001,1.6970294,-0.18147933,-0.09213593,-0.12060225
-11.099558,1.3777003,1.9733107,-0.043598324,-0.1081057,-0.11847295
-11.082828,1.8084651000000003,2.8611572,0.05804965,-0.1123643,-0.098244585
-10.519662,1.4648396000000001,3.1850066000000004,0.10595894,-0.1123643,-0.062046453
-10.00103,0.69743097,2.1201804,0.12672836,-0.1166229,-0.017872171
-9.563811,-0.35273293,1.1359146999999998,0.14322172,-0.042620942,0.02469641
-8.812682,-1.0114065,0.5348168000000001,0.17409660000000002,0.12503539,0.072082095
-7.978178999999999,-1.2147413,0.38115692,0.20497146,0.21659537,0.116273835
-7.342653,-0.9230030999999999,0.6256623,0.1826138,0.25439918,0.16631243
-7.1706433,-0.5315415,0.7838233,0.19219565,0.28047442,0.18545869
-7.237432000000001,-0.47099695,0.76610625,0.3029368,0.32679546,0.17695893
-7.4770827,-0.44424890000000006,0.5379005,0.48870963,0.3911981,0.14926055
-7.837898,-0.49464205,0.116731696,0.60901517,0.3949331,0.067299895
-8.287941,-0.5787456,-0.30641952,0.5642999,0.39226276,0.00075049157
-8.485578,-0.38629007,-0.49160624,0.7027045,0.21713641,-0.072151914
-8.095687,-0.10392751,-0.56873786,0.6132738,-0.022933627,-0.28934067
-7.7061787,0.14420755,-0.8454405,0.6031683000000001,-0.14269812,-0.08492772
-8.067885,0.31903216,-1.1434036,0.62446135,0.048380528,-0.10835004
-9.452777000000001,-0.030550014,-1.0026245999999999,0.48232174,0.11971214,-0.14880677
-10.889998,-0.5551483,-0.70132875,0.31571259999999995,-0.025045475,-0.13336061
-10.892468,-0.43214384,-1.0031801,0.19540706,-0.07775441599999999,-0.117931895
-10.171508,-0.3414802,-1.6212864,0.23958135,-0.010681415,-0.06789331
-10.720335,-1.1214919,-1.5057135,0.357234,-0.05274385,-0.022654373
-11.468409,-0.9020585999999999,-0.96799487,0.4397357,-0.13524556,0.005550146999999999
-11.048408,0.44799343,2.0237997,0.44347072,-0.12618731,0.023125613
-15.3365,1.1352155000000002,4.582971,0.36095154,-0.08787732599999999,0.044942225999999995
-14.719772,6.3844166,3.7915535000000005,0.26460937,-0.07243116,0.0800757
-10.431564999999999,3.1564674,2.3733242000000003,0.19273672,-0.11342895,0.100304075
-11.490138,0.36950192,1.6472011999999998,0.15707964,-0.15601498,0.10243337599999999
-11.138554,-1.2276125,1.3489412,0.15814428,-0.18901916,0.08805186
-10.478301,-0.49013140000000005,1.6383331,0.16559684,-0.23851669,0.056129787
-10.543959,1.2187827,1.4531271000000001,0.14323917,-0.2640683,0.013526301999999999
-10.520313,2.855775,0.7351061,0.10917035,-0.17996089,-0.026371923999999998
-9.457939,3.3016042999999997,0.17128119,0.08148942,-0.008552114,-0.051923542999999996
-8.684018,2.5087402,-0.036401443,0.01654572,0.17294468,-0.05618215
-8.356137,1.4673678999999997,-0.37057453,-0.06435029,0.22778292,-0.043406337
-8.079282000000001,0.83249265,-0.42090067,-0.06489134,0.19477874,-0.00720821
-7.6397924,0.48555368,-0.36520198,-0.07021459,0.17242108,-0.026895522999999998
-7.1230183,0.6579841,-0.30222487,-0.19477874,0.24003513,-0.038606685
-6.718187299999999,1.0797753,-0.31668586,-0.38639843,0.14688691,-0.026895522999999998
-6.452709,1.5563556,-0.38183686,-0.59561104,0.031363565,0.061453044000000005
-6.3518844,1.9823319,-0.5204229,-0.48808134,0.012199851999999999,0.04707153
-6.463205,2.1661685,-0.71018726,-0.48808134,0.0058119465,-0.011990411999999999
-7.0551667,2.134996,-1.1721437,-0.5413139,0.14208725,0.05667084
-8.726597,1.6846656999999998,-1.7819756000000002,-0.5748591,0.0744732,0.14608406
-11.171422,1.1804466999999998,-1.6665366999999998,-0.44495425,-0.0048171086,0.15248941
-12.433999,1.2217323999999998,-1.497372,-0.33105406,0.03775147,0.078487456
-11.725421,1.422922,-2.0928197,-0.37788123,-0.017592918,0.0055676005
-12.906011999999999,1.555082,-2.051764,-0.48755774,-0.20284216,-0.056705747
-13.8963,1.4019104,-0.5432252,-0.5578072,-0.28269097,-0.08438667
-14.619284,0.96657753,2.6368876,-0.54396677,-0.2736327,-0.080128066
-11.974886999999999,0.33344525,2.9186754,-0.46094146,-0.21987657,-0.05989969999999999
-10.664091,0.21148463,2.2438076000000002,-0.33742452,-0.14055136,-0.042324234
-11.058233,0.8098914,2.1942953999999997,-0.23308872,-0.10115928,-0.019966567
-11.735544,2.0193366999999998,2.4631833999999997,-0.17027432,-0.08307767,0.015673056
-10.92662,1.9137429,3.015277,-0.13727015,-0.08093092,0.061453044000000005
-10.732536,0.7723215999999999,1.9137523999999997,-0.107459925,-0.06070255,0.10403907
-10.354683,-0.41909063,0.8527859,-0.08297295,0.0063529983,0.13332570000000002
-9.414479,-1.2954164,0.35034832,-0.040927973,0.136764,0.15833627
-8.23727,-1.3364817,0.47899356,0.100653134,0.26665140000000004,0.18975219
-7.412477,-0.7883149,0.7583585999999999,0.2353402,0.29009120000000005,0.23659684
-6.781356,-0.18102079999999998,0.8825889000000001,0.32902947,0.36301103,0.21104520000000002
-6.607039,-0.13856682,0.72160286,0.33009413,0.4045324,0.13864896
-6.937276,-0.31882146,0.39400896,0.4392121,0.49556878,0.09553932400000001
-7.5163660000000005,-0.5500630999999999,-0.088480115,0.5398303000000001,0.521644,0.028448867000000003
-8.050628,-0.7744476,-0.44591528,0.6713060000000001,0.46202356,-0.007731808299999999
-8.29226,-0.85797656,-0.66616267,0.8134456,0.20490165,-0.14400712
-8.189739999999999,-0.7365235,-0.71056074,0.6910108,0.078731805,-0.20840977
-7.977259599999999,-0.53522855,-0.6836308000000001,0.72027993,0.03509857,-0.15517722
-8.420733,-0.009873686999999999,-0.87066585,0.6377782,0.06756169,-0.17912313
-9.687649,0.005104438,-0.62491536,0.42219514,-0.0575086,-0.15570082
-10.530064,-0.8567028,-1.1833677,0.20285963,-0.15172148,-0.12908456
-10.532572,-1.2338566999999998,-1.5559821000000003,0.06393141,-0.14374532,-0.048171088
-10.132089,-1.0752648,-1.7467616999999998,0.048485245999999996,-0.12299335,0.0082205
-10.85465,-1.3293469,-1.3315017,0.07244862,-0.19484855,0.041765727
-11.203418,0.06420291,-0.05152322,0.08042477,-0.20868902,0.07476991
-12.9592495,1.3652408,3.2022161,0.07351327,-0.15598008,0.09925687
-15.072783,4.057377,3.3127897000000006,0.032515485,-0.12404055,0.113638386
-12.932175,4.207742700000001,2.327049,-0.036128316,-0.08785988,0.13491395
-12.804832000000001,2.3073306000000002,2.3175776000000003,-0.09628981,-0.13362241,0.14770721
-12.836828,0.48369578,1.8539261999999999,-0.12182398,-0.17088519,0.14077826
-11.776944,0.037435737000000004,1.8689713,-0.10480702,-0.23104669,0.12109094
-11.351169,1.1450604,1.5037981000000002,-0.06274459,-0.28213248,0.07637561
-10.932777,2.557285,0.6144670999999999,0.00057595863,-0.28693214,0.025795966
-9.846011,3.1978586,-0.048324566,0.07031932,-0.21027727,-0.02316052
-8.511991,2.9365457999999998,-0.38888540000000005,0.10971139,-0.08731882,-0.05349434
-7.7867007,2.3360608,-0.26575637,0.15922639,0.08728392,-0.07585201
-7.4525084,1.7337084999999999,-0.23909456,0.18423696,0.18736109,-0.11311479
-7.2673309999999995,0.91197056,-0.39362592,0.15282103,0.17830284,-0.12217305
-6.888348,0.48911625,-0.46119985,0.054349552999999995,0.18575539,-0.1258906
-6.697626,0.6307668000000001,-0.47153324,-0.09094911,0.32416,-0.12215559
-6.793317299999999,0.99867904,-0.46620852,-0.1968906,0.4827755,-0.07052875
-6.925554300000001,1.2844126,-0.49092627,-0.27619836,0.36461672,-0.07798131
-7.239788000000001,1.4735353999999998,-0.41863096,-0.53597313,0.11761774,-0.01569051
-7.752588,1.4202979,-0.5204803,-0.6057165,0.09526007,0.068382
-8.1016245,1.1510938,-1.1103828000000002,-0.6067812,-0.09316567,-0.026354471
-8.763888,0.8050071999999999,-1.6033393999999999,-0.5684537,-0.10168288,0.0061086523
-10.067734,0.509467,-1.9092321,-0.5263913,-0.07080801,0.08756317
-11.0423355,0.83528906,-1.9647393,-0.38426915,-0.12616985,0.07476991
-10.774033,1.8576229,-2.3765897999999996,-0.17346828,-0.05057964,0.0066497047
-11.023269,3.0762522,-2.6621416,-0.122365035,-0.01277581,-0.032724924
-12.172141,4.0430117,-2.4482147999999997,-0.2123193,-0.16397369,-0.073722705
-12.153141,3.111064,-1.3215994,-0.3485946,-0.26618016,-0.10033898
-13.884541,1.2017839,1.8703311999999999,-0.42579052,-0.24647539999999998,-0.11470304
-13.504745000000002,-0.9185976999999999,3.2799318,-0.3874631,-0.21560052,-0.11789699
-11.760693,-1.3397952,2.2339149,-0.25544637,-0.22040018,-0.11576769
-11.67995,0.18972611,2.1546187000000003,-0.11650073,-0.23635249,-0.10086258
-11.745704,2.1448598,2.2799888,-0.02867576,-0.23689353,-0.063599795
-10.632649,2.7820911,2.5315428,0.0016580628,-0.22731169,-0.014625859
-10.1219,1.5497188999999998,2.1152580000000003,0.004310963,-0.20654227,0.032724924
-10.064314999999999,0.07132806,0.86782146,-0.020158553,-0.14798647,0.07585201
-9.452117,-1.0519738,0.03502238,-0.05368633,-0.042586032,0.10512118
-8.392501,-1.3381002,-0.19392076,0.00059341197,0.09738937,0.1344078
-7.637666,-1.1631223,0.11525687,0.095870934,0.15062192,0.16847663
-7.168900999999999,-0.51608455,0.46309608,0.25130996,0.29328513,0.17219418
-7.095092299999999,-0.18801187,0.5510782,0.30562459999999997,0.40933207,0.1280199
-7.2075143,-0.024382547999999997,0.32179987,0.38227946,0.51314425,0.08223991
-7.639351400000001,-0.07025546,-0.00521936,0.49139744,0.42158428,0.020490166
-8.087183,-0.2545132,-0.42003876,0.5094965,0.34173545,-0.044977135999999994
-8.358042999999999,-0.18670943,-0.69672227,0.5701816,-0.03939208,-0.12908456
-8.409556,-0.177056,-0.8861802,0.49778536,0.023404865,-0.13864896
-8.328231,-0.16392621,-0.79249996,0.636731,0.011693706000000002,-0.047088984
-8.696278,0.11790007,-0.84508616,0.62501985,-0.021834067999999998,-0.10032152400000001
-9.466875,0.29120198,-0.6311786,0.52920127,-0.1256288,-0.12161454
-9.928573,-0.17754441,-1.1139455,0.42167154,-0.21025981,-0.13599606
-10.207258,-1.0517823999999998,-1.65628,0.33435273,-0.19111355,-0.09819222
-10.360841,-1.4756423,-2.0080361,0.33382913,-0.19589576,-0.028989919
-10.842603,-1.4389918,-1.3845379999999998,0.38280305,-0.24486970000000002,0.016249016
-11.595291,-0.68028843,-0.14791378,0.41261327,-0.31939524,0.038589227999999996
-13.344304000000001,1.6804613999999998,3.0718758,0.37535050000000003,-0.33536503,0.058817595
-15.111157,4.2023125,3.718971,0.30934215,-0.30288443,0.07798131
-11.653097,3.8971474,1.5573516,0.23162265,-0.26136306,0.10142108
-11.186745,1.4309378000000001,1.5278071000000002,0.16348499,-0.23263493,0.13121386
-11.877789,-0.24346158,1.8859508999999999,0.1113171,-0.2560398,0.14292501
-11.677010000000001,-0.42090067,2.0598083,0.090024084,-0.23422319,0.13547246
-11.432725,0.41405326,2.0339415,0.08683013,-0.1948311,0.11152654
-11.303111999999999,1.8301661,1.2533263000000001,0.09534734,-0.15330972,0.08543386
-10.857168,2.8609942999999998,0.3840874,0.10067059,-0.07346091,0.064158306
-9.644477,2.8909697999999997,-0.1658703,0.09428269,0.040439277999999995,0.047106437
-8.55252,2.3470454,-0.17772637,0.07353072,0.16500343,0.014102261000000001
-7.699130499999999,1.7136642,0.07410533,0.011780973,0.09847148,-0.019408062
-7.12886,1.3033173,0.08044518,-0.068050385,0.13360496,-0.026319565
-6.763849700000001,1.132218,-0.15094963,-0.12021828,0.25071654,-0.030578168
-6.3605222999999995,1.2697983999999998,-0.283665,-0.23041837,0.32044244,-0.048694685
-6.1574364,1.5358517,-0.34635478,-0.361894,0.31298990000000004,-0.041224677
-6.260694,1.6458221999999998,-0.44823290000000005,-0.43322563,0.20439549999999998,0.040718533
-6.644877,1.7091057,-0.5396913000000001,-0.3209137,0.08836602,-0.077422805
-7.1299996,1.7174470000000002,-0.738592,-0.40715042,-0.022357667,-0.12161454
-7.833416000000001,1.619687,-1.1552597,-0.5524665,0.06492624400000001,-0.011955505
-8.914034,1.1884816999999999,-1.6069212,-0.56684804,-0.00052359875,0.068940505
-10.330923,1.276665,-1.6131461,-0.36243507,-0.06440265,0.109938286
-10.880986,2.0875237,-1.5565472,-0.22403046,0.00052359875,0.07586946
-10.859879,2.7973661,-2.1303895,-0.24584708,-0.018099063999999998,0.028483772999999997
-11.394811,2.7582831000000003,-2.1844409,-0.32623693,-0.14798647,-0.035918877
-13.414674,2.0821989,-0.23665246,-0.42470843,-0.3124663,-0.09925687
-16.80176,0.53911674,4.6892548,-0.4513247,-0.33430037,-0.13278465
-13.828486999999999,-1.5525057,2.3912714,-0.37573448,-0.28317967,-0.13491395
-11.514042,-0.078127585,1.1874665,-0.24212952,-0.24167573,-0.14449582
-11.479344000000001,1.7070273999999999,1.7075924999999998,-0.13992305,-0.2555162,-0.13226105
-11.698846000000001,3.5428726999999998,2.5486470000000003,-0.09094911,-0.26508059999999994,-0.08541641400000001
-10.386439,2.4595635,3.5038376,-0.063268185,-0.23474678,-0.023125613
-10.124437,0.9593565999999999,2.5064897999999998,-0.049427725,-0.21186551,0.026895522999999998
-10.054133,-0.3395457,1.1864226999999998,-0.051015973,-0.16873842,0.070005156
-9.434016,-1.3221548,0.38057274,-0.056339227,-0.05003859,0.11046189
-8.171334,-1.5184792999999999,0.26846662,0.039461896,0.119240895,0.15145968
-7.298274,-0.97570425,0.7087699000000001,0.13686872,0.12988740000000001,0.1817935
-6.874250999999999,-0.37078520000000004,1.035339,0.21565288,0.23954643,0.15517722
-6.9035273,-0.17849252,0.92878747,0.23055799999999999,0.3162013,0.080128066
-7.1634517,-0.11078450000000001,0.5290228,0.33756414,0.43490115,0.043388885
-7.519957499999999,-0.16822618,0.2294124,0.53932416,0.49452159999999995,-0.0028972465
-8.02839,-0.26194483,-0.075561,0.71499157,0.48867473,-0.026319565
-8.509797,-0.31301793,-0.35483983,0.7607716,0.005846853000000001,-0.17270033
-8.588605000000001,-0.40460092,-0.446691,0.45519933,-0.26827455,-0.22860323
-8.356156,-0.45794377,-0.48909712,0.62128484,-0.05427974,-0.059864793
-8.372819999999999,-0.11801499,-1.0350996,0.6005329,0.2602984,-0.127985
-9.431067,0.05038358,-1.0759733999999999,0.33224088,0.021293016,-0.13756685
-10.518522,-0.44661438,-1.2090143999999998,0.11398745,-0.1953547,-0.1418429
-10.677382000000001,-1.091076,-1.2057008,0.030944687999999998,-0.18629645,-0.11201523
-9.9662485,-0.9076417999999999,-1.2174994,0.05703736,-0.14851007,-0.052394785
-9.88948,-0.9576710999999999,-0.9568571,0.08576548,-0.1948311,-0.00024434610000000003
-10.994193,-0.6187670999999999,-0.20809443,0.087371185,-0.22781783,0.040212385
-13.800073999999999,0.53538185,4.0390760000000006,0.06661922,-0.17990854,0.07534587
-17.23218,4.4967995,5.669153700000001,0.029356438999999998,-0.1346696,0.10622074
-10.58263,4.885330000000001,3.0537374,0.007522369300000001,-0.10273008,0.12644911
-10.442263,2.2203443,2.118562,0.0038048178,-0.12454669,0.13123131
-12.331653,-0.177803,1.7963792,0.03148574,-0.15116297,0.13390166
-11.74195,-0.5705766,2.2884736,0.060231313,-0.18842575,0.11686724400000001
-11.206463000000001,0.9271019,2.6174371,0.05969026,-0.21930061,0.07960447
-11.000275,2.647336,1.6548626,0.026686084,-0.21771237,0.035953782000000004
-10.372007,3.3512597,0.50397944,-0.018535396000000003,-0.15596262,0.015184363999999999
-9.409855,2.9060247,0.28463227,-0.060597833,0.05110324,0.00827286
-8.733962,2.1031244,0.23637474,-0.09625491,0.35505232,-0.0012915436
-8.225759,1.2518322,0.20127574,-0.0813498,0.49293333,-0.03270747
-7.6960177,0.5834095,0.11513237,-0.057403877,0.5190085999999999,-0.064647
-7.1049085000000005,0.38072595,-0.0018962076999999998,-0.09786061,0.48600438,-0.08381071
-6.5502486,0.6336303000000001,-0.00866701,-0.22720696,0.50357985,-0.08700466
-6.173047,1.1316625,0.0007278372999999999,-0.34911820000000005,0.49506265,-0.07688175
-6.0417013,1.6330178999999998,-0.05425261,-0.6115459,0.20228367,-0.027907815
-6.250236,2.0171436999999997,-0.13957238,-0.67490137,0.31140164,0.09450958
-6.7028360000000005,2.0800824,-0.18282124,-0.6482851,0.03673918,-0.010349803000000001
-7.165194500000001,1.742634,-0.42213607,-0.63763857,-0.08196066,0.01891937
-8.047324,1.166934,-1.1915559,-0.5828003,-0.013823007,0.10622074
-9.911201,1.0667318000000001,-1.4076566000000001,-0.4582362,-0.15755087,0.11847295
-11.632928,1.4005027,-1.8512638,-0.22561869999999998,-0.19055505,0.053511795
-11.729778,2.0344393,-2.4445374,-0.14576989999999998,-0.16393878,-0.03748967
-12.673428999999999,2.6023057,-2.0970047,-0.22507766,-0.26720992,-0.09019861
-13.527575500000001,2.5279130000000003,-1.2446785,-0.35496506,-0.33267722,-0.10402162400000001
-14.651643,1.5264183999999998,1.8269004,-0.41032690000000005,-0.31831315,-0.11468559
-14.397867000000002,0.13186306,3.6315633999999997,-0.3709348,-0.2656042,-0.10562733
-12.290558,-0.7381898,2.3040457,-0.24478243,-0.18629645,-0.09978047
-11.724109,-0.32846534,1.9963523999999997,-0.077091195,-0.15488052,-0.078487456
-11.922406,1.2263197,2.3419312999999997,0.050649453,-0.18575539,-0.03642502
-10.983506,2.170363,2.7514262,0.11772246,-0.21504201,0.016790068000000002
-10.326096000000001,1.4803158,2.8270159,0.13849187,-0.2091777,0.07108726
-9.862378,0.11541968,1.5958982,0.11346386,-0.14690436,0.10835004
-9.184484,-0.9138381,0.45173797,0.1060113,0.0042586033,0.14189526
-8.139625,-1.3492858,0.109884284,0.15231489,0.09049532,0.17594664
-7.2679057,-1.4291947,0.18176779,0.20928243,0.13894565,0.22174408
-6.814242999999999,-1.0101902,0.5534437,0.2449395,0.26722735,0.20416862
-6.7660713,-0.59756404,0.7897897,0.31255355,0.41095522,0.14934783
-7.1404476,-0.2699989,0.6882659000000001,0.39824924,0.37901568,0.07002261
-7.661953,-0.12428779999999999,0.20330603,0.37802085,0.36304593,-0.027907815
-8.090333,-0.2706214,-0.25374708,0.44031167,0.13840461,-0.12159709
-8.394110000000001,-0.4724526,-0.603607,0.49886745,0.25871015,-0.13702579999999998
-8.385777000000001,-0.6703094,-0.7314765000000001,0.6005329,0.16821483,-0.09285152
-8.05488,-0.41765413,-0.7203099000000001,0.55316466,0.07293731,-0.13809045
-8.379792,0.21662736,-0.69243187,0.40037853,-0.028187068,-0.15885986
-9.207956,0.45743617,-0.55248594,0.20980603,-0.09313077,-0.17057103
-10.274113999999999,-0.14242627,-0.777043,0.085241884,-0.10751228,-0.13117895
-10.694402,-0.7414746999999999,-1.2365093999999999,0.07778932,-0.15116297,-0.0763407
-11.039539,-0.8980746,-0.9354049999999999,0.13795082,-0.2006605,-0.03429572
-11.92459,-0.65543664,0.13328043,0.18586011,-0.2501755,-0.008203047
-13.860427,1.7993767,2.8121815,0.21087068,-0.21982422,0.010943214
-13.922235500000001,3.8165681000000005,3.2780836000000004,0.18479545,-0.19587829999999998,0.026371923999999998
-11.627211,3.0021758,2.0568109,0.15498523,-0.19107865,0.050858892999999995
-11.467699,1.2287139,2.2618694,0.13847442,-0.21291271,0.08119272
-11.719263,0.35197636,2.557946,0.12356931,-0.24005258,0.10515609
-11.4154005,0.21794897,2.6452672,0.116116755,-0.22940607,0.117931895
-11.324401,0.8390049,2.3699725,0.10920525,-0.21769492,0.10835004
-11.488988,2.1387405,1.7039342,0.09588839,-0.20598376,0.08599237
-11.118577,2.985263,0.8678598,0.08684758,-0.12719959,0.066305056
-9.824827,2.7005446,0.48292008,0.07885397,0.02448697,0.05405285
-8.747925,1.9905968,0.34609622,0.04373795,0.22465879,0.03330088
-8.111938,1.3004059,0.17027561,-0.040352013,0.24914575,-0.0055326936
-7.5230603,0.74861896,0.08437166,-0.120741874,0.29918435,-0.029496064
-6.896986500000001,0.52508676,0.06401137,-0.14416419,0.3992615,-0.035342917
-6.281801000000001,0.7784028000000001,0.036363136000000004,-0.24158847,0.44502404,-0.051330134000000006
-6.0091014000000005,1.2901778,-0.029285876000000002,-0.38477528,0.48015752,-0.03748967
-6.0214267,1.7202531000000003,-0.23476584,-0.61899847,0.24328144,0.04979424
-6.3124948,2.0784637999999998,-0.40238870000000004,-0.4970872,0.29705504,0.182352
-6.8645687,2.2384636,-0.5579255999999999,-0.4475897,0.028763026,-0.0065973448
-7.595988,2.1284263,-0.84181094,-0.48858747,0.11126474,0.08653343
-8.488394,1.5107700000000002,-1.5014901000000003,-0.5460786,0.16769123,0.16477653
-9.976466,1.2062275,-1.590698,-0.40978587,-0.05693264,0.1743584
-11.051798,1.7572291000000002,-1.601855,-0.16119862,0.04632104,0.12805481
-11.041521000000001,2.396615,-1.9519639,-0.11861257,0.113394044,0.07482226
-11.194626,2.6571903,-2.3152983,-0.24211207,-0.03351032,0.009337512
-12.366981,2.3479266,-1.3931669,-0.39329250000000004,-0.22673573,-0.05611233400000001
-14.332208999999999,0.9993780999999999,2.7214317,-0.48644072,-0.26401594,-0.09604547
-15.344362,-0.8198608000000001,5.1468635,-0.46568874,-0.23366468,-0.10721557599999999
-11.969294,-1.5648309999999999,2.3164572999999997,-0.33793065,-0.20598376,-0.11733848599999999
-11.638799,0.49362692,1.6594787,-0.2213601,-0.2065248,-0.115209185
-12.567002,3.022019,2.1266162,-0.13829988,-0.22247712,-0.08751081
-11.487475,3.123782,3.2482517000000004,-0.09838421,-0.22408283,-0.042271875
-10.69331,1.3996983,3.1167717,-0.07176794,-0.21821852,0.013613568000000001
-10.76254,-0.107451774,1.3363668,-0.05899213,-0.21663027,0.049811699999999993
-10.202411999999999,-1.2492658,0.28425878,-0.019600047,-0.11335913,0.08386307
-8.77384,-1.5267825000000002,0.055526324,0.07087782,0.075607665,0.1237962
-7.530291,-1.0523761999999999,0.5412428,0.16084954,0.120322995,0.16266468
-6.896373700000001,-0.20701225,0.8792083,0.23696335,0.21188296,0.16371189
-6.616185000000001,0.17306247,0.9136943999999999,0.27370253,0.34070572,0.11582005
-6.7198443,0.106886744,0.7957081,0.34609878,0.43598324,0.06895796
-7.16598,-0.10922348,0.38825333,0.5169665,0.48495720000000003,0.03169518
-7.804322,-0.32363862,-0.007019799,0.7123387,0.497733,-0.014049901000000002
-8.454424000000001,-0.5038645,-0.43044874,0.94443256,0.28214994,-0.0683471
-8.7005,-0.68961626,-0.5165251000000001,0.6984982,-0.2634749,-0.33450979999999997
-8.461108,-0.571946,-0.55910355,0.65111256,-0.2618692,-0.08751081
-8.350621,-0.20553742,-0.93698525,0.59681535,0.22572343,-0.06462954
-8.993513,-0.062268399999999995,-1.1075002,0.35194564,0.09316567,-0.09550442
-9.793999000000001,-0.5222137,-1.025743,0.14220943,-0.17617354,-0.127985
-10.236342,-1.0451934,-1.2498307,0.06768387,-0.24750514,-0.12212068599999999
-9.652291,-1.0121535,-1.7515022,0.06874852,-0.23898794,-0.08698721
-9.14067,-0.93767476,-1.5905063999999998,0.09590584,-0.22354177,-0.038013272
-10.223912,-0.67153525,-0.56536674,0.07620107400000001,-0.274645,-0.0065973448
-11.157487,0.7066343,2.3851419999999997,0.035220746000000004,-0.21928316,0.023195425
-17.193491,1.9369284,5.4435150000000005,-0.01160644,-0.16072737,0.046076692999999995
-15.430476,8.514566,3.7890252999999996,-0.051539574000000005,-0.11655309,0.08068657
-10.565009,3.0347939999999998,2.3303244,-0.06112143,-0.14475761,0.10037389
-12.371721,0.6533298000000001,1.8652363,-0.039287362,-0.21076596,0.098244585
-11.659312,-0.55996543,2.0308864,0.005934119,-0.25228733,0.089203775
-10.997247999999999,0.62703186,2.4684124,0.040544,-0.2618692,0.06578146
-10.883361,2.3243582000000003,1.910391,0.035744343,-0.24431118,0.025848325
-10.6607485,3.5162394,0.7454874,-0.0132121425,-0.19160224,-0.0055326936
-9.645588,3.4549575,0.06672161,-0.08454375,-0.09206612,-0.022043508
-8.829462,2.644367,0.17758273,-0.11807153,0.10487683,-0.030019663
-8.29747,1.7099293000000002,0.34574187,-0.12712978,0.26830947,-0.06462954
-8.031111,0.9809619,0.34232298,-0.1446878,0.34868187,-0.11945033
-7.5773606,0.64280486,0.1937005,-0.14575244,0.39446187,-0.14606660000000002
-6.955682799999999,0.6741785,0.06758352,-0.21230185,0.39393827,-0.15990707
-6.458503,1.0225253,0.013187262,-0.26340508,0.41788417,-0.11786208
-6.241396400000001,1.5382937,-0.005267244,-0.3629412,0.16769123,-0.08272861
-6.4573245,2.036211,-0.06738242,-0.4087212,0.22731169,-0.029496064
-6.968439,2.3555784,-0.26128402,-0.27937484,0.21240658,-0.09389871
-7.4682713000000005,2.3078762999999998,-0.510846,-0.39488074,0.09742427599999999,-0.05611233400000001
-8.002916,1.7286901000000001,-0.80571586,-0.58013,0.023963371,0.04181809
-8.86186,1.0104585,-1.1157075,-0.5875825,-0.088872164,0.09772099
-10.083247,0.7813525,-0.9996079,-0.36400586,-0.15433946,0.11901400000000001
-11.158980999999999,1.2984905,-1.4721084,-0.15533431,-0.17350318,0.04448844
-11.854603,1.9935848000000003,-2.0012941000000004,-0.123935826,-0.14636332,-0.038013272
-13.396257,2.161696,-0.8270818000000001,-0.19685568,-0.23047073,-0.08698721
-14.982598000000001,1.7649671999999998,1.3380618999999998,-0.29267427,-0.3071256,-0.09443977
-14.723575,0.31240502,3.1848726000000003,-0.3714584,-0.30819023,-0.07953466
-11.602455,0.5793776999999999,0.7986099,-0.36613518,-0.23260003,-0.052377332
-10.941722,0.700438,0.391203,-0.31131437,-0.16285667,-0.026825711000000002
-11.107899,0.697565,1.8903947,-0.22560126,-0.15540412,0.00029670597999999996
-11.399799,1.1781389,3.219981,-0.17503907,-0.14529866,0.038100537000000004
-10.806995,1.43496,3.9106507000000006,-0.16385151,-0.14156365,0.07588691
-9.94016,0.8443392,2.7644889999999998,-0.16491616,-0.12665854,0.10517354
-9.868746,-0.0033423058,1.2081333,-0.16385151,-0.11122983,0.12273155
-9.463542,-0.59090817,0.37003824,-0.14788175,-0.040421825,0.13870132
-8.608017,-0.8743049999999999,0.21940465,-0.058451075,0.09902998,0.16692328
-7.6968412,-0.82011944,0.4493246,0.07887143,0.11765265,0.19619246
-7.0426784,-0.28992826,0.7318117,0.23802800000000002,0.20176005,0.21748547
-6.9633055,0.15171577,0.75863636,0.34449309999999994,0.35561085,0.19141026
-7.178735700000001,0.17858829,0.6213049,0.42647120000000005,0.50679123,0.1291369
-7.5803012999999995,0.10030747,0.20053834,0.54838246,0.5227609999999999,0.06684611
-8.02705,-0.1821796,-0.20009781,0.60055035,0.51743776,-0.006073746
-8.491247,-0.32594663,-0.48512269999999996,0.7224441,0.21879448,-0.09337512
-8.6394005,-0.44464156,-0.5505515000000001,0.5707401,0.08199557,-0.16790067
-8.5247555,-0.5797703000000001,-0.3243473,0.7229852,0.11180579,-0.04279547
-8.31557,-0.39002502,-0.3523307,0.7373493,0.12564625,-0.12157963
-8.613553,-0.106350444,-0.26178202,0.5707401,-0.0010297442999999999,-0.1412844
-9.205141000000001,-0.31710723,-0.28490043,0.32958797,-0.16020377,-0.14980161
-9.804361,-0.9814695,-0.8515888,0.1730843,-0.16072737,-0.11360348
-10.017847999999999,-1.5849137,-1.4430428999999998,0.13158037,-0.12027064,-0.05024803
-10.201377,-1.6271187,-1.3747601999999999,0.13103932,-0.15966272,-0.0034033920000000003
-10.958482,-1.2488538999999999,-0.5285057,0.1603085,-0.21450096,0.03223623
-13.029149,1.4159979999999999,2.943355,0.20502383,-0.18095574,0.059917152
-16.253439999999998,4.2567663,3.7408059999999996,0.21247639,-0.1421047,0.07749262
-12.493730000000001,5.217291,2.1162062,0.15552629999999998,-0.09686577,0.09025098
-11.883122,2.1960099,2.3376505,0.06981317,-0.12878785,0.10889109
-12.713279,0.25116134,2.2516602999999997,0.009669124,-0.18788469,0.10782644
-11.765452,-0.29183406,2.1578557000000003,-0.016929694,-0.19799015,0.10143854
-10.854966000000001,0.6371737,2.1974560000000003,-0.024923302,-0.19959585,0.07962192
-10.762397,2.1710334,1.1564473,-0.044087015,-0.20437805,0.047682392999999997
-10.242567,3.131386,0.36610216,-0.07283259,-0.17882644,0.026389378999999998
-8.94717,3.1361742,0.23333889,-0.10103711,-0.10749483,0.015201817
-8.008125999999999,2.7348585,0.39168182,-0.123935826,0.04845034,0.0029496064
-7.629497,2.0765102,0.38020879999999996,-0.16652186,0.10220648,-0.008744099
-7.652003,1.1898226,0.11793838,-0.14788175,0.15704472,-0.022567106
-7.570226700000001,0.5183255,-0.17695065,-0.12500048,0.27628562,-0.019914206
-7.1614119999999994,0.6397307,-0.23643221,-0.18620917,0.36465165,-0.04918338
-6.907157000000001,1.0709552,-0.25607425,-0.30386183,0.47378707,-0.04972443
-6.9027899999999995,1.5306993999999998,-0.375746,-0.47792349999999995,0.3588048,-0.034278266
-7.0345573,1.9502879000000002,-0.5868667,-0.6466794,0.20921262,0.14988887
-7.282203999999999,2.3683732,-0.7146309000000001,-0.46355945,-0.10218903,0.06736971
-7.6795173,2.410013,-0.679168,-0.43853143,-0.16072737,-0.008744099
-8.256528999999999,1.8366879,-0.99533665,-0.48218212,0.07613126,0.11847295
-9.330022999999999,1.2017456,-0.9366691999999999,-0.5471258000000001,-0.1394518,0.14189526
-10.384888,1.1945055,-0.876862,-0.37252307,-0.29967302,0.12859586
-10.8225,1.624801,-1.8178982,-0.25434682,-0.12452924,0.03010693
-10.644658999999999,1.974479,-2.8818145,-0.29693288,-0.09206612,-0.06250024
-11.673141000000001,2.3305447,-2.2734094,-0.41191515,-0.2506991,-0.121056035
-13.563478,2.1138694,0.07106948,-0.5098805000000001,-0.30819023,-0.14021975
-17.620136,0.4099735,5.091327,-0.5269149000000001,-0.24431118,-0.13543755
-13.711938,-1.6882665000000001,3.5977477999999996,-0.44172537,-0.13465215,-0.13116150000000001
-10.8758335,0.253364,1.9652853,-0.30119148,-0.050544735,-0.11786208
-11.119899,1.9539176,1.901906,-0.18516198,-0.01595231,-0.08965756
-11.731981,3.2791178,2.0616852999999997,-0.13138838,-0.029775318,-0.038013272
-10.172111,2.1474075,3.4589415,-0.11276572,-0.036704276,0.020525072
-9.8211975,0.6403245,2.3816464,-0.11116002,-0.03351032,0.079080865
-9.808814,-0.6049956,1.1627009,-0.10955431,0.019704766999999998,0.13550736
-8.959783,-1.1051635,0.48902047,-0.060580377000000005,0.18846065,0.19619246
-7.674900999999999,-0.98688996,0.41940668,0.013927726999999999,0.27415633,0.24251350000000002
-6.832592,-0.3071282,0.6574861,0.08843583599999999,0.29970795,0.26378906
-6.4826365,0.23457429999999999,0.85147387,0.13795082,0.37529814,0.20736256
-6.764443400000001,0.34657508,0.8373193999999999,0.20821778,0.3721042,0.07534587
-7.51267,0.12620316,0.47155240000000004,0.25612706,0.28108528,-0.03323107
-8.308962,-0.23531172,-0.025847802000000003,0.41528365,0.29651397,-0.1263793
-8.786175,-0.49154878,-0.3932237,0.70328045,0.14320427,-0.18441148
-8.771282000000001,-0.61769444,-0.6170528000000001,0.7325496,0.10114183,-0.20783381
-8.360064,-0.7350008000000001,-0.6119770999999999,0.6984982,-0.10430088,-0.18493510000000002
-7.7650185,-0.62634236,-0.6898845,0.6335545,-0.17882644,-0.19025834
-8.143858,-0.3900729,-0.86295646,0.43764132,-0.3348065,-0.1993166
-9.270301,-0.5255273,-0.70580107,0.21725859,-0.32735395,-0.14873695
-10.578924,-1.5150508,-0.72077924,0.12463396,-0.27838,-0.05984734
-10.91441,-1.7420403000000002,-0.8242565999999999,0.17149605,-0.20863666,0.00029670597999999996
-11.702753,-1.3164278,-0.12392388,0.2896723,-0.23739968,0.01998402
-12.1445875,0.28634652,1.2329756,0.36898005,-0.2677335,0.019460421000000002
-14.175168,2.6246292999999996,3.1631906,0.38762018,-0.20013689999999998,0.01998402
-15.160210000000001,3.6614337,2.5282962,0.32532936,-0.11655309,0.026371923999999998
-13.429336,2.9195087,2.4495747000000003,0.23802800000000002,-0.050544735,0.047141342999999995
-12.579873,2.5358617000000003,2.728164,0.18744837,-0.057473693,0.054576445
-11.578503,1.7512053,2.5034349999999996,0.19331266,-0.07716101,0.047141342999999995
-10.484017,0.8004295,2.4126369999999997,0.21619393,-0.112835534,0.038083083999999996
-9.89968,0.96992946,1.9470988999999999,0.20608848,-0.15435691,0.027960173999999997
-9.692599000000001,2.1456165,1.2895458,0.15604989,-0.17404424,0.015184363999999999
-9.320828,2.9086583,0.7573435000000001,0.08791223,-0.16819738,-0.0034208453999999998
-8.545614,2.8349645,0.57732826,0.009128072,-0.08941322,-0.03323107
-8.256232,2.2065153,0.506479,-0.09786061,0.11285299,-0.06197664
-8.106614,1.369263,0.20547996,-0.15322246,0.31833062,-0.11253883
-7.844573,0.78317213,-0.09384313,-0.17610373,0.43598324,-0.18708184
-7.415072400000001,0.8971744,-0.07800309,-0.23945917,0.47537532,-0.22273892
-7.1201550000000005,1.2568983999999999,0.07919061,-0.37732273,0.51635563,-0.24029693
-6.9783893,1.5927571000000003,0.10682928,-0.51094514,0.64198446,-0.20624556
-6.905213000000001,1.918378,0.007134721,-0.6387031999999999,0.5850169,-0.12904964
-7.0277386,2.2055194,-0.1792012,-0.7739139,0.48015752,0.010402163
-7.1873455,2.3184299999999998,-0.31911835,-0.7829547,0.18205529999999998,-0.050265484000000006
-7.2997966,2.1549156000000003,-0.40576932,-0.781349,0.02448697,0.0029496064
-7.4296293,1.5595733999999999,-0.8688174999999999,-0.7526209,0.15437438,0.16212364
-8.013392999999999,1.4331117,-1.3087186000000002,-0.6461558000000001,-0.0074351025,0.21748547
-9.69011,1.5143325,-1.7873672999999999,-0.31663764,0.019687313999999997,0.16423549
-11.029417,1.7852892,-2.291615,-0.1564164,0.09848893,0.07267551
-10.925365,2.4081360000000003,-2.6541544999999998,-0.23200661,0.007452556,-0.0071383966
-11.972723,3.0322278,-1.2250172,-0.38744563,-0.11016518,-0.091245815
-13.829666,2.7253293999999997,1.2330521,-0.45184830000000004,-0.15329227,-0.15938346
-16.729237,0.2768272,4.727026,-0.38477528,-0.20385446,-0.21582742
-13.956826000000001,-2.2431946,2.1885204,-0.23413591,-0.193749,-0.23657937
-12.378472,-0.2477041,1.7576218999999997,-0.042498767,-0.21078339999999998,-0.21848032
-12.429008999999999,2.4052246,1.7086938999999999,0.11878711,-0.30021408,-0.17270033
-12.270619,3.772582,2.4940398,0.22418754,-0.34864697,-0.10882128
-10.964447999999999,1.8141631999999999,3.117375,0.24706881,-0.30234340000000004,-0.04335398
-10.298907,0.39818448,1.6043450000000001,0.21832323,-0.21930061,0.015184363999999999
-9.398104,-1.0258292,0.39727470000000004,0.18053685,-0.09580112,0.077998765
-8.1422205,-1.7735193,-0.09412086,0.18479545,0.05003859,0.13870132
-7.096298700000001,-1.7202339,0.21930887,0.23057544,0.09210102,0.16371189
-6.388056,-1.2334256000000001,0.77600867,0.37643259999999995,0.17193238,0.15997688
-6.442012,-0.9488030000000001,1.1489486,0.56806976,0.28693214,0.13336061
-7.039958500000001,-0.599805,0.99906206,0.76129514,0.40350267,0.12431980000000001
-7.570073,-0.31384152,0.52658075,0.9486737,0.46205845,0.10035643
-8.053844999999999,-0.22843558,0.058418524000000006,1.0444921999999999,0.49719194,0.035430185
-8.661100999999999,-0.15382268,-0.5323747,1.0572681000000002,0.48867473,-0.021519909
-8.954181,-0.012794614,-0.8929606,0.9614495000000001,0.22518238,-0.15247196
-8.866619,0.19391118,-0.96289045,0.5803045,-0.122958444,-0.26373670000000005
-8.900789999999999,0.55109733,-1.0591278,0.6841166999999999,-0.21450096,-0.055588737
-9.459099,0.46964659999999997,-0.7270137,0.6702762,0.042586032,-0.1934523
-10.050303,-0.16528611,-0.08700529,0.33171728,0.09208357,-0.19453439
-10.283230999999999,-0.9348783000000002,-0.4046967,0.01977458,-0.09738937,-0.08485791
-9.949919,-1.5400368,-1.3372575,-0.11648327,-0.08250172,-0.009285152
-9.555087,-1.8939476000000002,-1.7928452000000001,-0.08189085,-0.1314582,0.042865288
-9.897899,-1.8932102,-1.4054347,0.049061205,-0.23314108,0.045012042
-9.815432000000001,-0.19648735,-0.40256107,0.15125023,-0.30499628,0.049270645
-11.395414,1.0444560999999999,1.9691542000000002,0.19224802,-0.23472933,0.065764
-16.25864,4.634945,3.095703,0.17627825,-0.14531611,0.07747517
-12.131822999999999,8.077989,2.1140513,0.16776104,-0.12826425,0.08866273
-10.249357,2.76673,1.9182727,0.1730843,-0.19479620000000003,0.081210166
-12.796232,-0.521821,0.9135315999999999,0.21725859,-0.21984167,0.051923542999999996
-12.561332,-1.1041005,0.8404414000000001,0.27368507,-0.2006605,0.013596115
-11.7291565,0.42971134,0.46780786,0.30616567,-0.22729422,-0.008744099
-11.091283,1.9221323000000001,0.23421997,0.30775392,-0.24111724,-0.013002703000000001
-10.088975,2.8718833999999998,-0.11678916,0.28593728,-0.15063937,-0.0012915436
-8.765766000000001,2.7488022,-0.12117534,0.2364223,0.09688323,-0.0023561944
-7.898088499999999,1.9680338,0.059424087,0.10175269999999999,0.15330972,-0.028972466000000002
-7.4988410000000005,1.2090718999999999,-0.053524774000000004,-0.06750934,0.21985912,-0.03481932
-7.295727,0.14977168,-0.11597513,-0.19048524,0.27680922,-0.016196655
-7.063823700000001,-0.09141062,-0.1841141,-0.2777866,0.38753292,-0.012479104
-6.976196300000001,0.22651063,-0.17820522,-0.3911632,0.40830234,-0.016720254
-7.2282,0.93614244,-0.36135209999999995,-0.50455725,0.27574456,-0.025237462000000002
-7.5325603,1.6452953999999997,-0.47097778,-0.42736130000000006,0.22357668,-0.0028972465
-7.5689907000000005,1.8640870999999999,-0.5472666,-0.34485959999999993,0.0037350047,-0.04333652599999999
-7.5270734,1.7246584999999999,-0.60262054,-0.403939,-0.12241739,-0.015655603
-7.742704400000001,1.5878056999999999,-1.2707369,-0.47581166,-0.11016518,0.026371923999999998
-9.076782000000001,1.8256841000000001,-1.6204243999999999,-0.36721727,-0.07557276,0.10196213400000001
-10.43938,2.0926855,-1.8757613000000002,-0.13671164,-0.036180675,0.12431980000000001
-10.801977,2.5966074,-2.1387978,-0.043022364,-0.030857421,0.06736971
-10.828764,2.7490609,-2.460339,-0.119153626,-0.100059725,0.016790068000000002
-12.52045,2.217184,-0.8838627,-0.25436428,-0.21504201,-0.03269002
-14.821794,0.8334503000000001,1.9522703999999997,-0.34431854,-0.2778564,-0.07688175
-15.419070000000001,-0.97268754,3.1253142000000005,-0.3475125,-0.28743827,-0.08485791
-12.819225999999999,-1.0582945,1.5996907,-0.26021114,-0.25389305,-0.07527605
-11.22327,0.33327287,1.555647,-0.14257595,-0.22727677,-0.07049385
-10.881273,1.688391,1.8898773999999998,-0.06218608,-0.22940607,-0.048136182
-10.809524,2.4186992999999997,2.5795703,-0.040893063,-0.24218188,-0.009808751
-10.301139,1.3593893999999997,2.724027,-0.038240165,-0.23792328,0.024242622999999998
-9.955119,0.39013037,1.6209607,-0.03769911,-0.21025981,0.054576445
-9.703125,-0.48607084,0.5756235,-0.039304815,-0.14636332,0.08545132
-8.9714575,-1.2064766000000002,0.121089146,-0.019600047,-0.034051374,0.10889109
-8.375463499999999,-1.3566695,0.18062817,0.04852015,0.059096847,0.13231342
-7.939584299999999,-0.76258194,0.39096355,0.15924384,0.12829915,0.15892968
-7.4872146,-0.17496826,0.5572648,0.29178414,0.3199363,0.14987142
-7.391782000000001,0.06162675,0.42978793,0.3663097,0.43065998,0.11740830000000001
-7.5548267000000005,0.088049166,0.107356004,0.4307298,0.3981794,0.06257005
-7.8371606,-0.08492713,-0.24222618,0.46212828,0.40030873,0.010943214
-8.163203,-0.37642595,-0.48551540000000004,0.6500479,0.10114183,-0.07953466
-8.330539,-0.5148491,-0.6909569999999999,0.5808456,-0.02979277,-0.16737707
-8.208472,-0.6808727,-0.6582235,0.6441836,-0.02979277,-0.024713863
-8.161728,-0.49398127,-0.54823387,0.54942966,-0.07183775,-0.09869837
-8.77949,0.17176002,-0.8242565999999999,0.32958797,-0.16180947,-0.16044812
-9.619874000000001,0.24977270000000004,-0.56010914,0.10868165,-0.31777209999999995,-0.21635102
-10.137912,-0.5688526999999999,-0.9174294,-0.029705504,-0.33215362,-0.20144589999999998
-10.306761,-1.3233231,-1.4595723999999999,-0.043545965,-0.2613456,-0.14767231
-11.022484,-1.5138154,-0.9477974,0.015515977,-0.24378759,-0.056653388
-11.605853999999999,-0.9432867,-0.21604319,0.04373795,-0.3262893,-0.010332349000000001
-13.781379000000001,1.7455453999999997,2.8508047999999997,0.04639085,-0.36035812,0.011466813000000001
-16.058687,3.3334373999999998,3.1195779999999997,0.029356438999999998,-0.34012976,0.025324726000000002
-12.227447,2.4912913,1.7230878,0.01818633,-0.30073768,0.03488913
-11.040248,0.9792380999999999,1.5675126,0.02776819,-0.27572712,0.04766494
-11.516646000000001,0.64240265,1.7900585,0.03361504,-0.25336945,0.07108726
-11.265188,0.82352877,2.0449547999999997,0.025097834,-0.19853120000000002,0.09983283
-10.958021,1.2308687,2.0489674,-0.00043633230000000004,-0.14156365,0.12166689999999998
-10.74261,2.3455036,1.4991055,-0.03450516,-0.08726646,0.13870132
-10.160197,2.8173912,0.5835723,-0.07124434,-0.023404865,0.13390166
-9.209727,2.3915777,0.41921514,-0.077091195,0.11232939,0.11847295
-8.440088000000001,1.6369636,0.5148587,-0.12445943,0.29705504,0.084404126
-7.8972454,0.9065118000000001,0.5297314999999999,-0.21975441,0.402438,0.017854718000000002
-7.493995,0.6125038,0.4632014,-0.2937389,0.53606045,-0.04972443
-7.0979266,0.79008657,0.31076738,-0.29799749999999997,0.6420019,-0.06569419
-6.8197399999999995,1.1084867,0.18030253,-0.34805354,0.5860989999999999,-0.08485791
-6.6407110000000005,1.4399208000000001,0.052528787,-0.4603655,0.5562888,-0.10402162400000001
-6.849437700000001,1.6059538,-0.09243534,-0.69139475,0.32473597,-0.08964011
-7.150752499999999,1.6106753,-0.29683313,-0.6243217,0.23211133,-0.03748967
-7.3188834,1.5255566999999999,-0.24244644,-0.50082225,-0.011152654,-0.119991384
-7.373289,1.5387248,-0.25037605,-0.51572734,-0.041486476,-0.00075049157
-7.547136999999999,1.5573899,-0.99543244,-0.58971184,0.044732787,0.13018411
-8.48369,1.5633754,-1.2915378,-0.45291293,-0.026057765,0.17544049
-10.147661,1.8083405,-1.4667071000000003,-0.17343336,-0.04841543400000001,0.10356784
-11.234551,1.8978071,-1.9924833999999998,-0.040893063,-0.04309218,0.03275983
-11.514061,1.7897041,-1.8919939,-0.076026544,-0.11920599,-0.030560715
-12.328424,1.2175281999999998,-0.41639957,-0.18249163,-0.2512227,-0.09122836
-14.525008999999999,0.42521977,2.7187693,-0.25062928,-0.2868972,-0.15034266
-16.068464000000002,-0.5417504,4.60653,-0.21123719,-0.26293385,-0.16416568
-14.092692000000001,-1.1764531999999999,2.7861516,-0.095713854,-0.17723818,-0.16044812
-12.149223,0.18610609,1.9082363000000002,0.04426155,-0.11707669,-0.1348965
-11.971899,1.6703292,2.0092523,0.13475688,-0.121876344,-0.08751081
-11.436374,1.9020976000000003,2.8639247,0.1714786,-0.12135274,-0.023649212000000003
-10.459156,1.2072235,3.3608843999999998,0.15872024,-0.063844144,0.049270645
-9.957360000000001,0.3892589,1.979593,0.08684758,-0.016475908,0.1200612
-9.4645,-0.7883915,0.6060299,-0.0014835298000000002,0.08731882,0.18449876
-8.397432,-1.7133194,-0.007728483,-0.010018189,0.250734,0.24144885
-7.4183955,-1.8897625,0.23097342,0.03202679,0.29970795,0.28562313
-6.842053999999999,-1.358355,0.69618595,0.14008012,0.35613444,0.29201102
-6.635357400000001,-0.7644207,0.8391581,0.2311165,0.3912679,0.22706734
-6.934393400000001,-0.33295685,0.5917126,0.3695211,0.4498237,0.14721853
-7.305064,-0.04136223,0.22837812,0.53080696,0.5270196,0.09292133
-7.736001,-0.06502652,-0.14149731,0.622908,0.5664117,0.04342379
-8.110531,-0.17609833,-0.46169785,0.81932735,0.42587778,-0.009791297
-8.322379,-0.21351491,-0.6621117,0.5473178000000001,0.04420919,-0.20675170000000004
-8.127491000000001,-0.060870185,-0.794693,0.5457121,-0.04680973,-0.097092666
-8.153061,0.36430174,-1.3292511999999999,0.6319488,0.19432496,-0.118909284
-9.088169,0.27733475,-1.0880593,0.4823741,0.16290903,-0.16097172
-10.155389999999999,-0.22387701,-0.7267073000000001,0.21727604,-0.052656583,-0.13435544
-10.422649,-1.2355996,-1.0534966000000001,-0.021729348,-0.22567107,-0.10932742
-9.858748,-1.9299468000000002,-1.6078405,-0.14203489,-0.23312363,-0.049706977
-9.704197,-2.2143111,-1.770876,-0.12606514,-0.22938862,0.0035081116999999998
-10.428271,-1.8610321,-1.3757563,-0.10157816,-0.33587116,0.033841934
-11.546622,0.33812833,1.2428397,-0.096778505,-0.33639476,0.060999255999999995
-15.734723,2.2357247000000005,3.2329673999999997,-0.12500048,-0.274645,0.08546878
-14.613420999999999,6.4917345,2.1302936000000003,-0.16652186,-0.22195353,0.11634365
-10.992766,3.442594,1.8719306,-0.17397442,-0.2027898,0.14882423
-12.4281,1.1807628000000001,1.6337745000000001,-0.153205,-0.20916025,0.15894714
-12.608699,-0.30235896,1.2619933,-0.12126548,-0.20331341,0.15947074
-11.997594,-0.044848185,1.3548788,-0.0903906,-0.20757201,0.14830063
-11.1188545,1.3639958,1.0575955,-0.06962118,-0.21767746,0.13446017
-10.730438000000001,2.7865729999999997,0.23147142,-0.044069562,-0.20490165,0.11901400000000001
-9.530158,3.0413446,-0.24791479,-0.018535396000000003,-0.15594517,0.08281587
-8.388842,2.6786327,-0.0073741414,-0.015341444,-0.08194321,0.03436553
-7.883244,2.1028752,0.071634516,-0.007888888,-0.039357174,-0.007120943
-7.563283,1.5373169,0.03662171,-0.041416664,-0.028710665,-0.042271875
-7.2763524,0.91998637,-0.028385654,-0.1366942,0.06337290000000001,-0.086969756
-6.945196000000001,0.6042582,-0.07896077,-0.266058,0.25501007,-0.14552556
-6.818456599999999,0.73441654,-0.13776235,-0.44279003,0.46209338,-0.2115339
-6.9536424,0.98148865,-0.16689502,-0.6306921999999999,0.5488536999999999,-0.24453808
-7.2562027,1.1754956,-0.29530084,-0.8319112,0.3236713,-0.21846285
-7.518741,1.2605089,-0.47284526,-0.87130326,0.2353053,-0.06993534400000001
-7.7165694,1.1648462,-0.72679347,-0.7004355,-0.073426,-0.07845255
-8.122741,0.9520208,-0.92354894,-0.6227159999999999,-0.13517575,-0.04918338
-9.065875,1.3670126,-0.7913028,-0.5519255,0.13203415,0.14775957
-10.187204,1.8316122,-0.9145658999999999,-0.4236263,0.062308256,0.16746435
-10.535866,1.8455752,-1.8217385,-0.14414674,-0.03190462,0.14404203
-10.217466,1.7958907,-2.9946866,0.028309241000000002,-0.02125811,0.11210250000000001
-10.414634,2.1806006,-3.3700687999999994,0.025115287000000003,-0.13943435,0.04129449
-11.399617999999998,2.4342806,-2.0595689999999998,-0.030770155,-0.2645221,-0.046513025
-13.006903999999999,2.1908574,1.8542900000000002,-0.042481314000000006,-0.28049186,-0.13646729999999999
-15.555195000000001,1.031719,5.008948,-0.008936086,-0.27410397,-0.19504054
-13.819687,-1.4435505,4.0142527,0.07728318,-0.23577653,-0.22537437
-11.226911,-0.0066654575,2.2389617000000004,0.15659094,-0.21554816,-0.22059216
-11.5125475,2.2170882,2.0814328,0.18427186,-0.23577653,-0.18278833
-11.836195,2.3058363999999996,2.1847284,0.16723745,-0.22832397,-0.12103858599999999
-11.343584,0.9741911,2.920907,0.11454595599999999,-0.18095574,-0.057700586
-10.97185,-0.1464198,1.8615110000000001,0.0426733,-0.1261175,0.01150172
-10.303916000000001,-1.4090643,0.61482143,-0.011065387,-0.03827507,0.06899287
-8.913967,-1.6644394,0.13173856,-0.036617007,0.11608185,0.10625564
-7.758017999999999,-1.3037673,0.27745926,-0.09997246,0.1852667,0.13819517
-7.247603,-0.5962807,0.5343954000000001,-0.11168362,0.27843237,0.16214108
-6.834172200000001,-0.22255541,0.6601676,-0.03981096,0.36946875,0.15255924
-6.960586,-0.09545203,0.56577855,0.12199851,0.44025929999999996,0.14884168
-7.1616607000000005,-0.055104945,0.25535598,0.36154497,0.49775046,0.12381366
-7.473529300000001,-0.04828626,-0.07808928,0.55850536,0.52810174,0.06525786
-7.9073970000000005,0.06887639,-0.4598208,0.78579956,0.39554396,0.008831366
-8.21668,0.35060690000000005,-0.63770044,0.7581187,0.01972222,-0.24080308
-8.123833,0.5673204000000001,-0.6087784,0.6575179,-0.13782865,-0.07897615
-7.986013400000001,0.5377377,-1.0423876,0.70488614,-0.005270894,-0.05023057400000001
-8.665161999999999,0.31291258,-1.0086484,0.6074793,0.006946410500000001,-0.10346312
-9.880947,-0.08059841,-0.8218241,0.45149922,-0.2086192,-0.1423316
-10.748059,-0.42089108,-0.9433538,0.3391873,-0.32466614,-0.1513724
-10.249348,-0.65218055,-1.5564706,0.34077555,-0.32253686,-0.11145672
-9.587236,-1.2647705,-1.7761049,0.42488295,-0.2565285,-0.034801867
-10.372142,-1.9927036,-1.2472736999999998,0.4605575,-0.29485592,0.026406832
-11.348181,-1.0188764000000001,1.5224346000000002,0.42596504,-0.31614894,0.06633996
-16.344027,0.29127857,5.08629,0.37697366,-0.22671826,0.08229227
-16.563087,6.736441,3.8607845000000003,0.36473890000000003,-0.17029178,0.079639375
-11.229371,2.9621828,2.222844,0.38709658,-0.18893189999999999,0.06419321
-11.516244,0.6162867,1.6371934,0.44245842,-0.23204152,0.029600783999999998
-11.246169,-0.8917348,1.8369656000000003,0.5068611,-0.2618692,-0.00286234
-10.795283,-0.27226862,2.1446397,0.55850536,-0.2565285,-0.014556046000000001
-10.512499,1.0434601000000001,1.9651991000000002,0.55850536,-0.24427629,-0.010838495
-10.509607,2.6515784,1.2186487,0.5116607,-0.21448351,0.004049164
-9.922166,3.2946131000000003,0.33179805,0.43448228,-0.1372876,0.021624627999999996
-8.832038,2.6100821,0.20641848,0.3711268,0.050614547,0.028012535
-8.179599000000001,1.5990107,0.37466386,0.30085987,0.23160519,0.00991347
-7.9519963,0.8495298000000001,0.38839698,0.16619025,0.2928139,-0.037978366
-7.646390400000001,0.38613683,0.26748022,0.018203784,0.35669294,-0.09014626
-7.139940299999999,0.3624151,0.13061807,-0.10101966,0.3854385,-0.14337879999999997
-6.724336,0.7532733,0.029975405,-0.25113544,0.4674166,-0.18277088
-6.675044000000001,1.2872569999999999,-0.10084377,-0.40924479999999996,0.55738837,-0.18757053
-6.943146700000001,1.7026606,-0.30892859999999994,-0.49974012,0.3678805,-0.215234
-7.2477655,1.816069,-0.5903335,-0.6738018,0.29016098,-0.12049753
-7.627936,1.8456997,-0.6459365,-0.5747893,0.10384709,-0.012426743999999998
-8.096156,1.8192868000000002,-0.8599015,-0.49281117,-0.26930429999999994,-0.064594634
-9.047105,1.6551787,-1.537834,-0.41456807,-0.018046705,0.12596041
-10.195899,1.517876,-1.9046448,-0.2713638,-0.004729842299999999,0.17386970000000002
-11.003483000000001,1.80541,-2.2021291,-0.05311037,-0.05956809,0.12861331
-11.002803,2.4803738999999996,-2.6153111,0.10389945,-0.07819075,0.09669124
-10.837354,2.7301273,-2.857384,0.07302458,-0.2826037,0.051958452999999995
-11.546889,2.2434149,-1.8144792,-0.08239699,-0.44230133,0.0019198620999999999
-10.9542675,1.3820481000000002,0.063388884,-0.19257963,-0.49607494,-0.064594634
-13.134159,0.6279608,3.0690315,-0.18832102,-0.45081854,-0.09494591
-14.466598999999999,-0.63452095,4.7050467000000005,-0.0893085,-0.35712928,-0.09707521
-12.830364,-1.9550668000000002,3.2548501,0.054925512999999995,-0.2842094,-0.09121091
-12.372181,0.6292536999999999,2.9622884,0.14596188,-0.25225243,-0.05714208
-12.226738000000001,2.9135616,2.6784797,0.16193165,-0.22298327,-0.0017802357999999999
-11.810674,1.8276473000000002,2.7255592,0.15980235,-0.1894555,0.06686357
-11.03229,0.37610033,1.9155625,0.13744467,-0.12184144,0.13608332
-10.113615,-0.7221966,0.41664857,0.11773991,-0.061679937000000004,0.19196877
-8.9329,-1.3396038000000001,-0.049358862999999996,0.07515388,-0.010576695,0.23455479999999998
-7.8581147,-1.3358784,0.12780249,0.034697145,0.030386182,0.25319493
-7.222540400000001,-0.80074555,0.696751,0.08101819,0.12620476,0.26755896
-6.9424667,-0.36287478,1.0309911,0.14861478,0.21935298,0.24893631
-6.908823,-0.36354518,1.0839318000000002,0.23485151,0.32742378,0.19249237
-7.1118326000000005,-0.46532744,0.7089327,0.34611624,0.41898373,0.11531389999999998
-7.542779400000001,-0.43246946,0.22221065,0.41903609999999997,0.5025675000000001,0.024294984
-7.9845095,-0.30940747,-0.17148229999999998,0.5185897,0.5105437,-0.024137903
-8.268251,-0.09548077,-0.3684389,0.66284114,0.23160519,-0.09707521
-8.510860000000001,0.18013015,-0.28311914,0.35569809999999996,-0.07606145,-0.22748621
-8.632189,0.2652584,-0.3850355,0.35569809999999996,0.16666149,-0.14498450000000002
-8.718812,0.26463590000000003,-0.4921138,0.34185764,0.35032248,-0.14337879999999997
-8.938129,0.20681114,-0.42529643,0.20186478,0.19488347,-0.12473868
-9.495988,-0.21725945,-0.5110376,0.013421582,0.034644786000000004,-0.13486159
-9.886052000000001,-1.0917655000000002,-0.8558314,-0.16596335,-0.10374237,-0.104510315
-9.920337,-1.7809412,-1.2197213,-0.24261822,-0.11545353,-0.024661502000000002
-10.868286999999999,-1.8050078,-0.612772,-0.23729496,-0.1447227,0.049323004000000004
-11.2216625,-0.302742,-0.2752853,-0.22026055,-0.19317304,0.09827949
-13.203831,1.6222056999999999,2.7684824,-0.22397809999999999,-0.22617722,0.12224286
-15.241698000000001,3.8869483,2.3598209999999997,-0.24794148,-0.21553071,0.14514159
-11.728819999999999,4.480346,1.0426652,-0.26071727,-0.17718582,0.1669582
-10.87522,2.4094862999999997,2.1464114,-0.2633702,-0.16655678,0.18186331
-11.602081,1.2543606,2.2692243999999997,-0.23462461,-0.19156733,0.18825121
-11.420132,0.67115223,1.913877,-0.17713347,-0.2091428,0.179734
-10.929225,0.9611569999999999,1.6724168999999998,-0.124441974,-0.22989477,0.15577063
-10.76052,2.1404257,1.0843626,-0.09623746,-0.24534093,0.12224286
-10.350901,2.9405777000000004,0.5456576999999999,-0.08824385,-0.2112721,0.08604473
-9.493488000000001,2.8850322,0.31627405,-0.10101966,-0.11171853,0.04612905
-8.709091,2.417866,0.32399294,-0.10527826,0.07936012,0.0035430184000000003
-8.302,1.7655226000000002,0.35578796,-0.107948616,0.20818287,-0.05714208
-8.092162,1.0471567,0.34109715,-0.12657128,0.20765927,-0.11302752
-7.9793286,0.5056362,0.13844232,-0.17980382,0.25237462,-0.14603170000000001
-7.750462,0.44400948,0.123837695,-0.25804693,0.30400145,-0.18168877
-7.53643,0.82979196,0.16024870000000002,-0.36877063,0.38013270000000005,-0.215234
-7.5900216,1.2096944,0.046265554,-0.5966059,0.5121494000000001,-0.23652703
-7.6499243,1.4721467,-0.22961353,-0.8915142,0.46424013,-0.22214551
-7.6152086,1.5194561000000002,-0.5322885,-1.063464,0.36629224,-0.016685348
-7.529093700000001,1.3988458000000001,-0.6915508,-0.61844,0.013892821000000001,-0.10183996
-7.554539699999999,1.2708806000000001,-0.99205184,-0.52581537,-0.27728045,-0.12580334
-8.154162,1.0892565,-1.4774811,-0.6503795,0.13100441,0.08337438
-9.253436,1.2240309,-1.4197712,-0.76588535,0.10971139,0.16484635
-10.2689705,1.5963771,-1.5012603,-0.61044633,0.09906489,0.14672983
-10.490099,1.7718720000000001,-2.1745672000000003,-0.484835,0.07670722,0.10307915
-10.0583,2.1101727,-2.7796588,-0.5652074,0.010157816,0.065816365
-10.185777,2.202091,-2.235878,-0.7153232,-0.10161307,0.014713125
-11.890363,1.8011675,0.7328364,-0.73181653,-0.11491248,-0.03689626
-16.954453,1.3286575,6.328622,-0.60618776,-0.061679937000000004,-0.054471727000000005
-16.607657999999997,-1.7508508999999999,5.06456,-0.43532002,-0.0132295955,-0.07415904
-11.821774000000001,0.6531956999999999,1.9027487,-0.2846632,0.02560398,-0.08906415
-11.164738,2.695871,1.13421,-0.20162043,0.0027052604,-0.07044149
-11.024828999999999,3.3954855999999998,2.0274196,-0.14199999,-0.029199357999999998,-0.028379052999999998
-10.466406,1.8315164000000002,3.1543226000000004,-0.09302605,-0.0004712389,0.009930924
-10.549887,0.520193,2.2169256,-0.06321582,0.0490263,0.033894293
-10.363398,-1.0069534,0.8367447,-0.035534903,0.18423696,0.05623451
-9.288938,-1.7417721999999998,0.17818606,0.02565634,0.36576864,0.08339183
-7.9911556,-1.5115553,0.43367612,0.15234978,0.43762386,0.12065461
-7.2207875,-0.628612,0.9189904000000001,0.27371999999999996,0.4408178,0.15152949
-6.723895,-0.47979805,1.1469183,0.35836846,0.45944047,0.12224286
-6.865536,-0.57380396,0.96079314,0.4350233,0.47755697,0.091909036
-7.5072399999999995,-0.68829465,0.7175135,0.5627814,0.44827035,0.065816365
-8.164841000000001,-0.64704734,0.2818933,0.60802037,0.41046652,0.020036379
-8.430875,-0.44251549999999995,-0.28423005,0.6926688,0.35938075,-0.010803588000000001
-8.357488,-0.1912584,-0.7892151,0.7102443,0.07246607,-0.06935938400000001
-8.0794735,-0.17999607,-1.0395815000000002,0.65327674,0.047438048,-0.054995324000000005
-8.030228999999999,-0.13359645,-1.1568303,0.7507010000000001,-0.079237945,-0.020385446
-8.757032,-0.019393034,-0.9983438,0.7150265,-0.19530234,-0.059253927000000005
-9.84648,-0.5322023,-0.6215826,0.64315385,-0.24638812,-0.05766568
-10.366778,-1.2684289,-0.9190860999999999,0.5228657,-0.20380209999999999,-0.05338962
-10.197653,-1.2942479,-1.6094111,0.34824553,-0.23574162,-0.0251851
-10.02459,-1.157721,-2.0653532,0.23593360000000002,-0.26183429999999996,0.035482544
-10.413897,-1.1457405,-1.7821001,0.20984094,-0.21338396,0.09138544
-11.092239999999999,-0.37953842,-0.24076092,0.21038198,-0.24212952,0.12173671
-13.561151500000001,0.8850981,2.0920534,0.18695967,-0.2873859,0.12278391400000001
-15.1667795,3.5522482,1.9868331000000001,0.15608479,-0.25703463,0.12119567
-12.773679,3.8781185,0.7505056,0.11723377,-0.20860176,0.123848565
-11.407941000000001,2.098719,0.9440815999999999,0.083688535,-0.213925,0.12917182
-10.916851,1.5859958,1.7110401000000002,0.06346017,-0.27673942,0.12224286
-10.324869999999999,1.0377429,1.5570834999999998,0.06293657400000001,-0.32463124,0.10841985
-10.235959,0.84588104,1.0747476,0.07730063,-0.35552356,0.086062185
-10.173662,1.474876,0.48613787,0.08316494,-0.35870007,0.062098815999999994
-10.193352,2.6260467,-0.31310412,0.08155923,-0.31932545,0.038676497000000004
-9.786932,3.1811376,-0.8769674000000001,0.06665412,-0.22935371,0.008866273000000001
-9.086684,2.8283472,-0.810715,0.04749041,-0.020141099,-0.035290558
-8.694907,2.1310406000000004,-0.37900212,0.017680185,0.13313371,-0.100234255
-8.51268,1.4206809999999999,-0.22570617,-0.0073129297,0.18318976,-0.16624261
-8.188984,0.7724652,-0.35595074,-0.04511676,0.2539803,-0.20724039
-7.5784435,0.6153194000000001,-0.39873034,-0.15690510000000002,0.3439346,-0.24343853
-7.2545366,0.88563436,-0.2894494,-0.33096677,0.39557886,-0.26206118
-7.180497999999999,1.4410796000000001,-0.24271458,-0.44116688,0.41633084,-0.25780258
-7.1443167,2.0955682,-0.42032605,-0.6280044,0.1629614,-0.2189341
-7.070863,2.390687,-0.6994421,-0.73129296,0.11876965,-0.08906415
-7.0846919999999995,2.0162625,-0.8972798000000001,-0.62748075,-0.0786969,-0.13163273
-7.255733500000001,1.1697781999999999,-1.2333682,-0.5811597,-0.023335052999999998,-0.07787659
-8.136532,0.6448639,-1.5621113000000002,-0.6354744000000001,0.13100441,0.091909036
-9.445049000000001,1.0353198000000001,-1.5788132,-0.63280404,-0.0824319,0.1685639
-10.39413,1.7243711,-1.9765476000000002,-0.42678535,-0.1388584,0.15845844
-10.622546,2.3620331,-2.891238,-0.31499702,-0.0829555,0.09351474
-10.982844,2.7611562999999997,-2.996104,-0.3522598,-0.09892526,0.020053834
-12.128853999999999,2.9198153,-1.6424894,-0.42891467,-0.16599827,-0.05445427
-13.827501000000002,2.1165605,1.3386173000000001,-0.46033058,-0.18570304,-0.11513937
-16.413086,0.47310382,4.4255958,-0.42413247,-0.20167279,-0.15559610000000001
-13.354369,-0.97040826,2.7750041000000003,-0.32511994,-0.23680627,-0.18167132
-11.373339,0.8360073,2.157118,-0.18139207,-0.25490534,-0.18273596
-11.547025,2.2736874,1.7854232,-0.057892572,-0.29110345,-0.15453145
-11.593548,2.7257986,2.1584206000000004,0.009704031,-0.30174997,-0.110357165
-10.487378999999999,1.6046035,2.782752,0.023544492,-0.26129323,-0.05126032
-10.026581,0.22645317,1.6338415000000002,-0.00837758,-0.213925,0.009407325
-9.536928999999999,-1.1233115,0.5404863,-0.041922808,-0.102119215,0.06529277
-8.507451,-1.5948927,0.15379395,-0.060021874,0.032532938,0.12226032
-7.712049499999999,-1.4936658,0.26824638,-0.025411992999999997,0.12144001,0.17655751
-7.3265734,-0.86098367,0.6008393,0.07730063,0.18212509999999998,0.23352505
-7.2053213000000005,-0.47411898,0.8071906999999999,0.15395549,0.22736403,0.24256586
-7.5141634999999996,-0.3099821,0.70982337,0.23061036,0.26888543,0.20797344
-7.934480000000001,-0.3206698,0.29784825,0.3983016,0.34234634,0.17975146
-8.278077,-0.45463973,-0.20405303,0.6154904,0.36151004,0.11054915
-8.579277000000001,-0.28872156,-0.6078687,0.67404616,0.37641516,0.033894293
-8.650030000000001,-0.06241205,-0.7959284000000001,0.8023279000000001,0.26462683,0.0056897732
-8.501169,0.19689916,-0.74626315,0.75228924,0.0059166662,-0.18753563
-8.479526,0.34238997,-0.8214792999999999,0.47335073,-0.21497220000000003,-0.10609856
-8.686776,0.42062292,-0.92594314,0.6543414000000001,-0.07285004,0.015254176999999999
-9.560124,0.23331016,-0.77460086,0.69373345,0.15337953,-0.07414158400000001
-10.5159855,-0.7196491999999999,-0.80255556,0.5095489000000001,-0.03239331,-0.08852310000000001
-10.494572,-1.3366541,-1.2408860000000002,0.35997415,-0.2165779,-0.11140437
-9.726367999999999,-1.333848,-1.5812266000000001,0.32962290000000005,-0.18250908,-0.11033971599999999
-9.914274,-1.6570939999999998,-1.2721351,0.36795032,-0.19261454,-0.061365776
-10.20222,-1.2059593000000002,-1.2079896,0.3945666,-0.31185544,-0.0028099802
-9.709676,0.69211584,0.6493458000000001,0.3860494,-0.33953634,0.050405107000000005
-13.081334,1.081528,3.3036152999999997,0.3051359,-0.28152162,0.08340929
-16.63883,6.0208330000000005,4.307887,0.22102849,-0.22881266,0.108960904
-11.219449000000001,4.311200599999999,2.894561,0.17578956,-0.22242476,0.116937056
-11.418447,0.80094665,1.8332785,0.16514306,-0.23413591,0.10629055
-11.850063,-1.566009,1.0517632,0.18217747,-0.21710149999999998,0.09192649
-11.128767,-0.81671965,1.6099187,0.20027652,-0.20273745,0.05625196
-11.217764,1.0075854,1.4012878999999998,0.16779596,-0.21710149999999998,0.01685988
-11.54781,2.8900982999999996,0.77398795,0.111910515,-0.18462093,-0.003874631
-10.65639,3.6561089,0.13301226,0.053354714000000004,-0.077091195,-0.021450097
-9.288526,3.0179009999999997,0.07505344,-0.006789331,0.16402604,-0.043266714000000005
-8.495814999999999,1.9619334,-0.06596504,-0.0025307273,0.40409607,-0.061365776
-7.9757466,1.1389886999999999,-0.09863153,0.016615533999999998,0.43018875,-0.070424035
-7.3877690000000005,0.75692207,0.038891412,-0.004118977,0.40037853,-0.05232497
-6.766416,0.6834871,0.10807426,-0.101543255,0.39877284,-0.045396015
-6.264831,1.0073938,0.04617936,-0.27401668,0.40357247,-0.056583576
-6.13473,1.3966146000000002,-0.12573389999999998,-0.57531285,0.18531907,-0.034749504
-6.292900599999999,1.744875,-0.2790969,-0.696142,0.100146994,0.019530235
-6.612297,2.1226802000000005,-0.32926977,-0.6886895000000001,0.03413864,-0.109275065
-7.013584,2.3132968,-0.54593545,-0.7515039000000001,0.15870279,-0.06775368
-7.5899167,1.9011686,-1.0391315,-0.88619095,0.040002946,0.009407325
-8.876896,1.2570038000000001,-1.3921613000000002,-0.8893674000000001,-0.16280429999999999,0.08873254
-10.751402,1.3596288,-1.4960313,-0.73021084,-0.21549580000000002,0.15102334
-11.657062,1.8202732,-1.9333754,-0.58383006,-0.07763225,0.0999201
-11.360746,2.395916,-2.44923,-0.56145495,-0.09466666,0.016877335
-12.536136,2.6848959999999997,-1.8424339,-0.6327866,-0.20964895,-0.048048913
-15.521657000000001,1.9584186999999997,1.2092538000000002,-0.7094589,-0.30120890000000006,-0.09756391
-16.34487,-0.15162958,3.7581306000000003,-0.69827133,-0.28045696,-0.122050874
-12.255467999999999,0.13431472,1.8744205000000003,-0.5934119000000001,-0.22029546,-0.12737413
-11.168078999999999,0.9153608,1.3329574,-0.44966662,-0.160675,-0.11779227
-11.583378,1.3254205,2.0091758,-0.3229732,-0.13299409,-0.10075786
-11.349541,1.5748004999999998,2.8290555,-0.24685937,-0.14735815,-0.07094763
-9.996817,1.3227485,3.2911080000000004,-0.18298031,-0.12980014,-0.020367993
-9.524392,0.37850413,2.1940274,-0.13133602,-0.09360201,0.0376293
-9.501543,-0.8288822,0.91295695,-0.08981464,-0.030787607999999998,0.09246755
-8.835092999999999,-1.631294,0.2998498,-0.05948082,0.077248275,0.14622368
-7.8859735,-1.7675720000000001,0.5062204,0.051766466,0.22684044,0.21116738
-7.3669294999999995,-1.3402931999999999,0.8324448,0.18057176,0.24174555,0.26439992
-7.2661433,-0.7410916,0.88514596,0.35093334,0.34129915,0.29208085
-7.4206270000000005,-0.37950012,0.62227213,0.39032543,0.38547343,0.24151866
-7.802646000000001,-0.36099774,0.10746135,0.45739844,0.4706455,0.17496926
-8.098531,-0.6446819,-0.19957107,0.54576445,0.50738466,0.1004437
-8.486487,-0.865207,-0.25857379999999996,0.7081149999999999,0.45202282,0.06211627
-8.624564999999999,-0.9784431999999998,-0.43831128,0.7608239,0.1086642,-0.048048913
-8.400248,-1.0775152,-0.5580789,0.73792523,0.02029818,-0.0017453292000000002
-8.119475,-1.0098646999999998,-0.49953583,0.75176567,0.035744343,-0.019320795
-8.094901,-0.670501,-0.8714607,0.6474299,0.029356438999999998,-0.05284857
-8.782784,-0.517885,-0.75595486,0.4302411,-0.21656045,-0.053372167000000005
-9.862061500000001,-0.82947594,-0.9025565999999999,0.18910642,-0.34911820000000005,-0.07466519
-10.2207985,-1.5412242,-1.5482537,0.037926003,-0.32037264,-0.04485496
-9.772518,-1.787377,-1.5269932,0.008098328,-0.24478243,0.01420698
-10.612145,-1.6215545,-0.8805874,0.024609142999999997,-0.2570172,0.06159267
-11.987681,-0.017238252,0.7317638000000001,0.029932396,-0.28630382,0.084997535
-15.321981,1.9416401,3.7447227999999995,0.013439035,-0.23253022,0.089273594
-15.709323999999999,5.558398,3.2913663,-0.027541295,-0.16386896,0.085014984
-11.842632,2.9225063,1.9846592,-0.045099307000000005,-0.09466666,0.0935322
-11.809821000000001,1.2940277,1.8979602999999998,-0.016353736,-0.11063642,0.104178704
-11.754458,0.41517374,1.8568854,0.033649947,-0.16173966,0.10576695
-10.610757000000001,0.47295058,2.0567055,0.085817836,-0.20645499,0.10309660000000001
-10.394245,1.2998313,1.9710599999999998,0.11936307,-0.22987731,0.08234464
-10.501754,2.8827434,1.0637056,0.11723377,-0.23040092,0.05572836
-10.163234,3.3655677,0.3321045,0.07197738,-0.22188371,0.034958944
-9.312334,2.8357596000000003,0.075541854,-0.02380629,-0.13404128,0.01155408
-8.83423,2.2358205,0.111531496,-0.11857767,0.042655847999999996,-0.01293289
-8.498621,1.4610089,0.121079564,-0.22769566,0.17786649999999998,-0.035814155
-8.071964999999999,0.7570465999999999,-0.027676972,-0.30860913,0.27742007,-0.07094763
-7.489426600000001,0.44547474,-0.19774191,-0.34906584,0.38121483,-0.11725122
-6.833502,0.52966446,-0.20891805,-0.39432225,0.47809803,-0.16250761
-6.3731637,0.8323394000000001,-0.041793186,-0.4709771,0.53400093,-0.18860027
-6.3122077,1.2821716,0.043239284,-0.6035174,0.33969343,-0.18964748
-6.7857899999999995,1.6944148999999997,-0.041563342999999996,-0.76269144,0.15816173,-0.07307693
-7.245477,1.9297456999999998,-0.2729773,-0.7094589,0.11559316,-0.08159414
-7.596678,1.8975006,-0.6175125,-0.7770555,-0.028117253999999998,-0.10979866
-8.001833999999999,1.7450092000000001,-1.1531241,-0.89575535,0.025097834,0.0371057
-8.882114999999999,1.5621495,-1.4633456,-0.9037489,-0.04410447,0.14674728
-9.790676,1.6939936000000002,-1.6255766999999999,-0.6913598000000001,-0.11489502,0.17336355
-10.648900999999999,1.8121234,-1.8014452,-0.45659557,-0.04462807,0.10470230000000001
-11.188507000000001,1.9300331000000002,-2.1509987999999995,-0.4001691,-0.052604225,0.027523842000000003
-12.613363,1.9459400000000002,-1.5892041000000001,-0.44275513,-0.1542871,-0.035814155
-13.842068,1.6270133,0.21544942,-0.49385837,-0.24211207,-0.08745845
-15.898141,1.2168578,3.9008822,-0.4805415,-0.24052383,-0.12789772
-13.645570999999999,0.088547155,2.6220052000000003,-0.37355283,-0.20804325,-0.16357225
-11.464214,0.49237236,1.4781802,-0.19949113,-0.15748106,-0.17634806
-11.179696,1.4199628,1.9833471999999999,-0.031799898,-0.16919221,-0.16463691
-11.451064,2.4360332000000002,2.7461683999999997,0.08422959,-0.19048524,-0.14014994
-10.735783,1.7853849,3.5424895,0.14917329,-0.17186257,-0.10236356
-10.198207,0.7383909000000001,2.8090978,0.15608479,-0.13405874,-0.045937065
-9.976763,-0.46416867,1.3973231000000002,0.10871656,-0.07550294,0.015271631
-9.358235,-1.3560662,0.49905697,0.06133087,0.069272116,0.08073893
-8.177339,-1.724802,0.38881835,0.11510447,0.17893115,0.14196508
-7.420301400000001,-1.4464426000000001,0.8113661999999999,0.18057176,0.18160151,0.20743237
-6.9872,-0.9360371,1.1355698,0.24392721,0.26410323,0.22074924
-7.079654,-0.49987102,1.0982778,0.28757790000000005,0.34873423,0.15793484
-7.3970394,-0.39781097,0.76332897,0.38126716,0.40622538,0.07595673
-7.674834,-0.37460637,0.30681217,0.44034657,0.4440292,-0.009738937
-8.08453,-0.44841483,-0.15976986,0.5931327,0.49033279999999996,-0.06297148
-8.448792999999998,-0.40819222,-0.5621586,0.6538178000000001,0.20980603,-0.20776399999999998
-8.431008,-0.39563707,-0.72210085,0.5595875,0.027750734,-0.19231783
-8.069073,-0.23294625,-0.68403304,0.61601394,0.016039576,-0.12897983
-8.107868,0.1766059,-0.9082165000000001,0.48879692,0.14486232,-0.20083503
-8.883197000000001,0.25086445,-0.6927766,0.20080014,0.008045968,-0.17582446
-10.334562,-0.40877643,-0.63610107,-0.0014660766,-0.117024325,-0.109275065
-10.801478999999999,-1.324482,-0.8574019,-0.06799803,-0.088278756,-0.033161256
-10.296312,-1.4641979999999999,-0.8685877000000001,-0.013177236,-0.10159562,0.024312437000000003
-10.589898,-1.1925998,-0.40870938,0.11723377,-0.17186257,0.058904864
-10.600107000000001,0.54813814,0.81706446,0.25190338,-0.22722441,0.06263987
-13.475017999999999,1.8719400000000002,3.3231807,0.33068752,-0.20326105,0.061034165
-16.365595000000003,5.4428535,3.6697269999999995,0.344528,-0.15482816,0.06583382
-12.008167,4.366353500000001,2.6580138,0.3503923,-0.10798352,0.07860963
-12.012716000000001,1.5090653,2.4116218,0.36849135,-0.13086478,0.072221726
-12.351974,-0.26854324,1.9163765,0.37062067,-0.14257595,0.05412266
-11.24545,-0.38562927,2.1782734,0.35836846,-0.1362055,0.029094638
-10.940438,0.9551045,1.5868673,0.33122858,-0.1500285,-0.0017453292000000002
-10.563784,2.241557,1.0022415999999998,0.28916615,-0.12341223,-0.032096606
-9.732047,2.7641442000000005,0.54990983,0.21944025,-0.057403877,-0.051801372000000005
-8.750894,2.4613063,0.47782520000000006,0.14117968,0.042638395,-0.06777114
-8.227386,1.7147273,0.35975274,0.084753186,0.20181242,-0.10609856
-7.9298644,0.8508993,0.13997461,0.030455995,0.2875081,-0.16200146
-7.6264899999999995,0.24099077,-0.039312795,-0.024888393999999998,0.2960253,-0.19285887
-7.269208,0.107901886,-0.0989763,-0.14997615,0.26410323,-0.17955947
-6.977843300000001,0.52326715,-0.23641306,-0.31021482,0.20607102,-0.13219124
-6.7071934,1.3300651000000001,-0.2792884,-0.40709805,0.066060714,-0.033702306
-6.6486883,2.0211563000000003,-0.44446918,-0.41348594,0.045291292999999996,0.09936159
-6.709357300000001,2.4596400000000003,-0.63251936,-0.301174,-0.007906342,0.04612905
-7.081550599999999,2.4053109,-0.75142497,-0.48003536,0.051155599999999996,0.018989183
-7.7455397,2.0928101999999997,-0.70238215,-0.76588535,-0.02815216,0.09669124
-8.256874,1.4484538,-1.1859916000000001,-0.8058185,-0.15482816,0.18772762
-9.02479,0.72236896,-1.4068041999999998,-0.5699896,-0.23680627,0.24415411
-10.366615,0.87094355,-1.6221386,-0.28785715,-0.13247049,0.13662437
-11.123576,1.7520002000000001,-2.0374176999999998,-0.19470893,-0.0020594885999999997,0.028029988
-12.710328,2.4846356,-1.2854183000000001,-0.30330333,-0.13992305,-0.061924282000000004
-15.636569,2.7690474999999997,0.99973243,-0.477365,-0.27780405,-0.10876892
-17.283962,0.7307965999999999,3.296222,-0.5710543,-0.26129323,-0.10396926
-12.557234,0.2881661,1.3327947,-0.5433908000000001,-0.18837339,-0.07895869999999999
-10.620018,0.4693593,-0.0746991,-0.43319073,-0.12555899,-0.06033603
-10.809016,0.47874457,1.381665,-0.31766737,-0.12503539,-0.047560222
-11.617616,1.2519568,2.7200718,-0.23144811,-0.1399405,-0.026790803
-11.051674,1.7596807,3.7354622,-0.18619172,-0.1425934,0.0030019663
-10.059411,1.0779845,3.047244,-0.13828243,-0.11171853,0.03387684
-9.975729,-0.13430515,1.2228625,-0.0871792,-0.022287855,0.058887407
-9.629,-1.0782909999999999,0.095049806,-0.046722464000000005,0.11023499999999999,0.08498008
-8.598134,-1.2589958,0.09828676,0.040561453,0.25609216,0.12650147
-7.7894297,-0.60144264,0.49502516,0.12041026,0.33754668,0.16802284
-7.107848599999999,0.22010374,0.7289099,0.12625712,0.33965853,0.19250982
-6.793442,0.46638092,0.683037,0.11828096,0.31838295,0.15151203
-6.924462299999999,0.29218838,0.41732854,0.22314034,0.37159804,0.10999065
-7.4532356,-0.21252849999999998,0.037043087,0.44193482,0.43441245,0.057822755999999996
-8.00035,-0.68541205,-0.21039286,0.53030086,0.40355504,-0.03584906
-8.3478155,-1.0240958,-0.28600177,0.6585825,0.17144369,-0.12208578
-8.2933035,-1.1322753,-0.37589923,0.7671769,0.0021642083,-0.26155505
-8.057724,-1.0148636999999998,-0.5336963,0.873642,0.0016406095,-0.16095427
-7.7490063,-0.34432453,-0.8709819,0.93273884,-0.11758283,-0.14924310000000002
-8.203942,0.26735570000000003,-1.2317976000000002,0.87896526,-0.11918853,-0.18650588
-9.665133,-0.010869675,-1.132965,0.6782873,-0.26930429999999994,-0.19980529
-10.642944,-0.92746586,-0.6942227,0.492497,-0.29272664,-0.13646729999999999
-10.365791999999999,-1.3323733,-0.91585875,0.45204028,-0.2027549,-0.053948127
-10.688425,-1.2830719,-0.66001433,0.5542468,-0.16922712,0.015236723999999998
-11.772711,-1.2897469,-0.8111555,0.6878692,-0.24853489,0.041311942000000004
-12.472469,0.49354073,0.9411031999999999,0.7581361,-0.26982790000000006,0.048240899999999996
-14.580362,2.1408472,3.2348347,0.7134208000000001,-0.23842943,0.06314601
-14.975195000000001,4.1762156,2.4169753,0.6138672,-0.17987363,0.08550368
-12.510241,2.2122135,2.3325655,0.53668875,-0.14100514,0.10199704
-12.131477,0.95769024,2.177057,0.5143310999999999,-0.17613862,0.09402089
-11.441995,-0.06216305,1.7591733,0.517525,-0.21341886,0.08496263
-10.764847999999999,-0.16337074,1.9756378,0.48397979999999996,-0.24588199,0.07803367
-10.5869875,1.2103072,1.5898073999999998,0.38976693,-0.26132816,0.070598565
-10.465199,2.4726262,0.9974052999999999,0.28701940000000004,-0.23256512,0.054087754
-9.655222,2.7658296,0.48913540000000005,0.18746582,-0.17402677,0.032253683
