accx,accy,accz,gyrx,gyry,gyrz
-8.764866,0.39963058,-2.6006009999999997,-1.2908281000000001,-0.40139082,-0.23076743
-9.044394,0.49740016,-2.5736423,-1.0156245000000002,-0.6771528,-0.22546163
-9.249165,0.6531956999999999,-2.4009151,-0.89104295,0.06436774,-0.18764035
-9.122252,0.84248126,-2.6585502999999995,-0.8367631999999999,0.31881928,-0.19936895
-9.335528,1.0750253,-2.7373004,-0.97569144,-0.2731091,-0.12377875
-9.423549000000001,1.4666688,-3.0710902,-1.1167489,-0.5137202000000001,-0.09023352
-9.337502,1.6720433999999997,-3.680654,-1.1433651000000002,-0.547248,-0.058294000000000006
-9.185441,1.4944799,-4.421832,-1.0166718000000001,-0.5169142,-0.05403539
-10.399664999999999,0.95843726,-3.1277852000000004,-0.82876956,-0.3082426,-0.10194468
-14.033604,-0.2558827,0.33981383,-0.6254213000000001,-0.07508406,-0.18498744
-16.991169,-3.3659985,2.5131742999999998,-0.45720646,-0.08785988,-0.22863813
-16.136554999999998,-6.290171599999999,1.0125940999999998,-0.30654964,-0.14748032,-0.22811453
-10.694123,-2.3151164,-0.26711630000000003,-0.18624409,-0.124581605,-0.19137534
-10.516933,0.38910565,0.5764471,-0.09361946,-0.08040732,-0.15411258
-11.190392999999998,-0.027360937000000002,0.49290866,0.0032463125,-0.086795226,-0.12803735
-10.238180999999999,-1.4266857,0.79294044,0.07457792,-0.066566855,-0.11100294
-9.625276,-2.4645624,0.9176496,0.13365729999999998,-0.022375122,-0.096621424
-8.874051,-2.585058,1.0816428999999999,0.16453218,0.02125811,-0.07054621
-8.196176,-2.6766982000000006,1.0428663,0.1836959,0.07023205,-0.046582837
-8.451455000000001,-2.8999624,0.6543257,0.19327776,0.08513716,-0.011972958
-8.670179,-3.156056,0.15296075,0.19594811,0.084596105,0.027384216
-8.508217,-3.2259855,0.07634631,0.20605357,0.09098402,0.06997025
-8.421489999999999,-2.8961892000000002,-0.0024516624,0.22415264,0.11547098,0.109362334
-8.476747999999999,-2.2757845000000003,-0.097597234,0.23373449,0.17669713,0.13704325
-8.482092,-1.8060516,-0.17557159,0.22947589,0.2512227,0.17324138
-8.533787,-1.4887816,-0.36048058,0.23905775,0.25015804,0.21636847
-8.655164,-1.4482238,-0.60711205,0.2672797,0.21289526,0.28183576
-8.840399,-1.1897075000000001,-0.9148149,0.33541736,0.24802874,0.34784412
-8.962013,-1.0089261999999999,-1.2634393,0.46369907,0.27570966,0.39255947
-8.974530999999999,-0.98266655,-1.6097463,0.6207438,0.29113838,0.42504004
-8.747522,-0.9677075999999999,-1.9363058000000002,0.7740535,0.38004544,0.43781585
-8.491046,-1.0385855,-2.0801208,0.8576199000000001,0.5674239999999999,0.39735909999999997
-8.243725,-1.0404434999999999,-2.0556712,0.9103288,0.5956285,0.30419344
-8.133783,-1.0146148000000001,-1.8975484,0.915111,0.5088682,0.22115067
-8.207457000000002,-0.92092484,-1.8122861000000001,0.8661370999999999,0.39495057,0.17058848
-8.624039,-0.87102973,-1.562207,0.81238097,0.23099433,0.206263
-8.997104,-0.7316010000000001,-1.3781791,0.81290454,-0.116605446,0.21263346
-9.261394500000002,-0.74513304,-1.6553509999999998,0.76286596,-0.19165461,0.14397220000000002
-9.274113,-1.2278233,-2.0840664,0.70537484,-0.18687241,0.05400048599999999
-9.226573,-1.6679254000000001,-2.4536161,0.583481,-0.084665924,0.0023736479
-9.254471,-2.2692148999999997,-2.7235098,0.37906805,0.0010297442999999999,0.049741883
-10.628484,-2.915726,-2.3053002,0.20020671,0.011676253000000001,0.09978047
-12.853655,-2.5638068,-1.0959888999999998,0.06499606,-0.012269665,0.13332570000000002
-14.140969,-0.3539013,-0.06682695400000001,-0.036128316,-0.114476144,0.14343116
-14.574387,0.67452323,0.1001734,-0.089360856,-0.20975366,0.12959069
-13.699728,0.15751931,-0.8747934000000002,-0.13887584,-0.24062854,0.10723303
-11.688426,-1.2689556999999998,-0.13111606,-0.17453292,-0.2587276,0.09765117
-10.85148,-1.3630955,0.8164228,-0.17933258,-0.31569517,0.086481065
-10.4559965,-0.742011,0.23060949999999997,-0.16708037,-0.3061133,0.061994094000000007
-10.112505,-0.1354735,-0.81734216,-0.14365806,-0.2432989,0.038571775
-10.290768,0.1881651,-1.0565517,-0.12397074,-0.18633135,0.018867008
-10.053894999999999,1.0212228,-1.0696719,-0.10906562,-0.14800392,0.0045029493
-9.863498,1.5619293,-0.9051328000000002,-0.10533062,-0.12405799999999999,-0.008796459
-9.259977000000001,1.3281595,-0.8695166,-0.12397074,-0.08785988,-0.02316052
-8.601467,0.8263444,-0.8149958,-0.15271631,-0.101700336,-0.038589227999999996
-8.142996,0.41471404,-0.8198321,-0.19156733,-0.13363986,-0.05190609
-8.118775999999999,0.06892428,-0.7478241,-0.23521802,-0.13203415,-0.08916887
-8.052610000000001,-0.20168754,-0.7234129,-0.30761427,-0.030368729,-0.14027211
-7.943453999999999,-0.30648655,-0.7863708,-0.41088542,0.04096288,-0.16954128
-8.01414,-0.24550144,-0.92165273,-0.51363295,0.18521434,-0.18446384
-8.255264,-0.14960887,-1.2358198,-0.64139104,0.25441664,-0.23183209
-8.370071000000001,0.040682275,-1.7853849,-0.8122588000000001,0.21661282,-0.309028
-8.449464,0.24380635,-2.2329857000000004,-0.9362993000000001,0.0782082,-0.36864844
-8.494991,0.26955837,-2.7871861,-0.9480105,-0.017051866000000002,-0.36013123
-8.599551,0.15499105,-2.7642496,-0.7228281,-0.33538246,-0.33829716
-9.006671,-0.028711267000000002,-2.1406846,-0.531732,-0.35402259999999997,-0.21266837
-9.079914,-0.03892014,-2.0089938999999997,-0.45985934,0.0760789,-0.17488199999999998
-9.104604,0.077342294,-2.1114848,-0.53066736,-0.24116959999999998,-0.055623643
-9.329266,0.2922554,-2.6709044,-0.70207614,-0.44238859999999997,0.008761553
-9.323395,0.4711502,-3.3317902000000004,-0.7638259,-0.45835838,-0.0039968040000000005
-9.198829,0.7353934,-3.9788473,-0.6850417,-0.48391000000000006,-0.05242969
-9.767787,1.0799477,-3.4245703,-0.53864354,-0.26459190000000005,-0.1184555
-12.258285,0.74655044,-0.92446834,-0.40982077,-0.084665924,-0.20575686
-15.199388500000001,-1.352657,0.62549,-0.35020033,-0.07614872,-0.23024383
-17.011599,-4.2419987,1.3128173,-0.30548498,-0.064420104,-0.20734511
-14.107920000000002,-3.1118877,-0.25589228,-0.27354544,-0.047926743,-0.15891223
-10.810492,0.024823084,1.1869878,-0.24373522,-0.04420919,-0.12803735
-11.203609,0.48281473,1.6601682,-0.2027549,-0.07614872,-0.11313224
-10.721044000000001,-0.9836243,1.2224123,-0.15430456,-0.053773593,-0.11365584
-10.171469,-1.7731265999999999,1.0955675,-0.10000736,0.0031590459999999996,-0.10939724
-9.239253,-1.7932284,1.1451850000000001,-0.06647959,0.053738687,-0.08330456
-8.475196,-1.8343703999999998,1.1887499,-0.053162728,0.0755553,-0.053511795
-8.533596000000001,-2.1924278999999998,0.4555304,-0.047315877,0.08407251,-0.024748769
-8.590157000000001,-2.3378612999999997,-0.09702263,-0.02867576,0.09791297,0.0045029493
-8.340527999999999,-2.231032,-0.13444879999999998,0.0011170107000000001,0.100042276,0.04230678
-8.302316000000001,-1.681036,-0.13701539,0.036250487000000005,0.13465215,0.083828166
-8.217791,-1.269626,-0.21606234,0.05274385,0.22780037,0.111509085
-8.153061,-1.0077578,-0.14046302,0.08361872,0.22406536,0.135455
-8.07456,-1.0692504999999999,-0.17774554,0.12993976,0.17669713,0.16526523
-8.19656,-1.350684,-0.33424973,0.17571975,0.14953981,0.18336429
-8.467564,-1.2347186,-0.6660189999999999,0.25663322,0.16924457,0.19401079999999998
-8.730572,-1.1053549999999999,-1.0451361,0.39823177,0.17615607,0.20891590000000002
-8.8511715,-0.9829346999999999,-1.3378607,0.54674184,0.22727677,0.23926719
-8.728933,-0.9703891,-1.728968,0.63245493,0.40826740000000006,0.22223277
-8.431182000000002,-0.9819100000000001,-2.0054984,0.7873529,0.35342917,0.16739453
-8.139941,-1.0948973,-2.0872269,0.8901005,0.28529152,0.08806931
-8.11576,-1.2772397,-2.0124605,0.9225636,0.22141246,0.10084512
-8.519019,-1.2854371999999998,-1.6584443,0.95291483,-0.08731882,0.18175858
-9.036472999999999,-1.2882912,-1.3185252,0.9672789,-0.2374346,0.19240509
-9.359796000000001,-1.1878114,-1.2950333,1.010406,-0.20975366,0.15515977
-9.447003,-1.3478398,-1.6415796000000002,1.0300933,-0.14587462,0.056129787
-9.342547999999999,-1.6257586000000002,-2.2024357000000006,0.96888465,-0.14641567,-0.007731808299999999
-9.382052,-2.078579,-2.413135,0.8294154,-0.034627332999999996,0.02953097
-10.776492999999999,-3.0667713,-1.5914451,0.6686531,-0.021851522999999998,0.07209955
-13.400079000000002,-2.3884366000000004,0.37525759999999997,0.53503066,-0.085730575,0.10990338
-14.978557,-0.98395944,1.4101561000000002,0.45998153,-0.16557938,0.12374385
-15.614226,0.5383602,0.09109459,0.4131369000000001,-0.18900171,0.118420586
-13.428932999999999,-0.765455,-0.582222,0.37268016,-0.15119787,0.10618583
-11.1330385,-1.6133853999999999,0.6009733,0.33648202,-0.14215706,0.086481065
-10.260744,-1.6969813999999999,1.8270918999999999,0.31251866,-0.19219565,0.070511304
-9.665009,-1.0170665,1.0725545,0.2917667,-0.21453588,0.060405847
-9.556188,-0.27431804,0.24909274,0.2709973,-0.21881193,0.04654793
-10.097316000000001,0.17918205,-0.09127654,0.23054054,-0.16823229,0.028989919
-10.171632,1.0139156999999999,-0.41874588,0.18423696,-0.12777555,0.008237954
-9.94944,1.309025,-0.20116083,0.13100441,-0.106482536,-0.0066671576
-9.284494,1.0708402,0.012526464,0.07670722,-0.06709046,-0.020490166
-8.705777000000001,0.642824,0.03628652,0.025062927999999998,0.015934857,-0.040735986
-8.452499000000001,0.3949571,-0.07413407,-0.047315877,0.10323623,-0.06148795
-8.459854,0.17282306,-0.23504357,-0.12077679,0.13357005,-0.07374016
-8.365312,-0.021394586,-0.31303707,-0.22137757,0.14262831,-0.09927433
-8.287213000000001,-0.039580945,-0.3439893,-0.3832045,0.22195353,-0.1338842
-8.307564,0.19610427,-0.3478679,-0.5748416000000001,0.30710813,-0.1860521
-8.454357,0.32837912,-0.7370885,-0.7372095999999999,0.38589229999999997,-0.22863813
-8.443535,0.39265865,-1.2613325,-0.86390305,0.37365752,-0.2616423
-8.422054,0.57741445,-1.6382756,-0.94534016,0.24216443,-0.27282986
-8.32822,0.61103857,-1.927658,-0.9203296000000001,-0.03621558,-0.20043361
-8.130556,0.55283076,-2.3673675,-0.78138393,-0.121387646,-0.18924604
-8.170079,0.5637770000000001,-2.4661807999999996,-0.637115,0.12613495,-0.11524409
-8.714751,0.6510313,-1.9672486,-0.41940263,0.063844144,-0.067875855
-8.833523,0.6459077,-2.114875,-0.44975388,-0.35774013,0.019408062
-9.137433,0.73255867,-2.2608926,-0.54237854,-0.47378707,0.009826204
-9.376863,0.7091338,-2.7512825,-0.60252255,-0.56269413,-0.0071907565
-9.665697999999999,1.051744,-3.0133327999999997,-0.5365141999999999,-0.5057265999999999,-0.03806563
-10.050562,1.4404188,-3.0047326,-0.41940263,-0.33644712,-0.096621424
-12.008061,1.0062543,-1.2470535,-0.29483846,-0.09955358,-0.17540559
-15.3401,-1.0385377,0.83898574,-0.196367,-0.07347836,-0.21692698
-15.970198000000002,-4.2444120000000005,0.20894678,-0.122365035,-0.17781414,-0.19935150000000001
-14.036514000000002,-3.8871013999999997,-1.8692490000000002,-0.06806784,-0.20710076,-0.16156512
-12.31156,-0.11233594,1.1308388999999999,-0.015899949,-0.19113101,-0.1296256
-12.136965,-0.14691779,1.9045492,0.03783874,-0.19964822,-0.1317549
-10.909514999999999,-1.581332,1.4126268999999998,0.1123643,-0.20017181,-0.13868386
-10.326680999999999,-2.5103972000000003,1.5231143999999999,0.17411405,-0.15439183,-0.13229595
-9.372792,-2.4679813,1.4636042,0.21670008,-0.100635685,-0.099815376
-8.504567999999999,-2.0122979,1.3742143999999998,0.24225170000000001,-0.041538835,-0.06841691
-8.735149,-1.9752164,0.9610421,0.26460937,0.0058293995,-0.030613074
-8.984146,-2.1450419999999997,0.247254,0.27153832,0.038816124,-0.0018675023000000002
-8.801401,-2.3104142999999997,0.16226941,0.29708993,0.0782082,0.02846632
-8.417773,-2.3073878,0.3292889,0.32477087,0.08833111,0.071575955
-8.158951,-2.059023,0.27796683,0.33913493,0.14847516,0.12746139
-8.020719999999999,-1.721795,0.16610971,0.2944196,0.2943498,0.15622441
-7.9499083,-1.4713423,0.11891521,0.26621506,0.38482764,0.20413370000000003
-8.080478999999999,-1.4234103999999999,0.028864495,0.26834437,0.36142278,0.25043730000000003
-8.334072,-1.2998121,-0.19087534,0.28431413,0.30977848,0.27492425
-8.573981,-1.175984,-0.5419036,0.31731832,0.33478907,0.28131217
-8.740416,-1.1353688,-0.93600833,0.40407863,0.39282125,0.3009995
-8.745521,-1.2202959,-1.3055965,0.5169315999999999,0.49024552,0.32389819999999997
-8.715766,-1.2351112,-1.5516246999999999,0.58719856,0.5402840999999999,0.3132517
-8.590157000000001,-0.9483815999999999,-1.7332296000000003,0.6729116999999999,0.44551274,0.24563764
-8.194557000000001,-0.79652214,-2.021051,0.6761056,0.49874529999999995,0.1285435
-8.01415,-1.1350622,-2.2227384999999997,0.6521423000000001,0.45350635,0.12109094
-8.328681,-0.9820824,-1.8949243999999998,0.72240925,0.15008086,0.12587315
-8.901853,-0.6574286,-1.5303642,0.7719242,-0.04579744,0.110426985
-9.193792,-0.6462045999999999,-1.538581,0.78309435,-0.09316567,0.058276545
-9.342423,-1.097732,-2.0121253,0.72879714,-0.024504422999999997,0.024207717000000004
-9.441400999999999,-1.6652438999999999,-2.5748777,0.59625685,-0.059096847,0.04337143
-9.99424,-2.3140726000000003,-2.4398258,0.40622538,0.022863812999999997,0.07476991
-11.37172,-2.7274363,-1.5442601,0.25183356,-0.015987216000000002,0.08806931
-13.216070000000002,-1.7722073,0.29916987,0.14430383,-0.18207274,0.10084512
-13.761239000000002,-0.4734486,0.79202104,0.030386182,-0.21081832,0.10564478
-14.391804999999998,0.106005676,0.24322216,-0.09361946,-0.14587462,0.10564478
-13.466417000000002,-1.1551065,0.96750647,-0.2027549,-0.12990485,0.1248085
-12.266846000000001,-1.6721583999999998,1.4857936999999999,-0.24267058,-0.19378391,0.135455
-11.547676,-1.5896828,1.3593607,-0.23734732,-0.23052308,0.1311964
-10.903836,-1.0540329,0.2937877,-0.21978931,-0.19538961,0.11787954
-10.387943,-0.39426756,-0.34804029999999997,-0.22617722,-0.12245230000000001,0.09925687
-10.108855,0.5327195,-0.6217646,-0.25864035,-0.08412487,0.08702212
-10.100581,1.2301408999999999,-0.4685357,-0.31241393,-0.037803832,0.08115781
-9.252996000000001,1.6360729999999999,-0.21762335,-0.36137040000000004,-0.011728613,0.06892305
-8.321805,1.5449017,-0.18131769,-0.3911981,-0.013316861999999999,0.05508259
-7.94625,0.9891309000000001,-0.3204208,-0.42366123,0.02019346,0.034313172
-7.978141,0.56598926,-0.3628652,-0.45985934,-0.0016057029000000002,-0.0055850535
-8.015261,0.041429266,-0.19899647,-0.5040511,-0.04738569,-0.055623643
-7.894698,-0.31310412,-0.1510071,-0.59081143,0.0047472958,-0.10726794
-7.9099064,-0.30689836,-0.30770278,-0.72069883,0.11122983,-0.16847663
-8.136264,-0.058552597000000005,-0.75251675,-0.8266403,0.22034782,-0.20415117
-8.350372,0.27595568,-1.2951865,-0.91978854,0.25228733,-0.24141394
-8.433269000000001,0.40485948,-1.763253,-1.0172127,0.21502456,-0.29358184
-8.511847,0.23414336,-2.3675592,-1.0986499,0.038833577,-0.32072172
-8.429142,-0.0692882,-2.5958223,-1.0294476000000001,-0.025028022,-0.26855382
-8.554646,-0.37571728,-2.5663831000000004,-0.82025236,-0.30079004,-0.21160372
-9.337588,-0.391203,-1.8759624,-0.6536258,-0.13948672,-0.10459758
-9.387962,-0.13966815,-1.9990723000000001,-0.5125683,0.17137387,-0.05030039
-9.364718,0.1326292,-2.0726414,-0.53332025,-0.45888197,0.007173303000000001
-9.296944,0.09985736,-2.7600167,-0.6509729000000001,-0.67820007,0.031660274
-9.29838,0.14210066,-3.3195989999999997,-0.6829124,-0.5701467,0.007696901999999999
-9.312439999999999,0.469005,-3.6746879,-0.59239966,-0.47272244,-0.05084144
-9.981044,0.70920086,-2.906494,-0.42472586,-0.2549926,-0.13547246
-12.195077000000001,0.15580507,-0.82282966,-0.27302185,-0.14960963,-0.20415117
-14.668853,-1.2187827,0.5318001,-0.18252653,-0.17941985,-0.21427408
-16.830192999999998,-3.8878675000000005,1.6031958,-0.11545353,-0.1804845,-0.18126989999999998
-14.054031,-3.6468097999999998,-0.41915768,-0.08564331,-0.11819369,-0.1344078
-11.0888405,-0.33175015,1.3527813999999998,-0.060615286,-0.08040732,-0.108856186
-11.564435000000001,0.2249592,1.9939486000000002,-0.028134707000000002,-0.07880162,-0.11417944
-10.978602,-1.2177388999999998,1.8281358,-0.007923795,-0.054855697,-0.10459758
-10.184455,-2.1103642000000002,1.4680191,-0.005253441,-0.006405358000000001,-0.07904596
-9.485511,-2.1027892,1.3080481000000002,0.010157816,0.010611602,-0.041783184
-9.055465,-2.1770763,1.2135059,0.02560398,0.004223697,0.00076794485
-8.947878999999999,-2.3227873,0.47372633,0.03944444,0.03562217,0.041765727
-8.7584305,-2.3416922000000002,0.007642291999999999,0.071907565,0.08407251,0.08541641400000001
-8.394549000000001,-2.1614182,0.021452047000000002,0.10545279,0.12027064,0.12800245
-8.207371,-1.6698886000000002,-0.044761993,0.12993976,0.22088887,0.15887733
-8.147353,-1.1252556,-0.09900503,0.1288751,0.36568138,0.16687092
-8.058222,-0.7176188,-0.17504488,0.15762068,0.45191809999999993,0.18071139
-8.032346,-0.74194396,-0.31603464,0.20392427,0.42263147,0.2046573
-8.289512,-0.89121765,-0.46076888,0.23054054,0.36246997,0.22862068
-8.624029,-0.85389686,-0.67687917,0.27740264,0.35503490000000004,0.22542672
-8.661082,-0.77439976,-0.9115396000000001,0.37320375,0.24909338,0.19455186
-8.548421000000001,-0.8351933000000001,-1.2251418,0.40090212,0.3438473,0.1248085
-8.503401,-0.94964576,-1.5733736,0.5600586999999999,0.50193924,0.07689921
-8.164046,-0.95070875,-1.9484205,0.7128274,0.606275,0.10831513
-7.756342,-1.3056923,-2.0982783,0.7468961999999999,0.45830600000000005,0.1375843
-7.681145,-1.3858693000000002,-1.9760784,0.7149566999999999,0.17402677,0.16900024
-8.1453905,-1.1484411,-1.6277986,0.6665238,-0.21081832,0.19029325
-8.913977000000001,-0.88472456,-1.4270208999999998,0.70059264,-0.33164746,0.15887733
-9.359529,-1.0166355,-1.5174162,0.68036425,-0.3258006,0.10831513
-9.637812,-1.4915015,-1.7400962,0.61754984,-0.27097982,0.081698865
-10.415878999999999,-2.3389149,-0.85714334,0.5137377000000001,-0.25553367,0.06892305
-11.874475,-2.52889,0.26363033,0.40833724,-0.20975366,0.082763515
-13.337073,-0.6982354000000001,-0.006952761700000001,0.33276448,-0.17301449,0.09927433
-14.106694000000001,-0.81804127,-1.410405,0.31412435,-0.24649285,0.11309733
-15.196028,-1.2867111,-0.7791594000000001,0.30721286,-0.25286329999999996,0.117355935
-14.913951,-0.7896939000000001,-0.11422257,0.29921925,-0.22359413,0.11096803
-12.997834,-0.43423158,0.9988322000000001,0.29283133,-0.23211133,0.10777408
-11.258331,-0.031028853999999998,1.8062813999999998,0.29496065,-0.24808110000000003,0.10458013
-9.884193,0.022907722999999998,1.1287321000000001,0.32051226,-0.28853783,0.09073967
-9.065022,0.17279433,0.33996707,0.34766957,-0.28853783,0.072117
-9.017522,0.40255147,-0.02006341,0.360969,-0.2608569,0.04283038
-9.131131,0.626869,-0.058763288,0.3524518,-0.23636994,0.01569051
-9.208454,0.8964466,-0.017017987,0.33861133,-0.20762436,-0.009320058
-8.878513,0.8629469000000001,0.1974929,0.3018896,-0.13575171,-0.029007372000000003
-8.339014,0.66426647,0.11428004,0.24013986,-0.054314647,-0.048171088
-8.184531,0.49434520000000004,0.0032848446,0.17092009,0.016458455,-0.07213446
-8.280519,0.28183585,-0.17031394,0.10651744,0.08300786,-0.09608038
-8.389656,0.18876843,-0.25271279999999996,0.037315138,0.14742796,-0.13707817
-8.426737,0.23927651,-0.25597847,-0.0840376,0.20596631,-0.19296359999999999
-8.564395,0.24881501,-0.28587726,-0.25918138,0.26612779999999997,-0.25684264
-8.744286,0.3019663,-0.6175604,-0.43750167,0.34597662,-0.30209905
-8.737026,0.30500212,-1.0738665,-0.62488025,0.41678459999999995,-0.32391566
-8.548871,0.47330493,-1.3475908,-0.7622201999999999,0.412526,-0.33775613
-8.462038,0.7087220000000001,-1.6168618000000001,-0.84048074,0.30551988,-0.33723253
-8.390556,0.7840244000000001,-1.8706664000000002,-0.90807736,0.15433946,-0.28878218
-8.188333,0.77553934,-2.043298,-0.8042826,-0.040997785,-0.2451315
-8.187318,0.73513484,-1.8465998,-0.6360678000000001,0.02391101,-0.19989257
-8.218949,0.51118124,-1.9476448,-0.5003161,0.22088887,-0.10300933599999999
-8.505899000000001,0.49047616,-2.0901476999999997,-0.45773005,-0.11658800000000001,-0.042847835
-8.980889,0.63108283,-2.2918353,-0.5663244000000001,-0.37742746,-0.048712137999999995
-9.338966000000001,0.9853481,-2.759394,-0.6509729000000001,-0.49508008,-0.058817595
-9.447922,1.8097580000000002,-3.4171004000000003,-0.63605034,-0.55257124,-0.034330625
-9.891212,2.3490567,-3.0891425999999997,-0.53012633,-0.49188614,-0.05190609
-11.875182,1.6211044,-1.2338566999999998,-0.39969784,-0.29544935,-0.09501573
-14.576799,-0.53987336,-0.23129904,-0.27567476,-0.07986627,-0.15090117
-15.635402,-3.3188998999999995,0.18873014,-0.17772688,-0.09477138,-0.16954128
-14.852554000000001,-4.0033064,-0.47891697,-0.07552039599999999,-0.12084660000000001,-0.14557791
-13.306954000000001,-0.7060118000000001,0.62627524,0.023474678,-0.12245230000000001,-0.10620329
-12.867522,0.5083465,1.8854529999999998,0.11503465,-0.105417885,-0.098750725
-11.455575,-0.5825189000000001,1.7813052,0.1943424,-0.10754719,-0.11472049
-10.635618,-1.9015994999999999,1.6928539,0.27473226,-0.09157742599999999,-0.116849795
-9.985334,-2.253729,1.7670166,0.3237062,-0.040997785,-0.09555677
-8.81317,-2.0962768,1.455349,0.35990435,0.002635447,-0.068940505
-8.425589,-2.0506244,1.3303813,0.38067377,0.04787438,-0.033807027999999996
-8.710249000000001,-2.193759,0.8412363000000002,0.39184386,0.0755553,0.003979351
-8.765335,-2.221197,0.36147657,0.39875537,0.087807514,0.047088984
-8.513714,-2.3037104999999998,0.34113544,0.41261327,0.09313077,0.09021607
-8.264180999999999,-2.311075,0.42375454,0.44188246,0.089936815,0.1397136
-8.185785000000001,-1.9791429,0.33649070000000003,0.43975314,0.21183062,0.17271778
-8.089031,-1.621679,0.19665973,0.40729004,0.34597662,0.1870993
-8.113385000000001,-1.301239,0.11421300000000001,0.39236748,0.42582542,0.21636847
-8.346829,-0.9816706000000001,-0.135598,0.3694862,0.43273693,0.23872614
-8.54006,-0.8757511,-0.50762826,0.33328807,0.42582542,0.23766148
-8.695463,-0.9040504999999999,-0.9440815999999999,0.38597956,0.44338346,0.23979078
-8.841251,-0.89840025,-1.3270295,0.50628513,0.4205022,0.26907742
-8.729844,-0.8936502000000001,-1.6510415,0.5818753000000001,0.5503895999999999,0.29462904
-8.582246000000001,-0.80899113,-1.878098,0.7181506,0.63769096,0.27227136
-8.131485000000001,-0.64598435,-2.0199401000000003,0.7080451999999999,0.6286501,0.10831513
-7.708717,-0.9628713,-2.1747205000000003,0.6660001999999999,0.48705158,-0.032201323999999996
-7.8279190000000005,-1.2342206,-1.98645,0.6707824,-0.048991393,0.09447467
-8.506445,-0.8142872,-1.5213332,0.6840818000000001,-0.12777555,0.1248085
-9.022999,-0.5245025999999999,-1.6556766,0.7027219,-0.11020009,0.07637561
-9.2329035,-0.73785466,-1.9038501,0.7202974,-0.1900489,-0.023143066
-9.312822,-0.96628064,-2.3130479999999998,0.62660813,-0.19910716,-0.0657291
-9.330961,-1.1471387,-2.5501504,0.44827035,-0.13255775,-0.017296214
-10.386382000000001,-1.9476925999999999,-2.037408,0.27207938,-0.03567453,0.03005457
-12.367613,-2.2118115,-0.83397704,0.15707964,-0.15013322,0.06892305
-15.190999,-1.6922888999999999,1.0737324,0.08787732599999999,-0.27097982,0.08061676
-16.721726999999998,0.7442903000000001,0.84038395,0.018692477,-0.26670375,0.07531096
-14.731026000000002,-0.017851168,-0.21492270000000002,-0.05635668,-0.22624703,0.07476991
-11.773372,-0.86524534,1.1507011999999999,-0.09574876,-0.18207274,0.09712757
-10.716896,-1.059664,1.5696291,-0.087231554,-0.21560052,0.10299188
-10.377073,-0.62960804,0.8416193999999999,-0.047315877,-0.28427923,0.09128072
-9.803202,-0.25108472,0.09944557,-0.019634955,-0.28054422,0.060405847
-9.910166,0.2506729,-0.06290047,-0.031346112,-0.22465879,0.035377822999999996
-10.246302,1.0674788,-0.2755247,-0.069673546,-0.1857903,0.009302605
-10.007964,1.6527462,-0.19961895,-0.1335526,-0.14055136,-0.021554817
-9.088179,1.6291202,-0.092808835,-0.2075371,-0.07347836,-0.045518185999999995
-8.398103,1.1879646000000001,-0.06976703599999999,-0.25544637,-0.018116517,-0.07319911
-8.239903,0.5621586,-0.19093279999999999,-0.28897417,0.07983136,-0.09234537
-8.212438,0.14291468,-0.2297859,-0.32145473,0.20491910000000002,-0.125367
-8.323835,-0.18971653,-0.20632273,-0.38107517,0.29806733,-0.1817935
-8.352153999999999,-0.35995385,-0.068158135,-0.482217,0.33745942,-0.23715533
-8.411252000000001,-0.1320546,-0.19416976,-0.59507,0.38803905,-0.25897196
-8.527774,0.14716679,-0.6041337,-0.7366686,0.42901940000000005,-0.27122417
-8.499464,0.37690482,-1.1011126,-0.88252574,0.4652175,-0.28187066
-8.527294,0.52954954,-1.6216024,-0.9879261999999999,0.34012976,-0.28771752
-8.402097,0.64826363,-2.0137055,-1.0528699,0.27092746,-0.26855382
-8.323116,0.6097649,-1.9402802,-0.9533163,0.09632472,-0.17699383
-8.31851,0.4522647,-1.8694214,-0.7121816,-0.21507692,-0.09555677
-8.249107,0.027600357000000002,-2.1638987000000003,-0.52958524,-0.29599038,-0.07213446
-8.502365,-0.23781127,-2.3676164,-0.28419197,0.27305678,0.061470497
-9.076427,-0.11243171,-2.2739458,-0.19582593,0.0755553,0.059341196
-9.531786,0.44971728,-2.3613150000000003,-0.31559044,-0.35613444,0.07902851
-9.685906,1.1990258,-2.828328,-0.48380527,-0.46633452,0.06731735
-9.59641,1.9220939,-3.417675,-0.52693236,-0.47804567,-0.00026179937
-10.40295,2.1539772,-2.422434,-0.41514403,-0.36625734,-0.074787356
-11.629308,0.49447927,-1.9781852,-0.24212952,-0.16982053,-0.16315338
-13.923335999999999,-1.2664274,0.34250492,-0.097337015,-0.029286625,-0.23287928
-15.630929,-4.0480494,0.8936693000000001,0.0027227136,-0.07347836,-0.24087289
-14.467232000000001,-5.988435,-0.76023567,0.059131755999999994,-0.14055136,-0.20840977
-11.352145,-1.6598808999999997,0.13218866,0.096935585,-0.16236798,-0.15837118
-11.691317999999999,0.12964123,1.3415382,0.13739231,-0.16130333,-0.120567344
-11.396524000000001,-0.6622935999999999,1.1383471,0.19753636,-0.17994344,-0.11417944
-10.4640875,-2.074748,1.1405212,0.24705136,-0.14055136,-0.112573735
-9.754408,-2.4856794,1.2911643,0.2880317,-0.08890707,-0.11152654
-8.874798,-2.3703842,1.1828027,0.33808774,-0.052708942,-0.07691666
-8.632371000000001,-2.1796238,1.0500011,0.37747982,-0.015987216000000002,-0.033807027999999996
-9.035871,-2.3998425,0.24151748,0.41633084,0.018064158,0.0050440015999999996
-9.162256,-2.4997667999999997,-0.18904617,0.44135886,0.07023205,0.030595621
-8.874578,-2.3598306,-0.26273009999999997,0.45518187,0.112818085,0.0641234
-8.635214999999999,-2.1947360000000002,-0.3675387,0.46424013,0.13624041,0.10564478
-8.428903,-1.790202,-0.4691582,0.45678756,0.17989108,0.14716616
-8.219945,-1.5101858,-0.3826892,0.4535936,0.19533725,0.1892286
-8.165913,-1.2262048,-0.45550165,0.4344299,0.15060446,0.22327997
-8.292835,-1.1914601,-0.59916335,0.44027674,0.1388933,0.265866
-8.547903,-1.3266463,-0.7499597,0.4871214,0.19586085,0.29515263
-8.694218,-1.3119843,-1.0640311000000002,0.59571576,0.22354177,0.31803390000000004
-8.6544075,-1.2850639,-1.3876601,0.7319911,0.24483478,0.34732053
-8.506886,-1.1843350000000001,-1.7621995,0.80759877,0.35342917,0.3622431
-8.453217500000001,-0.8934395,-2.0615802,0.7735125,0.44764206,0.32337459999999996
-8.3260565,-0.8317360999999999,-2.0927045,0.784159,0.47958156,0.23712043
-8.381774,-0.85606116,-1.9521650000000002,0.82302743,0.38217473,0.14025466
-8.656628999999999,-0.7681078,-1.7325496999999999,0.7873529,0.32414255,0.09286897
-8.919608,-0.8441572,-1.4331212,0.71230376,0.088854715,0.08328711
-9.023861,-0.7859111,-1.3263111,0.6910108,-0.19432496,0.09073967
-9.095792999999999,-0.77117234,-1.7484185,0.69526935,-0.36999235,0.03324852
-9.029836999999999,-0.9441869,-2.1531055,0.6542716,-0.28640854,-0.02528982
-8.977126,-1.3613143,-2.473651,0.5414186,-0.10967649,-0.056164697
-9.502376,-2.2247689,-2.5279803,0.39610246,-0.06283186,-0.0077143554
-11.777892,-2.8989377,-1.2132186000000003,0.24225170000000001,-0.021851522999999998,0.05773549
-14.010131,-1.2726235000000001,0.12777376,0.13100441,-0.07241371,0.09126326400000001
-13.877329000000001,0.9008615,-0.22765027,0.044767695999999996,-0.17835520000000002,0.10777408
-13.515460000000001,0.15568057,-0.9852426999999999,-0.024958208,-0.21827087,0.10990338
-13.738407999999998,-1.2275169,-0.47299847,-0.09361946,-0.19591321,0.097668625
-12.590100999999999,-1.867621,0.8157428000000001,-0.1441991,-0.1852667,0.10192723
-11.400882000000001,-1.0741346,1.6887742,-0.17188002,-0.25659829999999995,0.103515476
-10.1198015,-0.3994486,1.0101902,-0.18305013,-0.29918435,0.08913396
-9.543028999999999,-0.15901329999999997,0.0025474306,-0.18517943,-0.29599038,0.0731642
-9.90488,-0.01277546,-0.30777943,-0.1968906,-0.2454282,0.06305875
-9.924665,0.6049859999999999,-0.4857548,-0.22031291,-0.18633135,0.052412238
-9.968517,1.0808958999999998,-0.32015264,-0.24373522,-0.121387646,0.03218387
-9.4172,1.0689918999999999,-0.32809183,-0.25438175,-0.07508406,0.0018325957
-8.592789999999999,0.8563101999999999,-0.27466282,-0.25811675,-0.038344882000000004,-0.019442968
-8.221573,0.5474007,-0.21397460000000001,-0.29644418,0.020717058,-0.033807027999999996
-8.297585,0.20805612,-0.30363265,-0.33848915,0.0031590459999999996,-0.05883505
-8.243322000000001,-0.16953821,-0.40059784,-0.43165484,-0.03195698,-0.10513864
-8.030391999999999,-0.36421555,-0.519015,-0.54822534,0.057979837,-0.14720106
-7.987421,-0.17119499,-0.6378728,-0.6706602,0.21874212,-0.1839228
-8.134587,-0.05029739,-0.95456827,-0.7542439999999999,0.34065336,-0.19298105
-8.17482,0.08284895,-1.3877176000000002,-0.8127998000000001,0.38748056,-0.19404571
-8.187068,0.111646414,-1.8638668,-0.870291,0.39547417,-0.19723965
-8.223508,-0.043976694000000004,-2.193491,-0.9171355999999999,0.25281096,-0.20415117
-8.257946,-0.046083596,-2.3636231,-0.89477795,-0.03090978,-0.18285814
-8.441074,-0.2097991,-2.2062185000000003,-0.8330281999999999,-0.1762259,-0.14559537
-9.33596,-0.11023863,-1.3858405,-0.68930036,-0.34869933,-0.08438667
-9.382694,0.1143758,-1.617877,-0.5780356,0.12133529,-0.07745771
-9.339034,0.31299877,-1.7222354,-0.58709383,0.06330309,-0.029024825
-9.378366,0.11880028,-2.5031857000000004,-0.6914296,-0.22200587,0.011414453
-9.509405000000001,0.34656549,-3.3047836000000004,-0.78831285,-0.32155946,-0.0024085543
-9.534880000000001,1.0103053,-3.8595297,-0.753703,-0.38542107,-0.006126106
-10.011871000000001,1.3133919,-3.6710296000000002,-0.6275506,-0.35456362,-0.04392994
-12.358927,0.5192928,-1.4817618000000001,-0.48115236,-0.07562511400000001,-0.11100294
-13.683226999999999,-1.3855723999999998,-0.43003693,-0.351806,-0.011746066000000001,-0.17062339
-15.366217,-3.7811148,0.8862856,-0.23256512,-0.08360127,-0.19352211
-14.4220295,-4.281569999999999,0.28830975,-0.12397074,-0.09798279,-0.1833992
-10.674529,-1.1476846,0.6283439000000001,-0.059550636,-0.06923721,-0.15837118
-11.334467,0.26727912,1.8488313000000003,0.009093165,-0.099571034,-0.13922492
-11.133986,0.110066235,1.633152,0.085748024,-0.12299335,-0.13442525
-10.70415,-1.3254397,1.2364902,0.14643313,-0.08360127,-0.13229595
-10.265723,-2.038634,1.3602226999999998,0.19380136,-0.046879545,-0.11313224
-9.2190075,-2.265796,1.2367774999999999,0.22947589,-0.030368729,-0.08864527
-9.05536,-2.583382,0.97588617,0.26460937,-0.03090978,-0.059376102
-9.305994,-2.6097562,0.36434004,0.2928139,-0.027715827999999998,-0.024766222
-9.025383999999999,-2.502621,0.27824453,0.32529446,-0.003228859,0.015655603
-8.60275,-2.3287826000000003,0.26011565,0.35669294,0.02549926,0.05932374
-8.472582000000001,-1.9834142,0.16638744,0.34817573,0.1958434,0.09765117
-8.400066,-1.506786,0.13983096,0.32529446,0.3257308,0.13917255
-8.19858,-1.12493,0.08079952,0.33007666,0.37044615,0.20357521
-8.1045065,-1.1209173000000001,-0.16859010000000002,0.34126422,0.29112092,0.24829054
-8.180738,-1.2548012,-0.45381615,0.38172096,0.27089256,0.26745427
-8.366011,-1.190627,-0.7043550000000001,0.47860420000000004,0.28047442,0.28448868
-8.599839,-1.1283968999999998,-1.0110043,0.5733581,0.40610322,0.29778808
-8.60297,-1.1578168,-1.4097826,0.57494634,0.55728364,0.24562019
-8.343879,-1.0086101,-1.7528238,0.6212674,0.57218874,0.14554301
-7.805250999999999,-0.8024406,-1.9905585,0.7181506,0.42048472,0.09285152
-7.6249194000000005,-0.7361787,-2.1198835,0.695793,0.48223448,0.07527605
-7.9545145,-0.5587970999999999,-1.8801666000000001,0.63936645,0.29804987,0.071017444
-8.687591000000001,-0.4923915,-1.5633658000000001,0.6819351,0.012723451,0.038013272
-9.36673,-0.64627165,-1.4316465,0.6622477,-0.20392427,-0.012531463999999999
-9.58942,-0.96268934,-1.7560224999999998,0.58878684,-0.1964717,-0.056723199999999994
-9.500067999999999,-1.4218876,-2.3119082000000004,0.4706106,-0.035168383,-0.039147735
-10.148925,-2.2585077,-2.1765497000000003,0.35030502,-0.010698868,0.046530478
-12.159471,-2.8225243,-1.1736951999999998,0.28696704,-0.051679197999999996,0.072082095
-14.695629,-0.5784486999999999,0.5661713,0.26087436,-0.14004523,0.06197664
-13.569607999999999,1.5167555,-0.23185450000000002,0.25713935,-0.22308798,0.045465827
-12.696988000000001,-0.29431440000000003,-1.2176527,0.23745205,-0.21776474,0.019914206
-13.364289999999999,-1.4575613,0.15621687,0.17783159,-0.1964717,-0.0024260078
-12.265697,-1.6067392,1.2880421999999998,0.11714649999999999,-0.18634881,-0.0034906585
-11.471377,-0.8349443000000001,1.5737567,0.09159488,-0.23054054,-0.0045553090000000004
-10.454656,-0.1016195,1.0550289,0.08840092,-0.23905775,-0.014137166999999999
-10.021092999999999,-0.11523772,0.07635588,0.08414232,-0.18901916,-0.037559487
-10.389963999999999,0.061837442,-0.09006987,0.06337290000000001,-0.12355186,-0.06578146
-10.129351,0.49919105,-0.25623703,0.03303908,-0.06977826,-0.09292133
-9.666015,0.673489,-0.15040375,-0.020176006,-0.006440265,-0.11740830000000001
-8.797858,0.66756094,-0.16934668,-0.0782082,0.06276204,-0.14189526
-8.169858999999999,0.4818379,-0.35681266,-0.12292354,0.10800097,-0.14243633
-7.978217,0.33841562,-0.5889257,-0.17722073,0.23469442,-0.13178982
-8.083217999999999,0.05746084,-0.68154305,-0.23790583,0.41887903,-0.123272605
-8.185699000000001,-0.23473711,-0.6146203,-0.34650022,0.5024454,-0.15095353
-8.087508,-0.22379082,-0.6527839,-0.48171088,0.5711241,-0.1903456
-8.105933,0.0072783735,-0.78821903,-0.56421256,0.61850977,-0.19619246
-8.290689,0.23433489,-1.1857523,-0.69303536,0.6509729000000001,-0.19619246
-8.321575,0.45106759999999996,-1.6477278000000002,-0.79204786,0.46305332,-0.21483257
-8.165827,0.69383967,-2.146986,-0.8548623,0.08510225,-0.21216223
-7.907425999999999,0.8626021,-2.4670715,-0.8234638000000001,0.0861669,-0.20738003
-7.8814725999999995,1.0287981,-2.2582397000000003,-0.68238884,0.12397074,-0.13657202
-7.7714543,0.76336724,-2.4600134,-0.5886996,-0.15442674,-0.03864159
-8.079377000000001,0.62601674,-2.663856,-0.6493846999999999,-0.3545811,-0.025848325
-8.868267,0.21713494,-2.8354816,-0.73987997,-0.46902233,-0.063111104
-9.431201,0.26920405,-2.8386421000000004,-0.7361624,-0.6489483,-0.09985029
-9.786462,1.2356858,-2.9004316,-0.60254,-0.5563236999999999,-0.12166689999999998
-10.507213,1.8439664,-2.9276395,-0.40664425,-0.39929643,-0.14721853
-12.799805000000001,0.96910584,-1.1737909,-0.1915848,-0.22895229,-0.20525073
-14.682020000000001,-1.8307502,-1.2867013999999999,-0.014329153,-0.13154547,-0.23347269
-14.9291115,-3.392469,-1.2672126,0.11021754,-0.1288751,-0.20896827
-15.543531,-2.4953136000000002,-0.6582043000000001,0.21402973,-0.10545279,-0.15786503
-14.318906,-1.7584071,0.7823102,0.29813713,-0.043161992,-0.12060225
-12.091658,-1.7076883000000003,0.49542737,0.36999235,-0.006440265,-0.12007865
-10.926810000000001,-2.5693232999999998,0.78515446,0.42854816,0.010576695,-0.10995574
-10.097612,-3.094793,1.0278883,0.46209338,0.020158553,-0.08175122
-8.804561999999999,-3.163296,0.9730419,0.48232174,0.012705997,-0.047141342999999995
-8.210905,-2.913169,0.92259127,0.4982915,0.006318091999999999,-0.014678219
-8.221948,-2.9443222999999996,0.5133073,0.5100027,-0.005899213,0.013508848
-8.282013000000001,-3.0441124,-0.01505474,0.51904345,0.0020594885999999997,0.04173082
-8.431794,-3.1187637,-0.13330914,0.5233021,0.026546458,0.06941175
-8.316403,-2.888317,-0.24838406,0.5147849,0.04944518,0.10454522
-8.148589,-2.3939814999999998,-0.48866615,0.48816859999999995,0.08670796,0.14767231
-8.214554,-2.0395246,-0.6652146,0.45197046,0.1399405,0.1870644
-8.527677,-1.8298883000000001,-0.7071418,0.41737804,0.13035864,0.22804472
-8.702885,-1.4836292,-0.7990983,0.40032616,0.05688028,0.26211354
-8.8330145,-1.4220026000000001,-0.9131198,0.41205478,0.0073827426000000005,0.29405308
-8.958269,-1.4063733,-1.0899267,0.45409977,0.013247048999999999,0.31747538
-8.996557000000001,-1.4230847,-1.3393643,0.51904345,0.04464552,0.33396876
-8.904419,-1.4509437,-1.5801156,0.621791,0.09094911,0.35313246
-8.701582,-1.4049271,-1.8086183,0.7356912,0.15430456,0.38507199999999997
-8.555842,-1.1546755,-2.0243647,0.83098614,0.24425882,0.41755256
-8.476861999999999,-0.9925306999999999,-2.0641754,0.8064992,0.36829937,0.41542327
-8.602692999999999,-0.908839,-2.0849953,0.7671071,0.40502109999999997,0.38561305
-8.871561,-0.89970267,-1.8891688999999998,0.7458140999999999,0.42631412,0.31374037
-9.171889,-0.9524517,-1.4315315,0.7074866999999999,0.32358405,0.24027948
-9.352019,-1.041449,-1.171732,0.75274307,0.078173295,0.27276006
-9.322045,-1.1830996,-1.3514118999999998,0.75379026,-0.29443705,0.26476645
-9.233967,-1.292821,-1.7316398999999998,0.7447494,-0.40142572,0.19078194
-9.065712,-1.3499658,-2.2455694999999998,0.67980576,-0.3109304,0.09655161
-8.857799,-1.6061454,-2.665053,0.55204767,-0.14803882,0.0789936
-8.877997,-2.1509987999999995,-2.889246,0.39128536,-0.11290534599999999,0.11732103
-10.066124,-2.8015703999999997,-2.248682,0.19113101,-0.05808456,0.16788322
-12.090795,-2.039534,-0.84290266,-0.0036826448,0.011641346,0.18652333
-13.536089000000002,-0.040452432,0.27137795,-0.15112805,-0.104929194,0.1944995
-14.457348999999999,1.4364253,-0.07886501,-0.27783898,-0.19116591,0.19237019
-13.117113,-0.41964608,-1.5764095,-0.37098718,-0.20713568,0.17107718
-11.820317,-1.8119701000000001,0.045633484,-0.4423188,-0.22575834,0.1375494
-10.589152,-1.5489336,1.3174335,-0.4902281,-0.2795145,0.10241592
-10.529172,-0.36565205,0.89116013,-0.51258576,-0.31253612,0.07632325
-10.497071,0.28482383,-0.08683291,-0.5333376999999999,-0.29122564,0.053983033
-10.254213,0.64768904,-0.43096587,-0.55943036,-0.23692845,0.027890362000000002
-9.948903999999999,1.1788473999999998,-0.51877564,-0.5929755999999999,-0.20659462,0.0060562924
-10.104288,1.6085778,-0.6776835999999999,-0.6243741,-0.16400859,-0.013613568000000001
-9.789019999999999,1.4309952,-0.7231064,-0.6350206,-0.1293987,-0.034906585
-9.043628,1.0099988000000002,-0.65189326,-0.6291563,-0.08895943,-0.059934605
-8.452988000000001,0.7157034999999999,-0.6124847,-0.62809163,-0.015481071,-0.084421575
-8.285614,0.4111802,-0.6704051999999999,-0.6366263000000001,-0.008045968,-0.100391336
-8.336763000000001,0.06306327,-0.66337585,-0.6871885,-0.010698868,-0.13765411
-8.227253,-0.008887276999999999,-0.5956678000000001,-0.7782249,0.01802925,-0.17172295
-8.157802,0.06577351,-0.63830376,-0.8484918,0.088296205,-0.20046851
-8.297680999999999,0.18189229,-0.98703355,-0.8878839,0.22403046,-0.21750294
-8.48757,0.27999709999999994,-1.4385992,-0.8964011000000001,0.29909706,-0.23719025
-8.479544,0.25275108,-1.8525662,-0.9347285,0.3294309,-0.25370106
-8.449396,0.15319059999999998,-2.1747396,-1.0044545,0.21818360000000003,-0.2819056
-8.226056,-0.01595496,-2.4105399,-1.0449111,0.12501794,-0.29150490000000007
-8.142824000000001,-0.22990082,-2.3471797000000003,-0.95602155,0.0009948377,-0.30108675
-8.815585,-0.17476715,-1.6806338,-0.80909973,-0.10067059,-0.2441192
-9.04222,-0.059558164000000004,-1.7565203999999999,-0.6749537,0.07072074,-0.20259781
-9.424497,-0.028519731,-1.5461083999999998,-0.6600486,0.052621678,-0.10410889
-9.421557,0.033413477000000004,-2.0277357,-0.74522066,-0.25237462,-0.033841934
-9.342951,0.29093382,-2.7555442,-0.8202698,-0.41633084,-0.021607175
-9.296273,0.5726739000000001,-3.3867513999999996,-0.77236056,-0.42006585,-0.021083577000000003
-9.601927,0.6236704000000001,-3.3361572999999995,-0.6328913,-0.36203364,-0.046617742999999996
-11.714522,-0.10378385,-1.2999174999999998,-0.46308820000000006,-0.20020671,-0.11475539999999998
-13.739806,-1.5449687,-0.6178668,-0.30923745,-0.018151425,-0.19462167
-15.110123000000002,-3.528814,0.17459477,-0.19266689,-0.046373397000000004,-0.22921409
-14.780825,-3.2435303,-0.14123875,-0.08140215,-0.10918779999999999,-0.22760838
-11.78767,-0.55199754,0.22194250000000001,-0.015393803999999999,-0.11397,-0.18823376
-11.576502,0.34555036,1.3203351,0.052185345,-0.12515756,-0.17704620000000001
-11.185471000000001,-0.09477208,1.6845218999999998,0.13096951,-0.14751522,-0.17011724
-10.583712,-1.7037905,1.4350557,0.18846065,-0.12409291,-0.15947074
-9.954525,-2.3452547000000004,1.4117458999999999,0.22413518,-0.07192502,-0.12859586
-9.157295,-2.4128191,1.3209865,0.24275784,-0.026145032000000002,-0.09613273
-8.717508,-2.4346924,1.156974,0.258204,-0.009110618000000001,-0.056740652999999995
-8.948913000000001,-2.6705692,0.689578,0.25288075,-0.010716322,-0.014695672
-8.962013,-2.6557633999999997,0.29102,0.2432989,-0.00059341197,0.028955012999999998
-8.662125999999999,-2.463509,0.2567446,0.24755749999999999,0.008970993,0.0726057
-8.470972999999999,-2.009626,0.23971705,0.25979227,0.06646214,0.11943288
-8.326967,-1.65877,0.16822618,0.21294762,0.24267058,0.15564846
-8.208894,-1.3043516000000002,0.08546343,0.19165461,0.3565882,0.19556414
-8.228805,-1.1521568000000002,-0.10704955,0.20177752,0.38639843,0.23443262
-8.406903999999999,-1.1733408,-0.44121307,0.21242402,0.34646532,0.26424286
-8.659272,-1.0531615,-0.82282966,0.26193902,0.34752995,0.27434832
-8.793319,-0.9765087,-1.2121269,0.36199874,0.31187287,0.28286552
-8.882364,-0.86904734,-1.514821,0.40299650000000004,0.40608576,0.2695661
-8.774395,-0.73554665,-1.8240944,0.4471708,0.55674255,0.24347343
-8.421413000000001,-0.71855736,-2.0156113999999996,0.6201853,0.35817647,0.20034635
-7.7619443,-0.8947898000000001,-2.2263393,0.6058038,0.47635272,0.06939429
-7.624105499999999,-1.1177858,-2.1014197,0.6430666,0.28152162,0.09496336400000001
-8.033026,-0.9516568999999999,-1.6975752,0.6936462,0.060615286,0.12210324
-8.765661,-0.7154066,-1.4810531999999998,0.685129,-0.0085695665,0.06887069
-9.221210000000001,-0.78106517,-1.5815903999999998,0.6952345,-0.07937758,0.025220007000000003
-9.34206,-1.0454521,-1.9806943,0.6079331,-0.12622221,0.010314896
-9.293707000000001,-1.4752113000000002,-2.1955307,0.45462337,-0.051155599999999996,0.024155356
-10.277935000000001,-2.1219904,-1.8093557,0.2736327,0.03452261,0.063006386
-12.642658,-2.1369112,-0.7625341,0.12831661,0.063268185,0.092816606
-13.847593,-0.93048257,0.41756794,0.05857325,-0.07883652,0.12423254
-14.605694,-0.80804306,1.0456724,0.034627332999999996,-0.13580407,0.13062043
-14.500359,-0.5883224,-0.120993376,0.006405358000000001,-0.1113171,0.123691484
-12.243067,-1.2564962,0.21234654,-0.021781709,-0.104929194,0.11091567599999999
-11.257757000000002,-0.95379245,1.2052029,-0.04733333,-0.13686872,0.10506882
-11.024532,-0.48337975,1.0786071000000002,-0.04680973,-0.18797196,0.091751955
-10.059353999999999,0.057183113,0.06885724,-0.03296927,-0.20128882,0.074717544
-9.45319,0.42564118,-0.18466957,-0.032428216,-0.17680185,0.05235988
-9.454711999999999,0.87814534,-0.4608934,-0.05532694,-0.16029103,0.019896753
-9.735073,1.2268751,-0.47101608,-0.0739496,-0.09641199,-0.005637413399999999
-9.518761999999999,1.3227868,-0.13012965,-0.08726646,-0.04478515,-0.030665435
-8.758296000000001,0.9593375,-0.03380613,-0.10588913,0.010035643,-0.057281705999999995
-8.402412,0.5631354000000001,-0.21071848,-0.13517575,0.09681341,-0.08016297
-8.449741,0.14237839,-0.43736318,-0.18947294,0.12341223,-0.099326685
-8.563839,-0.18375020000000003,-0.6218986999999999,-0.27145106,0.12714724,-0.12541936
-8.566799000000001,-0.31288385,-0.59267986,-0.37098718,0.12927654,-0.15948819
-8.545232,-0.07550355,-0.5923063000000001,-0.48012263,0.1500285,-0.19301596
-8.677354,0.18284039,-0.9449052,-0.5924345999999999,0.19847885,-0.22762585
-8.638624,0.23043711,-1.4184687,-0.68134165,0.21286036,-0.24466026
-8.486526,0.30088413,-1.770541,-0.7462853,0.20060815,-0.25795966
-8.53576,0.26566059999999997,-2.0067049999999997,-0.7952593000000001,0.17346828,-0.26860616
-8.372217,0.21030667,-2.3391254,-0.84955645,0.14578736,-0.25902432
-8.418042,0.30586404,-2.4484928,-0.86285585,0.008970993,-0.20418607
-8.719472,0.41123766,-2.3094375,-0.77396625,-0.25237462,-0.16055284
-8.97817,0.4159782,-2.1898612999999996,-0.59456384,-0.26621506,-0.11103784
-9.143953999999999,0.42822692,-2.1713302000000003,-0.40718532,-0.05169665,-0.042376593
-9.275588,0.5476114000000001,-2.215489,-0.26080456,-0.090024084,-0.08388052
-9.363761,0.5772516,-2.6638078999999997,-0.33585370000000003,-0.40142572,-0.08600982
-9.40633,0.85799575,-3.0237427,-0.48863983,-0.45945793,-0.07590437
-9.407614,1.2462299,-3.2501192000000003,-0.55464816,-0.50843185,-0.074298665
-9.930919,1.3582306,-3.0013810000000003,-0.49183378,-0.45039967,-0.10145599
-11.446679,0.71177703,-2.2020527999999997,-0.383763,-0.280073,-0.14936528
-13.457654000000002,-0.7933044,-0.89180183,-0.2789036,-0.07670722,-0.21963224
-15.162039000000002,-3.3197906,-0.3388849,-0.18999654,-0.033056535,-0.27127653
-15.391451000000002,-4.679822,-0.406296,-0.12133529,-0.041050144,-0.27073547
-12.692592,-1.6402773000000002,-0.558347,-0.054262288,-0.06660176,-0.22176154
-11.869773,0.2877639,0.9855109000000001,0.010663961999999999,-0.06873106,-0.16533504
-10.964295,-0.10986513,1.1592916000000002,0.08306022,-0.09747664,-0.15310028
-9.985459,-1.5628582,1.0868335,0.15013322,-0.11079349999999999,-0.14671238
-9.448238,-2.0434224999999997,1.1982883,0.19165461,-0.07564257,-0.13180727
-8.682668,-2.074068,1.2034023999999999,0.22146483,-0.03520329,-0.10732029400000001
-8.180479,-1.7696694,1.0328586,0.24010494,0.0073827426000000005,-0.08602728
-8.552547,-1.8955948,0.5928714,0.26991516,-0.0027227136,-0.06525786
-8.954544,-2.0961428,0.03466804,0.29705504,-0.0085870195,-0.027471482999999998
-8.952639,-2.146488,-0.17684533,0.3300592,0.015358897,0.01616175
-8.718188,-2.0520127,-0.19083704,0.3667984,0.046233773,0.058747783
-8.521165,-1.7756932,-0.23011151,0.3817035,0.10266027,0.10826277
-8.404568,-1.5886582,-0.22647232,0.35934582,0.24958208,0.15510741
-8.371153999999999,-1.4179133,-0.32439518,0.3151541,0.37627554,0.20034635
-8.413828,-1.2990268,-0.51819146,0.30930725,0.38851030000000003,0.25144958
-8.532733,-1.3201915000000002,-0.6997007,0.32686526,0.2799159,0.29403559999999995
-8.828964,-1.0893618,-0.91706544,0.39341468,0.24478243,0.30361748
-8.925516,-0.98978215,-1.1815673,0.50892055,0.25064674,0.3163933
-8.844688,-1.1344876,-1.4523131999999999,0.66915923,0.27619836,0.35206783
-8.65207,-1.1918813999999998,-1.6903256000000002,0.727715,0.45505969999999996,0.33929202
-8.400813000000001,-1.054349,-1.9534196,0.8086285,0.3986332,0.26902506
-7.974128200000001,-0.9812299999999999,-2.226301,0.77721256,0.48380527,0.12423254
-7.6991396,-0.94917643,-2.338187,0.73516756,0.49338713,0.08110545
-7.990705499999999,-0.72315425,-2.1906562000000003,0.7186568,-0.26090926,0.15191346
-8.616473,-0.57817096,-1.8755505000000001,0.65425414,-0.33276448,0.11730358
-9.307316,-0.64825404,-1.5384278,0.6803293,-0.2981546,0.026808257999999998
-9.606264999999999,-0.8871761999999999,-1.7784321,0.6313554,-0.22523473,-0.031189033999999997
-9.616484,-1.4030021000000001,-2.4320395,0.5201081,-0.19596557,-0.05248205
-9.536795,-1.9144515,-2.6504676,0.36519268,-0.06979571,0.009773844
-10.557653,-2.9107747,-2.4051766,0.23104669,0.03239331,0.048642326
-12.629997999999999,-2.698725,-0.41390958,0.15119787,-0.10918779999999999,0.0816465
-15.402847,-1.1949557,2.0511127,0.08147197,-0.21032962,0.09494591
-17.02307,2.1351299999999998,0.6493458000000001,0.023980823999999998,-0.23055799999999999,0.07897615
-13.727692000000001,-0.32972947,-1.1385386999999998,-0.03562217,-0.16402604,0.077911496
-11.1492605,-1.2949088,1.0999441,-0.06970845,-0.14379768,0.0821701
-10.709082,-1.578727,1.6583294999999998,-0.07236135,-0.19594811,0.070999995
-10.368157,-0.75372344,0.50640243,-0.054785885,-0.22310543,0.04597197
-9.565764,-0.1730912,0.09895714,-0.050527282,-0.18158406,0.020961404
-9.568398,0.32768962,-0.08567411,-0.06223844,-0.13048081,-0.0019198620999999999
-9.999402,0.9144606,-0.3254199,-0.08620181,-0.08895943,-0.02586578
-9.869991,1.1675563999999998,-0.25021324,-0.12239994,-0.040526547,-0.04769985
-9.065788000000001,1.0123834999999999,-0.21562181,-0.15646876,0.023876105,-0.08229227
-8.367237,0.60184485,-0.23966917,-0.18627898,0.09361946,-0.09293878
-8.263205000000001,0.15365987,-0.3934248,-0.22886503,0.15056956,-0.09293878
-8.258875,-0.22594560000000002,-0.5107503,-0.30126128,0.24265313,-0.110514246
-8.187211999999999,-0.4336474,-0.41340202,-0.41996112,0.26342255,-0.14617133
-8.140382,-0.25703192,-0.27482563,-0.53122586,0.29270917,-0.18449876
-8.312812,-0.15016434,-0.42426210000000003,-0.6078806999999999,0.34965926,-0.21059142
-8.378298,-0.01157836,-0.9710211999999999,-0.6669601,0.36775833,-0.20420352
-8.347344999999999,0.09470504,-1.4433684,-0.7100871999999999,0.23415338,-0.19142771
-8.367946,0.24690923,-1.8688851999999998,-0.7308392,0.064332835,-0.16374679
-8.157802,0.29382600000000003,-2.193539,-0.6856002,-0.090024084,-0.1200961
-8.180403,0.42265323,-2.2368357000000003,-0.5487839,-0.2385516,-0.118490405
-8.464402999999999,0.19947532,-2.1316056,-0.43860123,-0.07033677,-0.06738716
-8.926417,0.031105467999999997,-2.1591966,-0.34704128,0.17983873,-0.055152405
-9.52107,-0.06444233,-2.1832724,-0.32468359999999996,0.03932227,-0.029059732
-9.626845,0.10197384,-2.4075806,-0.4375366,-0.28220227,0.0172264
-9.571204,0.7199269,-2.727398,-0.5839174,-0.46903977,0.03693117
-9.762922999999999,1.3408200000000001,-3.0406935,-0.64247316,-0.53398347,0.014573500000000001
-10.666466,1.2708039,-2.4096394,-0.5785941,-0.46478117,-0.060999255999999995
-12.299225,-0.19863255,-1.4122151,-0.45615926,-0.31840040000000003,-0.14936528
-13.716935999999999,-2.0661578,-0.7353647,-0.36353463,-0.13580407,-0.21963224
-13.844807000000001,-4.029298000000001,-0.90270984,-0.27197465,-0.11185815,-0.25637139999999997
-13.451497,-3.0317872,-0.14912045,-0.20809561,-0.18318976,-0.25371853
-11.957716,-0.58815,-0.21346703,-0.14795156,-0.25132743,-0.22069688
-11.678092999999999,0.49850154,0.74921274,-0.10749483,-0.25556856,-0.17971656
-11.51043,-0.48315948,0.9909121999999999,-0.054803338,-0.25610963,-0.16694075
-10.817117999999999,-2.0367954,1.1173356,-0.0052883476,-0.21565288,-0.16639969
-10.094778,-2.4663725,1.3677787000000001,0.033562682999999996,-0.17467254,-0.14510667
-9.202019,-2.2490842,1.3053858,0.08040732,-0.14699163,-0.108926
-8.78243,-2.1273534,1.1595023000000002,0.12564625,-0.12356931,-0.06686357
-8.95669,-2.1958086,0.678488,0.17516124,-0.09375909,-0.022148227000000003
-9.181189,-2.3366642000000004,0.057891797,0.22094123,-0.044244096,0.011903145
-9.012925,-2.309447,-0.17060125,0.25553367,0.020682152,0.04012512
-8.676673,-2.242371,-0.13827951,0.29279643,0.07072074,0.076846845
-8.337023,-1.8526237,-0.14657302,0.3300592,0.10159562,0.12795009
-8.003156,-1.5344055,-0.13444879999999998,0.33112386,0.20858429999999997,0.16788322
-7.9964805,-1.3369989,-0.17608875,0.30822515,0.34327134,0.20460495
-8.178401,-1.2079418,-0.35074097,0.2975961,0.43535492,0.24932028
-8.34886,-1.4278923000000001,-0.52704996,0.28480282,0.46303585,0.29616493
-8.568302000000001,-1.3968635,-0.79506654,0.29120818,0.43376666,0.32597515
-8.634449,-1.302599,-1.0372353,0.34976399999999996,0.41247365,0.36323792
-8.626155,-1.3199713,-1.2752379999999999,0.46261698,0.44067818,0.40849432
-8.556475,-1.3238115,-1.5196955,0.55470055,0.5806885,0.42392302
-8.5043,-1.2900916,-1.7466946,0.6095388,0.6179513000000001,0.37229618
-8.194797,-1.3301034999999999,-1.8691723000000002,0.618056,0.60943407,0.23282692
-8.003634,-1.4880633,-1.8554106,0.64732516,0.6711838000000001,0.1402023
-8.177692,-1.1251408,-1.6695343,0.635614,0.6285978,0.101874866
-8.525397,-0.58038324,-1.6100816,0.7356912,0.05900958,0.12847368
-8.929597,-0.34063745,-1.7584263,0.8032878000000001,-0.20607102,0.07524114
-9.306377000000001,-0.79724044,-2.0436523,0.72291535,-0.11079349999999999,0.031590457999999995
-9.53079,-1.3302376,-2.5311213,0.62550855,0.028658306,0.026808257999999998
-9.694564,-1.8862574,-2.6417046,0.49453905,0.0808262,0.06991789
-10.435711999999999,-2.8529117000000004,-2.4103577,0.3545462,0.14205235,0.12049753
-11.897103999999999,-2.9223146,-1.2994002,0.28801423,0.011623893,0.12901473
-12.612511,-1.1706401000000002,0.023970747,0.24862215,-0.10812314599999999,0.12210324
-12.571024000000001,0.23429659,0.45332772,0.18420205,-0.1698729,0.10613347
-13.8057995,0.0036296096999999996,0.5683739000000001,0.07827802,-0.17306685,0.09388126
-13.629041,-0.8398667999999999,0.9634459000000001,-0.0074176495,-0.18584266,0.0842994
-12.06648,-1.5650514,1.233895,-0.040421825,-0.26197392,0.07897615
-11.478406,-1.2940372,0.5264179,-0.039880775,-0.31520647,0.059288833
-11.049796,-0.8807502,-0.23381773,-0.013264502,-0.2891138,0.039584067
-10.922462,-0.23669077,-0.8524028,-0.02019346,-0.22417009,0.018832102
-10.887929,0.59445155,-0.9532753,-0.059044488,-0.15390313,0.0049916417
-10.231238000000001,1.2035173000000001,-0.691388,-0.114947386,-0.12409291,-0.007784168199999999
-9.322073,1.3291075,-0.6650901,-0.15488052,-0.09428269,-0.020559978
-8.636747,1.1055945,-0.82620066,-0.20970131,-0.021886429,-0.028536132999999998
-8.271124,0.75952697,-1.0500778,-0.2725157,-0.020821778,-0.03918264
-8.087556,0.22283314,-1.1559396999999998,-0.33265975,-0.11664035,-0.07271042
-7.966677000000001,-0.22222023,-1.0161280000000001,-0.45350635,-0.15390313,-0.13020156
-7.837984599999999,-0.40194815,-0.75493014,-0.58817595,-0.08044223,-0.18184586
-7.9568424,-0.06270893,-0.63798773,-0.67921233,-0.0021991148,-0.21217968
-8.075153,0.18268716,-1.293951,-0.726598,0.06857399,-0.23401375
-8.136694,0.35484943,-1.9166733,-0.7963239000000001,0.08775515,-0.26434755
-8.26194,0.30618966,-2.3530884,-0.8676555,-0.0048520155,-0.29522243
-8.186657,0.32180944,-2.7900014,-0.96453875,-0.09908234,-0.30534536
-8.506072,0.18880674,-2.738459,-0.9331228000000001,-0.2624975,-0.28031734
-9.29907,0.14836389,-2.1893537,-0.7409621,-0.5701816,-0.25850073
-9.638693,0.11894394,-1.8173138999999998,-0.6046868000000001,-0.1783901,-0.1871691
-9.615725999999999,0.1598369,-1.7137026000000002,-0.46734682,0.18250908,-0.18236946
-9.536191,-0.0012162544,-2.1233408,-0.50780356,-0.23481660000000001,-0.14990632
-9.262247,0.061023414000000005,-2.7981324,-0.68985885,-0.54356533,-0.14032447
-8.955136999999999,0.8563485000000001,-3.3785825,-0.8000415,-0.58615136,-0.12807226
-9.433921,1.5978711,-3.1405606,-0.7617315,-0.53717744,-0.14458308
-11.084752,0.76501447,-1.9361718,-0.6265034,-0.40355504,-0.19514526
-12.652273,-1.1507778,-1.3158245000000002,-0.4944867,-0.19116591,-0.27286479999999996
-14.706078,-3.402515,0.15768214,-0.41411427,-0.04956735,-0.3127979
-15.187760999999998,-4.5930943,0.0032369606,-0.35822883,-0.06075491,-0.2978928
-12.23303,-2.4188142000000004,-1.4501585,-0.31669,-0.09162979,-0.25157174
-10.831675,0.6747626,0.4422282,-0.29752627,-0.10653489999999999,-0.20207421
-11.146042999999999,0.7433709,1.5672827,-0.28900906,-0.12676327,-0.17704620000000001
-10.645645,-1.355348,1.2415277,-0.2512227,-0.18531907,-0.16533504
-10.1814,-2.8238652,1.3381002,-0.20970131,-0.18744837,-0.14830063
-9.465016,-2.6497972,1.302867,-0.18467329999999998,-0.14273302,-0.11477285
-8.59934,-1.9488323,1.2817216,-0.15221016,-0.11451105,-0.062063905999999995
-8.432561,-1.8290264999999999,0.9661561,-0.09897762,-0.09430013599999999,-0.005654866999999999
-8.789228999999999,-2.0957117,0.46912944,-0.038816124,-0.055955257,0.03799582
-9.005023,-2.2396226,0.12450807,0.03195698,-0.016563175,0.07632325
-8.841442,-2.3159015,0.0873309,0.106482536,0.021746803,0.12210324
-8.624967999999999,-1.9507093,0.039849095,0.17887879999999998,0.089360856,0.17001252
-8.434897,-1.4296544,-0.05587109,0.21242402,0.22722441,0.22005111
-8.335988,-1.1951089,-0.055440135,0.25127506,0.38053414,0.2764776
-8.258032,-1.2141667999999999,-0.24226448,0.30557224,0.46411794,0.32384583
-8.362181,-1.2989788999999998,-0.3913083,0.35135224,0.44121924,0.34833282
-8.578472999999999,-1.3833889,-0.5706628,0.40619048,0.42364377,0.33822736
-8.628703,-1.4707677,-0.83977103,0.49775046,0.43908992,0.31213468
-8.597616,-1.5847412,-1.1000878,0.55470055,0.59665823,0.29244736
-8.591382000000001,-1.747365,-1.3478878,0.5877047,0.6472379,0.22963297
-8.536305,-1.7844081000000003,-1.541933,0.6292260999999999,0.654673,0.1402023
-8.126619,-1.6682606,-1.8111081999999998,0.6350904,0.42896703,0.08962265400000001
-7.762078999999999,-1.6309876,-1.9396482,0.57972854,0.17505652,0.13062043
-7.766513000000001,-1.4211789,-1.7785662,0.5813168000000001,-0.15177383,0.141808
-8.292107000000001,-1.3477057,-1.6343586,0.6116680999999999,-0.35777503,0.10772172
-8.906086,-1.5749346000000002,-1.858207,0.67607075,-0.28218484,0.034801867
-9.16125,-2.1365569,-2.2430413,0.65584236,-0.13526301,0.009250245
-9.393661,-2.5849237,-2.5335348,0.54459506,-0.02453933,0.03693117
-10.513485000000001,-2.9669905,-2.2375634,0.4338714,-0.0032463125,0.0752586
-12.772444,-3.0300439999999997,-0.42441535,0.35189328,-0.032532938,0.086969756
-15.230542000000002,-0.44055226,0.6795798000000001,0.31408945,-0.14166838,0.08749335
-15.311581,0.7918390999999999,-0.51248366,0.26778588,-0.17999579999999998,0.075782195
-14.874811,0.067085534,-1.0820355,0.20868902,-0.16083209,0.060877085
-13.203753,-0.9178219999999999,0.8953548000000001,0.15173893,-0.15444419,0.058224183
-11.55981,-1.6195722,1.8748515,0.13257521,-0.17146115,0.05342453
-10.500107,-1.2042643,2.0113306,0.15332717,-0.19807741,0.034801867
-9.564461999999999,-0.72119105,0.58613884,0.18207274,-0.1783901,0.0034033920000000003
-9.307488000000001,-0.17620367,-0.17835845,0.1810081,-0.13740978,-0.021607175
-9.512402999999999,0.26379314,-0.24834575,0.15545648,-0.06499606,-0.046094145999999996
-9.455881,0.7281629,-0.061952364,0.12086405,-0.034121186,-0.06312856
-8.917674,1.0144233,0.11952812,0.06815511,-0.033056535,-0.07538077
-8.144959,0.88324976,0.024861392000000003,0.017051866000000002,0.022287855,-0.08761553
-7.918171000000001,0.46467623,-0.20144814,-0.057979837,0.07178539,-0.09400343
-7.948041,-0.03410301,-0.34488955,-0.15008086,0.050492376,-0.09667379
-8.032844,-0.34274432,-0.391519,-0.2645221,0.04675737,-0.11690215
-8.0030985,-0.44736138,-0.31810322,-0.4130496,0.09361946,-0.15575318
-8.112522,-0.21384051,-0.3825168,-0.5652946999999999,0.22029546,-0.21272072
-8.393717,0.06055415,-0.6874806,-0.64034384,0.34327134,-0.22973768
-8.534247,0.21662736,-1.2335885,-0.6856002,0.29429743,-0.23080234
-8.562049,0.37301663,-1.8301564,-0.7361624,0.104248516,-0.20898573
-8.357364,0.5288313,-2.291251,-0.69677037,0.013770646999999999,-0.1786519
-8.065779,0.53172344,-2.5845215,-0.5892406,-0.090024084,-0.17385225
-8.255666999999999,0.73890805,-2.4138342999999995,-0.50406855,0.06700319,-0.13074261
-8.948387,0.75123346,-1.7908629,-0.40985566,0.21338396,-0.10358529
-9.1374035,0.63879216,-1.8171129000000001,-0.43380159999999995,-0.11770499999999999,-0.046635196
-9.322179,0.4155281,-2.0253797,-0.53761375,-0.32850587,-0.031730086
-9.402816,-0.027696125,-2.7299552000000005,-0.6025575,-0.43284166,-0.020001473
-9.751228999999999,0.696569,-3.0381174,-0.5530425,-0.45465827,-0.018954275
-10.561159,1.3809563999999999,-2.7899057999999997,-0.44338346,-0.35831609999999997,-0.060458205999999994
-13.281267999999999,0.32903036,-0.6251356,-0.33372440000000003,-0.14590952,-0.1158375
-14.790268,-2.1073477,-0.6201844,-0.23471187,-0.054349552999999995,-0.15416493
-14.941763,-3.867603,-0.83265543,-0.15060446,-0.15016812,-0.13606587
-13.694996,-3.091211,-0.49436435,-0.09950122,-0.20074777,-0.100391336
-11.81325,-0.106886744,0.77277166,-0.051591933,-0.19914207,-0.062063905999999995
-11.832413,-0.17637606,1.5775298999999998,0.010140363000000001,-0.19701277,-0.047682392999999997
-10.890582,-1.5507149,1.1786367,0.09424778,-0.19435987,-0.055676002
-10.261663,-2.344163,1.3127791000000002,0.14748032,-0.14219198,-0.06258751
-9.541142,-2.3582695,1.2878315,0.1804845,-0.08628908,-0.05248205
-8.7361355,-2.0750258,1.2041398,0.20071286,-0.04796165,-0.02586578
-8.726797999999999,-2.2598486,0.8470399,0.23636994,-0.03572689,0.0076619955
-8.951671000000001,-2.3779402000000003,0.082801074,0.27469736,-0.016022123,0.035866518
-8.834125,-2.2801322999999996,-0.11615709,0.30930725,0.04038692,0.06993534400000001
-8.465113,-2.1809168,-0.024909275,0.34815827,0.09787806,0.10613347
-8.1605215,-2.0856943,-0.05005797,0.37903315,0.16441001,0.15350170000000002
-7.9532795,-1.8471457999999998,-0.07260177,0.35828119999999997,0.3379481,0.19182913
-7.8240886,-1.7857776,-0.033882745,0.36360446,0.41088542,0.23973842
-7.9788303,-1.4773853000000001,-0.20374657,0.40777870000000005,0.35498253,0.29244736
-8.213577,-1.2095795,-0.46662033,0.45835838,0.2708751,0.3291691
-8.47602,-1.1276786,-0.75165486,0.52595496,0.29323277,0.34728559999999997
-8.617623,-1.2498882,-1.0097401,0.66435957,0.30068532,0.35047957
-8.665229,-1.3739175,-1.2414606000000001,0.78040653,0.31719613,0.32332224
-8.639333,-1.3292416,-1.5499966,0.76017815,0.47954667,0.19982274
-8.528559,-1.1522143999999999,-1.8589348,0.85812604,0.49179888,0.0842994
-7.9725766,-0.92154735,-2.1749406000000002,0.80916953,0.5093569,0.043319073
-7.733913,-1.0456148,-2.3967972,0.74262017,0.19263199,0.13116150000000001
-8.205494,-0.8395315999999999,-1.9571162,0.7894648,-0.08522443,0.11091567599999999
-8.991157000000001,-0.8269573,-1.3638426000000001,0.78572977,-0.23481660000000001,0.05503023
-9.504272,-0.85718167,-1.3621763,0.7740186,-0.20978858,-0.009896017
-9.773955,-1.3713796,-1.8282889999999998,0.68245864,-0.14006267,-0.029583331
-9.929922999999999,-2.2147226000000004,-2.0914886000000004,0.5382071999999999,-0.076183625,0.022026055
-10.449722999999999,-2.8986888,-1.7957183,0.40564942,-0.034121186,0.059829887000000005
-12.827635,-2.9391794,-0.09468589,0.33538246,-0.08150688,0.0773879
-14.10565,0.20519266,0.5090073,0.30398400000000003,-0.18584266,0.08058185
-14.198354,0.56004214,-0.78986627,0.26565656,-0.21245892,0.07419395
-14.399657999999999,-0.5517581,-0.63431984,0.22732913,-0.16613789,0.059829887000000005
-13.08189,-1.6601298999999998,1.3174908,0.1847431,-0.12781046,0.06515314400000001
-11.849728,-1.588323,1.7352120999999998,0.15226252,-0.15016812,0.07419395
-11.066201,-0.88389134,1.3802860000000001,0.13311626,-0.17092009,0.06941175
-10.113711,-0.5294154999999999,0.26089135,0.124581605,-0.16667895,0.05024803
-9.986578999999999,-0.18263929,-0.170199,0.09531243,-0.1288751,0.03267256
-10.003445,0.40926483,-0.31736583,0.038885936,-0.07777187,0.019896753
-9.793013,0.88501185,-0.06562986,-0.03190462,-0.042638395,-0.0045727626
-9.077472,0.9100552,0.02339614,-0.09046041,-0.0048520155,-0.030124382999999998
-8.296005000000001,0.77988726,0.009471462,-0.13836971,0.060074233,-0.056199603
-7.9133825,0.25410140000000003,-0.08038772,-0.1931905,0.09149016,-0.06897541
-7.8920455,-0.04975151,-0.28970799999999997,-0.2623928,0.10533062,-0.07696902
-7.843903,-0.34457353,-0.39372167,-0.38482764,0.22935371,-0.10197959
-7.8078365000000005,-0.30454245,-0.39199787,-0.52162653,0.30283207,-0.14402457
-7.9277954,-0.0015993267000000001,-0.43521798,-0.6350206,0.37095228,-0.17172295
-8.121017,0.21609107,-0.82291585,-0.6919881,0.36562902,-0.16639969
-8.161097,0.41412026,-1.3793571000000002,-0.70476395,0.23841198,-0.16479398
-8.301568,0.4633738,-1.7863714,-0.6781477,-0.095870934,-0.12381366
-8.204259,0.47025952,-2.2552326000000003,-0.65579003,-0.21298252,-0.16107644
-8.060492,0.44070550000000003,-2.581256,-0.62330943,0.23415338,-0.16638224
-8.589974,0.5073888,-2.2496400000000003,-0.5988225,0.06965609,-0.13765411
-8.868755,0.46698424,-2.0140502000000002,-0.55091316,-0.181043,-0.05035275
-9.084702499999999,0.34629732,-2.2303138,-0.6025575,-0.40249038,-0.020542525
-9.582381,0.17182708,-2.3809953,-0.72445124,-0.48394490000000007,-0.01308997
-9.838159,0.27607062,-2.8179084999999997,-0.73136276,-0.5456772,-0.0040317103000000005
-10.281966,0.9480656,-2.7635696,-0.66057223,-0.38332665,-0.021607175
-12.191419,0.80882835,-1.226607,-0.5610361,-0.22043508,-0.08016297
-15.564992000000002,-1.4088249,0.45502284,-0.47478190000000003,-0.06393141,-0.13817772
-13.083287,-3.9345257000000005,-2.619525,-0.39920917,-0.031991884,-0.16268215
-13.051062,-2.0969183,-0.6896738,-0.34704128,-0.13313371,-0.15575318
-13.538510999999998,-0.7133188,-0.30825827,-0.29379126,-0.20179497,-0.13072516
-12.255286,0.1806569,1.0773813,-0.24694663,-0.22149974,-0.1270076
-11.044203,-0.75670177,1.2901011999999998,-0.18999654,-0.23321089,-0.13339551
-10.468722999999999,-2.1829947999999995,1.4343089,-0.12772319,-0.24120450000000002,-0.13446017
-9.926255000000001,-2.687999,1.7107338,-0.078749254,-0.20926498,-0.122207955
-9.064285,-2.468259,1.4888008,-0.038292522999999995,-0.17732546,-0.08761553
-8.734067,-2.1489685,1.2840966,-0.014329153,-0.15016812,-0.054070299999999995
-8.867510000000001,-2.0667419999999996,0.9314115,0.01813397,-0.1272694,-0.016283922
-9.185402,-2.1026359,0.39219898,0.060720004,-0.08044223,0.010314896
-9.182941,-2.3073973999999997,0.16727809999999999,0.10754719,-0.02295108,0.034801867
-8.826914,-2.3328335,0.22050598,0.15013322,0.021223204,0.056635935
-8.488258,-2.1435193999999997,0.21218373,0.19113101,0.062220987,0.09656907
-8.309996,-1.8411123999999999,0.17435534,0.1719673,0.2032785,0.1269029
-8.196578,-1.5025626,0.12987109,0.14480996,0.3336895,0.17268288
-8.290057000000001,-1.3500808000000002,-0.09729078,0.14641567,0.40343285,0.22963297
-8.405622,-1.215699,-0.34857659999999996,0.16025613,0.37203437,0.27382470000000003
-8.565745,-1.3324403,-0.65555155,0.16877334,0.3352952,0.29031807
-8.658764999999999,-1.4539795,-0.9050562,0.2534218,0.326778,0.31321678
-8.698565499999999,-1.5186805,-1.1563132,0.38011527,0.3789459,0.33238049999999997
-8.657164999999999,-1.4945757,-1.3718583999999998,0.49455649999999995,0.52958524,0.32119295
-8.570946000000001,-1.3586998,-1.5655302,0.5642999,0.5902878,0.2551846
-8.120567,-1.1468321000000001,-1.8571919,0.62763786,0.5780356,0.15936601
-7.8249598,-1.3829770000000001,-2.0388064,0.6654241999999999,0.5610012,0.04279547
-7.9657483,-1.0629393,-1.7742470000000001,0.62816143,0.47848199999999996,0.05609488
-8.435759,-0.6368672,-1.4952077,0.6680946,0.15323989999999998,0.10880382
-8.962876,-0.548866,-1.5129727,0.71120423,-0.05169665,0.08058185
-9.405717,-1.0467354,-1.7764688999999998,0.72984433,-0.17784905,0.019373154
-9.565745,-1.5682787,-2.212654,0.68992865,-0.10225884,-0.024260076000000002
-9.485693,-2.0121925,-2.7615488,0.5834461,-0.056478854,-0.002443461
-9.975307,-3.0601822999999997,-2.5600147,0.43067744,0.026005406000000002,0.05131268
-11.841204,-3.1337132000000003,-1.2604992,0.28536132,0.060091686,0.07419395
-13.922331,-1.5014326999999998,0.6168613000000001,0.18315485,-0.080965824,0.097092666
-14.171117,0.040165126,0.9470026,0.10754719,-0.18317229999999998,0.09388126
-14.627117000000002,0.6877009,0.008657433,0.018116517,-0.14645058,0.0816465
-12.972896,-1.249668,0.03178542,-0.0718203,-0.10119419,0.0773879
-11.196475,-1.647747,1.2036227,-0.13624041,-0.123028256,0.07632325
-10.477946000000001,-1.2674903999999998,1.4772512,-0.15592772,-0.18317229999999998,0.06780604
-10.082510000000001,-0.702114,0.6380069,-0.15912166,-0.20074777,0.050771628
-9.823688,-0.34219846,-0.0043957545,-0.15060446,-0.19114846,0.023631757000000003
-9.756391,0.37045962,-0.29534873,-0.16924457,-0.14910348,-0.0029670596000000004
-10.088534,1.0220273000000002,-0.54841584,-0.19799015,-0.08735373,-0.014154620500000001
-9.72925,1.3447753,-0.48715302,-0.22884756,-0.051679197999999996,-0.02586578
-8.986406,1.1789623,-0.39935285,-0.24696408,-0.0059166662,-0.029583331
-8.510496,0.8811524,-0.5174157,-0.28155652,0.0036477381,-0.017872171
-8.444244,0.45546335,-0.77076054,-0.32360148,-0.045832347,-0.015201817
-8.571903,0.018042704,-0.89087284,-0.40133846,-0.07883652,-0.049288097999999995
-8.579545,-0.27894366,-0.90139776,-0.49661598,-0.09374163,-0.09293878
-8.544705,-0.25911006,-0.8093071999999999,-0.59456384,-0.043161992,-0.13924237
-8.531498,0.023568522,-0.95600474,-0.6717423,0.05370378,-0.17544049
-8.474459,0.20728998,-1.4117937,-0.7372271,0.08988445,-0.20631537
-8.445805,0.252119,-1.8311331999999998,-0.81122905,0.097337015,-0.23931955
-8.356558999999999,0.28658593,-2.1726327000000003,-0.9128944999999999,0.078173295,-0.2574186
-8.233400999999999,0.40396887,-2.4231045,-1.0284178,0.07871435,-0.2611536
-8.618944,0.39541677,-2.257847,-1.0065837,-0.107058495,-0.20153317
-9.024206,0.20827639,-1.9620578000000002,-0.8404982,-0.3439346,-0.189822
-9.378183,-0.17399143,-1.7466658,-0.6302384,-0.120898955,-0.13552481
-9.629422,-0.3684102,-1.7854136999999999,-0.45455354,0.22935371,-0.14243633
-9.665018,-0.32402167,-2.0591762,-0.4380602,-0.1869073,-0.084421575
-9.426929,0.23789746,-2.7766227999999997,-0.56688297,-0.49192104,-0.058869954
-9.1653,1.1745762,-3.1739453999999996,-0.6824063,-0.54356533,-0.06419321
-9.425570500000001,1.4377182,-3.1294324000000002,-0.6563135999999999,-0.5243842,-0.09985029
-10.630552,0.85434693,-2.4482532000000004,-0.52162653,-0.40674898,-0.15788248
-11.910033,-0.27188557,-2.0795271,-0.37631044,-0.21352358,-0.21217968
-14.2387,-1.7672942999999999,0.05986462,-0.27358037,-0.07192502,-0.24890140000000002
-14.790410999999999,-4.110825,-0.10351569999999999,-0.19425514,-0.10332349,-0.24092525
-13.006587,-3.2829580000000003,-0.6250781999999999,-0.1372876,-0.13739231,-0.20472711
-11.438547999999999,-0.560339,0.30331662,-0.09258971,-0.16454963,-0.15308283
-11.930010000000001,0.05980716,1.1627201,-0.038816124,-0.17997836,-0.13978341
-11.17305,-1.2134581,1.1852256,0.03515093,-0.1762608,-0.15362388
-10.485559,-2.3431382000000003,1.3252002,0.09637708,-0.13100441,-0.15042993
-9.491008,-2.2412697999999995,1.2901108000000001,0.13735741,-0.104929194,-0.12168436
-8.583233,-1.7970016,1.2165514,0.15227997,-0.07138397,-0.08761553
-8.332971,-1.7938029999999998,1.0906354999999999,0.16132078,-0.052761300000000004,-0.069516465
-8.6442175,-2.1945349999999997,0.41914809999999997,0.1804845,-0.023474678,-0.045570545
-8.824558,-2.3661032000000004,0.058772862,0.20710076,0.027070057,-0.022130774
-8.652032,-2.3780265,0.018330008000000002,0.24275784,0.05742133,0.012444196999999999
-8.492319,-2.076089,0.01772667,0.28427923,0.07019714,0.059812434000000005
-8.273278999999999,-1.7528621,0.030693667,0.30079004,0.13194689,0.10719812
-8.131504,-1.6227516000000002,-0.0018770541,0.2975961,0.22670081,0.1444609
-8.277961999999999,-1.3988553999999997,-0.07561847,0.31782445,0.24638812,0.18917623
-8.527236,-1.3284947,-0.25606465,0.3630634,0.20114920000000003,0.23017402
-8.734891000000001,-1.2672318,-0.51912034,0.43013638,0.21338396,0.25411993
-8.866332,-1.2303516,-0.7811130999999999,0.51904345,0.27141616,0.27860692
-8.865327,-1.3117638999999999,-1.0240672,0.6521248000000001,0.35498253,0.3302512
-8.790838,-1.3315976,-1.2810032,0.7463377,0.47050586,0.36164966
-8.652118,-1.2516313000000001,-1.5768883,0.7862708,0.5801649,0.3334277
-8.410198,-1.0836923,-1.7243998,0.7708246999999999,0.6270095,0.25731388
-8.132625,-0.98135453,-1.7010898999999997,0.66116565,0.6216863,0.13861404
-8.173948,-1.0494073999999998,-1.606835,0.67926466,0.12767084,0.22483331
-8.573531,-1.0023661,-1.3278816999999998,0.73036796,-0.1741315,0.22963297
-9.013748,-1.086144,-1.0573944,0.7591135,-0.28965485,0.15084879999999998
-9.380607000000001,-1.2725948,-1.2762053,0.7495316,-0.058608155999999995,0.05609488
-9.521136,-1.4725393999999998,-1.9604012,0.6819351,0.087231554,0.001256637
-9.539313,-1.7255299,-2.469188,0.56482345,0.10691887,0.03000221
-9.974339500000001,-2.3574078,-2.3888674,0.4280071,0.11704178,0.0773879
-11.196628,-2.0976942000000003,-1.4388100000000001,0.31196016,0.12075933,0.09601056
-12.502981,-1.5502361,-0.052969318,0.22200587,0.0020594885999999997,0.09974556400000001
-14.964307000000002,-0.23428701,1.0555748,0.13576916,-0.085241884,0.09229301
-15.236651,1.2465553999999999,0.409782,0.050597094,-0.09482374,0.077911496
-12.018728999999999,-0.60910404,0.6089220999999999,-0.019128809,-0.07457792,0.07258824
-10.696785,-1.3253534,1.9451836,-0.052656583,-0.14325662,0.060894538
-10.46157,-1.4412806,1.2009028,-0.050527282,-0.21139428,0.04012512
-10.475083,-1.1236275,0.1021558,-0.043074727,-0.19062486,0.021485003
-10.563524000000001,-0.35228282,-0.30802840000000004,-0.04520403,-0.13419837,0.0049916417
-10.31605,0.52017385,-0.5211315,-0.0691674,-0.10386454,-0.010419616
-10.265169,1.1102296,-0.39628828,-0.100042276,-0.104929194,-0.031189033999999997
-9.7944975,1.2304760000000001,-0.35047280000000003,-0.14953981,-0.044244096,-0.06419321
-8.983706,1.0424259,-0.42519107,-0.20544271,0.015358897,-0.08389798
-8.522333,0.6738816,-0.44797429999999994,-0.25387558,0.058485985,-0.07218682
-8.4943495,0.1497238,-0.5255177,-0.31136674,0.10744247,-0.09293878
-8.299874,-0.3172317,-0.45593262,-0.43540728,0.26820475,-0.14617133
-7.972548,-0.28030357,-0.26908909999999997,-0.5823291,0.36456436,-0.20739748
-7.881348,-0.09235872,-0.21289241,-0.68612385,0.46038294,-0.24359560000000002
-8.026025,0.1656596,-0.53222144,-0.79313,0.5072276,-0.26860616
-8.028821,0.25131455,-1.1543978000000001,-0.9118298,0.5034926,-0.29096383
-8.069217,0.3932907,-1.5042865,-0.9884847,0.37149334,-0.31812117
-8.007973,0.39097315,-2.1901486,-0.97944385,0.0861669,-0.26008895
-8.094231,0.5959934,-2.5304031000000005,-0.73989743,-0.54195964,-0.19460422
-8.699696000000001,0.6714778,-2.0166075,-0.57487655,-0.5786988000000001,-0.08815658
-8.772843,0.39171055,-2.1233504,-0.42263147,0.18144442,-0.007225663
-9.205725,-0.026834214,-2.494174,-0.41783180000000003,-0.028274333,-0.0104370685
-9.662309,-0.27155036,-2.924613,-0.48384017,-0.34927529999999996,-0.013631022
-9.865575999999999,0.45073240000000003,-3.3083174,-0.49768063,-0.48926815,-0.014154620500000001
-9.681597,1.2073097,-3.8820832000000003,-0.40772638,-0.5111022,-0.03544764
-10.210169,1.6293213,-3.337335,-0.21128955,-0.38599703,-0.08815658
-12.011011,0.6411289000000001,-1.777532,0.006946410500000001,-0.13048081,-0.18662806
-15.161895999999999,-1.4452646999999998,0.59125286,0.14322172,-0.027733281000000002,-0.24891886
-17.644539,-4.773387400000001,1.7801273000000002,0.24223424,-0.045308746,-0.24305455
-14.204464000000002,-4.975735,-0.40227377,0.3146305,-0.029862582999999998,-0.19568631
-9.796863,-0.7233075,1.5554842,0.35402259999999997,-0.027750734,-0.14884168
-10.570573,-0.10478942,1.8741044999999998,0.39022070000000003,-0.06234316,-0.12861331
-10.370207,-1.161025,1.3537391,0.41683698,-0.04691445,-0.11477285
-9.8674345,-2.4935803,1.3393548000000002,0.4450415,-0.014957472,-0.09506808
-9.14542,-2.8970987999999998,1.3518237,0.44664719999999997,0.0132295955,-0.08389798
-8.606082,-2.8563497000000004,1.5520843,0.44132397,0.021223204,-0.054087754
-8.349960000000001,-2.7224371,1.0581031,0.43919465,0.027611108,-0.018413223
-8.650164,-2.7869658,0.16584156,0.43919465,0.05794493,0.018832102
-8.780610000000001,-2.7174861,-0.12283212,0.44558257,0.101054564,0.061941735
-8.735762,-2.3798939999999997,-0.29883468,0.45942299999999997,0.1362055,0.10133382
-8.790082,-1.8097961999999999,-0.45534843,0.4450415,0.19315559,0.1465902
-8.858949,-1.4156243999999998,-0.3948709,0.4104491,0.29642670000000004,0.1944995
-8.772182,-1.1790295,-0.43547657,0.39554396,0.32569590000000004,0.24240878
-8.720697,-1.0760404,-0.6077059,0.40884337,0.26448720000000003,0.29244736
-8.812845,-1.0121057,-0.847308,0.44397685,0.23202407,0.32119295
-8.980555,-1.0068671999999999,-1.0664158000000001,0.53447217,0.24319418,0.33183944
-8.929109,-1.0005846999999999,-1.3396133,0.6750060999999999,0.29749137,0.34461525
-8.782009,-0.97879755,-1.5877961999999999,0.8384386999999999,0.34166566,0.37814304
-8.584295,-0.91607904,-1.8159158,0.93371624,0.49284607,0.38187805
-8.317112,-0.7847906,-2.0371306000000002,0.94809777,0.6046344,0.35419709999999993
-8.137786,-0.7199173000000001,-2.0292583,0.93106335,0.552484,0.2849948
-8.301683,-0.6779900999999999,-1.9823799,0.84802055,0.43748423,0.18969983
-8.513398,-0.7626394000000001,-1.8002672999999998,0.8277921999999999,0.26448720000000003,0.16468927
-8.893127999999999,-0.93814397,-1.3249034,0.79957026,-0.030944687999999998,0.22270401
-9.292385000000001,-1.0639448999999999,-1.1291917999999999,0.78094757,-0.31414179999999997,0.19715239
-9.416655,-1.2596375,-1.3525516000000002,0.8256629000000001,-0.35831609999999997,0.0821701
-9.369939,-1.6015006,-1.8422903000000002,0.80915207,-0.38386770000000003,-0.013631022
-9.118174,-1.8976346000000002,-2.2833023,0.6957755,-0.23748694,-0.03864159
-9.482925,-2.774104,-2.4608946,0.5312781999999999,-0.14590952,-0.008307766999999999
-11.245239999999999,-2.8430667,-1.9724582,0.37531559999999997,-0.07937758,0.04703662
-13.085414,-1.2132473,-1.1427428999999998,0.20868902,-0.068207465,0.09920452
-14.819879,1.0710796,-0.05443457,0.08093092,-0.18531907,0.12849113
-14.368256,1.3899489999999999,-1.0002879,-0.030839968,-0.26303858,0.1423316
-13.160917000000001,-1.1335778,-1.7393876,-0.13357005,-0.26356217,0.13540265
-11.322907,-2.0146058,0.25808537,-0.22832397,-0.23481660000000001,0.11677998
-9.887555,-1.4347206000000001,1.4427555,-0.28155652,-0.26516786,0.09494591
-9.783666,-0.40783790000000003,1.1346216999999998,-0.29539698,-0.30136599999999997,0.06939429
-9.716514,0.22015165,0.06836882,-0.28155652,-0.30827752,0.04436627
-9.755663,0.41131428,-0.3434243,-0.27836257,-0.27314404,0.014573500000000001
-9.971189500000001,0.8573445,-0.53575534,-0.2964616,-0.21991149,-0.006178465699999999
-10.181878999999999,1.3321146000000001,-0.7381228,-0.32840115,-0.19435987,-0.031730086
-9.88565,1.4077618,-0.77217793,-0.3640757,-0.15337953,-0.050893802
-9.1599,1.2599151000000002,-0.6911103,-0.39760345,-0.11344639999999999,-0.08389798
-8.628578,0.94512546,-0.69181895,-0.43434262,-0.052761300000000004,-0.095609136
-8.464364999999999,0.52888876,-0.66935176,-0.45722390000000007,0.011100293999999998,-0.10412634
-8.494436,0.060362615,-0.6031377,-0.47160542,0.11011282,-0.14297737
-8.487196,-0.11072704,-0.5136808,-0.5051332000000001,0.28045696,-0.18184586
-8.513963,-0.05551675,-0.50489885,-0.58712876,0.38105774,-0.22336724
-8.739775,-0.016366763,-0.6747914,-0.7052876,0.45664793,-0.2462485
-8.75708,0.009691728,-1.2156703000000002,-0.8468860999999999,0.47687632,-0.25476572
-8.66633,0.13814543,-1.50873,-0.9943489999999999,0.44919538,-0.25956535
-8.751334,0.22891441,-1.7063954,-1.1173073999999998,0.33475414,-0.28031734
-8.7193575,0.030071173,-1.9305788000000002,-1.1545876,0.09040806,-0.26382396
-8.333018,0.32731609999999994,-2.0841336,-1.0933614999999999,-0.117181405,-0.26169467
-8.4624405,0.14021404,-1.711021,-0.9549569,-0.16402604,-0.25530675
-8.14971,-0.17669210000000002,-1.9933165000000002,-0.835716,0.17133898,-0.19994491
-8.144116,-0.3150961,-2.3943833999999997,-0.7138048,0.06965609,-0.16374679
-8.554032000000001,-0.31530678,-2.7630236,-0.76918405,-0.1826487,-0.12489576
-9.008701,0.30142042,-2.9307902,-0.8644616,-0.431777,-0.083356924
-9.506321,1.2610068,-2.8803492000000004,-0.9214117000000001,-0.5563412,-0.055152405
-10.115416,1.8505551,-2.8145084,-0.8554033000000001,-0.4882035,-0.08176868
-11.161874000000001,1.2552991000000002,-2.057213,-0.7564082,-0.28965485,-0.15203562
-13.336451,-0.9034472,-0.65395224,-0.66376615,-0.12622221,-0.22176154
-14.258056,-3.380699,-0.65725625,-0.56423,-0.0059166662,-0.26595327
-14.706892000000002,-4.4085965,-0.49804184,-0.4657411,-0.0027227136,-0.27286479999999996
-13.417891500000001,-2.2053185,-0.63279706,-0.3853687,-0.07405432,-0.25265387
-12.630506,-0.08420886,0.6920583,-0.32414255,-0.085241884,-0.21804398
-11.519788,-0.5456099,0.35819173,-0.28209758,-0.05862561,-0.19301596
-10.485521,-2.0046747,0.63389844,-0.24535839999999998,-0.052761300000000004,-0.16694075
-9.434217,-2.9538894,1.0916985000000001,-0.22834143,-0.04478515,-0.14512412
-8.442596,-2.8607167999999996,1.1561217,-0.21450096,-0.06447246,-0.124354705
-7.910997999999999,-2.36935,0.82237,-0.20277235,-0.09162979,-0.08655088
-8.270358,-2.321054,0.5478890999999999,-0.16870353,-0.105993845,-0.046094145999999996
-8.681337,-2.584244,0.07617392,-0.12878785,-0.087371185,-0.013107423
-8.831683,-2.7943687,-0.31455022,-0.087790065,-0.041050144,0.01616175
-8.790561,-2.8449435000000003,-0.38494933,-0.04893903,0.0094945915,0.04225442
-8.620859,-2.5371165,-0.35302982,-0.007941248,0.04569272,0.0821701
-8.576078,-2.0897262,-0.38891414,0.0048171086,0.10159562,0.12636183
-8.693603999999999,-1.6864566000000003,-0.4430231,-0.016999507,0.20858429999999997,0.1625425
-8.846364,-1.4370285,-0.59913456,0.004276057,0.2756573,0.21738076
-8.999373,-1.3995066999999999,-0.7783071,0.06496116,0.23893557,0.26954865
-9.106835,-1.5667943000000002,-0.96549535,0.14854497,0.19367918,0.30522317
-9.057513,-1.6862745,-1.1529901000000002,0.27096236,0.18729128,0.3270398
-8.969819000000001,-1.7133386000000002,-1.3448327,0.45835838,0.24265313,0.3329041
-8.882095,-1.7051408,-1.5631073,0.614321,0.40182716,0.3270398
-8.729317,-1.7200807,-1.8522598000000001,0.65903634,0.56152475,0.29351202
-8.533767999999998,-1.5344151000000001,-2.0985084,0.63615507,0.6839596,0.25038493
-8.116296,-1.5626668,-2.31232,0.7106806,0.5066864999999999,0.22963297
-7.9869710000000005,-1.6825491999999997,-2.2485003,0.797982,0.5141391,0.19928169
-8.330853999999999,-1.4402943000000001,-1.8279346999999997,0.7324972,0.49977502,0.1540253
-8.961372,-1.2332724,-1.3611228000000002,0.6499955,0.024399703,0.20034635
-9.382301,-1.5985702,-1.3396803,0.64573693,-0.5047143,0.17851228
-9.390231,-2.231808,-1.641819,0.66277134,-0.6074444,0.12636183
-9.080544999999999,-3.0378206000000003,-1.9275240000000002,0.6563834,-0.45732862,0.101874866
-9.234283,-3.5513769999999996,-2.3608265,0.58185786,-0.2539803,0.119973935
-10.352068,-4.0893345000000005,-2.150855,0.44238859999999997,-0.24120450000000002,0.15350170000000002
-13.060265,-2.4702415,-0.92526317,0.2518161,-0.24919811,0.18544123
-13.241276999999998,0.6258539000000001,-1.1251693999999999,0.07614872,-0.21458822,0.21418679999999998
-12.180309,0.5259008000000001,-2.0911052,-0.038816124,-0.32052973,0.23335052
-13.283892999999999,-0.9104,-1.8768052,-0.12398819,-0.40303144,0.23015657
-13.977148000000001,-1.6937732,-1.1995046,-0.22193606,-0.41793653,0.20940460000000002
-12.036878,-1.3397378,0.3307063,-0.31030208,-0.42538909999999996,0.19182913
-10.6480875,-0.46023262,1.6119298,-0.3614053,-0.4397706,0.15988961
-10.034636,0.18165287,1.0427324,-0.36088172,-0.46106362,0.12210324
-9.863192,0.5627810999999999,-0.13396996,-0.31881928,-0.43390632,0.08909906
-9.846059,0.7158376000000001,-0.8155609,-0.28262118,-0.37695622,0.06726499
-9.706812,0.91654825,-0.8852609,-0.2623928,-0.33169982,0.04490732
-9.822347,1.1828698,-0.9593279,-0.24802874,-0.3018896,0.019355701
-9.580608,1.330659,-0.76630735,-0.24537584,-0.23588125,-0.01150172
-8.979654,1.2785898,-0.65584844,-0.25494024,-0.16454963,-0.03970624
-8.536228999999999,1.0175836,-0.7793127,-0.26345745,-0.08789478,-0.06419321
-8.4124775,0.5335048000000001,-0.7746487,-0.27145106,-0.017086774,-0.08496263
-8.360035,0.04147715,-0.8274744,-0.26506317,0.026546458,-0.11955505599999999
-8.342336999999999,-0.22585940000000002,-0.80923057,-0.27729790000000004,0.10531317,-0.15575318
-8.264947,-0.14518438,-0.75271785,-0.3268129,0.19900244,-0.19036306
-8.402842999999999,0.056646813,-0.9649112,-0.4173082,0.33262485,-0.22495548
-8.44683,0.108371146,-1.4157585,-0.5482603,0.453454,-0.25795966
-8.475465,0.12993811,-1.5840325000000002,-0.6856002,0.50989795,-0.28883454
-8.521778,0.19561586,-1.8070668,-0.7963239000000001,0.5247856,-0.31970942
-8.493727999999999,0.1976653,-2.0370154,-0.8341103000000001,0.4593183,-0.302675
-8.329735000000001,0.18892166,-2.1166275000000003,-0.722322,0.29749137,-0.23560199
-8.426345,0.20547996,-1.8291796000000002,-0.46467647,0.05475098,-0.19994491
-8.465169,0.021040246000000002,-1.6199552,-0.27570966,0.5285206,-0.13180727
-8.352403,0.022859837999999997,-1.7978060000000002,-0.03775147,0.33210126,-0.10784389
-8.418386,0.09632353,-1.9741151000000001,-0.11227703,-0.17306685,-0.032794736
-8.5023365,0.27205792,-2.5566242000000003,-0.20170770000000002,-0.28485520000000003,-0.0067020644999999995
-8.651572,0.69141674,-3.0439115,-0.16018632,-0.24013986,-0.05461135
-8.896288,1.3879953999999999,-3.0602686,1.7453292e-05,-0.14378022,-0.14671238
-9.983725999999999,1.6584157,-1.9360951000000002,0.17142624,-0.049043752,-0.22762585
-13.121182000000001,0.7717757,0.2754481,0.28482029999999997,0.016947147,-0.28244662
-15.843132,-2.1889898999999997,1.0407691,0.33911747,0.0132295955,-0.30586895
-17.147799,-5.5013294,1.4194169,0.37212166,-0.030944687999999998,-0.28776988
-13.492466,-2.9688196,-0.8985247,0.37477455,-0.02401573,-0.2329491
-12.380848,0.48985368,1.3335704,0.37850955,-0.023474678,-0.20685643
-11.992527,0.12609781,1.6782588,0.40619048,-0.05914921,-0.20420352
-10.704523,-1.8317174999999999,1.685269,0.42055455,-0.06127851,-0.20792107
-9.325042,-2.9489286,1.6051399,0.39287362,-0.025080381000000002,-0.1813048
-8.461578,-2.529455,1.4349697,0.35082862,0.011100293999999998,-0.15149458
-8.344904,-1.9192494999999998,1.0531423,0.30398400000000003,0.004712389,-0.108384944
-8.592895500000001,-1.8891113000000002,0.3084881,0.26778588,-0.032532938,-0.06260496
-8.948089999999999,-1.838134,-0.34438196,0.24862215,-0.052761300000000004,-0.014154620500000001
-8.925708,-1.8385841,-0.5877574000000001,0.25340435,-0.023474678,0.020420352
-9.010003999999999,-1.5963676000000002,-0.64199084,0.26991516,0.019617502,0.05609488
-8.88831,-1.1835784,-0.7462821999999999,0.25288075,0.068050385,0.091751955
-8.751986,-0.8530156999999999,-0.76350135,0.18367845,0.2192308,0.13913764
-8.697359,-0.79614866,-0.90477836,0.14002776,0.2879095,0.2008874
-8.833752,-0.6763811,-1.1511513999999998,0.14322172,0.23254767,0.25998425
-8.972911999999999,-0.55712116,-1.4293193000000002,0.17462020000000003,0.14791666,0.30948177
-9.060387,-0.425804,-1.6688735000000001,0.24223424,0.18996164,0.35046209999999994
-8.951653,-0.5013363000000001,-1.845173,0.37212166,0.24425882,0.39678314
-8.654292,-0.7480826999999999,-1.8288444,0.505203,0.348071,0.41275293
-8.349252,-0.92833734,-1.915505,0.5595002,0.5237208999999999,0.37761945
-8.058749,-0.79164755,-2.0972347,0.6494545,0.5003161,0.30468214
-7.754264,-0.6314371999999999,-2.156151,0.61379737,0.24532348,0.28286552
-7.987785000000001,-0.6917998000000001,-1.9827629,0.6058038,-0.039985493,0.30257028
-8.594351,-0.5925266,-1.7402016,0.6446723000000001,-0.08576548,0.23921482
-9.1068735,-0.65590596,-1.7147368000000003,0.65425414,-0.22949335,0.14179055
-9.423003,-0.84566075,-1.5617473,0.6207089,-0.10653489999999999,0.047577675
-9.465276,-1.0596736999999998,-1.8587146,0.55789447,0.02974041,-0.0019198620999999999
-9.270502,-1.3779013,-2.1887984,0.39819688,0.051557027000000005,0.027890362000000002
-9.918009,-2.1208222,-1.7013772,0.25392795,0.06592108,0.048101272
-12.279209,-2.776163,-0.5171188,0.16716763,0.06806784,0.048101272
-14.64448,-1.4440101,-0.16933710000000002,0.16397369,-0.040526547,0.035866518
-15.375439000000002,0.6159611,-1.132898,0.1831374,-0.08415978,0.018832102
-13.533168,0.09319191,-0.38945043,0.20123646,-0.07244862,-0.012548917
-11.404694000000001,-1.4666401000000002,0.23121284,0.19432496,-0.057019908,-0.040770892
-10.575246,-1.6651769,1.5690161,0.16557938,-0.09054768,-0.045570545
-10.550807,-0.9099594999999999,1.2226806000000001,0.14854497,-0.12515756,-0.045570545
-10.593241,-0.29462087,-0.6039134,0.14960963,-0.12409291,-0.05248205
-10.398037,0.015198392,-0.99695516,0.14960963,-0.090024084,-0.058346357
-10.040381,0.40124905,-0.8448659,0.16025613,-0.039985493,-0.07164577
-9.995409,0.42531556,-0.35518459999999996,0.16345008,0.004712389,-0.08494517
-9.429621000000001,0.23765804,-0.05914636,0.14693926,0.060597833,-0.09613273
-8.476183,0.17762104,-0.11302547,0.115540795,0.089360856,-0.093479834
-7.976062299999999,0.078414895,-0.3276034,0.06337290000000001,0.09786061,-0.08229227
-7.992237599999999,-0.17762104,-0.6246185000000001,0.0053407075,0.10266027,-0.06899287
-8.159488,-0.3174807,-0.89248174,-0.06277949,0.13459979,-0.06419321
-8.136656,-0.33390495,-0.94914776,-0.1319818,0.16601571,-0.08122762
-8.073153,-0.0812209,-0.8438985999999999,-0.20170770000000002,0.26235790000000003,-0.10306169
-8.166086,0.115055755,-1.0024427,-0.28687978,0.31717870000000004,-0.1115789
-8.130317,0.23063825,-1.358652,-0.41144392,0.29429743,-0.10093239
-8.161622999999999,0.35870886,-1.7421073,-0.5221676,0.27619836,-0.09559168
-8.086914,0.63409954,-2.0938156,-0.5322905,0.11704178,-0.10145599
-8.355094,0.92556006,-2.2122042,-0.43221334,0.11384783,-0.10358529
-8.754800999999999,0.86615515,-2.2908201,-0.35501742,0.29642670000000004,-0.11475539999999998
-8.895436,0.6226648,-2.3712556,-0.24429373,0.17931512,-0.068451814
-9.191857,0.34336683,-2.2762537,-0.30126128,-0.38652062,-0.042900192999999996
-9.195535000000001,0.07433517,-2.5123029,-0.37578684,-0.5094965,-0.06684611
-9.130537,0.29363447,-2.8936036,-0.3853687,-0.57817525,-0.07538077
-9.441322999999999,1.0473005,-2.8135316,-0.3353301,-0.5009793,-0.08229227
-10.472248,1.4374117,-2.3400927000000005,-0.26132816,-0.32264155,-0.11690215
-12.669445,0.07306146,-1.3898916000000001,-0.21341886,-0.11025245,-0.16055284
-14.016347,-2.0103538,-1.3406764,-0.15486306,-0.119834304,-0.17332865
-14.901280999999999,-3.1187541000000003,-0.90355253,-0.06756169,-0.19701277,-0.16001178
-14.04386,-1.8247743000000003,-1.3531357,0.008011062,-0.19701277,-0.13233086
-13.314855,-0.10418608,0.060544573,0.07082546,-0.15123278,-0.12116075
-12.512788,-1.0665977,0.7926053000000001,0.12512265,-0.111840695,-0.12222540400000001
-10.832930000000001,-2.6830667999999998,0.4028771,0.16132078,-0.07351327,-0.095609136
-10.020749,-3.0060446,0.851608,0.187396,-0.060737457,-0.06471681
-9.0011835,-2.4229321,0.6843969,0.20762436,-0.06819001599999999,-0.042376593
-8.472783,-1.7046428,0.41097910000000004,0.24701644,-0.05222025,-0.02851868
-8.986692999999999,-1.6748686000000002,-0.31219435,0.29546678,-0.009110618000000001,-0.018936822
-9.087077,-2.0553837,-0.83431226,0.342835,0.05103342599999999,-0.0067020644999999995
-8.488623,-2.50128,-0.6677141,0.388615,0.10691887,0.009773844
-8.132002,-2.4736797999999998,-0.39878779999999997,0.42322489999999996,0.11011282,0.04066617
-7.9925823000000005,-2.0210319,-0.31696355,0.44397685,0.097337015,0.08538151
-7.9897194,-1.6922218,-0.3968629,0.4338714,0.1580221,0.13274974
-8.205188,-1.5618718,-0.5971139,0.44771186,0.10798352,0.18544123
-8.441189999999999,-1.5214290000000001,-0.8621233,0.48178068,0.046774823,0.24560273
-8.491525,-1.5253077,-1.0022607,0.52117276,0.050492376,0.2812598
-8.515725,-1.5098027,-1.1073662,0.5893104,0.09307841,0.30202922
-8.510076,-1.5088451,-1.3385407,0.71652746,0.12660618,0.335557
-8.518053,-1.5806041000000002,-1.6027266000000002,0.8591907,0.23202407,0.38400733
-8.486467,-1.5075234,-1.9788269,0.87889546,0.45985934,0.39091885
-8.420925,-1.2989215,-2.26186,0.9406452,0.5285206,0.42765802
-8.07388,-1.1490731,-2.278466,0.9331927,0.4486718,0.34887385
-8.281553,-1.3211972,-2.1467178,0.7655014,0.50296897,0.20408134
-8.828485,-1.1815578000000002,-1.6424129,0.6441312,-0.19010127,0.23867378
-9.212859,-0.9929138000000001,-1.2556821000000002,0.67128855,-0.5664465999999999,0.22165681
-9.287971,-1.0669425,-1.4837251,0.6515838,-0.23108159,0.17640042
-9.274697,-1.3772501,-1.9909893,0.67980576,-0.037315138,0.086969756
-9.150399,-1.6812563000000003,-2.5982355999999998,0.6249675,0.028134707000000002,0.056635935
-9.138591,-1.7706654,-3.0706403,0.46526986,0.06806784,0.08058185
-10.3500185,-2.3560286,-2.6975279999999997,0.23104669,0.17240362,0.11306243
-11.978392999999999,-1.5087684,-2.018791,0.044732787,0.09946632,0.12316789
-13.021775,-1.1062266,-0.57021266,-0.10695378,-0.10012954,0.11625638
-15.427258499999999,0.42136994,0.38693172,-0.274645,-0.20978858,0.0768643
-15.519896,1.8158581999999999,-0.3768282,-0.41411427,-0.19861847,0.034260813
-11.521416,-0.8603898999999999,0.037043087,-0.50726247,-0.1698729,0.010838495
-9.914322,-1.4471896,1.4116597,-0.5434606,-0.21884683,-0.01308997
-10.36583,-0.89108354,0.8482656999999999,-0.52270865,-0.24972170000000002,-0.032253683
-10.490501,-0.59635735,-0.42479843,-0.46361179999999996,-0.17732546,-0.056740652999999995
-10.110828999999999,-0.09767385,-0.7743135,-0.3768515,-0.08044223,-0.088139124
-10.0117,0.9525761999999999,-1.0269402,-0.26080456,0.012164945,-0.11103784
-10.0831995,2.0388924999999998,-0.88860315,-0.14953981,0.074455746,-0.12592551
-9.465285,2.3452356,-0.9247173000000001,-0.08194321,0.1447227,-0.1270076
-8.400421000000001,1.7329423,-0.9807511999999999,-0.06649704,0.17879152,-0.11529645
-8.025182000000001,0.90608084,-0.8229733,-0.08194321,0.1516342,-0.10145599
-8.041136999999999,0.20333476,-0.81502455,-0.17030923,0.3336895,-0.14032447
-8.043302,-0.2545228,-0.7125335999999999,-0.35023522,0.53544956,-0.189822
-7.9836089999999995,-0.5033474,-0.5245217,-0.5264262,0.56206584,-0.25370106
-8.024445,-0.72972393,-0.46451342,-0.64886105,0.5237384,-0.2968107
-8.138504,-0.90719175,-0.7617584,-0.73455673,0.43324307,-0.34526104
-8.236542,-0.8886318999999999,-1.1437483999999998,-0.7830071,0.26448720000000003,-0.40594614
-8.256912,-0.6304029000000001,-1.6075723999999998,-0.78513634,0.13514084,-0.4245688
-8.180622999999999,-0.28287974,-2.3355916000000003,-0.59669316,-0.09747664,-0.39795253
-8.372800999999999,-0.13054146,-2.4342040000000003,-0.37152824,-0.26569146,-0.26541220000000004
-8.672144,-0.05491341,-1.891745,-0.1969255,-0.15974998,-0.14456563
-8.398648,0.10340078,-2.2138035,-0.19212584,-0.07566002,-0.12487831
-9.007887,0.09918699,-2.897348,-0.27677432,-0.33169982,-0.12168436
-9.523358,0.58977807,-3.351164,-0.34597662,-0.50523794,-0.11262609999999999
-9.751593,1.4655194999999999,-3.549203,-0.30445522,-0.4408178,-0.12061971
-10.246464999999999,1.5980242,-3.0537658,-0.20224875,-0.22523473,-0.14884168
-12.025338,0.46212882,-1.8115488000000002,-0.09950122,-0.019216076000000002,-0.20312142
-14.249417000000001,-2.0800919999999996,-0.9618753000000001,0.014398966000000001,0.049427725,-0.23879595
-16.001877,-4.145704299999999,-0.1706204,0.09531243,0.023876105,-0.21804398
-16.091545,-3.8951267999999994,-0.13047442,0.13205162,0.012164945,-0.16107644
-12.523916,-1.8669411,0.9637524,0.13522811,0.051015973,-0.10732029400000001
-10.928775,-1.1138688,0.7959284000000001,0.14268066,0.06965609,-0.08600982
-10.565947999999999,-1.745373,0.55850023,0.17835520000000002,0.046774823,-0.07696902
-9.7598295,-2.3195984,0.9555642,0.22200587,0.006318091999999999,-0.060458205999999994
-8.587839,-2.1347468,1.0713383,0.23211133,-0.016563175,-0.03544764
-8.033408999999999,-2.013648,0.9470504000000001,0.22146483,-0.0085695665,0.0012740904
-8.128976,-2.4109995,0.26848578,0.20549506,0.0073827426000000005,0.037454765
-8.269141000000001,-2.7302039000000002,-0.43715249999999994,0.19113101,0.031869713,0.07367035
-8.36285,-2.6227522,-0.70894223,0.19484855,0.05688028,0.10667452
-8.402652999999999,-2.286654,-0.8822633,0.21561797,0.050492376,0.14339624
-8.515448,-1.8049791000000002,-1.0560536,0.21614157,0.03932227,0.17107718
-8.502098,-1.4922868,-1.2205449,0.21987657,0.048904125,0.18650588
-8.600902,-1.2714455,-1.3129226999999999,0.24808110000000003,-0.0085695665,0.20781635
-8.661791000000001,-1.200788,-1.4776151000000002,0.26139796,-0.044767695999999996,0.22537437
-8.621739999999999,-1.1397549,-1.6643916,0.25713935,-0.053825952,0.23122121
-8.639735,-1.0339695,-1.788574,0.29227284,-0.046373397000000004,0.24827309
-8.575351,-0.9802341,-2.0152667,0.36519268,-0.010175269,0.275954
-8.500173,-1.0035631999999999,-2.239383,0.45622906,0.036128316,0.30576423
-8.33073,-1.109789,-2.4748478,0.51530844,0.117024325,0.31693435
-8.257928,-1.1643865,-2.4536736,0.48656288,0.28099802,0.30415854
-8.307583000000001,-1.4600416,-2.1341052000000005,0.4966858,0.28152162,0.272219
-8.636039,-1.5398068,-1.7853658,0.42109558,0.2144486,0.15617207
-9.248696,-1.2042258999999997,-1.3208811000000003,0.29972538,0.07126179,0.057683133
-9.448478,-0.9340930000000001,-1.3558268999999998,0.29813713,-0.38491490000000006,0.085905105
-9.461282,-0.891074,-1.820503,0.34389967,-0.45200536,0.061418135
-9.243668,-0.93375784,-2.1958947,0.36412805,-0.34128168,-0.040770892
-8.986089999999999,-1.0016094000000002,-2.7117016,0.36786306,-0.03466224,-0.11103784
-8.709531,-1.2994099,-3.237133,0.32421237,0.016441,-0.10890854
-8.656236999999999,-1.9413145,-3.3572550000000003,0.23317600000000002,0.009512044499999999,-0.012025318
-10.356225,-2.2915572999999996,-2.4389446,0.15971509,0.062203534000000005,0.047054075
-12.363734,-1.355099,-1.081528,0.13151056,-0.044244096,0.063023835
-14.431175,-0.19006132,0.29132646,0.115540795,-0.15603243,0.059288833
-15.586433999999999,1.4285723,0.22812912,0.09637708,-0.14325662,0.03799582
-13.152239999999999,-0.6854408000000001,-1.0796221000000001,0.06550220400000001,-0.06553711,0.03160791
-10.976983,-2.1753332999999997,0.67343146,0.038362335,-0.051155599999999996,0.02628466
-10.423167,-2.4955722999999996,1.2557302,0.03143338,-0.07883652,0.017767452
-10.864417999999999,-1.5387056000000001,0.26358247,0.053791045999999995,-0.060737457,0.0034033920000000003
-11.1093645,-1.1774108,-0.53634906,0.089448124,-0.0027227136,-0.018936822
-10.751669999999999,-0.41690713,-0.52777785,0.12831661,0.07072074,-0.04342379
-10.441171,0.25417802,-0.3600592,0.14480996,0.16175711,-0.065798916
-9.69484,0.4660553,-0.34585682,0.13151056,0.21711896,-0.07803367
-8.572056,0.27382007,-0.26408044,0.10009463,0.2708751,-0.068451814
-7.850817,-0.10504799,-0.1686763,0.03728023,0.26555184,-0.048747044
-7.7098947,-0.35011846,-0.30591193,-0.09578366599999999,0.22561869999999998,-0.056217055999999994
-7.653218700000001,-0.6616903000000001,-0.52318096,-0.28900906,0.31826079999999995,-0.08709193
-7.5244875,-0.8631575999999999,-0.5316085,-0.45350635,0.28471556,-0.15521213
-7.5090976,-0.7007541,-0.41618887,-0.5759411999999999,0.30707324,-0.1749169
-7.8065243,-0.46831542,-0.5917509,-0.6584429,0.32304299999999997,-0.15362388
-7.9466424,-0.34375948,-1.0328012,-0.726057,0.29377383,-0.15894714
-7.976914999999999,-0.15268303,-1.687079,-0.789395,0.12714724,-0.1786519
-7.982575,0.0058610057,-2.5220041,-0.8277224,-0.11716395,-0.1796991
-7.938761,0.33038068,-3.1241076,-0.7457443,-0.49192104,-0.11262609999999999
-8.836492,0.60104996,-2.6102736,-0.7106108,-0.21245892,-0.033841934
-9.182022,0.7489541999999999,-2.6534746,-0.6600486,0.2921681,-0.046094145999999996
-9.805569,0.80121475,-2.6395880000000003,-0.6584429,-0.06021386,-0.04448844
-10.056652,0.69801515,-2.9040133999999997,-0.7361624,-0.40355504,-0.04448844
-10.0306425,0.88873726,-3.0510652,-0.7734251999999999,-0.5701816,-0.031189033999999997
-9.88494,1.1930690000000002,-2.9874945,-0.6600486,-0.4908564,-0.06632251
-10.379143,0.619562,-2.5230862999999997,-0.5014156,-0.2502453,-0.11794935
-12.05493,-0.65996647,-1.8079956999999998,-0.3273365,-0.004310963,-0.19992746
-15.072754000000002,-2.374531,-0.87814534,-0.16550957,0.05581563,-0.24305455
-16.102118,-4.4201846,-0.8191713,-0.043615777,0.038781215,-0.22336724
-12.552493,-2.3552241,-0.46735775,0.054855697,0.019617502,-0.18449876
-11.257307,-0.73105514,0.36932957,0.12086405,0.036651913,-0.14510667
-11.408027,-1.0846978,0.2942857,0.17355554,0.020158553,-0.1312662
-10.296877,-2.6371078,0.14938861,0.21933553,-0.0016580628,-0.12807226
-9.690407,-3.4578976999999997,1.004109,0.26618016,-0.0085695665,-0.13498376
-8.659713,-3.4287937000000004,1.1167610000000001,0.29120818,-0.030403635,-0.11475539999999998
-8.086022999999999,-2.8568569999999998,0.8539254999999999,0.3023783,-0.06021386,-0.07749262
-8.371796,-2.8077474,0.29021555,0.31621876,-0.09747664,-0.03757694
-8.532312,-3.0940363,-0.21504720000000002,0.32792990000000005,-0.09321803599999999,-0.0019024089
-8.710661,-3.2256122000000005,-0.4414333,0.3380528,-0.054349552999999995,0.03853687
-8.771627,-2.9665213,-0.7118824,0.32686526,-0.0016580628,0.0752586
-8.69937,-2.3280451,-0.8640100000000001,0.28588492,0.05635668,0.11358603
-8.704676,-2.0557573000000002,-0.7801458,0.236911,0.08510225,0.15351915
-8.687055,-1.8505839,-0.83015597,0.19058995,0.06539748599999999,0.1944995
-8.764474,-1.6880368000000001,-1.0032759,0.17462020000000003,0.028134707000000002,0.23602088
-8.950206,-1.5186135,-1.2255536,0.16557938,-0.030403635,0.2674368
-9.046099,-1.5152233,-1.4849893,0.1810081,-0.07192502,0.2892534
-9.0330925,-1.555532,-1.7235858,0.24436355,-0.06021386,0.31054643
-8.849247,-1.5832568,-1.9417838,0.3258006,-0.0037873646000000003,0.32279864
-8.583788,-1.5054548,-2.20211,0.42907175,0.08988445,0.33663909999999997
-8.413436,-1.4039886000000001,-2.3722517000000005,0.5451187,0.15695746,0.35952038
-8.46538,-1.2731886000000001,-2.3269439,0.6270968000000001,0.2575757,0.38187805
-8.606935,-1.1919868,-2.1805142999999996,0.5727996,0.37414622,0.38561305
-8.874271,-0.9019628000000001,-1.803916,0.42003092,0.45612434,0.35154423
-9.134435,-0.57806563,-1.5363878999999998,0.36412805,0.46198866,0.26689574
-9.329869,-0.90726835,-1.618375,0.42055455,0.28312729999999997,0.20781635
-9.360505,-1.3579912,-1.8273792000000002,0.39927897,0.22457151,0.14819591
-9.151950999999999,-1.554402,-2.0410473000000002,0.42268384,-0.19968311,0.15032521
-8.861103,-1.6674179,-2.346107,0.5057265999999999,-0.5126904999999999,0.09070476
-8.654541,-1.8506414,-2.6883917,0.49136254,-0.40090212,0.017767452
-8.533462,-1.9106879,-2.9665977999999997,0.38116246,-0.22788765,0.0039269909999999995
-8.677037,-2.3002245,-2.9414492,0.22519983,-0.119834304,0.06354744
-10.047162,-2.2873054,-2.3548217,0.06389651,-0.10067059,0.13220869
-12.164814,-1.8268718000000002,-1.1649516000000002,-0.08726646,-0.07138397,0.15884241
-14.037463,0.6004754,-0.15919527,-0.19479620000000003,-0.19701277,0.16788322
-12.896730999999999,1.5536454,-1.5001014,-0.2618692,-0.2917667,0.17320648
-12.283395,-1.1495137,-1.7513490000000003,-0.32255429999999996,-0.2672797,0.15564846
-12.915962,-2.3325272,0.021605276,-0.39973277,-0.22629939,0.12955579
-11.42447,-2.0452131999999996,1.6019892,-0.43434262,-0.26621506,0.11039207
-11.003914,-0.83707035,1.1697398,-0.43540728,-0.34180528,0.0816465
-11.063203999999999,0.01298615,-0.21630175,-0.43008402,-0.32902947,0.06354744
-10.962303,0.10101616,-0.674121,-0.41516146,-0.26567402,0.05183628
-10.395499000000001,0.53081363,-0.81582904,-0.39547417,-0.20607102,0.032148965
-10.326182000000001,0.9981331,-0.88020426,-0.4007974,-0.107058495,0.01298525
-9.855377,1.160029,-0.8525848,-0.40772638,-0.07405432,-0.01308997
-8.885753999999999,0.87443906,-0.7982843000000001,-0.41517892,-0.0037873646000000003,-0.033318337
-8.232673,0.59707564,-0.8673905999999999,-0.44071308,0.09361946,-0.03544764
-8.0114975,0.21655075,-0.96678823,-0.43380159999999995,0.10266027,-0.034382987999999996
-8.104746,-0.18044620000000003,-0.8530156999999999,-0.44125414,0.13672909,-0.060999255999999995
-8.063048,-0.44013090000000005,-0.80086046,-0.50193924,0.20912535,-0.108367495
-8.057878,-0.39585729999999997,-0.94025093,-0.5929755999999999,0.23041837,-0.14775957
-8.108874,-0.3182373,-1.1005858,-0.6914471,0.26342255,-0.17704620000000001
-7.98608,-0.080904864,-1.4776055000000001,-0.80430007,0.29003882,-0.20792107
-8.079799000000001,0.08067502,-2.0177088,-0.94057536,0.31932545,-0.22867304
-8.158109,0.14153562,-2.3630579,-1.0662042,0.26768115,-0.23931955
-8.000254,0.15369816,-2.5684709999999997,-1.1913093000000001,0.23680627,-0.25209534
-8.307266,0.011942278,-2.4658554,-1.1684107,0.10372492,-0.20366247
-8.90552,-0.055689134,-1.8997511999999999,-1.0204242000000001,-0.21884683,-0.18662806
-8.892008,-0.21496099,-2.1721156,-0.79951787,-0.10386454,-0.12274901
-9.197928,-0.46271297,-2.2341254,-0.53600806,0.19422024,-0.11955505599999999
-9.332761,-0.4920755,-2.5558486,-0.49502772,-0.07564257,-0.1104968
-9.273365,0.32708627,-2.8608029999999998,-0.6243741,-0.41526620000000003,-0.08016297
-9.032126,1.2042643,-3.2827281999999998,-0.71806335,-0.5142787,-0.046617742999999996
-9.04675,1.9867182,-3.3790516999999998,-0.6701541,-0.4908564,-0.049288097999999995
-10.19636,2.1093874,-2.446309,-0.53761375,-0.36683330000000003,-0.10358529
-11.84063,0.19540517,-1.9302628000000002,-0.37896335,-0.11129965,-0.18928096
-14.618957,-2.0328112000000003,-0.20171627,-0.23045327,-0.006981317,-0.2441192
-16.128501999999997,-4.374771599999999,0.4117165,-0.114947386,-0.06127851,-0.24944246
-15.014767,-4.427281400000001,-0.12315774,-0.02284636,-0.10545279,-0.20950933
-11.894164,-0.61823076,0.8908633,0.043668135999999996,-0.11238175,-0.16585864
-11.523753,0.31782550000000004,1.0462087,0.11821115,-0.120898955,-0.15734144
-10.90422,-0.9930382999999999,0.69801515,0.17835520000000002,-0.120898955,-0.15575318
-9.847178999999999,-2.0357802,0.92217946,0.21507692,-0.09267698,-0.14723597
-8.86095,-1.9224961,1.0677564,0.22040018,-0.08789478,-0.13178982
-8.242461,-1.5348939,1.0873506000000002,0.22307053,-0.09641199,-0.10677924
-8.360571,-2.0666463,0.72528034,0.22945844,-0.07990117,-0.068451814
-8.986262,-2.5593633999999996,0.023635559,0.23424064,-0.06499606,-0.02693043
-9.032883,-2.6513965,-0.24944708,0.2502104,-0.031991884,0.016179202
-8.848625,-2.3821828,-0.33370382,0.26778588,-0.0021816615,0.063023835
-8.71453,-1.9406153999999998,-0.38915354,0.26352727,0.09681341,0.10400417
-8.534324,-1.5723392,-0.45783842,0.2432989,0.2144486,0.13435544
-8.420254,-1.2559408,-0.54154927,0.2736327,0.26928684,0.18226473
-8.525895,-1.0700358,-0.6916465,0.31995377,0.23734732,0.21472786
-8.703297000000001,-0.8744773000000001,-0.9057457,0.3667984,0.21019000000000002,0.22430971
-8.798967999999999,-0.87473595,-1.1318061000000001,0.44025929999999996,0.21818360000000003,0.20142844
-8.820182,-0.8563389000000001,-1.3995737,0.5525886999999999,0.20486675,0.16575392
-8.849803,-0.8812769,-1.6236135,0.5312781999999999,0.22670081,0.09229301
-8.640205,-0.82399803,-1.9211936,0.5488536999999999,0.41514403,0.0039269909999999995
-8.223364,-0.7887171,-2.121598,0.68832296,0.32623693,-0.00083775807
-7.807961,-0.86577207,-2.2309362999999998,0.8187514,0.39491564,0.04118977
-7.9028287,-0.8068939,-2.0633519000000002,0.80436987,0.2682222,0.057700586
-8.449464,-0.62979954,-1.6587508999999998,0.74687874,0.011641346,0.09494591
-9.083026,-0.7032537,-1.5191401000000002,0.727715,-0.2353402,0.08803441
-9.40044,-1.1422448,-1.7639425,0.7633896,-0.35777503,0.058765236
-9.440136,-2.0751886,-2.036029,0.7852062,-0.31785935,0.05609488
-9.910491,-2.575529,-1.8685881999999998,0.7527256,-0.22949335,0.06780604
-11.325705000000001,-3.0235224,-0.7753574000000001,0.7053574,-0.16613789,0.08325221
-13.644382,-0.8833646999999999,0.1015333,0.65425414,-0.13793337,0.09122836
-13.535294,0.9807703999999999,-0.6258922,0.64573693,-0.14165092,0.10560987
-12.865625999999999,-0.62301916,-1.6276741000000001,0.67448246,-0.21991149,0.09655161
-13.828448999999999,-1.290446,-1.3501094999999999,0.67074746,-0.24598670000000003,0.08005825400000001
-13.257270000000002,-1.3551468999999998,-0.21060356,0.6345668000000001,-0.24598670000000003,0.062482785
-11.671992,-0.80182767,0.8313434999999999,0.5871811,-0.28059658,0.047054075
-10.471855,-0.16024870000000002,1.7830673,0.54140115,-0.28272587,0.031084314
-9.531202,-0.19731094,1.1332235000000002,0.49562114,-0.27473226,0.0065973448
-9.200610000000001,-0.2416803,0.37027764,0.45677012,-0.24118705,-0.021066124
-9.511838000000001,-0.31749988,0.16291106,0.40299650000000004,-0.18797196,-0.03757694
-9.712605,-0.016127342,0.10223241,0.33485886,-0.13739231,-0.06471681
-9.710671000000001,0.1998105,0.26139897,0.2555511,-0.11609929999999999,-0.090268426
-9.144615,0.20242497,0.23912328,0.14695673,-0.009093165,-0.12007865
-8.584257000000001,0.21366814,-0.021107282,0.08306022,0.09201376,-0.13711306
-8.415053,0.19596061,-0.26360159999999994,0.020786871999999998,0.24425882,-0.15840608
-8.310839,0.16313133,-0.37514266,-0.024975661,0.47902307,-0.17756979
-8.272159,0.20549911,-0.48246035,-0.118664935,0.60943407,-0.21272072
-8.271947,0.26418579999999997,-0.5700594,-0.2836858,0.6131691,-0.28084093
-8.363856,0.40125865,-0.69881,-0.4678704000000001,0.66853094,-0.316498
-8.463598,0.47712609999999994,-1.0060915000000001,-0.6142512,0.6664015999999999,-0.32927382
-8.464423,0.5490670999999999,-1.5103008,-0.6414085,0.51255083,-0.26008895
-8.334303,0.7896939000000001,-1.9138386000000003,-0.45190066,0.31665509999999997,-0.123272605
-7.8973603,1.0167121,-2.249956,-0.26878070000000004,0.12875293,-0.13178982
-7.792676400000001,0.94312394,-2.0458167,-0.16709782,0.53705525,-0.07855727
-7.0700965,0.5054350999999999,-2.55786,-0.018587757,0.20273745,-0.10145599
-7.0375834,0.34080982,-2.8385274,-0.06543239,-0.08789478,-0.07216936
-7.989298,0.43225875,-2.729859,-0.22671826,-0.41580725,-0.068451814
-9.054383,0.8876646999999999,-2.447104,-0.31988394,-0.5951922,-0.034382987999999996
-10.019427,1.4804882,-2.3760154,-0.28475046,-0.51481974,-0.02851868
-10.709265,1.8638765,-2.4935036,-0.18893189999999999,-0.29550170000000003,-0.059393555
-13.998725,0.91417325,0.2014194,-0.06756169,-0.06873106,-0.10997319
-17.09571,-3.0624616000000002,0.23945849,0.035168383,0.0068416907,-0.13978341
-15.478916,-6.3583775000000005,-1.8000183,0.08627162,0.0015358897,-0.12007865
-13.635457999999998,-2.7526424,-0.65182614,0.100635685,-0.06445501,-0.08600982
-13.652455999999999,-0.46133393,0.5420856,0.09637708,-0.111840695,-0.043964844
-12.637277000000001,-0.37819767,0.40952340000000004,0.10117674,-0.15336208,-0.021066124
-11.127655,-1.4514034,0.7256059,0.12245230000000001,-0.18584266,-0.020542525
-9.925699,-2.1242313,1.1892191,0.15015067,-0.16294394,-0.0045727626
-8.52196,-2.5430539,1.3036333,0.16345008,-0.11609929999999999,0.01563815
-7.741785,-2.588381,1.0282809000000002,0.17409660000000002,-0.08148942,0.040142573
-8.082931,-2.5043444999999998,0.54135776,0.17357299,-0.07883652,0.072064646
-8.448534,-2.5387732999999995,-0.013158531999999999,0.17142624,-0.07138397,0.09974556400000001
-8.681739,-2.3172232999999998,-0.30961818,0.1826138,-0.043703045999999995,0.12529719
-8.745904,-2.1538334,-0.44695914,0.21135937,-0.023474678,0.14713125
-8.729394000000001,-1.9767582,-0.5861675999999999,0.24116959999999998,0.0068416907,0.17852972
-8.625447,-1.6232592,-0.62712765,0.20284216,0.13674654,0.2024931
-8.506129,-1.339642,-0.7201854,0.15334463,0.22937118,0.22752112
-8.502566,-1.3452061000000002,-0.8769482,0.13896312,0.28471556,0.2802126
-8.576863000000001,-1.2440081,-1.0658412,0.14854497,0.28366837,0.32386329999999997
-8.785179,-1.2682375,-1.2932424999999999,0.16931438,0.26715755,0.34035665
-8.841652,-1.1449072,-1.5354878,0.2651155,0.22509511,0.36219072
-8.71975,-1.2295280000000002,-1.7080808999999997,0.34178782,0.25438175,0.36697292
-8.623704,-1.3289255,-1.836573,0.36840409999999996,0.42846087,0.33450979999999997
-8.415954,-1.3216281,-2.0241156000000005,0.40566690000000005,0.41142645,0.25146705
-7.879797,-1.208143,-2.1297382999999996,0.5382071999999999,0.19956094,0.15884241
-7.648536,-1.4980136,-2.233206,0.60901517,0.22031291,0.13967870000000002
-7.883158,-1.3063052,-1.9784437,0.54778904,0.00045378560999999995,0.17214182
-8.669663,-0.52748096,-1.5992405,0.5690821,-0.17304939,0.15299556
-9.240259,-0.22510284,-1.7517512,0.59356904,-0.25183356,0.09548696
-9.44548,-0.9344091,-2.3224617999999997,0.57972854,-0.2922903,0.071017444
-9.4233675,-1.7095271,-2.5969906000000003,0.47858673,-0.23479915,0.07154105
-9.923152,-2.6347709999999998,-2.4861677,0.33325318,-0.15336208,0.08325221
-11.7980995,-3.0180156000000005,-1.7302226000000003,0.19378391,-0.13048081,0.10667452
-14.440454999999998,-1.6658853999999998,-0.34541625,0.12512265,-0.15709709,0.12742649
-14.726189000000002,0.21535365,0.3618309,0.099571034,-0.25450389999999995,0.13274974
-14.4747305,0.14161225,-0.48587929999999996,0.07988372,-0.23692845,0.1338144
-13.586701999999999,-1.0326672,-0.6861590999999999,0.041015237999999996,-0.22308798,0.12103858599999999
-11.905877,-1.7636456000000003,0.9937181999999999,-0.0026179939,-0.25396284,0.09496336400000001
-10.967991,-1.2775843,1.4036628999999998,-0.03827507,-0.2880317,0.06675884
-9.998837,-0.37919366,0.6595354999999999,-0.06808529,-0.34126422,0.02576106
-9.172474000000001,0.027657817999999997,-0.10623552,-0.09417797,-0.3071954,-0.0056199604
-9.22665,0.25258827,-0.35623807,-0.11386528,-0.24492206,-0.032777283
-9.478137,0.72113353,-0.41162074,-0.14261085,-0.18423696,-0.059934605
-9.586882000000001,1.0168366,-0.09225338,-0.18626153,-0.12833406,-0.08546878
-9.003204,0.90806323,-0.09960837,-0.24003513,-0.06925467,-0.10889109
-8.272044000000001,0.6740253,-0.23942016,-0.2730393,-0.028797932000000002,-0.13498376
-7.945924300000001,0.4692348,-0.46373770000000003,-0.31082568,0.07658505,-0.13924237
-7.969042999999999,0.22694159,-0.62739575,-0.33318335,0.083514005,-0.15468854
-8.173354,0.07731356,-0.69780445,-0.40718532,0.20488420000000002,-0.18448131
-8.193753,0.06836882,-0.81286025,-0.5008746000000001,0.25385815,-0.21163863
-8.270789,0.1477031,-0.85964286,-0.5769884,0.30654964,-0.22760838
-8.4302435,0.18301277,-1.0522038,-0.62863266,0.34913567,-0.22706734
-8.486363,0.29462087,-1.5541242,-0.6999643,0.38107517,-0.22706734
-8.445651,0.5464526,-1.9770552,-0.7755545,0.30548498,-0.21748547
-8.421154,0.6180584,-2.249726,-0.7931125,0.13353515,-0.17172295
-8.134722,0.45336604,-2.3347106,-0.6355441999999999,-0.13739231,-0.08175122
-8.267983000000001,0.4591217000000001,-2.1310119999999997,-0.45615926,-0.34606388,-0.070581116
-8.476824,0.37090972,-1.8758571,-0.24322908,0.11119492,-0.060458205999999994
-8.737860000000001,0.07476613,-2.1465167999999997,-0.1937141,0.15697491,-0.10356784
-9.407200999999999,0.083940715,-2.3058653,-0.29752627,-0.27473226,-0.046617742999999996
-9.690895,0.44248679999999996,-2.5117857000000003,-0.44497168,-0.42111304,-0.024260076000000002
-9.816897,1.165507,-2.9424644,-0.46307075,-0.46211082,-0.045553092
-9.824147,1.6102635,-3.6026317999999997,-0.32892475,-0.41207224,-0.10517354
-11.169880000000001,1.1188871,-2.1896222,-0.15912166,-0.23958135,-0.16692328
-13.694566,-0.41469488,-0.2893632,0.005358161,-0.08255407,-0.23080234
-17.019479999999998,-3.1837137,1.7046907999999998,0.09159488,-0.06658431,-0.23877849
-15.854624,-6.124272,-0.09515515,0.16718508,-0.095870934,-0.20364502
-11.200497,-1.9099121,0.29991686,0.21296507,-0.06819001599999999,-0.14030702
-11.472192,-0.40866148,1.2005676,0.25768042,-0.059131755999999994,-0.10250319
-11.532267,-0.18879716,1.6752805,0.31197759999999997,-0.045832347,-0.09611528
-10.773658,-1.4559906999999999,1.572119,0.3407232,0.011117746999999999,-0.10037389
-9.795838,-2.0349758000000002,1.555034,0.36308083,0.025481807000000002,-0.10197959
-8.891989,-2.043384,1.4533091999999999,0.38650316,0.041992623,-0.062046453
-8.63239,-2.1655748,1.3200287,0.40831977,0.07019714,-0.01839577
-8.600529,-2.5344252999999997,0.58644533,0.4104491,0.10906562,0.017784905
-8.667211,-2.6246674,-0.14854585,0.4072551,0.17720328,0.03588397
-8.439255000000001,-2.5258827,-0.20794120000000002,0.40938443,0.21073106,0.06356489
-8.347681,-1.9088299,-0.21475989,0.41577232,0.22245966,0.101368725
-8.2368965,-1.4210450000000001,-0.20447439,0.4072551,0.28312729999999997,0.13222614
-8.129158,-1.1296993,-0.26047954,0.39502037,0.28206265,0.16310102
-8.180154,-0.8746402,-0.41949287,0.3982143,0.23362978,0.1934523
-8.258014,-1.1060925,-0.6018064999999999,0.41364303,0.18517943,0.21420425
-8.51629,-1.0454042,-0.7604751000000001,0.46581092,0.2027549,0.22910938
-8.594236,-1.0854353,-1.0302058,0.5717524,0.24801129,0.25307274
-8.523415,-1.0572412,-1.3349973,0.7287796999999999,0.30654964,0.30363494
-8.460228,-0.9752542,-1.6840432,0.8293978999999999,0.47211155,0.3387684
-8.411204,-0.8065011999999999,-1.9663099,0.8757014999999999,0.49712214,0.32653365
-8.176362,-0.7743901999999999,-2.038088,0.8959299000000001,0.5152212,0.23123868
-8.368587,-0.75511205,-1.8121808000000001,0.88741267,0.43378413,0.031625368
-8.758439,-0.7868592,-1.5601288999999998,0.9305396999999999,0.008988446,0.020978857000000004
-9.116325,-0.7745913000000001,-1.3284084999999999,0.98110193,-0.2401224,-0.014137166999999999
-9.372045,-0.7830284000000001,-1.2301216999999998,0.953421,-0.23108159,-0.045553092
-9.332101,-0.86792684,-1.6510031000000003,0.87411326,-0.07244862,-0.034906585
-9.306703,-1.119701,-2.2512488,0.7580663000000001,-0.11023499999999999,-0.017872171
-9.2176285,-1.3860608,-2.609,0.5653645,-0.06499606,0.056635935
-9.595386,-2.1368442,-2.6600251,0.37798595,-0.01813397,0.11040953
-11.576358,-2.9293343999999997,-0.8573349,0.23425809,-0.13898057,0.13648474
-14.198813000000001,-1.8526523999999998,1.5221089,0.12246975,-0.26460937,0.15140732
-14.815876000000001,-0.122880004,1.5356121999999999,0.011746066000000001,-0.24383995,0.14980161
-14.522117000000001,0.5912242,1.0753603999999999,-0.08831366,-0.16346754,0.14554301
-12.240960000000001,-1.0282139000000001,0.8850502,-0.13357005,-0.15814428,0.14554301
-11.756881,-2.1910105,0.7836701,-0.12770574,-0.22787018,0.14289011
-11.807426,-1.6699843,-0.16678008,-0.09737192,-0.23373449,0.1306379
-11.054642999999999,-0.8202918,-0.6811408,-0.09150761,-0.17359045,0.106150925
-10.373836500000001,0.25425464,-0.74762297,-0.11014773,-0.1123643,0.0763407
-10.086082000000001,1.3405136,-0.65180707,-0.14421655,-0.03996804,0.05024803
-9.549992999999999,1.9242294999999998,-0.5263126,-0.17987363,0.011117746999999999,0.028431414
-8.534601,1.8623346,-0.46112326,-0.20542525,0.020699605,0.012461651
-7.789353,1.1220857,-0.37540126,-0.24375269,0.043057274000000006,0.005009094699999999
-7.7293259999999995,0.32768962,-0.40834546,-0.28314477,0.022305308,-0.010402163
-7.9829197,-0.29462087,-0.4655956,-0.35608208,0.036669366,-0.046617742999999996
-8.04175,-0.5759013000000001,-0.39254373,-0.44390705,0.090425506,-0.083339475
-7.995551,-0.44385627,-0.29538703,-0.5008746000000001,0.1441991,-0.1237962
-8.27417,-0.28344476,-0.59215313,-0.50352746,0.22404791,-0.15360643
-8.320367999999998,-0.17772637,-1.2388556999999998,-0.53866094,0.37042868,-0.17224655
-8.366307,0.013953407,-1.6451901000000002,-0.6291563,0.40929717,-0.19566886
-8.443105000000001,0.24366269,-2.0673645,-0.7478736,0.23308872,-0.21589723
-8.353580000000001,0.38510257,-2.3161507,-0.77236056,0.046792275999999994,-0.17437585
-8.485769,0.37372532,-2.0827831999999997,-0.6435378,-0.3024132,-0.09398598
-9.079081,0.19772275,-1.4263792,-0.53920203,-0.17198475,0.023631757000000003
-9.320971499999999,-0.148814,-1.5067190000000001,-0.46520007,0.18305013,0.052377332
-9.4233675,-0.19360472,-1.8402889,-0.51684433,-0.15762068,0.07792895
-9.370082,-0.34035972,-2.336128,-0.60254,-0.33754668,0.06408849
-9.127386999999999,0.27188557,-2.7390242000000002,-0.6147922,-0.3545811,0.02417281
-9.277896,1.0613781999999998,-3.2532412999999996,-0.51684433,-0.33807027,-0.025848325
-10.3873205,1.0852342,-2.7395895,-0.38535124,-0.14110987,-0.09665633
-12.191314,-0.106752664,-1.6633765,-0.25972244,0.047315877,-0.16798794
-14.272421,-1.4400548,-0.16791016,-0.16976817,0.025481807000000002,-0.18448131
-16.132227,-3.3048794000000004,0.9931148999999999,-0.101630524,-0.008028515,-0.16585864
-13.353295999999999,-2.732646,-0.45403640000000006,-0.0792554,-0.021327923999999998,-0.12325515
-10.956633,-0.6168899999999999,1.3684683000000002,-0.055850536,-0.039426986000000004,-0.09559168
-11.398239,-0.41207084,2.0045214,-0.0036826448,-0.08414232,-0.09876818
-10.960243,-1.4399111999999998,1.5360334999999998,0.050597094,-0.071907565,-0.104091436
-10.318119,-2.1360972,1.3439037,0.11234684,-0.021868976000000002,-0.10995574
-9.364288,-2.31866,1.3475142,0.15866788,0.028693212000000003,-0.09292133
-8.591353,-2.164952,1.230457,0.19593066,0.06328564,-0.064175755
-8.809188,-2.319426,0.6004275,0.21828833,0.0707382,-0.031712633
-8.888579,-2.2202007999999998,0.029352912999999998,0.21774727,0.09361946,-0.007225663
