accx,accy,accz,gyrx,gyry,gyrz
-5.8466406,1.2089473999999998,0.95409894,-0.5264786,-0.12732176,-0.021694442
-6.105492,0.8477581,0.77339417,-0.56161207,0.0036128315,-0.025411992999999997
-7.4265360000000005,0.7607432,0.59106135,-0.5312608,0.11540117,-0.07438593
-8.473741,0.48715302,0.42280647,-0.40564942,0.18990928,-0.10793116
-8.626394,-0.048209645,0.6668139,-0.27096236,0.31288517,-0.13667673
-8.665306,-0.3046478,0.66984975,-0.24808110000000003,0.46725956,-0.16913986
-9.039337,-0.112824365,0.28750529999999996,-0.31834805,0.5849122,-0.23249531
-9.3329525,0.31180167,-0.023013067,-0.5185024,0.5684014000000001,-0.30382693
-9.269085,0.55671895,-0.09512642,-0.6446548000000001,0.49494046,-0.12496557
-9.068019999999999,0.7573435000000001,-0.329423,-0.5749289000000001,0.2665816,0.37487927
-8.758545,0.7082048000000001,-0.25970384,-0.22891739,-0.07730063,0.7214144
-8.400238,0.3176148,-0.15406209,-0.08997172,-0.4094717,0.6474299
-8.748834,-0.030243555,0.25320122,-0.18472564,0.22718951,0.42331216
-9.357258999999999,-0.6495278,0.50856674,-0.27895597,0.16383405,0.26628488
-9.672286999999999,-0.6347603,0.5007712000000001,-0.23209389,-0.21090558,0.07731809
-9.429132000000001,-0.4197706,-0.8266508,-0.09742427599999999,-0.2864958,-0.07810348
-9.256185,-0.24595155,-1.8935453999999998,0.10643018,-0.14170328,-0.23675391
-9.532025,0.5502833,-2.4509540000000003,0.34704128,-0.068783425,-0.3581241
-13.193229999999998,2.4008384,1.1820173,0.49183378,-0.043231804000000006,-0.4108156
-17.016176,-0.20027976,5.1074257,0.5014156,0.037664205,-0.41667992
-16.394182,-3.9086108,5.99375,0.42636648,0.07705629,-0.4017748
-10.052037,-0.6268499,4.887016,0.33693582,-0.009162978,-0.3522598
-9.848500999999999,1.9683977,4.5894449999999996,0.26506317,0.00413643,-0.23088960000000003
-12.342359,1.5684031999999999,3.5732790999999997,0.20224875,0.0940907,-0.0967436
-11.6512,-0.4317416,3.1045997000000005,0.18414968,0.19896753,-0.070668384
-9.476873,-2.0449069,3.1175857000000002,0.15859807,0.20694369,-0.115383714
-8.4415245,-2.6194482000000003,2.963696,0.09578366599999999,0.19470893,-0.14145893
-7.366001,-2.411804,2.2205548,0.014346606000000001,0.09622,-0.0967436
-6.5112424,-1.4755082,1.6147358,-0.026633725,0.13082989,-0.012112585
-6.410446,-0.69722027,0.9585425999999999,-0.013857913999999999,0.25326473,0.065065876
-7.162311999999999,0.18719785,0.46480075,0.023387412000000003,0.31234413,0.06133087
-7.7606516,0.6042965,0.52406204,0.061714843,0.2676288,0.027803095
-8.379112,0.08795339,0.6208931,0.12133529,0.23249531,-0.06054547
-8.799955,-0.24166115,0.50449663,0.19214329,0.31607914,-0.13561209
-9.117024,-0.3328036,0.10349655,0.29433233,0.46404815,-0.1483879
-9.327608,-0.21669441,-0.47214615,0.5706179,0.50291663,-0.11592477
-9.608343,0.021691468,-0.82591337,0.84158033,0.5204920999999999,-0.13561209
-9.3695545,-0.06697061,-1.1325053,0.9267349,0.4539427,-0.25911158
-8.69892,-0.31594843,-0.8936405999999999,0.722863,0.22504276,-0.54710835
-8.309556,-0.611843,-0.8513110999999999,0.5285555000000001,-0.2646792,-0.7179761
-9.40588,-1.8389001,-0.55601025,0.39866809999999997,-0.5531995,-0.5481729999999999
-10.958769,-2.1413167,-0.09213846,0.21608922,0.12496557,-0.10847221
-10.885095,-1.0125749,-0.4275661,0.29806733,0.23727751,0.22900465
-10.233556,-1.5406208000000001,-1.0407977,0.44551274,0.106325455,0.32429963
-9.851517999999999,-2.3400257,-1.4063541000000002,0.44285983,-0.22848105,0.31258845
-9.217725,-3.0152384999999997,-1.4457722,0.3614053,-0.35145694,0.35410985
-8.802886,-3.0208886,-0.8216804,0.17030923,-0.25670302,0.43395865
-10.052458,-1.9201784,1.3943256000000002,-0.0032114058000000003,-0.28438395,0.47387433
-13.166587,1.1268358,3.5129452000000003,-0.12086405,-0.32855824,0.42650609999999994
-15.235167,6.295007,4.900461,-0.19804251,-0.38072613,0.3386637
-12.865664500000001,3.9492836000000002,4.6049504,-0.27202702,-0.3551745,0.26841420000000005
-11.606017,-0.051274225,3.715849,-0.30983084,-0.32484066,0.18535396
-11.844911999999999,-1.2184571000000002,3.216409,-0.34761724,-0.29768336,0.10391690599999999
-11.962284,-0.7701285,1.2993237,-0.41575488,-0.25881487,0.042167153
-11.569989,0.6517113,-0.073004,-0.48284534,-0.23434536,0.01288053
-10.514788000000001,1.7313908,0.17804243,-0.52117276,-0.23434536,-0.024888393999999998
-9.511894999999999,2.0909617,0.10970233,-0.5355368,-0.21464059,-0.06429793
-8.623828,1.6863607,0.15886964,-0.5680174,-0.19547687,-0.08346164
-7.8406085999999995,0.90506566,0.26003903,-0.59037507,-0.12362167,-0.0940907
-7.2970386,0.2652488,0.30976182,-0.6047391,0.0946143,-0.0871792
-7.1138053,0.34850958,0.34193029999999996,-0.5775993,0.18617427,-0.08239699
-7.159975,0.6018064999999999,0.47000095,-0.45675266,0.09354965,-0.06962118
-7.4892449999999995,0.78723264,0.42520064,-0.32792990000000005,0.11857767,-0.0850499
-7.971906,1.1000974,0.18239985,-0.22200587,0.22717206,-0.11220722
-8.446725,1.2724415,-0.06405926,-0.18580775,0.37620570000000003,-0.09995501
-8.680245,1.0194128,-0.18274462,-0.25607470000000004,0.47521824,-0.050981067000000005
-8.644275,0.7123325,-0.39642233,-0.38702676,0.3480012,-0.0073303827000000005
-8.67585,0.9895139999999999,-0.56212026,-0.32101840000000004,-0.051225413,0.24923302
-8.738023,1.144256,-0.24757004,-0.2608569,-0.17898351,0.5718222
-9.370044,0.6261795,-0.16157988,-0.2454282,-0.18963002,0.7049036
-10.75688,0.16543934,-0.23683442,-0.31728340000000005,0.18243927,0.34451053
-11.328308999999999,0.27969065,-0.1811836,-0.4684638,0.25963518,0.08047713
-10.632028,0.7243418,-0.87864333,-0.57547,0.06319837,0.019268433999999997
-10.044433,0.5253932,-1.6520853,-0.5653471,-0.32325244,-0.024364796
-9.7186775,0.6037028,-2.3503497,-0.46794020000000003,-0.3376165,-0.10740756
-10.211404,1.0194224,-2.1480875,-0.20177752,-0.27534315,-0.19364429
-11.354032499999999,1.1473589,-0.58938545,0.07553785,-0.33815753,-0.266058
-14.272841,0.31765312,4.644703400000001,0.26771605,-0.29928905,-0.32939598
-15.634960999999999,-3.600075,7.0080295,0.35555848,-0.14758503,-0.36559412
-11.910292,-2.782905,5.9319797,0.33320079999999996,-0.09648179999999999,-0.350689
-8.70503,0.9129091,3.2521975,0.29593801,-0.13959143,-0.28893927
-10.554274000000001,1.9785203999999998,2.620444,0.2645221,-0.15397294,-0.19259708
-11.751843,0.2894877,1.6045462,0.25813420000000004,-0.112975165,-0.10208431
-10.655911999999999,-1.1726991000000002,1.3466618000000001,0.28049186,-0.08742354,-0.066968285
-9.083899,-2.261285,1.9755228999999999,0.32147220000000004,-0.06825983,-0.058451075
-8.446121,-3.1009797999999997,2.1199027999999998,0.36405823,-0.061348322999999996,-0.03874631
-7.463454700000001,-2.9512365000000003,1.9161754,0.43380159999999995,-0.0022514747,-0.009459685
-6.614814999999999,-1.9024326,1.6361495000000001,0.48171088,0.07438593,0.030438542000000002
-6.776586999999999,-1.0640695,1.1515632,0.49874529999999995,0.18615682,0.08206538
-7.6031130000000005,-0.3391243,0.6913209,0.4699997,0.22129029,0.10602875
-8.143253999999999,-0.14952269,0.57767296,0.39440949999999997,0.13559464,0.045343652000000005
-8.513914999999999,-0.48617619999999995,0.66402704,0.2756922,0.18456857,-0.032358404
-8.787514999999999,-0.6839564,0.6202036,0.2560049,0.31285027,0.014451326
-9.035612,-0.9021351999999999,0.33575326,0.36938150000000003,0.46670103,0.097511545
-9.314219999999999,-1.0134944,0.15453136,0.5663419,0.5710368,0.04960226
-9.213616,-1.0212419,-0.01418325,0.6243741,0.46722463,-0.17182766
-8.972021,-0.95469266,-0.10090124,0.45774750000000003,0.24418901,-0.50560445
-8.917473,-0.97007304,-0.3121656,0.28475046,-0.13161528,-0.5284857
-9.304519,-0.85628146,-0.2368919,0.077667154,0.05042256,-0.34749505
-10.188803,-0.27518955,-0.24863306,-0.0591143,0.3639535,-0.20111428
-10.571809,0.64000845,-0.12683523,-0.04633849,0.12175417,0.04160865
-10.205792,0.52696383,-0.72533774,-0.10224139,-0.051766466,0.22525219999999999
-9.844277,-0.28115588,-1.3511723999999998,-0.21455333,-0.1481261,0.34555775
-9.596966,-1.3309941,-1.5911672,-0.2992018,-0.06880088,0.41743040000000003
-9.857082,-2.8865645,-0.5912816,-0.29120818,-0.13267992,0.42807690000000004
-11.220302,-2.5118432,1.8135502000000001,-0.2896025,-0.25724408,0.404131
-13.379968,0.6208548,4.524361,-0.29120818,-0.19123572,0.33438763
-13.210257,4.0671550000000005,5.082632,-0.28110272,-0.16409585,0.28221974
-11.42061,0.41216663,3.9698067000000004,-0.27790877,-0.16887806,0.23057544
-12.931169500000001,-0.6324428000000001,3.7013589999999996,-0.26139796,-0.15610225,0.112416655
-13.671198,0.18508138,2.590421,-0.27949703,-0.06667158,0.003822271
-12.48173,0.64920217,1.334777,-0.28749064,-0.07253588,-0.030246556
-10.703786000000001,0.5992208000000001,0.92958236,-0.31517157,-0.03260275,0.005410521
-9.5814905,0.57718456,0.77119154,-0.3620162,0.07916813,0.021921335
-8.310858999999999,0.56438994,0.33716106,-0.39182642,0.07597418,-0.013735741000000001
-6.964187,0.6873753,0.44462240000000003,-0.38756782,0.072239175,-0.06005678
-6.3296470000000005,0.24590367,0.82988775,-0.33485886,0.1627345,-0.045134213
-6.5704556,-0.38775533,0.6300677,-0.26087436,0.27026424,-0.043022364
-6.992304300000001,-0.028969841,0.5955146,-0.17090264,0.31286773,-0.03822271
-7.499933,0.72107613,0.39028359999999995,0.022305308,0.30698597,-0.030770155
-8.124752,0.7162301999999999,-0.02549346,0.12770574,0.25590017,-0.0903906
-8.3866205,0.41967484,-0.22274695,0.16283922,0.25748843,-0.15533431
-8.536373,0.2646455,-0.03965756,0.14313444,0.29740409999999995,-0.1505521
-8.784412,0.50010085,-0.4302955,-0.046355944,0.2883633,-0.054733526
-8.786414,0.7591821999999999,-0.9440815999999999,-0.1964717,0.27291712,0.17041394
-8.858852,0.7298005,-0.8439656999999999,-0.14269812,0.10471976,0.6042679
-9.398228999999999,0.6538755999999999,-0.025244462999999998,-0.10384709,-0.22851595,0.77035344
-10.130481,0.31335312,0.3168199,-0.16931438,0.1776396,0.4823741
-11.053885000000001,-0.37894467,0.43851239999999997,-0.28323203,0.58381265,0.11878711
-11.2652645,-0.4955423,-0.29914114,-0.374792,0.3729943,-0.03609341
-10.48352,-0.14552917,-1.7674093000000002,-0.34924040000000006,-0.1481261,-0.08454375
-9.720889999999999,0.43404964,-2.9211462000000004,-0.23745205,-0.31367058,-0.18781488
-9.1076,1.4236306,-3.661606,-0.01813397,-0.22478095,-0.3177023
-10.054622,1.8789694,-1.5578687,0.23204152,-0.34402186,-0.4183205
-11.988889,0.8335461,2.0877821,0.36034068,-0.5314004,-0.46994734
-15.834829000000001,-2.0397928,5.900576999999999,0.47371727,-0.5441762,-0.45982444
-14.574376999999998,-3.4953237,6.4820905,0.51736796,-0.39779544,-0.44013712
-10.337502,-0.36358348,4.2497463,0.56262434,-0.33176965,-0.37252307
-10.996607000000001,0.81759113,2.7361512,0.57272977,-0.25139722,-0.24582963
-12.613928999999999,-0.32309273,1.1660528000000001,0.58709383,-0.16941911,-0.13086478
-11.887681,-0.89943457,0.51897675,0.62383306,-0.16622515,-0.07283259
-9.857322,-1.2799882,1.5403336,0.6435378,-0.13055062,-0.042481314000000006
-8.721282,-2.2069082000000004,1.3374489999999999,0.6493846999999999,-0.10447541,-0.002565634
-7.924558599999999,-2.6496916,0.7084826,0.6547079,-0.10501646,0.043196898
-7.3281155,-2.4702797000000003,0.38785112,0.6259623000000001,-0.12257447,0.110269904
-6.959254700000001,-1.4025617,0.7531104999999999,0.5312084,-0.11140437,0.16776104
-6.993319500000001,-0.24526203,0.8176581999999999,0.44390705,-0.09276425,0.14060372
-7.3031197,-0.14963761,0.42792046,0.32998940000000004,-0.008133234,-0.0132121425
-7.8757553,-0.9175825999999999,0.05782476,0.22991222,0.25322983,-0.022270402
-8.560525,-1.2966422,-0.15198392,0.17029178,0.4118628,-0.014817845
-8.802503,-1.4435216,-0.45593262,0.27089256,0.36767107,-0.06857399
-9.061843,-1.324367,-0.77258974,0.3278601,0.44219659999999994,-0.32302552
-9.061805,-1.0680053999999999,-1.1345835,0.1287704,0.47041859999999996,-0.65200263
-8.830477,-0.91781247,-1.405406,0.31401965,0.02539454,-0.55618405
-9.275501,-1.2276031,-1.0877146,0.20968385,-0.13589133,-0.35870007
-9.904161,-0.59315866,-0.5700403,0.15591027,0.0041015237,-0.30972612
-10.529383000000001,0.24369141,-0.12320562,0.1314233,-0.12630948,-0.09466666
-10.276392999999999,0.34556950000000003,-0.011942278,0.08990191,-0.0906524,0.07194247
-9.999680499999998,-1.0557566999999999,-1.1490923000000002,0.027628561,-0.17367771,0.21779963
-9.8594475,-2.0726316000000002,-1.7608875,-0.051679197999999996,-0.20509364,0.33808774
-10.690914999999999,-2.1986146,-0.25348848,-0.15547393,-0.21947515,0.39985493
-11.986724,-1.229595,1.8560808999999998,-0.244381,-0.23064525,0.4227362
-14.93415,1.5484643,4.1704597,-0.29600784,-0.15559610000000001,0.38919097
-13.285348999999998,2.3144364,3.7543476000000005,-0.32581806,-0.06403613,0.31946507
-11.608546,-0.38124309999999995,5.1116014000000005,-0.31464794,-0.06668903,0.26090926
-12.387876499999999,0.27926925,4.233351,-0.28963740000000004,-0.19338249,0.19596557
-12.108886,0.92154735,2.9180818,-0.2640683,-0.18008307,0.14060372
-11.188612,0.6085295000000001,2.3206136,-0.24809855,-0.08798204,0.09482374
-10.328299000000001,0.48110047,1.6410528000000002,-0.24970426,-0.058171824000000004,0.06288421
-9.322821000000001,1.0328395000000001,1.1620785,-0.28696704,-0.13004448,0.042655847999999996
-8.31537,1.6747729,0.6958699,-0.35191074,-0.17102481,0.010716322
-7.2966933,1.7097281000000002,0.5339357,-0.42324233,-0.15292574,-0.03291691
-6.722861,1.2821811,0.6317149000000001,-0.46209338,-0.03741986,-0.05899213
-7.0769444,0.332478,0.5601283,-0.46156980000000003,0.17229891,-0.0850848
-7.6712229999999995,-0.5837446999999999,0.4516901,-0.4333478,0.35808920000000005,-0.0877377
-7.8072524,-0.70070624,0.32101455,-0.3284884,0.30272737,-0.055274576
-7.901584,-0.034476504,0.35076973,-0.21670008,0.20797344,-0.05794493
-8.266384,0.76190203,0.0062440783,-0.17837265,0.18455112,-0.109030716
-8.668006,0.87692904,-0.5390688,-0.21031217,0.25375342,-0.13034119
-8.823792,0.67290473,-0.80723864,-0.3700098,0.27239352,-0.09519026
-8.556877,0.7078696999999999,-0.84256744,-0.3742684,0.20530307,0.20235348
-8.138591,0.8784995999999999,-0.7517602,-0.15069173,-0.0033510323,0.6223495
-8.170385000000001,1.2336556,-0.18509094,-0.13685127,-0.26152015,0.59894466
-8.604894999999999,0.76661384,0.27134925,-0.24918066,0.08447394,0.40090212
-10.131350999999999,-0.14616123,-0.027734432000000003,-0.43388885,0.33999014,0.28700194
-11.61478,0.053582232,-0.33570537,-0.5451536,-0.10662217,0.15070918
-11.732566,0.7107906,-1.0111,-0.5547354,-0.36904988,0.06766641
-10.623236,0.8990610000000001,-1.9862297999999998,-0.45572293,-0.45635125,-0.06272713
-9.801708999999999,1.1502607,-2.5663927,-0.31677726,-0.42760566,-0.21816616
-10.529958,1.4349025,-1.8520588,-0.10649999,-0.42495278,-0.3214373
-15.159443,0.89162946,3.3516622000000003,0.0813847,-0.39620718,-0.34220672
-16.734667,-2.7927215,5.840406400000001,0.18517943,-0.31262338,-0.31984904
-11.457558,-3.4891756000000003,3.7920995000000004,0.21978931,-0.21786945,-0.33901274
-9.707741,0.21205923,3.844274,0.21659537,-0.23225096,-0.35124752
-11.909027,1.4469023,3.1301506000000003,0.18891443,-0.31688198,-0.30333823
-12.495319,0.7701668,2.1389797,0.16814502,-0.35948548,-0.21019000000000002
-11.70983,-1.3393548000000002,2.2810612,0.17081538,-0.28016025,-0.11278318
-10.107725,-1.9925791000000002,2.356833,0.21340140000000002,-0.22053981,-0.05103342599999999
-8.839594,-2.6473646,1.869048,0.25811675,-0.1492082,-0.049427725
-7.5965724,-2.8904526,1.8795921000000002,0.31506684,-0.08426449400000001,-0.050492376
-6.7297277,-2.4749917999999997,1.8208861,0.38001055,0.038152896,-0.020141099
-6.1327763,-1.612581,1.5067765,0.42739624,0.22020820000000002,0.04956735
-6.328833,-0.682539,1.2410296,0.43217844,0.31867966,0.102276295
-7.1954093,-0.011319786,1.1510364,0.40662682,0.33838442,0.07778932
-7.7487664,0.051427454000000004,0.92503333,0.3395538,0.24841271,0.00059341197
-8.329609,-0.642508,1.0139636,0.26450464,0.32454398,-0.041434117
-8.825152000000001,-1.3201437,0.99444604,0.30016172,0.44591418,-0.023335052999999998
-9.117857,-1.5872503999999998,0.6186713,0.47211155,0.58964205,0.016039576
-9.336994,-1.6177333999999999,0.31771058,0.5844235,0.64554495,-0.11011282
-9.178747,-1.4350844999999999,0.17659631,0.59082884,0.43155012,-0.42896703
-9.23344,-1.392822,0.11584105,0.5125683,0.115872405,-0.75581485
-9.313378,-1.2833688,-0.19366218,0.4524068,-0.10555751599999999,-0.7148345
-9.79102,-0.7695826,-0.28064832,0.27940977,0.25427702,-0.43322563
-10.504895,0.027140671,-0.24532905,0.31773720000000005,0.07967428,-0.13405874
-10.545166,0.62829596,-0.49729487,0.39865065,-0.094369955,0.06021386
-9.8802185,-0.27799556,-1.0274956,0.36884043,-0.28176597,0.20074777
-9.334466,-1.2947365,-1.4539412,0.24373522,-0.28281316,0.35938075
-9.2158375,-2.366678,-1.2980978,0.062220987,-0.20722294,0.48022735
-9.786605999999999,-3.092054,0.63522005,-0.08735373,-0.18273596,0.54730034
-11.593595500000001,-1.8518001,4.1655087,-0.18901916,-0.0858702,0.53557175
-13.786923000000002,2.394355,6.646217999999999,-0.24225170000000001,-0.08426449400000001,0.45945793
-13.222419,1.9896773,5.6196895,-0.30773646,-0.15294321,0.39132026
-13.597714000000002,-0.16551594,4.29898,-0.34658748,-0.16411331,0.31094787
-14.197262,-1.5917515,3.6267464,-0.4328242,-0.12685053,0.17893115
-13.014985000000001,-0.52415776,2.2498026,-0.49670324,-0.0970403,0.07883652
-11.383911999999999,0.32737356,1.2337322,-0.5398303000000001,-0.027838001,0.061802108
-9.874943,1.0518111,0.7445776,-0.57176983,0.05518731,0.100146994
-8.304911,1.5313983999999998,0.1729667,-0.5813517,0.01792453,0.09428269
-6.8810697,1.5759593,0.47591940000000005,-0.5919982,0.0019547688000000002,0.048502699999999996
-5.968304,0.7637503999999999,0.71086717,-0.516408,0.08232718,0.019233529
-5.91974,-0.009299079,0.45440033,-0.41046652,0.23352505,6.981316999999999e-05
-6.560132,-0.16701952,0.49061024,-0.2880317,0.25001842,-0.010035643
-7.2261796,0.332727,0.5173582999999999,-0.15868534,0.15632914,0.028274333
-7.753497599999999,0.9936799000000001,0.05605305,-0.10012954,0.21968459,0.0021991148
-8.090046000000001,0.99521214,-0.30443709999999996,-0.07616617,0.31548572,-0.041975167
-8.63283,0.5474677,-0.43404964,-0.17571975,0.32932618,-0.028134707000000002
-9.28503,0.29570305,-0.703857,-0.2965489,0.32932618,0.16774360000000002
-9.192796000000001,0.33472854,-1.1808203000000002,-0.26408577,0.16749924,0.51108474
-9.036206,0.36713648,-0.9600653,-0.19914207,-0.047001716,0.68409926
-9.11462,-0.0703608,0.09365159,-0.20978858,0.017383479,0.5973215000000001
-9.968335,-0.41191759999999994,0.40171832,-0.40674898,0.46188393,0.34925783
-11.210217,-0.8358829,0.13195881,-0.5472829,0.28248155,0.17306685
-11.487332,-0.38654864,-0.19248424,-0.5983861,-0.18221237,0.038920842000000004
-10.358734,0.34773386,-1.333532,-0.53344244,-0.46434486,-0.08562585
-9.353035,0.55871093,-2.2579908,-0.41420153,-0.33126348,-0.24692918
-9.711418,1.0573369,-2.6225509999999996,-0.23746950000000003,-0.3568151,-0.34433600000000003
-13.092635000000001,1.2117916000000002,1.0509492,-0.071907565,-0.45156905,-0.37149334
-15.017899,-1.0266242,4.3650317,-0.012287118,-0.38768998,-0.33210126
-13.781638000000001,-3.1390569999999998,5.4975276,0.010053096,-0.2833542,-0.28525662
-10.728178999999999,-0.6883521,5.2793965,0.073391095,-0.34936255,-0.26342255
-11.080797,1.1362115,3.5246383999999997,0.09468411,-0.44252822,-0.18624409
-12.841291,1.2011040000000002,2.3390392999999996,0.09681341,-0.3892957,-0.09681341
-12.667702,-0.690641,1.5245701999999999,0.14578736,-0.26099652,-0.05368633
-10.397414999999999,-1.2149712,1.9092321,0.21553071,-0.22799236,-0.05794493
-9.101434,-1.8484769,1.7651778000000002,0.24959953,-0.20509364,-0.08136725
-8.109352000000001,-2.5681164,1.3958386999999999,0.25916395,-0.14336134,-0.060091686
-6.752816999999999,-2.2714653,1.230974,0.30122638,0.013665928,0.016039576
-6.104812,-1.4661229,1.0610433000000001,0.37575194,0.21914354,0.06499606
-6.403187,-0.064748794,0.93773216,0.42579052,0.31016245,0.020280726000000002
-7.091003,0.55345327,0.8778676,0.37309903,0.28780478,-0.08297295
-7.471019999999999,-0.19079871,0.6793691,0.27780405,0.5651550999999999,-0.19528489
-7.972979,-1.2181603,0.82093346,0.27834509999999996,0.7099476,-0.18996164
-8.705892,-1.9057462,0.6582331,0.36510542,0.6929132,-0.26768115
-9.1854315,-1.9674208999999998,0.20023188,0.17081538,0.79032,-0.6232745
-9.582036,-1.4254118,-0.24058855,0.13248794,0.53586847,-0.77232563
-9.476450999999999,-1.5780853000000001,-0.5340602,0.25703463,-0.103445664,-0.6238156
-9.0725975,-1.8015505,-0.70521694,0.1463284,0.13184217,-0.37308156
-9.134032000000001,-1.3543136999999998,-0.77997345,0.17985618,-0.009197885,-0.04782202
-10.186322,-1.359035,-0.6615658,0.23734732,-0.04647812,0.08415978
-10.18571,-0.98077995,-0.6621691,0.25385815,-0.25886723,0.18371336
-9.283650999999999,-1.1015148000000001,-1.2444773,0.21073106,-0.37917277,0.2912431
-8.632438,-1.6815053,-1.5425841,0.11013027,-0.36213836,0.38652062
-9.35338,-1.4612578999999999,0.7689793,0.015376351000000002,-0.38503709999999997,0.43336526
-13.269575,-0.027676972,4.131339,-0.06551966,-0.32594025,0.43336526
-16.122688,4.161132299999999,5.453397799999999,-0.16081464,-0.20776399999999998,0.38545597
-14.694842999999999,1.226559,5.142678299999999,-0.27366763,-0.12259193,0.30082494
-14.961251999999998,-0.23864445,5.352151999999999,-0.35777503,-0.09332275400000001,0.21724114
-14.067725,0.21575588,4.030782,-0.38491490000000006,-0.06829473400000001,0.13419837
-12.483636,0.10624509,2.7919838,-0.40355504,-0.021450097,0.08044223
-11.02755,0.19956149,1.4711891000000001,-0.42697734,0.059445914,0.046373397000000004
-9.179389,0.7416854,0.68047047,-0.44774675,0.088715084,0.043703045999999995
-7.568339999999999,1.3249224,0.12391431,-0.48340383,-0.0006981317,0.016563175
-6.1678467,1.6063944,0.49588704,-0.540895,-0.04860742,-0.031869713
-5.3018928,0.99952173,0.9755988999999999,-0.56592304,-0.018797196000000002,-0.08084365
-5.1803823,0.35695633,1.0250248,-0.5494121999999999,0.13981833,-0.12555899
-5.775379,0.33360806,0.8404222,-0.47966883,0.19465657,-0.12608258
-6.675561,0.6710946999999999,0.5753362,-0.32211795,0.14034192,-0.053162728
-7.9046389999999995,0.88762635,0.4910795,-0.22628194,0.162176,0.006440265
-8.740521000000001,0.9191053,0.06766014,-0.16879079,0.39320523,-0.030264008999999998
-9.155714999999999,0.71435314,-0.44020748,-0.1767844,0.55876714,-0.06752679
-9.629805000000001,0.4530883,-0.92545474,-0.33700562,0.631687,0.15709709
-9.464624,0.68374574,-1.4524473,-0.21085322,0.4256858,0.48872709999999997
-9.200821000000001,0.9860088,-1.5728182,-0.19594811,0.007801621700000001,0.6069208
-9.26423,1.0031514000000001,-0.84859127,-0.18849556,0.12758356,0.56698763
-9.915807000000001,0.6550057,0.09663956,-0.26780329999999997,0.40865138,0.41207224
-10.917167,-0.48050672,0.14236881,-0.26302109999999995,-0.0251851,0.21671753
-11.363868,-1.0385377,-0.02971683,-0.16879079,-0.25089110000000003,0.052761300000000004
-10.209336,-0.18693927,-1.3329191,-0.019739674,-0.31796408,-0.15749851
-8.655681,0.4082018,-1.6209128000000002,0.16601571,-0.2700548,-0.30654964
-8.966123,0.7475368,-1.4082694,0.40769145,-0.31848767,-0.40343285
-13.236583999999999,1.8385744,2.0354834,0.60945153,-0.37758452,-0.50776863
-16.076442999999998,-0.6792063,7.0067368000000005,0.7334746,-0.2812249,-0.5870764
-13.315717000000001,-2.947559,4.8675847,0.80854124,-0.17156586,-0.59400535
-11.509416,0.4305062,5.238054,0.8378104,-0.15933111,-0.51468015
-12.706153,0.58667517,3.769747,0.8532565999999999,-0.11674507,-0.3917217
-13.274344000000001,-0.64427006,2.8714714,0.866556,-0.028902652,-0.23041837
-11.8151455,-1.0548278,2.720062,0.86283845,0.13929473,-0.12023573
-10.239023,-1.2662742,2.2486534,0.8564504999999999,0.19092156,-0.08775515
-8.974771,-2.3483574000000003,1.4988852,0.8447394,0.073809974,-0.07604399
-7.6600665999999995,-2.637079,1.1559302,0.8149291,-0.040090214,-0.05475098
-6.1668983,-2.4179425,1.0007668,0.75850266,-0.18221237,-0.00418879
-5.509432,-1.7262673,1.123618,0.6222273,-0.21575761,0.039985493
-5.913113,-0.641081,1.1113118,0.47956413,-0.08213519,0.020280726000000002
-6.556473700000001,-0.0247752,0.98993534,0.24267058,0.06476917,-0.04038692
-7.341063,-0.35830665,0.7901823,0.06380924,0.16111134,-0.060615286
-8.186733,-0.65190285,0.37986404,0.059027035,0.28302258,0.0085695665
-8.860864999999999,-0.9179944,-0.13412319,0.16069247,0.40278709999999995,0.055955257
-9.445364999999999,-0.86216164,-0.9527677999999999,0.42472586,0.4954117,-0.0025830872
-9.7383585,-0.5170231,-1.6156743,0.55941296,0.37510616,-0.22350687
-9.4784155,-0.36358348,-2.2507892000000003,0.52480304,-0.0028274334000000004,-0.50138074
-9.515257,-0.44564712,-1.6077161,0.28899163,-0.17582446,-0.69408256
-9.531164,0.18798314,-0.09730994,0.17453292,-0.274837,-0.5450314
-9.994097,1.0062925999999999,0.59693193,-0.05274385,0.37777649999999996,-0.18411478
-11.141456,0.9513886999999999,0.46365150000000005,-0.00057595863,0.5060582,0.08735373
-11.289848,0.09546161,-0.8447988000000001,0.23575908,0.17229891,0.23801056
-10.635456,-0.97459334,-1.8864394,0.33742452,-0.25143212,0.2587625
-10.167772,-2.1559784,-2.6155121,0.30974358,-0.39620718,0.27153832
-9.532485000000001,-3.788872,-2.35328,0.17240362,-0.28654817,0.31412435
-10.261644,-3.7946086,0.16030617,0.010035643,-0.26686084,0.35564575
-11.9955435,-0.86672974,4.257111,-0.09267698,-0.20776399999999998,0.3694862
-14.632394,4.2881684,6.816177400000001,-0.131528,-0.20511109,0.35032248
-11.642965,4.639474400000001,5.853028299999999,-0.17304939,-0.24024457,0.32424727
-10.59892,0.45744574,4.2649927000000005,-0.20127137,-0.26047292,0.27686158
-12.711976,-2.0414782,3.5601203000000003,-0.2401224,-0.19552924,0.184778
-13.443596,-1.5139686,2.185638,-0.2917667,-0.14868459,0.105993845
-11.896539,-0.22984336,0.33855927,-0.37161550000000004,-0.13590878,0.095870934
-9.94108,0.99865985,0.20882227,-0.45839328,-0.0853466,0.09639453
-8.716014999999999,1.7479683999999998,-0.09596918,-0.5275781,-0.026249751,0.06925467
-7.589792,1.7422031000000002,-0.1168945,-0.586675,0.047734755999999996,0.027209682000000002
-6.724498700000001,1.0145382,0.38002685,-0.5797635,0.14833553,-0.029216811000000002
-6.3602066,0.12245863,0.5302199000000001,-0.515867,0.2856755,-0.09414306
-6.4444056,-0.22185631,0.72179437,-0.41687188,0.20528562,-0.13035864
-6.6331644,0.24849898,0.90460604,-0.24120450000000002,0.13981833,-0.0813847
-7.183457400000001,0.8861802,0.69369596,-0.18849556,0.29152235,-0.06700319
-7.9476295,0.98231226,0.21526745,-0.18423696,0.38149408,-0.12503539
-8.5557375,0.7693049,-0.38674974,-0.22202334,0.45282567,-0.017488198
-9.034655,0.73933905,-0.7159525,-0.20020671,0.28621656,0.36629224
-9.068346,0.84997034,-1.1493222,-0.13578662,0.029094638,0.64097214
-9.067905,0.8389475000000001,-1.3673382,-0.26195645,0.020577433,0.5680523000000001
-9.238247,0.62758726,-0.9585425999999999,-0.4046197,0.43366197,0.42910665
-10.332608,-0.03871903,-0.5393562,-0.5382421,0.30642745,0.22256438
-11.38464,-0.7515495,-0.34189200000000003,-0.5983861,0.013665928,0.09960594
-11.248016,-0.50597143,-0.4726633,-0.5595351,-0.215234,-0.016441
-9.790839,0.34645057,-1.6750026999999998,-0.42804200000000003,-0.23118632,-0.18730873
-8.94557,0.34824142,-2.116436,-0.23427555,-0.25302038,-0.30016172
-12.150172,0.92957276,0.49168283,0.04358087,-0.37812558,-0.3869395
-16.018675,-0.04828626,4.3486650000000004,0.22776547,-0.44252822,-0.43271947
-14.733782999999999,-3.0035546,5.293493700000001,0.34594172,-0.41004765,-0.44015458
-11.029943,-0.17698897,4.5495386,0.42524946,-0.3499036,-0.41994366
-11.833064,1.661145,4.4403440000000005,0.4699648,-0.25143212,-0.36032322
-12.718095,1.0496659,3.0698166000000002,0.49179888,-0.16039576,-0.24586453
-12.402252,-1.2033257,2.078014,0.49179888,-0.012409291000000001,-0.12023573
-10.925987,-0.8616253,2.0571556,0.51309186,0.10307915,-0.05157448
-9.503775,-1.6075532,1.9630346,0.54342574,0.07061602,-0.027611108
-8.479553999999998,-2.4816475,1.6179537,0.5610012,0.042394046,-0.005253441
-7.276496000000001,-2.6628695,1.4663241000000002,0.56525975,0.09030333,-0.00418879
-6.227069999999999,-2.407274,1.1667998,0.49871036,0.12917182,0.0069638634999999996
-5.8193564,-1.9177556,1.0575572,0.3395538,0.20422098,0.045291292999999996
-5.938961,-1.0973104999999999,1.2104412,0.19743164,0.14781193,0.043703045999999995
-6.449893,-0.48435658,1.1616666000000002,0.038257618,0.19198622,-0.036128316
-7.1585765,-0.4569286,0.82918864,-0.059131755999999994,0.38203509999999996,-0.011641346
-8.137901,-0.89072925,0.40509894,-0.006440265,0.42833869999999996,0.10119419
-9.193744,-1.3946703999999999,-0.19419849,0.20221385,0.44643778,0.10173524
-9.6883,-1.4038545,-0.8938704,0.28206265,0.41130429999999996,-0.22190116
-9.519614,-0.91529375,-1.3365679,0.12822933,0.25214770000000003,-0.5801649
-8.868466999999999,-0.63339084,-1.4662378,0.25864035,-0.20085248,-0.41781437
-9.066957,-0.8281065000000001,-1.2502521,0.11384783,0.03387684,-0.19476129
-10.194146,-0.65093553,-0.6956496999999999,0.17133898,-0.012409291000000001,-0.033475414
-11.151119,0.9965050999999999,-0.35936009999999996,0.2639636,-0.278572,0.045291292999999996
-11.178623,1.0524336,-0.6289951,0.23734732,-0.39941859999999996,0.15069173
-10.468809,-0.37853286,-1.72055,0.12662363,-0.39514256,0.27792624
-9.903749000000001,-1.4598405,-2.123791,-0.029338984,-0.345645,0.39716712
-10.056059,-2.859194,-0.5678566999999999,-0.15868534,-0.33606315,0.48340383
-12.341449,-3.1992474,3.4738526,-0.26780329999999997,-0.2136283,0.5180137
-15.623285999999998,1.2224315000000001,5.9171830000000005,-0.36042795,-0.07894124,0.5078908
-13.055563000000001,1.8597298,4.4783826,-0.4535936,-0.05873033,0.4802099
-12.823354,-1.6159712,4.7052574,-0.51694906,-0.07257079,0.37480944
-13.721074,-0.99614114,3.598983,-0.5643173,-0.07468264,0.20181242
-12.701709,0.16699079,2.2022345000000003,-0.5818928000000001,-0.02146755,0.095870934
-11.218117999999999,0.38153997,1.1036216,-0.58400464,0.062098815999999994,0.08470083
-9.855367999999999,1.0098072,0.80656826,-0.5882807,-0.0070860367,0.096935585
-8.192336,1.4774905,0.31370747,-0.6079680000000001,-0.110357165,0.066060714
-6.574832000000001,1.5462136999999998,0.69718194,-0.6372545999999999,-0.03530801,0.03890339
-5.5356627,1.2587085,1.0004795,-0.6053151,0.098820545,0.018151425
-5.573835400000001,0.701367,0.63449216,-0.5212077,0.34156093,-0.010053096
-6.4191613,0.70229596,0.5665352,-0.39132026,0.33730233,-0.024417156000000002
-7.182278999999999,0.6822613000000001,0.59286183,-0.21245892,0.11904891,0.023474678
-7.833129,0.6662296999999999,0.3221925,-0.09428269,0.17654005,0.01282817
-8.302775,0.48281473,-0.05492299,-0.051155599999999996,0.37297687,-0.072326444
-8.891845,0.01661576,-0.6902866999999999,-0.030403635,0.45708427,-0.15004596
-9.289397,0.038470034,-1.1903971000000002,-0.1783901,0.38521162,-0.04464552
-8.974196000000001,0.44583866,-1.4089493999999998,-0.20711823,-0.081611596,0.32744122
-8.572707000000001,0.42164764,-1.2301886999999998,-0.06340781,-0.34299209999999997,0.5536708
-8.621444,0.25003126,-0.25378537,-0.2353402,-0.08428195,0.54834753
-9.567422,-0.19846974,0.48088977,-0.34074062,0.51670474,0.4344299
-11.131573,-0.99930143,0.041946415,-0.49139744,0.39214057,0.23427555
-11.904689999999999,-0.8598919,0.06551494,-0.50682616,-0.10290461,0.1166229
-10.656333,-0.17922036,-1.1924369,-0.39184386,-0.41645299999999996,-0.05103342599999999
-9.424717999999999,0.03722505,-2.281885,-0.22682299,-0.30147073,-0.213925
-9.352144000000001,0.21777658,-2.7494628,-0.017086774,-0.28708920000000004,-0.31506684
-12.584499000000001,1.6294458,-0.6621213,0.19156733,-0.3642851,-0.42153192
-15.810945000000002,0.47143748,4.5820136,0.26448720000000003,-0.31211722,-0.46785295
-13.921345,-3.3645716,5.693574400000001,0.31559044,-0.23120376,-0.44017205
-9.613869000000001,-0.09008902,4.7738276,0.39491564,-0.25834364,-0.42739624
-11.008357,2.5685954,4.831164,0.44868925,-0.28283059999999993,-0.38001055
-13.098811,1.2687258999999997,2.6658668999999997,0.48061132,-0.20511109,-0.25492278
-13.604323,-1.1104978,1.9973961999999998,0.5216090999999999,-0.0922581,-0.12449434
-11.220053,-1.0209355,2.3748374,0.57697093,-0.05126032,-0.04783947400000001
-9.832583999999999,-2.176473,2.2014107999999997,0.61262804,-0.057124626,-0.037192967
-8.586718,-2.3520925,1.698667,0.5849470999999999,-0.033702306,-0.03080506
-6.9083924,-1.9601521000000002,1.3686693,0.55300754,0.019512782,0.011763518999999998
-5.9639177000000005,-1.3843849,0.9272073000000001,0.49073422,0.075939275,0.06977826
-5.7603345,-0.68978864,0.8493190999999999,0.4018446,0.17123425,0.06819001599999999
-5.81746,-0.15567099,0.95679003,0.28473303,0.061575215,-0.0073827426000000005
-6.4043555,-0.57819015,1.1224208999999998,0.13088223,0.17175785,-0.15962781
-7.355486,-1.198978,0.9614635,0.035604715,0.42833869999999996,-0.19369663
-8.39049,-1.5763328,0.455607,0.07391469,0.5092522,-0.20221385
-9.131332,-1.5531954,-0.24158454,0.25651103,0.48689449999999995,-0.30442032
-9.503889,-1.0321115,-0.7732505000000001,0.1404641,0.41289255,-0.6392616999999999
-9.482925,-0.6425271,-1.2592831,0.22830652,0.102031946,-0.7563559
-9.325214,-0.97427726,-1.4238892,0.24532348,-0.42229986,-0.43963100000000005
-9.550345,-1.0186275,-1.0281372,0.08297295,0.07752752,-0.2676986
-10.693615,-0.28287014,-0.52624553,0.078173295,0.015254176999999999,-0.07606145
-11.380934,0.89560384,-0.44888409999999995,0.15430456,-0.17317156,0.031450834
-10.600002,0.24504174,-0.94571924,0.17027432,-0.3286106,0.14323917
-9.870987,-1.4046493999999998,-1.6894541,0.07552039599999999,-0.29827678,0.27738518
-9.568887,-2.2265117,-1.2469003,-0.030927233,-0.25089110000000003,0.3614926
-11.07823,-2.242371,0.91745806,-0.105976395,-0.26366690000000004,0.40355504
-14.28215,-0.22343647,3.6603417,-0.14484487,-0.22108085,0.40355504
-14.977532,3.2516322,4.275211,-0.13313371,-0.19872318,0.37480944
-12.284218,-0.1140885,4.747769,-0.13845697,-0.27377236,0.33328807
-12.236956,0.52784485,5.8845553,-0.12728687,-0.29773572,0.26089182
-12.843389,0.9979033000000002,3.4255760000000004,-0.15655604,-0.21734585,0.18797196
-11.813844,0.52038455,2.3581833999999997,-0.2353402,-0.14868459,0.14697418
-10.535254,0.23880725,1.5439056999999998,-0.32105333,-0.105574965,0.12301081
-9.021333,1.1846223,0.9506800999999999,-0.431777,-0.03796091,0.10545279
-8.023535,1.615952,0.42268196,-0.5488886,-0.038501963,0.06977826
-7.1879773,1.257588,0.54084057,-0.64523077,-0.010279989,0.025062927999999998
-6.590107400000001,0.5235161,0.6300485,-0.69261646,0.10946705,-0.014835299
-6.9346137,-0.3557784,0.37534377,-0.65535367,0.19305086,-0.07180285
-7.2866955,-0.57438815,0.69341826,-0.5084144,0.074874625,-0.07178539
-7.303789999999999,0.039130833,0.91078305,-0.3135833,0.021642083,0.00059341197
-7.601389,0.5996901,0.5538363000000001,-0.120898955,0.21540853,0.017610373000000002
-8.115128,1.0648643,0.07784986,-0.0075049159999999995,0.455496,-0.037716564
-8.500077000000001,1.1466886,-0.16342820000000002,-0.02453933,0.60613537,-0.11491248
-8.976073,1.0297271000000001,-0.5170805,-0.19540706,0.41023964,-0.05529203
-8.997361999999999,1.1901002,-0.8703880999999999,-0.25185102,-0.10025171,0.29548424
-8.831531,1.1541871000000001,-0.81251544,-0.059672805999999995,-0.30944687,0.62819636
-8.983035000000001,0.75983346,-0.4901218,-0.10067059,0.09829694,0.7064395
-10.065118,0.74921274,-0.09490616,-0.13154547,0.7471929,0.47753954
-11.365467,-0.31610164,0.12206597599999999,-0.2624975,0.49008846,0.20765927
-11.291438000000001,-1.2123471000000001,0.25135288,-0.32424727,0.00726057,0.07616617
-10.011412,-0.9228115,-0.70657676,-0.28963740000000004,-0.40952405,-0.060615286
-9.07139,-0.27446170000000003,-1.993671,-0.1762608,-0.324352,-0.23202407
-8.755183,0.31750947,-3.6490218999999997,0.014311700000000002,-0.29187140000000006,-0.3438124
-11.163492,1.7475661,-1.3497264,0.2208365,-0.39142498,-0.43059018
-14.822482999999998,0.59177,5.70273,0.34220672,-0.31744048,-0.47211155
-14.240835999999998,-4.0162260000000005,8.738635,0.41514403,-0.109292515,-0.47263515
-10.811036999999999,-1.7332488000000001,5.975257,0.4524068,-0.09332275400000001,-0.47637016
-11.668266000000001,1.3120226000000001,4.4420967000000005,0.45985934,-0.18222983,-0.42100832
-13.801232,1.1573188,2.746274,0.48541096,-0.20032889,-0.29750884
-14.277123000000001,-0.36024114,1.7407475,0.53012633,-0.10716321,-0.12875293
-11.832528,-0.37552574,1.8133876,0.55567795,-0.042219516,-0.02867576
-10.023775,-1.8495207999999999,1.893057,0.60039324,0.047193702000000004,-0.022287855
-8.639275999999999,-2.603637,1.2676628,0.6349857,0.03387684,-0.027611108
-6.6090217,-2.1767316,1.4485493999999999,0.63817966,-0.04647812,0.016022123
-4.923733,-1.177047,1.6724648000000002,0.5593955,0.0035430184000000003,0.07138397
-4.664585,-0.31052795,1.2417862,0.44495425,0.026424285,0.035185836
-5.5168156999999995,0.13069469,1.1269125,0.24214698,-0.021991148999999998,-0.050492376
-6.580358,-0.45224553,0.99138147,0.0073827426000000005,0.26970574,-0.17188002
-7.5384984,-1.5497763,0.8687792,-0.10758209,0.50818753,-0.14845770000000003
-8.696966999999999,-1.6731256,0.73760563,-0.016022123,0.6902428,-0.09309586
-9.032222,-1.1751604,0.10380301,0.35552356,0.6130469,-0.061679937000000004
-9.197307,-0.8720065999999999,-0.6629832,0.47582912,0.24467771,-0.38055158
-9.487896000000001,-1.1381173,-1.3590733999999998,0.2751337,-0.0858702,-0.8356811
-9.630264,-1.53657,-1.4879485000000001,0.37042868,-0.20669934,-0.9591806
-10.152842,-1.1027118,-0.89571875,0.07285004,0.12756611,-0.48647562
-11.162573,0.025895685,-0.29137436,-0.021345377000000002,0.44111452,0.1166229
-11.045372,0.9071343000000001,-0.3553091,0.14578736,0.36498326,0.3401996
-10.277292999999998,0.41681138,-0.95004797,0.25970498,-0.15667820000000002,0.35297540000000005
-9.602837,-0.8306730999999999,-1.9798516,0.22989477,-0.41910592,0.35086355
-9.102582,-2.2016313,-2.4580502999999996,0.06859144,-0.30944687,0.37746236
-9.125155,-3.5919440000000002,-1.4721563999999998,-0.12355186,-0.3562915,0.40568432
-11.091042999999999,-3.8485449999999997,3.5748017,-0.26143286,-0.32648128,0.3934321
-15.221262,2.6152344,8.304202,-0.35990435,-0.22800982,0.36468655
-14.417059,6.4517508,6.9422654999999995,-0.44987607,-0.16413076,0.3588397
-13.792086,1.2289245,5.041384,-0.4967207,-0.16732472,0.3284884
-13.623869000000001,-1.7981987000000001,4.33317,-0.5073672,-0.12952088,0.24118705
-13.373942999999999,-1.4240424999999999,2.8207145000000002,-0.4967207,-0.03424336,0.15920894
-11.579997,-0.5103385,0.89157194,-0.50843185,0.03600614,0.13632767
-9.161269,0.60794526,0.6564422,-0.5329188,0.081786126,0.1272694
-7.689792999999999,1.5281997999999999,-0.17246872,-0.54408896,0.09669124,0.096935585
-6.632225999999999,2.0398407,-0.06410715,-0.57070524,0.19092156,0.03890339
-5.7899556,1.5606938999999997,0.59464306,-0.52014303,0.38149408,-0.009512044499999999
-5.495899,0.5943079000000001,0.7238629,-0.39664352,0.50977576,-0.08990191
-6.0513449999999995,0.01685518,0.6135956,-0.27527332,0.33943164,-0.13514084
-7.043722,-0.0048841713,0.7482934,-0.053825952,0.2425484,-0.06328564
-7.861150299999999,0.43726742,0.7153109000000001,0.061679937000000004,0.4150393,-0.03080506
-8.304672,0.48435658,0.05620628,0.07178539,0.49221775,-0.05050983
-8.763812,0.303489,-0.6217933000000001,-0.09374163,0.5816484000000001,0.08042477
-9.228058,0.22536142,-1.0045687,-0.121963605,0.3761708,0.45572293
-9.115722,0.26438690000000004,-1.2621848999999998,-0.020821778,0.03281219,0.6202026999999999
-8.991722,0.29987854,-1.1654495,-0.13419837,0.022165682000000003,0.47328094
-9.078783999999999,0.23280259999999997,-0.43682688,-0.20659462,0.41076323,0.28590238
-10.10083,-0.013340491999999999,-0.15267345,-0.27846727,0.2947163,0.14271557
-11.263110000000001,-0.9803203000000001,-0.22004629999999997,-0.27633798,-0.07628834,0.043703045999999995
-11.029799,-0.6017299,-0.5124454,-0.19488347,-0.31796408,-0.04145157
-9.809417999999999,0.24548228,-1.7217470000000001,-0.035185836,-0.31583479999999997,-0.12610003
-9.529639999999999,0.5438573,-1.8460061999999997,0.15856317,-0.42816418,-0.20434316
-13.044473,1.1702092,0.6639025,0.35924113,-0.5915793,-0.27141616
-16.651117000000003,-0.004711789,5.343092400000001,0.48328167,-0.5431465,-0.33635986
-14.737689999999999,-2.8245354,5.6697474,0.51309186,-0.32967523,-0.3917217
-10.87636,0.42057505,3.6788154000000004,0.52532667,-0.27644270000000004,-0.4002389
-11.392472999999999,2.198672,3.7910748,0.5391670999999999,-0.34458035,-0.3395538
-12.554657,0.5767344,2.2978207999999998,0.51202726,-0.25408503,-0.25385815
-12.299263,-1.2331862,1.7748505,0.5056393,-0.10183996,-0.15697491
-10.708508,-1.6582433,1.8945701000000001,0.5050983,-0.041154865,-0.10107201
-9.4394655,-2.3038733,1.3368169,0.49392816,-0.021450097,-0.03932227
-8.469125,-2.4554167000000002,0.5544492,0.460924,0.00034906584,0.011763518999999998
-7.327147999999999,-1.8725243000000003,0.65705514,0.44547784,0.022706734,0.031991884
-6.4088182,-1.0694516,0.8608399999999999,0.39917424,0.13236576,0.04796165
-6.4839582,-0.5782476,0.55704457,0.31346112,0.22657864,0.070842914
-7.185717599999999,-0.41529822,0.30876583,0.16121607,0.09456194,0.02825688
-7.4029675,-0.79273933,0.39737046,0.03239331,0.19518016,-0.027611108
-7.477207000000001,-0.84380287,0.42504743,-0.0021816615,0.31867966,-0.009512044499999999
-7.915039,-0.84409976,0.109529935,0.0845612,0.2814169,0.005899213
-8.16803,-0.71287835,-0.41154409999999997,0.37201694,0.22392574,-0.036669366
-8.351148,-0.38334042,-0.96607953,0.46731192,0.14301229,-0.25118777
-8.16553,-0.11737335,-1.3908205,0.26715755,-0.045954518,-0.6307444999999999
-8.253369000000001,-0.31591013,-0.9273892,0.26289895,-0.32489303,-0.7345393
-8.996960000000001,-0.7577074,-0.24119188,0.213925,-0.33499850000000003,-0.43484880000000004
-10.574778,-0.5054350999999999,-0.034945767,0.24054128,0.14194763,-0.15962781
-11.349196000000001,0.91327304,0.072831616,0.34220672,-0.057124626,0.0021816615
-11.217208,0.55103034,-0.7190075,0.36510542,-0.15507251,0.09161233
-10.57968,-0.6334579,-2.23085,0.27832764,-0.29827678,0.17411405
-10.229151,-2.2501569,-2.667112,0.13672909,-0.29401818,0.26832690000000003
-10.317783,-3.4196,-1.4661708,-0.010175269,-0.36587337,0.32690015
-12.00605,-2.6430933,1.7055048,-0.14058627,-0.3328692,0.37107444
-14.848504,0.88382435,4.8311543,-0.19861847,-0.21097539999999998,0.39449677
-14.606498,4.0590625,5.8723735999999995,-0.19329521,-0.16358972,0.4046197
-11.999902,-0.037598547,5.2079059999999995,-0.17732546,-0.20404644,0.34499922
-12.045717,-1.3167438999999999,4.345974,-0.1783901,-0.21469295,0.21882938
-12.07848,-0.9693451999999999,3.1102404999999997,-0.20926498,-0.15613715,0.1293987
-11.223721000000001,0.45386400000000005,1.6957269,-0.26782078,-0.10876892,0.09054768
-10.265169,0.97877836,0.8558984000000001,-0.31412435,-0.09599311,0.08309512599999999
-9.4043,1.5183357,0.37797743,-0.35777503,-0.14549065,0.06551966
-7.9930425000000005,1.6337648999999999,0.13763787,-0.4275184,-0.13377948,0.0027052604
-6.800441999999999,1.1281383,0.532097,-0.5041733,0.016318828,-0.053162728
-6.616845599999999,0.39860585,0.7237001000000001,-0.5275956,0.21699679,-0.09522516
-6.986146499999999,-0.08720641,0.73813236,-0.46636942,0.30270990000000003,-0.107459925
-7.2890415,-0.040011898,0.51965666,-0.31253612,0.19518016,-0.0771261
-7.3459187,0.32345665,0.5063162,-0.13632767,0.17814575,-0.05050983
-7.6451554,0.86167324,0.33651942,-0.14590952,0.36924186,-0.06700319
-8.164698,1.0348601,-0.08705318,-0.22629939,0.497541,-0.09361946
-8.70097,0.84691536,-0.37407964,-0.32264155,0.5017996,0.10332349
-8.840925,0.82917905,-0.58177185,-0.32424727,0.40118137,0.47115162
-8.540348,0.7848002,-0.7065289,-0.45252895,0.27822295,0.5211902
-8.566205,0.8450766,-0.69393545,-0.5643173,0.31761500000000004,0.5510004
-9.012963000000001,0.5917222,-0.32360986,-0.6526833000000001,0.18772762,0.42004840000000004
-10.143716,-0.38996756,0.034352005,-0.65535367,0.011519173,0.25822145
-10.9745035,-0.9932968000000001,0.3772304,-0.61329126,-0.17371263,0.08627162
-10.453553999999999,-0.5333898,-0.28269777,-0.4865978,-0.2913478,-0.122365035
-9.295095,0.19275239,-1.4481663999999999,-0.33648202,-0.23546237,-0.27248082
-9.982854,0.4004446,-1.1778898000000002,-0.09054768,-0.28017770000000003,-0.35499996
-14.27491,0.6209793,1.6814096,0.13566445,-0.28176597,-0.37309903
-15.889895000000001,-0.6216688,4.667458,0.27832764,-0.18010053,-0.32784265
-12.545665,-1.7898573,3.166035,0.35498253,-0.11728612,-0.29164450000000003
-12.527439999999999,1.1410382,4.165538,0.45612434,-0.14868459,-0.27834509999999996
-13.196907000000001,1.5601481000000001,3.8489091,0.5152212,-0.23865633,-0.23256512
-12.996551,-0.7720534,3.0946972,0.49712214,-0.22003366,-0.14845770000000003
-12.138095,-1.8289498,2.6660297,0.4481482,-0.04701917,-0.0792554
-10.2828,-1.3393356,2.3747895,0.42898446,0.055710907999999996,-0.036128316
-8.947725,-2.0705152,1.8399248,0.44708353,-0.0038920840999999997,-0.015899949
-7.663398700000001,-2.5012417,1.8097196,0.4657062,-0.07150614,0.009634216999999999
-6.3187776,-2.608387,1.6228474,0.46144759999999996,-0.044348817,0.044226642999999996
-5.723014,-2.2231216000000003,1.3587764999999998,0.3959803,0.019512782,0.09161233
-5.684658,-1.2282733000000001,1.2043504999999999,0.3123965,0.10733775,0.10384709
-6.1253734,-0.54250693,1.094763,0.18092082,0.07806858,0.025062927999999998
-6.713581,-0.4844236,0.9970222,0.07604399,0.28461084,-0.052098077
-7.463990700000001,-0.7087699000000001,0.89140916,0.05368633,0.46080184,-0.04358087
-8.388047,-0.9106107,0.48069823,0.21286036,0.51509905,0.030927233
-9.456369,-1.1322564,-0.23518723,0.49658108,0.5662023,-0.032410762999999995
-9.973871,-1.1801115,-0.70482427,0.52054447,0.44963172,-0.30016172
-9.694151,-1.3608835,-1.0915453000000002,0.2682222,0.10042624,-0.71059334
-9.5059,-1.5251353,-1.1350049,0.34646532,-0.26792550000000004,-0.7574380000000001
-9.974091,-1.0653143999999999,-0.5802204000000001,0.023352506000000002,0.0014137167000000002,-0.38959240000000006
-10.852675999999999,0.29034963,-0.11145488,-0.12622221,0.36020106,-0.026022859
-10.845811,0.8446169,-0.23199815,0.0020594885999999997,0.1712168,0.16240288
-10.250899,-0.31858206,-0.89710736,0.0861669,-0.03317871,0.1767844
-9.717797000000001,-1.2809361000000001,-1.7075158,0.050492376,-0.24450317,0.20179497
-8.941932000000001,-2.1435478,-1.8611662,-0.08309512599999999,-0.2136283,0.25450389999999995
-8.638681,-3.2153745,-0.68569934,-0.2502453,-0.24132667,0.3284884
-11.179189,-3.3728553999999997,3.1385112,-0.38493237,-0.24130923,0.3705334
-15.194111,2.3466432,6.4452868,-0.47862163,-0.18381807,0.35191074
-13.491816,5.98334,5.97882,-0.5329188,-0.16465436,0.2795145
-11.937269,1.0811545,4.7389107,-0.5685759,-0.13058554,0.22788765
-12.922838,-0.5972384,3.7615016000000003,-0.5600586999999999,-0.10131636,0.16081464
-12.689900999999999,-0.8405754999999999,2.8640876,-0.5632526,-0.076829396,0.09054768
-11.780296,-0.38869384,0.99028015,-0.56538194,-0.052866023,0.057002455
-10.362689,0.58593774,0.5362533,-0.5632526,0.023230333,0.05806710599999999
-9.206452,1.6757113000000001,0.073358335,-0.5648584,0.03122394,0.0559378
-8.084883999999999,1.9196517,-0.14301045,-0.58402205,0.01844813,0.031991884
-6.9608927,1.5457731000000001,0.30492553,-0.6069033,0.06848672,-0.0026005406
-6.4131756,0.4780742,0.5680483000000001,-0.54408896,0.15365879,-0.013788101
-6.4511,-0.42612,0.5743307,-0.44933500000000004,0.18718657,-0.03932227
-6.9834747,-0.5013267,0.6693709,-0.3018896,0.11904891,-0.0169646
-7.6504035,0.03690901,0.6739582,-0.18584266,0.11107276,-0.008988446
-8.183333,0.29693848,0.17392439,-0.13739231,0.1669582,-0.061679937000000004
-8.417333,0.22335029,-0.20822851,-0.12674580000000002,0.30855677,-0.08564331
-8.869407,0.14676456,-0.65676785,-0.20233601,0.29045770000000004,0.011222467
-9.066363,0.22556253,-1.2046953,-0.28857273,0.14885913,0.244381
-8.967587,0.23751439,-1.406038,-0.2353402,-0.076829396,0.5243842
-9.004764999999999,0.28784052,-1.0470514000000002,-0.1826487,-0.0837409,0.5813517
-9.588356,0.3200186,0.031162929,-0.23481660000000001,0.09510299,0.49457395
-10.769149,-0.32437605,0.15511554,-0.40674898,0.3032335,0.4131369000000001
-11.752523,-0.60933393,0.40177578,-0.5212077,0.050911255,0.28005552
-11.27127,-0.38275623,-0.7687495,-0.5350481,-0.11515682,0.15336208
-9.916325,-0.08863334,-1.6569313,-0.41474259999999996,-0.31477013,-0.038257618
-9.493219999999999,0.03977248,-2.5186523999999997,-0.2624975,-0.28443632,-0.21340140000000002
-11.300536,1.3605768999999999,-1.6879696,-0.047438048,-0.39248964,-0.32838368
-13.457846,0.36883157,0.97396123,0.16973327,-0.4861789000000001,-0.3954567
-13.826657999999998,-1.5181825,3.9048182999999996,0.2836509,-0.42816418,-0.39865065
-10.587811,-1.7195827000000001,4.175708,0.348071,-0.35150929999999997,-0.34967673
-9.952668,0.7516357,4.3106545999999994,0.36137040000000004,-0.34245107,-0.31560788
-11.981475999999999,1.3251237,3.4685566,0.41940263,-0.33927456,-0.28792697
-12.910244,0.18520588,2.5324044,0.49179888,-0.26900759999999996,-0.20488420000000002
-12.8020935,-1.6526313000000001,2.1077497000000003,0.55354863,-0.15348426,-0.098419115
-11.243545,-1.7283933,2.201593,0.5929406999999999,-0.023055799999999998,-0.056897733
-10.167092,-2.2899005,1.8227631999999998,0.61423373,0.03546509,-0.079796456
-9.185804,-2.7355957,1.638582,0.5844235,-0.016685348,-0.094701566
-7.5525475,-2.532261,1.5113351000000002,0.51309186,0.00726057,-0.046251226
-6.5858836,-1.5173014,1.3963846000000002,0.4002389,0.13608332,0.048485245999999996
-6.4940805,-0.50438166,1.1703336000000002,0.28684485,0.26012388,0.131528
-6.288782599999999,0.06055415,1.1137826000000002,0.22137757,0.18772762,0.14590952
-6.302487,-0.54314864,1.4797603000000001,0.19476129,0.14034192,0.035709437000000004
-6.8117529999999995,-1.4203937,1.3609025,0.20060815,0.38362336,-0.013247048999999999
-7.740502,-1.7165276999999999,0.90360045,0.21125466,0.52202797,-0.079779
-8.525685000000001,-1.426676,0.1886631,0.30548498,0.57684875,-0.21978931
-9.123142999999999,-1.0763086000000002,-0.88134396,0.22190116,0.6923720999999999,-0.47637016
-9.3829155,-0.6816867,-1.6144773000000001,0.12714724,0.5443682,-0.64671427
-9.134569,-0.89605397,-1.9199678,0.32197833,-0.33393383,-0.46837655
-9.159593,-0.9492818000000001,-1.6500359,0.20167279,-0.2136283,-0.3390302
-10.551755,-0.58231777,-0.5544492,0.11384783,-0.17477727,-0.15645131
-11.759447,0.04501099,-0.19692788,0.06700319,-0.19233528,0.058608155999999995
-10.967924,-0.49115613,-0.34242833,0.048904125,-0.25197318,0.22521728
-10.006739,-2.0447056,-0.866136,0.004712389,-0.32489303,0.34180528
-9.79193,-2.5560784,-0.72728187,-0.07777187,-0.35470328,0.40140828
-10.778409,-1.8509957,0.68035555,-0.17146115,-0.36002649999999997,0.40620792
-12.940526,-0.25781724,2.3554156,-0.24811599999999998,-0.2716605,0.3929085
-15.505951000000001,2.489127,3.9101529999999998,-0.29496065,-0.18062413,0.3487168
-14.126766,1.5681638999999998,4.3712854000000005,-0.35405749999999997,-0.13538519,0.28536132
-13.370467000000001,0.9192106,5.1064300000000005,-0.39451423,-0.17051867,0.19860101
-12.626244999999999,0.7865623,3.519103,-0.41474259999999996,-0.16732472,0.12620476
-11.554494,0.45603797,2.7935642999999994,-0.41900119999999996,-0.081629045,0.08520697
-10.30677,-0.06537128,1.9546646,-0.43762386,-0.03530801,0.07936012
-9.089031,0.43821552,1.1850628,-0.44987607,-0.05979498,0.060720004
-7.9969306,1.2130367,0.5061343,-0.46691048,-0.13697344,0.028797932000000002
-6.9736009999999995,1.4759871,0.42996990000000007,-0.54195964,-0.10822786400000001,-0.008447394
-6.3362164000000005,1.500427,0.6106938000000001,-0.6037094,-0.05820673,-0.043057274000000006
-6.3896837,1.0138774,0.75997704,-0.6202201999999999,0.103602745,-0.092572264
-6.916485000000001,0.5359755999999999,0.56981045,-0.5882807,0.2335076,-0.14952235
-7.391417999999999,0.28564742,0.57397634,-0.51002014,0.21753784,-0.14313444
-7.721224,0.32522836,0.65935355,-0.40249038,0.22444934,-0.10693632
-8.305045,0.5704617,0.37519056,-0.3524518,0.33569664,-0.11067133
-8.975986500000001,0.86895156,-0.3204304,-0.35138714,0.42992696,-0.13674654
-9.403678,0.86581033,-0.70627993,-0.44348815,0.55929077,-0.10107201
-9.18162,0.7961008,-0.81322414,-0.473822,0.44535565,0.14802137
-9.006144,0.68803614,-1.0069151,-0.29550170000000003,0.13608332,0.47701594
-8.798375,0.43336967,-0.6463866,-0.20022418,-0.027331855,0.49031535
-8.827144,0.115793176,-0.02957318,-0.15390313,0.19676842,0.38758525
-9.890514,-0.20632273,0.19601808,-0.21085322,0.42727405,0.28112018
-10.984328999999999,-0.5558953000000001,0.23922864,-0.21352358,0.0450644,0.10437069
-10.788407000000001,0.045231257000000004,-0.43398258,-0.120898955,-0.15774286,-0.023369959
-9.856555,0.27089915,-1.4785632,0.05529203,-0.22109829999999997,-0.15112805
-9.304039999999999,0.29256186,-2.086652,0.25384068,-0.19554669,-0.26823965
-10.583855999999999,0.94999045,-1.2857629,0.49658108,-0.24078563,-0.36404076
-14.209729999999999,0.9434495,2.5458502999999997,0.69408256,-0.30147073,-0.42685518
-15.869879999999998,-1.8502869999999998,6.275931,0.796289,-0.25249678,-0.45720646
-11.147192,-3.1678257000000003,4.2839737,0.84739226,-0.22214551,-0.44975388
-10.19203,0.26258644,4.63935,0.862821,-0.24610887,-0.4018446
-12.318513000000001,1.3399101,3.3573892,0.8633620000000001,-0.27804840000000003,-0.31934288
-12.803099000000001,0.17854999,2.6941283,0.83514005,-0.20725785,-0.1942377
-11.948167999999999,-1.2066202,2.4564319,0.77284926,-0.08002335,-0.11067133
-10.48598,-1.4811298000000002,2.1350915,0.6631902,0.054105207,-0.06169739
-9.237616000000001,-2.2540739,1.6549106,0.5647187,0.12808971,-0.03508112
-8.054296,-2.3934642999999998,1.2490168,0.5274559,0.09295624,-0.011658799
-6.9040539999999995,-2.1379262999999997,0.97957325,0.5003161,0.059952057999999996,0.005899213
-6.445727,-1.6734033,0.8666052,0.42418483,0.03122394,0.02560398
-6.48369,-0.9026332,0.91478616,0.34220672,0.06527531,0.041556288
-6.5009375,-0.33810917,0.89151454,0.25384068,0.059969515,-0.015917404
-6.577293400000001,-0.40215886,0.9334896999999999,0.16599827,0.21645573,-0.10108947
-7.182575999999999,-0.5056554,0.6936576999999999,0.14896385,0.32559118,-0.077667154
-8.0673485,-0.41190806,0.29931352,0.22137757,0.39692277,-0.02656391
-9.057063000000001,-0.46368027,-0.4382634,0.42524946,0.41022217,-0.08883726
-9.830238,-0.38373306,-1.1315476,0.52532667,0.3591364,-0.32412508
-9.772393,-0.5019587000000001,-1.6615567999999998,0.3879867,0.21219712,-0.68558276
-9.765642,-0.677291,-1.7293031000000003,0.43963100000000005,-0.105574965,-0.67545986
-10.254395,-0.75068754,-0.81681544,0.23893557,0.11105530000000001,-0.3949331
-10.997833,-0.18890251,-0.10345824,0.19580849,0.29204595,-0.08724901
-11.335109,0.5746372,0.19502209,0.33475414,0.042394046,0.12566371
-10.977176,-0.23485203,-0.6517113,0.47635272,-0.11728612,0.20657717
-10.271107,-1.0869293,-1.6140462,0.4790056,-0.306794,0.2720619
-9.488662,-1.7520958999999998,-2.3279781,0.33742452,-0.2865656,0.34498179999999995
-9.520505,-2.519514,-1.1891329,0.1511106,-0.29241246,0.40407863
-10.976994,-2.301843,2.4559433,0.028134707000000002,-0.2546261,0.4349535
-14.180511,0.9124398000000001,5.617209,-0.043179445,-0.17851228,0.41153118
-13.648692,3.661194,5.8215303,-0.10386454,-0.1561546,0.3636219
-12.471081,0.8267849,4.9006724,-0.16826719,-0.14444345,0.2885553
-13.165246,-0.9764511999999999,3.299976,-0.21298252,-0.12260938,0.16985545
-12.833333,-1.144888,2.8478265,-0.24439846,-0.13751449,0.06604326
-11.597953,-0.6004658,1.3469683000000001,-0.32372367,-0.0853466,0.051679197999999996
-10.117983,0.5142362,0.5945090000000001,-0.41793653,-0.03052581,0.06604326
-8.802762,1.7043747999999999,-0.04147715,-0.50897294,-0.0853466,0.038362335
-7.3196015,2.076491,-0.0504985,-0.59625685,-0.081629045,-0.022828907000000002
-6.1563926,1.5278263,0.6815047,-0.64524823,0.063669614,-0.0782082
-5.6080822999999995,0.38390547,0.98318374,-0.615438,0.2515892,-0.09416051
-5.917701,-0.10251014,0.9006795,-0.5111022,0.32452652,-0.07553785
-6.683414,0.306046,0.678737,-0.28113765,0.13767157,0.003228859
-7.5735399999999995,0.79272014,0.47757619999999995,-0.12728687,0.16641714,0.062308256
-8.358206,0.638524,0.11137827,-0.026686084,0.3687008,0.03197443
-8.843931,0.68612075,-0.5274043,-0.12569861,0.46186647,-0.015376351000000002
-9.30224,0.81292725,-1.0947726999999998,-0.15709709,0.26808256,0.20764183
-9.322772,1.0116173000000002,-1.4771458999999998,-0.08098327,0.15310028,0.47006953
-9.030880999999999,1.1421683,-1.4028299,-0.18797196,-0.017749999,0.5323603
-8.923065,0.9362478000000001,-0.7558495,-0.3034953,0.1781283,0.5701467
-9.781185,0.34174836,-0.17090770000000002,-0.4440292,0.20580922,0.39660862
-11.436967999999998,-0.39289808,0.121079564,-0.45413467,-0.06352998,0.17783159
-12.086361,-0.6459651999999999,-0.0164338,-0.40144318,-0.23706807,0.027174776
-10.614233,-0.066989765,-1.265642,-0.27368507,-0.3946364,-0.12931144
-9.119849,0.2797864,-2.105691,-0.1155757,-0.35578537,-0.25014058
-10.366137,0.6017299,-1.8685308,0.11276572,-0.3834663,-0.3353301
-14.059931,0.9596056000000001,2.5297806,0.3336895,-0.3919835,-0.39812705
-14.647611999999999,-1.2746634,5.0691375999999995,0.46464154,-0.32597515,-0.40718532
-11.83655,-2.6501992000000003,3.8783769999999995,0.53171456,-0.18861774,-0.38748056
-11.766314,-0.29801106,4.478833,0.566307,-0.19874065,-0.34969416
-12.783983000000001,1.3958865,3.5473545,0.57749456,-0.38292524,-0.26825709999999997
-12.972417,-0.379548,3.0294216,0.58227676,-0.35419709999999993,-0.14634585
-11.895342,-1.5474588,2.2104037,0.57536525,-0.14285520000000002,-0.029757863
-10.236831,-1.5779128999999998,2.0273716,0.5657833999999999,-0.001256637,0.025045475
-8.73446,-2.330468,1.5794643999999998,0.54449034,0.059952057999999996,0.021327923999999998
-7.169140299999999,-2.580461,1.5459551999999999,0.5263913,0.042376593,0.024504422999999997
-5.9324965,-2.395121,1.5426799,0.5114862,0.07005752,0.0543321
-5.4037995,-1.9053918,1.4148391000000002,0.44547784,0.12116075,0.10702359
-5.7210980000000005,-1.0038025,1.1723735,0.37679914,0.18184586,0.111823246
-6.9056726,-0.26601496,0.6311786,0.2756573,0.15577063,0.022392575
-7.559366000000001,-0.33249715,0.7365139,0.14151129,0.37615335,-0.0776846
-7.894698,-0.9983055000000001,1.0751115,0.08241445,0.46078438,-0.05958554
-8.564127000000001,-1.2940085,0.731783,0.20219639,0.47516587,-0.0010297442999999999
-9.1658945,-1.1068394,-0.08517612,0.42418483,0.54595643,-0.118664935
-9.673973,-0.6916753000000001,-0.7149182,0.40180970000000005,0.32929125,-0.53441983
-9.813162,-0.83383346,-1.2315582,0.31663764,0.059934605,-0.80749404
-9.810299,-1.1791635,-1.4751157,0.3086615,-0.24560273,-0.5259026
-9.908901,-0.84255785,-1.1385003,0.007906342,0.16587609,-0.2639985
-10.650348,0.47624502,-0.4622054,-0.010716322,0.06314601,-0.063844144
-10.599064,1.4137282,-0.40132564,0.043563418,-0.0028448866,0.09370673
-10.112447999999999,-0.07935342,-1.1535072,0.03450516,-0.14072590000000001,0.21881193
-9.509597,-1.6884006,-1.7385351999999998,-0.05597271,-0.23228587,0.33644712
-8.994173,-2.4765623,-1.1837986999999999,-0.15390313,-0.23335052,0.4072551
-10.115675,-2.5236992999999996,1.0775822,-0.21032962,-0.23973842,0.43758896
-13.154682000000001,-1.5186325,4.611596,-0.25399777,-0.21472786,0.434395
-15.408373000000001,3.649089,6.473308599999999,-0.30401890000000004,-0.12795009,0.39819688
-12.496814,1.5672827,3.9961812000000005,-0.38599703,-0.11623893,0.33592352
-12.624655,-0.07803182,4.590891,-0.45841074,-0.12688543,0.28054422
-12.956097999999999,-0.10692505,3.4455051,-0.5164255,-0.11517428,0.21029472
-11.957533999999999,0.031804577,2.5947017999999997,-0.5462357,-0.07045894,0.14002776
-10.941473,0.07784986,1.2563525,-0.5749813,-0.009232792,0.10915289
-9.594965,0.8245152,0.6077154,-0.58136916,0.01308997,0.10594148
-8.259124,1.0533912,0.20117998,-0.59042746,-0.037454765,0.099571034
-7.0949387999999995,0.94444555,0.18443015,-0.63514274,0.02321288,0.089448124
-6.282854599999999,0.59275645,0.47058514,-0.6431189,0.1940806,0.07082546
-6.1512213,0.20855412,0.3866636,-0.5584879,0.36229545,0.04314454
-6.649742,0.060525417000000005,0.13949578,-0.46745154,0.37932986,0.022916173999999997
-7.3668914,0.38098451,0.1385764,-0.31840040000000003,0.26382396,0.04738569
-8.02952,0.8867644,0.18437268,-0.21938789,0.23614305,0.041015237999999996
-8.348659,0.9234532,-0.07918104,-0.18160151,0.29735175,-0.030298917
-8.695578999999999,0.52445465,-0.5690634,-0.28433159999999996,0.27234116,-0.06117379
-9.216556,0.32965285,-0.93257034,-0.37641516,0.31918582,0.16557938
-9.170933,0.27841693,-1.133597,-0.37376225,0.40062287,0.44184756
-9.028353,0.3288005,-0.8278766,-0.4349884,0.23134339,0.49136254
-9.294291000000001,0.29957208,-0.05422388,-0.46054003,0.25476572,0.526496
-10.424315,0.35359484,0.37952885,-0.46160468,0.2994985,0.38063887
-11.361771000000001,-0.19314504,-0.28775429999999996,-0.47225118,-0.04490732,0.17355554
-11.586528999999999,-0.7078984,-0.48444277,-0.39346704,-0.25837854,0.0053407075
-10.288517,-0.6457353,-1.5896925,-0.25399777,-0.36484364,-0.17083283
-8.967646,-0.098736875,-2.5400853,-0.08152433,-0.33129840000000005,-0.29487340000000006
-9.676866,0.9646621999999999,-2.301479,0.1484228,-0.38878953,-0.36566392
-12.633408,1.9244019,2.104618,0.29960322,-0.38613665,-0.3997502
-13.855322,-0.7176284,4.956352,0.37625808,-0.2807362,-0.36993998
-11.953512,-2.5236224999999997,3.9499538,0.45078364,-0.21844539999999998,-0.30871382
-12.621303,0.5237172999999999,4.783251,0.5322380999999999,-0.2077989,-0.29115582
-13.662904999999999,1.6273197,3.7683969,0.5774771,-0.20886356,-0.23258257
-13.681301999999999,-0.59763104,2.9004412,0.5695009,-0.12583824,-0.14262831
-12.538022,-1.5035204,2.4131446,0.5695009,0.045029495,-0.0776846
-10.691184,-0.94056696,1.9230515,0.58653533,0.12222540400000001,-0.073426
-9.363138000000001,-1.6299629,1.4909172,0.6014404000000001,0.056199603,-0.08833111
-7.6604589999999995,-2.2366345,1.2850063999999999,0.59131753,0.02321288,-0.07236135
-6.2489815,-2.3574745999999998,1.2419586,0.54127896,0.008290314,-0.02019346
-5.648439,-1.8926835,1.389384,0.4300317,0.07112217,0.042603485
-5.506778700000001,-1.0267295,1.2221058999999999,0.3342131,0.124354705,0.053249995999999994
-5.756303,-0.46947423,1.0983543,0.21549580000000002,0.09719738,-0.044680428
-6.604338,-0.45815444,0.7503619,0.12128293,0.26754153,-0.124005646
-7.509174300000001,-0.7067205,0.5344336999999999,0.07763225,0.32770303,-0.105906576
-8.551131,-0.92028326,-0.072075054,0.10157816,0.37720054,-0.13730505
-9.453381,-1.0182828000000002,-0.7079559,0.22507766,0.46717227,-0.28955013
-9.737074,-0.9674778,-1.5455433,0.07389724,0.32237977,-0.6754948000000001
-9.506504,-0.89190716,-2.0315185000000002,0.11648327,0.059934605,-0.6989171
-9.59575,-0.90735453,-1.8437077000000002,0.054209925,-0.19821705,-0.36674604
-10.090066,-0.48120582,-0.9472610999999999,-0.020839231,0.04982915,-0.20544271
-11.069313000000001,0.41570044,-0.6369630000000001,0.010018189,-0.17746508,-0.0026179939
-11.212506,0.7981694,-0.5906304,0.066985734,-0.29031807,0.09955358
-10.76639,-0.70201826,-1.6054751,0.025987952999999998,-0.39837140000000004,0.20495401
-9.736864,-1.655102,-2.133885,-0.05810201,-0.41168827,0.31834805
-9.760106,-2.2040064,-0.91710377,-0.12889257,-0.42072907,0.36891025
-11.286621,-1.6000546,1.502917,-0.1730843,-0.38187805,0.38276815
-14.5751915,0.8030919,4.604413500000001,-0.19703022,-0.27380726,0.3678456
-14.560759,4.1537485,5.0858397,-0.25506239999999997,-0.17694148,0.33803537
-11.941244000000001,-0.5338974,4.2042470000000005,-0.29658379999999995,-0.18811159,0.2896025
-12.910110000000001,-0.59125286,4.163536,-0.32531193,-0.22003366,0.23052308
-12.928469,0.31615913,3.1989121,-0.34449309999999994,-0.17214182,0.15865043
-11.631281,0.52388966,2.3266277,-0.37163296,-0.117844634,0.10595894
-10.506705,0.39283103,1.4432153,-0.38920844,-0.06674139,0.08677777
-9.306683999999999,1.1146923,0.82912165,-0.41369540000000005,-0.030543262,0.08093092
-7.9616303,1.4299896,0.39413348,-0.45628142,-0.10506882,0.04207989
-6.692636500000001,1.2198745,0.4946325,-0.5079083,-0.10826277,-0.013805554
-6.033197,0.6999209,0.6497193,-0.52122515,-0.0060562924,-0.052132983
-6.334799299999999,0.039475597,0.501365,-0.50152034,0.13873622,-0.07023205
-6.9985194,-0.17238252,0.47475103,-0.45041713,0.13606587,-0.0803375
-7.6049036999999995,0.118493825,0.45115378,-0.30829495,0.031189033999999997,-0.035639625
-8.179838,0.76330984,0.28058130000000003,-0.2209936,0.15044738,-0.03403392
-8.452489,0.9763745999999999,-0.22290018,-0.16934929999999998,0.34260812,-0.06810275
-8.596036,0.67654395,-0.5909273,-0.1730843,0.5150816,-0.079813905
-8.976341,0.4283514,-0.84601516,-0.28752553,0.5315749,0.006405358000000001
-8.914330999999999,0.58112067,-1.1704199,-0.30562459999999997,0.2526364,0.25075147
-8.666532,0.7739113000000001,-1.0562546999999998,-0.15817920000000002,-0.09974556400000001,0.5387308000000001
-8.706351,0.90507525,-0.29787698,-0.18318976,-0.24719098,0.5738643
-9.576366,0.48238376,0.287218,-0.19490092,0.23347269,0.43493605
-11.158905,-0.28505364,0.48111963,-0.29126054,0.5235988,0.23211133
-11.76413,-0.27579287,0.43006566,-0.37536797,0.14458308,0.059096847
-10.812272,0.27117684,-0.71718794,-0.36950365,-0.0816465,-0.02125811
-9.643978,0.37135983,-1.8038490000000003,-0.28913125,-0.15723671,-0.13943435
-9.250629,0.44209415,-2.9895918,-0.09428269,-0.14604916,-0.24535839999999998
-10.979023,1.4402273,-1.6587412,0.19420278,-0.27967155,-0.34065336
-13.722760000000001,0.69787145,2.7944164000000002,0.37840483,-0.35630897,-0.3960152
-14.836715,-2.161447,6.1351705,0.47794095,-0.31000537,-0.42315507
-10.682402,-2.6222925,4.6824837,0.5295678,-0.3201283,-0.43593088
-10.040497,0.9596439,5.1002917000000005,0.5721538,-0.32119295,-0.40027379999999996
-12.414922,1.6939647,3.3491337,0.6030462,-0.32649875,-0.2751686
-13.400816,0.36987543,2.3563638,0.6110223000000001,-0.22961551,-0.17615607
-12.35275,-0.7463589,1.8328475,0.60569906,-0.114633225,-0.09789552
-10.848147,-1.2467566,1.7399143,0.5870764,-0.027872908999999998,-0.04946263
-9.499168,-2.3704991,1.4472854,0.56684804,0.044505894000000004,-0.009005899
-7.6943706999999995,-2.6093830000000002,1.3995546,0.58388245,0.12541936,-0.0058119465
-6.4949713,-2.0286071,1.4281509,0.5758888000000001,0.14351842,-0.0015533429999999998
-6.019282,-1.2793465,1.1299962,0.47687632,0.12967797,0.062308256
-6.128457,-0.9109649999999999,1.1272476999999999,0.34166566,0.057281705999999995,0.07401941
-6.600421400000001,-0.96178913,1.118121,0.17505652,0.10253809400000001,-0.04201007599999999
-7.095322,-0.9362956,1.03441,0.09573131,0.26063000000000003,-0.08405506
-7.471939599999999,-0.49229574,0.76052296,0.15535176,0.34951964,0.0053407075
-8.207294000000001,-0.45319366,0.25746286,0.40821505,0.44322637,0.11234684
-8.865202,-0.6701562,-0.18317558,0.64083254,0.38041195,0.011728613
-9.166508,-0.6384378,-0.7577265000000001,0.6269920999999999,0.048764499999999995,-0.38056904
-9.228747,-0.41775945,-1.2794517,0.35657075,-0.2099282,-0.7122165
-9.7175665,-0.6335440999999999,-1.4895766000000001,0.23787092,-0.18544123,-0.69090605
-10.802849,-0.50118303,-0.86278415,0.0025830872,0.3122743,-0.21289526
-11.329151,0.7819463000000001,-0.4144842000000001,0.002042035,0.18983947,0.14215706
-10.924234,1.7228484,-0.47251967,0.0824319,0.045570545,0.24490460000000003
-10.337972,0.2584014,-1.5763999,0.05900958,-0.23919737,0.2640683
-9.825975999999999,-1.1765968999999998,-2.3406097999999997,-0.014433873,-0.29881779999999997,0.2885553
-9.391917,-2.2926207,-2.166312,-0.15231489,-0.25251424,0.33965853
-9.438316,-3.1832254,-0.005966350400000001,-0.28326693,-0.24026202,0.374792
-11.881245,-2.629523,5.3407364,-0.33276448,-0.22322759999999997,0.41364303
-15.082475,4.326322,7.6945524,-0.36151004,-0.18490018,0.43865360000000003
-13.220466,4.068965,5.5097475,-0.38227946,-0.16680111,0.40566690000000005
-13.168588,-0.38827249999999996,3.7583508,-0.38653806,-0.17160077,0.27152088
-12.959651,-1.6803560000000002,3.0696826,-0.42060688,-0.15880750000000002,0.13365729999999998
-12.054001,-0.48331273,1.9176598000000002,-0.50152034,-0.1412495,0.07562511400000001
-10.547454,0.44130883,0.6456683000000001,-0.56965804,-0.13060299,0.08892453
-9.198025999999999,0.97033167,0.68152386,-0.6324724,-0.11730358,0.07401941
-8.117464,1.3213887,0.296067,-0.67345273,-0.08908161,0.016528267
-7.209275999999999,1.365442,0.3667438,-0.65215975,0.07592182,-0.03775147
-6.536027,0.6754139,0.8012053000000001,-0.53878313,0.33622023,-0.044662975
-6.374696299999999,0.18852903,0.37539166,-0.40409607,0.45441392,-0.031887166
-6.956917999999999,0.19157445,0.3576267,-0.23109904,0.19729201,0.020786871999999998
-7.658409599999999,0.603109,0.6757012,-0.06873106,0.15950564,0.07030186
-8.193427999999999,1.0226115,0.2872659,-0.057019908,0.38201767,0.049549895999999996
-8.559185000000001,1.1134187,-0.23522553,-0.17999579999999998,0.47996554,0.017610373000000002
-8.991856,0.96986234,-0.5431581999999999,-0.27846727,0.39159954,0.22521728
-9.128852,0.69441426,-0.9176305,-0.27366763,0.18079865,0.5642999
-8.682506,0.5379675,-1.0416023,-0.39824924,-0.067788586,0.64468974
-8.362075,0.44317629999999997,-0.25340232,-0.54782397,0.35379568,0.48605675
-8.652156,0.17826268,0.31669542,-0.6186145000000001,0.31546825,0.31038934
-10.215465,-0.40472543,-0.26994148,-0.6814464,-0.062465332,0.19486602
-11.317602,-0.92536855,-0.09695559,-0.678776,-0.22800982,0.093724184
-10.035766,-0.14736791,-0.9987652,-0.58295745,-0.35363862,-0.059027035
-8.881263,0.5739859,-2.0048661,-0.35566318,-0.30040607,-0.16390386
-10.000608999999999,0.81391364,-1.4659122,-0.07086037,-0.37706092,-0.22671826
-14.30843,1.3236775,2.4974396,0.09361946,-0.36960837,-0.29272664
-15.746348000000001,-0.14593138,5.0221824999999995,0.17186257,-0.21149899,-0.33157766
-12.833352,-1.8060707999999999,4.535633,0.24160592,-0.12208578,-0.35660568
-11.143218,0.47016376,3.5257587,0.29323277,-0.16360717,-0.32625440000000006
-13.10019,1.6087983000000001,3.142677,0.36562902,-0.14070845,-0.23788838
-13.566964000000002,-0.203239,2.471477,0.45399505,-0.04914847,-0.15910421
-12.560842999999998,-1.3719636999999998,2.5368865,0.5412964,0.036547195,-0.1404641
-10.854956,-1.7193911,2.3476012,0.60039324,0.08124508,-0.14793411
-9.70552,-2.933893,2.299554,0.6413736,0.023230333,-0.121300384
-8.161968,-2.9759927000000004,1.9919375,0.6727895,-0.05021312,-0.060615286
-6.643670599999999,-1.9546453999999998,1.7748697,0.6930179,-0.06831218,0.0011170107000000001
-6.037449,-1.174107,1.5871738000000002,0.60091686,-0.056059975,0.05806710599999999
-6.324159,-0.7401627,1.2534795,0.4827406,-0.039025564,0.06339036
-6.9551177,-0.6581469,1.4004357,0.31665509999999997,-0.07628834,-0.0015358897
-7.373355999999999,-1.1295556999999998,1.7583974999999998,0.2229658,0.12224286,-0.09522516
-7.698593600000001,-1.5426701999999999,1.5227506000000002,0.23947662,0.33836700000000003,-0.082449354
-8.042917999999998,-1.4408402,0.9033706,0.3123965,0.37936476,-0.05742133
-8.653047,-1.0308954,-0.0018770541,0.4651826,0.48422414,-0.17613862
-9.240058,-0.8080909000000001,-1.010832,0.41886157,0.45389032,-0.48701668
-9.019935,-0.66077095,-1.5762563,0.29270917,0.38468802,-0.74998546
-8.998033,-0.87632567,-1.416515,0.34168312,-0.13857915,-0.5615422
-9.431727,-0.50057966,-0.91240156,0.24745278,0.13555972,-0.35925856
-10.2735,0.6843682,-0.42030690000000004,0.24586453,-0.094387405,-0.15378097
-10.5018215,1.6422691000000003,-0.06892428,0.26022860000000003,-0.25089110000000003,0.01282817
-9.851814,0.725989,-0.6532627,0.19634955,-0.31424654,0.13472196
-9.648585,-1.0080547,-1.4591893,0.09416051,-0.30518827,0.27527332
-9.767605999999999,-2.114904,-0.9761544,-0.026127578999999998,-0.2641905,0.37747982
-10.350584,-2.1281006000000002,0.973741,-0.16613789,-0.2716605,0.43814746
-12.319978,-0.6490298000000001,3.5024297,-0.26569146,-0.17210692,0.43123594
-14.294659,3.3690345,4.6143446,-0.35086355,-0.0006981317,0.38332665
-12.278836,0.744999,4.4233932000000005,-0.41367793,0.0030019663,0.32316515
-13.029437,-0.70589685,4.754443599999999,-0.4408178,-0.07415904,0.26036823
-13.951051999999999,-0.19016665,3.6205117999999996,-0.42165410000000003,-0.15985471,0.16774360000000002
-12.301006,0.7143819,2.5589995,-0.40516073,-0.13432054,0.08255407
-11.241916999999999,0.52356404,1.532902,-0.40142572,-0.018797196000000002,0.06021386
-9.909658,0.9389868,0.9682822,-0.39077923,0.05677556,0.06979571
-8.6146345,1.3748273000000002,0.25706065,-0.38919097,0.026424285,0.060737457
-7.194336999999999,1.7224175,0.1870925,-0.44134140000000005,0.074874625,0.018151425
-6.0963364,1.5405921999999999,0.7393582,-0.47753954,0.13929473,-0.047298424000000006
-5.9141955,0.9409883,0.73116046,-0.4695634,0.23298400000000002,-0.108524576
-6.6147100000000005,0.25991455,0.45672747,-0.41578978,0.32454398,-0.12501794
-7.551427400000001,-0.2005575,0.6956496999999999,-0.33487633,0.17921041,-0.09894271
-8.120913,0.008264784,0.7244567,-0.22682299,0.14887658,-0.026546458
-8.280347,0.50138414,0.43485406,-0.18582520000000002,0.2984513,-0.032934364
-8.605191,0.5093425,-0.10037451,-0.20392427,0.43792057,-0.0840376
-9.154671,0.41015548,-0.6488861,-0.45411720000000005,0.38629369999999996,-0.16601571
-9.169399,0.41425437,-1.0725065,-0.62606704,0.24630086,-0.057403877
-8.935286,0.5618809,-1.2400432,-0.64310145,-0.14601424,0.28166124
-8.817663,0.64828277,-0.7708276,-0.49298569999999997,-0.5048016,0.67399377
-9.069811,0.80488276,-0.0053342814,-0.40355504,-0.31901127,0.7234913000000001
-10.5799675,0.48233587,0.123579115,-0.26673868,0.14355333,0.5297248999999999
-11.816028,-0.27962359999999997,0.21060356,-0.38864990000000005,0.32773793,0.22682299
-11.225512,-0.230983,-0.35885254,-0.45944047,0.33571407,0.0075049159999999995
-9.946482000000001,0.03475423,-1.5026871000000002,-0.3929085,-0.0927817,-0.07019714
-9.13702,0.52126557,-2.9184650000000003,-0.23054054,-0.20830505,-0.16334537
-8.96958,1.1588416000000001,-4.138454,0.048904125,-0.1390853,-0.29162705
-11.057878500000001,2.8950686,-1.1806958,0.33742452,-0.23064525,-0.41566762
-14.468361999999999,1.0637438,4.0543795,0.57431805,-0.25886723,-0.51680946
-15.280514000000002,-3.6048538999999997,7.8232745999999995,0.68078315,-0.18912388,-0.5306499
-11.489506,-3.937466,6.287815599999999,0.69568825,-0.21361084,-0.46890014
-9.934185000000001,-0.008101978000000001,4.5791407,0.66320765,-0.26153758,-0.37627554
-11.332446000000001,1.6710666,3.5120065,0.62009805,-0.25406757,-0.22029546
-12.645963,0.46026132,2.26706,0.6057165,-0.20776399999999998,-0.08988445
-11.647992,-1.2002899999999999,1.2157182,0.61264545,-0.18753563,-0.0031066859999999996
-9.818985000000001,-2.0311831999999996,1.7259129,0.5971993,-0.1539904,6.981316999999999e-05
-8.49841,-2.8165292999999996,1.5518353,0.5636715,-0.10501646,-0.00577704
-7.1441445,-2.876413,1.4518438999999999,0.5274734000000001,-0.032096606,0.0037873646000000003
-6.206891000000001,-2.2054717999999998,1.598982,0.44601887,0.0051487214,0.016039576
-6.401051,-1.2445731000000002,1.1290768,0.32412508,0.13451253,0.054367005999999996
-7.039911,-0.11220187,0.733478,0.22352432,0.13877113,0.07353072
-7.612354300000001,0.15886964,0.5690634,0.1463284,0.10841985,0.0021991148
-8.215205000000001,-0.33657688,0.25416845,0.109606676,0.21914354,-0.035046212
-8.859676,-0.60672903,0.24738808,0.1378112,0.30963886,0.013910273999999999
-9.142116,-0.84251,-0.041256886,0.34861207,0.40013418,0.053302355
-9.262917,-0.806281,-0.37170458,0.47637016,0.54386204,-0.115959674
-9.113682,-0.7085305000000001,-0.83629465,0.40025637,0.2995334,-0.38051668
-8.945064,-0.55762875,-1.2482123,0.27035149999999997,-0.09862856,-0.5503372
-9.218376,-0.35125813,-0.8494053,0.2027549,-0.31847024,-0.49816933
-10.186294,-0.012622231999999999,-0.40785706,0.034540065,0.13451253,-0.35444146
-11.118213,0.4504068,-0.36149573,0.03933972,0.021659536,-0.09838421
-11.075414,0.6426516,-0.584281,0.07393215,-0.08159414,0.05808456
-10.408543,-0.5684314,-1.3446699,0.023369959,-0.20296434,0.17680185
-9.911592500000001,-1.5425171,-1.6546328000000001,-0.07030186,-0.28920105,0.27848473
-9.774032,-2.0743650000000002,-0.55759996,-0.18901916,-0.2854835,0.34981635
-10.559225,-2.3336763,1.2858205,-0.32529446,-0.29506537,0.39877284
-12.999759,-0.77047324,3.6517801,-0.43388885,-0.24022712,0.42114794
-13.9650345,3.3295492999999996,5.3871455,-0.5424831999999999,-0.15027285,0.42486548
-11.598375,1.4335715,5.399471,-0.61859703,-0.11672762,0.39453167
-12.369193,0.2686965,4.764768,-0.6249849000000001,-0.11992157,0.33704054
-13.229669,-0.5765429,3.5569315,-0.5941101,-0.12150982,0.23109904
-12.052431,-0.021988347000000002,2.552468,-0.5589765999999999,-0.11033971599999999,0.15657349
-11.06171,0.38745844,1.3004441999999998,-0.52811915,-0.0012217305,0.13261011
-9.711313,1.0623646999999998,0.80164576,-0.48125708,0.00143117,0.12304571
-8.36037,1.2966613999999999,0.25535598,-0.45624653,-0.07679449,0.07513642
-7.179836999999999,1.2621753,0.19062634,-0.48338640000000005,-0.034749504,0.02136283
-6.3245807,1.098182,0.5199249,-0.49509755,0.056269415,-0.014817845
-6.2446814,0.8647568999999999,0.33455619999999997,-0.45783478,0.14622368,-0.06963864
-6.997360700000001,0.54021806,0.39063793,-0.4221777,0.22713715,-0.11435397
-7.831740400000001,0.26239493,0.73542213,-0.34126422,0.16112879,-0.10103711
-8.304537,0.35922602,0.46837288,-0.2640683,0.25003588,-0.09466666
-8.259584,0.34400848,0.1249486,-0.24116959999999998,0.35224235,-0.12712978
-8.5824375,0.17556202,-0.28409597,-0.3055897,0.37618828,-0.122871175
-9.216277999999999,0.029477412,-0.6462333,-0.40460223,0.43687338,0.055431657
-9.019351,0.20728041,-0.96871316,-0.3806563,0.35276595,0.35620424
-8.729279,0.52664775,-0.9416587,-0.24383995,0.20319124,0.49460885
-8.954649,0.50480306,-0.07466079,-0.33274699999999996,0.15580554,0.39133772
-9.332655,0.35985809999999996,0.42586145,-0.3247534,0.34958944,0.38175586
-10.434295,-0.21204965,0.009519346,-0.33539993,0.22767820000000003,0.26518533
-11.2044325,-0.5964052,0.085836925,-0.28694957,-0.08531169599999999,0.13636257
-10.481949,-0.18268716,-0.8312285,-0.10011209,-0.16941911,-0.007888888
-9.811342999999999,0.10609186400000001,-1.9437661,0.09311332,-0.16674876,-0.13617058
-10.139789,0.7662306999999999,-1.8992531000000004,0.31934288,-0.17315412,-0.24263567
-12.973624000000001,1.5226548,1.0873506000000002,0.5163032999999999,-0.15770794,-0.28204522
-15.039992000000002,-0.15253939,4.4596599999999995,0.5886996,-0.083182395,-0.28363347
-13.112620999999999,-2.4461557999999997,4.6420984,0.5886996,-0.06667158,-0.30864403
-9.869302000000001,-0.37663665,3.3830261,0.62383306,-0.15079644,-0.32887238
-11.777211999999999,2.217318,4.572504,0.65737826,-0.16674876,-0.30812043
-12.933908,0.93323106,3.0179009999999997,0.6983585999999999,-0.14332643,-0.24370033
-12.419816,-1.7355566999999998,2.924594,0.70261717,-0.013439035,-0.17290977
-11.110207,-2.0684657,2.6182609,0.7255159000000001,-0.016109388,-0.13458234
-9.920345,-2.020189,1.8942828,0.6919706999999999,-0.047507863,-0.12658873
-8.666319999999999,-2.219291,1.4281125,0.6440614,-0.034208454,-0.10848966
-7.484389999999999,-1.8197178,0.96301496,0.5892406,-0.0012042772,-0.07229154
-6.682102,-1.2805148000000002,0.701549,0.52110296,0.041364305,-0.030770155
-6.2127905,-0.68500984,0.6758927,0.42102578,0.15582299,0.008604473
-6.084126,-0.42731709999999995,0.83707035,0.3294658,0.16805775,0.041067597000000004
-6.3037795999999995,-0.42795876,0.7400765,0.23417082,0.15847589,-0.009477138000000001
-6.9801226,-0.7816015000000001,0.60961163,0.13622294,0.26494098,-0.021188296000000002
-8.034692,-0.6951038,0.12652877,0.12292354,0.31391492,0.015515977
-8.848797,-0.86595404,-0.72533774,0.25014058,0.37833503,-0.03396411
-9.354165,-0.5767631999999999,-1.2413551999999999,0.31562534,0.54016197,-0.24102996
-9.328978999999999,-0.14617081,-1.6845987,0.1979727,0.24897122,-0.44757223
-9.102994,0.09772173,-1.8813349999999998,0.22671826,-0.11032226,-0.378911
-9.196636999999999,-0.12008358,-1.2325926,0.103759825,-0.14758503,-0.18779743
-10.144577,-0.33081165,-0.72518456,-0.012269665,-0.07679449,-0.08452629
-11.419825999999999,0.202492,-0.5001679,0.04201007599999999,-0.23329817,0.09058259
-11.530322,0.7415896,-0.60627896,0.08405506,-0.18697712,0.15233234
-10.713527000000001,-0.4698477,-1.5611344999999999,0.10428342,-0.37274995,0.20610593
-9.868995,-1.1776791000000002,-1.8502102999999999,0.08618436,-0.37383208,0.26359707
-9.961134,-1.9583037,-0.52027917,0.012723451,-0.36212093,0.30724776
-11.849344,-1.9443311999999997,2.3755558,-0.07562511400000001,-0.27534315,0.3019245
-13.996877,0.3471401,5.073725,-0.14163347,-0.21252874,0.28063148
-13.619944,2.990329,4.692185,-0.20816542,-0.17261307,0.24921556
-12.43783,0.9564644,3.5749546999999997,-0.2555511,-0.17845991,0.20769417
-13.6233425,0.34797326,3.5312657,-0.28694957,-0.18271852,0.16084954
-12.796175,0.83748215,2.9560251,-0.35082862,-0.118839465,0.11348130599999999
-12.046905,0.38281370000000003,1.5485026000000002,-0.42535418,-0.046443213,0.10389945
-10.736769,0.31184953,0.7823198,-0.505203,0.02008874,0.10709339999999999
-8.981005,1.0047603,0.19224483,-0.5589765999999999,0.062133722,0.09271189
-7.4711833,1.3789165,-0.023712173,-0.5791875,0.05841617,0.036826447000000005
-6.3818019999999995,1.2037663,0.16100527,-0.5424658,0.041905355,-0.026511552
-5.8447537,0.6991739,0.16054559,-0.47326347,0.038187806,-0.08559094
-5.845711,0.32011434,0.23316652,-0.42003092,0.08077384,-0.104754664
-6.2497377,0.53173304,0.37104380000000003,-0.2981197,0.0073129297,-0.05630432
-6.8727089999999995,1.0982778,0.43436566,-0.11393509,-0.016091935,-0.022235493999999998
-7.643939,1.4151456,0.11733504,-0.04314454,0.12388347,-0.023317598
-8.225864,1.3238497999999999,-0.35987726,-0.054314647,0.20800833,-0.010000736
-8.614606,1.1073374,-0.82452476,-0.10754719,0.32190853,0.05440191
-8.782075,0.79294044,-1.2889329,-0.11979939999999999,0.26656413,0.21729349
-8.868171,0.694443,-1.4963761999999998,-0.08998918,0.18085101,0.44725809
-9.298246,0.8443775,-0.90240335,-0.10702359,0.18191567,0.44458770000000003
-9.639228999999998,0.63064235,-0.21679977,-0.14960963,0.19310322,0.3993488
-10.664828,-0.098047346,0.13158533,-0.3146305,0.27827528,0.28117254
-11.517431,-0.36668634,0.5049276,-0.42641884,-0.068783425,0.14117968
-11.163636,0.09832507,0.10904152,-0.3864857,-0.19230038,0.02617994
-10.193323,0.4208719,-1.4382448,-0.24701644,-0.24925047,-0.145735
-9.498258,0.7815441,-2.2854187,-0.09318313,-0.25989696,-0.27084020000000003
-10.2590685,1.2411444999999999,-0.94614065,0.12559389,-0.3338815,-0.35014796
-12.686961,0.9715575000000001,2.1642625,0.2517463,-0.2646792,-0.38102284
-13.683685999999998,-0.9158396000000001,5.202323000000001,0.30871382,-0.14437364,-0.37782887
-11.584508,-2.383897,4.0608344,0.33691835,-0.08794714,-0.39645153
-12.11694,0.4137755,4.3188624,0.3614053,-0.15343189,-0.38421679999999997
-13.738743,1.7511095,3.0245376,0.41037926,-0.231675,-0.30969122
-13.766592999999999,0.19259916,2.4736797999999998,0.47054076,-0.2311514,-0.21174334
-12.491087,-1.0462087,2.3355055,0.5328141,-0.15395549,-0.16543975
-11.015943,-1.1676713,1.8913044999999997,0.59829885,-0.11136946,-0.15531684
-9.509185,-2.1218374,1.1954536,0.6142685999999999,-0.06346017,-0.1585108
-7.338189999999999,-2.4286304,1.3928795,0.5908463,-0.045361105,-0.10634291
-5.7411995000000005,-1.9294392,1.4126556000000001,0.5354845,0.056286868,-0.036617007
-5.029586,-0.9048359,1.311266,0.46361179999999996,0.13932963,0.043231804000000006
-5.298359,-0.23731329,1.2520238000000001,0.35662309999999997,0.15849335,0.018203784
-6.206135,-0.23223756,1.1391708,0.21235421,0.12761848,-0.058957222999999996
-7.1814365,-0.9493966999999999,1.1404061,0.10536553,0.34588936,-0.15690510000000002
-8.162828999999999,-1.4279498,0.8932191999999999,0.10430088,0.5747718,-0.1499936
-8.948663999999999,-1.5217834,0.43704715,0.3348065,0.6876423,-0.060562924000000004
-9.486737,-1.2952629999999998,-0.3139852,0.6371498999999999,0.6115109999999999,-0.14732324
-10.010713,-0.9946280000000001,-1.0772089,0.47001716,0.24474752,-0.5950002
-10.042183,-0.7455257,-1.5793591999999999,0.17989108,0.0940907,-0.86170393
-9.926456,-0.68503857,-1.9097205000000002,0.0712967,-0.08688249,-0.58756506
-10.014217,-0.39753327,-1.5083183,-0.14959218,0.32566097,0.045884706
-10.553947,0.019383457,-0.88352746,0.004223697,0.13028882,0.24764477
-10.373051,0.80393463,-0.8611369000000001,0.17510888,-0.25722662,0.24125686
-9.240412,-0.22835897,-1.427653,0.20224875,-0.5228483,0.26148522
-8.556542,-1.6875292000000002,-1.8829055000000001,0.093654364,-0.3993488,0.33016393
-7.9645324,-2.7201388,-1.399497,-0.06761405599999999,-0.40414843,0.38337899999999997
-9.158147999999999,-3.1799692999999998,2.0568584999999997,-0.17355554,-0.42915902,0.40201914
-13.786225,-0.6989441,6.649186599999999,-0.2502104,-0.2843665,0.37966147
-17.177362,7.45858,7.3287759999999995,-0.342835,-0.20292944,0.35784486
-15.524817,2.953468,4.4198875,-0.45408230000000005,-0.23752186,0.33281684
-14.3076725,-1.589386,3.9206967000000006,-0.55309486,-0.18376571,0.25244442
-13.924035,-1.2862705,3.298166,-0.6026098000000001,-0.07250097400000001,0.13639748
-12.352826,-0.70637566,1.2551075,-0.63880795,-0.06558947,0.07623598
-10.242787,-0.14231135,0.78865963,-0.67233574,-0.02565634,0.08155923
-8.910597000000001,1.3819139999999999,-0.11171345,-0.702687,0.021694442,0.0959233
-7.445583999999999,1.86244,-0.32770875,-0.71439815,0.09995501,0.08529424
-6.1027627,1.4232572000000001,0.48057374,-0.65849525,0.11964232,0.043755405
-5.443141000000001,0.34116414,0.75020874,-0.5168967000000001,0.17660987,-0.013177236
-5.560246,-0.019086577,0.43375275,-0.34496433,0.12763593,-0.04405211
-6.2105974999999995,0.51599836,0.19485928,-0.08464847,0.13295919,0.0070336769999999995
-7.0241375,1.1243075,0.37492242,0.0707731,0.22451915,-0.012112585
-7.9052043,1.1561313,0.09793243,0.10643018,0.31768483,-0.053616515999999996
-8.438919,0.7858056999999999,-0.5167932,0.04202753,0.44329616,-0.11857767
-8.82294,0.54122365,-0.79936653,-0.106482536,0.46458918,-0.021694442
-9.049767,0.6445383000000001,-1.3040258999999998,-0.15598008,-0.015550883500000001,0.31152382
-9.240105999999999,0.85377234,-1.4955142,-0.16449729,-0.29234266,0.5926090999999999
-9.654963,0.5629343000000001,-0.716824,-0.20176005,-0.11934561,0.6532941999999999
-10.719013,-0.26342922,0.17499699,-0.16662659,0.36079445,0.37116173
-11.521674,-1.1163492,0.21461624,-0.20495401,0.22610740000000001,0.06080727
-11.6051655,-0.84152365,0.33135749999999997,-0.1810081,-0.04855506,-0.06321582
-10.360219,-0.25701275,-1.3277955,-0.104353234,-0.38976693,-0.16116370000000002
-9.084473,0.20268354,-2.511259,0.028187068,-0.32801718,-0.25378832
-8.489859,0.7447117,-2.937561,0.25973989999999997,-0.40519562,-0.31286773
-11.257153500000001,2.188128,0.38281370000000003,0.44605379999999994,-0.50420815,-0.37620570000000003
-14.654113,0.8668159,5.4663260000000005,0.55784214,-0.3988252,-0.42146212
-14.492170000000002,-3.5852117999999993,7.1277966,0.6233269,-0.27904323,-0.44488442
-11.911383,-1.2393056999999998,6.079941000000001,0.66750115,-0.30459487,-0.46404815
-11.733408,1.010152,4.1999564000000005,0.6909234999999999,-0.3253643,-0.40336305
-13.603289000000002,0.6944909,3.2728066000000005,0.70157,-0.20717058,-0.28305749999999996
-13.41365,-0.7156556,1.836889,0.726057,-0.058136917999999996,-0.16009904
-11.281286999999999,-0.82378733,1.5598128999999998,0.7196865,0.072815135,-0.05841617
-9.624949,-1.7493091,1.2727097,0.6866649,0.10101966,-0.016353736
-7.9812245,-2.3518147000000003,1.0878103000000001,0.61533326,0.145735,-0.0030543262
-6.293676400000001,-2.0440544999999997,1.2643205,0.48066369999999997,0.22347195,0.012915436
-5.340391599999999,-1.4229889999999998,1.3814543,0.31618384,0.23197171,0.06613053
-5.1360893,-0.746694,1.1016872,0.22727677,0.0935671,0.10819296
-5.302084,-0.52772033,0.97807926,0.11548844,0.019058995,0.030473447999999997
-5.8538613,-0.6786317,1.1901671999999999,0.054262288,0.3155555,-0.08183849
-6.716799000000001,-0.9991962,1.1014572,0.08461356,0.44279003,-0.044558257000000004
-8.119485000000001,-1.2199223,0.68222296,0.31244883,0.5263564000000001,-0.02380629
-9.099748,-1.0899458999999998,-0.30052978,0.49930379999999996,0.52581537,-0.26495844
-9.503352,-0.38681679999999996,-1.2467948999999998,0.37739253,0.29106855,-0.68443084
-9.235422999999999,0.026163835,-1.9476639,0.4247608,-0.12041026,-0.68495446
-9.765901,0.07141425,-1.9116073,0.23792328,-0.048537605,-0.4134685
-10.967455000000001,0.24671769,-1.1124322,0.16926204,0.13775884,-0.14624114
-11.822788000000001,0.8214889000000001,-0.35302982,0.1894904,-0.049061205,0.04431391
-11.22285,1.2232838,0.17678785,0.2027898,-0.19333012,0.13641493
-10.024523,-0.31202194,-0.9039931000000001,0.13252285,-0.29979520000000004,0.23862141
-9.473692999999999,-1.751234,-1.5426607,0.024469515,-0.31895890000000005,0.32484066
-9.545615,-2.6739497,-0.10468408,-0.11391764,-0.4195597,0.3993837
-11.377811,-2.9155152,2.669803,-0.22305308,-0.3695211,0.43451717
-15.010514,-0.23034136,5.7025,-0.27893853,-0.22207569,0.43504077
-13.861355999999999,3.814653,5.76926,-0.30023155,-0.13529792,0.38606682
-12.498872,0.23296541,4.6904325,-0.31939524,-0.14276794,0.32803464
-13.435447,-0.20328689,3.7976922999999996,-0.32258922,-0.19013616,0.21944025
-12.975318,0.32749805,2.7524989,-0.36039305,-0.18587756,0.117774814
-11.684681,0.34583765,1.241317,-0.40830234,-0.12571606,0.06295402
-10.287435,0.52672434,0.7112695,-0.44024184,-0.058119465,0.04272566
-9.176822999999999,1.094514,0.06413587,-0.47376963,-0.023509584,0.015044739
-7.6813080000000005,1.4941543,-0.19121052,-0.51635563,-0.05279621,-0.043493606
-6.381141,1.4344139999999999,0.56548166,-0.56213564,-0.046408303,-0.11217231
-5.7274,0.5134221999999999,0.80904865,-0.52541393,0.07600909,-0.14144148
-5.9203529999999995,-0.17627071,0.68172497,-0.43544218,0.18994418,-0.12227777
-6.611109299999999,-0.26139897,0.69772786,-0.29332003,0.05258677,-0.04722861
-7.361461599999999,0.27845523,0.70648104,-0.15917403,0.13030629,0.04059636
-7.836806299999999,0.83446544,0.31681034,-0.12084660000000001,0.26232300000000003,0.032079153
-8.091818,0.9136082,-0.11589851,-0.11285299,0.287351,0.024626596
-8.583826,0.6928340999999999,-0.3961925,-0.1187173,0.27084020000000003,0.27214918
-9.090641,0.6908420999999999,-0.868693,-0.034592427,0.12445943,0.5660103
-9.076476,0.82566434,-1.2926008,-0.1943075,0.04087561,0.48881435
-9.26468,0.9132825999999999,-0.9935554,-0.33588862,0.31876692,0.5000019
-9.860605,0.52423435,0.063111156,-0.49293333,0.31716123,0.33602825
-10.844862,-0.35932177,0.28691155,-0.5828876000000001,0.078155845,0.18912388
-11.394437,-0.92165273,0.22061133,-0.5451012,-0.17149605,0.023561945
-10.459118,-0.13966815,-0.8644122,-0.47057566,-0.16564920000000002,-0.15582299
-9.117628,0.22177969,-1.8758379,-0.3284535,-0.14755014,-0.28942794
-10.391199,0.44749546,-0.36652356,-0.1213702,-0.26624998,-0.33574899999999996
-14.723249,-0.19115306,3.4155873999999997,0.048956484,-0.32267648,-0.34318408
-15.129573,-1.9540994999999999,5.250293,0.112835534,-0.26092672,-0.33840188
-10.875862,-1.4478600000000001,2.739503,0.16339773,-0.122522116,-0.33414328
-11.866305,2.015822,4.591207499999999,0.257087,-0.20237093,-0.27399924
-13.194331,1.6172258999999998,3.9190110000000002,0.35131732,-0.283808,-0.16166985
-13.478743,-0.771565,2.87196,0.45778242,-0.21673499,-0.06798057
-11.963319,-1.4120427,2.6856812999999997,0.536043,-0.05651376,-0.05094616
-10.203417,-1.8562436999999998,2.4501781000000005,0.6047041999999999,0.07496189,-0.058922317
-8.830477,-2.3946709999999998,2.158459,0.6483549,0.10848966,-0.04775221
-7.638126,-2.435286,2.2590346,0.66805965,0.11116002,-0.010489428
-6.2529845,-1.9882983,2.1028464,0.5999220000000001,0.1526814,0.045396015
-5.681958,-1.4913291000000002,1.6963686000000002,0.44661229999999996,0.26712263,0.124180175
-6.435461,-0.83927304,1.4734588,0.31670743,0.30916762,0.14547320000000002
-7.470589,-0.57200354,1.3769053999999998,0.12986995,0.21443115,0.07201228
-7.580177000000001,-1.08714,1.4209299,0.036180675,0.44491932,-0.021118484
-7.679736999999999,-1.6032342,1.4403038000000001,0.17512634,0.47792349999999995,0.0028099802
-7.980554,-1.7269664,0.9985065999999999,0.44287730000000003,0.45875978,0.01823869
-8.469249000000001,-1.6079363000000002,0.04672524,0.5035624,0.54447293,-0.30698597
-8.857733,-1.3044378,-0.82011944,0.30447268,0.45450118,-0.7019714
-8.617949000000001,-0.94528824,-1.5260928999999999,0.40135592,-0.10707595,-0.7812965999999999
-8.603746000000001,-0.63210756,-1.3986543,0.17406169,-0.09536479,-0.4815887
-9.057035,0.032139762999999995,-0.8080718000000001,0.08676032,0.063250735,-0.079150684
-9.96733,0.94216627,-0.37524801,0.07344346,0.076026544,0.062430426
-10.577726,1.1007007,-0.14042471,0.073984504,-0.23856905,0.108210415
-9.706074000000001,-0.27219203,-0.9698528000000001,0.02607522,-0.31787682,0.16889551
-9.146914,-1.6975465,-1.347543,-0.14212216,-0.26996753,0.2210634
-9.430147,-2.9243066000000004,-0.09362286,-0.30874875,-0.24760985,0.27588418
-12.326882000000001,-3.1488924,3.2332064999999997,-0.42798963,-0.19544198,0.31527627
-16.232075,2.334634,4.6105046,-0.47696358,-0.07407177,0.33923966
-15.061673999999998,3.3099647000000005,5.000290000000001,-0.5057092000000001,-0.06181956,0.34297466
-14.211579,-0.27729645,4.6670656,-0.5312608,-0.09801769,0.2817485
-12.595875999999999,-1.1907802,3.5726564,-0.5658532,-0.08100073,0.204029
-12.121241,-0.013819332,2.7451055,-0.57917005,-0.011780973,0.1497318
-10.934234,0.35120064,1.7628793999999999,-0.56691784,-0.05384341,0.124180175
-9.477926,0.99034715,1.7741417000000002,-0.5637239,-0.14540339,0.11459832
-8.404883,1.5406975,1.2882625,-0.5658532,-0.19544198,0.101298906
-7.3234224,1.9245743000000002,1.45691,-0.5887519,-0.22844614,0.06562438
-6.705172500000001,1.6768223000000002,1.7659537,-0.6105685000000001,-0.20982349,0.013456488
-6.830303,0.60583836,1.713444,-0.57543504,-0.12836896,-0.03070034
-7.371498,0.23880725,1.3317028,-0.45938809999999997,-0.08045968,-0.041364305
-7.787859399999999,0.15320976,1.0587733999999998,-0.34440583,-0.04691445,-0.083932884
-8.059908,0.22992955,0.92188257,-0.27148595,0.020123646000000002,-0.049340457000000004
-8.633682,0.2412685,0.60975534,-0.1841846,0.10264281,0.0033510323
-9.418301,0.14181335,0.17963217,-0.18311994,0.21710149999999998,-0.009407325
-9.72315,0.23964044,-0.17607917,-0.27361527,0.28682742,-0.06370452
-9.68829,0.23660459,-0.37784332,-0.4982566,0.3299545,-0.095120445
-9.368032000000001,0.29654583,-0.57009774,-0.6339908000000001,0.28576276,0.056583576
-9.041042,0.09696517,-0.43933599999999995,-0.60259235,0.23785347,0.34349826
-9.062341,-0.30702287,-0.044876914000000004,-0.47429323,0.12021828,0.5021312
-9.517134,-0.19940826,0.6607805,-0.3752807,-0.011798426,0.5117130999999999
-9.551716,-0.42679995,0.6672256999999999,-0.49078658,0.13351768,0.40418336
-9.975758,-1.0561589,0.5222041000000001,-0.6329262,0.032375857,0.28761279999999995
-9.847323,-0.5195131,0.028194117999999997,-0.6143035,-0.115052104,0.15985471
-9.271814,0.01157836,-1.1673073999999999,-0.5078384,-0.26677358,0.01293289
-8.925747,0.44283155,-2.2457612,-0.35292304,-0.26038566,-0.102573
-9.534362,0.8599877,-2.1368248,-0.17673203,-0.31255355,-0.19839157
-12.169027999999999,1.5591233,0.9224189,0.013823007,-0.39133772,-0.27504644
-13.693866,-0.22562957,3.3255556000000004,0.16660912,-0.27687904,-0.325085
-13.288739000000001,-2.5248485,4.654816599999999,0.20706587,-0.13529792,-0.35328954
-11.514425,-0.7114993000000001,3.9977709999999997,0.21984167,-0.14379768,-0.31443852
-10.902543,0.98774225,3.0627873,0.22783528,-0.23535764,-0.23246041
-11.759628999999999,1.4088345,3.0565624,0.22677062,-0.26303858,-0.14514159
-11.806689,-0.7445201,3.0096455,0.25497514,-0.22629939,-0.090844385
-10.96621,-2.3048692,2.8163664,0.28639108,-0.15763813,-0.059445914
-10.082902,-2.3197900000000002,2.5424602000000003,0.30927235,-0.08045968,-0.07543313
-9.099278,-2.0876865000000002,2.0414494999999997,0.32311282,-0.14433873,-0.08234464
-7.581345,-1.8533324,2.130648,0.32737142,-0.14699163,-0.05199336
-6.456597299999999,-1.7811233,1.8749473,0.34014723,-0.06075491,-0.012583823999999999
-6.5277142999999995,-1.0676799,1.3055007,0.3188542,0.017470745,0.021450097
-7.401617,-0.39059007,0.94653326,0.2517812,0.103183866,0.05232497
-8.140563,-0.40085640000000006,0.9965050999999999,0.15702727,0.090931654,0.03689626
-8.438249,-0.91239196,1.031968,0.05110324,0.1473756,-0.0008901178999999999
-8.769683,-1.3866737,0.96994853,-0.03139847,0.24158847,0.027838001
-9.003673,-1.3313198,0.6947207,-0.012758356499999998,0.35177112,0.057107173
-9.314747,-1.1297184,0.25651476,0.12082914,0.43483132,0.045937065
-9.409529,-0.9762788,0.028395232000000003,0.31407198,0.48858747,-0.055710907999999996
-8.845866000000001,-0.9762501,0.19536684,0.49293333,0.45717153,-0.19305086
-8.521682,-1.0355784,0.18607736,0.3667635,0.32250193,-0.4927588
-8.754073,-1.1297854999999999,0.19492634,0.2555162,0.07763225,-0.63009876
-9.762261,-0.66388345,0.26788244,0.23794073,-0.22736403,-0.37777649999999996
-10.29908,0.075187504,0.10115981,0.1953547,0.12447688,-0.11639601
-10.513025,0.061253257,-0.29509014,0.30607840000000003,-0.1650907,0.0251851
-10.459817,-0.7798010999999999,-0.9933447,0.38912115,-0.30721286,0.09171705
-10.166153999999999,-1.3912706,-1.2872665,0.37901568,-0.34662238,0.15933111
-9.691575,-2.2285135,-1.3762828999999999,0.29117328,-0.30775392,0.24663247
-10.087557,-2.4702797000000003,-0.17091727,0.14266321,-0.31840040000000003,0.3371278
-11.020002999999999,-1.6133758999999999,1.7082055,0.015969763,-0.22204079,0.37864918
-13.358332999999998,0.33985215,3.9368148,-0.04576253,-0.083112575,0.37065557
-15.088642000000002,4.038453,5.137239,-0.0697259,-0.009651671,0.3328692
-12.498135000000001,1.0494361,4.463337999999999,-0.080372415,-0.06873106,0.26473153
-11.43555,-1.1498297,3.8110807,-0.09047787,-0.19542451,0.16678366
-11.756575,-1.0652665000000001,2.9976363,-0.09740683,-0.19223057,0.103445664
-10.381105,-0.14737749,1.9276676,-0.11976449,-0.12569861,0.0922581
-9.2605715,0.38024709999999995,1.5804221999999999,-0.18364355,-0.08895943,0.09384635
-8.808747,1.465012,1.2256876,-0.27413887,-0.101211645,0.065641835
-8.045858,1.9495218999999997,0.80574465,-0.3731514,-0.09801769,0.022514747
-7.121169999999999,1.5667943000000002,1.034956,-0.48174578,-0.06553711,-0.038152896
-6.913104,0.7872231,1.1852448,-0.5184675,0.012164945,-0.09245009
-7.520073,0.37243244,1.1072226,-0.49185124,0.2144486,-0.11800171
-8.309575,0.25255954,0.88513637,-0.42477822,0.34166566,-0.16749924
-8.582619000000001,0.21503761,1.0056988000000002,-0.3646342,0.29695029999999994,-0.19198622
-8.5502205,0.45002374,0.97999465,-0.29862583,0.34698892,-0.1573938
-8.868516,0.80785155,0.49178818,-0.2980848,0.48858747,-0.18720402
-9.230872999999999,1.1919006,-0.04603571,-0.40135592,0.5375614000000001,-0.24308945
-9.381738,1.1918144,-0.43720037,-0.4929159000000001,0.5109626,-0.026965337000000002
-9.206318,0.8176678000000001,-0.6646208,-0.49185124,0.36882296,0.44093999999999994
-8.864532,0.53961474,-0.77936053,-0.36144024,0.017488198,0.6783571
-8.444407,0.15143804,-0.43452844,-0.33056536,0.14044665,0.61074305
-8.382771,-0.006071695,-0.10887872,-0.31618384,0.3837281,0.39248964
-9.173153999999998,-0.23702598,-0.14220601,-0.28743827,0.122365035,0.16626006
-10.075951,-1.1095784,-0.12268847,-0.17085028,-0.13048081,-0.030682888
-9.595607000000001,-0.5499864000000001,-0.7654645999999999,-0.037245326,-0.18851301,-0.15418239
-8.565773,0.039542638,-1.5748197,0.14746287,-0.06286676,-0.26064748
-9.063222,0.7305188,-1.488686,0.41627848,-0.12993976,-0.342102
-13.261196,1.5213045,2.2796726,0.64571947,-0.14697418,-0.41343358
-16.394918,-0.6835063,5.405705,0.75644314,-0.05009095,-0.45121998
-14.735382999999999,-2.5217552000000003,5.7344384,0.7841066,-0.030944687999999998,-0.45547858
-11.405775,0.47531608,4.488094,0.7841241,-0.090024084,-0.38734093
-12.3713,1.5859575000000001,3.793239,0.7479085,-0.14379768,-0.22444934
-13.366321,0.29932308,3.1899195,0.69202304,-0.17039649,-0.061034165
-12.069467999999999,-1.2856385000000001,2.5116515,0.62707937,-0.083112575,0.0006981317
-10.140105,-1.6866289,2.362263,0.5552066999999999,0.035046212,-0.014189526000000001
-8.826627,-2.2357247000000005,2.0552401999999996,0.48335147,0.012164945,-0.018430676
-7.351808,-2.2945166,1.711021,0.42692497,-0.040526547,0.008150687
-6.062358000000001,-2.1222682,1.5535495000000001,0.3933972,-0.031468287000000005,0.061924282000000004
-5.8289523,-1.4984541999999998,1.3702208,0.35400513,0.11543608,0.10290461
-6.4214405999999995,-0.7143819,0.93514645,0.29064968,0.16814502,0.065641835
-7.2859679999999996,-0.40813476,0.84317076,0.17673203,0.10372492,-0.03494149
-8.27845,-0.4387614,0.4959924,0.081454515,0.21551326,-0.13873622
-8.741853,-0.25007915,0.18309897,0.06707300000000001,0.29590312,-0.12224286
-8.840255,-0.19799091,-0.22003672,0.111247286,0.3879867,-0.12171926
-9.246455000000001,-0.29085720000000004,-0.7158472,0.25179866,0.4869992,-0.20476203
-9.670947,-0.47211742,-1.1395921999999998,0.32791245,0.39330995,-0.3783001
-9.458772999999999,-0.5882458,-1.4153083999999998,0.18311994,0.29003882,-0.69343674
-9.08568,-0.7145064,-1.0362966,0.23263493,0.0031241393,-0.673732
-9.227895,-0.30565336,-0.18629763,0.13788101,-0.16667895,-0.38734093
-10.265992,0.09187031,0.32415575,0.27628562,0.026546458,-0.14405948
-10.956555999999999,0.31223264,0.27449045,0.37369245,0.0068416907,0.015603243000000001
-10.75056,-0.74780494,-0.6818495,0.47589892,-0.24811599999999998,0.07895869999999999
-10.008213,-1.5890507999999999,-1.4861001,0.50357985,-0.46265188,0.17584193
-9.540817,-1.8738458999999998,-1.6434375,0.41947243,-0.39716712,0.29668853
-10.190584,-2.1518794999999997,-1.0080930000000001,0.27893853,-0.37322122,0.4052829
-11.791922,-1.3601077,1.4135271,0.16502088,-0.293896,0.47181484
-13.865654999999999,1.1360295,3.4879687000000006,0.09901253,-0.15922639,0.46116835
-13.87526,2.6745433999999997,3.8651898,0.05429719400000001,-0.12035791,0.40845940000000003
-12.4367,0.20042342,5.0894504000000005,0.030351276,-0.15229744,0.33660419999999996
-11.510317,-0.6696965,4.728423599999999,0.015969763,-0.14058627,0.24610887
-11.545971,-0.44576207,3.4151945,-0.015411257,-0.11716395,0.15241960000000002
-11.270273,0.26987442,1.9277538,-0.0659909,-0.09800023599999999,0.10025171
-10.145181,0.7702147,1.4290128,-0.12826425,-0.029338984,0.080564395
-9.34072,1.6938689999999998,0.969939,-0.2027898,0.03132866,0.06138323
-8.452288000000001,1.7424808999999997,0.47555548,-0.28157398,0.011100293999999998,0.00816814
-7.4753394,1.271053,0.49907613,-0.35290557,0.01855285,-0.056758105999999996
-7.0575223,0.45394063,0.6170720000000001,-0.40187952,0.06752679,-0.10679669999999998
-7.093263,-0.18848114,0.34457353,-0.41784927,0.12288863,-0.14353588
-7.217436,-0.18247648,0.5259199000000001,-0.38165113,0.14791666,-0.12808971
-7.515102000000001,0.38063976,0.641512,-0.27570966,0.06541494,-0.071663216
-7.9878325,0.7077835,0.30661106,-0.19959585,0.14100514,-0.041852996
-8.390633,0.7936586999999999,-0.042568903,-0.12507029,0.24853489,-0.08498008
-8.682563,0.7644399000000001,-0.41036618,-0.08567821,0.4694412,-0.12861331
-9.12663,0.8611369000000001,-0.7664414,-0.23207644,0.5599365,-0.12117821
-9.169266,0.9768629999999999,-0.9557078999999999,-0.36887532,0.31187287,0.08801696
-8.850741000000001,1.0373789,-1.1290673,-0.24005258,0.04038692,0.508013
-8.823294,1.1231008999999998,-0.7655604,-0.05000368,-0.26993263,0.6986029
-9.329581,0.37660795,-0.19435172,-0.03138102,-0.029862582999999998,0.61660737
-10.715049,-0.59168386,0.19203414,-0.14796901,0.46572366,0.4010243
-11.351714999999999,-0.25697446,-0.011348516999999999,-0.29276153,0.18730873,0.17638297
-10.885545,0.34564609999999996,-0.82483125,-0.3518409,-0.16985545,0.023614304
-9.583195,0.21432893,-1.5793111,-0.3071256,-0.39130282,-0.10519099
-8.969215,0.32621479999999997,-2.833145,-0.1399754,-0.32157692,-0.25797713
-9.652713,1.4279977,-3.2579436,0.07826056,-0.27419123,-0.38147659999999994
-13.392656,2.144745,1.167451,0.30928978,-0.33861133,-0.46345472
-16.334087,-1.2150096000000001,6.445459,0.45834090000000005,-0.3008075,-0.46771333
-13.712435999999999,-4.2135940000000005,5.9930887,0.5568124,-0.14271557,-0.4208687
-9.778552000000001,-0.92008215,5.102034,0.59674555,-0.1081057,-0.35911894
-10.886885000000001,1.4517864999999999,3.4774152999999997,0.5951398,-0.19168949999999998,-0.239337
-12.380465,1.2578943999999999,2.4145331000000003,0.5552241,-0.2672797,-0.12276646
-12.022733,-0.42304587,1.6321752,0.543513,-0.20711823,-0.064751714
-10.151548,-1.2593118,1.5527356,0.52754325,-0.15495034,-0.018430676
-8.918756,-1.9471276999999998,1.6477950000000001,0.48656288,-0.07244862,0.0065798913
-7.9876027,-2.3352277000000004,1.372232,0.45301765,-0.071907565,0.01881465
-6.947781599999999,-2.1010172000000003,1.3941629,0.43333036,-0.08148942,0.064594634
-6.110481299999999,-1.4733726,1.4218781,0.42214277,-0.009093165,0.12740904
-6.3161726,-0.92575157,1.1258494,0.3939208,0.09149016,0.12580334
-7.5031214,-0.6758735,0.95033526,0.33164746,0.059550636,0.055012777
-8.563428,-0.4288973,0.6323661,0.2438225,0.26663396,-0.057281705999999995
-8.647866,-0.46343124,0.16347609999999999,0.17994344,0.46732935,-0.07644542
-8.624557000000001,-0.8933245000000001,-0.006493075,0.19484855,0.6169041000000001,-0.090826936
-8.838502,-0.9940438,-0.077466786,0.42481315,0.6014579000000001,-0.11370819999999998
-9.249989,-0.6292536999999999,-0.31576648,0.47218138,0.3736401,-0.33463198
-9.464241000000001,-0.82671785,-0.7656082,0.20867157,0.25970498,-0.7296174
-9.31695,-1.2692238,-0.99039507,0.41575488,-0.26726228,-0.7125656
-9.212543,-1.1636872999999999,-0.5078198,0.18952529999999998,-0.05274385,-0.33143803
-10.213741,-0.64118636,-0.07340623,0.06867871,0.13514084,-0.03546509
-10.732096,-0.13691004,0.039485175,0.10807078,-0.022933627,0.18969983
-10.251512,-0.48266149999999997,-0.5528691,0.17088519,-0.17411405,0.26900759999999996
-9.578560000000001,-1.4496125,-1.5752218999999998,0.14055136,-0.34126422,0.33501595
-9.091194999999999,-1.9849848,-2.083942,0.046862092,-0.32635912,0.40475932
-9.817922,-2.3624162999999996,-1.0774674,-0.08087855599999999,-0.35671040000000004,0.4505393
-11.825183,-1.7843218999999997,2.5026015999999998,-0.15859807,-0.26460937,0.45746824
-15.524529999999999,2.737607,5.47507,-0.17137387,-0.14165092,0.3962421
-14.183767000000001,4.926137000000001,5.065278500000001,-0.144234,-0.1251401,0.32384583
-12.538252,0.9019628000000001,4.6596627,-0.1341111,-0.14749777,0.23600341
-12.675995,-0.78975135,3.78666,-0.144234,-0.095853485,0.11143927
-12.1879225,-0.30540437,3.055911,-0.17030923,-0.03303908,0.021485003
-11.208437,0.14643896,1.8737406000000003,-0.22034782,0.010594148000000001,0.00286234
-9.583041,0.83700335,1.1185326999999998,-0.29115582,0.06489134,0.01881465
-8.596036,1.5920483,0.41516414,-0.3869744,0.060091686,0.03213151
-7.4679556,1.7482653000000001,0.24187182,-0.49024552,0.03614577,0.019355701
-6.635625999999999,1.2256589,0.6072845,-0.57487655,0.06276204,-0.020542525
-6.5183,0.25416845,0.75809044,-0.60362214,0.18200293,-0.059934605
-6.829834,-0.47776774,0.91675895,-0.5200558,0.25598744,-0.08496263
-6.9867115,-0.46364194,0.83357483,-0.36142278,0.1314233,-0.06260496
-7.345497,0.3138224,0.8267658000000001,-0.20437805,0.2043606,-0.014695672
-8.135842,0.81229514,0.41145793,-0.15114552,0.35606462,-0.03598869
-8.673408,1.0850523,-0.15552734,-0.17404424,0.5104390000000001,-0.11316715
-9.220521000000002,1.2688215,-0.5599941999999999,-0.3156428,0.5178915,-0.053023104
-9.482523,1.1668286,-0.86274576,-0.41039672,0.29750884,0.26796040000000004
-9.264401,1.3101933000000001,-1.2382524,-0.37205184,0.15858062,0.49951324
-8.965663000000001,1.1471387,-1.2285032,-0.36568138,0.098419115,0.5687154999999999
-9.152726,0.3623672,-0.6297804,-0.35397023,0.30656707,0.53944635
-10.438153999999999,-0.23180660000000003,-0.18015888,-0.39762092,0.22245966,0.34035665
-11.131803,-0.4694072,0.07204632,-0.36939892,0.0015358897,0.1359437
-10.45978,-0.08273403,-0.58895445,-0.2725157,-0.20657717,-0.06899287
-9.034587,0.25976133,-1.8098633000000002,-0.13039355,-0.29813713,-0.2414663
-8.780543,0.7262284000000001,-2.707411,0.07667231599999999,-0.26248008,-0.35164893
-11.560192,1.9843624,-0.660091,0.30876620000000005,-0.29600784,-0.41552799999999995
-14.675317000000001,1.1501362,3.2496214,0.48389253,-0.307719,-0.46237263
-13.728755,-2.2197409,5.091797,0.6036745,-0.17837265,-0.47036624
-11.823372,-1.5837741,4.7680335,0.6888465,-0.12992232,-0.4288274
-12.348325,0.5260060999999999,4.4459753,0.74473196,-0.2635447,-0.36603045
-13.41205,1.109272,3.261774,0.78360045,-0.35829863,-0.25370106
-13.24006,-0.7926053000000001,2.7759047000000003,0.7761479,-0.2970725,-0.12274901
-11.719799,-1.0112821,2.0132458,0.7218507,-0.108629294,-0.044505894000000004
-10.113539,-1.58228,1.6624092000000001,0.6350904,-0.01813397,-0.015760323
-8.829988499999999,-2.1851497,1.4758434,0.51370275,0.016982054,0.0044505894
-7.227252,-2.3079338,1.4299418,0.40884337,0.055833083,0.035866518
-5.822689,-2.1447737,1.6290243999999998,0.32100096,0.056897733,0.10239847
-5.4596705000000005,-1.6859682,1.316265,0.24488714,0.07501425,0.17107718
-6.11074,-1.1020318,0.80365694,0.22465879,-0.0074874623999999996,0.14817846
-6.758390400000001,-0.70126164,0.63550735,0.15545648,-0.12831661,-0.017348573
-7.501531599999999,-0.70020825,0.6195715,0.08677777,0.1915848,-0.12541936
-8.043378,-0.82218796,0.43180865,0.06921976,0.3736401,-0.123290055
-8.712461,-0.7022673,-0.25730008,0.20230111,0.48223448,-0.15149458
-9.39028,-0.22309172,-1.0586394,0.3992615,0.5333376999999999,-0.27659976
-9.523454,0.17885645,-1.5486367,0.33271209999999996,0.37896335,-0.5959949999999999
-9.437503,-0.22261287,-1.8016941999999998,0.32686526,0.09416051,-0.74982834
-9.679738,-0.7605420999999999,-1.3221835,0.36571628,-0.41311944,-0.50230575
-10.364288,-0.40733033,-0.28216147,0.22040018,0.046792275999999994,-0.3820002
-11.582563,0.45120168,0.294075,0.17301449,-0.024521876,-0.17545795
-11.031839,0.3740988,0.25818112,0.19484855,-0.11342895,0.025743606000000002
-9.986943,-1.3102891,-0.7329034000000001,0.19324285,-0.13418092,0.15882497
-9.573264,-1.7386979999999999,-1.6974793999999997,0.121387646,-0.26035076,0.26902506
-9.665545,-2.2152016,-1.3369126,-0.014329153,-0.2470339,0.36164966
-11.049547,-2.0889792000000003,0.4563157,-0.14156365,-0.20977113,0.41488220000000003
-13.1876745,-0.8276468000000001,3.1841923999999997,-0.23472933,-0.16879079,0.43830454
-14.287227,2.6312757,4.4027650000000005,-0.30284953,-0.1176701,0.40742967
-11.536643,0.68732744,4.388361,-0.37046358,-0.1176701,0.34302699999999997
-11.642800999999999,0.46644795,5.06637,-0.40294418,-0.15121533,0.29351202
-12.677863,0.14098975,3.2382631,-0.4040088,-0.20551252,0.24506168
-11.736539,0.012047622,2.6185672,-0.42847833,-0.18847811,0.1918466
-11.081552499999999,-0.09865069,1.3303142,-0.45615926,-0.11395255,0.15404277
-10.058779,0.9194405000000001,0.73968387,-0.48703409999999997,-0.052726395,0.13861404
-8.845722,1.6807296000000003,0.34360626,-0.49874529999999995,-0.047944195999999994,0.10133382
-7.711810000000001,1.6682508999999999,0.20002118,-0.5147151,-0.066566855,0.044383723
-6.7843919999999995,1.3040355,0.45906425,-0.50619787,0.016458455,-0.017348573
-6.5133967,0.6085486,0.57588214,-0.43860123,0.22087142,-0.053023104
-6.850692,0.011118673,0.41694543,-0.3395887,0.40027379999999996,-0.07855727
-7.4499607,-0.17077363,0.4999955,-0.22141246,0.28473303,-0.03864159
-7.835273700000001,0.26408044,0.41715613,-0.10110693,0.22619466,-0.0050963615
-8.100025,0.7751276,0.08486966,-0.055850536,0.32466614,-0.034382987999999996
-8.400851,0.797183,-0.27146417,-0.06756169,0.4135732,-0.07110471
-8.937553999999999,0.66936135,-0.6662968,-0.16285667,0.3401123,0.08964011
-9.16282,0.52734685,-0.9929521000000001,-0.1868026,0.30604348,0.44736278
-8.946710000000001,0.6113738000000001,-1.1543499,-0.25919884,0.1953198,0.49846604
-8.790828999999999,0.67287606,-0.7304421999999999,-0.37472218,0.21395992,0.46600290000000005
-9.102017,0.08222646,0.12908578,-0.43647194,0.32307790000000003,0.40901792
-10.304558,-0.6696582,0.02960191,-0.48757517,0.0015533429999999998,0.26902506
-11.5055275,-0.9258187,-0.22627121,-0.4822519,-0.23158774,0.15138985
-10.922511,-0.023262065,-0.9527486,-0.34756488,-0.34711108,-0.062063905999999995
-9.583683,0.36574784,-1.9074605,-0.17296213,-0.29227284,-0.24357815
-9.283154,0.51595044,-2.3538259999999998,0.047926743,-0.33911747,-0.3548429
-12.993285,1.191575,1.3293374,0.26778588,-0.35189328,-0.40594614
-15.42045,-0.087915085,4.3205857000000005,0.35986945,-0.30239573,-0.38358846
-12.365236999999999,-2.2549741,3.7904236000000004,0.40938443,-0.19113101,-0.31810370000000004
-11.035278,0.25313416,3.8897160000000004,0.45568800000000004,-0.2496868,-0.29628709999999997
-12.802897,1.9787407,3.9632561,0.49029788,-0.3337942,-0.256895
-13.629013,0.8527859,2.74614,0.48230428,-0.29014352,-0.18449876
-13.103772,-1.5173876,2.8149395,0.46952847,-0.17996089,-0.09613273
-11.231469,-1.2576838,2.7788541,0.45355870000000004,-0.01706932,-0.03544764
-9.777738000000001,-1.9502017,1.9381255000000002,0.44025929999999996,0.06756169,-0.030124382999999998
-8.394617,-2.3058174,1.6262375,0.42109558,0.044680428,-0.034906585
-6.978571400000001,-2.3863585,1.4465288,0.39554396,0.12718214,-0.031189033999999997
-6.022442,-1.8766998,1.3844806,0.32740632,0.17189747,-0.0045553090000000004
-5.812604400000001,-1.0252641,1.1039473,0.21668263,0.19052014,0.03693117
-5.814462000000001,-0.2127775,1.0891415,0.08040732,0.13357005,0.024155356
-6.1716294000000005,0.0074986396,1.1148074,-0.061714843,0.17348573,-0.07483972
-7.0012490000000005,-0.43223003,0.96697015,-0.12346459,0.27197465,-0.07590437
-8.029367,-0.9099116,0.7744572,-0.08566076,0.35821137,-0.038100537000000004
-8.863986,-1.1889606000000001,0.12498691,0.11712904,0.4950103,-0.025324726000000002
-9.542225,-0.91158754,-0.5780465,0.36999235,0.4827755,-0.061522855999999994
-9.4851,-0.7485231999999999,-1.0808958999999998,0.45942299999999997,0.43593088,-0.33620277
-9.400096000000001,-0.80861765,-1.4883794,0.35667548,0.06169739,-0.72001815
-9.97367,-0.7827124,-1.3624157,0.2502104,-0.36786306,-0.8488409
-10.957236,0.07656658,-0.8477485,0.009616764,-0.16451474,-0.5267753000000001
-11.447377000000001,1.0541286,-0.6780762,-0.11227703,0.22406536,0.0034033920000000003
-11.262316,0.63987434,-0.68802655,0.08838347,0.14847516,0.2115339
-10.528597999999999,-0.8930084999999999,-1.3776906999999998,0.27150342,-0.27897343,0.23176228
-9.640646,-1.7320421000000001,-2.0080075,0.27949703,-0.6058038,0.25307274
-8.733922999999999,-2.6330473,-2.2063622000000005,0.13522811,-0.47273988,0.29883528
-8.373482000000001,-2.9053828999999998,-0.71927565,-0.063844144,-0.45570546,0.34409165
-9.475847,-2.8148150000000003,2.7734911,-0.18573794,-0.43971825,0.388807
-13.728707,0.6790722,6.590279600000001,-0.2639985,-0.28269097,0.4015828
-15.425938,5.5934777,7.178592,-0.33372440000000003,-0.24488714,0.36538467
-14.161904000000002,2.6570659,5.0172224000000005,-0.3683343,-0.19910716,0.32918656
-12.813557000000001,-1.5546508999999997,3.9897745000000002,-0.37791613,-0.12351695,0.254661
-13.158964000000001,-2.1069837000000002,3.2135549,-0.4029267,-0.08306022,0.16203637
-12.128298,-1.1939692,0.9531413000000001,-0.43008402,-0.04579744,0.10773917
-10.141857,0.24772327,0.57298034,-0.454571,-0.035691983999999996,0.10241592
-8.774998,1.4090738,-0.18812679,-0.45828855,-0.062308256,0.08909906
-7.6287885,1.804098,-0.34327105,-0.46628216,-0.08520697,0.043860123
-6.4695163,1.5401516000000002,0.47317088,-0.41996112,-0.07295476,-0.027977629
-5.999553,0.607093,0.5613733,-0.31510174,0.12559389,-0.06365216
-6.244748599999999,-0.062067285,0.45135492,-0.15805702,0.24322908,-0.058852499999999995
-6.876778999999999,-0.21126436,0.6173784000000001,0.024504422999999997,0.18306759,-0.01680752
-7.601897,0.29137436,0.47768155,0.10222393,0.18360864,-0.022130774
-8.17573,0.7029759,0.017764976000000002,0.109693944,0.35342917,-0.051399945999999995
-8.604119,0.5764184,-0.3792703,-0.037227873,0.55623645,-0.08759808
-9.129254,0.46515509999999993,-0.7830571999999999,-0.22780037,0.5296202,0.0028797933
-9.209958,0.5691401,-1.0301004999999999,-0.3039142,0.12025318,0.33929202
-9.109115,0.75122386,-1.0262219000000001,-0.15486306,-0.18420205,0.6432585999999999
-8.983369999999999,0.55701584,-0.050939035,-0.16444492,-0.20870647,0.73375386
-9.66048,-0.6657892,0.87296426,-0.20916025,0.32201326,0.5623451
-11.045277,-1.1192701,0.522817,-0.3981445,0.3789808,0.21368065
-11.559455,-0.6941078,-0.030119056,-0.49396309999999993,0.20916025,0.011379546499999999
-10.360985000000001,0.07769663,-1.087092,-0.5179090000000001,-0.28694957,-0.11475539999999998
-9.140038,0.3384348,-2.0746236000000002,-0.45137706,-0.35189328,-0.22441444
-8.571615,0.7015680999999999,-3.4751167,-0.2639985,-0.33112386,-0.30478686
-11.367794,1.9937953999999998,-0.7515687,-0.044680428,-0.39767328,-0.34739032
-15.060899,0.75588775,4.270183,0.12351695,-0.3667984,-0.37559485
-15.627443,-3.830215,7.439024000000001,0.23265238,-0.21348867,-0.37559485
-11.924437,-2.5931884999999997,6.132125,0.30079004,-0.10915289,-0.36336009999999996
-10.891702,0.9831358,4.5928164,0.31250120000000003,-0.13309881,-0.27391198
-12.190211999999999,2.0516107,3.550103,0.31250120000000003,-0.20655972,-0.12592551
-13.170753,0.042099643,2.056466,0.31250120000000003,-0.13842206,-0.027977629
-11.434497,-0.75271785,1.2126249,0.32047737,0.069690995,0.005009094699999999
-9.60683,-1.6912544999999999,1.4331787,0.30026644,0.17030923,-0.007225663
-8.13181,-2.3899498,1.3106339,0.26991516,0.16657422,-0.00083775807
-6.408665,-2.2918735,1.3942968999999998,0.25659829999999995,0.17350318,0.059829887000000005
-5.1421704,-1.8257129,1.6902394,0.24914575,0.24535839999999998,0.12957324
-4.985255,-1.0282905,1.4747516,0.28108528,0.24483478,0.141808
-6.2031374,-0.42677125,1.239143,0.29546678,0.0760789,0.059829887000000005
-7.7511325,-0.49922937,1.1092528,0.24649285,0.11812388,-0.118490405
-8.392032,-1.1145105,0.83391964,0.19219565,0.37418115,-0.16266468
-8.377656,-1.2452531,0.75531316,0.19219565,0.5152561,-0.16905259
-8.610975999999999,-0.99076855,0.12135729,0.3082426,0.5892406,-0.21109757
-9.290633,-0.7822048,-0.53661716,0.3103719,0.5839174,-0.46556658
-9.484917,-1.0855215,-1.1038611,0.21029472,0.33320079999999996,-0.74609333
-9.405545,-1.4031841999999999,-1.4667933000000002,0.388615,-0.22040018,-0.6039536999999999
-9.646641,-1.3857831,-1.0992833,0.15545648,0.016458455,-0.37400659999999997
-11.067121499999999,-1.2481931,-0.45924620000000005,-0.002094395,0.18467329999999998,-0.052464597
-11.485513000000001,-0.38224867,-0.43645340000000005,0.03621558,-0.0037524579999999997,0.18439403
-10.244913,-0.55824167,-0.83210003,0.08733627,-0.12831661,0.2695661
-9.410295,-1.6952575,-1.591397,0.07508406,-0.34976399999999996,0.34728559999999997
-8.9094095,-2.1481926,-1.6153966,-0.03562217,-0.36838666,0.40851176
-9.719683999999999,-1.8991669999999998,0.17838718,-0.16550957,-0.35721654,0.44364524
-11.825650999999999,-0.7306912,3.2354474,-0.24429373,-0.3194127,0.45429176
-14.838899,2.8153706,5.2915019999999995,-0.30445522,-0.25235716,0.40690607
-13.464251999999998,3.3524665999999996,5.1151349999999995,-0.37418115,-0.2539454,0.32121038
-12.929034,1.0797179,4.936383999999999,-0.4417952,-0.29227284,0.23921482
-13.792316,0.26167667,3.6922707999999997,-0.45615926,-0.28482029999999997,0.18067649
-12.723525,0.058399368,2.8759822999999995,-0.46308820000000006,-0.21029472,0.13222614
-11.650463,-0.46330675,1.581715,-0.48916343,-0.119258344,0.106150925
-10.352337,0.3760429,0.6506387,-0.50619787,-0.042603485,0.09496336400000001
-8.986799000000001,1.3988267,0.07425856,-0.52536154,-0.042603485,0.06941175
-7.7889029999999995,1.6241976999999999,-0.061684214,-0.54452527,-0.034627332999999996,0.040142573
