accx,accy,accz,gyrx,gyry,gyrz
-7.7025585,-0.26406127,-1.4950450000000002,-0.053145275,-0.14988887,-0.32803464
-8.359077000000001,-0.17387651,-1.4323168,-0.069097586,-0.07960447,-0.065065876
-9.44322,-0.40196732,-1.6012613000000002,0.1650907,0.07154105,0.05787512
-10.235577000000001,-0.78157276,-1.6769851000000002,0.3806912,-0.025307272999999998,0.07171558
-10.591996,-0.16736427,-2.4460599999999997,0.35407495,-0.28188813,0.065327674
-11.092997,0.87501365,-3.176416,0.16350244,-0.26487118,0.12335987400000001
-12.52294,1.7852317,-2.554709,0.02029818,-0.18341665,0.21012019
-14.810388,2.774248,-1.3785334999999999,-0.049951322,-0.05778785,0.25483552
-16.33266,4.6794286,-0.25005043,-0.037175514,-0.012531463999999999,0.25431192
-12.257049,1.852844,1.4064497999999999,-0.020664698000000002,-0.12592551,0.21491985
-9.774664,-2.3497367000000002,2.2957330000000002,-0.064315386,-0.28934067,0.16062266
-9.382867,-2.0339509999999996,2.2428209999999997,-0.16812757,-0.42189842,0.107390106
-9.567,-0.24117273,1.7732033,-0.30599109999999996,-0.48790678,0.07332128
-10.222992,1.2048101,0.8685206,-0.42736130000000006,-0.47938958,0.0360585
-10.1020565,1.7165947,0.27785190000000004,-0.46994734,-0.35695472,-0.007051130300000001
-9.370894999999999,1.7264683,0.16803466,-0.43163738,-0.13870132,-0.04485496
-8.925527,1.5058091999999998,0.1608329,-0.42470843,-0.020525072,-0.08157669
-8.302,1.2343833,0.046600744000000006,-0.45291293,0.04333652599999999,-0.12840387
-8.028055,1.0008146999999998,-0.17525557,-0.49017572,0.14873695,-0.16514306
-7.991874,1.0297941,-0.5740625,-0.43587852,0.21848032,-0.17898351
-8.154766,1.3539785,-0.68457884,-0.29534462,0.258396,-0.19282398
-8.368098,1.8371953999999997,-0.6072845,-0.17929767,0.29672343,-0.20027652
-8.549081,2.0393236,-0.6447394000000001,-0.17823303,0.32601005,-0.23699826
-8.545538,1.8926451000000002,-0.58705825,-0.2761809,0.45961499999999994,-0.26680848
-8.368779,1.7425095000000002,-0.5447,-0.47207665,0.5341406,-0.24179791
-8.113921000000001,1.2751902,-0.41390002,-0.689789,0.2818183,-0.07677703
-8.155963,0.6470186,-0.81346357,-0.8303229,-0.015201817,0.22291344
-8.139366,0.26417622,-1.4459829,-0.77176714,-0.2536836,0.43371433
-8.642062,0.32825464,-2.1997542,-0.5796064000000001,-0.29892254,0.22397809999999999
-9.683598,0.7917145999999999,-1.7985243000000002,-0.5721538,-0.17809339999999999,0.07864454
-10.437598,0.32180944,-1.4000238,-0.73823935,0.072082095,-0.011292281000000001
-10.5883,-0.39602968,-1.8167682,-0.83831656,0.32601005,-0.08103564
-10.188918,0.37122577,-2.6197546000000003,-0.78401935,0.1929287,-0.12362167
-10.029598,1.8583411,-2.9346113,-0.6727546,0.23232077,-0.14065608
-11.565717999999999,1.6181643,-1.9320537,-0.58013,0.2988527,-0.11829842
-13.937682,0.9618849,0.989016,-0.41510909999999995,0.33292156,-0.08262388400000001
-16.045,-0.6957646,4.269790599999999,-0.22080160000000001,0.33559190000000005,-0.08210029
-13.380006,-1.4621198,5.3881893,-0.027576202999999997,0.28394762,-0.13107422
-8.412296000000001,1.8763071,3.9893913,0.10016444,0.23712043,-0.117757365
-8.073775,3.0601822999999997,1.0547895,0.16458455,0.076358154,-0.056531213
-8.842495,2.3954562999999998,-0.6004658,0.1635199,0.020996312000000003,-0.0011693706
-10.518178,0.6709510999999999,-0.5958975999999999,0.20343557,0.109362334,0.07333873
-10.9511175,-0.90321743,-0.51475334,0.24230406,0.17695893,0.10367256
-10.154605,-1.5008197,-0.051417875999999994,0.3147003,0.21687461,0.10101966
-9.08114,-1.9721711,0.47440627,0.38231438,0.198793,0.10208431
-8.256309,-2.2557497000000004,0.31420544,0.36154497,0.13117895,0.08079129
-7.887841000000001,-2.0895252,-0.44476604,0.23218115,0.15673056,0.038187806
-8.151835,-1.7708856,-0.8679363999999999,0.112416655,0.21369812,0.0014660766
-9.017914,-1.1768746,-0.8906813,0.14222687,0.14343116,-0.06026622
-8.894468,-0.30983844,-0.8453255999999999,0.18746582,-0.19032815,-0.21622884
-8.878916,-0.29524338,-0.6894631,0.2742436,-0.6571688,-0.5031435000000001
-8.194681,-0.3831489,-0.8103031999999999,0.39189622,-0.7178539,-0.6074793
-7.502403299999999,-0.2579034,-1.0484400999999999,0.25720918,-0.40751693,-0.4706804
-7.665669,-0.13165236,-1.3668976000000002,0.22048745,-0.042341687,-0.27904323
-8.679058,-0.15763424,-2.166245,0.40147808,0.17482963,-0.19280653
-9.733752,-0.5579735,-3.0690506,0.5143310999999999,-0.052988198,-0.10337585
-10.470180000000001,-1.0748719999999998,-3.942254,0.38976693,-0.12538445,0.010000736
-10.780037,0.01844493,-3.9516873,0.27743754,-0.03488913,0.13615313
-11.664091,0.546443,-2.504986,0.19652407,0.030578168,0.21973695
-13.48649,1.3432908000000001,-0.46581590000000006,0.17736036,-0.035953782000000004,0.2064201
-15.213754000000002,2.7330291,1.4755559999999999,0.11348130599999999,-0.13655455,0.16543975
-13.351122,1.885587,2.5736806,-0.04298746,-0.22917919,0.14308210000000002
-10.490625999999999,-1.0100850000000001,2.403788,-0.24687682,-0.28082347,0.12817699
-10.125271000000001,-2.1439117999999997,2.4144855,-0.45343652,-0.3132866,0.072797686
-10.8085375,-1.8005162000000001,1.7600063000000001,-0.5753303000000001,-0.40006438,0.01584759
-11.414941,-0.13142252,0.69218284,-0.5854358000000001,-0.31222194,-0.0394968
-10.86551,0.63921356,-0.28848216,-0.5817008,-0.14826572,-0.08686504
-10.265772,1.1804947000000001,-0.27253678,-0.6163281,-0.025307272999999998,-0.14276794
-9.178191,1.5767733,-0.23298456,-0.6493148,0.10775663,-0.18641862
-8.153013,1.5796081,0.14752114,-0.70041806,0.19772835,-0.19971803
-7.586382400000001,1.5136333999999998,-0.23241952,-0.66847855,0.27384216,-0.14861478
-7.378795599999999,1.7625346000000002,-0.8090103,-0.47949430000000004,0.41385248,-0.12571606
-7.5357213000000005,2.0926185,-1.0545022,-0.301174,0.48518407,-0.12891002
-7.8238970000000005,2.2030296000000003,-0.9280883,-0.25591764,0.53522265,-0.025115287000000003
-7.939010000000001,1.5899702,-0.68073857,-0.34749505,0.58739054,0.27881634
-7.8250747,0.5681632,-0.27399242,-0.33841935,0.6177418,0.8047713000000001
-7.430223,0.15108371,-0.72055894,-0.14786429999999998,-0.05618215,0.9357059000000001
-7.400956,0.23204604,-1.49108,0.14969689,-0.34096754,0.3836932
-7.7689257,0.63499975,-2.3581161,0.06932448,-0.1296256,0.11220722
-8.90713,0.81283146,-2.5372026,-0.29689795,-0.11791444599999999,0.058974676
-10.277379,0.24327005,-2.1218565,-0.53485614,-0.30531046,0.12817699
-10.71684,-0.81284106,-1.6575346000000002,-0.45181337,-0.3085044,0.07867944
-11.201302,-0.8587044,-1.7035607,-0.27082273,-0.28454104,-0.038414698
-12.5865,-0.22957522,-1.6292926,-0.12868312,-0.21266837,-0.14807373
-15.502207,-0.98614293,-0.88381475,-0.005707226700000001,-0.21427408,-0.19011872
-18.323677,-4.453789700000001,1.6897221999999998,0.12255702,-0.23715533,-0.15500268
-14.5238695,-2.851772,4.0483174,0.34559265,-0.125367,-0.120392814
-8.957235,4.344825,4.0340385,0.6069732,-0.0071907565,-0.11719886
-9.300938,4.6898865999999995,1.5948256,0.81564474,0.09925687,-0.088453285
-9.7188015,2.3578002000000002,-0.25685954,0.80819213,0.0667763,-0.014992378999999998
-9.576893,0.6665840999999999,0.30647695,0.641583,0.09126326400000001,0.059515726
-8.970202,-0.2731401,0.60613525,0.44301692,0.23766148,0.12765338
-8.5620775,-1.224864,0.39343438,0.3003537,0.35157913,0.20059069
-8.178574000000001,-1.5375276000000002,0.72249347,0.25937337,0.4143935,0.2745752
-8.126716,-1.8071721,1.0287884,0.34932765,0.42184609999999995,0.358159
-8.007292999999999,-2.4679813,1.0572315,0.42970005,0.3659432,0.37199947
-8.084912,-2.9843533,0.7700231,0.38072613,0.24563764,0.26659903
-8.770430000000001,-2.7995495999999997,0.23884557,0.24392721,0.37074283,0.0903906
-9.672077,-1.2661496,-0.72736806,0.2742785,0.382454,-0.08258898
-9.620956,0.67533726,-2.3995936,0.37861428,0.31483993,-0.263056
-8.77767,1.3161118,-2.4116602000000005,0.31473523,-0.10726794,-0.5254837
-8.193791000000001,1.0180815,-2.7037816,0.11990411599999999,-0.5389925999999999,-0.61172044
-7.8341823,0.2851686,-2.5428627,0.04431391,-0.35320228,-0.57126373
-7.6706389999999995,-0.74625355,-2.1517072,-0.07332128,-0.2675066,-0.38336158
-8.350850999999999,-1.5231912,-1.2501756000000002,0.012374383999999999,-0.091839224,-0.23909265
-9.135584,-1.8196028000000002,-0.8863813,0.14919074,-0.06148795,-0.19064231
-10.008826,-1.8030637999999999,-1.6984755,0.11245156,-0.21905628,-0.13156292
-10.726503,0.45306915,-3.0468802000000004,-0.10791371,-0.11897910000000002,0.002565634
-12.486671000000001,1.7684819999999999,-2.4495845000000003,-0.26602307,-0.02370157,0.13512339
-13.939607999999998,1.7732223999999999,-2.0654588,-0.36449456,-0.02157227,0.22879522
-15.247817999999999,1.5091419,-1.4535007,-0.3416133,-0.1248434,0.23572417
-14.407654999999998,1.4235541,0.9560909,-0.33042574,-0.2659009,0.19900244
-10.408284,0.029544447999999997,2.0938346,-0.3884405,-0.32817426,0.14097025
-9.733493,-1.0309241,2.125888,-0.5188689000000001,-0.34468508,0.08880235
-9.646392,-0.78399575,1.7578613,-0.6604675,-0.4271867999999999,0.060597833
-10.613093,-0.4253443,1.045634,-0.7110297,-0.5049063,0.018011797
-10.431958,-0.08350018,0.2735519,-0.6822841,-0.36065483,-0.040526547
-9.656831,0.5578681999999999,-0.0983155,-0.6104289,-0.12908456,-0.063425265
-9.302537,0.88295287,0.13232274,-0.49438196,0.0678584,-0.062360615
-8.704657000000001,0.9647196,0.0016567876,-0.42411499999999996,0.13919,-0.04478515
-8.116535,1.0971955,0.038613684,-0.36927676,0.1413193,-0.020821778
-7.8769617,1.389202,-0.63728863,-0.29899237,0.16367698,-0.025621433
-7.9652696,1.7333349999999998,-1.278542,-0.22607249,0.22169173,-0.07778932
-8.543067,2.0758975,-1.6522960999999998,-0.15208799,0.17591174,-0.15496778
-9.215876,1.8542707999999999,-1.5210651000000002,-0.19359192,0.21903881,-0.19861847
-9.153176,1.1584202,-0.92029285,-0.328279,0.45219734,-0.14486232
-8.626308,0.46929225,-0.5251825,-0.53642696,0.40587629999999997,-0.030403635
-8.23343,-0.18430565,-0.34252408,-0.68760735,0.46923175,0.19048524
-8.197009,-0.6205291999999999,-0.372691,-0.6583207,0.31963959999999997,0.41193262
-8.674068,-0.32308316,-1.0540329,-0.40386918,-0.33297393,0.38266343
-9.492033000000001,0.43393469999999995,-1.424799,-0.15687019,-0.42079887,0.1521578
-10.027865,0.90038264,-1.7580813999999998,-0.23884831,-0.1839228,0.037175514
-10.2695265,0.325621,-1.9644903999999999,-0.40067524,-0.066811204,0.013753194
-9.908883,0.056646813,-2.3078573,-0.34690166,-0.032201323999999996,-0.0027227136
-9.879931,1.0128335,-2.4481192000000003,-0.18774506,-0.07105235,-0.038920842000000004
-10.716935000000001,1.0614263000000002,-2.2145599999999996,0.02942625,0.026860617000000003,-0.086306535
-12.244359,-0.21415655,-0.47081497,0.1412146,0.009302605,-0.105993845
-14.622587,-0.8138658000000001,1.680538,0.274837,0.0050440015999999996,-0.11770499999999999
-15.177466,-3.2185829,2.7398765,0.44411647,0.05242969,-0.11451105
-11.009592999999999,-0.13563631,3.8989286,0.6394711999999999,0.06305875,-0.09747664
-8.084013,3.0944578999999997,3.0332334,0.81142104,-0.011431906,-0.03785619
-8.588662,2.8294580000000003,0.26107332,0.839643,-0.072117,0.047315877
-9.797715,1.2601067,0.011865663,0.7379601,-0.01675516,0.09149016
-10.518667,-0.35399709999999995,-0.25123796,0.57719785,0.15941837,0.15643387
-10.19519,-1.400244,0.030492553,0.43134066,0.27759463,0.21764256
-9.269277,-1.7048727,0.18737979999999999,0.37810809999999995,0.27281243,0.24905849
-8.205188,-1.7933718999999997,0.25529853,0.37596136,0.15248941,0.25010568
-7.585961,-1.913398,-0.013895946999999999,0.33019885,0.05668829400000001,0.20647246
-7.853077000000001,-2.0236464,-0.37596628,0.24289747,0.14931291,0.15697491
-8.821073,-1.8718443999999999,-0.5067663,0.24289747,0.28558823,0.12449434
-9.606208,-1.3703835,-0.92427677,0.28602457,0.31805134,0.06752679
-9.436114,-0.32792902,-1.4651365,0.30251792,0.029007372000000003,-0.05806710599999999
-8.681069,0.40217802,-1.6581474999999999,0.26258478,-0.56985,-0.36151004
-8.093905,0.70036143,-1.8278101999999998,0.34510395,-0.69654346,-0.47755697
-7.576231,1.0255036,-1.7298107,0.2913478,-0.57143825,-0.46689302
-7.970096000000001,0.72245514,-1.6980157,0.17423622,-0.41121703,-0.3093247
-9.042469,-0.19284816,-2.0491111,0.31583479999999997,-0.031660274,-0.1869073
-9.959285000000001,-1.0008912,-2.7476912000000002,0.43081707,-0.1258906,-0.111840695
-10.388384,-0.65056205,-3.144372,0.39940116,-0.29462904,-0.044767695999999996
-10.833905999999999,0.19008046,-3.073092,0.23120376,-0.19881046,0.05157448
-11.889347,0.35700423,-2.7666150000000003,0.1449496,-0.08330456,0.16282177
-13.106616,0.7448649,-1.7701578000000002,0.13857915,-0.035377822999999996,0.22511257
-14.496345499999999,1.2401773999999999,0.20771137,0.15667820000000002,-0.1397136,0.2112721
-13.649047,2.7725239,1.5472576999999998,0.0922581,-0.2546959,0.16868608
-10.135489,0.08803,1.8932197,-0.081786126,-0.27546529999999997,0.1441991
-9.778733,-1.4931486999999999,2.6116335,-0.31388003,-0.32550392,0.11917108
-10.203944,-0.9187988000000001,1.9573843,-0.49221775,-0.47616073,0.102136664
-10.883628999999999,-0.43432733,0.7566539000000001,-0.5763077,-0.53256977,0.0723439
-10.275396,-0.43489236,0.097415276,-0.5459739,-0.34360296,0.031887166
-9.283584,0.17040970000000003,-0.56147856,-0.4719894,-0.02581342,-0.00057595863
-9.185183,0.91329217,-0.4579629,-0.40493384,0.19083429999999998,-0.010175269
-8.701707,1.3099157,-0.1871787,-0.40224603,0.28665286,-0.02719223
-8.153253,1.5865418,-0.15843870000000002,-0.38627627,0.3148574,-0.05487315
-7.7932897,1.8357781000000002,-0.73081565,-0.27183503,0.29038787,-0.07510152
-8.038101,1.8854147,-1.3483856,-0.12011356,0.28026497,-0.11555825
-8.525341000000001,1.9790567,-1.2464405,-0.04612905,0.28878218,-0.09852383
-8.862817999999999,1.4576761999999999,-0.9811726000000001,-0.10787880400000001,0.2451315,0.14313444
-8.614462,0.98280066,-0.3160825,-0.13234831,0.18444639999999998,0.5684712
-8.109142,0.71461177,-0.14732002,0.06511823,-0.15248941,0.7542439999999999
-7.866714999999999,0.30240682,-0.58211666,0.2626197,-0.364896,0.29698524
-8.047917,-0.36747164,-1.6017305,0.11196287,-0.22062707,0.06541494
-8.491036,-0.13868174,-2.6739113,-0.26064748,-0.10405653,0.06169739
-9.536862,0.6027834,-2.7329717000000002,-0.5528854000000001,-0.113638386,0.1335526
-10.510305,1.014203,-2.2680464,-0.47516587,-0.1375843,0.08724901
-10.928956,0.32852277,-1.6019508,-0.27820548,-0.061470497,-0.022933627
-12.534125,0.045212105,-0.25778848,-0.10840239999999998,0.056164697,-0.105976395
-15.33671,-1.1419864,0.71117365,-0.03174754,0.024748769,-0.15920894
-17.294113,-3.0225646,3.0986523999999998,0.04543092,-0.0034382986,-0.17624335
-14.10904,-1.2942479,3.9057665,0.2131047,0.13227850000000002,-0.19327776
-9.038438000000001,3.2445455,3.3314739999999996,0.42870522,0.26535985,-0.17303194
-8.489274,4.633785700000001,2.0404441,0.60330796,0.28080603,-0.07243116
-9.312965,3.6363807,0.009203311,0.6602755,0.16530013,0.032428216
-9.838378,1.3715903,-0.14978127,0.59957296,0.05084144,0.0707382
-9.636135000000001,0.11195287,0.8146319000000001,0.47767916,0.20467477,0.0803375
-9.217677,-0.8891778,0.93246496,0.3797313,0.36650170000000004,0.11599458
-8.6188965,-1.4110755,1.2319604,0.31745794,0.42613959999999995,0.16070992
-7.7239532,-1.6634529999999998,1.1651239,0.30361748,0.42507493,0.17189747
-6.9409537,-1.8444642,0.96080273,0.24984388,0.34629077,0.12931144
-6.926722,-1.936641,0.66048366,0.12423254,0.31435126,0.04680973
-8.051499,-1.9889686999999998,0.26373568,0.06140068,0.46286133,-0.021851522999999998
-9.454176,-1.6081278,-0.41069177,0.17744762,0.46766096,-0.0543321
-9.540396000000001,-0.4099735,-0.9371001,0.28764772,0.10142108,-0.13631022
-8.955933,0.48866615,-1.6578218999999996,0.28817132,-0.5980545,-0.4290892
-8.167015,0.96258396,-1.7603896,0.28445375,-0.9717295,-0.6116680999999999
-7.7374754,0.8737208000000001,-1.9770839,0.22163936,-0.6374466,-0.51904345
-7.8831196,0.2690508,-1.9206765,-0.025342181000000002,-0.26534240000000003,-0.27843237
-8.861514999999999,-0.46806642,-1.9871396000000001,0.085905105,0.09609783,-0.13735741
-10.076602000000001,-1.1278796,-2.4640167,0.27167794,0.055623643,-0.04420919
-10.656303999999999,-0.8812960999999999,-3.0380694999999998,0.28071874,-0.12746139,0.029757863
-10.82184,0.42726922,-3.3351038,0.16627751,-0.13917255,0.10855948
-11.964975,0.7235086,-2.3840885,0.11623893,-0.07105235,0.17828538
-13.381634,1.0452031,-0.73435915,0.11037462,-0.044959683,0.18626153
-15.056367999999999,1.679657,1.0276488000000001,0.10665707,-0.11681489,0.14156365
-15.538388000000001,2.930206,2.8006318,0.010314896,-0.1961401,0.079813905
-10.947927,1.5729043,2.220038,-0.17811085,-0.22860323,0.02125811
-9.731722,-1.1053933,2.6426717999999996,-0.40383428,-0.28715903,0.0015533429999999998
-9.889662,-1.547928,2.2209957,-0.5773724,-0.37500143,-0.03197443
-10.855138,-0.8611943000000001,1.0657645,-0.6140941,-0.39255947,-0.07880162
-10.377964,-0.31769142,0.10705912,-0.56299084,-0.18975219,-0.10382964
-9.560977000000001,0.46237782,0.047156196,-0.5049585999999999,-0.0028972465,-0.10222393
-8.750597,1.1423886,0.0727167,-0.45280823,0.082780965,-0.12405799999999999
-7.930209,1.5840325000000002,0.23478499,-0.42458624,0.16104153,-0.14906856
-7.454797,1.7058305,-0.09126697,-0.40861648,0.22544418,-0.15226252
-7.2439350000000005,1.823357,-0.855726,-0.34313172,0.33297393,-0.12299335
-7.5613675,2.0547996,-1.2747208,-0.19514526,0.37929496,-0.1229759
-8.325808,1.892425,-1.4101369,-0.09135053,0.36971309999999996,-0.13470452
-8.806007000000001,1.5855839,-0.9050178,-0.09613273,0.36812484,-0.08890707
-8.532580000000001,0.94704086,-0.29212135,-0.26008895,0.3201981,0.084596105
-8.080584,0.061444793,0.060563724000000006,-0.36494833,0.29784045,0.35768777
-8.01913,-0.35439932,-0.25029942,-0.42989203,-0.110426985,0.56423
-8.161163,-0.11414596,-1.0087442,-0.3223623,-0.43301618,0.5700769
-8.903213000000001,0.28003540000000005,-1.8357493999999999,-0.17170548,-0.36700782,0.3960152
-9.792428999999998,0.63628304,-2.2526276000000003,-0.23347269,-0.111491635,0.24909338
-10.4795265,0.32191479999999995,-2.1386445,-0.27658233,0.030613074,0.078749254
-10.539669,-0.7362075,-1.9006418,-0.22176154,0.016772615,-0.039950587
-10.890007,-0.15085387,-1.8733383000000001,-0.10784389,-0.036442474,-0.13629276
-11.773984,0.4692348,-1.8745258999999999,-0.074298665,-0.09712757,-0.18685494
-13.154710999999999,0.1479521,-0.17717093,0.00286234,-0.117355935,-0.17301449
-14.360508,-0.3420931,2.837493,0.17161822,-0.033772122,-0.14746287
-13.745189000000002,-2.0435852999999997,4.311287,0.42713442,0.053511795,-0.14322172
-10.613592,0.7381994000000001,4.536007,0.7172430999999999,0.08119272,-0.13203415
-9.157438,3.1138220000000003,1.8952501,0.92593205,0.019442968,-0.039409533
-9.972626,3.2655761,0.31981748,0.8748288000000001,-0.024713863,0.06279694
-10.501553,1.8216043999999998,0.11359051,0.685321,0.178617,0.124005646
-10.545117999999999,0.29346209999999995,-0.14800955,0.47078509999999996,0.35161403,0.18521434
-9.750875,-0.98011917,-0.16149370000000002,0.38294268,0.40910518,0.22940607
-8.409796,-1.5050622,0.14353718,0.43512803,0.49427724,0.22088887
-7.396024000000001,-1.8704174,0.7035697,0.37123153,0.40271726,0.17456783
-7.194891999999999,-2.3967490000000002,0.7197449,0.18545869,0.29731685,0.113900185
-7.7670875,-2.9007764,0.6502651999999999,0.061435588,0.40271726,0.05160938599999999
-9.0431,-2.8793533,0.31198364,0.03375467,0.46127307,-0.010663961999999999
-9.4990425,-1.4849413999999999,-0.64618546,0.04811873,0.1833992,-0.11711159
-8.741699,0.37328479999999997,-1.5215248,0.08698721,-0.7018318,-0.45834090000000005
-7.805959700000001,1.1655643999999998,-1.6972975,0.27862436,-1.115981,-0.58929294
-7.3268414,1.2965752000000001,-2.13445,0.20994565,-0.7747691,-0.5419246999999999
-7.670141,0.92107815,-2.001677,-0.007225663,-0.24350834,-0.30983084
-9.039060000000001,0.23077229999999999,-2.4564319,0.0763407,0.21162117,-0.12884021
-10.528933,-0.7280863000000001,-3.1360211,0.23336798,0.14720106,-0.012252212
-10.951998,-0.5297985,-3.7029011,0.24720843,-0.08539896,0.04841543400000001
-10.293621,0.7085592,-3.9029799,0.15299556,-0.13011430000000002,0.11016518
-11.441929,0.6679248000000001,-2.814834,0.08805186,-0.0694292,0.18043214
-13.495387,0.793697,-1.1251023999999998,0.0758171,-0.078487456,0.19907226
-15.950880999999999,1.6480248,1.6338415000000002,0.02310816,-0.20144589999999998,0.18362609
-15.438502,3.9898220999999996,3.243157,-0.13763666,-0.35794958,0.15381587
-10.080977,1.0287502,2.8370526000000003,-0.35801938,-0.42182863,0.12454669
-9.47558,-2.297629,3.1117535,-0.62524676,-0.41011748,0.086219266
-10.152239,-2.292295,2.0432596000000003,-0.7870736999999999,-0.43034583,0.05586799
-11.044165,-1.1168472,0.6676470999999999,-0.7625867,-0.35582027,0.016475908
-10.302882,-0.23718877,-0.33668223,-0.60608304,-0.09711012,0.019687313999999997
-9.385491,0.7317351,-0.27869463,-0.45277330000000005,0.06948156,-0.010122909
-8.532456,1.4126651000000001,-0.22436543,-0.3777067,0.14028956,-0.055361845
-7.604070699999999,1.6595936000000002,0.21352449,-0.38090065,0.20256291,-0.10061823
-7.172185400000001,1.7490313999999998,-0.016117765,-0.40912262,0.21055652,-0.108053334
-7.232079,2.0758877,-0.5407736,-0.34896109999999997,0.3324503,-0.09953613
-7.78332,2.569419,-0.99866945,-0.22333233,0.43252748,-0.12189379
-8.71682,2.528076,-0.89184016,-0.06469935,0.46553168,-0.07187266
-9.146349,1.6818885,-0.651242,-0.014137166999999999,0.41071087,0.14051646
-8.865423,0.012919112,-0.28965050000000003,0.056129787,0.28241172,0.45458844
-8.0149355,-0.76871115,-0.15281712,0.12266174,-0.005550146999999999,0.6329262
-7.5627947,-0.7897418,-0.841198,0.14875442,-0.19186404,0.32683036
-7.976790400000001,-0.25799918,-1.7093738,0.022584561,-0.3009995,0.091001466
-8.997947,0.56791425,-2.5181255,-0.24089034,-0.30738738,0.061208695
-10.309528,1.2300738000000002,-2.456336,-0.49853584,-0.22273892,0.1367989
-11.086294,0.8680609,-2.0291913,-0.52143455,-0.09498082,0.14212216
-11.558047,-0.009021352,-1.3604333,-0.33512068,-0.03323107,0.03885103
-12.65508,-0.16052642,-0.6961285,-0.12431980000000001,0.04075344,-0.08463102
-14.044367999999999,-0.6832764,-0.5747711999999999,0.029496064,0.0066671576,-0.183661
-15.287370000000001,-1.2627594,1.3890296,0.08911651400000001,-0.052935835,-0.22144738
-13.468573000000001,-1.4513363000000001,3.2186115,0.20518091,0.05565855,-0.22197098
-9.557097,1.7352406999999999,3.4683459,0.40427062,0.26752406,-0.201219
-9.060205,2.964357,2.6224458,0.6235887,0.30743974,-0.15063937
-9.413819,2.6632812,1.002165,0.74282956,0.24781929999999996,-0.05321509
-9.529373,1.6251267,-0.23507229999999998,0.71940726,0.17755234,0.016493361
-9.280434,1.1071841999999998,0.6881989000000001,0.61294216,0.21961477,0.060667645
-9.330874,-0.03794331,0.8436305000000001,0.5171236,0.42296308,0.075049154
-9.243917,-0.82040673,0.5967404000000001,0.4569621,0.53901005,0.08676032
-8.707999000000001,-1.5106071,0.47860092,0.53202873,0.47565457,0.1213702
-7.7743273,-2.0504038,0.39466979999999996,0.5618389,0.32340949999999996,0.15011577
-7.3103886,-2.2037572999999995,0.16629167,0.42556363,0.22652629,0.11550589
-7.711714,-2.1873139999999998,-0.30947453,0.2578724,0.39102358,0.0659909
-8.664788,-1.9150933,-0.8859790999999999,0.24724334,0.4314803,0.06866125
-9.221297,-0.92522484,-1.3453977,0.29461157,0.4772603,0.07930776
-9.02117,0.28665298,-1.7595755000000002,0.27970648,0.17116444,-0.043109633
-8.678109,0.8164036,-1.5139112,0.2509609,-0.664028,-0.3758043
-7.9842033,1.0490721,-1.4082886000000001,0.45005059999999997,-1.0020632999999999,-0.48652798
-8.00576,0.9740281999999999,-1.499795,0.26267204,-0.75558794,-0.36835173
-8.826903999999999,0.16718231,-1.7749175,0.14290756,-0.24349089,-0.085154615
-9.98205,-0.7630416999999999,-2.5750117,0.2616074,0.14667746,0.06494370000000001
-10.89674,-1.4389918,-3.4655302000000003,0.35529667,0.079080865,0.126676
-11.051434,-0.2114942,-3.9911726,0.32548645,-0.15406021,0.1410575
-10.91574,0.8599302,-3.3649068,0.23074998,-0.20889845,0.16875589
-11.672039999999999,0.36038482,-2.8456043999999996,0.16793558,-0.19718729999999998,0.19643681
-13.366531,0.63168615,-1.5709601999999998,0.08913396,-0.2642603,0.17299703
-15.867543,1.4829683999999999,0.57042336,-0.02687807,-0.3984063,0.13840461
-15.374979000000002,3.7817469,2.2154220000000002,-0.22225022,-0.4702615,0.1261524
-10.901586,0.5758151,2.3758814,-0.46338493,-0.38296014,0.10859439
-9.352374000000001,-1.7721306000000001,3.1518037,-0.6752679,-0.2988527,0.07452556
-8.98429,-1.5851243999999998,1.9875226000000001,-0.73914695,-0.31801644,-0.0074351025
-9.402078,-0.9378663,0.34546414,-0.6363994000000001,-0.29831168,-0.085154615
-9.012445,-0.31193575,-0.45609543,-0.49532443,-0.19664624,-0.14583970000000002
-8.638729,0.72777027,-0.5079442,-0.3877947,-0.11625638,-0.18310249
-8.347605,1.5671582,-0.41886082,-0.33349752,-0.039077923,-0.20172516
-7.887391,2.1280622000000005,-0.21113986,-0.3835361,0.045012042,-0.21024236
-7.5978556,2.3320863,-0.3702968,-0.45380306,0.20844467,-0.18203785
-7.5626993,2.5816772,-1.0869388999999998,-0.3920533,0.46661377,-0.12028809
-7.962215,2.6469240000000003,-1.6417233,-0.27654743,0.49588296,-0.09526007
-8.8176155,1.9287593,-1.8624493999999998,-0.20041616,0.3638837,-0.026598819
-9.19656,0.4368652,-1.6533781000000003,-0.33721507,0.16372934,0.16290903
-8.828092,-0.33062968,-1.1104978,-0.27813566,0.12859586,0.48495720000000003
-8.181054,-0.35897702,-1.0161375,-0.08330456,-0.12744394,0.45940557
-7.9948524999999995,-0.17922993,-1.1922837,0.036983527,-0.18812904,0.20388936
-8.1858425,0.29557854,-1.6809403000000003,-0.14878932,-0.17695893,0.006387905
-8.880621000000001,1.0602673999999999,-2.3114102,-0.49799478,-0.0789936,0.025028022
-9.789402,1.3949193000000002,-2.3472178,-0.6613925,-0.081122905,0.07506661
-10.771896,0.54453725,-1.7679169,-0.5538801999999999,-0.09763372,0.034068827
-11.962035,-1.0984981000000003,-0.9065309000000001,-0.40109409999999995,0.062046453,-0.06597344599999999
-13.636357,-1.3942968999999998,-0.5963189999999999,-0.30475193,0.13657202,-0.14156365
-15.4725,-1.7419541,0.6581948000000001,-0.19509289999999999,0.14137167,-0.18149678
-15.210995,-1.4751443000000002,2.8688569999999998,-0.00026179937,0.18715166,-0.18736109
-11.14069,0.5802204000000001,4.507601999999999,0.22596778,0.26593579999999994,-0.17936748
-8.496332,3.3557900000000003,3.1901302000000005,0.44315654,0.2994636,-0.14104006
-9.015099000000001,4.0218277,0.78411067,0.51075315,0.2824292,-0.025516712999999996
-10.310198,2.3717537,-0.7224264,0.50436527,0.22973768,0.07719591
-10.693855000000001,0.48374364,-0.47219402,0.49319515,0.32342696,0.16343263
-9.74895,-0.75173146,0.13094369,0.54056334,0.3963468,0.23636994
-8.637858,-1.3075596999999999,0.5154812,0.65076345,0.44319147,0.26989773
-7.7803607,-1.608214,0.6257581,0.6874852,0.39901718,0.20601867
-7.2368,-1.8186835,0.5529457,0.47829002,0.26061258,0.07134906
-7.1334662,-2.1115037999999995,0.039303213,0.24939009999999998,0.29787534,-0.0643852
-7.519133999999999,-2.2148952,-0.50233227,0.22012092,0.3516315,-0.09419542
-8.462689,-2.0586686000000003,-1.0112438,0.2573837,0.36760125,-0.12027064
-9.0149355,-1.1495712,-1.7775031000000003,0.23289673,-0.27701867,-0.37152824
-8.709636999999999,-0.5154812,-1.44854,0.34681436,-0.9264556999999999,-0.5605125
-8.023162,-0.13174814,-1.3314443999999999,0.4000469,-0.79070395,-0.4652175
-7.8072906,-0.032896332,-1.6477950000000001,0.19722220000000001,-0.20781635,-0.24111724
-8.291542,-0.4433487,-2.0472436000000003,0.27122417,0.26433012,-0.053197637
-9.295717999999999,-1.5958886,-2.5606657999999998,0.47031388,0.21111503,-0.009005899
-10.582448,-2.1313472,-3.1551937999999997,0.4878719,-0.1439373,0.03515093
-11.0722065,0.3329281,-4.0075199999999995,0.36863098,-0.141808,0.10595894
-11.60506,1.6980541,-3.4702705999999997,0.26961845,-0.023631757000000003,0.1810081
-13.194876999999998,0.8257697,-2.3516424,0.22225022,-0.009791297,0.1852667
-15.579118,1.3331107,-0.11521856,0.20095721,-0.10934488,0.14161602
-16.450733,3.5741985,1.9560341,0.09820968,-0.25305527,0.09690068
-10.995419,1.5571888999999999,3.122834,-0.058800142,-0.32653365,0.07187266
-9.522333999999999,-1.7288244,2.9638782000000004,-0.2605602,-0.35047957,0.07347836
-9.820681,-2.2960682,2.0249584,-0.43568653,-0.43032837,0.049532442999999995
-11.26198,-0.76805985,0.7403925,-0.51340604,-0.48408452,-0.011135201
-10.862033,0.33770695,-0.68383193,-0.5229879,-0.4058414,-0.09630727
-9.887354,1.0376278,-0.58338076,-0.5378930000000001,-0.12583824,-0.14369296
-8.996835,1.7681371,-0.5577340999999999,-0.5437573,0.12166689999999998,-0.16125096
-8.1283245,1.7921557000000001,-0.18354908,-0.6033603,0.22867304,-0.16125096
-7.533394,1.30778,-0.3415281,-0.6150715,0.30426323,-0.12185889
-7.1729803,1.2532976,-1.0137817,-0.47933722,0.5145231,-0.054262288
-7.2828455000000005,1.5286115,-1.4423053999999997,-0.25841343,0.61568236,-0.064908795
-7.8355618,1.9403854999999999,-1.7723413000000001,-0.16153023,0.51773447,-0.083531454
-8.511703500000001,1.9465721999999999,-1.4067372,-0.22755602,0.4224395,-0.040421825
-8.465093,1.398118,-0.9722086999999999,-0.4410098,0.39742893,0.17835520000000002
-7.7421107000000005,0.7147266999999999,-0.80036247,-0.58473766,0.25902432,0.5169142
-7.489839,0.5324513000000001,-0.85038215,-0.6235887,-0.27860692,0.6962991
-7.616348299999999,0.45214978,-1.4690821000000003,-0.31005773,-0.30735248,0.53607786
-8.316863,0.55890244,-2.2316356,-0.18814649,0.010960667,0.23745205
-9.545922000000001,0.6483306999999999,-2.5215445,-0.26693067,0.100391336,0.07401941
-10.377227,0.028347347000000002,-2.4676080000000002,-0.26427776,0.053546699999999996,-0.06117379
-10.517824000000001,-1.0208972,-2.5922978,-0.15409511,-0.03960152,-0.136764
-11.221039,-0.0054492030000000006,-2.4711418,-0.016214108,-0.023631757000000003,-0.17189747
-12.31472,0.41849688,-2.2203732000000005,0.109938286,0.05461135,-0.15912166
-14.088392,-0.02971683,0.35283828,0.28454104,0.09239773,-0.112818085
-16.0971,-1.9196229999999999,3.8326860000000003,0.4825661,0.13658947,-0.07288495
-13.923796,-2.4797130000000003,5.2154427000000005,0.6587745,0.15255924,-0.039880775
-9.691239999999999,1.9021357,3.9166458,0.82803655,0.17437585,-0.012723451
-9.373874,3.8265665,0.42439620000000006,0.87116367,0.062063905999999995,0.06604326
-10.343488,2.7244291,-0.28481424,0.7886445,0.013613568000000001,0.11021754
-10.659695,1.0786836000000002,-0.4015555,0.6795265,0.20153317,0.14854497
-10.026256,-0.8547779000000001,-0.47652277,0.55974454,0.37133625,0.20017181
-8.811811,-1.8701588,-0.19702365,0.52621675,0.40168753,0.2502104
-7.565371000000001,-2.1777849999999996,0.16917428,0.46872562,0.24996606,0.2534218
-7.002092,-2.4859953,0.089274995,0.31222194,0.09400343,0.17037904
-7.0684977,-2.4998913,-0.51863194,0.15730652,0.24305455,0.030368729
-7.7142805999999995,-2.238502,-1.0567431,0.13655455,0.3702716,-0.058503438
-8.658803,-1.6354696000000002,-1.2607483,0.18978710000000001,0.38252379999999997,-0.1319818
-8.829471,-0.35813427,-1.9156008000000002,0.15198328,-0.2653075,-0.42315507
-8.049,0.25487715,-1.9202743000000002,0.30051079999999997,-0.83648396,-0.6387556
-7.3047,0.37833175,-1.8725051,0.36758378,-0.773146,-0.64034384
-7.558561999999999,0.5791286999999999,-2.0623462,0.014660765,-0.49207813,-0.46094146
-8.806803,0.63998926,-2.5066813999999997,-0.048677232,0.021066124,-0.24322908
-10.433538,-0.11889606,-3.3657593999999995,0.19404571,-0.024678955,-0.08883726
-11.083277,-0.58999836,-3.9477227,0.20149826,-0.28286552,0.020245818
-10.570563,0.34477463,-4.343867299999999,0.08225737,-0.23708552,0.124599054
-11.027308999999999,0.48032475,-3.7688565,-0.024190264,-0.086969756,0.19964822
-12.300135000000001,0.40266642,-2.6514826,-0.076358154,-0.09335766,0.20657717
-14.862064000000002,1.0361434,-0.7486477,-0.103515476,-0.13861404,0.20816542
-15.774782,3.6482365,1.6198211,-0.21848032,-0.20833996,0.20923007
-10.893704,2.2142918,2.400532,-0.41172317,-0.27701867,0.20655972
-9.406053,-1.3014688,1.9807327000000001,-0.6278473000000001,-0.34835026,0.17516124
-10.036485,-1.9100271,1.6472490000000002,-0.7822217,-0.48089057,0.11021754
-11.72226,-1.0562356000000002,1.2258121000000002,-0.80351466,-0.5389228,0.030368729
-11.037787,-0.8768716000000001,-0.060716953,-0.7247305,-0.38028979999999996,-0.040404372
-10.011364,0.09742486,-0.26176286,-0.65819854,-0.14606660000000002,-0.09791297
-9.56655,1.108774,-0.5500343000000001,-0.5985781,0.033318337,-0.13463470000000002
-8.590261,1.5338118,-0.24644955,-0.5682268,0.13339551,-0.136764
-7.8154883,1.4018625,-0.39446867,-0.5336344,0.22069688,-0.10428342
-7.4904227,1.4349025,-1.0343335,-0.4308869000000001,0.39901718,-0.039880775
-7.6563125,1.6825491999999997,-1.5685851999999998,-0.20945697,0.521452,0.0005585053599999999
-8.081303,1.8938423,-1.7658770000000001,-0.00715585,0.40807542,-0.014329153
-8.524355,1.4398633,-1.3153169,0.06948156,0.40540507,0.025045475
-8.387137,1.0220847,-0.8854907,0.03382448,0.43575636,0.22467624
-7.971178500000001,0.76849085,-0.6930735,-0.013020156000000001,0.281382,0.46526986
-7.672784299999999,0.39163393,-0.90791965,0.0013439035,0.03970624,0.51904345
-7.788079700000001,0.028625077000000002,-1.3175197,-0.017802358,-0.023090705,0.35669294
-8.38368,-0.09791327,-1.9338255000000002,-0.117355935,-0.061418135,0.21029472
-9.351513,0.3857442,-2.4123976000000003,-0.28344148,-0.13542010000000002,0.19006635
-10.176573,0.48569733,-2.5722826000000003,-0.30738738,-0.20462239999999998,0.11287044
-10.838465,-0.6069397,-2.1209946,-0.19985765,-0.054506633,-0.040404372
-11.566599,-0.4245494000000001,-1.9554211,-0.058800142,0.056740652999999995,-0.14847516
-12.705167,0.22630952,-2.0235026,0.02157227,0.06632251,-0.20329595
-14.078194,-0.6741593000000001,-0.9359988000000001,0.093968526,0.038100537000000004,-0.23310618
-14.006224,-2.3379952999999998,1.6782683,0.18711674,0.029059732,-0.23738223
-11.067916,-0.97850066,3.7424629,0.31860986,0.117425755,-0.20011945
-9.61181,1.8803486,3.4330937999999995,0.47457248,0.16533504,-0.15592772
-10.172935,2.8065886000000004,0.9606686,0.6294879,0.16001178,-0.054785885
-11.335846,2.7355766,-0.36461776,0.68165576,0.023736477000000002,0.08094837
-10.777566,1.4938477,-0.061837442,0.6752679,-0.023631757000000003,0.14960963
-10.162533999999999,0.3146364,-0.102213256,0.6316172,0.06525786,0.15919147
-9.501102000000001,-1.06745,-0.24140257,0.59063685,0.20312142,0.17463765
-8.227798,-1.5581752,-0.20009781,0.5815786000000001,0.33407348,0.17462020000000003
-7.165453,-1.4463181,-0.21612938,0.46924922,0.25422466,0.14695673
-6.807558,-1.4682202,-0.5047839,0.21746802,0.09187413,0.05539675
-7.206633,-1.4709591999999998,-1.0315369,0.045518185999999995,0.20525073,-0.019128809
-8.0463085,-1.7258555,-1.0924456,0.02157227,0.37346554,-0.093654364
-9.187213,-1.572186,-1.5294831,0.012514011,0.4261745,-0.17350318
-9.180997,-0.9056499,-1.8339298,-0.064664446,0.012025318,-0.31669
-8.402374,-0.6399604999999999,-1.8230313999999999,0.032742377,-0.68797386,-0.47373469999999995
-7.654387,-0.29196809999999995,-1.7982752,0.28187066,-0.875876,-0.49342203
-7.6583429999999995,0.25798960000000004,-1.8812871,0.20362756,-0.66613984,-0.38056904
-8.839613,0.28666258,-2.203058,0.22331488,-0.1439373,-0.16179202
-10.443651,-0.530105,-3.0575294,0.37182495,0.15041247,-0.021781709
-11.235854,-0.46394840000000004,-4.035561,0.46340236,-0.02734931,0.08518952
-10.657636,1.0310965,-4.585011,0.41228166,-0.18865263,0.14480996
-10.644458,0.27451918,-4.4703574,0.34733796,-0.16043067,0.17249089999999997
-11.6736965,-0.7370789000000001,-3.3634512,0.30901054,-0.15777776,0.1852667
-13.549294,0.19017622,-1.6051686,0.27708846,-0.20195204,0.1762259
-15.062516,2.2426009999999996,1.8711836,0.20256291,-0.2653075,0.14693926
-12.731474,2.9302921000000004,3.1107864,0.07213446,-0.3329041,0.114476144
-10.59667,-0.17310078,3.3365211,-0.12000884,-0.43032837,0.09477138
-10.233096000000002,-1.6958513,2.6483414,-0.33454472,-0.5490457,0.07506661
-11.045217999999998,-1.4129142,1.4716775,-0.47136107,-0.6320884,0.026633725
-11.087185,-0.5501205,-0.24517582,-0.49265410000000004,-0.4974014,-0.025516712999999996
-10.110599,0.09863153,-0.73927206,-0.49424234,-0.20142844,-0.044139378
-9.457958999999999,0.7871465,-0.6921636999999999,-0.5166,0.06791076,-0.054262288
-8.533864,1.1778803,-0.67285687,-0.53202873,0.26221827,-0.061714843
-7.6254177,1.2074821000000002,-0.47296017,-0.5352401,0.3095865,-0.054803338
-7.124675,1.2896511999999998,-0.78294224,-0.46549675,0.38624138,-0.011135201
-7.2745137,1.6801932000000002,-1.1913068000000002,-0.29089403,0.43627995,-0.01754056
-7.9883976,2.0955875,-1.5545360000000001,-0.21584487,0.35110790000000003,-0.046286132
-8.763361999999999,2.1595986000000003,-1.5595447,-0.28131217,0.30639255,0.07134906
-8.664108,1.6430353,-1.1022903999999998,-0.39151224,0.42402774,0.44184756
-8.021792,0.7615094,-0.7740646,-0.31963959999999997,0.23560199,0.6446723000000001
-7.6602006,-0.0177554,-1.1174697,-0.14875442,-0.18811159,0.35082862
-7.6539564,-0.10471281,-1.7723604,-0.15409511,-0.18758799,0.053249995999999994
-8.273624,0.16395493,-2.5054266,-0.46497315,-0.091245815,0.011728613
-9.540817,0.7212101,-2.9456439999999997,-0.72261864,-0.15671311,0.037803832
-10.463198,0.79712546,-2.8184257,-0.69280845,-0.17055358,0.012252212
-10.769052,-0.18786822,-1.9341893000000001,-0.5634621,-0.10402162400000001,-0.04841543400000001
-12.210285,-0.23115538,-0.9549513000000001,-0.42823398,0.04288274,-0.10323623
-14.38287,-0.9706667999999999,-0.37631103,-0.3058166,0.036494836,-0.1319818
-16.091054999999997,-2.1568885,1.7583591,-0.15250687,-0.026302112000000002,-0.14104006
-13.995306,-2.0895156999999998,4.162712600000001,0.0646819,0.04288274,-0.15966272
-9.885189,2.0594919999999997,4.1670313,0.28506464,0.066305056,-0.15859807
-8.767672,4.4127817,1.259149,0.45008552,0.059917152,-0.08407251
-9.840936,3.8339980000000002,-0.7408905,0.5091649,-0.040142573,0.055902895
-10.391994,1.3371233,-0.71773374,0.50223595,-0.027890362000000002,0.15917403
-10.226469,-0.44011173,-0.3992571,0.48254862,0.17650515,0.2400875
-9.510449000000001,-1.2710816999999999,-0.018598158,0.49425977,0.26752406,0.3071605
-8.583021,-1.5662388999999999,0.28006414,0.56238,0.34046137,0.3284535
-7.6768546,-1.7715178,0.42049843,0.49745375,0.21748547,0.27415633
-7.0011152999999995,-1.8270824,0.039255332000000004,0.32283354,0.07269296,0.15224507
-6.85187,-1.8888049,-0.46139140000000006,0.19668116,0.06736971,0.04897394
-7.6229944000000005,-2.1693575000000003,-0.72155493,0.2046573,-0.032166417999999995,-0.086219266
-8.892677,-1.841304,-1.0580074,0.27014205,-0.50059533,-0.3161664
-9.403294,-0.9578530999999999,-1.2404933999999999,0.34253833,-1.0526255,-0.54827774
-8.569182000000001,-0.16281529,-1.2091964,0.34253833,-0.7800749,-0.5211204
-7.8397179999999995,0.37643555,-1.4794155,0.17325884,-0.13116150000000001,-0.32309535
-7.9518147,0.20555659,-1.878414,0.28824112,0.15147713,-0.2065248
-8.994958,-0.37319857,-2.5420964,0.5682443,0.23026128,-0.15062192
-10.432791,-1.0582563999999999,-3.2341166,0.7236659000000001,-0.03429572,-0.07185520000000001
-10.891855,-0.58796805,-3.5984662000000003,0.65339893,-0.16577137,0.034068827
-11.013634,1.0688195,-3.215681,0.5991192,-0.10721557599999999,0.13575171
-12.617386,1.4660273000000001,-1.8989084999999999,0.5437573,-0.045465827,0.17353809
-14.987703,2.6775603,0.2184757,0.5059535,-0.057176985,0.14957471
-15.961942,4.393436400000001,1.6135195,0.42929864,-0.13967870000000002,0.114458695
-10.9508295,1.3435876,3.2128177000000004,0.26373670000000005,-0.23177972,0.10060078
-9.058107000000001,-2.551951,3.6058402000000003,0.052953288,-0.25307274,0.09262462
-9.449205000000001,-2.766347,2.5836022,-0.16210619,-0.32014576,0.07185520000000001
-10.994586,-1.5281901000000002,1.6224452,-0.31913346,-0.45216244,0.02289872
-11.88905,0.04721366,0.31740412,-0.41921064,-0.42715190000000003,-0.034592427
-10.646594,1.2087846000000002,-0.34385526,-0.48895398,-0.19451694,-0.081437066
-9.366625,1.696062,-0.110545084,-0.58690184,0.07269296,-0.10218903
-8.133688000000001,1.4738226,-0.048487373,-0.6640978,0.28881708,-0.10325368
-7.373278999999999,0.94294196,-0.103764705,-0.6566278,0.43306854,-0.081437066
-7.156556,0.7178486999999999,-0.63421446,-0.49001864,0.53846896,-0.03991568
-7.2406692999999995,1.2055571000000003,-1.2546861,-0.25527185,0.49907690000000005,-0.045779984
-7.660679300000001,1.9679380000000002,-1.633219,-0.15517722,0.34630823,-0.061732296
-8.443603,2.5916946,-1.4786303,-0.14346607,0.31595695,-0.00052359875
-8.815872,2.642356,-1.1007774,-0.27762952,0.30211648,0.16128588
-8.493803999999999,2.0442843,-0.60577136,-0.32712707,0.32182127,0.41999602
-7.857157000000001,1.3145412,-0.65043753,-0.35054937,-0.13969615,0.45832345
-7.7615229999999995,0.84790176,-1.3556545,-0.22066198,-0.3361155,0.26616272
-8.361155499999999,0.99428326,-2.0814135,-0.23397884,-0.14554301,0.109117985
-9.638252,1.1722682,-2.2524552000000004,-0.44477970000000006,-0.017261306,0.10218903
-10.84492,0.3906571,-1.838814,-0.5059884,-0.08272861,0.050562188
-10.959583,-0.7704254,-2.0760984000000002,-0.40591124,-0.12424999,-0.039374627
-11.220311,-0.15985607,-1.7531397000000002,-0.26857126,-0.049200833,-0.12243485
-12.552187,0.35552940000000005,-1.2998505,-0.19671606,-0.0066147977,-0.14159857
-14.493414999999999,-0.38610813,0.7504769,-0.12112585,-0.03642502,-0.10646509
-15.886946,-0.93676496,3.0976756,0.039636426,-0.0066147977,-0.073984504
-13.333175,-0.9649015999999999,3.8201404,0.2536138,0.080145516,-0.073984504
-9.2047,2.1524447999999996,3.208441,0.47132617,0.10941469,-0.075049154
-8.696458999999999,3.241366,0.8508226999999999,0.6070779000000001,0.053529248,-0.017558011999999998
-9.497501,2.498742,-0.34374990000000005,0.62465334,-0.012461651,0.059079394
-9.733272999999999,0.8530349,0.040117245,0.5889788,0.01839577,0.09740683
-9.638357000000001,-0.6533968000000001,0.24188142,0.50541246,0.17968164,0.1309346
-9.143667,-1.2834454,0.56967634,0.4681322,0.3404439,0.18470820000000002
-8.347192999999999,-1.6157603999999999,0.55678594,0.512324,0.42826888,0.21610667
-7.568684599999999,-1.8505743000000001,0.700055,0.52509975,0.312763,0.21451841
-7.245908,-2.066694,0.5179233,0.44205698,0.18765779999999999,0.15383331
-7.652472,-2.2025316000000004,0.19602767,0.33665657,0.34576717,0.09047787
-8.651016,-2.1366432,-0.13830824,0.30736995,0.41816345,0.046827182
-9.498631,-1.3757753000000001,-0.94942546,0.32175145,0.33457962,-0.03832743
-9.419,-0.21225077,-1.3843563,0.29513517,-0.38243654,-0.28585002
-8.685311,0.33052433,-1.8129662,0.42076397,-0.8966629,-0.49612728
-8.126716,0.35256058,-2.0073081999999998,0.42715190000000003,-0.8546179,-0.53178436
-8.086828,0.36048058,-1.8892453999999999,0.21315706,-0.44153339999999996,-0.30607840000000003
-8.865527,-0.12332054,-1.6620548,0.2647839,0.077998765,-0.12721705
-9.932106,-1.0565995000000001,-2.0266438,0.43034583,0.11313224,-0.034068827
-10.455747,-1.3056923,-3.0105076,0.42235222,-0.16898277,0.0015882496
-10.417517,0.42204030000000003,-3.841219,0.25946066,-0.13863151,0.073967054
-11.233767,1.0315561,-3.3116790000000003,0.12904964,-0.05932374,0.17617354
-12.496995,0.9282031999999999,-2.16025,0.061435588,-0.08539896,0.22568853
-14.825577,1.2924954,0.21189642,0.02310816,-0.16311847,0.21184807
-15.551728,3.0392764,2.1165700000000003,-0.083339475,-0.29993483,0.17510888
-11.274296000000001,1.5318676000000002,2.9138488999999996,-0.27232373,-0.396277,0.14849262
-10.288393,-1.6089419,3.063764,-0.5315575,-0.4154407,0.12508775
-10.330588,-1.4944031999999998,2.2392585,-0.7263885999999999,-0.4351455,0.101124376
-11.103646000000001,-0.37760392,1.1584775,-0.79292053,-0.47186720000000004,0.049480084
-10.292952,0.0014173675,0.029745562000000003,-0.7200006999999999,-0.29567623,-0.005846853000000001
-9.299061,0.49549443,-0.30522242,-0.6188588,-0.021519909,-0.044715334
-8.797753,1.1250066,-0.38819587,-0.5310339,0.08545132,-0.07719591
-7.9552526,1.5510309,-0.21874385,-0.49323004,0.06895796,-0.1229759
-7.356338,1.7334403000000003,-0.15082513,-0.51719344,0.06682865,-0.16927949
-7.148981,2.0267011999999998,-0.5580404999999999,-0.55126226,0.15519467,-0.17460273
-7.434742999999999,2.2386649,-1.0024331,-0.48897144,0.30370474,-0.18046704
-8.064945,2.3414526,-1.2971882,-0.42776275,0.39420006,-0.21772982
-8.77858,1.9284432,-1.2082962,-0.3681423,0.46394342,-0.15172148
-8.755614999999999,1.0938341999999999,-0.90108174,-0.40114647,0.42081633,0.10058332
-8.116928,0.11349474,-0.39704484,-0.3596251,0.23663174,0.46788788
-7.756036,-0.44473734,-0.40712919999999997,-0.2558129,-0.34039158,0.5945813
-8.048252,-0.7813142,-0.9552673,-0.09611528,-0.5804616,0.32735395
-8.579383,-0.26752812,-1.6197157,-0.15573573,-0.31164598,0.09206612
-9.510142,0.7451043,-2.2201817000000004,-0.39475858,-0.10988593,0.09632472
-10.2466955,1.4765424999999999,-2.2124915,-0.45757297,-0.066235244,0.08620181
-10.477400999999999,0.529109,-1.8055921000000001,-0.38463566,-0.0752935,0.022340214
-10.815251,-0.19130629999999998,-1.6992033,-0.25422466,-0.0667763,-0.075607665
-12.372564,-0.27869463,-1.3427545,-0.1802227,0.031154128,-0.16236798
-14.319797,-0.94833374,-0.4720312,-0.14775957,0.005078908,-0.1990897
-16.048496,-2.2601169999999997,2.3698096,-0.054070299999999995,0.026895522999999998,-0.21453588
-14.143889999999999,-1.8734053,4.062635,0.12051498,0.13177235,-0.20123646
-9.772144,2.7374728,4.725388,0.31588715,0.18233454,-0.16130333
-9.236007,4.163660500000001,2.3637762,0.46919686,0.14348352,-0.06867871
-9.971764,3.1752572,0.417702,0.5208237,0.050317843,0.027122416
-10.227503,1.5105785,0.33530316,0.4638736,-0.0018325957,0.073967054
-9.989385,0.076681495,0.011530476000000001,0.38028979999999996,0.18394025,0.09367182
-9.221314999999999,-0.9343229,0.45859498,0.31374037,0.37290704,0.14582226
-8.308665,-1.3026563999999998,0.72845984,0.30628783,0.460732,0.17137387
-7.324839999999999,-1.6412636000000003,0.77080846,0.28872982,0.40271726,0.12826425
-6.675886599999999,-1.8032361000000001,0.496816,0.1444609,0.29145253,0.04893903
-6.900980000000001,-1.8589442999999999,-0.062402472,-0.009896017,0.30583405,-0.046862092
-7.899017,-1.8538303,-0.38369477,0.006073746,0.22120303,-0.14639822
-8.927289,-1.4560481,-0.8792179,0.13861404,-0.22275637,-0.36571628
-9.262678,-0.74533415,-1.1792401000000001,0.18280579,-0.7944564000000001,-0.65849525
-8.868094000000001,-0.21135056,-1.6916183999999999,0.12636183,-0.5469338,-0.5589590999999999
-8.303187,0.095212616,-1.6316581000000001,-0.14508922,-0.027907815,-0.23902284
-7.9109305999999995,0.23333889,-1.921864,0.02628466,0.03913028,0.0063529983
-8.130507000000001,0.31810322,-2.0358471999999996,0.42181116,0.2675066,0.03457497
-9.340605,-0.6168421,-2.020955,0.660293,-0.15140732,-0.058032195999999994
-10.743559,-1.4869333999999998,-2.6679928,0.5974611,-0.37606609999999996,-0.05857325
-11.801739,-0.47045106,-3.0133229999999998,0.4324577,-0.19294615,0.05799729
-13.620460000000001,0.97466034,-1.3665528,0.34728559999999997,-0.029513517000000003,0.15275122
-16.100929999999998,2.6343495999999997,0.3662554,0.35047957,0.005078908,0.17030923
-17.523726999999997,4.515512,0.8296674999999999,0.39465386,-0.087545715,0.14741051
-12.35705,1.2544563,1.8784906000000003,0.3387684,-0.20518091,0.11974704
-9.693472,-3.149515,2.8157919999999996,0.20566959999999998,-0.30260518,0.100042276
-9.206491,-3.3725300000000002,3.441464,0.017767452,-0.37871900000000003,0.078749254
-9.593192,-1.4851617,2.3631346,-0.14456563,-0.4516563,0.037227873
-10.873669,0.55987924,0.88382435,-0.25050712,-0.40107667,-0.03673918
-10.234992,1.0628628,0.6000827,-0.31970942,-0.21902137,-0.114458695
-9.179464999999999,1.2063615,0.7178966,-0.39104099999999997,0.044453535,-0.17301449
-8.416835,1.1521376,0.75284237,-0.44853216,0.20840977,-0.19697785
-7.884460400000001,0.95220274,0.6583479999999999,-0.50762904,0.2701595,-0.21135937
-7.5469933000000005,0.67782724,0.16513288,-0.5400921,0.27867672,-0.20549506
-7.5332503,0.9492627,-0.68052787,-0.50708795,0.34522614,-0.13948672
-7.7912974,1.6355941,-1.0310773000000002,-0.4304331,0.45701447,-0.03621558
-8.308541,2.2056441,-1.0785782,-0.39210567,0.45914376,0.06436774
-8.657194,2.2863189999999998,-0.80871344,-0.3548429,0.48096037,0.24003513
-8.652003,1.8686458,-0.57996184,-0.29894,0.48682470000000005,0.5674239999999999
-8.081877,1.2260611000000001,-0.8034749,-0.07483972,0.19404571,0.8149466
-7.631153599999999,0.7592300999999999,-0.89655197,0.14604916,-0.061994094000000007,0.46734682
-7.535443300000001,0.5909369000000001,-1.1810021000000002,0.059288833,-0.13013175,0.14315191
-8.016668,0.6887734999999999,-1.6934093000000001,-0.3175801,-0.10564478,0.064908795
-9.238104,1.1602876,-1.9405005000000002,-0.68062603,0.01144936,0.13463470000000002
-10.441153,0.85883844,-1.8508903,-0.7306646,0.0008028514599999999,0.13730505
-11.315917,-0.2496482,-2.003516,-0.5928011,-0.08487536,0.04946263
-12.263235,-0.4551952,-1.3620517,-0.45437902,0.018901916,-0.0596379
-13.902248,-0.8223604,-0.5361959,-0.35164893,0.08651597,-0.16184439
-16.028921,-2.6661544,1.3959727,-0.26328292,-0.01993166,-0.21987657
-14.294073000000001,-3.1724036,4.206296400000001,-0.13604842,-0.017802358,-0.21720622
-9.508898,2.0162435000000003,4.416593,0.031084314,0.05989969999999999,-0.19271925
-9.171421,4.1771063999999996,2.3929853,0.2163161,0.048712137999999995,-0.15865043
-10.302480000000001,3.532951,0.18234241,0.40636500000000003,-0.03324852,-0.061243605
-10.478186,1.9134171999999998,-0.53912634,0.50590116,-0.102450825,0.03403392
-10.349024,0.46595952,0.022036232000000003,0.53253484,-0.029513517000000003,0.09098402
-9.802686,-0.65163463,0.004223372,0.515483,0.107808985,0.11227703
-8.9843855,-1.126673,0.26214594,0.46544442,0.15943582,0.15219271
-8.153626,-1.3586998,0.35057816,0.43776348,0.23502603,0.18202038
-7.305102000000001,-1.6396354,0.33136709999999997,0.40369466,0.19511035,0.16763887
-6.8567924,-1.728336,0.07570466,0.32119295,0.063093655,0.13357005
-7.2619586,-1.6205106000000002,-0.2543121,0.23867378,0.097686075,0.07288495
-8.357182,-1.4814171,-0.43271846,0.24825563,0.16688839,-0.002687807
-9.523972,-1.477778,-0.5423154,0.27965412,0.067875855,-0.15653858
-9.622805,-1.3486538000000001,-0.6149747,0.26796040000000004,-0.35583773,-0.45888197
-8.962991,-0.9146521000000001,-1.0261644,0.16468927,-0.7997970999999999,-0.5653471
-8.187978999999999,-0.18653704,-1.6422595000000002,-0.09028588,-0.49050733,-0.33272958
-7.8064860000000005,0.2591867,-2.0454144,-0.25211279999999997,-0.019949114,-0.005881759300000001
-8.206749,0.44496715,-2.3549368,0.05129523,0.1274963,0.088854715
-9.473349,-0.035185188,-2.681324,0.51228905,0.18659315,-0.005358161
-10.714042999999998,-0.9343995,-2.7806257999999997,0.6751805999999999,-0.23712043,-0.06283186
-11.355756,-0.94552773,-2.8703990000000004,0.6240774,-0.34997340000000005,-1.7453292e-05
-11.902295,-0.46550944,-2.5249922000000002,0.5043129,-0.26427776,0.13091715
-13.455614,-0.008983045,-1.4136708,0.43936917,-0.13226105,0.23471187
-16.008312,2.5521233,-0.053582232,0.4068886,-0.029513517000000003,0.24855234
-16.364513,5.783807299999999,0.46724284,0.40849432,-0.036442474,0.21608922
-11.462222,0.34667084,1.3568323999999998,0.34674457,-0.117355935,0.17402677
-9.912752000000001,-2.8324363,3.0029898,0.21844539999999998,-0.2003987,0.11227703
-9.793339,-2.6454014999999997,3.4916847,0.06140068,-0.33986795,0.06010914
-10.183401,-1.1190978,1.9676794999999998,-0.07590437,-0.48944268,-0.0048171086
-10.825277,-0.23332931,0.78434044,-0.16427039,-0.49902454,-0.08199557
-9.795838,0.50158525,0.6131741999999999,-0.27447048,-0.3137753,-0.16077973
-9.089893,0.94884133,0.415959,-0.42032763,-0.08541641400000001,-0.18687241
-8.377130000000001,1.0201885,0.33837733,-0.5571265000000001,0.08916887,-0.20497146
-7.629315400000001,1.0986704,0.087512866,-0.6252641999999999,0.20415117,-0.21083577
-7.2772527,0.98086613,-0.20611203,-0.5512796999999999,0.19776326,-0.18741345
-7.1463470000000004,1.1271423,-0.7023439,-0.32237977,0.2573837,-0.16345008
-7.365751700000001,1.644041,-0.9061478999999999,-0.10199704,0.35000834,-0.14109242
-7.9588339999999995,2.041641,-0.9971084000000001,-0.027488936000000002,0.35426694,-0.119816855
-8.263682000000001,2.0593102,-0.7367246000000001,-0.099326685,0.43624505,-0.025045475
-8.076312,1.9153327000000002,-0.43014228,-0.27021188,0.40378192,0.17348573
-7.826827000000001,1.6509553,-0.50645983,-0.35325465,0.29358184,0.4343252
-7.885763000000001,0.9928946,-1.034726,-0.31333897,0.081716314,0.5956285
-7.9628176999999996,0.54822433,-1.7005727,-0.1823869,-0.060929444000000006,0.51098007
-8.629134,0.3679505,-2.1543696,-0.1845162,-0.22382103,0.29804987
-9.690435,0.9561867000000001,-1.2786761999999998,-0.4176573,-0.24670228,0.21235421
-10.889998,0.29135520000000004,-0.6695241999999999,-0.67532027,-0.17591174,0.17987363
-11.468226,-1.0812024,-1.540257,-0.68062603,-0.15994197,0.12239994
-11.738866999999999,-0.26494235,-2.4415686,-0.5299866999999999,-0.14343116,0.024975661
-12.382974,1.0412766,-2.6805767999999994,-0.35112533,-0.06518805,-0.06817256
-13.9918,0.47235686,-1.5022753,-0.21486749,-0.052412238,-0.13311626
-15.168407,-0.8720735999999999,2.2399577999999996,-0.13713051,-0.10831513,-0.14960963
-13.850812,-1.5656164,4.073045,-0.05729916,-0.08915142,-0.15814428
-10.252738,0.9347538000000001,4.6014447,0.059812434000000005,-0.063582346,-0.16399114
-9.255888,2.6483893,2.9093668,0.20886356,-0.09019861,-0.15119787
-9.509769,2.9123068,1.0346878000000002,0.34885642,-0.21636847,-0.050073497
-9.548584,1.911837,0.2370547,0.44947463,-0.23979078,0.04733333
-9.862607,0.29377815,0.8143638000000001,0.51068336,-0.068382,0.0766025
-9.76047,-0.9152075000000001,0.87944776,0.52719414,0.14985397,0.10908308
-9.333767,-1.232401,0.87555957,0.54422855,0.28932324,0.18999654
-8.591469,-1.2595798999999999,0.72345114,0.5415582,0.34414402,0.23897047
-7.6618857,-1.1406264,0.51208144,0.5128126000000001,0.29784045,0.21287781
-7.291148700000001,-1.0518782,0.10415735,0.40421826,0.26748917,0.133029
-7.6660805,-1.1884816999999999,0.042128373,0.25197318,0.39737657,0.0004886922000000001
-8.580274000000001,-1.5078394,-0.12088803,0.13273229,0.52248174,-0.085730575
-9.246062,-1.5277497,-0.09475293,0.11409217,0.44102725,-0.14695673
-8.917597,-1.1452041000000002,-0.039245754,0.10346312,0.0109083075,-0.3811799
-8.202075,-0.8124675,-0.3001563,0.21099286,-0.6544810000000001,-0.7884001
-7.975239299999999,-0.44124179999999996,-0.63658947,0.17479472,-1.193718,-0.9859015999999999
-7.921838799999999,-0.21849485,-1.2549447,0.14285520000000002,-0.6768387,-0.7820121999999999
-8.33094,-0.46595952,-1.9433066000000003,-0.011519173,-0.06944665,-0.5153259
-9.38165,-0.8684248999999999,-2.3396904,0.14072590000000001,0.15517722,-0.2816263
-10.312449,-0.7244663,-2.6544514,0.33129840000000005,0.08916887,-0.0564614
-10.268013,0.47606307,-3.3028489999999997,0.38238418,0.022095867999999998,0.13887584
-10.054805,0.8983906999999999,-3.3556269999999997,0.32063442,-0.18284069,0.25494024
-11.044386,0.33786976,-1.9592613999999997,0.29775316,-0.21423917,0.34543556
-13.136229,0.89926213,-0.37187698,0.30733502,-0.18868755,0.33691835
-15.495407,3.3028873999999995,1.6462436000000003,0.2732662,-0.23500858,0.26345745
-14.835076999999998,3.1050882,4.0496870000000005,0.123691484,-0.29941124,0.19264944
-11.494955000000001,0.71274424,4.622418,-0.1131846,-0.33402112,0.16177456
-10.448584,-1.3372382999999999,3.5664985000000002,-0.37615335,-0.36648422,0.16390386
-11.122255000000001,-2.4375176,2.9038217,-0.57789594,-0.4410098,0.104824476
-11.319460000000001,-1.9748429,1.4703655,-0.66308546,-0.46656140000000007,0.03986332
-10.939558,-0.9872921999999998,0.42165723,-0.60398865,-0.22542672,-0.0064228117
-9.839642999999999,0.29005274,0.18640298,-0.52946305,0.047647487,-0.059655353
-8.635425999999999,0.9632544,0.5038645,-0.50977576,0.16156512,-0.10917035
-7.348532700000001,1.2539966999999999,0.83825785,-0.5065644,0.2573837,-0.10756464
-6.810517999999999,1.5480908000000002,0.49514008,-0.45600218,0.3398854,-0.058590703
-6.970162400000001,2.0627866000000004,-0.33430716,-0.3053628,0.44741514,-0.015463616999999999
-7.713495699999999,2.6608102000000002,-0.94361234,-0.12754866,0.5198114,-0.01972222
-8.609616,2.7005063999999996,-1.0218644000000001,-0.029077185,0.46605527,-0.021327923999999998
-8.781032000000002,2.1255817,-0.56982,-0.017366026,0.45806167,0.045727625
-8.674547,0.84736544,-0.32394508,-0.09243264,0.46605527,0.22458896
-8.137135,0.1355214,0.06290047,-0.11477285,0.39365903,0.51684433
-7.801736,0.022744916,-0.29032090000000005,-0.07911578,0.1881814,0.66854835
-7.998549000000001,0.17022774,-1.1850532,-0.012042772,-0.02953097,0.5418549
-8.970499,0.63703,-1.6584634999999999,-0.071663216,-0.21530381,0.34170055
-10.438796,0.7218422,-1.7882484,-0.29258698,-0.22223277,0.2623928
-11.160264999999999,-0.21959618,-1.5218791999999999,-0.47144833,-0.04283038,0.15803957
-10.91688,-1.020744,-1.8313728999999999,-0.42727405,0.046041787,0.018046705
-11.144941000000001,0.13747507,-1.5948256,-0.26330036,0.021554817,-0.08840092
-11.9042015,0.5962710999999999,-1.2687066999999999,-0.070598565,0.045518185999999995,-0.20231856
-13.469147,-0.63608193,0.18918982,0.017208947,-0.011955505,-0.26035076
-14.369462,-1.4722426000000002,3.2534327999999997,0.06618288,-0.0018500489999999999,-0.24970426
-12.742105,-0.8011861,4.7099314,0.17638297,0.13227850000000002,-0.23479915
-9.955848,1.613644,4.3921056,0.34618604,0.18870499999999998,-0.21457078
-9.490414,2.8974917000000002,2.5018642000000004,0.56389844,0.12534955,-0.13259266
-9.896011,2.7766035,0.6583767,0.71616095,0.035395276,0.02815216
-9.824549000000001,1.8747938999999998,0.41370848,0.73958325,-0.011955505,0.099483766
-10.115644999999999,0.5613254,0.46104664,0.65652305,0.14666001,0.113324225
-9.778667,-0.6346166999999999,0.5636717,0.5314353,0.32178634,0.13035864
-8.95192,-1.1163492,0.5337059000000001,0.43935174,0.43305108,0.17774433
-7.9121947,-1.3512393999999999,0.61868083,0.44039893,0.46392596,0.20223129999999997
-6.988646000000001,-1.5840325000000002,0.7275309,0.43189920000000004,0.31539845,0.16123351
-7.017558599999999,-1.8832121,0.4403416,0.2604904,0.15943582,0.05263913
-7.8731313,-2.1056142,0.31550792,0.08749335,0.3143338,-0.0522028
-8.950886,-1.9570493000000002,-0.12580094,0.050754175,0.43305108,-0.119816855
-9.093255000000001,-1.2153159,-0.51502156,0.09546951,0.56985,-0.13789846
-8.493871,-0.27433723,-1.1709753,0.076846845,0.30742228,-0.25980970000000003
-8.213845,0.04976109,-1.4064497999999999,0.10876892,-0.6816209,-0.6233966999999999
-8.019829,0.47363055,-1.8261343,0.33393383,-1.4966198,-0.88263047
-8.405219,0.667513,-2.1183512,0.47342056,-1.4364583,-0.8836951
-9.272006,0.47409025,-2.3598017999999996,0.22907446,-0.3888419,-0.5680348000000001
-10.280272,-0.52954954,-2.9388153999999997,0.17955947,0.3957883,-0.23214625
-10.865472,-1.067134,-3.5113934999999996,0.2865656,0.54642767,0.10108947
-10.588894,0.14664006,-4.186405000000001,0.3211755,0.49693015,0.36299357
-10.326575,0.23939143,-4.0509415,0.28817132,0.23928463,0.44923028
-10.001097999999999,-0.24813507,-3.3440964,0.23013912,0.054558992,0.37522835
-11.49214,-0.48790959999999994,-1.3137271000000001,0.20245819,-0.1328021,0.23310618
-14.662196,0.5135467,2.4121007999999997,0.114633225,-0.27918285,0.11705923
-16.853447,6.4507933,4.2286005,-0.081786126,-0.34625587,0.0813847
-12.457644,3.3244736000000006,4.4709706,-0.38627627,-0.36596063,0.11758283
-10.036005000000001,-2.1263766,4.144689,-0.6843785,-0.34147367,0.17242108
-10.445414,-3.9860108,2.7703116000000003,-0.9164724,-0.46816713,0.14952235
-10.917388,-3.4460032,1.3153361000000001,-0.9473473,-0.4298397,0.08724901
-10.692083,-1.5890507999999999,-0.34375948,-0.85898125,-0.081698865,0.0020769418
-10.132817,0.78883195,-1.0019064,-0.7386756999999999,0.15250687,-0.05009095
-9.037163,2.0223248,-1.2224315000000001,-0.5832366999999999,0.24993114,-0.07562511400000001
-7.855232000000001,2.5849907,-0.66124976,-0.5007175,0.23022638,-0.0559378
-7.085103500000001,2.9047794,-0.61530024,-0.4815538,0.23076743,-0.0021642083
-7.050119400000001,3.0700657000000002,-1.1078068,-0.3783001,0.27281243,-0.035185836
-7.627927000000001,3.0919967,-1.4298459,-0.33995524,0.27174777,-0.09852383
-8.420407,2.6437063,-1.1862313,-0.38840556,0.24567254,-0.03996804
-8.449434,1.6383809999999999,-0.82013863,-0.48315948,0.37023670000000003,0.29166198
-7.781864,0.5478795,-0.20448397,-0.44270277,0.3963119,0.7569144
-7.0928226,-0.13476484,-0.13101071,-0.24520129999999998,-0.10405653,0.87774354
-7.178975599999999,-0.7517698,-0.73933905,-0.03281219,-0.24511404,0.45987680000000003
-8.110483,-0.69737345,-1.6484078000000002,-0.08604473,-0.07583456,0.22830652
-9.704207,0.050067547999999996,-2.5780764,-0.35805428,0.12856095,0.17188002
-10.968374,0.36524984,-2.9367566000000003,-0.52148694,0.059341196,0.12981759
-11.019926,-0.29983065,-2.4250197,-0.46239007,-0.044436082,0.008988446
-11.126525,-0.08407478,-2.2811186,-0.34314920000000004,-0.023143066,-0.096918136
-12.169813000000001,0.4455322,-1.5117469,-0.24680701,0.05030039,-0.15227997
-14.599936999999999,-0.50291646,0.19667888,-0.14833553,0.058294000000000006,-0.15973254
-16.732004,-2.752154,4.0050015,-0.014172073,0.08703957,-0.1293987
-13.66869,-2.3737361,6.170346299999999,0.19181168,0.18285814,-0.124599054
-9.035736,2.105911,4.506069,0.41112974,0.21638592,-0.11449360000000001
-9.445853,4.1829004,1.9410942999999998,0.60754913,0.16847663,-0.050614547
-10.47448,3.5531678,0.48711473,0.7140141999999999,-0.0045204028,0.05263913
-10.583347999999999,1.8446653999999998,0.099244446,0.7156199000000001,0.05084144,0.121300384
-10.154192,0.50469774,-0.07733272,0.64161795,0.22118558,0.16283922
-9.46607,-0.31229967,0.21226993,0.5953143,0.36543703,0.2054078
-8.440278999999999,-1.0732727,0.63984567,0.6591934,0.43889794,0.24001768
-7.2360435,-1.774113,1.0030459999999999,0.73426,0.33775613,0.23630013
-6.478125599999999,-2.130514,0.86146253,0.6320361,0.16634732,0.15432201
-6.525799,-2.3405142000000003,0.37618655,0.43135813,0.21692698,0.048921578
-7.495355,-2.5395392999999995,0.10826580000000001,0.3392571,0.3159395,-0.049549895999999996
-8.786739,-1.7741417000000002,-0.44287944,0.28921852,0.24087289,-0.19753636
-9.280271,-0.6094871000000001,-1.0548278,0.18648843,-0.11524409,-0.37639770000000006
-8.626922,0.11058339,-1.316878,0.20139354,-0.6768387,-0.5568473
-7.9868274,0.48494077,-1.7152060000000002,0.2913478,-1.0957700000000001,-0.65798914
-7.865843300000001,0.607093,-1.906771,0.31105259999999996,-0.9057386000000001,-0.6425604
-8.797293,0.46985730000000003,-2.1103451,0.23598596,-0.42238712,-0.46317548
-9.904171,-0.15449305,-3.0268936,0.20936969,-0.14664257,-0.27632052
-10.438068,-0.85987276,-3.6894169999999997,0.23385666,-0.19722220000000001,-0.111840695
-10.596794000000001,-0.0006895300500000001,-4.176771,0.17051867,-0.14292501,0.05742133
-10.914457,0.7381803000000001,-4.0258117,0.012950343000000001,-0.12747885,0.2075371
-11.925614,0.89161986,-3.2608452000000003,-0.043982297000000004,-0.12215559,0.30124384
-13.896195,1.8807029,-1.726047,-0.032288592000000005,-0.10725048,0.31506684
-15.057996,3.2358689999999997,0.84954894,-0.03600614,-0.19401079999999998,0.25225243
-13.500156,2.283762,3.3350942000000003,-0.16536994,-0.3691546,0.17720328
-11.782910000000001,-0.26614904,4.2396709999999995,-0.39426988,-0.53204614,0.13939945
-10.602694,-0.19321208,2.467292,-0.6577622,-0.6230825,0.15271631
-10.479287,-0.9070098,1.8586763,-0.8648456,-0.58847266,0.1383348
-10.619672999999999,-0.81314754,1.3632585,-0.9186017,-0.46284387,0.1383348
-10.401514,-0.11844595,0.46616066,-0.77593845,-0.1306728,0.11171853
-9.6446295,0.80536157,-0.3276513,-0.58751273,0.09234537,0.04145157
-8.612001,1.281281,0.0027198129999999997,-0.472513,0.060946897,-0.07138397
-7.5259146999999995,1.4286298000000002,0.3317406,-0.40065777,0.021031217999999997,-0.16133824
-6.944334,1.3318368999999999,0.19940826,-0.38468802,0.082780965,-0.22308798
-7.061362700000001,1.4845201000000001,-0.39367379999999996,-0.33730233,0.17592919,-0.25609216
-7.6298704,1.9745365000000001,-0.66006225,-0.22818434,0.30049333,-0.25183356
-8.391553,2.745498,-0.65204644,-0.15685274,0.34307936,-0.22415264
-8.880716,2.932859,-0.15956876,-0.07646287,0.40111157,-0.10278243599999999
-9.326652000000001,1.2498116000000001,0.17299543,-0.05729916,0.46179667,0.08084365
-8.869655999999999,-0.39607757,0.021241358,-0.026965337000000002,0.3963119,0.36564648
-8.273806,-0.76807904,-1.2050303999999998,0.032096606,0.09714503,0.64456755
-7.995513000000001,-0.4572255,-1.7513490000000003,0.14177309,-0.17699383,0.5716477
-8.010894,0.23208433,-1.8322921000000003,0.26527259999999997,-0.14929546,0.23043582
-8.694007000000001,1.1717223,-1.6121596,0.14018485,-0.14770721,0.08086111
-9.949928,1.4665635000000001,-0.9158299999999999,-0.13234831,-0.097668625,0.084578656
-11.041408,0.40064573,-1.1270657,-0.3335848,-0.038589227999999996,0.059550636
-11.473082000000002,-0.31886935,-1.4915015,-0.31602678,-0.08702212,0.005794493
-11.952334,0.29340464,-1.6040864,-0.22071433,-0.10725048,-0.062849306
-13.219920000000002,0.07060979,-0.7517889,-0.11107276,-0.038571775,-0.1192758
-15.318064999999999,-1.0114832,1.7868214,-0.006736971,-0.07318166,-0.13791592
-15.393931,-2.542173,4.113976,0.11780973,-0.072640605,-0.13791592
-11.027444000000001,-0.6196865,4.747635,0.28975955,0.05721189,-0.14378022
-8.248426,2.5005808,3.8595010000000003,0.45636868,0.14611897,-0.104911745
-8.719913,3.5305760000000004,1.8873683999999997,0.5782799,0.14186037,-0.028780478999999998
-9.210399,2.9601526000000002,0.06702807,0.5905147,0.0652055,0.04944518
-9.560373,1.8028051999999999,0.1227172,0.47820276,0.10407399,0.094701566
-9.846624,-0.023635559,0.40439980000000003,0.35362116,0.23022638,0.11758283
-9.379209,-0.9020203000000001,0.61395955,0.26420793,0.35426694,0.16549212
-8.776272,-1.2660826,0.7988876,0.24078563,0.37662458,0.21340140000000002
-7.948912599999999,-1.5842143999999998,0.9161748,0.29400072,0.32976252,0.21338396
-7.279944,-1.6753759999999998,0.7494043,0.2833542,0.24726079999999998,0.1420698
-7.417045599999999,-1.6813711999999998,0.36564250000000004,0.17743017,0.30527553,0.045186576
-8.545997999999999,-1.5637584,0.031804577,0.12526228,0.47774896,-0.02453933
-9.391945,-0.7623521,-0.40746439,0.23279202,0.48733082,-0.05806710599999999
-9.431277,0.13382629999999998,-1.2811469,0.29562387,0.24567254,-0.16399114
-8.940188000000001,0.70169264,-1.6327211000000001,0.30944687,-0.51927036,-0.4865978
-8.3138075,0.81263036,-1.7916577,0.345645,-1.1053518999999998,-0.7245385
-7.9409924,0.60262054,-1.8153987,0.324352,-0.90467393,-0.6718295999999999
-8.104095,0.2913073,-1.681534,0.21842796,-0.29356438,-0.4328242
-8.889671,-0.63141805,-1.5612972999999999,0.3036,0.20467477,-0.2401224
-9.906881,-1.7378552,-1.9033328,0.41430625,0.17858209,-0.07031932
-10.513638499999999,-1.3572346000000002,-2.7974236,0.3648087,0.07850491,0.07019714
-10.563255999999999,0.32829294,-3.3530697999999997,0.23865633,0.048171088,0.12822933
-11.308102,0.37344757,-2.5334195999999998,0.15294321,0.05030039,0.18730873
-12.682843,0.54342633,-1.1985373,0.12419763,-0.0055676005,0.1968906
-14.969306,1.6588371,0.86184555,0.10290461,-0.13226105,0.16123351
-15.574838,3.9207160000000005,2.7209814,0.009215338,-0.24778439,0.122382484
-11.4090805,1.0905397,3.6802807,-0.16111134,-0.31644565,0.108542025
-9.974714,-1.5178473,3.61806,-0.36658895,-0.38138935,0.123429686
-10.249031,-2.0617142,2.4771082000000004,-0.5529029000000001,-0.47455502,0.10533062
-11.035852,-1.3340492,1.0018777,-0.6151762,-0.47136107,0.059550636
-10.393556,-0.33213323,0.14135367,-0.55023247,-0.19402826,0.03080506
-9.545289,0.66851854,-0.08674672,-0.45921358,0.096621424,0.012182398
-8.86595,1.2259749,-0.028088775,-0.40437534,0.20680407,-0.014940018999999999
-8.062206,1.6304992,0.23341551,-0.37988836,0.23767893,-0.03890339
-7.550364500000001,1.8846294,0.010457873000000001,-0.39320523,0.18071139,-0.03996804
-7.4731746,2.1163976000000004,-0.59177,-0.33252013,0.13920747,-0.055414204
-7.889747,2.4534056,-0.9721608,-0.22019073,0.21319197,-0.11129965
-8.536928999999999,2.4422581,-1.0783101000000002,-0.17388715,0.27600637,-0.13472196
-8.786394,1.9223044999999999,-0.77307814,-0.23670155,0.27761206,-0.04796165
-8.466816,0.98378706,-0.115697406,-0.40119883,0.22436208,0.21498966
-7.845349000000001,0.14547169,0.28485253,-0.41875684,0.23235568,0.58283526
-7.762002000000001,-0.5722333000000001,-0.19672675,-0.41875684,-0.09021607,0.5902878
-8.116572999999999,-0.57137144,-1.2573965,-0.36445966,-0.31326914,0.28473303
-8.8434725,0.09076898,-2.370882,-0.41343358,-0.25949556,0.108524576
-9.962014,0.81181633,-2.7725909,-0.6258402,-0.09447467,0.09574876
-10.373175999999999,0.63126475,-1.992378,-0.7046069,-0.05454154,0.0861669
-10.543682,-0.4138138,-1.5414158000000002,-0.56567866,-0.017278758999999998,-0.0085695665
-11.314624,-0.14482047,-1.4050995000000002,-0.33464944,0.08702212,-0.09745918
-12.761383,0.33817622,-0.9380961,-0.18399261,0.09234537,-0.12674580000000002
-14.529001999999998,0.049301405,1.1213962,-0.075939275,0.09236282,-0.1272694
-15.529385999999999,-0.53045934,4.317004,0.13058554,0.22968532,-0.14004523
-12.648204,-0.13421895,4.8840375,0.36002649999999997,0.37608355,-0.17146115
-9.2253,2.6159337000000003,3.5182986000000005,0.5527283000000001,0.3169867,-0.110776044
-9.096625999999999,3.7357016000000005,1.6629168,0.6511998,0.16474162,0.0015358897
-9.8979645,2.5972299999999997,0.18672858,0.6373593000000001,0.08223991,0.0792554
-10.333949,0.7987153,0.09090305,0.6000966,0.18496999,0.13514084
-9.993943,-0.42923248,0.41310513,0.55379295,0.29942867,0.18730873
-9.764550999999999,-1.0839796,0.82010984,0.5447347,0.34307936,0.21179570000000003
-8.876684,-1.7637796000000001,1.0687428999999997,0.5963616,0.35212016,0.21766001
-7.6320733999999995,-2.3036914,1.1236084,0.54632294,0.22968532,0.17718582
-6.909493400000001,-2.5542686000000003,0.9489849,0.32489303,0.12376129599999999,0.0813847
-7.3220149999999995,-2.4185555,0.30213870000000004,0.14814354,0.28291786,-0.010157816
-8.410275,-1.8530164,-0.23740904,0.16252506,0.42559853,-0.06339036
-8.756716,-0.51637185,-0.6813898,0.22640412,0.34573227,-0.1182286
-8.5401945,0.15108371,-0.9395518,0.16571902,-0.23979078,-0.3694862
-8.275472,0.344449,-0.8752052,0.18914133,-0.85463536,-0.70537484
-7.697186,0.60992765,-1.2908386,0.26366690000000004,-0.8407949,-0.6729116999999999
-7.359575,0.69848436,-1.2817119,0.12259193,-0.31859240000000005,-0.50096184
-8.055234,0.21815965,-1.5648024,0.324352,0.08595747,-0.28963740000000004
-9.475455,-0.6786221,-2.1847186,0.60276693,0.12908456,-0.1272694
-10.854956,-0.7352115,-2.974202,0.63629466,-0.18496999,-0.026127578999999998
-11.168184,1.2402921999999998,-3.5827696,0.46595055,-0.2610838,0.0728675
-11.599658,2.022363,-3.329329,0.24771458,-0.20732766,0.15006341
-12.641404,1.3040928999999999,-2.5960520000000002,0.14496705,-0.16687092,0.20008455
-14.268676000000001,1.2105563,-1.2940756000000002,0.13857915,-0.17379989,0.2075371
-16.74381,2.7184630000000003,1.2473695,0.15613715,-0.26110125,0.21711896
-12.589402,2.8199098,2.2738595,0.10449286599999999,-0.33721507,0.23521802
-9.873727,-2.92559,3.8963620000000003,-0.021101031,-0.36117843,0.25918138
-9.84558,-3.2988748999999995,3.6088185,-0.19039796,-0.47455502,0.23521802
-10.350564,-1.4770501,2.0487087,-0.34529594,-0.6433109,0.1537635
-10.431067,-0.12903789,0.6417993000000001,-0.42408009999999996,-0.5826258000000001,0.052098077
-9.80417,0.88662076,0.115189835,-0.47146579999999993,-0.32391566,-0.0011170107000000001
-8.964179,1.5598415,0.018397043999999998,-0.46134287,-0.026337017999999997,-0.035185836
-8.449588,1.5337063999999998,0.30260795,-0.4368559,0.12109094,-0.080965824
-8.011505999999999,1.4480898000000002,0.49618393,-0.45177847,0.17645279,-0.12835151
-7.9960113,1.3330436,0.07109821599999999,-0.45601964,0.12908456,-0.15496778
-8.096654,1.6459945,-0.6409374,-0.40119883,0.12376129599999999,-0.15282103
-8.618379,2.0375997999999997,-0.9223423000000001,-0.27342328,0.23767893,-0.12674580000000002
-9.116114999999999,1.9087724999999998,-0.84928083,-0.19411552,0.36117843,-0.107041046
-9.06147,1.1404061,-0.54108,-0.20209168,0.5102295,0.0031241393
-8.594839,0.72369057,-0.38583037,-0.31229177,0.63107616,0.22670081
-8.354700999999999,0.4234098,-0.6078495,-0.24096015,0.69067913,0.49871036
-8.19994,0.30007964,-0.7328843,-0.08925614,0.38247144,0.6317917
-8.167618,-0.056665964000000006,-1.2483463,-0.01792453,-0.02687807,0.36245254
-8.5085335,-0.14496413,-1.8026136000000001,-0.06316347,-0.16847663,0.08297295
-9.280069000000001,0.9390345999999999,-1.3847678999999997,-0.3112271,-0.22862068,0.005253441
-10.232846,1.0148734000000001,-0.9998091,-0.63966316,-0.18444639999999998,0.0776497
-10.425512,-0.42950064,-0.8468292,-0.72696453,-0.14025466,0.13674654
-11.023709,-0.51088434,-1.0220942,-0.5869717,-0.10566223400000001,0.061156336
-12.16423,0.20784545,-1.7050738,-0.36393607,-0.058276545,-0.03996804
-13.539239000000002,0.6188437,-1.3184103,-0.19676842,-0.02846632,-0.14590952
-14.593339000000002,0.28380865,1.0649408999999999,-0.09936159,-0.09393362,-0.20870647
-14.022916,-1.6506393,3.1344986,0.032637656,-0.011431906,-0.244381
-9.8996315,0.71518636,3.1779196,0.18753563,0.09501573,-0.25130996
-8.378786,2.4817913,3.0057766,0.33871606,0.07850491,-0.20605357
-8.911802,2.9937767999999996,1.4275666,0.43987533,0.07531096,-0.08522443
-9.812147,2.2603657000000004,-0.24851814,0.41165337,-0.057752945,0.043057274000000006
-10.287214,1.2793465,-0.06773675,0.3461686,-0.11683234,0.078173295
-10.277905,-0.11724885,0.32870474,0.3083822,0.06627015,0.08990191
-9.794248,-0.8786815999999998,0.5513942,0.28283059999999993,0.23448499,0.13248794
-8.777823,-1.1169333000000001,0.70109886,0.38023743,0.3212453,0.18943803
-7.620686500000001,-1.549556,0.8030344,0.4606273,0.30527553,0.19369663
-7.025411599999999,-1.8279729999999998,0.42000043,0.35842082,0.14611897,0.11597713
-7.459681,-1.8364293999999999,-0.16214491,0.23863886,0.22703242,0.027611108
-8.618494,-1.6392331999999998,-0.38699874,0.26951376,0.33030355,-0.039985493
-9.585647,-0.929793,-1.0242108,0.38236672,0.27333602,-0.07936012
-9.557835,-0.12349292,-1.5247617,0.3658559,-0.19455186,-0.31944759999999994
-8.709177,0.45216894,-1.2310123,0.3413864,-0.6512871,-0.58028704
-7.842159700000001,0.64420307,-1.3385216,0.24769713,-0.8104610999999999,-0.6947458000000001
-7.452833999999999,0.40711004,-1.6565002,0.16304865,-0.5081003,-0.6021211
-7.952772,-0.27540982,-1.5721573999999998,0.15666075,-0.13599606,-0.44933500000000004
-9.253186999999999,-1.3030874,-1.7675049999999999,0.30199432,-0.002391101,-0.32422979999999996
-10.69037,-1.8949053,-1.9980667,0.39088395,-0.15144221,-0.16348499
-11.0647745,-0.40865192,-2.694425,0.32328734,-0.16154768,0.004712389
-11.660978,0.6043156999999999,-2.1681027000000004,0.23917992,-0.111509085,0.15482816
-12.744183,0.5553686,-1.5011166,0.21149899,-0.020490166,0.23628268
-14.031123000000001,1.3961643,-0.23685358,0.22479841,-0.003979351,0.24745278
-14.644411999999999,2.5267925,1.4098401000000003,0.19339994,-0.08330456,0.23521802
-13.109979000000001,2.3394413,2.6317353,0.057648227,-0.17592919,0.22031291
-10.313906,0.27894366,2.504852,-0.13929473,-0.29249972,0.19847885
-9.627191,-1.5495849,3.0617628,-0.38789943,-0.4255811,0.16708037
-10.385128,-2.0848613,2.3894900000000003,-0.55450857,-0.49000117,0.10478957
-10.768181,-1.1012658000000002,1.3129802,-0.6018768,-0.35904914,0.046233773
-10.36425,-0.068732746,0.8809992,-0.5667433000000001,-0.06892305,-0.015481071
-9.635349,0.79223174,0.88580674,-0.48104766,0.13121386,-0.05808456
-8.673034,1.2396698,1.1243075,-0.42516220000000005,0.21745057,-0.10332349
-8.123736,1.1739249,1.1134857,-0.36819467,0.24671975,-0.1288751
-7.85867,1.3199425,0.40872854,-0.27396435,0.22436208,-0.14058627
-7.926875999999999,1.9036106,-0.5252304,-0.11852531,0.23554963,-0.15016812
-8.225719999999999,2.3737457,-0.99875563,-0.00143117,0.27387705,-0.16242033
-8.597367,2.3088245,-1.0192116,0.050195668,0.31113985,-0.14857988
-8.62491,1.7600063000000001,-0.5192832000000001,0.0028099802,0.39044762,-0.044767695999999996
-8.302747,0.97639376,-0.2607956,-0.124930665,0.43357468,0.16599827
-7.962617,0.1823807,-0.19620004,-0.21275564,0.45912632,0.5194797999999999
-7.782792999999999,-0.43840706,-0.41936840000000003,-0.19891517,0.19722220000000001,0.7590262
-7.996777499999999,-0.5765237,-1.094763,-0.114807755,-0.08330456,0.5673891
-8.769597000000001,-0.18038873,-1.4378138999999999,-0.11267845,-0.2664245,0.31026718
-9.74261,0.2568308,-1.2105755,-0.27291712,-0.21638592,0.22668336
-10.331574,-0.32270008,-0.6738145999999999,-0.44963172,-0.018360863999999998,0.15591027
-10.600731,-1.0554407,-0.85010445,-0.42727405,0.06679375,0.07604399
-10.95919,-0.063963495,-1.0922252000000001,-0.2718525,0.0630762,-0.0037873646000000003
-11.567653,0.81780183,-1.1895926000000001,-0.06689847,0.11630874,-0.08683013
-13.248860999999998,0.16644489999999998,-0.010687716000000002,0.06403613,0.09553932400000001,-0.15550883
-15.171156,-0.774055,2.150836,0.1449496,0.07691666,-0.17732546
-13.940048,-1.7306056,4.2059517,0.24980898,0.17058848,-0.19277161
-9.93972,1.4862343,4.1236486,0.38501963,0.21903881,-0.19116591
-8.825659,3.2359266,2.828098,0.52129495,0.08435176,-0.14060372
-9.2191515,2.9895150000000004,0.7240449000000001,0.58889157,-0.0652055,-0.032009337
-9.618705,2.214761,0.23762931,0.55642843,-0.059341196,0.03345796
-10.192385,0.80821544,0.45634443,0.45848054,0.049759335999999994,0.06380924
-10.191226,-0.85764134,0.52268296,0.36212093,0.21797417,0.10850712
-9.604561,-1.4306216999999999,0.5838691999999999,0.29504790000000003,0.25523695,0.16919221
-8.521711,-1.5512033,0.41206127,0.2987829,0.26694809999999997,0.19741419
-7.5147004,-1.8196603,0.23882640000000002,0.26630235,0.15622441,0.16334537
-7.3009070000000005,-1.8796016,-0.21573673,0.10608111,-0.02953097,0.048363075
-8.042266999999999,-1.7930846999999999,-0.65485245,-0.091402896,0.06518805,-0.10918779999999999
-9.094317,-1.2298919,-1.0177559999999999,-0.17975146,0.23446754,-0.26623252
-9.207621000000001,-0.24015757,-0.9201108,-0.048799407,0.17964675,-0.30986574
-8.578396000000001,0.16726851,-0.93283844,0.12363912,-0.08597492,-0.52333695
-8.173986,0.25240633,-1.040702,0.26577875,-0.16847663,-0.6665412
-7.760096000000001,0.4505696,-1.2153447,0.23225096,-0.05242969,-0.516408
-7.715899,0.47273034,-1.5505809,0.19657643,-0.04337143,-0.30775392
-8.455544,0.16670348,-1.6130216,0.3903429,-0.022095867999999998,-0.21991149
-9.896558,-0.4039497,-1.8079671000000002,0.54949945,-0.14718361,-0.19596557
-11.218309,-0.24108653,-2.4377093,0.5335297,-0.41069344,-0.14964452
-11.531625,1.1905216,-3.1690707000000002,0.45209265,-0.3792775,-0.04691445
-11.924628,1.4786397,-3.0944293,0.36425019999999997,-0.301558,0.10266027
-13.035853,0.08358637,-1.2795379,0.34828046,-0.20467477,0.2123193
-14.544899,0.2294124,0.5829498000000001,0.37969637,-0.15624188,0.25862288
-14.179583,0.6082517,1.6479960999999999,0.41695917,-0.24354324,0.24319418
-11.679567,-1.0065701999999999,2.6200228,0.3860843,-0.32817426,0.18837339
-10.359644,-1.8351269000000001,2.7336228,0.29825932,-0.3728896,0.14578736
-9.877001,-0.6663255,2.6541736,0.13430308,-0.46019095,0.13514084
-10.237185499999999,0.20164925,1.5129727,-0.009424778,-0.53578115,0.11435397
-10.316403999999999,0.40630559999999993,0.97790694,-0.11534881,-0.4655142,0.0786969
-9.889681,0.20740491,1.0880306999999998,-0.13718288,-0.24780184,0.029199357999999998
-9.642225,0.19488801,0.86718947,-0.14196508,-0.012514011,-0.023492131
-9.18953,0.40512764,0.6043156999999999,-0.18774506,0.10405653,-0.084177226
-8.610325,0.5507813,0.44806048,-0.25216517,0.21423917,-0.12941617
-8.315263999999999,0.62062496,-0.029036878,-0.26919958,0.24139649,-0.13154547
-8.240067,1.0206099,-0.5032995,-0.16645205,0.21636847,-0.10067059
-8.548938,1.6857095000000002,-0.77741647,-0.02857104,0.22223277,-0.084177226
-9.011851,1.9554787,-0.8459194,0.023561945,0.18229964,-0.056496307
-8.978621,1.3622433,-0.46119985,0.016126841,0.23342033,0.011100293999999998
-8.498239,1.041267,-0.34280178,-0.102573,0.336674,0.1500285
-7.8961825,0.9097584000000001,-0.20451272,-0.17229891,0.39416516,0.37254053
-7.5750722999999995,0.5476018,-0.5633365,-0.17657496,0.35903168,0.60196406
-7.5092797000000004,0.32246065,-1.1739633,-0.14302973,0.08489282,0.58227676
-8.003356,0.24185267,-1.6408709,-0.1648638,-0.10088003,0.3384717
-9.373051,0.5883703,-1.5932167,-0.3203028,-0.14824827,0.20645499
-10.436086,0.3703447,-1.0772758999999998,-0.52258646,-0.09023352,0.20858429999999997
-10.977242,-0.82564527,-1.0508918,-0.58273053,-0.048171088,0.18942058
-11.484689,-0.5124549,-0.747556,-0.4752008,-0.08756317,0.087214105
-11.661189,0.7485615,-1.1159565,-0.2888869,-0.041259582999999996,-0.032532938
-12.577191000000001,0.5373259,-0.5117271,-0.111090206,0.113638386,-0.15657349
-13.930231,0.25703192,1.6350768999999998,-0.03817035,0.16313593,-0.21671753
-14.247492000000001,-0.4158441,3.119482,0.034225907,0.24832545,-0.22149974
-11.687947,0.05980716,3.3735068,0.117774814,0.319116,-0.20715313
-9.042086,1.6669581000000002,2.663463,0.19338249,0.24937265,-0.18212509999999998
-8.512757,2.4516148999999996,1.5190253,0.23277456,0.08115781,-0.086306535
-8.803374,2.2349777000000004,0.5005701,0.2151991,-0.08543386,0.028117253999999998
-9.813689,1.2022437,0.6243887,0.1438675,-0.082780965,0.08562585
-10.292472,-0.05695327,0.7898376,0.05284857,0.05721189,0.0888198
-9.955157,-0.85404044,0.97469866,-0.019547688,0.15196581,0.0813498
-9.352767,-1.1979819999999999,0.8198321,-0.10470230000000001,0.11896164,0.09946632
-8.399261,-1.5653675,0.6061736,-0.15049975,0.17271778,0.11648327
-7.653535400000001,-1.6902202000000002,0.16509457,-0.15899949,0.19881046,0.13405874
-7.639227,-1.4025521,-0.41478106,-0.18774506,0.15515977,0.13086478
-8.238152000000001,-0.52146673,-0.6771855999999999,-0.21863739,0.13651966,0.09944886
-8.889125,0.34983116,-0.7661158,-0.17283995,0.27652997,0.06539748599999999
-8.943225,0.7199939000000001,-0.46016556,-0.044034656,0.27811822,0.018011797
-8.918708,0.24868093,-0.27884787,0.10712831,0.33295646,-0.07087782
-8.823563,-0.27677929999999995,-0.8431421,0.20027652,0.12587315,-0.24281020000000003
-8.40564,0.27637708,-1.471553,0.22158699999999998,-0.2664245,-0.35033995
-8.223115,0.8784805,-1.7075734,0.15079644,-0.5421691,-0.43284166
-8.85598,0.5572457,-2.0663493,0.0916996,-0.5171585,-0.46371654
-10.080882,0.14545254,-2.4942603,0.060301125,-0.22170918,-0.39399064
-10.78881,-0.16508499,-2.7524316000000004,0.021973696,-0.0034557518,-0.30401890000000004
-10.720134,-0.09627564,-2.5721483,-0.024870941,0.03911283,-0.19703022
-10.561580000000001,-0.2702,-2.593428,-0.10950196,0.03324852,-0.06181956
-11.166672,-1.0190872,-1.9057751,-0.19254473,-0.032201323999999996,0.047298424000000006
-11.97211,-1.0975211999999999,-0.99307656,-0.23778366,0.039636426,0.13725269
-13.035853,0.05050808,-0.21400332,-0.2319368,0.11948524,0.18729128
-13.381854,1.60491,1.1819216000000001,-0.22928389999999998,0.09286897,0.17770943
-11.8026285,1.359217,2.5654256,-0.32723179999999996,0.010367256,0.12819444
-10.275243,0.49645209999999995,3.1889138,-0.4805415,-0.12004375,0.079220496
-9.278775999999999,0.16596606,2.6780584,-0.6460859999999999,-0.3100752,0.052604225
-9.682553,-0.959031,1.7749941000000002,-0.7648033000000001,-0.49586549999999996,0.023858652
-10.389456,-1.2517174,0.9571635000000001,-0.81962407,-0.51448816,-0.017104227
-10.760758000000001,-0.69340867,0.37837005,-0.801525,-0.30794588,-0.051714107
-10.204385,0.17120458,0.13305058,-0.73234016,-0.083845615,-0.06822492
-9.626778999999999,0.80067855,-0.012047622,-0.6652496999999999,0.062535144,-0.09536479
-8.973966,1.0649505,0.17863618,-0.6418274,0.14290756,-0.10814059999999999
-8.486114500000001,1.1185614,-0.24753173,-0.6418274,0.10831513,-0.08363618
-8.391571,1.1857906999999999,-0.86292773,-0.56836647,0.06731735,-0.005934119
-8.626433,1.4087005,-1.008342,-0.43528512,0.22169173,0.10266027
-9.018632,1.5327583999999999,-0.9150256,-0.36182420000000004,0.3734132,0.15481070000000002
-8.976417999999999,1.3899202,-0.6653199000000001,-0.32829642,0.28930578,0.14044665
-8.533807000000001,1.2244713,-0.5394901999999999,-0.39802232,0.32283354,0.18622664
-8.119572,0.7364564,-0.37107253,-0.44113198,0.45432666,0.29588565
-7.979798,0.09071152,-0.62600714,-0.42409757,0.47455502,0.38531634
-8.01142,0.020676326000000002,-1.1123843999999998,-0.4225093,0.29302332,0.42737877
-8.654072,0.26292166,-1.6294266000000002,-0.44806093,-0.044977135999999994,0.34698892
-9.837181,0.22525607,-1.4854777,-0.6455624,-0.31700414,0.26872835
-10.724252,-0.024277205,-0.82222635,-0.8286823,-0.30209905,0.252235
-11.09088,-0.33612677,-0.98188126,-0.8180184,-0.17060593,0.21603686
-11.008702,0.45647848,-1.8679754000000002,-0.64236844,-0.07798131,0.10370746
-11.243784,2.279146,-1.8375498,-0.41133919999999996,-0.014102261000000001,-0.06181956
-11.584354,1.594998,-1.7133578,-0.16379915,0.052953288,-0.22631684
-11.908529,0.032992099999999996,-0.37463509999999994,-0.008360127,0.030595621,-0.31733575
-12.148935,-0.82872903,0.9926934999999999,0.036337756,0.013561208,-0.3034953
-12.018548,-0.49198928,1.2386546,0.08850565,0.12374385,-0.25239205
-10.896683,0.03310702,1.8854338,0.19390608,0.17591174,-0.22418754
-10.159775999999999,-0.027159825,2.3509624,0.2998301,0.03005457,-0.19757128
-9.802369,0.626371,1.7959481,0.37967893,-0.12269664599999999,-0.13582152
-9.700280000000001,1.0832996000000001,0.9755223,0.3956487,-0.10407399,-0.06288421
-9.954114,0.3966522,0.5426696999999999,0.35253906,-0.012514011,-0.024033183
-9.92795,-0.45056003,0.17008409,0.31473523,0.019408062,-0.011780973
-9.641297,-1.0343143,-0.12929647,0.31208232,0.026337017999999997,0.013753194
-9.411856,-1.5210364,-0.29992643,0.33498105,0.062535144,0.0866905
-8.534783000000001,-1.5319444,-0.11009497,0.35945055,0.12322024,0.14044665
-8.082059,-1.4714476,-0.285657,0.29239499999999996,0.038571775,0.118088976
-8.345717,-1.3371521,-0.5061438,0.16622515,-0.0034557518,0.07070329
-8.865891,-0.9358264000000001,-0.80834955,0.099152155,0.11309733,0.04675737
-8.58035,-0.36965516,-0.762898,0.18380062,0.26375416,0.08349655
-8.142019,-0.2294986,-0.5741583,0.31847024,0.29995229999999995,0.09519026
-8.252152,-0.6212474,-0.8106863000000001,0.33763394,0.36648422,-0.009128072
-8.443181,-0.8387463,-1.2696835,0.29611257,0.14077826,-0.20182988
-8.4317465,-0.7143149000000001,-1.5665452,0.31634092,-0.6470459,-0.38121483
-8.501619,-0.27340826,-1.3928508999999998,0.46645668,-0.83868307,-0.50152034
-8.878619,0.21691467,-1.4700878000000002,0.43984044,-0.39098865,-0.47438050000000004
-9.57899,0.14366168,-1.9443886000000001,0.55641097,-0.0018675023000000002,-0.3072303
-10.130202,-0.101246,-2.1404257,0.8135329000000001,0.19029325,-0.19116591
-10.377897,0.17486292,-2.594855,0.9168040000000001,-0.035395276,-0.19170697
-10.493546499999999,0.017199945,-2.974087,0.8220501,-0.2967758,-0.15498523
-10.969571,-1.4862343,-2.9552686,0.57665676,-0.37662458,-0.06873106
-11.477151,-1.3816171999999998,-2.5086734,0.3690324,-0.28345892,0.052604225
-13.870319,0.14143987,-1.042761,0.3051708,-0.099815376,0.16228071
-15.220304,2.740767,1.5702419,0.33337533,-0.01144936,0.25171140000000003
-12.643186,3.0801213,2.5894152999999998,0.3035651,0.024207717000000004,0.2751337
-9.776627000000001,-0.3211295,3.5558684,0.20987584,0.024207717000000004,0.22614232
-9.206481,-2.201229,3.4403815000000004,0.08957029999999999,-0.15037757,0.13884094
-9.35724,-2.1324964,2.3197707999999997,-0.017418386,-0.40695843,0.064315386
-10.156396,-1.2075204,0.86466116,-0.03551745,-0.5022534000000001,0.028658306
-10.902611,-0.09508811,0.18430565,-0.034976397,-0.37768924,0.004171337
-10.422812,0.6418184,-0.5023418,-0.030194197000000002,-0.13601351,-0.03042109
-9.855367999999999,1.1984895,-0.13866258,-0.089273594,0.0108908545,-0.07246607
-9.249779,1.5975072,0.49248729999999996,-0.20905554,0.09234537,-0.092170835
-8.707567999999998,1.3785048,0.5211411,-0.33573154,0.14557791,-0.085241884
-8.278891,1.2101828000000001,-0.16421351,-0.32136747,0.12002629,-0.033073988
-8.213749,1.1798913,-0.6183456999999999,-0.15793484,0.20572196,0.039845865
-8.545108,1.0574136,-0.86164445,-0.003577925,0.22968532,0.039304815
-8.4898205,0.9882211,-0.7784603,0.009721484,0.15036010000000002,-0.009128072
-8.218174000000001,0.89819914,-0.5292718000000001,-0.16592845,0.28876472,0.0009773844000000001
-7.882994999999999,1.1946875,-0.44384667,-0.39589304,0.53044045,0.14948745
-7.795856,1.2195966999999999,-0.44084916,-0.48052403,0.59166664,0.36030576
-7.844152,0.8337568000000001,-0.78855425,-0.4012163,0.37713075,0.5918585999999999
-8.297757,0.47276863,-1.373678,-0.2319368,-0.0077143554,0.55513686
-9.084195,0.64359975,-1.8528151999999998,-0.19093902,-0.21160372,0.30068532
-10.3022785,0.8575073000000001,-1.5558577,-0.3362726,-0.1839228,0.18462093
-11.267285000000001,-0.13637373,-1.8692586,-0.5076639000000001,-0.072117,0.13247049
-11.379918,-1.0011306999999998,-2.490171,-0.5311037,-0.05988224599999999,0.041434117
-11.300862,0.48548663,-2.7543662,-0.40067524,-0.009320058,-0.07140142
-11.025758999999999,1.5604353000000002,-2.662448,-0.20425588,0.003979351,-0.15763813
-11.885928,1.3729789,-1.1909524999999999,-0.003036873,-0.03487168,-0.21354103
-13.653386,0.17173129999999998,1.4879485000000001,0.11831587,-0.11950269,-0.23109904
-14.419224,-2.1556149,2.9706585,0.25832617,-0.07532841,-0.24919811
-11.632105000000001,-1.1594737,3.7546256000000002,0.4339761,0.0034382986,-0.25506239999999997
-9.216288,1.2242224,3.4389163999999997,0.6431887,0.0023736479,-0.2279051
-9.394722999999999,2.238502,2.1230154,0.7991688,-0.08117526,-0.11079349999999999
-9.52493,2.2000990000000002,0.38766912,0.82684976,-0.10246828,-0.011239921000000002
-9.809255,1.1844212,0.22075498,0.7001563000000001,-0.038589227999999996,0.024399703
-9.951194000000001,-0.17157806,0.10134177,0.49680796,0.11576769,0.07976155
-9.727286999999999,-1.2226135,0.23625025,0.34615114,0.25043730000000003,0.13884094
-9.178747,-1.6428725,0.32077515,0.31686452,0.26427776,0.19100884
-8.176266,-1.6722254,0.6939546,0.36637953,0.25576055,0.20484929
-7.735407400000001,-1.8627081,0.5789946,0.33285174,0.20361010000000002,0.17770943
-8.042382,-2.0784637999999998,0.40841252,0.21467550000000002,0.2020044,0.087214105
-8.885475999999999,-2.0495036,-0.0012354080000000001,0.13269739,0.3260275,-0.028274333
-9.326143,-1.3387227,-0.57038504,0.13109168,0.37447783,-0.11770499999999999
-8.685694999999999,-0.14339353,-0.93683195,0.19284143,0.37873644,-0.20554742
-8.329619000000001,0.31507695,-1.497056,0.17102481,0.098733276,-0.39770818
-8.006862,0.52789277,-1.6885729999999999,0.17900097,0.021013765,-0.44987607
-7.7453475,0.8277426,-1.4764754999999998,0.19444713,-0.040194932,-0.48022735
-7.8104796,0.6334866,-1.1364701000000001,0.37969637,-0.20680407,-0.44615853
-8.4419365,-0.05704904,-1.2378215,0.6612878000000001,-0.31061625,-0.47329837
-9.713600999999999,-0.9803873,-1.54019,0.7714879,-0.4271867999999999,-0.38973203
-10.851911999999999,-1.0004411,-2.3056736,0.65383524,-0.33190927,-0.2539803
-11.434516,0.31231883,-3.3530602,0.44729298,-0.11737339,-0.06660176
-12.209892,0.6749159,-3.2991238,0.22745131,0.01675516,0.15908676
-12.781877,0.32695219999999997,-2.674649,0.19870573,0.088610366,0.3299545
-13.207738,0.31388944,-1.0311347,0.29398325,0.10512118,0.35657075
-11.584872,0.57421577,0.805419,0.3701145,0.07476991,0.2921681
-9.816294000000001,-0.6660573000000001,2.2861562,0.29398325,0.022078415,0.22561869999999998
-10.460094,-0.81193125,3.2931383000000003,0.07572984,-0.10300933599999999,0.18568558
-11.203083,1.3410882,2.356852,-0.17229891,-0.25843089999999996,0.18463838
-11.801489,1.0158598,1.3745495,-0.3841819,-0.48467794,0.17292722
-11.640225,-0.94903284,0.9549704999999999,-0.49064696,-0.5320636,0.13086478
-10.850072,-1.3551468999999998,0.48374364,-0.5231100999999999,-0.31859240000000005,0.079237945
-10.428224,-0.62629443,-0.013120225,-0.508746,-0.0018675023000000002,0.013753194
-9.577276,0.055124099999999995,0.10531615,-0.47094220000000003,0.18071139,-0.02295108
-8.584123,0.6522955,0.34866282,-0.4198564,0.2546959,0.024399703
-7.990811,1.080532,-0.23887429999999998,-0.27345818,0.21849777,0.12501794
-7.913678999999999,1.6532633,-1.2869217,-0.070109874,0.22649138,0.2059314
-8.07954,2.1802943,-1.9365932000000001,0.12948598,0.15355407,0.18249163
-8.487598,2.1190696,-2.117164,0.11512191599999999,0.020472713,0.039304815
-8.5149975,1.8547306000000001,-1.5056559999999999,-0.111090206,0.18655825,0.028658306
-8.242633,1.4118896,-1.2870078999999999,-0.3325376,0.54269266,0.15482816
-7.6862016,1.0396869,-0.8654752,-0.41079813,0.5687679,0.2926917
-7.2363214000000005,0.6198876,-0.85007566,-0.37938222,0.23766148,0.36082938
-7.6338835000000005,-0.15271176,-1.1868249,-0.4118628,0.007173303000000001,0.47635272
-8.864512,-0.45948562,-1.5391653,-0.33360222,-0.26110125,0.42683770000000004
-10.348276,0.08363426,-1.216015,-0.31976178,-0.4921305,0.17664477
-11.389294,-0.13847105,-1.1765491000000001,-0.40706313,-0.32656854,0.062203534000000005
-11.394504,0.13481271,-1.8202158,-0.54546773,-0.21586232,0.00577704
-10.181956,1.5423063999999997,-3.1605567999999997,-0.505011,-0.15037757,-0.07566002
-9.864552,2.5674365000000003,-3.5413597,-0.34903094,-0.12960815,-0.14803882
-10.9460125,2.3310812000000003,-2.532644,-0.15687019,-0.0694641,-0.22523473
-12.260707,-0.039734174,-0.67605555,-0.06796312,-0.10405653,-0.2454631
-13.742401000000001,-1.5221568,1.7975667000000002,-0.07595673,-0.16050048,-0.20128882
-14.813385999999998,-2.1674612,2.3079145,-0.023788838,-0.07426376,-0.1805194
-12.305871,-1.4326806,3.4150989999999997,0.075206235,-0.04124213,-0.17945476
-9.556494,1.8227824000000001,3.140302,0.21200514,-0.08969247,-0.12515756
-9.169917,2.953535,1.3743771,0.32007593,-0.1306728,-0.009110618000000001
-9.338697999999999,2.1139078,0.28032273,0.39940116,-0.108856186,0.07391469
-10.164028,0.17048632,0.50708234,0.43612286,0.036442474,0.098401666
-10.419633000000001,-1.1216931,0.30311552,0.45900413,0.25788984,0.117024325
-9.700625,-1.5285445,0.279796,0.44996333,0.36702529999999994,0.15482816
-8.570169,-1.3030969,0.5886384,0.43292892,0.3803247,0.16653931
-7.6083803,-1.1101626,0.5098404000000001,0.40737729999999994,0.23607324,0.143117
-7.4038773,-1.0891511,0.19412187,0.3253992,0.07105235,0.07604399
-8.024809,-1.3792133,-0.12627977,0.24928537,0.22170918,-0.005375614
-8.833752,-1.3370275,-0.31659967,0.23649211,0.36222562,-0.06181956
-8.9723,-0.8441380999999999,-0.3588142,0.2210634,0.35583773,-0.13261011
-8.681165,-0.75980467,-0.3560178,0.18858282,0.037507123999999996,-0.33756414
-8.181973,-0.70196074,-0.74632055,0.20669934,-0.63851124,-0.63193136
-7.673005,-0.52028877,-1.1437483999999998,0.3653323,-0.75136423,-0.71549773
-7.550105599999999,-0.16357185,-1.3997078,0.24022712,-0.31805134,-0.6015801
-8.2615185,-0.22568703,-1.7669495,0.22212805,-0.15037757,-0.4344299
-9.612548,-0.76827055,-2.0960662,0.43292892,-0.043388885,-0.37215656
-10.342156,-1.2137931999999998,-2.5936098,0.56070447,-0.35105553,-0.27260298
-10.481193,-0.332478,-2.9976745,0.4787089,-0.5421691,-0.16934929999999998
-10.737574,-0.036717474,-2.9114928,0.27536058,-0.38247144,0.0009773844000000001
-11.456036,-0.31229009999999996,-2.3194356,0.14388494,-0.22010347,0.1340762
-13.131306,0.44570458,-0.64497876,0.13322099,-0.11524409,0.16760397
-15.195146,2.7080243,1.8184824,0.16357225,-0.092886426,0.18409733
-13.7107315,4.020784,2.3752299999999997,0.13484414,-0.10086258,0.20221385
-10.109143,0.21735520000000003,2.4445662,0.037402406,-0.16582373,0.20006709
-9.931819,-2.0881748,3.285678,-0.111090206,-0.3872711,0.16547467
-10.764339999999999,-2.042321,2.2721164000000003,-0.2558827,-0.633188,0.11597713
-11.648767999999999,-0.3438744,0.78017455,-0.39109337,-0.6672743,0.0850848
-11.070022999999999,0.43493068,0.41869799999999996,-0.51087534,-0.43251005,0.062203534000000005
-10.388614,0.67621833,0.40489784,-0.58273053,-0.19722220000000001,0.024940755
-9.765585,0.9273222,0.4981759,-0.60189426,-0.042324234,-0.027750734
-8.950972,0.62699354,0.721507,-0.6295752,0.09608038,-0.060737457
-8.278326,0.17105135,0.45045468,-0.6348984000000001,0.18018779,-0.08309512599999999
-8.142593,0.30437964,-0.388962,-0.5337566,0.25150195,-0.087371185
-8.488862,1.0616848,-0.8788923000000001,-0.40013418,0.35424948,-0.042655847999999996
-8.697397,1.6140176000000002,-0.8923476999999999,-0.26385888,0.34627333,-0.016022123
-8.455143,1.7416477,-0.26237577,-0.15419984,0.37182495,0.023876105
-7.982661200000001,1.6948458,0.17415424,-0.13238323,0.43516293,0.13086478
-7.7781386,1.5415881999999999,0.3453205,-0.11747811,0.48733082,0.34007740000000003
-7.8645309999999995,0.98437124,-0.016318878000000002,-0.0376293,0.49584803,0.59239966
-7.891442,0.25449407,-0.34700602,0.10395181,0.26375416,0.64669687
-8.222561,-0.3414802,-1.0964965,0.2556733,0.033789575,0.39330995
-8.768295,-0.37988320000000003,-1.1371597,0.109275065,-0.16050048,0.22668336
-9.698394,-0.3147705,-1.2175473999999997,-0.307527,-0.21586232,0.18783234
-10.705605499999999,-0.7766982,-1.2765978999999998,-0.5901656,-0.18444639999999998,0.23415338
-11.453861,-0.86741924,-1.20685,-0.57101935,-0.064664446,0.23787092
-12.139101,-0.021270089,-1.0724491000000003,-0.35754815,-0.0034557518,0.1404641
-12.980184,0.2709949,-0.49304277,-0.12280136,0.05614724,0.03398156
-14.057814000000002,-0.6141893,0.7478912,0.060301125,0.17006488,-0.08628908
-14.435647,-2.5341093999999997,2.5063174,0.110357165,0.10992084,-0.16507325
-11.89311,-1.1463341999999999,2.7197652000000003,0.13430308,0.046565384,-0.1767844
-9.110713,2.414744,2.988184,0.2120226,0.04230678,-0.14486232
-8.621913000000001,3.3862247,2.3130669999999998,0.32859313,-0.011972958,-0.08309512599999999
-8.489341,2.9032185,1.1086973999999998,0.45582765,-0.062535144,0.023876105
-8.87452,1.8267375,0.5077144,0.5495169,-0.0066497047,0.11650073
-9.937891,0.318515,0.83852607,0.5537755,0.12747885,0.14152876
-10.316701,-0.8856439,0.80039126,0.46221554,0.25576055,0.12873548
-9.577285,-1.2129601,0.87044555,0.32381094,0.28504717,0.11756538
-9.0063925,-0.9777440999999999,0.7088369000000001,0.20669934,0.28132963,0.17559758
-8.39591,-0.7336216999999999,0.2749118,0.19018853,0.39790016,0.227748
-7.8721065999999995,-0.6741593000000001,0.026537333,0.20509364,0.34147367,0.23467697
-8.086215,-0.72139215,0.23396139,0.16624261,0.0699877,0.15695746
-8.909715,-0.9999623,0.44770613,0.05338962,0.016231561000000002,-0.0075049159999999995
-9.338181500000001,-1.4513267,0.58288276,-0.048275806,0.15676548,-0.18371336
-9.173997,-1.1486136,0.13722606,-0.034958944,0.15995942,-0.35299283
-8.642532000000001,-0.06541917,-0.8563581,0.032096606,-0.008237954,-0.540895
-8.1612015,1.0451745000000001,-2.160834,-0.00408407,-0.43835690000000005,-0.81185734
-7.803717999999999,1.4335715,-2.5670822,0.01293289,-0.44155085,-0.69900435
-7.7905216,0.4931864,-2.3280737,-0.06263987,-0.05988224599999999,-0.52014303
-8.383709,-0.25401524,-2.081768,-0.07808603,0.05347689,-0.28326693
-9.536508,-0.93075067,-1.7024306,0.23436281,0.11203268,-0.19703022
-10.683110000000001,-1.1325628,-1.4671668,0.56707495,-0.09608038,-0.21245892
-10.6465645,0.60904664,-2.3966055,0.55164623,-0.3792775,-0.18743089999999998
-10.569482,1.9809912,-2.8051903,0.3908665,-0.26057765,-0.08044223
-11.561974000000001,0.9631969000000001,-2.2028763,0.19498818,-0.13494886,0.07178539
-13.631579,-0.18456422,-1.3075885,0.071488686,-0.0077143554,0.24000022
-16.162079000000002,0.41081628,0.3626066,0.07735299,0.049759335999999994,0.3123965
-13.4228525,2.4946816000000003,1.4082121,0.16198401,0.05508259,0.30176744
-9.455584,-1.2752092,2.5418952,0.16411331,0.02581342,0.22615977
-9.69872,-2.6127347999999997,3.2023118,0.041678462,-0.14931291,0.13939945
-10.376000999999999,-1.1401093,3.033923,-0.10255554,-0.36383134,0.079237945
-10.755788,0.15426320000000002,1.489768,-0.24469516,-0.52619934,0.031869713
-10.441889999999999,0.35542405,0.7731452,-0.3591364,-0.48307222,-0.014433873
-9.640426,0.49740016,0.7134050999999999,-0.4022635,-0.26481882,-0.036774087999999996
-9.568906,0.64304423,0.25254038,-0.36660640000000005,-0.060946897,-0.044767695999999996
-9.41672,0.7481593000000001,-0.15796942,-0.345837,0.06627015,-0.07138397
-8.558773,0.9503832,-0.16094781,-0.39002872,0.15303047,-0.10918779999999999
-7.859408,0.9482954,-0.38798517,-0.43313837,0.1934872,-0.11451105
-7.714175,0.976116,-1.0679288,-0.39535198,0.20306906,-0.07244862
-8.141014,1.1674702,-1.3189753,-0.28834584,0.17912313,-0.021868976000000002
-8.510382,1.3909354,-1.0201406,-0.24469516,0.120567344,0.05422738
-8.693068499999999,1.62754,-0.7108576999999999,-0.29633945,0.24033184,0.22722441
-8.666609,1.5109041,-0.5632216,-0.3612657,0.46284387,0.43908992
-8.463225,1.0429238,-0.6274436999999999,-0.25694737,0.49745375,0.62594485
-8.142603999999999,0.37638766,-1.0353487,-0.13238323,0.26323056,0.57697093
-8.01459,-0.07701668,-1.5103008,-0.014730578999999999,-0.04124213,0.31932545
-8.6777935,0.023855826,-2.0809922,-0.14940019,-0.206263,0.16866861
-9.968863,0.42296925,-2.109493,-0.4150393,-0.27014205,0.19476129
-11.028909,0.49799395,-1.8973186000000002,-0.55450857,-0.24193753,0.22935371
-11.23189,-0.14445657,-1.7723413000000001,-0.43633232,-0.20839229999999997,0.17612118
-11.991655999999999,0.45224553,-1.2728248,-0.24843016,-0.1301492,0.03932227
-13.164891,1.0527303999999997,-0.8563101999999999,-0.06529277,-0.13919,-0.10386454
-14.406247,0.38305312,0.34964922,0.059236474000000004,-0.13227850000000002,-0.21565288
-14.680105,-1.1516973,2.4722815,0.10290461,-0.18603465,-0.25076889999999996
-11.934424,-1.0586586,2.4782669999999998,0.17423622,-0.16154768,-0.22682299
-9.519786,1.0680246,2.5135384,0.31103513,-0.11843804,-0.18743089999999998
-9.060914,1.5403049,1.9710984,0.4739267,-0.09501573,-0.16187929
-9.120262,1.4164193,1.1940267,0.5910383000000001,-0.09553932400000001,-0.10864674
-8.965127,1.7020668,0.56219685,0.54632294,-0.10566223400000001,-0.041050144
-9.007322,0.8728876,0.9770833000000001,0.40418336,-0.037524577,-0.02029818
-9.31874,-0.3443724,0.6793404000000001,0.25460863,0.10192723,0.015358897
-9.252823,-0.9437273000000002,0.5001487,0.15931365,0.20306906,0.09414306
-8.712357,-1.1310784,0.42168593,0.15507251,0.24832545,0.15269886
-8.040830999999999,-1.1436527,0.5546694999999999,0.20935224,0.28984684,0.15962781
-7.8874580000000005,-1.456709,0.46920609999999996,0.22905701,0.25523695,0.10266027
-8.2541065,-1.9168458,0.3459334,0.17530087,0.25843089999999996,0.008988446
-8.985745,-1.9161370999999998,0.037972037,0.08906415,0.42399284,-0.10864674
-9.298026,-0.70638525,-0.73516357,0.12685053,0.39151224,-0.18371336
-9.010147,0.648618,-1.5141793,0.18914133,0.19029325,-0.26940903
-8.485252000000001,1.2337129999999998,-1.8019432,0.21043435,-0.41973424,-0.57602847
-8.262706,0.91066813,-1.8160307,0.19020598,-0.703455,-0.74104935
-8.098225,0.28448862,-1.7666240000000002,0.14974925,-0.29249972,-0.61276764
-8.162005,-0.5625511999999999,-1.6761997,0.19444713,-0.04017748,-0.4195248
-8.987498,-1.3308601,-1.6853744,0.51118946,0.05401794,-0.31573007
-10.278481,-1.7382863000000002,-1.6240444,0.6825983,-0.17538814,-0.15069173
-10.786721,-0.9657348,-2.1973312000000003,0.6080727,-0.23235568,-0.0037873646000000003
-10.467891,-0.0029113493,-2.7846289,0.42495278,-0.13121386,0.12981759
-11.533502,0.030099902,-1.6454294999999999,0.28761279999999995,-0.07637561,0.24532348
-13.100957000000001,0.55232316,-0.5170614,0.23279202,-0.048171088,0.29590312
-14.817723,1.9893517,1.0476931,0.27644270000000004,-0.13547246,0.27461009999999997
-14.299494000000001,2.1731882000000002,2.4201547999999997,0.26260224,-0.2712067,0.22883011
-10.824808,0.36154359999999997,3.010814,0.12098622,-0.37234855,0.17825048
-10.393058,-1.4388386,3.4218218,-0.08019788,-0.4463505,0.15749851
-10.725401,-2.0328593,2.8454895000000002,-0.2979277,-0.53949875,0.13566445
-10.98362,-1.4923538,1.2206885,-0.42622685,-0.5368458,0.07871435
-10.30857,-0.80510294,0.7641334,-0.42514476,-0.32923892,-0.0085695665
-9.637246000000001,0.41768286,0.3149333,-0.36606535,-0.033265974,-0.07138397
-9.135622,1.0127760000000001,0.07789774,-0.35116026,0.16741198,-0.09960594
-8.170242,1.2636021000000002,0.28770643,-0.39959314,0.24671975,-0.105993845
-7.647521,1.0794593000000001,0.31073865,-0.4629486,0.28984684,-0.06977826
-7.562057000000001,1.2547437,-0.5609423000000001,-0.42249185,0.42399284,-0.03837979
-7.8627977,1.8223226000000003,-1.1972923,-0.2856755,0.5586624,-0.046355944
-8.468263,2.299554,-1.4053677,-0.20423843,0.46657887,-0.031991884
-8.774328,2.1390757999999996,-1.0090411,-0.25001842,0.37821284,0.035604715
-8.564471000000001,1.3453019,-0.44419146,-0.4581664000000001,0.37182495,0.2208365
-7.8144064,0.6841575,0.13443922,-0.58271307,0.49319515,0.5870764
-7.5204268,0.26142767,-0.07750510000000001,-0.66097367,0.20732766,0.73773324
-7.841748,0.13117352,-0.9095476999999998,-0.6167819,-0.17112954,0.5759063
-8.458053999999999,0.17790835,-1.9037734,-0.5577025,-0.15196581,0.36456436
-9.523062,0.39153817,-2.3534333999999997,-0.6998247,0.15303047,0.22298327
-10.63423,0.13523409,-2.0324187,-0.8132187,0.29462904,0.099483766
-11.250469,-1.0665593999999998,-1.7952203999999998,-0.71898836,0.21052161,-0.020280726000000002
-11.597274,-0.38101324,-1.1182071000000002,-0.47144833,0.19029325,-0.11716395
-11.846117,0.9165290999999999,-0.63591915,-0.26331782,0.1870993,-0.14803882
-13.279698000000002,0.78011715,1.4683735,-0.08232718,0.27281243,-0.13685127
-14.810896,-0.19439003,3.8348693999999997,0.13271484,0.3792775,-0.12301081
-13.560289000000001,-1.3455796999999998,4.823436,0.3978129,0.47403142,-0.11555825
-9.888427,1.0804842,4.044994399999999,0.6602406,0.42451644,-0.110776044
-8.727516,4.032008,1.8881153999999998,0.87264717,0.24139649,-0.043703045999999995
-9.331583,3.7243052000000003,-0.027791892999999998,0.92481506,0.082763515,0.022811454
-10.343258,1.5252596999999999,-0.31175378,0.83164936,0.17432348,0.05103342599999999
-10.648154,-0.40808690000000003,-0.13781983,0.68048644,0.29995229999999995,0.08084365
-10.450662,-1.8132247,0.18009186,0.5457994,0.4048291,0.08510225
-9.010521,-1.9147581000000002,0.7281725,0.4387932,0.30901054,0.11651818
-7.582915299999999,-1.9035819,1.0511598999999998,0.3461686,0.15676548,0.13887584
-7.074033,-2.059952,0.61351895,0.24076816,0.046041787,0.11171853
-7.5000089999999995,-2.3539790000000003,0.017650055,0.15772541,0.11524409,0.07871435
-8.334273,-2.5158367000000004,-0.6478518,0.26577875,0.1865757,-0.004310963
-8.692053999999999,-1.9502686999999999,-1.1649323999999999,0.37758452,0.08702212,-0.17304939
-8.024541000000001,-0.77987766,-1.736007,0.38236672,-0.7396531,-0.6069033
-7.6105732999999995,-0.14106636,-1.9752451000000002,0.5915793,-0.92916095,-0.7687303000000001
-7.3820806,0.4471411,-2.1868637000000004,0.5559048000000001,-0.48413688,-0.6862286
-7.8038050000000005,0.9244108,-2.0448207999999997,0.40739477,-0.13227850000000002,-0.38278562
-9.14428,0.7125048,-2.1079414,0.5074719,0.23235568,-0.14643313
-10.658823,0.19711941,-2.6112027,0.6905919,0.0061086523,-0.03785619
-11.136543,0.41439799999999993,-3.3776631,0.6235189,-0.35212016,-0.014940018999999999
-10.8401985,0.9935267,-3.6361604,0.41325906,-0.27920032,0.09361946
-11.805846,0.20228131,-2.8816322999999997,0.26153758,-0.14505431,0.2229658
-13.392724,0.49361733,-1.5775586000000001,0.22746876,-0.10033898,0.27993336
-16.0376,1.8688851999999998,0.7857674,0.26686084,-0.18125243,0.27673942
-15.486855499999999,4.3772135,2.2324686000000002,0.22373375,-0.28398252,0.23841198
-10.152229,-0.960774,3.1469197,0.079482295,-0.33560935,0.17294468
-9.893013999999999,-3.8171523,3.2616305,-0.1557881,-0.3728896,0.09416051
-10.335635,-2.7244770000000003,2.2760238999999998,-0.41823325,-0.5166175000000001,0.060615286
-11.352528999999999,-0.24090457,0.95580363,-0.53373915,-0.5788908,0.02815216
-10.486958,0.6801161,0.07327215,-0.4320737,-0.34147367,-0.005899213
-9.57288,0.82350963,-0.32988268,-0.31388003,-0.03005457,-0.040491637000000004
-8.851852000000001,0.91967994,-0.21018218,-0.23724261,0.07424631,-0.07457792
-7.917787599999999,1.1098944,0.12315774,-0.24895376,0.04017748,-0.12035791
-7.351722200000001,1.2575976,0.08043560400000001,-0.36180675,0.0657291,-0.13046336
-7.204919,1.5585582,-0.6299719,-0.43952626,0.19615756,-0.08255407
-7.5798893,2.0355694,-1.2817981,-0.34581953,0.36383134,-0.043703045999999995
-8.361309,2.5117857000000003,-1.4187177,-0.20263273,0.34147367,-0.021345377000000002
-9.138304,2.0824192,-1.5450263000000002,-0.20263273,0.3707603,0.098419115
-9.167006,0.9011680000000001,-0.9549896000000001,-0.296322,0.42025784,0.35393533
-8.278421,-0.42699152,-0.49723738,-0.27557003,0.45858526,0.74253285
-7.6833089999999995,-0.6117855999999999,-0.8692675999999999,-0.17175785,0.21265091,0.86762065
-7.8776803,-0.32196268,-1.1278126,-0.046670105,0.002391101,0.51150364
-8.340738,0.49822378,-1.9745172999999998,-0.26438248,-0.21530381,0.24214698
-9.429286,1.1972253000000002,-2.4858804,-0.6577622,-0.24884905,0.22457151
-10.638463,1.2587754999999998,-2.239,-0.8951794,-0.24726079999999998,0.24853489
-11.457701,0.27271873,-1.7249265,-0.75998616,-0.18764035,0.18411478
-12.147337,-0.21385010000000002,-1.5728852,-0.5310688,-0.09128072,0.055833083
-12.889846,0.28760108,-1.6139506000000001,-0.26012388,0.046565384,-0.095870934
-14.077551999999999,-0.5723674,-0.14736791,-0.09669124,0.044436082,-0.20127137
-15.034761999999999,-2.8177838,1.8391203999999999,-0.037088245,-0.059341196,-0.25237462
-12.232609,-2.330037,3.8022603999999998,0.05021312,-0.07531096,-0.24279276
-8.963834,3.119329,3.5764775,0.22533946,-0.0694641,-0.22682299
-9.165051,4.9280143,2.7577085,0.42442918,-0.16421802,-0.21244147
-9.7432995,3.6661742,0.6081943000000001,0.60276693,-0.25045475,-0.11609929999999999
-9.769712,1.5476694,0.3221638,0.70176196,-0.21319197,-0.019757127
-9.748422999999999,0.09352709,0.98457235,0.6857922,-0.08330456,0.014294246000000002
-9.442176,-1.0302536,0.6829221,0.57932717,0.046041787,-0.0016406095
-9.315398,-1.2894404,0.40226418,0.45689228,0.1892286,0.008447394
-8.676156,-1.2132186000000003,0.33775482,0.3610737,0.33243287,0.0749968
-7.764865400000001,-1.2962017,0.090318866,0.31744048,0.3814068,0.11013027
-7.345842,-1.3890008999999999,-0.14221558,0.25460863,0.22010347,0.058485985
-7.809551,-1.4742728,-0.14627615,0.17903587,0.15357152,-0.07829547
-8.833197,-1.7264589,-0.27201962,0.12899728,0.39737657,-0.18102555
-9.37239,-1.5682213,-0.43982443,0.20936969,0.45912632,-0.2550275
-9.049106,-0.8443296,-0.71858615,0.31051153,0.43090433,-0.29921925
-8.848998,-0.20650469,-1.6765733,0.27646014,-0.02846632,-0.5153259
-8.466864999999999,0.37271017,-2.3064299999999998,0.29454178,-0.48094293,-0.66332984
-8.224695,0.32412702,-2.388015,0.2684491,-0.47987828,-0.586675
-8.254939,0.09971371,-2.3176734,0.11196287,-0.31166345,-0.40355504
-8.884997,-0.27139709999999995,-1.9557276999999997,0.19924679999999997,-0.086498514,-0.26675612
-9.938887,-0.98419887,-1.8021634999999998,0.33128095,-0.035918877,-0.17517869
-10.445021,-1.0023565,-2.3965383,0.33766884,-0.03911283,-0.09161233
-10.334908,0.30539479999999997,-3.0398796000000003,0.23385666,-0.023143066,0.023893557000000003
-11.02865,-0.4047829,-1.9642221999999998,0.09916960400000001,-0.12269664599999999,0.16975072
-12.364883,-0.8138658000000001,-0.7104267,0.0225322,-0.12906710000000002,0.28047442
-14.172217999999999,0.48767972,0.48532385,0.017208947,-0.21690951,0.26237535
-15.016414000000001,2.1942953999999997,1.8363624,0.00017453292,-0.39151224,0.1958434
-12.603192,2.3234577,2.283197,-0.15311773,-0.50862384,0.1356819
-11.074226,0.71807855,2.7453163,-0.36498326,-0.51235884,0.089360856
-10.713871000000001,-0.49228618,2.982735,-0.5901656,-0.45432666,0.06274459
-10.4398775,-1.3723948000000001,1.7167671000000002,-0.7471929,-0.4426155,0.004729842299999999
-9.761706,-1.2086313999999998,0.9018765999999999,-0.71525335,-0.2956937,-0.059655353
-9.572325,-0.411841,0.11346600000000001,-0.56726694,-0.071593404,-0.11397
-9.310543,0.48395434,-0.19489759,-0.40491638,0.066811204,-0.14430383
-8.463159,1.144256,-0.3847482,-0.2899341,0.10246828,-0.14856243
-7.625858,1.5985702,0.10440635,-0.28778735,0.07106981,-0.13259266
-7.5304923,1.8373678,-0.19759825,-0.37404149999999997,0.08543386,-0.108629294
-7.8456173,2.0746906000000003,-0.8275319,-0.4325973,0.29623473,-0.035709437000000004
-8.474784,2.5194568999999998,-0.8734622,-0.37189475,0.5006477,0.055833083
-8.997582000000001,2.26706,-0.87701523,-0.27077037,0.5437748,0.20488420000000002
-8.984539,1.2061605,-0.5722333000000001,-0.23457225,0.54642767,0.40769145
-8.375205000000001,-0.32906866,-0.2083147,-0.20849703,0.6433109,0.7228281
-7.8285227,-0.96011317,-0.5089115,-0.054646257000000004,0.48200756,0.90755373
-7.7689257,-0.76769596,-1.1413639,0.039043017,-0.04283038,0.6169041000000001
-8.117646,-0.10424355,-1.1019456,-0.075939275,-0.33295646,0.28047442
-9.027844,0.45182416,-1.6448835,-0.34316665,-0.17751744,0.17987363
-9.753997,0.34800202,-1.6867436999999998,-0.5491679,-0.064664446,0.14686945
-10.694689,-0.22243091,-1.8142973000000002,-0.53213346,-0.11417944,0.11119492
-11.4598465,-0.78975135,-1.7756932,-0.32346186,-0.009826204,-0.008552114
-12.521311,-0.46611276,-0.9852523000000001,-0.03600614,0.21905628,-0.15336208
-13.674464000000002,-0.46116155,-0.5370865,0.14390239,0.23821999,-0.21350613
-14.800256,-1.1151042,1.4177313,0.20406389,0.20254546,-0.21776474
-14.143660999999998,-1.1270368999999998,3.5464544,0.27007225,0.29571113,-0.18582520000000002
-11.101626,2.0325432,3.0159664,0.4015479,0.4415683,-0.1293987
-9.663688,3.5416372000000003,2.4049277,0.55005795,0.40376446,-0.08735373
-9.685054,3.019414,0.90838885,0.5958554,0.30209905,-0.009093165
-9.828007000000001,1.5577059,0.35178486,0.5122715999999999,0.08916887,0.046792275999999994
-9.477839,0.40241742,0.6365799,0.36322048,-0.0013089969,0.040927973
-8.932775999999999,-0.26627353,0.8522879000000001,0.23174481,0.13494886,0.0031415927
-9.13749,-1.0548183,0.7861696,0.18010053,0.25897196,-0.00057595863
-8.9908495,-1.6725318,0.54374236,0.22696261,0.19828686,0.0042062434
-8.057734,-2.2953115,0.55588573,0.25249678,-0.018884463,-0.02984513
-7.5682535,-2.4066132999999996,0.33649070000000003,0.2083225,-0.15515977,-0.07614872
-7.974837,-1.9968216,-0.24232194,0.12847368,0.044977135999999994,-0.101717785
-8.532102,-1.5353056999999999,-0.9377800999999999,0.053948127,0.28506464,-0.104911745
-8.853337,-0.28058130000000003,-1.7055813999999998,0.10824532,0.28878218,-0.09320058
-8.609569,0.53601384,-2.0959606,0.09440486,0.2536487,-0.11288789999999999
-8.216958,0.43972868,-2.0607564,0.025726152999999998,-0.050823987,-0.2470339
-8.202085,-0.09398678,-2.1972642000000002,0.081629045,-0.59644884,-0.42483059999999995
-8.785801,-0.47722188,-1.5439633,0.268484,-0.91319114,-0.5680174
-9.481383000000001,-0.9434495,-1.2092922,0.16308357,-0.76892227,-0.49296823
-10.145344,-1.0339695,-1.4949298999999998,0.061941735,-0.42771038,-0.31091297
-10.502903,-0.6771377,-2.2328612999999997,0.19713494,-0.12534955,-0.19699532
-10.611991999999999,0.1260595,-3.2191669999999997,0.33236304,-0.17006488,-0.12938125
-10.237463,0.95082366,-3.5416467000000003,0.28817132,-0.26214844,-0.05806710599999999
-10.594111999999999,-0.02567542,-2.755707,0.0821701,-0.28078857,0.09789552
-10.864849000000001,-0.31569943,-2.526084,-0.04024729,-0.20306906,0.23790583
-12.145028,0.15554649,-1.0704285,-0.03918264,-0.12747885,0.29166198
-13.758510000000001,1.2419873,1.5748962,0.049689524000000006,-0.14397220000000002,0.28101546
-13.357548000000001,1.9209638,2.2434819,0.049165923,-0.17058848,0.24375269
-10.998609,0.23703554,2.1620214,-0.0503702,-0.21849777,0.1937141
-9.668581,-0.2520041,2.8141925,-0.26223573,-0.3159046,0.15592772
-9.798059,-0.25043350000000003,2.858198,-0.44322637,-0.39948842,0.09524262
-10.597407,-0.44600147,1.9070679,-0.5007175,-0.33827972,0.007941248
-10.681281,-0.32418448,0.49307147,-0.42778019999999994,-0.07689921,-0.047944195999999994
-10.402337,0.06291004,-0.41137174,-0.31599185,0.10459758,-0.07030186
-9.506915,0.7278469,-0.38288075,-0.27021188,0.13548991,-0.07082546
-8.522975,1.3632872,-0.14328818,-0.35058429999999996,0.18126989999999998,-0.07721337
-7.8369784,1.5009443,0.041582495,-0.44429103,0.29464647,-0.0543321
-7.642828,1.2881668,-0.34872982,-0.47568950000000004,0.43676865,0.018587757
-7.98089,1.1918049,-0.5232384,-0.35273105,0.5741086,0.04733333
-8.475177,1.3002334999999998,-0.86278415,-0.22869049,0.506512,0.03721042
-8.413177000000001,1.3345088999999999,-0.5228362,-0.18823376,0.38994145,0.16072737
-8.089404,1.01065,-0.33505416,-0.24359560000000002,0.3351032,0.58604664
-7.9503392999999996,0.33844435,-0.16476896,-0.22282618,0.25579545,0.9826378
-8.016256,-0.101772726,-0.6956401,-0.118507855,-0.097668625,0.80375904
-8.021179,-0.19798133,-1.9176311000000001,-0.034924038,-0.22755602,0.36938150000000003
-8.404711,0.4694072,-3.1015637000000003,-0.25317746,-0.040701076,0.17989108
-9.622929,0.8985152,-3.2901022000000006,-0.5507561,0.092903875,0.14261085
-10.749113000000001,1.1814235,-3.1068022,-0.6854256999999999,0.107808985,0.107477374
-10.997736,0.10356359,-2.6744573,-0.5725726999999999,0.17540559,0.009005899
-11.473906,-0.13688129999999998,-1.7592881,-0.35538393,0.2717652,-0.09477138
-13.208093,-0.16686629,-0.26061365,-0.22230259,0.22066198,-0.15706217
-15.583379999999998,-1.3264165,1.6661728999999998,-0.16107644,0.098750725,-0.17249089999999997
-15.412491000000001,-4.212636,3.7908449999999996,-0.0104370685,0.064158306,-0.14908603
-10.939634,0.13434345,4.2882546999999995,0.21526891,0.16050048,-0.16503833
-9.432207,3.7060711000000004,3.1159194,0.38453093,0.11472049,-0.16983798
-9.9198,4.094707499999999,0.48045883,0.50218356,-0.027384216,-0.10543534
-9.915223,2.3854293999999996,-0.48533339999999997,0.5250648,-0.16685347,-0.026110126
-9.663122,0.7653209,-0.029477412,0.46916196,-0.17271778,0.0031415927
-9.601506,-0.39602009999999993,0.23370282,0.40475932,0.008796459,0.028710665
-9.728072000000001,-1.2477046999999999,0.027408822000000003,0.35526177,0.1817935,0.05532694
-8.906564999999999,-1.4364635000000001,-0.15597744,0.40423572,0.26644197,0.08937831
-7.696151700000001,-1.6224548,0.11675085,0.48089057,0.25631905,0.056915186
-7.0431094,-1.7157136000000002,0.22204784,0.43298128,0.14772467,-0.039950587
-7.172463400000001,-1.5625806,-0.27238354,0.3334277,0.21959732,-0.13683382
-8.166546,-1.5161426000000002,-0.79748946,0.24720843,0.32445672,-0.20284216
-9.033773,-1.1932031,-0.92667097,0.22165681,0.34149113,-0.24914575
-9.088199000000001,-0.8754158999999999,-1.4873643,0.20247565,0.1269727,-0.31728340000000005
-8.673311,-0.68923324,-1.7884305,0.23815018,-0.50488883,-0.47645742
-8.1790905,-0.5714864000000001,-1.9859232,0.33875096,-0.8801694999999999,-0.5887694
-8.0156145,-0.24767539,-1.9412474999999998,0.21313961,-0.60655427,-0.5248903
-8.596755,0.0007852982000000001,-1.5854213,0.0821701,-0.27331856,-0.30557224
-9.356617,-0.20850624,-1.9223331999999997,0.2817834,0.05297074,-0.1719673
-10.233661,-0.87572235,-2.4737945,0.47396162,-0.0034382986,-0.100635685
-10.654456,-0.9462843000000001,-3.4532146,0.48727846,-0.21104520000000002,-0.04633849
-10.964236999999999,0.08001422,-3.6947224000000003,0.35791466,-0.23872614,0.041486476
-11.712713,-0.28832892,-2.7636461,0.25570820000000005,-0.26905996,0.16605063
-12.983564,0.83272254,-1.0573944,0.17959438,-0.22914428,0.24057618
-14.637068,2.3019004,1.3282456,0.12901473,-0.26054275,0.22991222
-14.233884,3.3518057,2.595037,0.018308504,-0.33187437,0.19266689
-11.13616,0.565769,2.386636,-0.16533504,-0.36168459999999997,0.14475761
-10.124628999999999,-1.6462531000000002,3.2286479999999997,-0.37720054,-0.39575340000000003,0.08726646
-9.87001,-2.0336254,2.7978737000000002,-0.55552083,-0.49902454,0.07714355
-10.476471,-1.2273731,1.3101358,-0.6300464,-0.5075417,0.03244567
-10.383242,-0.23755269,0.35651577,-0.5539326,-0.28183576,-0.03515093
