accx,accy,accz,gyrx,gyry,gyrz
-10.433231,-0.5718407,0.28804162,-0.37409386,0.15756832,-0.11454595599999999
-9.542225,-0.41320089,0.09786539,-0.23408356,0.105417885,-0.21834070000000003
-8.912081,-0.39279273,-0.26300785,-0.11377801,0.10700613,-0.2955366
-8.930372,-0.64392537,-0.57340175,-0.05682792,0.04045673,-0.3056595
-9.211250999999999,-0.7403829000000001,-0.46047202,-0.01850049,-0.088872164,-0.22581069
-9.090036999999999,-0.5620724,-0.33826238,0.043755405,-0.15861551,-0.12573352
-8.511426,-0.06663542,-0.43939346,0.07410668,-0.18203785,-0.08899434
-7.8673470000000005,0.33576286,-0.6414545,0.118822016,-0.12774065,-0.0980526
-7.760795599999999,0.36442623,-0.9070385,0.20134118,-0.07609635599999999,-0.10389945
-7.9726919999999994,0.15296075,-1.1779473,0.29609509999999994,-0.084089965,-0.073565625
-8.163567,0.050000507,-1.3266176,0.39510763,-0.06705555,-0.006492625
-8.339856,0.025081657,-1.5771374,0.4658982,-0.07716101,0.073879786
-8.819158,-0.3237248,-1.7359973000000002,0.50316095,-0.07929031,0.11220722
-10.176746000000001,-0.41286573,-1.1936628,0.53564155,-0.20172516,0.11540117
-10.962695,0.44973642,-1.5122161,0.55267596,-0.16074483,0.07440338
-11.056777,1.4374021000000001,-2.9413438,0.46111599999999997,0.07187266,-0.02776819
-10.933007,1.1754381999999999,-4.366296,0.36688566,0.37316886,-0.08419468
-12.433817,0.67761654,-3.6726767999999996,0.22954570000000005,0.24115214,-0.031503193
-12.307136,1.4107690000000002,-2.5838513,0.094876096,0.07984881,-0.042690754000000004
-11.631271,1.9107836,-1.1285022,-0.033405602,-0.24802874,-0.17788395
-10.221958,1.2337226000000001,0.73476136,-0.028082347999999997,-0.19853120000000002,-0.32002357
-9.785734,-0.13782941,1.7404411,0.12681562,-0.07716101,-0.35355136
-10.398181,-0.8454884,2.9776015,0.36475635,-0.36035812,-0.29127800000000004
-10.725717,-0.8067502,3.3022745000000002,0.6639406999999999,-0.46734682,-0.20343557
-10.829357,-0.16490303,2.0537271,0.8651421999999999,-0.25602233,-0.15180874
-11.2062235,0.17031394,0.59774595,0.8449139000000001,-0.053197637,-0.09431759
-11.091149,0.38409698,-0.3020812,0.7208908,0.07080801,0.03820526
-10.8648,0.74672276,-0.629426,0.6021734999999999,0.15758578,0.19046777
-10.198542999999999,1.0483825,-0.9561004999999999,0.5303183000000001,0.12829915,0.33258995
-9.307527,1.0927616000000002,-1.0553257,0.49729666,0.018640116,0.38315213
-8.623216000000001,1.2438741000000002,-0.78875536,0.54735273,-0.04363323,0.38688713
-8.369114,1.30846,-0.8468388000000001,0.61974895,-0.07557276,0.35335937
-8.454549,1.2518898,-1.0121919,0.6053674,-0.17830284,0.30649728
-8.262389,1.3191669,-1.0120482,0.545747,-0.23366468,0.2772281
-8.01211,1.5289181,-0.8993578999999999,0.46963320000000003,-0.22567107,0.26232300000000003
-7.9758997,1.6540678,-0.84338146,0.40840703,-0.20811306,0.24315926
-8.226113,1.6827216,-1.1693568,0.35890952,-0.16978563,0.2037672
-8.5919,1.4971326999999999,-1.2907524,0.33707544,-0.15168656,0.15959291
-8.840139,1.4564312,-2.0087736,0.29342476,-0.04256858,0.10527826
-9.672938,1.9632741000000002,-2.4263127,0.13479178,-0.0755553,0.08133234
-10.237281,2.8241334,-2.4920478,-0.065327674,0.07347836,0.06377433
-10.707215,2.6435914,-2.6049201,-0.2287603,0.30077258,0.00413643
-11.002353,1.2171068,-3.3376322,-0.31340876,0.49399799999999994,0.021711895
-11.206721,0.75926834,-3.2034802000000004,-0.37355283,0.54564226,0.056845374000000004
-12.480984,0.26750895,-0.2919202,-0.21917845,0.44289476,0.10314896
-12.347779,-0.99926317,0.74660784,0.016615533999999998,0.39924407,0.13934709
-11.853224,-0.77266634,1.3014019,0.13159783,0.36730453,0.18299778
-9.993628,1.3061903,0.8476239999999999,0.08794714,0.16023868,0.13562953
-9.028554,1.950087,0.9645664,-0.16488126,-0.014346606000000001,0.076532684
-9.534976,2.1019368,1.0480857,-0.42678535,0.07506661,0.14201744
-10.939528999999999,1.7071328000000001,0.78367966,-0.5093045,0.066549405,0.20322613
-11.093744000000001,1.1589181,0.3836277,-0.48268825,0.066549405,0.21069615
-10.40205,0.8411405000000001,0.110324815,-0.32086134,0.07878416,0.12126548
-10.040113,0.21125478,-0.19013792,-0.12601277,0.03460988,-0.026703538
-9.945916,0.18396087,-0.5524477,-0.04511676,-0.015411257,-0.14330898
-9.541333999999999,0.4946325,-0.9518963,-0.07705629,-0.089936815,-0.23431045
-9.053244,0.53095734,-1.0480187,-0.15371114,-0.1314582,-0.26837927
-8.903155,0.42861956,-0.96226794,-0.23834217,-0.19214329,-0.23591615
-8.745655000000001,0.31212729999999994,-0.5744551999999999,-0.2894454,-0.27518606,-0.17416641
-8.41355,0.22903891,-0.18869182,-0.27986354,-0.32787755,-0.12997466
-8.075766999999999,-0.12190317,-0.18873972,-0.21279055,-0.30340803,-0.12838642
-8.071563000000001,-0.42934743,-0.47042233,-0.13348278,-0.23527038,-0.13583897
-8.243121,-0.45989743,-0.8272828999999999,-0.08290314,-0.18788469,-0.101229094
-8.341341,-0.47817954,-1.1765202,-0.023823743999999997,-0.102712624,-0.046931904
-8.478759,-0.48114833,-1.4126173,0.029932396,-0.0691674,0.023317598
-8.469488,-0.6541055,-1.3405327,0.06452482,-0.104841925,0.10049606
-8.510352000000001,-1.0610527,-1.7638276000000002,0.10019935,0.119258344,0.15426965
-10.104776,-0.90739286,-1.7955556000000001,0.19017108,0.27895597,0.2075022
-11.388729,0.24442883,-1.7000269000000001,0.23860396,0.07293731,0.17076302
-10.656813,1.0410466999999999,-2.4051957,0.14330898,0.056967545,-0.011274827
-10.39569,0.7528998,-2.901102,0.10871656,0.37370990000000004,-0.11294025
-12.014956,0.6198684,-2.150156,0.042184606,0.35135224,-0.14487977
-12.760759,1.6550349999999998,-1.1117811000000002,-0.0344528,0.11819369,-0.21355848
-12.217353,2.6108866,-0.28233382,-0.09300859,-0.06757915,-0.37325612
-10.523819,1.5826056,0.045987825999999996,-0.11484266,0.0026703537,-0.4605575
-10.151530000000001,-0.36660016,2.0495514999999997,-0.041922808,-0.11229448,-0.38549086
-11.163061,-1.1242118,3.9242307999999997,0.22476350000000003,-0.34917057,-0.26677358
-11.24343,-0.7199365,3.0546854,0.5351005,-0.23952898,-0.14702654
-11.164546000000001,-0.108993635,1.1963251,0.5771629,-0.08194321,-0.12891002
-11.0679245,0.33538935,0.03298252,0.53190655,0.08730136599999999,-0.026703538
-11.0416565,0.96942186,-0.658032,0.49624947,0.16982053,0.076532684
-10.857255,1.5293777,-1.3484432,0.42437682,0.10700613,0.18301523
-10.035028,1.526907,-1.4457339,0.28651324,-0.012217305,0.22560126
-9.09247,1.5446719,-1.0963815000000001,0.1795071,-0.01754056,0.24741787
-8.599158000000001,1.5596883,-0.6803842,0.111910515,0.014381513,0.26232300000000003
-8.575628,1.5410614,-0.5050425000000001,0.04749041,-0.012217305,0.27349308
-8.309258,1.5050431,-0.27161740000000006,-0.04670501,-0.09632472,0.2905275
-7.689361999999999,1.4897871999999999,-0.017544711,-0.09622,-0.08513716,0.26977554
-7.4679556,1.520567,-0.2732263,-0.0988729,-0.027646014,0.23837706
-7.613159,1.3001376,-0.7087699000000001,-0.06799803,0.004276057,0.19046777
-7.852646400000001,0.88403505,-1.0888255,-0.04564036,-0.014870205,0.1409528
-7.988158,0.36493382,-1.0462757,-0.0137008345,-0.007958702,0.09410815
-8.167369,0.018971656,-1.5458785,0.027803095,0.08997172,0.059515726
-9.402883000000001,0.7179061999999999,-2.2732465,-0.0073129297,0.113394044,0.031293754
-10.220099000000001,2.0683602999999997,-2.771729,-0.12123057,-0.054803338,0.019582594
-10.695598,2.4653572999999995,-2.8237502999999995,-0.27719320000000003,0.015987216000000002,-0.050125855999999996
-11.170685,1.3546776000000003,-2.9943993,-0.36770597,0.20495401,-0.11454595599999999
-11.229333,0.07455544,-4.023111,-0.46031314,0.36891025,-0.13796827
-11.461714,0.40726328,-3.8982010000000002,-0.59767056,0.36945128,-0.13477433
-12.4776125,0.762084,-1.6655693999999999,-0.6232222,0.30874875,-0.10976376
-11.864102,0.64268994,-0.31980790000000003,-0.5699896,0.31674236,-0.05066691
-11.583253,0.9595769000000001,0.6147448,-0.46778315,0.46366417,-0.021397736
-11.484766,0.9309613999999999,0.30526072,-0.40922734,0.36517525,0.0052010813
-10.217409,0.9445892,0.85758394,-0.5305801,0.037803832,0.045675267
-8.989117,1.8085798999999998,1.3988746,-0.6439741,0.12191125,0.10051351
-9.841366,2.3073592,1.1815289,-0.6860366,0.15598008,0.11168362
-10.664684,1.9346107,0.30718568,-0.6823016,0.20601867,0.11540117
-10.673361,1.2944108,-0.37852329999999995,-0.60938174,0.21718878,0.06588618
-10.263761,0.47345817,-0.405233,-0.48481756,0.17301449,-0.012339477
-10.055772,0.099560484,-0.20454144,-0.35971236,0.07187266,-0.082606435
-9.175471,0.22516988,-0.35737768,-0.29476866,-0.039374627,-0.16510814
-8.609875,0.19774191,-0.55629754,-0.27986354,-0.06279694,-0.22314034
-8.507164,-0.26169583,-0.8480646000000001,-0.27506390000000003,-0.11761774,-0.20982349
-8.717365,-0.71725494,-0.8784421999999998,-0.24685937,-0.144234,-0.13796827
-8.776712,-0.7012904000000001,-0.7541544,-0.17872171,-0.16126843,-0.06557202
-8.510363,-0.46346000000000004,-0.67265576,-0.096202545,-0.16872098,-0.038955748
-8.387137,-0.17457561,-0.799376,0.006510078000000001,-0.12346459,-0.02776819
-8.426249,0.01769794,-1.2441996000000002,0.101787604,-0.028187068,-0.009145525
-8.416012,0.0247752,-1.7703779999999998,0.17633061,0.038868482999999995,0.0041538836
-8.487206,0.04981855,-2.112404,0.19921188,-0.0052883476,0.027576202999999997
-8.211058999999999,-0.14071202,-2.2315492999999997,0.19654153,-0.06277949,0.072815135
-8.66362,-0.7603409999999999,-2.168352,0.29236009999999996,0.04951499,0.11965977400000001
-10.396341,-1.1137921999999998,-1.2736003,0.48134434,-0.039898228,0.14149384
-11.363082,-1.0993311000000001,-1.2919782,0.6729815,-0.020734511,0.082920596
-10.910923,-0.6113738000000001,-2.3412132000000003,0.7815759,0.15863298,-0.055990162999999996
-10.934242,-0.33557132,-2.7224658,0.94926715,0.32792990000000005,-0.15713198
-12.614666,0.8409394,-1.5289563,1.0248399,0.1794024,-0.14381513
-12.622652,2.6623235,-0.8954027,1.0812663999999998,0.023963371,-0.16671385
-11.679309,3.6263824000000002,-1.0271796,1.0903246000000002,0.015987216000000002,-0.30085987
-10.667710000000001,1.6257778,-1.075121,0.9748013000000001,0.026092672999999997,-0.3477045
-10.144012,-0.22216277,0.14089398,0.91200435,-0.073967054,-0.27796113
-10.351656,-0.21238483,1.3272973999999997,1.0232516999999999,-0.30871382,-0.1725607
-10.590866,0.06432741,1.6094973,1.265992,-0.38378045,-0.09590584
-10.999642,0.35845986,0.21464497,1.2819618,-0.33693582,-0.06928957
-10.970107,0.76060915,-1.1070693999999999,1.1211995000000001,-0.2070484,0.02703515
-10.303628999999999,1.6502563000000001,-1.8737693,0.9412735000000001,-0.10749483,0.16065755
-9.775210000000001,2.775579,-2.2168295,0.7826405,-0.043615777,0.25967008
-8.998052000000001,2.806397,-2.1310406000000004,0.6357187,-0.002094395,0.27989846
-8.5799,2.2664470000000003,-1.8131960999999999,0.52873003,-0.006894050600000001,0.26019368
-8.301243,1.7440897000000002,-1.5137962,0.4776268,-0.01966986,0.24424137
-8.265885,1.3437409,-1.1406839,0.44888124,-0.06332055,0.24476497
-8.283593,1.3035183000000001,-1.0136665999999999,0.39884263,-0.14636332,0.25115287
-8.252985,1.5830175,-1.0800436000000002,0.31419417,-0.16872098,0.23570672
-8.237012,1.773232,-1.3415766000000002,0.25350907,-0.18202038,0.19950859
-8.221919,1.8489558999999998,-1.7031298,0.19547687,-0.18788469,0.16863371
-8.247662,1.5368763,-1.9585145,0.13800319,-0.15008086,0.1388235
-8.417898,1.1847658,-2.1506252,0.084247045,-0.07714355,0.10423106
-8.92136,1.0414203000000002,-2.4526682,0.022479841,-0.01754056,0.06483898
-9.807197,1.3810904,-2.6551218,-0.07171558,-0.04096288,0.05206317
-10.475016,2.23176,-2.3709013,-0.14571753,-0.07449065,0.040352013
-10.868373,1.7878939999999999,-2.0834343,-0.13985324,-0.03509857,-0.017662732
-11.206387,0.39080074,-2.6028805,-0.11910127,0.10700613,-0.046931904
-11.69624,0.31639853,-3.4510120000000004,-0.15049975,0.27417377,-0.022968533
-12.899327,1.137284,-2.073302,-0.14837044,0.16343263,0.039287362
-13.233759,1.1638118999999998,-0.76695853,-0.08449139,-0.09098402,0.06538004
-12.043333,1.3121853,0.40298244,-0.015289084,0.043668135999999996,0.09519026
-10.235624000000001,2.3921523,-0.61893946,0.051766466,0.17355554,0.10103711
-8.945149,2.600486,-0.02602976,-0.077579886,-0.060650192,0.019058995
-8.080632000000001,1.4702697,0.28742870000000004,-0.2665467,-0.013805554,0.025446901
-8.854563,0.8666052,0.52394706,-0.40975094,0.11712904,0.08028515
-9.814829,0.9067704,0.62392896,-0.44275513,0.106482536,0.12020083
-10.337953,1.0761074,0.3618405,-0.29742154,0.16290903,0.07229154
-10.164353,0.86532193,0.15285541,-0.11430161400000001,0.08890707,-0.02883284
-10.005589,0.44710281,0.17056292,0.06558947,-0.04574508,-0.11028735
-9.587159,0.7910251,-0.4465665,0.10712831,-0.088872164,-0.19278906
-9.42488,0.7568359,-1.0256281999999999,0.022497293999999998,-0.026040312000000003,-0.23109904
-9.366462,0.3885119,-1.4218016000000002,-0.08874999,-0.0031590459999999996,-0.19598302
-9.168873,-0.20411049,-1.4515662,-0.18085101,-0.03351032,-0.13636257
-8.930669,-0.36637990000000004,-1.3186496,-0.22237240000000003,-0.088872164,-0.07674213
-8.709675,-0.07071514400000001,-1.1427333,-0.20586158,-0.10962413,-0.0474555
-8.278393,0.40064573,-1.0801393,-0.16327555,-0.12719959,-0.042132247000000005
-8.008576,0.5166687,-1.2698079,-0.09993755,-0.05586799,-0.0453262
-8.046232,0.39720765,-1.7407761999999998,-0.057334065,-0.004223697,-0.025097834
-8.146721000000001,0.018492812,-2.0225737,-0.029670598,-0.021799162,0.013735741000000001
-8.180192,-0.10412862,-2.080772,0.025673794,-0.023928462999999997,0.06536258
-8.284522,-0.33288023,-2.2311852,0.057613317000000004,0.0037350047,0.056862827000000005
-9.669559,-0.6920871,-1.6259407,0.118839465,-0.09258971,0.03822271
-10.727019,-0.29434317,-1.113007,0.3003537,-0.08674286,0.056321774000000005
-10.392626,0.16470192,-2.4434742999999997,0.38765508,0.16023868,-0.028291788
-10.668476,0.086085916,-3.3003974,0.4866675999999999,0.42055455,-0.1060113
-12.620861999999999,0.70908594,-1.9706866000000003,0.5202127999999999,0.17462020000000003,-0.12198106
-13.722913,2.7822635,-1.0468311,0.4717625,-0.13624041,-0.23750441
-12.734529499999999,4.638861,-0.76589555,0.3498687,-0.31297243,-0.46799257
-10.272399,1.7037522,-0.52007806,0.20879374,-0.11442378,-0.5776690999999999
-10.220301,-1.8487643,1.5109328000000002,0.23860396,0.06335545,-0.3279997
-10.997948,-2.221187,3.1885402000000003,0.5803569000000001,-0.2554813,-0.14381513
-10.637889,-1.0959697,2.7136457000000003,1.0072819,-0.25654593,-0.11081095
-10.734404,0.120524116,0.90379196,1.149945,-0.16072737,-0.12571606
-10.838877,0.8002092,-0.5524477,1.0360274,-0.0712967,-0.036285397000000004
-10.746862,1.3344322,-1.0328586,0.8465196,-0.03190462,0.077091195
-10.455392999999999,1.849291,-1.4871345,0.6937509,-0.02391101,0.2096315
-9.557893,1.7926825000000002,-1.6575251,0.53777087,-0.06757915,0.32354912
-8.817193,1.6399993999999998,-1.4888966000000001,0.43769366,-0.04787438,0.3671998
-8.632696000000001,1.5173589,-1.2094454,0.43184683,-0.024993114,0.35177112
-8.788176,1.4726256000000002,-1.0920242,0.45153412,-0.06810275,0.31876692
-8.8133335,1.3699048,-0.97528285,0.4291939,-0.17296213,0.29799749999999997
-8.401608,1.2003857,-0.8974521999999999,0.35571554,-0.21237166,0.2719223
-8.211824,1.2387887,-0.969757,0.29078930000000003,-0.18947294,0.25967008
-8.21826,1.3076938,-1.0565325,0.24288002,-0.21183062,0.24050637
-8.078793,1.1136198999999998,-1.1118002,0.19549432,-0.23631757,0.20217894
-8.032882,0.858101,-0.9606111999999999,0.18217747,-0.1969255,0.16065755
-7.867719999999999,0.8634162000000001,-1.4085568000000002,0.17313667,-0.04522148,0.117006876
-8.692167999999999,1.5557809999999999,-2.1045992,0.08742354,0.05057964,0.07920304
-9.821015,2.6363993,-2.7007074,-0.07970919,-0.03351032,0.042481314000000006
-10.634757,2.6215935,-2.495802,-0.26813492,0.04207989,-0.033073988
-11.2029,0.6721003000000001,-2.734571,-0.31499702,0.3300592,-0.050649453
-11.578225,-0.14504074,-4.095473999999999,-0.3442662,0.49560368,-0.0027401668
-12.486958999999999,0.8074589,-3.010728,-0.31977922,0.32634166,0.016947147
-12.579203,1.1087643999999999,-1.4783716999999998,-0.11962487,0.18633135,0.039828412
-11.067848,1.2275358,-0.3579906,-0.017418386,0.1703616,0.04728097
-10.529278,1.6186816000000002,0.34574187,-0.027523842000000003,0.3103719,0.049410272000000005
-10.3822155,1.5178856,0.38039076,-0.15315264,0.11128219,0.05899213
-9.242021000000001,1.1053549999999999,1.2492082,-0.33733723,-0.15221016,0.11009537
-8.754695,1.5618527,1.4400452,-0.45924848,0.061767202,0.1558579
-10.066181,2.0280994999999997,1.0602196000000002,-0.56677824,0.07880162,0.16278686
-11.060886,1.6025063,0.57449347,-0.55133206,0.14374532,0.11222467
-11.368149,0.7712394,-0.39021659999999997,-0.42624432,0.21561797,0.021205751000000002
-10.88565,0.18084842,-0.5709405,-0.29368654,0.11712904,-0.05862561
-10.173001,0.37626314,-0.38376182,-0.14943509,0.03460988,-0.12678072
-9.210139,0.58057475,-0.5392316999999999,-0.070109874,-0.025516712999999996,-0.21408209
-8.689152,0.06461471,-0.87604797,-0.04935791,-0.004223697,-0.28700194
-8.680532000000001,-0.6526115,-0.9716341000000001,-0.028588492000000004,-0.059044488,-0.3072303
-9.217552,-0.6877966999999999,-0.6758065,0.008115780999999999,-0.19160224,-0.23961625
-9.16509,0.02297476,-0.43184695,0.04059636,-0.28900906,-0.13529792
-8.362199,0.5492778,-0.5345965,0.060824725999999996,-0.24855234,-0.10972885
-8.053194,0.5295687,-0.9188276,0.05921902,-0.14262831,-0.12198106
-8.217369,0.32255644,-1.2084398,0.06721263,-0.06649704,-0.09909979
-8.410228,0.14856501,-1.5846358999999999,0.08583529,-0.030298917,-0.063425265
-8.617881,0.088777,-1.5543636,0.10978121,-0.10164797,-0.01818633
-8.404089,0.25284684,-0.9601610999999999,0.14864969,-0.26984537,0.04569272
-7.7962103,-0.14974295,-1.0831847,0.12629202,-0.1388933,0.013735741000000001
-9.236858999999999,-0.7200801,-1.5337256000000001,0.22317526,0.16503833,0.003630285
-11.516436,-0.41465658,-0.9234532,0.39193115,0.0032114058000000003,0.019600047
-11.403583,-0.38355112,-1.7736724999999998,0.5095662999999999,-0.0074176495,-0.062360615
-10.576883,-0.39382702,-2.8500192,0.5707925,0.2432989,-0.17254324
-11.575984,-0.2900336,-2.7990515,0.61657244,0.38809142,-0.20341812
-12.981093,1.6458700000000002,-1.9145952000000002,0.5297947,0.16610299,-0.21247639
-12.318321000000001,3.663186,-1.3663421999999998,0.39618975,-0.18360864,-0.3136182
-10.553326,3.2738602,-0.26219383,0.36690313,-0.15221016,-0.4349884
-10.072512,0.48254657,1.0490913,0.43717006,-0.04733333,-0.4051782
-10.563802,-0.5985696,2.4729326,0.6831044,-0.24377014,-0.2987131
-10.989702000000001,-0.97500515,2.6990504,1.0088875,-0.44338346,-0.22896974
-11.103417,-1.0305411,1.7348194,1.230335,-0.45350635,-0.1757372
-11.257709,-0.5009819000000001,0.26843790000000006,1.2500396999999999,-0.33639476,-0.07513642
-11.018317,0.54791784,-0.9202640999999999,1.2021304,-0.16870353,0.10157816
-10.601142,1.9181482,-1.3530879,1.1840313999999998,-0.12346459,0.23998277
-9.585896,2.0190303,-1.5214193999999999,1.1350573999999998,-0.21554816,0.31930798
-8.702339,1.494068,-1.3977923,1.0674608,-0.23258257,0.33475414
-8.171133,1.2344121000000001,-1.4775481000000001,1.0094286,-0.13091715,0.3347367
-8.090103,1.1841242,-1.5706155000000002,0.9737541,-0.09417797,0.32196090000000005
-8.405133,1.4468927,-1.5023137,0.9295798000000001,-0.1995784,0.31450832
-8.431632,1.9029976999999998,-1.150414,0.8694183000000001,-0.3289422,0.28682742
-8.174963,2.0029604,-0.82761806,0.8066039,-0.3688579,0.24743533
-8.125998,1.7074968999999998,-1.3775567,0.6969449000000001,-0.31349605,0.19952604
-8.3479395,1.7513202,-2.0226693,0.5404412,-0.19638444,0.16919221
-8.784671000000001,2.2792513,-2.0555754,0.42812926,-0.15273376,0.13938199
-8.824491499999999,2.5062025,-1.2923613999999999,0.42067669999999996,-0.20331341,0.0829555
-9.315351,2.0668759999999997,-1.2838666,0.35253906,-0.07661995,0.014276793000000001
-10.7486925,2.1894975,-1.7623813999999998,0.17900097,0.0005585053599999999,0.011623893
-11.531165,2.5515964,-2.1674322999999998,-0.012095132,0.18154915,0.03398156
-11.49211,2.0441215,-3.0628831,-0.12494812,0.37531559999999997,0.040369466
-12.147509,1.6889081999999997,-2.2564585,-0.19360937,0.39287362,0.028658306
-12.742525,1.1154298,-0.5455715,-0.039776053,0.43545964,0.042498767
-12.142299000000001,0.39381745,0.43085095,0.1699427,0.4966858,0.069115035
-10.979455,0.16916472,0.01661576,0.3434808,0.45942299999999997,0.10850712
-8.977203,0.5736316,0.51168877,0.24075072,0.15280357,0.0829555
-7.969894999999999,0.6734985,1.264895,0.050701816,0.16557938,0.09998991
-8.873714999999999,1.4437706,1.1636298999999999,-0.022724187000000003,0.2975961,0.16653931
-10.286363,1.7207606,0.9643653,-0.0051661744,0.22891739,0.25062928
-10.798731,1.5607321,0.64449036,0.09009389599999999,0.20284216,0.23465952
-10.702589,1.2376969,0.0053055509999999995,0.21413444,0.18580775,0.13618805
-10.544686,0.93755984,-0.12663412,0.2881364,0.07667231599999999,0.035046212
-10.206119000000001,1.0420907,-0.4571872,0.30037117,0.011728613,-0.078330375
-9.796173,1.0416213,-0.71076185,0.25193828,-0.04201007599999999,-0.17732546
-9.578923,0.82902586,-0.6127336999999999,0.17687167,-0.12185889,-0.20608848
-9.384227000000001,0.53219277,-0.5226255,0.12363912,-0.23151793,-0.18638371
-9.158616,0.10128431,-0.2840768,0.13376203,-0.337983,-0.14699163
-8.600987,-0.25813323,-0.044101197,0.18858282,-0.40133846,-0.10814059999999999
-8.051394,-0.33068714,-0.16422309,0.24713862,-0.36566392,-0.08471828
-7.8236669999999995,-0.27072674,-0.43317813,0.2844014,-0.3039142,-0.040526547
-7.919282000000001,-0.05507622,-0.8467429,0.31740558,-0.21554816,0.013753194
-8.121908,0.6129348000000001,-1.4670998,0.2929186,-0.15540412,0.09892526
-8.188092999999999,1.3675201000000001,-1.7483418000000002,0.2955715,-0.14953981,0.17716837
-8.120011,1.4192827,-2.215642,0.29930650000000003,-0.079796456,0.1537635
-9.329802,0.54651964,-2.251871,0.20083503,-0.1953198,0.06646214
-10.754505,-0.15846743,-1.1609867,0.08157669,-0.25387558,0.043563418
-11.0211525,0.71507144,-1.3622433,0.15557864,-0.021781709,0.0845612
-10.657128,1.2150766000000002,-3.0586119,0.09276425,0.3061133,0.039304815
-11.260572,0.6047945,-3.480001,0.012915436,0.43971825,0.028658306
-12.656775,1.2953589,-1.6623516999999999,-0.009948377,0.11873475,0.051015973
-12.091034,2.4875374,-0.72214866,-0.029653143,-0.14582226,-0.10388199999999999
-10.533702,1.5730575,0.6568062,-0.05094616,-0.14953981,-0.36791540000000006
-9.803758,-0.79556453,0.6357371999999999,-0.016877335,0.18846065,-0.42327726
-10.129503999999999,-1.5610865,2.325603,0.217852,-0.010611602,-0.25877997
-10.228154,-1.0665593999999998,3.3245022000000004,0.599538,-0.29752627,-0.15763813
-10.607022,-0.09469546400000001,2.429291,0.8907288000000001,-0.34437090000000004,-0.11931071
-11.087816,0.74145555,1.0266145,0.97907734,-0.23577653,-0.09801769
-11.11852,0.8257697,-0.68526846,0.8470781,-0.06756169,-0.037873644
-11.280606,0.794128,-0.9540511,0.65542346,0.015463616999999999,0.054733526
-11.034253,0.76001537,-1.002979,0.60379666,0.025569074,0.20326105
-10.184733,0.9112619000000001,-1.3125494,0.5777213999999999,-0.04787438,0.30174997
-9.38212,1.4165821,-0.98048306,0.5628163,-0.06649704,0.34698892
-8.830486,1.7964653000000002,-0.9972424999999999,0.5250125,-0.0723439,0.34166566
-8.516003,1.7250893,-0.87436247,0.42760566,-0.09524262,0.30920252
-8.203712,1.3938851,-0.5542769000000001,0.33923966,-0.12398819,0.2713987
-7.8918157,1.2992375,-0.59806204,0.23755677,-0.19266689,0.24637067
-7.760795599999999,1.6101006000000002,-0.60604906,0.13695599,-0.21341886,0.24371777
-7.8806009999999995,1.8765943999999999,-0.7845225,0.05284857,-0.15699236,0.2144486
-8.184655000000001,1.5316762,-0.9880392,-0.008360127,-0.12346459,0.1564164
-8.296158,1.1141945,-1.2576261999999998,-0.02591814,-0.048921578,0.10053097
-8.908461,1.2438643999999999,-1.2318072,-0.02432989,0.011728613,0.06379178
-9.631126,1.7285753000000001,-1.8285571,-0.09246755,0.08892453,0.04462807
-10.72838,1.837952,-2.2695885,-0.22074924,0.20177752,0.00045378560999999995
-11.311272,1.4736886,-2.79411,-0.3160442,0.26832690000000003,-0.023492131
-11.286064999999999,1.02536,-3.2492862000000002,-0.39428732,0.30452505,-0.038397245
-12.384841999999999,0.89011633,-1.8229259999999998,-0.4677657,0.15706217,-0.049043752
-12.550491000000001,0.46952209999999994,-0.13695791,-0.39163443,0.16451474,0.016947147
-11.346074,0.12892297,1.0114353,-0.36128315,0.34869933,0.066985734
-10.695416,1.0778888,0.6713724,-0.2888869,0.38756782,0.1516342
-9.513093,1.9276963,0.6054649000000001,-0.38577009999999995,0.09157742599999999,0.13618805
-8.581078,1.7237198,1.0794115,-0.60189426,-0.0031415927,0.16334537
-9.412114,1.9023848,1.2687354,-0.77703804,0.08946557,0.22029546
-10.680208,2.0333188,0.95791054,-0.8707273000000001,0.14535102,0.24958208
-10.891099,1.5203468,0.46164995,-0.7898138000000001,0.28375563,0.17612118
-10.544141,0.5979375,0.23603955,-0.6343748,0.22945844,0.03398156
-10.296006,-0.1224299,0.23697808,-0.47787115,0.14376277,-0.08204792400000001
-10.173097,-0.11003751,0.278302,-0.37034142,0.01972222,-0.19116591
-9.537819,0.122477785,0.17506403,-0.31710887,-0.09311332,-0.29230773
-9.125825,0.033700783,-0.20667706,-0.3117856,-0.11334168,-0.33649948
-8.966553999999999,-0.19190964,-0.40931273,-0.30965632,-0.17509143,-0.3034953
-8.862636,-0.29513803,-0.27473944,-0.28782225,-0.26930429999999994,-0.23109904
-8.695855,-0.33979467,0.035606567,-0.23938936,-0.36726964,-0.16137314
-8.49731,-0.34244746,0.055622093,-0.19626227,-0.43060762,-0.11185815
-8.4225235,-0.42575609999999997,-0.14469597,-0.12812462,-0.37843975,-0.06925467
-8.62336,-0.46305776,-0.5336484,-0.06798057,-0.29592058,-0.029338984
-8.688041,-0.19155528,-1.0286353000000001,-0.039235003,-0.28527406,0.007906342
-8.426881,-0.04995262599999999,-1.1644248,-0.04082325,-0.32040754,0.020682152
-7.9555297000000005,-0.009155426999999999,-1.7146313999999998,-0.05466371,-0.08937831,-0.006981317
-9.263913,0.11051635,-1.8559468999999997,0.023561945,0.16292648,0.021746803
-10.601066000000001,0.9183486999999999,-1.3534423,0.12363912,0.04740314,0.029199357999999998
-10.230567,0.3431274,-1.7532643,0.046460666,0.040491637000000004,-0.06181956
-10.401494,0.24203464,-1.6987148999999997,0.060301125,0.35136968,-0.087371185
-12.241677000000001,1.4150593999999999,0.07399998599999999,0.15931365,0.15599753,-0.096935585
-12.79312,3.1803424,-0.29742688,0.18486528,0.025045475,-0.17467254
-12.910101,3.6740459999999997,-0.22366633,-0.012077678,-0.17509143,-0.33649948
-11.212143,1.2258505,0.94162035,-0.11641346,-0.09737192,-0.37428585
-10.360745,-1.3154032,3.2431471000000003,0.019844393999999998,0.020786871999999998,-0.25132743
-11.059144,-2.0189729,4.440459,0.41535345,-0.04733333,-0.13154547
-11.186304,-0.91736233,2.4572363,0.74220127,0.035168383,-0.08150688
-11.097355,0.15794070000000002,0.45294464,0.82472044,0.15227997,-0.040526547
-10.6628065,0.8317744,-0.6105885,0.7730935999999999,0.12938125,0.021746803
-10.31696,1.4175302,-0.5487702,0.72038466,-0.001012291,0.08030259599999999
-9.684173,1.5978328000000002,-0.30237812,0.6873805000000001,-0.08299041,0.16814502
-8.884672,1.5176174999999998,-0.29798234,0.6384065,-0.084596105,0.23254767
-8.162907,1.5827014,-0.5559623,0.5697453,-0.04946263,0.27619836
-7.882861,1.7505349,-0.5555601,0.49415508,-0.030822514,0.29642670000000004
-7.9639196,1.7903266,-0.21773829,0.46540950000000003,-0.08299041,0.26448720000000003
-8.181696,1.7611651000000001,0.06283343,0.45687485,-0.21181315,0.19580849
-8.143063,1.752029,-0.057307612,0.43931684,-0.26771605,0.1542871
-8.047544,1.7049876,-0.48256570000000004,0.38501963,-0.20968385,0.14152876
-8.260073,1.6122172,-1.0450306999999999,0.30784118,-0.15699236,0.122365035
-8.385769,1.4756806,-1.2200853,0.25035003,-0.14048155,0.07658505
-8.498641000000001,1.4730374,-1.3738503,0.25406757,-0.042533673,0.03132866
-9.253024,1.7065008000000002,-1.6614324,0.2088112,0.05804965,-0.006981317
-10.067522,2.3060281000000002,-1.7962258000000002,0.13376203,0.09105383,-0.037332594
-10.8817425,2.0887113,-2.0244412,0.021432644,0.15760323,-0.1044056
-11.473532,1.3363572,-2.584598,-0.06424557,0.28110272,-0.1155757
-11.525811000000001,1.1720191,-3.0463345,-0.17709856,0.33965853,-0.10119419
-12.353545,1.5795218999999998,-1.5112967,-0.22553144,0.30291936,-0.10758209
-12.337102,1.4893372,-0.31126538,-0.10843731,0.40353757,-0.054367005999999996
-11.036092,0.8599207,0.8525944,-0.049340457000000004,0.39182642,-0.03626794
-10.514204,0.6499108,0.8851747,-0.053075462999999996,0.3423114,0.018011797
-9.660067999999999,0.8197459,1.3417584999999999,-0.1701696,0.09744173,0.0861669
-8.414968,1.4870098999999999,1.7195444,-0.31763247,0.13470452,0.1585457
-9.498181,2.449067,1.7806731,-0.40441024,0.20764183,0.21125466
-11.006548,2.2124052000000005,1.0065607,-0.43526766,0.20764183,0.19528489
-11.693003,1.2572623,0.16528611,-0.38364083,0.25235716,0.14791666
-11.151234,0.48331273,-0.020350713,-0.2761111,0.26778588,0.07126179
-10.747217,0.44501504,-0.17192283,-0.173381,0.26832690000000003,-0.012304571
-10.204517999999998,1.1202756999999999,-0.5631736999999999,-0.15048228,0.16824974,-0.10864674
-9.483385,1.2751136,-0.522817,-0.15899949,0.050597094,-0.19275416
-8.917032,0.9757521,-0.45879608,-0.18987437,-0.046792275999999994,-0.23427555
-8.737611,0.41367975,-0.39327157,-0.21861994,-0.15484561,-0.21511184
-8.761619999999999,-0.15887922,-0.15987521,-0.24043655,-0.26665140000000004,-0.15603243
-8.263205000000001,-0.1385764,0.07399998599999999,-0.22926645,-0.3321187,-0.10173524
-7.614269999999999,-0.13969688,-0.10632171,-0.13770647,-0.249617,-0.104929194
-7.7070217,-0.119786695,-0.51858413,-0.0397586,-0.15912166,-0.116116755
-8.152659,-0.023223756,-0.8160588000000001,0.024644048999999998,-0.14847516,-0.08522443
-8.240469000000001,0.24657404,-0.85362864,0.05551892,-0.15751596,-0.023474678
-8.247239,0.36999035,-0.9752542,0.09862856,-0.133029,0.026005406000000002
-8.342614999999999,-0.092176765,-1.5376903999999998,0.12363912,0.01706932,0.030264008999999998
-9.946558,-0.48903963,-1.041267,0.18486528,0.0016406095,0.030264008999999998
-11.056424,0.14806701,-1.0901566999999999,0.3658559,0.14215706,0.049968775
-11.150477,1.0804553,-2.5734317000000004,0.4025951,0.27632052,-0.07031932
-11.254175,1.0508726000000002,-3.1988642000000005,0.37437314,0.39608502,-0.15655604
-11.912791,0.46524128,-2.9971287,0.35362116,0.39502037,-0.15709709
-12.249108999999999,1.1093389999999999,-1.7897710999999998,0.28441885,0.18315485,-0.13739231
-11.306569,1.8507083999999998,-0.9858844000000001,0.26206118,0.047944195999999994,-0.22736403
-10.549091,1.6401814,-0.4255167,0.18060666,0.0543321,-0.29708993
-9.659808,0.41839153,0.705916,0.21148154,0.10278243599999999,-0.26462683
-10.068997,-0.21509507,2.6692953,0.45476300000000003,-0.196367,-0.20607102
-10.757953,-0.2693477,2.7837669999999997,0.7347661999999999,-0.29537952,-0.15070918
-10.762205,-0.032877177,1.2334545,0.7917163,-0.1325054,-0.13686872
-11.142002,0.24387339,0.2752853,0.6730164000000001,-0.012723451,-0.076183625
-10.817989,0.97147125,-0.55151874,0.5606869999999999,0.13631022,0.039845865
-10.636787,1.5177995000000002,-0.94287497,0.46221554,0.13044591,0.10958923
-10.389014999999999,1.5918281,-0.9988322000000001,0.45156905,0.0522028,0.16653931
-10.069898,1.3556353,-1.2017263999999999,0.45263368,-0.056915186,0.20912535
-9.41672,1.3909738,-1.1360201,0.43134066,-0.12025318,0.24212952
-8.754782,1.3935499,-0.9491956,0.40844196,-0.13622294,0.25597
-8.4402895,1.2983851,-0.78907144,0.3525565,-0.16231562,0.25277603
-8.260752,1.2120885000000001,-0.6507056999999999,0.2854835,-0.20755455,0.23947662
-8.05397,1.4784195,-0.8634353000000001,0.21521655,-0.21926571,0.24586453
-7.9526477,1.8142207,-1.212213,0.13056809,-0.21766001,0.22989477
-8.130258999999999,1.8138664,-1.4200201000000001,0.06510078,-0.19903734,0.18305013
-8.350861,1.5517396,-1.3096378999999998,0.049654618,-0.18200293,0.11650073
-8.483184,1.0404052,-1.30348,0.08052949,-0.099483766,0.05581563
-8.77928,1.1796518999999999,-2.7356147999999996,0.0070685832999999995,0.111823246,0.009512044499999999
-9.770182,1.8626218,-2.950279,-0.18242182,0.11979939999999999,-0.02453933
-10.648480000000001,2.6166902000000003,-2.3911562,-0.33252013,0.23586379,-0.040509094
-11.192941000000001,1.9023273,-2.5497767999999996,-0.37245327,0.39130282,-0.026145032000000002
-11.094874,0.9700539,-3.4790049,-0.40865138,0.5371425,0.02974041
-11.6739645,0.8014064000000001,-2.4791383999999996,-0.46774822,0.5100027,0.060074233
-12.392656,-0.13354857,-0.27821583,-0.38789943,0.39554396,0.098401666
-12.172151,-0.6128965000000001,0.6053978,-0.28995153,0.38863248,0.16175711
-11.613985000000001,0.43827298,0.8310466000000001,-0.16804029999999998,0.28110272,0.18837339
-9.999958,1.6417615,0.9764321,-0.17868681,0.062849306,0.08883726
-9.502902,1.6733363,1.3126067,-0.3559599,0.005881759300000001,0.032934364
-9.905052,2.043499,0.6587215,-0.48104766,0.044750242999999995,0.058485985
-10.50073,1.8631678,0.0474435,-0.60667646,0.002687807,0.07126179
-10.881895,1.0179955,-0.04738604,-0.6721611999999999,-0.04998623,0.03932227
-10.563784,0.24417028,-0.00024899697999999996,-0.6290340999999999,-0.068626344,-0.046373397000000004
-10.280788000000001,-0.2542738,0.027954700000000002,-0.5619611,-0.078731805,-0.15336208
-10.145009,0.16469236,-0.18662323,-0.5380151999999999,-0.108542025,-0.22842869
-9.595682,0.6777506,-0.6217454000000001,-0.59337705,-0.14845770000000003,-0.26302109999999995
-9.07323,0.71878725,-0.87436247,-0.68013734,-0.11812388,-0.2635447
-8.647396,0.47729847,-1.100557,-0.75412184,-0.11599458,-0.21031217
-8.507230999999999,0.012650962,-0.9091167,-0.81693625,-0.17135642,-0.13739231
-8.684871000000001,-0.34917995,-0.52855355,-0.8095011999999999,-0.25385815,-0.08841838
-8.674365,-0.5009149,-0.28903759999999995,-0.7466693,-0.36245254,-0.07138397
-8.495192999999999,-0.7183371000000001,-0.17801368,-0.6189286999999999,-0.3571467,-0.076183625
-8.529976,-0.76378864,-0.38186559999999997,-0.45762533,-0.25972244,-0.06764896
-8.478146,-0.57291335,-0.8505545,-0.34370768,-0.15910421,-0.053284902
-8.348112,-0.5591706,-1.2094741000000002,-0.26972318,-0.086725414,-0.02560398
-8.292662,-0.7907857,-1.1451274999999999,-0.21275564,-0.055309486,0.019617502
-8.379629,-1.0399646,-0.7066534000000001,-0.16697565,-0.10056587,0.06593854
-8.590808,-0.580048,-0.64477766,-0.12332497,-0.040927973,0.08032005
-9.769761,0.22908679,-0.89591026,-0.07061602,-0.069673546,0.05370378
-10.48011,0.3454354,-1.0176314,-0.042952552000000005,-0.07127925,0.0015184365
-10.453966000000001,0.48081318,-2.2291933999999998,0.011327186999999999,0.35084608,-0.045832347
-10.407689999999999,-0.32164663,-3.5560887,0.0922581,0.76712453,-0.06764896
-12.209845,-1.1704295,-2.3371336,0.10236356,0.46635200000000004,-0.03783874
-12.059297,-0.16238433,-0.6254804,0.15933111,0.20818287,-0.07403687
-11.957266,1.1491306000000001,0.52028877,0.21415189999999998,0.09320058,-0.15655604
-12.361828,2.299717,0.9108309000000001,0.32859313,0.12246975,-0.19861847
-11.133364,2.0879257,1.1397645,0.36852628,-0.109606676,-0.22949335
-10.162792,0.42984540000000004,2.2435297999999997,0.36372662,-0.23310618,-0.23162265
-10.799478,-0.1917085,2.662046,0.39140755,-0.22938862,-0.1741315
-10.772327,0.22220106,1.5505042,0.41643557,-0.10215412,-0.14058627
-10.633846,0.7504673000000001,0.4983004,0.37013197,0.027715827999999998,-0.13206907
-10.603717999999999,1.0242873,-0.55468863,0.27164304,0.1922131,-0.0538085
-10.66727,1.2191755,-1.1954249,0.11674507,0.2555511,0.055309486
-9.975413,1.2943723999999999,-1.4756135,-0.049323004000000004,0.19060741,0.13035864
-9.152047,1.3428502,-1.2946407,-0.20636773,0.13044591,0.18250908
-8.627936,1.470241,-1.2170014,-0.3064449,0.14376277,0.20273745
-8.725812,1.3867886999999999,-1.2607291,-0.40919244,0.13950416,0.19476129
-8.8008175,1.2178153999999999,-1.0463045,-0.47785370000000005,0.06497861,0.15962781
-8.625849,0.9932681000000001,-0.89881206,-0.48530626,-0.020699605,0.12077679
-8.210915,1.0011881999999999,-0.7995196999999999,-0.47359508,-0.024958208,0.12288863
-7.887400599999999,0.9934117,-0.8941193999999999,-0.4256858,0.040491637000000004,0.113324225
-7.971609599999999,0.84767187,-1.1804085,-0.39107594,0.08094837,0.08032005
-8.073114,0.57630354,-1.5654344999999998,-0.35754815,0.06710791,0.029199357999999998
-8.205791,0.2507687,-1.9783766999999999,-0.31974432,0.05274385,-0.013892821000000001
-8.632916999999999,0.21338083,-2.5656743,-0.25799456,0.13098696,-0.020804325
-9.788502000000001,0.78349775,-2.4493162999999996,-0.23883085,-0.0036651914,-0.013351769
-10.486853,1.6285839,-2.2883972999999997,-0.24202481,-0.05050983,-0.018151425
-11.338653,1.5875186000000001,-2.407255,-0.22659610000000002,0.06391396,-0.047420595
-11.585772,0.9854246999999999,-3.1922848,-0.20743237,0.2470339,-0.06871361
-11.866822,1.0323702,-3.8085332000000003,-0.25586528,0.30506609999999995,-0.06925467
-12.722491,1.114951,-2.1819222000000003,-0.33519047,0.22202334,-0.05806710599999999
-12.314221,0.68990356,-0.44856805,-0.36445966,0.36468655,0.037192967
-11.652311,0.6366566,0.0044532153000000005,-0.2803697,0.46155232,0.11969468
-11.657071,0.9854629999999999,0.23314735,-0.08925614,0.21563543,0.19317304
-9.701114,1.2578657,0.6864751,-0.13555972,-0.04944518,0.21233675
-8.693002,1.8141247999999999,0.94105536,-0.32454398,-0.023893557000000003,0.21872467
-9.561052,1.9265375,1.2288097,-0.43579125,-0.03933972,0.23095942
-10.667155000000001,1.6536847,0.6519315,-0.45869,0.0069638634999999996,0.22722441
-10.959497,1.2791549,0.12049539,-0.41769218,0.101717785,0.16601571
-10.292625,0.9636662,-0.18529205,-0.32028538,0.07881907,0.037716564
-10.101778,0.60465086,-0.14401603,-0.20369738,-0.001012291,-0.07829547
-9.714847,0.5080209,-0.37008613,-0.12599532,-0.12822933,-0.17039649
-9.121219,0.33253548,-0.6176560999999999,-0.15419984,-0.1984963,-0.23373449
-8.74462,-0.073080614,-0.78320086,-0.2287254,-0.21074851,-0.23746950000000003
-8.639391,-0.5729229,-0.5918753999999999,-0.2601413,-0.21500711,-0.19648917
-8.576289,-0.69331294,-0.50178635,-0.20743237,-0.20169024,-0.12568116
-8.278058,-0.5368758000000001,-0.50071377,-0.12971286,-0.19210839999999998,-0.100653134
-8.093081,-0.065122284,-0.713271,-0.07860963,-0.1266411,-0.10971139
-8.118058,0.3121656,-0.9993302,-0.04612905,-0.059027035,-0.14004523
-8.272062,0.36734718,-1.3817992000000001,-0.01844813,-0.010053096,-0.14323917
-8.223988,0.31701145,-1.878711,0.023579397999999998,0.06604326,-0.123028256
-8.235307,0.05114015,-2.184192,0.10396926,0.06232571,-0.1182286
-8.4892645,-0.29894963,-1.782148,0.19018853,-0.11492993,-0.10173524
-8.989317,-0.31498116,-1.2591872,0.21469295,-0.22617722,-0.06764896
-10.366529,0.5631736999999999,-0.48883852,0.2599319,-0.3347716,-0.033580136000000003
-11.082722,1.5369913999999998,-1.4959356000000001,0.20350539999999998,-0.30922,-0.105976395
-11.238775,2.0433936000000004,-3.40783,0.13110913,0.15175638,-0.15549138
-12.040307,0.94915736,-4.4391755999999996,0.10981612,0.41099012,-0.12142256
-13.624166500000001,0.40768465,-2.7603614,0.030508353999999998,0.13259266,-0.06977826
-12.678218,0.666517,-1.3687651,0.06084218,-0.02708751,-0.13046336
-11.452798,0.5327960999999999,0.47854346,0.31902874,0.14695673,-0.21937044
-10.655327,-0.23468922,-0.15257768,0.46860346,0.3034604,-0.22043508
-9.83157,-0.41853517,1.0986034,0.61074305,0.07723082,-0.15069173
-9.32555,-0.39011124,2.3494492,0.79279834,-0.29485592,-0.15655604
-9.705271,-0.027313054,2.4428232000000003,0.92746794,-0.42048472,-0.15814428
-10.607022,0.60933393,1.7944733,1.0211573,-0.38854520000000003,-0.13206907
-11.208925,1.1153915,0.7531584,1.0035818,-0.27462757,-0.10438814
-11.177713,1.3614674999999998,-0.43878055,0.839643,-0.11173598,0.007923795
-10.871706,1.0631692,-0.8611848,0.6479884,-0.016441,0.17186257
-10.199932,1.124547,-1.3239266,0.48883182,-0.0074001959999999995,0.34009486
-9.23138,1.207099,-1.1093103000000002,0.41804126,-0.06702064,0.42633158
-8.409269,1.1775737,-1.0330597,0.45369834,-0.09896017,0.42579052
-8.054525,1.0637821,-0.9463801,0.52024776,-0.16496852,0.36884043
-7.946135000000001,1.0243832,-0.8899726,0.54632294,-0.26024604,0.29963812
-7.983772,1.2139273000000002,-0.8900587999999999,0.51864207,-0.31773720000000005,0.24959953
-7.884767,1.6781343,-0.9428175,0.4670152,-0.30709067,0.213925
-7.932401700000001,2.178331,-1.1956643,0.38503709999999997,-0.2826037,0.18146189
-8.069954,2.2882917000000003,-1.5364071000000001,0.27537805,-0.21553071,0.14365806
-8.316221,1.9357119999999999,-1.5079256,0.21575761,-0.1266411,0.10906562
-8.345861,1.3647908000000002,-1.3476291999999999,0.2727077,-0.05211553,0.06541494
-8.652606,0.84586185,-2.7411790000000003,0.27537805,0.19114846,0.021223204
-10.328327,1.4968549,-3.2901886,0.12259193,0.15920894,-0.0011170107000000001
-11.521875,2.621019,-2.8562634,-0.037088245,0.123534404,-0.016022123
-11.453746,2.4731624,-2.5067293999999998,-0.049864057,0.25289822,-0.015481071
-10.6542845,1.6930646,-3.6507169999999998,-0.08819149,0.46954593,-0.03783874
-11.567307000000001,1.7316398999999998,-2.9090602000000003,-0.13077752,0.49616220000000005,-0.071907565
-12.580524,0.6495373000000001,-1.1995238000000001,0.041154865,0.51160836,-0.011222467
-11.386650999999999,-0.7952963000000001,-0.39104015,0.14123204,0.54887116,0.08032005
-11.435147,-0.20338264,0.6960805999999999,0.22053981,0.42163664,0.18997909
-10.819886,1.160096,1.3310516000000001,0.11461577,0.013875367,0.20169024
-9.627842,2.2181895000000003,1.9373881000000002,-0.043476153,-0.15591027,0.15803957
-9.615641,3.1628075,1.7024401000000002,-0.22924899999999998,0.034644786000000004,0.13248794
-10.716944999999999,2.973359,1.1785793,-0.42036256,0.16505578,0.122365035
-11.675765,1.9852912,0.59985286,-0.50658184,0.21828833,0.062220987
-11.305535,1.3998226999999999,-0.21728817,-0.51192254,0.16133824,-0.033056535
-10.481107000000002,1.1256866,-0.56460065,-0.522569,0.086812675,-0.15814428
-9.798844,1.0272370000000002,-0.82919824,-0.5582261,0.031450834,-0.25982717
-8.8234,1.006484,-1.1722298999999998,-0.65671504,-0.0036651914,-0.31360075
-8.281602000000001,0.71392226,-1.1522048999999999,-0.79351395,-0.028693212000000003,-0.31890655
-7.9942875,0.24994509,-0.76452607,-0.8696278000000001,-0.10587167,-0.26673868
-7.9463553,-0.25839183,-0.4309946,-0.8419643,-0.15165167,-0.18423696
-8.174216,-0.7239013000000001,-0.20602585,-0.7338935000000001,-0.16123351,-0.10384709
-8.419746,-0.7456596999999999,-0.32423237,-0.6428746,-0.18093829,-0.0543321
-8.384245,-0.54451805,-0.63521045,-0.5491853,-0.15219271,-0.033580136000000003
-8.422189,-0.44234315,-1.0505853,-0.42301545,-0.043598324,-0.037315138
-8.529544999999999,-0.21028753,-1.5688725000000001,-0.3128328,0.046879545,-0.048485245999999996
-8.341581,0.035434186,-1.9718645000000001,-0.24363051,0.061784655,-0.057543505
-8.138677000000001,-0.01730529,-2.0725741,-0.19146262,0.08307767,-0.07564257
-8.511799,-0.5515762,-2.3931196,-0.1701696,0.16985545,-0.09745918
-10.025106,-0.84068084,-1.6288424,-0.084997535,0.08094837,-0.067125365
-11.25972,-0.41290402,-1.024661,0.034225907,0.00057595863,-0.026651177999999998
-11.339246000000001,0.45600924,-1.9673058999999997,0.06084218,0.13737486,-0.06819001599999999
-10.765327000000001,0.94431144,-3.2062287,0.07415904,0.4179191,-0.10545279
-12.227963,0.74731654,-2.6377783,0.08107054,0.3487168,-0.095870934
-12.473782,1.0624605,-2.1964023,0.042219516,0.17037904,-0.15229744
-11.491775500000001,1.5396056999999999,-1.3077322,-0.010454521999999999,0.009093165,-0.28536132
-10.651478,0.7811514,0.49091670000000004,0.11248647,0.1150172,-0.34232888
-10.185842999999998,-0.6489053000000001,0.5520933000000001,0.24822073,0.17783159,-0.28112018
-10.214057,-0.6942706,2.1862795,0.45369834,-0.21500711,-0.19062486
-10.684623,-0.07530243,3.146757,0.73741907,-0.51098007,-0.14964452
-10.640704,0.80468166,2.12245,0.9524959999999999,-0.31934288,-0.11503465
-11.112524,1.0240672,0.64747834,0.9306619,-0.048921578,-0.107041046
-11.412766,0.89039403,-0.4006553,0.7879986999999999,0.118752204,-0.014957472
-11.125424,1.0996472,-0.9848979999999999,0.63948864,0.100653134,0.11171853
-10.463417999999999,0.8649868000000001,-1.3083642,0.55484015,-0.0036651914,0.24373522
-9.604053,0.63969237,-1.3557405,0.52024776,-0.093636915,0.31986648
-8.744199,0.8856152,-1.4251629,0.52502996,-0.13409364,0.32892475
-8.394416,1.3477727,-1.4915973,0.5101247999999999,-0.18413223,0.2873859
-8.374362,1.6421733,-1.4029543,0.45689228,-0.27249825,0.22511257
-8.317839999999999,1.3708146,-1.1966698999999998,0.37758452,-0.3257308,0.17720328
-8.024683999999999,1.2097135,-1.2644162,0.29028317,-0.2565285,0.16336282
-7.830543,1.1657082,-1.5113254999999999,0.22799236,-0.17774433,0.15803957
-7.8245960000000006,1.358154,-1.6890998,0.15666075,-0.16123351,0.11917108
-7.873370599999999,1.2065436,-1.1622221000000001,0.20882864,-0.18678513,0.060615286
-7.697559399999999,0.630537,-1.879343,0.32754594,0.024521876,-0.0016406095
-8.963967,0.8200715000000001,-3.3471230000000003,0.23917992,0.25661576,-0.017086774
-10.650654,1.8962078000000002,-3.3269637000000003,0.0006981317,0.035709437000000004,-0.020804325
-11.263388,2.9114928,-2.4453897,-0.14887658,-0.011117746999999999,0.005253441
-11.294876,2.6939175,-2.7905762000000003,-0.18772762,0.1288751,0.024958208
-11.500404,2.2301797999999997,-3.682675,-0.31229177,0.33967596,0.030281462000000002
-13.427814000000001,1.3462691,-1.38178,-0.36552429999999997,0.3055897,0.09096656
-13.6861,-0.27526614,0.43866566,-0.18294542,0.18102555,0.19104373
-11.857035,-0.77887213,-0.14586435,-0.074874625,0.24809855,0.21711896
-9.75122,1.2795188,-0.6323565999999999,-0.16058774,0.13205162,0.15271631
-8.898692,2.0115316,0.86366516,-0.44217917,-0.13409364,0.053162728
-8.822614999999999,1.392755,1.1916229999999999,-0.6913075,0.020263273000000002,0.08192576
-10.291466999999999,1.4144752,0.90538174,-0.82332414,0.05222025,0.16442747
-10.740657,1.3724618,0.56492627,-0.86697483,-0.022828907000000002,0.17507398
-10.672939,0.9178985999999999,0.2571085,-0.75944513,-0.044121925,0.056374136
-9.97095,-0.15449305,0.12549448,-0.63329273,-0.069673546,-0.09639453
-9.714004,-0.87481254,-0.09452309,-0.5481206999999999,-0.008464847,-0.21031217
-9.597934,-0.34404677,-0.81688243,-0.52363366,0.009093165,-0.27312657
-9.399598,0.31340100000000004,-1.3092451999999999,-0.5555732,0.0074874623999999996,-0.2922903
-9.149911,0.5542673,-1.5351428999999999,-0.61784655,-0.0015358897,-0.28218484
-8.999286999999999,0.24609520000000001,-1.2323818000000002,-0.6545857,-0.09789552,-0.23586379
-8.644936,-0.09954133,-0.8899918,-0.64659214,-0.16975072,-0.19168949999999998
-8.502298,-0.5588641,-0.5417695,-0.5933596,-0.23150048,-0.1820902
-8.341428,-0.7955166,-0.3204208,-0.49595276,-0.2826037,-0.17411405
-7.988703999999999,-1.0089741,-0.33263123,-0.34636059999999996,-0.26024604,-0.15762068
-8.027223,-1.3421893999999999,-0.43356118,-0.1637817,-0.21181315,-0.1251401
-8.161298,-1.6420105999999999,-0.5746755,0.02412045,-0.19369663,-0.046355944
-8.339675,-1.3683916,-0.30397743,0.16146041,-0.24907593,0.036128316
-8.16123,-0.27631962,-0.21611979999999997,0.16891296,-0.2756922,0.05529203
-8.668925999999999,0.39442077,-0.9556024999999999,0.057648227,-0.15325736,-0.01654572
-10.219478,0.8921562,-2.0754857,-0.13077752,-0.024958208,-0.06232571
-11.216605,1.6527462,-2.960306,-0.24469516,0.17676695,-0.0522028
-10.35656,1.1235796999999998,-4.4504470000000005,-0.24682446,0.5504594,-0.028797932000000002
-11.884281,-0.47850516,-2.7316597000000002,-0.26757643,0.41311944,-0.025062927999999998
-12.825595,-0.5890023,-1.3151253,-0.19943877,0.19860101,-0.07723082
-12.329152,0.17451814,-0.55235195,-0.12597786,0.010157816,-0.20498893
-11.880546,0.882656,0.47820827,0.05979498,0.09480628,-0.32422979999999996
-10.645559,0.3617926,0.5277108,0.15241960000000002,0.07031932,-0.34711108
-9.987097,-0.8766705,2.3907542,0.23492132,-0.07819075,-0.30452505
-10.807053,-0.9142499,3.4513949999999998,0.47605600000000003,-0.16336282,-0.23853415
-11.320523,-0.0035913025,2.0267875,0.7161435,-0.011658799,-0.17037904
-11.592131,0.5733634,0.35769373,0.7746993000000001,0.12781046,-0.13259266
-11.439544,0.8838722999999999,-0.43505517,0.69378585,0.13524556,0.0004712389
-11.219698,1.1147691000000002,-0.56600845,0.57506853,0.10437069,0.15219271
-10.389725,1.0273328000000002,-0.7440892,0.44252822,0.047420595,0.30389673
-9.301808,0.7758554,-0.7564816,0.3568151,0.045814894,0.39439204
-8.441179,0.7985908,-0.8842648999999999,0.34032175,0.08894198,0.45560074
-8.055416000000001,1.0813458999999999,-1.071185,0.3328692,0.100653134,0.45081854
-8.116315,1.598168,-0.96971875,0.29454178,-0.038798667,0.4018446
-7.920766,1.6800688999999998,-0.44797429999999994,0.27698374,-0.20594884,0.3257308
-7.438229,1.3130378,-0.29260018,0.28921852,-0.18572049,0.28153905
-7.491409299999999,1.1159374,-0.8981703999999999,0.29667106,-0.029216811000000002,0.24108233
-7.9855056,1.285217,-1.7149284,0.274837,0.061784655,0.1984963
-8.400352999999999,1.2077311000000002,-1.9609566000000003,0.27111945,0.031991884,0.14313444
-8.819099000000001,1.0719798999999999,-2.3541324,0.29295352,0.030386182,0.083514005
-9.817663,1.5225494,-2.6923373,0.22160445,-0.0728675,0.03933972
-10.401926,2.4010491000000003,-2.7097192000000003,0.07787659,-0.0792554,0.005794493
-11.030028999999999,2.7198706,-2.7843033999999998,-0.086062185,0.09000663,-0.058608155999999995
-11.168175,2.2827277,-3.2346525,-0.22979005,0.21828833,-0.085748024
-10.691174,1.6230388999999998,-3.4011644999999997,-0.35541886,0.33539993,-0.07723082
-11.494236,0.8149575,-1.1037079,-0.3825587,0.49883255,-0.035709437000000004
-11.904803,-0.5805268,-0.03880522,-0.28408724,0.56377625,0.03986332
-12.142788000000001,-1.0778027000000001,0.36409104,-0.18240435,0.4227013,0.106395274
-11.4425125,0.1601338,0.6852779999999999,-0.17762215,-0.03508112,0.1340762
-9.645856,1.5387726000000002,1.445437,-0.26172957,-0.29592058,0.083514005
-9.087259,2.5614414,1.7670835999999999,-0.42355649999999995,-0.1436755,0.09096656
-10.348506,2.711194,1.1759743999999999,-0.5443857,-0.020176006,0.10107201
-11.810339,2.3915873,0.021538239,-0.5582261,0.027715827999999998,0.121300384
-12.021526,1.1099902,-0.65543664,-0.47891834,-0.005270894,0.09628981
-10.996463,0.11983459,-0.6047945,-0.41184536,-0.09789552,-0.014957472
-10.398143,-0.08477389999999999,-0.29559773,-0.32613220000000004,-0.15751596,-0.13472196
-9.637916,0.14140154,-0.4169742,-0.24043655,-0.2027549,-0.21244147
-8.732008,0.15150508,-0.7715458000000001,-0.23511331,-0.18784979,-0.26302109999999995
-8.433882,-0.066070385,-0.9828389000000001,-0.2510656,-0.16283922,-0.24809855
-8.469144,0.06364746,-0.5127614,-0.24734806,-0.24959953,-0.17571975
-8.137326,0.29183406,-0.21249977,-0.19943877,-0.30017918,-0.09107128
-7.703057,0.14664006,-0.1275918,-0.103620194,-0.27515116,-0.061784655
-7.7513523,-0.20086396,-0.29473582,0.006021386,-0.23949409,-0.044226642999999996
-7.7563515,-0.062019399999999995,-0.5409076999999999,0.0858702,-0.20701350000000002,-0.010681415
-7.6870728,0.07524497,-0.97318554,0.13217378,-0.11280063,0.013247048999999999
-7.9004636,0.042961556,-1.4594479,0.119397976,-0.04998623,0.052098077
-8.337722,0.06328354,-1.3818662,0.10555751599999999,-0.09044296,0.10480702
-8.395211,-0.0009864111,-1.7295426,0.06084218,0.020263273000000002,0.11384783
-9.506791,-0.05140830000000001,-2.0681593,0.008674286,0.16666149,0.0749968
-11.162592,0.49570509999999995,-1.9680721999999997,-0.033353243,0.035168383,0.030281462000000002
-11.520046,1.1823046999999998,-2.5250401,-0.124913216,0.09426523,-0.025586527
-11.142031,1.0709839,-3.434128,-0.17868681,0.43069490000000005,-0.035709437000000004
-12.819628999999999,0.47575662,-1.7939848999999999,-0.15207054,0.26832690000000003,-0.0032463125
-13.019985,0.8719491,-0.46026132,-0.05199336,0.08148942,-0.037315138
-11.715738,1.0941502,0.49151048,0.08267625,0.0074874623999999996,-0.20605357
-10.947851,0.6407363,-0.3294517,0.10609856,0.2709973,-0.3375292
-10.030135000000001,0.29120198,-0.019603724,0.10288716,0.26993263,-0.32690015
-9.786108,-0.20150559,1.9218256,0.29825932,-0.11971214,-0.3034604
-10.900245,-0.68546957,3.3084995999999998,0.56868064,-0.5099154,-0.3024132
-11.401418,-0.20441695,2.8025854,0.8598714,-0.47956413,-0.2502453
-11.384324000000001,0.6467217,1.1733025,0.8779530000000001,-0.28262118,-0.20820032
-11.035872,0.87509984,0.03507984,0.7464773,0.0037699111,-0.0538085
-10.953808,0.7536755,-0.49597323,0.54154074,0.15653858,0.11864748
-10.308829,0.74942344,-1.0118471,0.43134066,0.12672836,0.29536206
-9.360869000000001,0.75974727,-1.0503841999999999,0.36320302,-0.022828907000000002,0.38852775
-8.415476,0.9102659,-0.9920136,0.36693802,-0.045727625,0.41142645
-7.9754496,1.1996292,-1.302934,0.3413864,-0.032410762999999995,0.38535124
-7.9515367,1.6276838,-1.281415,0.24715607,-0.094701566,0.3140022
-8.122128,1.7827992,-1.2577796,0.07415904,-0.17188002,0.22724187
-8.090046000000001,1.6675903000000003,-1.027668,-0.11639601,-0.1915848,0.18517943
-7.8839625999999985,1.540573,-0.70990956,-0.18826866,-0.14899875,0.16814502
-7.859733599999999,1.5240052,-1.3266846,-0.23724261,-0.057962384000000006,0.12822933
-8.060022,1.4927081,-1.7071998,-0.26918212,0.0069638634999999996,0.0771261
-8.300343,1.586829,-2.0792682,-0.2957984,0.08787732599999999,0.008988446
-8.980412,1.9468116999999998,-1.9230131999999998,-0.35381314,0.11821115,-0.02984513
-9.828246,2.1331762999999997,-2.2061706,-0.4752008,0.22945844,-0.046896997999999995
-10.957044999999999,1.9249956999999998,-2.2968726000000004,-0.60028857,0.39023817,-0.06339036
-11.591509,1.0987183,-2.859941,-0.63329273,0.51799625,-0.036250487000000005
-11.037844999999999,0.89567083,-3.7396665000000002,-0.6460685,0.5131965999999999,-0.026127578999999998
-11.502722,1.1205055,-2.4509156,-0.6146526,0.38704422,-0.0559378
-12.362097,0.5237939,-0.48732537,-0.33892548,0.35297540000000005,0.035587262
-11.20202,-0.70189375,0.21879174,-0.17336355,0.27844983,0.09628981
-11.241361999999999,-0.45597089999999996,1.3305346000000002,-0.048258353,0.37372735,0.18146189
-10.754142,1.0042431,0.8481124,-0.103620194,0.14589207,0.2027549
-9.496362,2.3578959999999998,1.326177,-0.33093187,0.0064228117,0.1447227
-10.148121000000002,2.8130912999999995,1.2803042,-0.5092522,0.15282103,0.14365806
-11.210515,2.3301903999999998,0.4608647,-0.5789955,0.24651030000000002,0.15165167
-11.451487,1.6737863999999998,-0.11631032,-0.55398494,0.31890655,0.10800097
-11.034445,0.9151213,-0.47509579999999996,-0.44804347,0.23958135,-0.004310963
-10.462441,-0.13909353,-0.47938624,-0.31016245,0.12620476,-0.10545279
-10.071047,-0.3331867,-0.41763500000000003,-0.17921041,0.0074874623999999996,-0.18263125
-9.277809,-0.044139504,-0.5741295999999999,-0.116937056,-0.09576622,-0.24013986
-8.782047,0.14589308,-0.74582255,-0.123848565,-0.1372876,-0.27738518
-8.516653999999999,0.017640479,-0.76858664,-0.13503613,-0.16816248,-0.28537878
-8.463924,-0.039839517000000005,-0.50018704,-0.12332497,-0.30017918,-0.22417009
-8.028303999999999,-0.04433104,-0.23878809999999998,-0.07808603,-0.383763,-0.16135569
-7.924511,-0.047673345,-0.4156334,-0.048275806,-0.32412508,-0.15070918
-8.104467999999999,-0.30632374,-0.79936653,0.0028099802,-0.2522699,-0.14165092
-8.390241,-0.5746276,-0.93933153,0.066706486,-0.25120524,-0.12620476
-8.649887,-0.3919404,-1.3685161,0.118333325,-0.23310618,-0.05222025
-8.680906,-0.15014517,-1.8317366999999998,0.1497318,-0.11386528,-0.008045968
-8.96753,0.16225985,-1.7656470000000002,0.18381807,-0.2570521,0.024958208
-8.743366,0.42158058,-1.48271,0.14547320000000002,-0.31456068,0.035063665
-9.807522,0.48181874,-0.9241139000000002,0.08957029999999999,-0.15751596,0.004171337
-11.068614,0.71516716,-1.5113063,0.08426449400000001,0.01654572,-0.009093165
-11.207986,1.218955,-3.1727674,-0.0418879,0.24649285,-0.054349552999999995
-10.825201,0.756472,-4.310166400000001,-0.10789625,0.47167522,-0.06873106
-12.379727,0.103573166,-2.7725046000000004,-0.1552645,0.17837265,0.011117746999999999
-11.809457,1.0572603999999999,-0.6403245,-0.079150684,-0.014329153,0.015899949
-10.882145,1.6117479,0.30724309999999994,0.05073672,-0.041469023,-0.11290534599999999
-10.468034,1.0976745,0.42155188,0.07255334,-0.007923795,-0.24652776
-9.85507,0.34299335,1.2543701,0.0927817,-0.093636915,-0.28804913
-9.64305,0.0718452,2.3214946,0.19072957,-0.25172883,-0.2981546
-10.825124,0.28625077,2.8320436,0.32700488,-0.30230847,-0.27260298
-11.718583,0.41456082,2.026826,0.44996333,-0.19106120000000001,-0.2454631
-11.982693,0.09323022,0.46714705,0.39673078,-0.094701566,-0.20659462
-11.414922,-0.11767023,-0.7784795,0.2120226,0.035691983999999996,-0.020280726000000002
-10.945323,0.3848727,-0.79725,0.06935938400000001,0.10437069,0.17505652
-10.156922,0.6364554,-0.7930265999999999,0.06349508,0.09531243,0.29482102
-9.043704,0.87203526,-0.8441955,0.08052949,0.008552114,0.33901274
-7.9660068,1.2573868000000001,-0.9426068000000001,0.10662217,-0.010594148000000001,0.32358405
-7.5520687,1.6805188999999998,-0.82961005,0.100234255,-0.068626344,0.28206265
-7.6756573,1.9131011999999998,-0.7081474,0.04113741,-0.16976817,0.22881266
-7.8421884,1.7974516,-0.5294346,-0.036023594,-0.28314477,0.15749851
-7.7252364,1.7398664000000001,-0.55728394,-0.07435103,-0.2820801,0.11917108
-7.7710422999999995,1.3296056,-0.83769286,-0.07860963,-0.18999654,0.08510225
-8.147047,0.6661914000000001,-0.79228926,-0.048799407,-0.1266411,0.06700319
-8.4343605,0.14197616,-0.7321085999999999,0.062430426,-0.030822514,0.058485985
-8.447874,0.19005173,-1.9811541000000001,0.16783085,0.20390682,0.060074233
-9.857349000000001,1.5917611,-3.0052017999999996,0.085329145,0.15386823,0.0132295955
-11.261329,2.6052554,-3.1102884,-0.14248867,-0.08618436,-0.044244096
-11.705539,1.8104953999999998,-2.3202016,-0.29421017,0.14748032,-0.08683013
-12.013013,0.42160934,-2.998958,-0.31763247,0.38756782,-0.045308746
-12.097643,1.0152277,-3.333428,-0.42942079999999994,0.44558257,-0.031468287000000005
-12.601612,0.9782038000000001,-0.8844755999999999,-0.3511777,0.4445179,-0.014433873
-11.300939,0.22591688,-0.47914678,-0.27344072,0.5414186,0.008970993
-10.6688595,0.40638223,-0.11098561400000001,-0.18188076,0.5201081,0.06859144
-10.084042,0.77290577,0.62059623,-0.1706932,0.20977113,0.10906562
-9.241551,0.72154534,1.4359369,-0.32667327,-0.023369959,0.1553692
-9.775928,1.6586839,2.4875374,-0.46348962,-0.014329153,0.2165779
-11.666533,2.5845119999999997,1.589386,-0.53269196,0.08840092,0.23413591
-12.060389,2.4326336,0.28914294,-0.5278923000000001,0.16453218,0.20488420000000002
-10.615086,1.4936466999999998,-0.45738829999999997,-0.44858453,0.18580775,0.024417156000000002
-10.242041,0.4761205,-0.7617871,-0.3889641,0.13151056,-0.12889257
-9.826311,0.23568521,-0.99865985,-0.38789943,0.017610373000000002,-0.21352358
-9.078017,0.13711114,-1.0241245,-0.39376372,-0.09150761,-0.26942647
-8.696832,-0.12873143,-0.9072492,-0.39748130000000004,-0.14793411,-0.27474973
-8.513409,-0.40416998,-0.60972655,-0.36925929999999996,-0.21659537,-0.22308798
-8.319745,-0.4569286,-0.120715655,-0.2670703,-0.29911453,-0.15816173
-8.045294,-0.54001695,0.11237425,-0.09032079,-0.31136674,-0.09906489
-7.906726400000001,-0.6193320999999999,-0.36158192,0.039008107,-0.2629164,-0.09267698
-8.03857,-0.38811925,-0.820876,0.06829473400000001,-0.17400932,-0.08895943
-8.157467,-0.03808696,-1.1964209,0.027838001,-0.07075564599999999,-0.055414204
-8.182845,0.046083596,-1.4047643,0.0054803337,-0.010053096,-0.0021816615
-8.14358,-0.26272056,-1.2862322,-0.0009075712300000001,-0.032951817,0.043039817
-7.9818473,-0.6461088,-1.1954249,0.037402406,0.09424778,0.068050385
-9.173384,-0.546759,-1.116943,0.12098622,0.23158774,0.0765676
-10.983429,0.24157496,-1.3652503,0.13749704,0.1826138,0.036128316
-11.494256,0.8647186,-3.001084,0.003874631,0.114476144,-0.09267698
-11.376902000000001,0.9764033000000001,-3.8009484,-0.046670105,0.37798595,-0.12674580000000002
-13.148496,1.1877155000000001,-2.5544505,-0.13770647,0.29600784,-0.09267698
-13.368685999999999,1.6688831000000002,-1.6849147,-0.23033111,-0.008464847,-0.15070918
-12.162171,2.0222578,-0.34567484,-0.25907668,-0.11492993,-0.25343925
-10.165063,1.0995898000000002,0.057278882999999996,-0.19413297,0.06337290000000001,-0.35992178
-8.984826,-0.37931818,1.4836292,-0.07702138,0.11288789999999999,-0.30934215
-9.020471,-0.7219955,2.8304252999999995,0.17901842,-0.150587,-0.2832495
-10.199844,-0.22605094,2.4798374,0.41750020000000004,-0.26504570000000005,-0.24918066
-11.643214,0.24252306,1.5208256000000002,0.50106657,-0.26771605,-0.24600416
-12.336526,0.3321907,0.21333295,0.40685370000000004,-0.17722073,-0.184778
-11.453689,0.63148504,-0.2045606,0.24288002,-0.040945426,0.043039817
-10.889347,1.3762637,-0.4051468,0.124180175,0.08785988,0.24586453
-9.9702215,1.4885806000000001,-0.8685493000000001,0.035273105,0.109693944,0.37786379999999997
-9.035736,1.1907418,-1.1217123,0.019861847,0.11555825,0.40236822
-8.348706,1.4196467,-1.4626274,0.0070685832999999995,0.10276499,0.39756855
-7.998453,1.7824737000000002,-1.4838017,-0.022183135,0.048467792999999995,0.35924113
-8.097439,1.6571898,-1.1288757,-0.047734755999999996,-0.08670796,0.27406904
-8.012962,1.3524367,-0.521754,-0.059445914,-0.2565285,0.2059314
-7.704196499999999,1.4106445,-0.11777557400000001,-0.046146505,-0.24109977,0.20380209999999999
-7.396139,1.3664091999999999,-0.11056423,-0.0051487214,-0.032951817,0.18144442
-7.779498599999999,0.8158576999999999,-0.3750852,0.024644048999999998,0.108629294,0.11917108
-8.375416,0.45501325,-1.3594756000000001,0.024102997,0.050597094,0.08562585
-8.802224,0.57643753,-2.5745522999999997,-0.04988151,-0.040404372,0.05900958
-9.811353,1.4160073999999998,-2.9253888,-0.10789625,-0.13515829999999998,0.04569272
-10.667566,2.4008384,-3.2572155,-0.18029252,0.028239427,0.02867576
-11.584114999999999,1.4445273,-3.2435400000000003,-0.18722147,0.2518161,-0.03359759
-11.955867,0.31971213,-3.8447049,-0.16006415,0.3162362,-0.06340781
-12.453747,0.60903704,-3.4353442000000003,-0.15207054,0.20764183,-0.08683013
-13.379076999999999,0.9447711,-1.3710061000000002,-0.0397586,0.026651177999999998,-0.052761300000000004
-11.955561999999999,1.2120215,-0.124747485,-0.02804744,0.018657569,-0.030403635
-10.797830000000001,1.837952,0.69740224,-0.045622908,0.21668263,-0.037332594
-10.004296,1.9641839,-0.0060046576,-0.14142403,0.24064599,-0.0037873646000000003
-8.924032,1.5356889,0.31689656,-0.3517013,-0.054768432,0.046774823
-8.412661,1.6283348999999998,0.9476346,-0.6157347,-0.11067133,0.14152876
-9.721599000000001,2.181453,1.2401294,-0.7594626,-0.055850536,0.18943803
-10.764063,1.7941668999999998,0.8660114999999999,-0.8025722,-0.06276204,0.23254767
-10.772988,1.4244350000000001,0.7874146,-0.6647086,-0.046792275999999994,0.17879152
-10.285816,0.8367447,0.49209464,-0.4927588,-0.0723439,0.036128316
-10.262832000000001,0.28234342,0.39199787,-0.32560859999999997,-0.14102261,-0.08309512599999999
-9.858661999999999,0.4261775,-0.014221558,-0.23033111,-0.18999654,-0.19064231
-9.481211,0.5063545,-0.37268144,-0.20423843,-0.24535839999999998,-0.27153832
-9.166652000000001,0.29350040000000005,-0.29157546,-0.18933332,-0.30178487,-0.28112018
-8.95236,-0.039820362000000005,-0.22816741,-0.15899949,-0.32147220000000004,-0.24652776
-8.74349,-0.29587546,-0.28361714,-0.07436848,-0.30710813,-0.20767672
-8.511177,-0.38618472,-0.3972268,-0.0008901178999999999,-0.31934288,-0.18423696
-8.2495575,-0.5040752000000001,-0.40324104,0.06510078,-0.2820801,-0.1741315
-8.172454,-0.71462137,-0.47748044,0.13110913,-0.18200293,-0.14325662
-8.288008,-0.76689154,-0.8188936,0.21361084,-0.03668682,-0.06286676
-8.274725,-0.63582337,-1.4237552,0.28494245,0.09798279,0.038257618
-7.920296700000001,-0.37945223,-1.6384193,0.34936255,0.22467624,0.10904817
-7.8729396,-0.12761095,-1.9873023999999997,0.39618975,0.36999235,0.12234758
-9.335336999999999,0.31280726,-1.5519598999999997,0.43292892,0.30613074,0.12501794
-10.871362,0.7491936,-0.4612669,0.43985787,-0.013788101,0.09574876
-10.807379,0.48826390000000003,-0.6245706,0.35573299999999997,-0.10641272,-0.011780973
-10.047334,0.5190055,-1.7930081000000002,0.44889867,0.3689277,-0.07353072
-11.478808,0.52794063,-1.588639,0.5404587,0.44345325,-0.10971139
-12.338547,1.4042567,-1.6376148000000001,0.45900413,0.28801423,-0.22417009
-11.908730499999999,2.8910847,-0.8767950000000001,0.3908665,0.08785988,-0.36683330000000003
-10.486305999999999,2.5535118999999997,-0.98985875,0.31848767,0.21722367,-0.44242352
-10.2027,0.85412663,1.1099231999999999,0.35362116,0.045814894,-0.41846013
-11.540080999999999,-0.6912731,3.6669307,0.609661,-0.36246997,-0.34766957
-11.8579445,-1.1620306999999999,3.2558078999999998,0.8864702,-0.31189033,-0.23055799999999999
-11.658507,-0.60143304,0.9931532,0.871024,-0.09896017,-0.14805628
-11.258915,0.25194663,-0.3200473,0.75551814,0.17729054,0.07126179
-10.871084,1.4953991000000002,-1.0151798,0.6777986,0.33433527,0.20699605
-10.766438,2.4909754,-1.5722818,0.65917593,0.22893484,0.30122638
-9.929578,2.4908509999999997,-1.7955458999999998,0.5740039000000001,-0.0074001959999999995,0.326778
-8.9051,2.1564287999999996,-1.3395176000000002,0.47605600000000003,-0.12557644,0.31506684
-8.345489,1.6840241000000002,-1.2081141000000002,0.40153044,-0.07393215,0.31346112
-8.221057,1.4343758999999998,-1.1741356,0.31901127,-0.04998623,0.3123965
-8.301062,1.3654228000000002,-0.7620456999999999,0.26790804,-0.10056587,0.31026718
-8.310685000000001,1.3088813999999998,-0.31772014,0.28546605,-0.17561503,0.2756573
-8.089184,1.2281585,-0.25224352,0.3530801,-0.22087142,0.227748
-8.128228,1.2831868,-0.58225065,0.39992476,-0.19903734,0.17186257
-8.346943,1.287391,-0.82452476,0.42760566,-0.16496852,0.13514084
-8.38775,0.9932968000000001,-0.9359892,0.46008626,-0.15538666,0.104265966
-8.642147999999999,0.8936214,-1.4508001,0.44676940000000004,-0.07021459,0.06752679
-10.017847999999999,1.5238519,-2.0475118,0.36426768,-0.06489134,0.06806784
-10.858682,2.707057,-2.6114132000000003,0.20457004,-0.11386528,0.07604399
-10.96101,2.9938247000000002,-2.6924236,0.06827728,-0.07127925,0.045169123
-11.094778,1.8194113999999997,-3.172844,-0.035499997,0.07614872,0.026546458
-11.141322,0.9068374,-3.5735949999999996,-0.12651892,0.21083577,0.010035643
-11.744211,0.95301676,-2.6565773,-0.13983577,0.18420205,-0.006457718
-11.994892,0.9835285,-0.7808354000000001,0.004939282,-0.011658799,0.0068416907
-10.8473425,0.6658850000000001,0.15078682,0.1390853,-0.15753342,-0.009110618000000001
-9.834864,1.0508152,0.7945876999999999,0.17050122,0.093724184,0.010053096
-9.519221,1.4140633,0.57247275,0.049131017,0.12938125,0.038781215
-9.019418,1.9445994,0.78874576,-0.17870426,-0.08831366,0.057403877
-8.850913,2.1613991,1.1609771,-0.37938222,-0.12185889,0.097337015
-9.686078,2.002769,1.1376576,-0.49916416,-0.06756169,0.13140585
-10.54619,1.6553223000000001,0.6090561999999999,-0.5742133,-0.0095294975,0.12234758
-11.152221,1.4888104,0.0144897085,-0.55771995,0.039426986000000004,0.066985734
-10.923200999999999,1.1286651,-0.21461624,-0.5231100999999999,-0.016458455,-0.037332594
-10.220446,0.8077558000000001,-0.32591787,-0.50768137,-0.079813905,-0.15444419
-9.75323,0.95753706,-0.49373227,-0.5667608000000001,-0.11705923,-0.23429299999999997
-9.161796,0.98688996,-0.77507013,-0.6748141,-0.06595599,-0.26621506
-8.755194,0.6803076,-1.0128049000000001,-0.7850142,-0.03509857,-0.2475924
-8.717576,0.24124934,-0.79574645,-0.8350528,-0.06808529,-0.20074777
-8.62808,-0.13449667,-0.4711885,-0.78660244,-0.1261175,-0.14964452
-8.427503999999999,-0.5958880999999999,-0.2586504,-0.688131,-0.17189747,-0.13739231
-8.311261,-0.9580829,-0.19710027,-0.52258646,-0.16018632,-0.15709709
-8.467496,-1.0846596000000002,-0.30203333,-0.33307862,-0.10534807,-0.15603243
-8.583308,-1.0307901,-0.6328258000000001,-0.15634659,-0.05372123400000001,-0.123028256
-8.613858,-0.79577523,-1.0197288,-0.022724187000000003,-0.018587757,-0.07353072
-8.500115,-0.27042028,-1.2266741,0.06988298,-0.10056587,-0.015515977
-8.128525999999999,-0.07597281,-1.4406008,0.04379031,-0.104824476,-0.001134464
-8.82271,-0.46119985,-1.8585996999999999,-0.0024958209,0.24223424,0.0132295955
-11.077167,-0.21027796,-1.7357771,0.07040658,0.29068458,0.056339227
-11.787842999999999,0.35228282,-1.9758676,0.112992615,0.15973254,0.01855285
-10.765825,0.7164409,-2.6452672,0.15292574,0.27630308,-0.05862561
-11.645589,0.4973523,-1.611566,0.18380062,0.2773677,-0.08683013
-12.933133,1.4651173000000002,-0.30361348,0.17421876,0.1192758,-0.15231489
-12.466838000000001,2.7832402999999997,0.28529307,0.21891665,-0.063844144,-0.29551914
-11.692592,2.6522775000000003,0.088135354,0.22158699999999998,0.038344882000000004,-0.44031167
-10.087481,-0.13491806,0.52652323,0.16303120000000001,0.10915289,-0.410484
-9.699132,-1.3605483,2.6775794,0.38554323,-0.054262288,-0.2752908
-10.837182,-1.2862992,3.5179538999999997,0.72038466,-0.28314477,-0.22629939
-11.069448,-0.15336299,2.2263107000000004,0.9945235,-0.24162339,-0.19170697
-11.222189,0.37016276,0.30093202,0.90031064,-0.18947294,-0.1603085
-11.15066,0.58950037,-0.2228906,0.67619294,-0.10108947,0.019076448
-10.897401,1.1738868,-0.5042476,0.49680796,-0.047856927,0.22935371
-9.975758,1.4026766000000002,-0.9306549000000001,0.37276742,-0.04680973,0.39648643
-8.875363,1.4842135,-1.0556322,0.29611257,-0.010611602,0.46942374
-8.319851,1.5791005,-0.9939863000000001,0.31208232,0.020786871999999998,0.46143013
-8.300677,1.4630775,-1.0486699,0.38395497,-0.028169613,0.37892842
-8.563638000000001,1.2351974,-0.7240353,0.46219808,-0.19851375,0.2777866
-8.384235,1.1502128,-0.45161346,0.5101074000000001,-0.31827825,0.21390755
-8.253043,1.1214823999999999,-0.31737536,0.514366,-0.30072020000000005,0.20167279
-8.270224,1.0364691,-0.68381274,0.4728446,-0.24377014,0.20858429999999997
-8.319938,1.1713201000000002,-1.0359424000000002,0.4185474,-0.18308504,0.19741419
-8.469439999999999,1.139257,-1.1569453,0.42973498,-0.1325054,0.16545722
-8.355074,0.97447836,-1.8606776999999999,0.44142866,-0.036163222,0.11063642
-8.812223,1.3000516000000002,-2.5368865,0.3429572,0.051661745,0.05794493
-9.389686,2.285735,-2.6290443,0.2237163,0.11606439,0.027593656
-10.2281065,2.61285,-2.292113,0.11140437,0.18687241,-0.02295108
-10.884884,1.8033414,-2.6166902000000003,0.013456488,0.28536132,-0.05969026
-11.380914,1.4637958,-3.0292492,-0.12601277,0.42003092,-0.064489916
-13.032157000000002,1.6001216,-1.0689728,-0.14941764,0.42535418,-0.013910273999999999
-12.901798,0.7610305,-0.6635099,-0.035499997,0.40564942,0.08667305
-11.6395645,0.39743748,0.72672635,0.10447541,0.38702676,0.12925908
-10.724098,1.1843445,0.77497435,0.30675906,0.37212166,0.14044665
-9.437234,1.3184677,1.0020978,0.27588418,0.14268066,0.07337364
-8.491821,1.1344781000000002,1.2459043,0.07253588,0.086795226,0.10370746
-8.847226,1.5178281,1.089065,-0.07756243,0.18687241,0.19687314
-9.949900999999999,1.7839675,1.0554981,-0.121213116,0.13044591,0.28098056
-10.770967500000001,1.6037416000000002,0.8268806999999999,-0.07595673,0.15812683,0.26926940000000005
-11.270560000000001,1.019001,0.34263899999999997,0.07093018,0.18207274,0.16971582
-11.088285,0.30858386,0.21857145,0.23277456,0.051661745,0.037175514
-10.567374000000001,0.3465942,-0.10968316,0.35466835,-0.05372123400000001,-0.075118974
-9.888244,0.72683173,-0.80822504,0.34934509999999996,-0.08513716,-0.16137314
-9.237519,0.90138817,-1.341069,0.24820328,-0.09630727,-0.19277161
-8.764071000000001,0.98706234,-1.5509255,0.11938052,-0.11601204,-0.17840755
-8.677142,0.8628128,-1.387459,0.00013962633999999998,-0.13782865,-0.13688618
-8.5489,0.71316564,-1.0665977,-0.07436848,-0.14901622,-0.093235485
-8.189309,0.3342976,-0.87843263,-0.101525806,-0.13517575,-0.09909979
-8.111374,-0.064585984,-0.98426586,-0.102573,-0.11014773,-0.12623966
-8.240938,-0.2352734,-0.9237979,-0.07649778,-0.09578366599999999,-0.116116755
-8.241541,-0.18177737,-0.8479209000000001,-0.023265239,-0.06597344599999999,-0.05810201
-8.100014999999999,-0.10150458,-0.90781426,0.042202063,-0.030839968,0.0068416907
-7.7130833,-0.42079532,-1.4500531,0.06827728,0.08731882,0.022270402
-8.519786,-0.78779775,-2.0922066999999998,0.097022854,0.29014352,0.032375857
-10.88451,-0.17553329999999998,-1.079105,0.18964748,0.11021754,0.06485643
-11.559762,0.3809175,-1.2917484,0.21200514,-0.0015533429999999998,0.002042035
-10.613199,0.49031335,-2.6521053,0.20614083,0.29546678,-0.12463396
-10.360018,-0.44180682,-3.4170141000000003,0.23755677,0.6074095,-0.14753269
-11.494457,-0.00033518823,-2.115143,0.25193828,0.5419246999999999,-0.13795082
-11.292099,1.3739367,-1.8197081999999998,0.22158699999999998,0.33538246,-0.19383627
-10.932404,2.0791726,-1.2473981,0.22158699999999998,0.2768441,-0.33169982
-11.110321,1.7217854,-0.3106812,0.28281316,0.19804251,-0.39985493
-11.040813,1.2396506,1.3091208,0.43291146,-0.093654364,-0.36472145
-11.342665,0.7057245,2.3367217,0.62029004,-0.38269836,-0.30243066
-11.675085000000001,-0.026834214,2.1137066000000004,0.78531086,-0.3598171,-0.21460569
-12.111165,-0.051714755999999994,0.55552185,0.8247030000000001,-0.16179202,-0.05703736
-11.86123,0.28249663,-0.7247536,0.7326194,1.7453292e-05,0.13831735
-11.177848,1.0502788,-1.5231143999999999,0.6160314,0.03143338,0.28630382
-10.552837,1.8354811999999998,-2.1349669999999996,0.48881435,-0.031363565,0.3736052
-9.582726,1.990616,-2.2894217999999995,0.34456290000000006,-0.16072737,0.40395644
-8.570072999999999,1.947798,-1.8509381999999999,0.26204374,-0.1969255,0.40074503
-8.0533,1.9036394,-1.5953811000000002,0.19922933,-0.18947294,0.37147588
-7.964158500000001,1.7450378,-1.4601853,0.11512191599999999,-0.21448351,0.33634240000000004
-8.07547,1.5926613,-1.1433079,0.008133234,-0.30604348,0.31398472
-8.015471,1.4511831,-0.6504184000000001,-0.03817035,-0.3640757,0.29427996
-7.66858,1.4390876,-0.63750887,-0.03764675,-0.3161664,0.2527586
-7.668647,1.4797316,-0.9055158000000001,-0.019006636,-0.23842943,0.19048524
-7.909657000000001,1.3432716,-1.2472067,0.004921828400000001,-0.21395992,0.12128293
-8.253674499999999,0.7657326999999999,-1.4542093,0.0038571777,-0.22780037,0.069115035
-8.392826,0.6497385,-1.9494740000000002,-0.011030481000000002,-0.13091715,0.039828412
-9.525532,1.1912208,-2.225899,-0.052010812000000003,-0.09204867,0.03452261
-10.245604,1.9312015,-2.5837746,-0.13665928,-0.07714355,0.03769911
-10.833332,1.4664198,-2.574667,-0.24577726,0.006946410500000001,0.011100293999999998
-11.152498,0.78717524,-3.0205917,-0.30539772,0.13309881,0.008970993
-11.449465,1.0643759,-3.639608,-0.3559599,0.20071286,-0.025097834
-12.350843,1.8094705000000002,-2.5198112,-0.37247070000000004,0.03195698,-0.06661922
-12.706325999999999,2.1879845,-1.1710328,-0.2798461,-0.10908308,-0.056496307
-11.058894,1.9289029999999998,-0.102433525,-0.29633945,0.003228859,-0.054367005999999996
-10.707157,1.6671688999999998,0.35492602,-0.31817353,0.20710076,-0.026145032000000002
-10.381200999999999,0.9738367,0.47552675,-0.37140608,0.09850638,0.0073652896
-9.063528,0.8159630999999999,1.0619049999999999,-0.48905870000000007,-0.04201007599999999,0.057403877
-9.093666,1.3669646999999998,1.1951473,-0.624793,0.010140363000000001,0.09998991
-10.300134,1.7542986,1.0774482,-0.6950599000000001,-0.07288495,0.13245304
-10.941424000000001,1.6604936999999997,0.51905334,-0.663644,-0.044662975,0.117024325
-10.894844,1.4655578000000002,0.12087846,-0.5540024,-0.030298917,0.043563418
-10.287367,0.6573233,0.28215188,-0.41505674,-0.0760789,-0.068207465
-9.984214,0.21188685,0.26392722,-0.311262,-0.13943435,-0.1603085
-9.300784,0.54349333,-0.42670420000000003,-0.3511777,-0.15805702,-0.2316401
-8.73873,0.74223125,-0.82209224,-0.44539058,-0.11547098,-0.25185102
-8.433834,0.41911940000000003,-1.02536,-0.52951545,-0.084596105,-0.21779963
-8.388277,0.09602664400000001,-0.9434495,-0.55452603,-0.08939576,-0.15711454
-8.383901,-0.21407036,-0.86725646,-0.5321683,-0.10323623,-0.10759955
-8.264832499999999,-0.48495993,-0.8238639000000001,-0.4858473,-0.094701566,-0.09588839
-8.32531,-0.72133464,-0.7916092,-0.39430478,-0.07714355,-0.09536479
-8.263597,-0.55587614,-0.8288439000000001,-0.29955086,-0.028169613,-0.07300712
-8.068805000000001,-0.32860900000000004,-0.88202393,-0.20584413,0.03249803,-0.021903882000000003
-7.8269324000000005,-0.33062008,-0.956158,-0.11056661,0.10702359,0.028658306
-8.339848,-0.9031695,-1.8352897000000001,0.02942625,0.24010494,0.07497934
-10.637802,-1.1168568,0.007211335500000001,0.17687167,-0.087790065,0.12660618
-11.583061,-0.31644645,0.6832189999999999,0.36425019999999997,-0.17296213,0.113306776
-10.680399000000001,0.10861056,-1.2715127,0.36957347,0.0522028,-0.057560957999999995
-10.528875,0.07883627,-2.1362984,0.3818257,0.39180896,-0.13208652
-12.296831,1.0520027,-0.5628481,0.41907102,0.25713935,-0.11185815
-12.384909,3.0730155,-0.057499148,0.46593308,0.14800392,-0.13793337
-11.971286,3.5884294999999997,-1.1325243999999999,0.30995303,0.1804845,-0.28113765
-10.937451,0.5529457,0.05001966,0.18378317,0.19538961,-0.30668926
-11.0577545,-0.8952015999999999,2.5344636,0.33550465,0.011205014,-0.13953908
-10.8711605,-0.67781764,3.0520902000000003,0.64479446,-0.04733333,-0.06553711
-11.096627,-0.21626346,1.0966879999999999,0.81566215,-0.0010297442999999999,-0.050108402999999996
-11.243487,0.21709663,-0.32586044,0.8220501,-0.024452062000000004,0.011623893
-10.488777,1.0703135,-0.9121716999999999,0.8167268,-0.07714355,0.10585422
-10.23708,2.1807635,-0.7242076999999999,0.8066214,-0.044662975,0.18570304
-9.919235,2.6223881,-0.75643367,0.6650228,0.052726395,0.26607543
-9.272561,2.6226087000000002,-0.84857213,0.45687485,0.13789846,0.32250193
-8.570447,2.3602998,-1.010717,0.33869859999999996,0.21190043,0.34965926
-7.994498299999999,1.8728212,-1.2769715,0.27056095,0.20868902,0.34857717
-7.6407213,1.4735832,-0.8403552,0.27747244,0.07134906,0.32089624
-7.662087,1.5722243999999999,-0.43313983,0.30569443,-0.028710665,0.29907963
-7.773274000000001,1.8251669999999998,-0.56360465,0.30623546,-0.09684832,0.273528
-7.866619,2.0214244999999997,-1.0348984,0.25087363,-0.13835225,0.2192308
-7.9542465,1.99075,-1.3521781000000002,0.19444713,-0.15859807,0.15374605
-7.938589,1.5302396,-1.6561938999999999,0.1566433,-0.15221016,0.0877377
-8.074695,1.0501063999999998,-2.0121253,0.14280283,-0.0047472958,0.030787607999999998
-8.855348,0.88062567,-2.547986,0.15505505,0.21401227,-0.016563175
-10.146149000000001,1.6123798999999999,-3.0529517999999998,0.12470377,0.22998203,-0.032009337
-11.171508,2.2762729999999998,-2.8202355,0.0033335788,0.13205162,-0.05169665
-11.46386,1.807402,-2.540564,-0.08873254,0.08892453,-0.06661922
-10.985421,1.2986628999999998,-3.7330775000000003,-0.24897122,0.20603612,-0.053302355
-11.286956,1.9413718999999998,-3.5859970000000003,-0.41983896,0.35882223,-0.048502699999999996
-12.107057000000001,2.2832448,-1.978961,-0.44006732,0.42428955,0.0031066859999999996
-11.719149,1.7722552,-0.8738739999999999,-0.4246386,0.25874507,0.016947147
-10.4486885,1.1660337,0.23576182,-0.4022635,0.3103719,-0.013369222
-10.193131,0.752737,0.46967533,-0.4831944,0.2454282,-0.012304571
-9.773734,0.8016075,0.9065501,-0.6088232,0.03408628,0.0132121425
-9.928026,1.6144294,1.2716371000000002,-0.6647261,0.08892453,0.054209925
-11.239550999999999,2.3579056,0.8287576999999999,-0.71474725,0.06921976,0.07443829
-11.857648,1.9582941999999999,-0.2825158,-0.7275229999999999,0.1219287,0.04675737
-11.171804,1.27225,-0.83355564,-0.63170445,0.12831661,-0.029338984
-10.187146,0.68190694,-0.523995,-0.47626543,0.08306022,-0.12622221
-9.652014,0.7255196999999999,-0.71296453,-0.37618828,-0.0074001959999999995,-0.21458822
-8.817269999999999,0.7456596999999999,-0.84306544,-0.3889641,-0.08724901,-0.29443705
-8.137691,0.4741094,-0.95520985,-0.43634978,-0.08140215,-0.33702308
-7.9409637,-0.05227021,-0.9618753000000001,-0.45444882,-0.08086111,-0.31201252
-8.072424,-0.46092215,-0.88241655,-0.42038000000000003,-0.07714355,-0.22523473
-8.158673,-0.56050175,-0.8043081,-0.35383059999999994,-0.059044488,-0.15070918
-8.230116,-0.32156044,-0.8911889000000001,-0.30059806,-0.040404372,-0.12569861
-8.247488,-0.06281428,-1.1477516,-0.2511005,-0.011135201,-0.12889257
-8.302947999999999,0.33034238,-1.6498731,-0.1712517,0.039409533,-0.11344639999999999
-8.120298,0.5114685,-2.5455055,-0.0935322,0.16345008,-0.092153385
-8.571634,0.024085669,-3.0645015,-0.089273594,0.17090264,-0.06394886
-9.270464,-0.5457056,-2.517848,-0.10789625,-0.0058119465,-0.012304571
-9.823371,-0.8455458,-1.5494698,-0.102573,-0.18734364,0.021746803
-10.571110000000001,-0.44229525,-0.6562986,-0.008883726,-0.15645131,0.03452261
-11.155323,0.0713089,-1.4145901,0.046460666,-0.03614577,-0.054367005999999996
-11.019734,0.6003029999999999,-3.0043017999999995,0.028361599999999997,0.19591321,-0.16828464
-12.116969000000001,0.9586671,-2.6156368,0.0054628807,0.16397369,-0.19915952
-12.729386,2.1955595000000003,-1.5689396,-0.08288568,0.026651177999999998,-0.21352358
-11.81731,2.9572412999999997,-1.4041322,-0.23884831,-0.04520403,-0.35246924
-10.439256,1.3308697,-0.8970308000000001,-0.37671188,0.10330604,-0.47649235
-10.183717999999999,-0.74226004,0.6695146,-0.34159583,0.09798279,-0.35405749999999997
-10.561494,-0.5411758000000001,2.8522222000000004,-0.030176742000000003,-0.1995784,-0.24333379999999996
-10.633052000000001,-0.060027424,2.344163,0.34084535,-0.22245966,-0.22043508
-11.174735,0.09411128,1.0167408000000002,0.4957433,-0.1335526,-0.24652776
-11.295748,0.21614853,-0.07512048,0.51916564,-0.050527282,-0.17200220000000002
-10.7439995,0.6195428000000001,-0.8902312,0.4728446,0.039950587,-0.06394886
-10.4529505,1.3034991000000002,-1.3310325,0.40577158,0.0048171086,0.027593656
-9.5522995,1.671172,-1.5106071,0.3301814,-0.05105088,0.07124434
-8.761496000000001,1.5948639,-1.4666401000000002,0.2817485,-0.07714355,0.063268185
-8.490922,1.4217918999999999,-1.2693483,0.24607398,-0.09204867,0.09892526
-8.233238,1.4995938999999998,-1.2150286,0.17954202,-0.12292354,0.17664477
-8.1142845,1.6227994,-1.143576,0.049654618,-0.20329595,0.2756573
-8.259813000000001,1.5274718999999999,-0.9201875,-0.071174525,-0.22193606,0.35285320000000003
-8.385855000000001,1.1906556000000001,-0.8691621999999999,-0.12918927,-0.21341886,0.38105774
-8.48576,0.7171208,-0.761155,-0.07702138,-0.16016887,0.35871753
-8.429343,0.32593703,-1.1830611999999998,0.01558579,-0.10641272,0.27885124
-8.194864,0.3111313,-1.481082,0.101298906,-0.06276204,0.16495107
-8.252085000000001,0.48305413,-2.128043,0.18060666,0.058590703,0.046774823
-9.467047,1.1190593999999998,-2.6009457,0.16996016,0.07136651,-0.043179445
-10.582889,2.255156,-2.8890738,0.07840019,0.047944195999999994,-0.083112575
-11.119506,2.4659033,-2.9160898,-0.0019547688000000002,0.15866788,-0.09480628
-10.808672,1.1736186000000002,-3.6864386,-0.08234464,0.33965853,-0.08098327
-10.755252,0.63688636,-4.017068,-0.21649064,0.49509755,-0.043179445
-12.081237,1.0693462,-2.2435202999999997,-0.23087215,0.530231,0.03291691
-12.546555499999998,0.7540969,-1.0153522,-0.12760103,0.3726627,0.12927654
-11.256914,0.9132252000000001,-0.033183634,-0.11267845,0.26619762,0.143117
-10.361646,1.8327134999999999,0.3110355,-0.20265017,0.19380136,0.09946632
-9.919407000000001,2.0359811999999997,0.99194646,-0.4139920999999999,-0.057979837,0.06272713
-9.958452000000001,1.7322813999999997,1.3931955,-0.5987003000000001,-0.029757863,0.09468411
-11.248036,1.5193892,0.90887725,-0.6828076999999999,0.022392575,0.10053097
-11.82432,1.3323541,0.037694313,-0.71420616,0.03303908,0.09416051
-10.868861,1.5250393999999998,-0.2506825,-0.6407453000000001,-0.0095294975,0.017488198
-10.261586999999999,1.0353677,-0.39505285,-0.53056264,0.006946410500000001,-0.10918779999999999
-10.041532,0.36478058,-0.62233925,-0.44964918,-0.044662975,-0.1826487
-9.189933,0.21652202,-0.9721799999999999,-0.41345105,-0.15432201,-0.2587625
-8.530761,-0.025388114,-1.0080835,-0.40386918,-0.19052014,-0.31785935
-8.339962,-0.34024477,-0.96662545,-0.38203509999999996,-0.182544,-0.32424727
-8.366481,-0.5381781999999999,-0.61204416,-0.3330612,-0.2794272,-0.2672797
-8.111699,-0.67253125,-0.2761568,-0.23246041,-0.32520720000000003,-0.18743089999999998
-7.761839,-0.8210004999999999,-0.25618914,-0.09032079,-0.288468,-0.13899802
-7.582389,-0.70200866,-0.59318745,0.05126032,-0.19477874,-0.11503465
-7.6312690000000005,-0.6266488,-0.88673574,0.16196655,-0.11067133,-0.08950049
-7.824930999999999,-0.44857764,-1.1631607,0.24129176,-0.06063274,-0.03944444
-7.8199224,-0.24016716,-1.4146284,0.3424336,-0.0004886922000000001,0.023335052999999998
-7.958039299999999,-0.27437553,-2.0763762,0.40737729999999994,0.096918136,0.03080506
-9.60957,-0.61173767,-2.0836737000000003,0.39886009999999994,0.0564614,0.010559242
-11.628877000000001,-0.06777506,-1.3301132,0.43346998,-0.06489134,0.03452261
-11.618859,1.0446669,-2.1816063,0.41217697,0.08094837,-0.0037873646000000003
-10.531423,1.0677756,-3.5383138999999995,0.36692056,0.46635200000000004,-0.076183625
-11.48059,-0.06327397,-2.9539470000000003,0.39088395,0.5893104,-0.04956735
-12.292482000000001,0.27030537,-1.7102548999999998,0.40791836,0.44080037,-0.07777187
-11.73087,1.3640534,-1.0501063999999998,0.43664646,0.1820902,-0.2300344
-10.932519000000001,1.5980722,-0.053792924000000006,0.48244390000000004,0.19114846,-0.39877284
-10.322485,0.9253014999999999,0.37171417,0.59210294,0.2805617,-0.40674898
-10.324976,0.13720691,1.3441334999999999,0.68790406,-0.020717058,-0.34128168
-11.041589,-0.031632192,2.2268182999999997,0.8843409,-0.18573794,-0.21511184
-11.516119999999999,0.35890996,1.2838091999999999,0.98654735,-0.034540065,-0.10917035
-11.932701,0.45640188,-0.4208719,0.8252440000000001,0.14056882,-0.028815385
-11.370035000000001,0.6568636,-1.6060208999999999,0.53141785,0.19964822,0.13247049
-11.207383,1.109157,-1.9296117,0.28546605,0.14482743,0.27672195
-10.216365,1.5334191000000001,-1.725051,0.19072957,-0.009005899,0.3789459
-9.242365,1.348357,-1.1438633999999999,0.22586305,-0.09576622,0.41088542
-8.440700999999999,1.0199491,-1.150548,0.28761279999999995,-0.124511786,0.4092797
-7.955922999999999,0.8034175,-1.5007622,0.3003886,-0.136764,0.36882296
-7.879614999999999,0.77677476,-1.656347,0.24342106,-0.22778292,0.29377383
-7.9623675,1.0401561,-1.3745686000000001,0.20615830000000002,-0.32520720000000003,0.24425882
-7.8833594,1.48248,-1.2768469,0.18592992,-0.36246997,0.22989477
-8.068402,1.5970378,-1.6249733999999998,0.17102481,-0.34222415,0.22190116
-8.250629,1.5894626,-2.244363,0.12632693,-0.28899163,0.19156733
-8.4111185,1.1182166,-2.506557,0.08852310000000001,-0.25919884,0.15323989999999998
-8.47918,0.67306757,-2.793612,0.09597565,-0.17029178,0.10958923
-9.438489,1.1021564,-3.0818833999999997,0.060301125,-0.094701566,0.089360856
-10.18775,2.012221,-2.9186084,-0.017400933,-0.16709782,0.064332835
-10.957017,2.2591686,-2.3386753,-0.03869395,-0.06914994,0.03239331
-11.013461999999999,1.5236317,-2.9884522000000002,0.0033510323,0.23638739,0.01855285
-10.7310705,1.1075386,-4.365280599999999,-0.07648033,0.4919036,-0.0037873646000000003
-11.828697,1.1685524,-2.4244645,-0.16432275,0.42589524,-0.008045968
-11.863394,0.46752056,-0.6367523,-0.096185096,0.43547709999999995,0.035063665
-11.269785,0.22041020000000003,-0.34117374,-0.06637487,0.46795768,0.08562585
-11.078124,1.1464204,0.008159439000000001,-0.071157075,0.35775759999999995,0.12182398
-10.574203,1.612198,0.70390487,-0.22979005,0.071907565,0.09894271
-9.963479,1.8666921000000003,1.0016669,-0.3602185,0.09637708,0.11065388
-10.696729,2.3697807999999996,0.63987434,-0.44697879999999995,0.07297221599999999,0.16441001
-11.242214,1.8000375,0.09864111,-0.54012704,0.03303908,0.18943803
-11.049403,1.1572133999999998,-0.28873113,-0.5577025,0.044750242999999995,0.15482816
-10.364834,0.6463291,-0.44818497,-0.497541,0.049008845999999995,0.059027035
-9.951863000000001,0.46201390000000003,-0.5842043,-0.40706313,0.0010995574,-0.03466224
-9.280683,0.39109764,-0.69787145,-0.33625513,-0.07180285,-0.120881505
-8.620773,0.24829787,-0.6684228,-0.2851519,-0.11119492,-0.1853016
-8.188697,-0.05720227,-0.7325204000000001,-0.25640630000000003,-0.1436755,-0.20287707
-8.053884,-0.3686113,-0.8482082000000001,-0.23298400000000002,-0.16338027,-0.18210766
-8.215885,-0.33185549999999997,-0.94411993,-0.17922786,-0.16976817,-0.13367477
-8.1576395,-0.07330088,-1.1274966,-0.13664183,-0.18573794,-0.09267698
-7.9876027,-0.16047855,-1.264081,-0.07756243,-0.14421655,-0.083112575
-8.137432,-0.24197717,-1.3614771,-0.026441738,-0.12557644,-0.06977826
-8.082452,-0.18762879999999998,-1.5447389,0.023038346,-0.10161307,-0.03466224
-7.964197,-0.17770723,-2.0756674,0.085329145,0.00057595863,-0.005375614
-8.22281,-0.03919787,-2.2884450000000003,0.13271484,-0.031346112,0.010576695
-8.578894,-0.10340078,-2.2458857999999995,0.16783085,-0.08299041,0.011117746999999999
-10.018814,-0.30322087,-1.7801656000000003,0.17743017,-0.041469023,0.024417156000000002
-11.550874,0.21032584,-1.6928443,0.2104169,-0.034540065,0.045169123
-11.66548,1.0864216999999998,-3.0560834,0.16144295,0.07562511400000001,-0.0032463125
-10.858251,0.7996920999999999,-4.0389230000000005,0.10449286599999999,0.3247534,-0.02453933
-11.673494999999999,0.040988732,-2.739455,0.10822786400000001,0.3375292,0.010576695
-11.575667999999999,0.6144670999999999,-1.1723735,0.20828760000000002,0.21722367,-0.0559378
-10.971017999999999,1.0819972,-0.87304085,0.33126348,0.18528415,-0.18901916
-10.840676,0.7636546,-0.8937841999999999,0.30677652,0.14962707,-0.29070204
-10.48215,0.95385957,0.5579735,0.33126348,-0.1308997,-0.29708993
-10.704092999999999,0.6662680000000001,1.8851944,0.41378266,-0.39173916,-0.28696704
-11.520008,0.17287093,1.8700631,0.45954520000000004,-0.2719572,-0.21617648
-11.961824,0.43310150000000003,0.7224839,0.41430625,-0.057438787000000005,-0.12246975
-11.684365,0.766949,-0.36223316,0.3376514,0.109693944,0.00418879
-11.279008000000001,0.99976116,-1.1731302,0.24980898,0.18954276,0.12501794
-10.830555,1.1802073999999998,-1.4057124,0.19657643,0.15069173,0.22935371
-9.857915,1.1246907,-1.5519311000000002,0.16891296,-0.0063355453,0.28899163
-8.880085000000001,1.2972743999999998,-1.6024392,0.10396926,-0.08405506,0.3331659
-8.015701,1.6235944,-1.4238414,0.032637656,-0.12077679,0.3432888
-7.6959605,1.7886601999999998,-1.1535263999999998,-0.038676497000000004,-0.17667969,0.31347859999999994
-7.674345,1.5316858,-0.9278968000000001,-0.09403834,-0.21978931,0.23521802
-7.6391506,1.0556802,-0.9546544,-0.1052259,-0.26024604,0.17242108
-7.4565787,0.7792169,-1.1667712,-0.108943455,-0.18572049,0.15962781
-7.6968317,0.66871965,-1.2773928999999997,-0.08234464,-0.09896017,0.15695746
-8.109095,0.64518946,-1.6231443,-0.042952552000000005,-0.12025318,0.1425934
-8.371901,0.60073394,-1.9183971999999998,0.0028274334000000004,-0.17029178,0.10000736
-8.872826,1.1364318000000002,-2.7192863999999997,-0.008342674,-0.12025318,0.057962384000000006
-9.9347105,2.108717,-2.6581767000000003,-0.09564404,-0.16442747,0.035604715
-10.838772,2.5938303,-2.5688348,-0.17442821,-0.06914994,-0.015481071
-11.382207000000001,1.3478302,-2.999341,-0.21062633,0.15069173,-0.05326745
-11.4514,0.69279575,-3.887628,-0.24788912,0.24331635,-0.059131755999999994
-11.965464,0.99354583,-2.6809982999999997,-0.3005806,0.110776044,-0.076689765
-12.581980999999999,0.65717965,-0.30001265,-0.18666296,0.09798279,-0.024521876
-11.170187,0.28844383,0.7672746,-0.08180358,0.33061773,0.045186576
-10.408945,0.9391113000000001,0.07988014,-0.02857104,0.45889940000000007,0.09628981
-9.729519,2.0391512,-0.40076062,-0.12597786,0.17571975,0.062220987
-9.545663000000001,1.9801962,0.096313946,-0.37777649999999996,-0.035604715,0.083514005
-10.692208,2.292113,0.9018862,-0.5731312,-0.048380528,0.1441991
-11.667826,1.6201946000000003,0.77189064,-0.6428746,-0.029216811000000002,0.14952235
-11.580072999999999,1.0669329,0.42260529999999996,-0.53534484,0.02825688,0.10480702
-10.558276,0.7030238,0.049981352,-0.3506192,0.071907565,-0.0037699111
-10.046061,0.47962564,-0.5000338,-0.21275564,0.019198623,-0.11129965
-9.447030999999999,0.6427474,-1.122536,-0.20902063,-0.0771261,-0.20127137
-8.795817999999999,0.66118276,-1.124863,-0.30590385,-0.1441991,-0.2635447
-8.364077,0.43589795,-1.0434984,-0.40065777,-0.16655678,-0.2752559
-7.998683,0.05224148,-1.0283862,-0.42994440000000006,-0.18093829,-0.23692845
-7.867940400000001,-0.3696935,-0.84617794,-0.36287140000000007,-0.19477874,-0.1820902
-7.6807523,-0.42290223,-1.1014956,-0.26492350000000003,-0.1463284,-0.14695673
-7.702348,-0.013311761,-1.352609,-0.18826866,-0.12397074,-0.12833406
-7.9287825,0.09672575,-1.4535965,-0.11958996,-0.1314233,-0.12355186
-8.121534,-0.018310853999999998,-1.8013303,-0.09032079,-0.10693632,-0.08414232
-8.199288000000001,-0.22087947,-2.142255,-0.09936159,-0.05157448,-0.02719223
-8.210942999999999,-0.34846170000000004,-2.5116327000000003,-0.09403834,0.021327923999999998,0.021223204
-8.823284,-0.6310254,-2.5348945,-0.047193702000000004,0.020804325,0.036128316
-10.661725,-0.50081915,-1.1812512,0.008674286,-0.2027549,0.032934364
-11.816765,0.33799422,-0.5175498,0.094387405,-0.3219958,-0.017610373000000002
-11.443145,0.8079664000000001,-1.9143558999999997,0.10290461,-0.0728675,-0.13472196
-11.266146,0.46419740000000004,-2.366017,0.17530087,0.29813713,-0.15123278
-12.491671,0.87601924,-1.0161280000000001,0.27164304,0.34178782,-0.13739231
-11.661552,1.5664878999999998,-1.7479779,0.25089110000000003,0.33965853,-0.22521728
-11.626233000000001,1.5323178999999998,-0.62435037,0.15507251,0.12833406,-0.32690015
-10.397022,1.1416511999999999,1.0726118999999998,0.19818214,-0.023893557000000003,-0.30826005
-10.234734,0.30832529999999997,2.130964,0.35309756,-0.13035864,-0.26141542
-11.36041,-0.92189217,1.9690009999999998,0.4025951,-0.1335526,-0.17519616
-11.575458,-0.6521422,0.9359221999999999,0.4542394,-0.0169646,-0.11023499999999999
-11.630600999999999,0.52297026,-0.34512895,0.4648859,0.11714649999999999,-0.026127578999999998
-11.1257305,1.4769543,-1.2436059,0.42921138,0.17676695,0.054768432
-10.475033999999999,1.9776297999999999,-1.6823384999999997,0.3983365,0.14056882,0.09361946
-9.565553999999999,1.7498645,-1.9434022000000002,0.31477013,0.03090978,0.13727015
-8.846967999999999,1.5066233,-1.6036937,0.23385666,-0.0707382,0.17987363
-8.297134,1.3695598999999998,-1.1757828000000001,0.18805923,-0.16975072,0.22828907
-8.074532000000001,1.297552,-0.79298836,0.1534668,-0.24108233,0.26504570000000005
-7.966753999999999,0.9588299000000001,-0.39163393,0.12206833,-0.29803243,0.24694663
-7.72606,0.8488403,-0.08085698,0.14175564,-0.27302185,0.1968906
-7.6390166,0.9762118000000001,-0.5224627000000001,0.17104226,-0.16177456,0.14739305
-7.825017,1.2771055,-1.1739153999999998,0.13430308,-0.058503438,0.123429686
-8.211203,1.4735066,-1.4000525,0.085329145,-0.012182398,0.11704178
-8.2088175,1.1196915,-1.2532401000000002,0.13004448,0.00057595863,0.097337015
-8.679882000000001,0.90300673,-2.0420434,0.16411331,0.15601498,0.06541494
-10.075759,1.7074201,-2.556136,0.100234255,0.13259266,0.049968775
-11.12894,2.7142777000000002,-2.3118793999999996,0.010262536,0.11714649999999999,0.021746803
-11.551324000000001,2.287449,-2.3937897999999995,0.022514747,0.20551252,0.013247048999999999
-10.77998,0.94803685,-3.82535,-0.037088245,0.34924040000000006,0.018570304
-10.5359335,1.0711563,-3.6907672999999996,-0.13877113,0.4748692,0.024417156000000002
-11.46837,1.0261452,-1.190445,-0.07806858,0.47541022,0.07126179
-11.1959095,0.23570438,-0.45091435,-0.010471975,0.43708279999999994,0.114388876
-10.723974,0.39840475,0.13190137,-0.088715084,0.2550275,0.146852
-10.250813,1.5216588,0.49535078,-0.2569299,0.034644786000000004,0.15378097
-10.753461,2.3066602,0.9308369000000001,-0.38042942,-0.060615286,0.16868608
-11.828917,2.8540034,0.8461204999999999,-0.45336673,-0.094701566,0.18943803
-12.134274000000001,2.4275959,0.25344062,-0.49169415,-0.036669366,0.15643387
-11.337541,0.9735590000000001,-0.40093303,-0.4847652,0.0069638634999999996,0.0771261
-10.646431,0.038067807,-0.7636736999999999,-0.44910812,0.057526052,0.0031241393
-10.387694,0.16800591,-1.08239,-0.44484952,0.0021642083,-0.033580136000000003
-9.405948,0.501365,-0.8514356,-0.47040114,-0.10906562,-0.085748024
-8.336132000000001,0.68028843,-0.63430065,-0.47040114,-0.114388876,-0.13898057
-7.7437195999999995,0.4643602,-0.639951,-0.45497242,-0.13196434,-0.15974998
-7.576202,-0.040011898,-0.7035505,-0.41769218,-0.1436755,-0.14110987
-7.750969400000001,-0.41585368,-0.83838236,-0.35328954,-0.1436755,-0.09107128
-7.9120610000000005,-0.32530496,-0.8000273,-0.2894105,-0.17613862,-0.049549895999999996
-8.001987,0.16950947,-1.0547321000000003,-0.24096015,-0.14793411,-0.034121186
-8.090841000000001,0.45784798,-1.3197798,-0.18879226,-0.08831366,-0.02453933
-8.051528,0.40377729999999995,-1.5961951,-0.108960904,-0.026022859,-0.015481071
-8.081417,0.052653282999999995,-1.8309323,-0.01685988,0.022933627,0.0015358897
-8.380022,-0.42557412,-1.9042906000000002,0.09597565,0.047420595,0.025481807000000002
-9.598402,-1.0037835,-1.491377,0.19392353,-0.05157448,0.032934364
-10.84833,-0.7309019,-1.0697484,0.26366690000000004,-0.124511786,0.05157448
-11.226508,0.9813354,-1.8607543999999998,0.35896188,0.019216076000000002,0.02443461
-10.817203999999998,2.0539856,-3.6371083,0.3286106,0.21296507,-0.070842914
-11.330665,1.2218856000000002,-3.4933224000000003,0.29719466,0.3008075,-0.107041046
-12.416435,1.3842125,-1.2588617,0.36267942,0.048485245999999996,-0.09426523
-11.857178999999999,2.2254487999999997,-0.36909970000000003,0.4558451,-0.046251226,-0.21509437
-11.546833,2.0078924,-0.80855066,0.29667106,-0.10054842,-0.37372735
-10.532985,0.37143648,0.4120420999999999,0.15985471,-0.06382669,-0.37213909999999994
-10.716609,-0.9289023999999999,2.517417,0.3286106,-0.16762142,-0.26834437
-11.754237,-0.85527587,2.6080612999999997,0.5692216999999999,-0.20062560000000002,-0.16826719
-11.481527999999999,-0.12227667,1.0513417999999999,0.6708871,-0.098419115,-0.1123643
-10.979809,0.64416474,0.10771034,0.63255966,0.03090978,-0.018151425
-10.714483,1.4064595,-0.6698784999999999,0.5409997,0.108629294,0.024958208
-10.510977,1.7868886000000002,-1.1495233,0.44943973,0.13843952,0.103201315
-9.993300999999999,1.788641,-1.3422756,0.35309756,0.037297685,0.17559758
-9.213204,1.6076777,-1.3565260000000001,0.25354397,-0.07180285,0.23575908
-8.420503,1.5051388,-1.0129484,0.19392353,-0.10428342,0.2826037
-7.951738000000001,1.537269,-0.9706667999999999,0.14014994,-0.11280063,0.29590312
-7.845866,1.8410167000000002,-0.9565601999999999,0.050195668,-0.15379842,0.28419197
-7.6525393,1.7910736,-0.7068354,-0.0024783674,-0.1984963,0.24479988
-7.417917,1.413326,-0.6750978,-0.0019547688000000002,-0.16442747,0.2032785
-7.496906299999999,1.1736186000000002,-0.90836966,0.0028274334000000004,-0.123447135,0.16655678
-7.696391,0.9438135,-1.3345473,-0.020577433,-0.0792554,0.1378112
-7.906363000000001,0.5290132,-2.0145676,-0.025377087000000003,0.0564614,0.11278318
-8.958202,0.9066171000000001,-2.645612,-0.06476917,0.09798279,0.093636915
-9.953731,1.9780798,-2.8644133,-0.14620623,0.020263273000000002,0.07552039599999999
-10.695186999999999,2.6887746,-2.723433,-0.25373596,0.093724184,0.0095294975
-10.958242,1.6985999,-2.966952,-0.31548572,0.24118705,-0.049008845999999995
-10.701527,0.59787047,-3.7676114999999997,-0.37245327,0.32155946,-0.067125365
-11.362267999999998,0.8155992,-2.5368962,-0.40385175,0.2470339,-0.0490263
-12.422353999999999,0.5010394,-0.20331562,-0.21488494,0.14269812,0.047315877
-11.792324,-0.12528378,0.7921935,-0.08019788,0.20764183,0.06274459
-11.450662,0.6413683000000001,0.4613148,-0.008866273000000001,0.19912462,0.12610003
-10.72,2.22338,0.24522372,-0.026965337000000002,-0.047856927,0.1362055
-10.1188545,3.083751,0.6146778,-0.22392574,-0.07021459,0.15271631
-11.08049,3.1350729999999998,0.9451159,-0.39107594,-0.0068591437,0.14526375
-11.773717,1.686562,0.56079865,-0.430468,0.07723082,0.10480702
-11.356492999999999,0.5591323,0.07785944,-0.33944908,0.11714649999999999,0.03986332
-10.221681,0.3847578,-0.43435609999999997,-0.19624482,0.16985545,-0.05539675
-9.640751,0.8471069,-0.7489638000000001,-0.045605455,0.17996089,-0.13311626
-8.598075999999999,0.99225295,-1.2103549999999998,-0.021642083,0.13259266,-0.24279276
-7.9169836,0.5915785,-1.3609025,-0.102031946,0.1123643,-0.32157692
-8.070002,0.04552814,-1.1194521000000002,-0.19465657,0.0538085,-0.31890655
-8.636125,-0.29629679999999997,-0.5850375,-0.23989551,-0.045727625,-0.20552997
-8.455229,-0.23192152,-0.539586,-0.23776620000000004,-0.0749968,-0.061261058
-7.7594357,0.28444073,-0.78326786,-0.25001842,-0.0744732,-0.018675024
-7.518472999999999,0.9901076999999999,-1.0793923,-0.28461084,-0.067544244,-0.051679197999999996
-7.795501,1.0666456,-1.3473705,-0.31496212,-0.047856927,-0.09958848
-8.137547,0.6757873000000001,-1.6246287,-0.31176817,-0.03933972,-0.1123643
-8.242116000000001,0.23909456,-1.8615971999999998,-0.27450538,-0.031887166,-0.08948303
-8.475828,-0.22568703,-1.9060335,-0.23884831,-0.08405506,-0.058608155999999995
-9.164764,-0.86396205,-1.7639328,-0.20210913,-0.14686945,-0.051155599999999996
-10.24182,-0.98664093,-1.1884913000000001,-0.007801621700000001,-0.133029,-0.031450834
-10.9666605,-0.36067212,-1.6381128,0.2136283,0.026651177999999998,-0.07031932
-10.874177,0.80501676,-3.329626,0.24076816,0.26141542,-0.21085322
-10.993034,1.0987949,-4.0222874,0.19765854,0.39714968,-0.30028390000000005
-12.137166,1.0706008999999999,-2.8989089,0.10716321,0.34178782,-0.3029368
-12.689499,2.0381549999999997,-1.7753581000000003,-0.028029988,0.0522028,-0.4290892
-12.103389,2.5571895000000002,-1.5337543,-0.23137829999999998,-0.16016887,-0.6276553
-10.735764,0.34241873,-0.8998559000000002,-0.31548572,0.08361872,-0.70005155
-10.891262,-1.371437,1.7592785,-0.10629055,-0.084578656,-0.44772932
-11.072513,-1.4526771,3.5510800000000002,0.30147073,-0.41940263,-0.2842967
-11.589545,0.14916836,2.6840436000000003,0.67142814,-0.38161623,-0.20340067
-11.301024,0.78319126,0.80514127,0.78853977,-0.21978931,-0.19807741
-10.9662485,0.4080773,0.09767385,0.72307247,-0.12557644,-0.06391396
-10.533941,0.52055687,-0.2506825,0.6368183000000001,-0.12397074,0.09149016
-9.995600999999999,0.82740736,-0.7820995,0.54686403,-0.12716469,0.24160592
-8.996922,0.9926169,-1.0207152,0.4755324000000001,-0.16336282,0.31932545
-8.084375999999999,1.1320839,-1.1098752,0.41271800000000003,-0.13622294,0.36829937
-7.687255,1.3734959999999998,-1.2853991000000002,0.35044464,-0.10800097,0.37629297
-8.093867,1.4710549,-1.5741397,0.2807013,-0.1266411,0.33531266
-8.653487,1.366256,-1.5703186000000002,0.21043435,-0.21766001,0.27993336
-8.58398,1.1598662,-1.149619,0.22160445,-0.28366837,0.26982790000000006
-8.489696,0.8016937,-0.99962705,0.2721841,-0.25172883,0.25492278
-8.648498,0.4881394,-1.5486943000000002,0.274837,-0.22937118,0.23256512
-8.698729,0.58457786,-1.8971367,0.22479841,-0.25385815,0.21605429999999998
-8.578415,0.92906517,-2.0725837,0.19926424,-0.19104373,0.18626153
-8.797667,1.4624646000000001,-2.0284443,0.15720181,-0.15484561,0.15325736
-9.197689,2.437125,-2.167806,0.033702306,-0.023893557000000003,0.129294
-10.120549,2.6429975,-2.0875044,-0.15419984,0.14749777,0.0776497
-10.585398,1.5568153,-2.4305935,-0.2947163,0.39556143,0.040404372
-10.441621000000001,0.7690272,-3.3898735,-0.37938222,0.62924355,0.046233773
-11.544592,0.8147564,-2.1213872000000005,-0.4033107,0.58561033,0.048921578
-12.801337,-0.06508397,-0.4137755,-0.16004670000000001,0.35829863,0.11119492
-12.803674,-1.0631692,-0.19335572,-0.014713125,0.1746551,0.19690804
-11.778046,0.21854272,0.43850285,0.08267625,0.095870934,0.30976105
-10.140373,2.8604102000000005,0.4179893,-0.038152896,-0.18359119,0.19795524
-9.299386,3.2328427000000004,1.0148734000000001,-0.27822295,-0.22565362,0.062220987
-10.329792999999999,2.8003924,1.2749795,-0.500735,-0.05157448,0.06487389
-11.748539,1.456412,0.79437697,-0.6040061,0.10543534,0.0749968
-11.88589,0.4365013,0.119978234,-0.56728435,0.14908603,0.07180285
-10.732939,0.08158482,-0.28010246,-0.4256858,0.1123643,-0.056478854
-10.380321,-0.032120607999999995,-0.43442309999999995,-0.28248155,0.043685592999999995,-0.19805996
-9.421078,0.33430716,-0.83446544,-0.23617795,-0.0723439,-0.3093247
-8.342481,0.52173483,-1.176731,-0.2856755,-0.10321877,-0.3742684
-7.787992999999999,0.2872755,-1.2907046,-0.37245327,-0.11280063,-0.37055084
-7.8365765,-0.10710701,-1.0775822,-0.41395718,-0.14845770000000003,-0.30826005
-8.156566999999999,-0.2628929,-0.5678566999999999,-0.38201767,-0.22724187,-0.20818287
-7.893203999999999,-0.24834575,-0.47613966,-0.33412582,-0.28047442,-0.11555825
-7.6577773,-0.36569995,-0.6893577,-0.26490608,-0.22617722,-0.07723082
-7.748249499999999,-0.46299073,-1.2187540000000001,-0.165911,-0.11812388,-0.04796165
-7.915336,-0.33974679999999996,-1.6302502,-0.115872405,-0.04998623,-0.018675024
-8.032996,-0.19143079,-1.6772628,-0.09349729,-0.059027035,0.007923795
-7.843634599999999,-0.26886886,-1.7968099999999998,-0.090844385,-0.045186576,0.029216811000000002
-8.611943,-0.3513156,-1.9911617,0.008674286,0.15707964,0.031346112
-10.4559765,-0.22062089999999998,-1.1872175,0.09812241,0.020804325,0.0042062434
-10.937987,-0.16220237,-1.6402773000000002,0.08267625,-0.08299041,-0.09906489
-10.853941,-0.06980535,-2.2781307999999996,-0.010471975,0.14004523,-0.18743089999999998
-11.4126425,-0.22207657,-2.6477475,-0.015795228999999997,0.45464079999999996,-0.16294394
-13.394419000000001,0.7650336,-1.031719,-0.14247122,0.21563543,-0.18050195
-12.749267999999999,2.5640943,-0.6190448000000001,-0.23296654,0.06393141,-0.30452505
-10.593432,1.9618950000000002,-0.7888033,-0.20102702,0.33541736,-0.41099012
-10.410047,-0.101140656,0.056005165,-0.23244295,0.1794373,-0.34817573
-10.736645,0.03729209,2.5387060000000004,-0.12438962,-0.21766001,-0.26780329999999997
-11.279046000000001,-0.20480002,3.0065715,0.11568042,-0.22244221,-0.24490460000000003
-12.300039,-0.14240712,1.7558788,0.3525565,-0.03614577,-0.21191788
-12.655435,-0.06373365,0.09039548,0.44306928,0.054349552999999995,-0.14856243
-11.909189999999999,-0.033183634,-0.588399,0.4217588,-0.004729842299999999,0.030281462000000002
-11.208772,0.35491648,-0.97799313,0.39409533,-0.036669366,0.20701350000000002
-10.056184,0.6326151,-1.1445625,0.34670967,-0.121300384,0.30230847
-8.817069,0.9441678,-0.88351786,0.36322048,-0.112259574,0.3491531
-8.171745,0.9386133,-0.8662988000000001,0.4036772,-0.12555899,0.34541813
-7.9616112999999995,0.9442060999999999,-1.04369,0.39036033,-0.16868608,0.31560788
-7.8833494,1.0777068,-0.8934778,0.33819243,-0.26024604,0.27036896
-7.4159822,1.1799678999999998,-0.6374609999999999,0.2721841,-0.31508428,0.24747023
-6.9505490000000005,1.4397962,-0.54734325,0.22746876,-0.24321163,0.21820106
-7.2193320000000005,1.6177333999999999,-0.9512163,0.16730726,-0.17400932,0.17559758
-7.784631699999999,1.6488866999999998,-1.1237426000000001,0.11513937,-0.17348573,0.11651818
-8.042258,1.4163139999999999,-1.2433856,0.12632693,-0.13461724,0.07393215
-8.622247999999999,1.1076248,-1.9686084,0.13325588,0.04796165,0.035604715
-10.320808999999999,1.0027683,-2.2276611,0.11302752,0.020280726000000002,0.05956809
-11.27444,1.3569378,-3.0672214,0.037978366,0.004310963,0.08405506
-11.549265,1.6698408,-3.2161121,-0.022706734,0.07403687,0.08299041
-11.224563999999999,1.5510693000000002,-3.731507,-0.06635742,0.20978858,0.0749968
-12.2627945,1.5955248,-2.5516062,-0.12330751,0.23853415,0.06595599
-13.91261,1.0997525,-0.34781045,-0.06742207,0.15282103,0.1378112
-12.394275,0.28467059999999994,0.58023953,-0.059969515,0.18210766,0.18200293
-10.541403,1.2436633,0.79628277,0.0023038345,0.31890655,0.1378112
-9.534986,1.6261896999999998,1.0257334999999999,-0.09775589400000001,0.1746551,0.019111356
-9.219381,1.258718,1.4292905,-0.28886944,0.13046336,0.03827507
-10.162706,1.5555223999999999,1.2629508999999999,-0.41184536,0.18634881,0.16549212
-10.829999,1.9356354,0.7250217,-0.48370054,0.14217453,0.22245966
-10.837268,1.8145461999999999,0.62248284,-0.49221775,0.06391396,0.18413223
-10.173816,0.8770631,0.42909843,-0.4198215,0.02719223,0.046251226
-9.712605,0.11093773,0.1846504,-0.3378434,0.023474678,-0.09107128
-9.512298,0.16759412,-0.11956642599999999,-0.2957984,-0.019634955,-0.16985545
-8.888657,0.2786755,-0.29695759999999993,-0.25480062,-0.059027035,-0.23212878
-8.436898,0.312156,-0.5784583000000001,-0.24734806,-0.02656391,-0.26087436
-8.497262,0.081987046,-0.8397614999999999,-0.29419270000000003,-0.055833083,-0.24755749999999999
-8.599416999999999,-0.41740513,-0.76767683,-0.33677873,-0.16177456,-0.1900838
-8.578339,-0.74687606,-0.6552355,-0.31867966,-0.2032785,-0.12672836
-8.338066,-0.6346454,-0.7273202,-0.25640630000000003,-0.17774433,-0.101717785
-8.289683,-0.471629,-1.0398209,-0.16962855,-0.12557644,-0.09800023599999999
-8.27731,-0.22566788,-1.399478,-0.14088298,-0.10693632,-0.07881907
-8.067339,-0.042061336,-1.645487,-0.15365879,-0.05050983,-0.046355944
-8.015443,-0.10710701,-1.747116,-0.15685274,0.041573743999999996,-0.009093165
-8.628061,-0.42476967,-1.8390724999999999,-0.07007497,0.12248721,0.045186576
-10.071354,-0.8031206,-1.2818078000000002,0.02412045,-0.0771261,0.08883726
-10.719866,-0.72724354,-0.458662,0.11302752,-0.11918853,0.12770574
-10.572613,-0.19215862,-1.0457107,0.21788691,0.10438814,0.045727625
-10.662778,0.5289941,-2.2525513,0.278572,0.31677726,-0.0522028
-11.805358,0.63543075,-1.85497,0.30253538,0.22202334,-0.107041046
-13.0777235,1.5980434,0.15510596,0.3036,-0.059027035,-0.1123643
-12.524183,2.9721715,0.20407218,0.2913478,-0.19582593,-0.26619762
-10.620755,1.5624655,-0.5090264,0.18062413,-0.043057274000000006,-0.40140828
-10.140775999999999,-0.8195735000000001,1.0203418,0.19872318,-0.031346112,-0.33646458
-11.717500999999999,-1.2469959,2.9703329,0.36215582,-0.26183429999999996,-0.2534218
-12.434784,0.0719697,1.9317473000000003,0.57241565,-0.1425934,-0.20177752
-12.060877,0.4086902,0.17637606,0.49097857,-0.056897733,-0.21029472
-11.043006,0.38282326,-0.23457429999999999,0.34618604,0.021345377000000002,-0.04314454
-10.503678,0.84178215,-0.45015782,0.22214551,0.120881505,0.1378112
-9.729883000000001,1.1627489,-1.0292576999999998,0.13857915,0.16453218,0.2756922
-8.819339,1.3648481000000001,-1.3165524,0.029984757,0.120881505,0.3363773
-7.860575999999999,1.5449687,-1.3275370000000002,-0.049846604,0.080965824,0.3448945
-7.448869,1.627789,-1.3148668,-0.14086552,0.060737457,0.29859093
-7.5933733,1.4703271,-0.89670515,-0.25425956,-0.03932227,0.23788838
-7.735253999999999,1.2277274,-0.51468635,-0.31281537,-0.13887584,0.1937141
-7.792964,1.0696719,-0.28719884,-0.30483920000000003,-0.1287704,0.17933258
-7.8744335,0.8551226999999999,-0.46342170000000005,-0.26490608,-0.061679937000000004,0.17561503
-8.122416000000001,0.3717908,-0.8573061,-0.20315632,-0.0169646,0.1266411
-8.393219,0.26568937,-1.1255238,-0.13076007,-0.048380528,0.07340855
-8.374755,0.40402633,-1.664813,-0.03122394,0.031991884,0.038798667
-9.038322,0.85929817,-2.5455822999999995,0.016667895,0.11449360000000001,0.032428216
-10.019696000000001,1.5967793,-2.8775432,-0.022165682000000003,-0.0009948377,0.019634955
-11.026879,1.6871556,-2.6444151000000002,-0.07433357,0.0538085,-0.026110126
-11.442571000000001,0.84190667,-3.0234362999999997,-0.06848672,0.20552997,-0.04527384
-11.509644999999999,0.63984567,-3.7127461000000004,-0.11639601,0.33861133,-0.06923721
-13.190366000000001,1.1285691999999998,-2.0205338,-0.20050342,0.2789909,-0.08201302
-13.585351999999999,1.0574709,-0.20020314,-0.12437216,0.10758209,0.030281462000000002
-11.304185,1.2136784,0.81451696,-0.03600614,0.24918066,0.03614577
-10.677412,1.6176853999999998,0.20358376,-0.029618237000000002,0.33700562,0.048921578
-9.436803999999999,1.6430831000000001,0.23214179999999995,-0.21753784,0.07775441599999999,0.08192576
-8.827211,2.0046363,0.99518347,-0.5092522,0.101717785,0.16496852
-10.761467999999999,2.3171275000000002,1.1772098999999998,-0.7136650999999999,0.085748024,0.23151793
-12.106653999999999,1.4976209999999999,0.55932385,-0.7770031,0.08522443,0.21661282
-11.898158,0.8947706,0.11258494,-0.6577622,0.1081057,0.13569935
-10.481585,0.53425175,0.053103395,-0.46293113,0.0490263,-0.03783874
-10.160982,0.25908136,-0.03569276,-0.29365164,0.0037699111,-0.15973254
-9.266451,0.22156900000000002,-0.40400717,-0.23989551,-0.122365035,-0.27630308
-8.537906,0.2587653,-0.606164,-0.25958282,-0.1356819,-0.33381167
-8.096759,-0.07732314,-0.8658965000000001,-0.29738665,-0.094701566,-0.32155946
-8.165693,-0.48989198,-0.88923526,-0.28354618,-0.123429686,-0.2470339
-8.2753,-0.6316575,-0.5913199,-0.20476203,-0.23095942,-0.14323917
-7.9587574000000005,-0.26490405,-0.43419325,-0.10681415,-0.3219958,-0.07936012
-7.517917999999999,-0.060985107000000004,-0.57657164,0.010279989,-0.29057986,-0.06443755
-7.593325599999999,0.04138138,-0.8668254999999999,0.10716321,-0.19317304,-0.055920347999999995
-7.8041973,0.30926383,-1.0448201,0.19765854,-0.13674654,-0.022916173999999997
-7.9961834000000005,0.44170147,-1.2945448,0.26792550000000004,-0.15591027,0.015917404
-8.083083,0.22818656,-1.7129842,0.29827678,-0.10693632,0.05050983
-9.136092,-0.30021375,-1.8885751,0.3041236,-0.019634955,0.055309486
-10.723361,-0.57649505,-1.3355143999999999,0.36161476,-0.038257618,0.09896017
-11.469192999999999,0.47814125,-1.5542966,0.49045497,0.019739674,0.14474015
-11.076228,1.0717596999999999,-2.8935747000000003,0.5005604,0.1900838,0.0723439
-11.290298,0.99686897,-3.124462,0.58892643,0.41846013,0.0739496
-13.168445000000002,1.4768393,-0.5960221,0.7198785,0.14536847,0.082449354
-13.5064,2.3298647,-0.2681985,0.76937604,-0.17879152,-0.045814894
-12.70283,2.9860482000000004,-0.14793293,0.44413394,-0.49127528,-0.27632052
-10.234159,1.0606792,1.1223443000000002,0.31264082,-0.30496138,-0.37692129999999996
-8.854733999999999,-1.1941991000000003,2.700631,0.3978129,0.1081057,-0.22415264
-10.590205000000001,-1.8670558999999998,2.8436413,0.5782799,0.06445501,-0.124599054
-11.3964,-0.7617679,1.2426864,0.7156199000000001,-0.05742133,-0.04740314
-10.791232,0.39303216,0.07830955,0.6900683000000001,-0.02974041,0.0004886922000000001
-10.504569,1.1334438,-0.51128656,0.5857325,0.086812675,0.045727625
-10.587045,1.9352523999999998,-0.8064821,0.5271766999999999,0.22788765,0.10215412
-10.173853999999999,2.1027028999999997,-1.4613056999999998,0.42762312,0.19381881,0.15645131
-9.453917,1.9681294999999999,-1.3772023000000002,0.33553955,0.10917035,0.1953198
-8.696429,1.7076021000000001,-1.2051933000000001,0.23813272,0.08841838,0.21074851
-8.076849000000001,1.4500913999999998,-0.99832463,0.12260938,0.08042477,0.21500711
-7.587752,1.4894999,-0.869258,0.013473942,0.061802108,0.20542525
-7.2792444000000005,1.8983912,-0.9633309999999999,-0.09243264,-0.0036651914,0.19690804
-7.302382499999999,2.3313203,-1.058218,-0.17228144,-0.060091686,0.18573794
-7.502988,2.2548208,-1.2285415000000002,-0.24893631,-0.11704178,0.15060446
-7.68895,1.628785,-1.2121938,-0.3122743,-0.12397074,0.109606676
-7.7737045,0.85015225,-1.310471,-0.30270990000000003,-0.02867576,0.068626344
-8.469737,0.624743,-2.2953212000000005,-0.29152235,0.18423696,0.05211553
-9.480464,1.0874847,-2.8051138,-0.25425956,0.2709973,0.04946263
-10.780785,1.198365,-3.0971968,-0.19730946,0.29070204,-0.028780478999999998
-11.847199,0.35922602,-3.1565826,-0.10946705,0.31464794,-0.111823246
-11.85329,-0.040165126,-3.9462383,0.011885692,0.23746950000000003,-0.12779301
-12.601995,0.6507536,-2.4101852999999998,0.029984757,0.16826719,-0.13098696
-12.8242445,0.64656854,-0.08892065,0.11142181599999999,0.39929643,-0.050073497
-12.104892999999999,0.30379546,-0.15184027,0.18381807,0.55047685,0.012723451
-11.664168,0.78987586,-0.43552443,0.31850514,0.46795768,0.10002482
-10.232884,1.4528781000000002,0.12431653,0.21682225,0.11503465,0.107477374
-9.515755,2.4699638,0.45187205,0.03478441,0.15762068,0.11280063
-10.632392,3.1972554,0.070370376,-0.12117821,0.07723082,0.07927285
-11.327973,1.8510339,-0.15685852,-0.27183503,0.027733281000000002,0.04733333
-11.053483,0.81512034,-0.15932932,-0.24413666,0.082030475,0.05424483
-10.162792,0.51268476,-0.27201003,-0.10999065,0.090024084,0.020717058
-9.539313,0.5709884,-0.47694412,-0.022165682000000003,0.02932153,-0.04207989
-8.589744999999999,0.76478463,-0.851608,-0.016318828,-0.035063665,-0.13363986
-7.927958500000001,0.6545652,-0.98148865,-0.053564154,-0.04464552,-0.22680554
-7.8820567,0.3869413,-1.0837306,-0.10414380000000001,-0.033999015,-0.2496868
-8.031216,0.07196013,-1.0950886999999998,-0.15524703,-0.07019714,-0.21722367
-8.184349000000001,-0.13417107,-1.1468992,-0.15737633,-0.048904125,-0.16824974
-8.215817999999999,-0.23063825,-1.5247617,-0.11691961,-0.021223204,-0.14960963
-8.025441,-0.24311683,-1.7451144,-0.08923868,-0.021223204,-0.15015067
-7.848327,-0.27516082,-1.8669601999999998,-0.061557762,0.021868976000000002,-0.15653858
-7.6118183,-0.46357492,-2.451174,-0.053040557,0.13100441,-0.12512265
-7.621807,-0.7328555999999999,-3.048738,-0.028553586000000002,0.23108159,-0.07295476
-8.096461999999999,-0.9470791999999999,-2.9680917,0.0023038345,0.22682299,-0.027174776
-9.511894999999999,-1.0358370000000001,-1.9949063999999999,0.033702306,0.07829547,-0.01654572
-11.075816,-0.279049,-0.8755404,0.10079276599999999,-0.084578656,-0.012269665
-11.2286625,0.38218164,-1.4129717,0.14442599,-0.047315877,-0.09265953
-10.058232,0.12318646,-2.9666072999999997,0.11889183,0.32264155,-0.17570229
-9.518139999999999,-0.52783525,-3.8925793,0.1604132,0.60423297,-0.17303194
-11.251121000000001,0.14055879999999998,-2.4655297000000003,0.12260938,0.42484805,-0.20338322
-12.197175,2.2315492999999997,-2.091383,0.09492846,0.21511184,-0.32529446
-12.351073,2.9525773999999996,-1.8593276,0.025726152999999998,0.12620476,-0.44718826
-12.194636000000001,1.1004611999999998,-0.03152685,0.019338248,-0.19156733,-0.43015385
-12.701997,-0.3545717,2.0821607,0.13697344,-0.40875609999999996,-0.27417377
-12.879483,-0.7943291,1.7947415,0.38983673,-0.12768829,-0.07349581
-12.559063,-0.08305007,-0.2783403,0.48830822,0.058608155999999995,0.0026005406
-11.940823,0.24310724,-1.4317708999999998,0.45797440000000006,0.06977826,0.13409364
-11.380962,0.5287834,-1.7282688999999998,0.39941859999999996,-0.019093903,0.27356290000000005
-10.527994,1.0991684,-1.9748142,0.31424654,-0.09681341,0.38322195
-9.409432,1.4775097,-1.8957002,0.20406389,-0.18624409,0.42154938
-8.165424,1.6670156999999999,-1.648743,0.16200146,-0.16762142,0.41622612
-7.4793520000000004,1.5925081,-1.5046503999999998,0.09546951,-0.13939945,0.37683403
-7.4355288,1.3995354,-1.1693951,0.053407077000000004,-0.13248794,0.3385066
-7.4893979999999996,1.0962379,-0.97159576,0.011362093500000002,-0.20169024,0.2714336
-7.225356,1.0174303,-0.93636274,0.0198793,-0.25492278,0.22406536
-7.0616117,1.1868728000000002,-1.2146168,0.04914847,-0.19210839999999998,0.17987363
-7.4467144,1.4595821000000002,-1.6643723999999998,0.076829396,-0.12662363,0.16177456
-7.856955999999999,1.4607887,-2.3415582,0.066723935,-0.14365806,0.13463470000000002
-8.069705,1.1482784,-2.7958243,0.00710349,-0.16549212,0.08937831
-8.90735,1.039323,-2.8391592999999995,-0.06262241,-0.18891443,0.041469023
-9.908519,2.105432,-2.8089826,-0.19196877,-0.25970498,0.028169613
-10.389878,3.1094167,-3.0567732000000003,-0.35274848,-0.11065388,0.010053096
-10.754323,2.1834352000000004,-3.5683181000000004,-0.49167669999999997,0.19914207,-0.039950587
-11.186879,0.8483135,-4.423057599999999,-0.50338787,0.50947905,-0.036756635
-12.2779455,0.5789946,-3.6826942000000003,-0.47411868,0.41578978,-0.002687807
-13.519012,0.04820007,-1.3499466,-0.27661723,0.20659462,0.06595599
-12.576522,-0.2981547,-0.2661203,-0.162176,0.02560398,0.1388933
