accx,accy,accz,gyrx,gyry,gyrz
-11.411722,-0.11248917,-3.5368583,0.013648475,-0.14460053,0.13322099
-11.435253,-0.61864257,-0.19718644,0.046652652,-0.3378434,0.16303120000000001
-11.653624,1.0930872,3.032946,0.16376424,-0.18666296,-0.038187806
-11.131755,0.9857599,4.462983599999999,0.24891886,-0.27131143,-0.36130062
-10.124246000000001,1.6135578000000002,5.7178035000000005,0.08656833,-0.49912927,-0.6466270000000001
-8.136637,0.17175046,4.7185793,0.06740461,-0.29045770000000004,-0.7967428000000001
-8.722767,-1.9773328000000001,3.2873921000000004,0.25637139999999997,0.06883579,-0.68336624
-12.312996,-3.0065715,2.7193725,0.38627627,0.20671679,-0.3921755
-13.408717000000001,-0.63340044,2.07991,0.49645892,0.053930674000000005,-0.072239175
-11.686233,0.6407459,1.2414702,0.58056635,-0.11426671,0.037926003
-10.448105,0.34925658,1.0818823999999998,0.60185933,-0.1664346,0.11990411599999999
-9.019743,0.446691,1.0034386999999998,0.61624086,-0.20263273,0.20188223
-7.420196000000001,0.5567477,0.82977283,0.6417925,-0.162176,0.20879374
-6.438448999999999,0.5949208,0.7054563,0.63646924,-0.11691961,0.14971434
-6.5431905,0.6875477,0.42969218,0.59386575,-0.090844385,0.061871924
-6.7795076000000005,0.6261890999999999,0.31454065,0.5699198000000001,-0.20741493,-0.012095132
-6.8058534,0.49947837,0.5121293,0.58749527,-0.24041910000000002,-0.12175417
-6.854226,0.75186557,0.340647,0.6034649999999999,-0.08339183,-0.226631
-7.207878599999999,0.49168283,-0.22471978,0.58376026,0.18488273,-0.3027448
-7.780696000000001,0.30404446,-0.94868803,0.53639203,0.45690975,-0.28145180000000003
-8.918985000000001,1.0509588,-1.9077287,0.40118137,0.45211008,-0.24897122
-10.567853999999999,2.5240153999999997,-1.4186125,0.1653525,0.25727898,-0.27132890000000004
-11.76528,2.9965158,-0.8959581,-0.06085963,0.23705062,-0.30806807
-11.81598,1.3559322,-1.2776608,-0.25090852,0.27750736,-0.27345818
-11.578158,-0.7645069,-1.8086852999999998,-0.35363862,0.36693802,-0.18083356
-12.048992,-1.150663,-2.4949784,-0.37334338,0.38503709999999997,-0.08981464
-12.183641999999999,0.23827095,-2.7381527,-0.4121944,0.22479841,-0.038711403
-12.801116,1.294813,-0.4384741,-0.42657593,0.026790803,0.064018674
-13.480026,-0.09845915400000001,2.459525,-0.3909014,0.0070860367,0.27694884
-13.890392000000002,-1.0346878000000002,5.490929,-0.3403392,0.014014994,0.6181607
-12.369643,-1.6203766000000002,5.767517,-0.17371263,-0.15524703,0.88699377
-8.577955000000001,0.9018575000000001,3.4682120000000003,-0.13805555,-0.22977260000000002,0.7693411
-8.325013,2.7981896,2.6264486000000002,-0.31902874,-0.061557762,0.47816786
-10.813805,2.2604425,2.3261201000000002,-0.49577823,0.07257079,0.18804178
-11.759945,0.20820935,1.2652878,-0.6528055,-0.05677556,0.047507863
-10.448909,-0.9724577,1.1136198999999998,-0.64961153,-0.24787165,0.045378562000000004
-8.714414999999999,-1.1422162,1.1440451999999999,-0.5681745,-0.39481091,-0.022218041
-7.435212599999999,-0.9155235999999999,1.259082,-0.46916196,-0.35007814,-0.14517649
-6.851439,-1.1353496,1.0945045,-0.36267942,-0.1754754,-0.20905554
-7.055855800000001,-1.3297780000000001,0.95511407,-0.25834364,-0.06848672,-0.18189822
-7.0464896999999995,-1.0277638,0.7123995,-0.19127063,-0.1020145,-0.08874999
-6.959695299999999,-0.844569,0.87606716,-0.148161,-0.1062731,0.005986479
-7.038292,-1.3037098999999999,0.9360944999999999,-0.09653416,0.038501963,0.084247045
-7.7439017,-1.493436,0.80504555,-0.039584067,0.22214551,0.15981979999999998
-8.852322000000001,-0.96189445,0.49013140000000005,0.036529742000000004,0.36267942,0.19868828
-10.169486000000001,-0.5872019,-0.11599428,0.10255554,0.34351570000000003,0.15505505
-10.581251,-0.60663325,-0.6015862,0.14247122,0.19659388,0.09754645
-9.9843,-1.043441,-0.9069619000000001,0.1712168,0.20778145,0.062412973
-10.169209,-1.4346727,-1.3794433000000001,0.25478315,0.43933427,0.008115780999999999
-11.980030000000001,-0.8896662000000001,-1.6140846000000002,0.29791024,0.44359288,0.015568336499999998
-12.482563,0.7421738,-1.7672178,0.34848988,0.105574965,0.05550147
-11.775124,0.92375964,-1.9889974999999998,0.31866223,-0.009930924,0.06827728
-10.747284,0.37489367,-2.2963266,0.25425956,-0.037070792000000005,0.08955284
-10.630877499999999,-0.09441774,-0.38392463,0.22924899999999998,-0.2425484,0.03260275
-11.9967985,1.3326414,1.5633466,0.13021901,-0.06794567,-0.18776251
-12.554677,1.9143462,2.338934,0.0008726646000000001,-0.33836700000000003,-0.42837359999999997
-10.443795,2.518298,3.2875360000000002,-0.18275343,-0.7418696,-0.5587846
-7.302449,-0.36087322,3.1037664,-0.21364576,-0.51829296,-0.5619786
-9.03679,-2.1154493999999997,3.6283839999999996,-0.09014626,-0.0019373155,-0.5502674
-13.231192000000002,-1.8979698,2.9939876,0.06794567,0.07735299,-0.44380233
-13.785804,-0.71668035,2.277968,0.19463912,-0.081786126,-0.21809635
-12.048131,-0.30851686,1.779294,0.31068605,-0.14727089,-0.05787512
-11.077301,-0.17971836,1.4131345,0.37988836,-0.1776047,0.07147123
-9.490702,0.25403437,1.0536691,0.42460370000000003,-0.22870794,0.14119713
-7.8595223,0.42266279999999995,0.86164445,0.42247438,-0.18399261,0.14119713
-6.8016686,0.7410629,0.61790514,0.39105847,-0.11159635,0.11990411599999999
-6.523366,1.0933745000000001,0.45330855,0.34688420000000003,-0.104684845,0.08850565
-6.3490972999999995,0.94136184,0.5453416999999999,0.33569664,-0.18612191,0.01982694
-6.0369415,0.35326925,0.9757234,0.35220745,-0.19411552,-0.07436848
-6.241042,0.19323123,1.0055072,0.38679987,-0.08765043,-0.14570008
-7.0802,0.65163463,0.35981979999999997,0.39318776,0.14390239,-0.1776396
-8.500642,0.8704934000000001,-0.5523136,0.33571407,0.31105259999999996,-0.1648638
-9.4421,0.6653774,-1.1629883,0.22177899,0.27698374,-0.14250614
-9.927289,1.180648,-1.3272879,0.088715084,0.19978784,-0.12973033
-10.106117,2.0850816,-1.2682756000000002,-0.039025564,0.23492132,-0.12866567
-10.9234495,1.5447197,-0.25903347,-0.06724753,0.20085248,-0.14782938
-11.77774,-0.6486276,-0.28106013,-0.09599311,0.20139354,-0.15582299
-12.435216,-1.6606087999999999,-0.97871137,-0.120480075,0.23917992,-0.12918927
-12.434161999999999,-0.6939642,-2.6346657,-0.17849483,0.22322759999999997,-0.07489208
-11.986034,0.6580606999999999,-3.5674753,-0.35044464,0.019861847,-0.05148721
-12.047719,2.1057482000000003,-1.7601501,-0.51333624,-0.024836035,0.07199483
-12.427813,0.9389293,1.6645161,-0.620866,-0.09030333,0.24713862
-13.638417,-1.0813267,6.1432343000000005,-0.525571,-0.014713125,0.63254225
-14.706653,-3.5994334,8.530531,-0.103445664,-0.22657864,1.1057881999999999
-9.439648,-1.384155,4.462342,-0.06511823,-0.25160667,1.0317863
-7.664289500000001,2.71581,3.1507215,-0.1497667,0.14868459,0.51063097
-9.326652000000001,3.9789429,1.4759678999999999,-0.34245107,0.10609856,-0.012095132
-10.389695,1.6739012999999998,0.7153396,-0.5277003,-0.28780478,-0.13718288
-10.02933,-1.1691366,1.6424702000000002,-0.5819975000000001,-0.31759757,0.009197885
-9.07142,-1.8876747999999999,1.6544316000000003,-0.51546556,-0.23989551,0.026232297999999998
-7.780131,-1.4740142,1.5018731,-0.40313616,-0.28885198,-0.08075638
-6.4483128,-1.201851,1.7781066000000003,-0.27804840000000003,-0.21486749,-0.18615682
-6.458254,-1.1742313999999998,1.4888391,-0.15774286,-0.00726057,-0.18137461
-7.349299,-0.50658435,0.9215761,-0.10025171,0.09918706,-0.07543313
-7.7311745,-0.045690945999999996,0.20682073,-0.13058554,0.11622147,0.017697638
-8.01572,-0.036123715,-0.08239885,-0.20404644,0.17690657,0.049654618
-8.643997,-0.1827159,-0.27597484,-0.24876177,0.19819959,0.060824725999999996
-8.967359,-0.42439620000000006,-0.12583925,-0.22055726,0.16838937,0.09011135
-9.16237,-1.1000974,0.13478398,-0.10131636,0.21204005,0.12257447
-9.616321000000001,-2.1281578999999997,0.27710490000000004,0.050387654000000004,0.22533946,0.12470377
-10.194693,-2.4880736,-0.026192566,0.16962855,0.23439772,0.124180175
-10.682316,-1.2649525,-0.43048704,0.23670155,0.31477013,0.14599679999999998
-11.289503999999999,0.7595844,-1.1825441,0.22870794,0.39674824,0.1476025
-11.983659,2.0321505,-1.8366784,0.22073179999999998,0.34299209999999997,0.13854423
-11.844758,1.1240106,-2.158871,0.20315632,0.17317156,0.13854423
-10.983094,-0.1489768,-2.3233526,0.24734806,0.11728612,0.16463691
-10.44933,-1.1041867,-1.2040441000000002,0.35966,-0.025359634,0.15025539999999998
-11.309759,-0.20852539,1.6767552,0.38734093,-0.079656824,-0.060528017999999996
-12.097575,2.0804558,2.5360150000000004,0.3719122,-0.009930924,-0.3575656
-11.819485,2.2374099999999997,3.5343777999999997,0.08019788,-0.44376743,-0.59178877
-8.854936,0.9466865,3.4101765,-0.091734506,-0.41341615,-0.7152883000000001
-8.842419,-1.0650749,3.5607717000000005,-0.10131636,-0.059969515,-0.6210753999999999
-11.509139,-2.4176745,3.1637362999999996,0.045588,0.13486159,-0.43422046
-13.15565,-1.7721498,2.6425571,0.15791739999999999,0.09386381,-0.18669787
-12.521253999999999,-0.661154,1.7033308,0.29791024,-0.021101031,0.0054628807
-11.060024,0.04514507,1.2699325000000001,0.36924186,-0.24200736,0.11033971599999999
-9.5573845,0.26672363,1.1636681999999998,0.43366197,-0.27874655,0.16728981
-8.278508,0.60933393,0.80215335,0.42833869999999996,-0.24041910000000002,0.19816469
-7.280987700000001,0.86373216,0.70749617,0.3868173,-0.27129397,0.18432422
-6.676125999999999,1.3031065,0.7664893,0.3074921,-0.2728997,0.1529083
-6.419850299999999,1.1710136999999998,0.70529354,0.25480062,-0.22818434,0.10341076
-6.368481,0.65558034,0.88694644,0.25799456,-0.1712168,0.002268928
-6.738883,0.36161065,0.7747349,0.30803317,-0.029618237000000002,-0.11163126
-7.564547500000001,0.3450428,0.027734432000000003,0.36498326,0.10770427,-0.19306833
-8.37213,0.16390704,-0.7326161,0.36072466,0.16945402,-0.18615682
-8.886386,0.32061234,-1.3860608,0.2899341,0.16413076,-0.15582299
-9.372112,1.0798615,-1.5281615,0.20156808,0.18648843,-0.14782938
-9.839977000000001,2.2141387000000003,-1.7543178,0.054646257000000004,0.24664994,-0.16112879
-10.819685,2.8059373,-1.0725448999999998,-0.110357165,0.23068017,-0.17549285
-11.587553,1.2246534,-0.7593066999999999,-0.22640412,0.2732662,-0.16379915
-12.27081,-1.2593693000000001,-1.0157161,-0.29080677,0.2950828,-0.056793015
-12.102967999999999,-1.8175246999999999,-1.8790078000000001,-0.24930283,0.22907446,0.09862856
-11.1379795,-0.21472159,-2.5291579,-0.24504423,0.04914847,0.12524483
-11.571444999999999,1.4536061000000002,-0.6854600000000001,-0.19713494,0.079499744,0.1438675
-12.777625,0.3989123,1.3173568000000002,-0.18755308,0.16999507,0.23916246
-14.166932000000001,-1.0671244,4.243894999999999,-0.19020598,0.09812241,0.5063724000000001
-13.853867000000001,-2.4419134,5.8398314000000004,-0.024661502000000002,-0.24200736,0.7906516
-9.370215,0.016089035,3.1690993,-0.10716321,-0.26755896,0.6825808000000001
-8.366145,2.9021173,2.5492885,-0.24076816,-0.016842427,0.39727184
-10.240059,3.2023695,2.1020036,-0.44572219999999996,0.055012777,0.08904669999999999
-11.563707,1.3232561,1.5516534,-0.6517234000000001,-0.099885195,-0.06531022
-10.918853,-0.1595113,1.2885115,-0.7528651999999999,-0.17919296,-0.02963569
-9.435214,-0.57746226,1.2297386000000001,-0.7709816999999999,-0.32506758,-0.035499997
-7.862817,-0.47846687,1.4996608,-0.7081499,-0.3681772,-0.114807755
-6.8263383,-1.1551353000000002,1.6765637,-0.5867796999999999,-0.26064748,-0.21064378
-6.911045,-1.695861,1.5909183,-0.45743334,-0.1062731,-0.23087215
-7.513742,-1.4501966,1.2715796999999998,-0.29188886,-0.07007497,-0.17657496
-7.9001856,-0.9647005,0.78002137,-0.20457004,-0.07698647,-0.07541568
-7.9775276,-0.50579906,0.27134925,-0.21575761,-0.027488936000000002,0.012391837
-7.9293759999999995,-0.19512744,-0.17181749999999998,-0.23917992,-0.00033161257000000006,0.028361599999999997
-8.095284,-0.28799373,-0.27707618,-0.23120376,0.09440486,0.04059636
-8.293179499999999,-0.65498656,-0.69241273,-0.17688912,0.27433085,0.09756391
-8.971494999999999,-1.4303057,-0.57429236,-0.07522369,0.33501595,0.1492082
-9.929578,-2.1769326,-0.16120639999999997,0.10681415,0.22800982,0.15772541
-10.676943,-2.0178906999999997,0.18049408,0.27131143,0.14390239,0.1539904
-10.705309,-0.5904005999999999,-0.32324597,0.37297687,0.30785862,0.1518611
-10.9791,1.1982883,-1.4248086000000002,0.36604790000000004,0.44361034,0.08478809
-11.642563,1.8910075000000002,-2.3458579,0.29525736,0.41751766,0.03635521
-11.724875,0.61002344,-2.7133488999999997,0.28939304,0.22588049999999998,0.065083325
-11.575726,-0.76682454,-0.7213155,0.3591364,-0.10946705,0.10075786
-11.700177,-0.0042904094,1.2975041999999999,0.38149408,-0.032794736,-0.07808603
-11.469184,1.1228998,1.9595679,0.33410838,-0.118507855,-0.34211943
-11.132502,1.8157531000000002,3.5936199999999996,0.058381262999999996,-0.55555576,-0.600306
-8.928993,1.4211789,3.7836144,-0.023055799999999998,-0.46026078,-0.7525510999999999
-8.892219,-1.398185,3.1846905,0.103620194,0.07098254,-0.6764198
-12.74806,-2.6175425,2.6742659,0.2276433,0.19819959,-0.43580872
-13.6889925,-0.91718996,2.5026972,0.36287140000000007,-0.042394046,-0.18774506
-12.269211,0.046227247,1.764086,0.52522194,-0.13182472,-0.061575215
-10.860892999999999,-0.19380583,1.5351621000000002,0.5992239,-0.19516271,0.021450097
-9.563686,0.015562311,1.3030586000000002,0.6274284000000001,-0.21326178,0.094911
-8.234262,0.5496225,1.1371021000000001,0.61467004,-0.18397516,0.140691
-7.1960607,1.1195575,0.85425115,0.58749527,-0.07805113,0.16196655
-6.5859795,1.4169843,0.65260196,0.5459739,-0.1020145,0.12257447
-6.4547677000000006,1.167633,0.66365355,0.48850020000000005,-0.13925982,0.033684853
-6.5332212,0.8965328000000001,0.897366,0.47040114,-0.172264,-0.099902645
-6.798374000000001,0.7138073,0.57429236,0.48211229999999994,-0.08124508,-0.15793484
-7.5796595,0.9219305,-0.024248473,0.4278151,0.067788586,-0.17709856
-8.380864,0.8661168,-0.75235397,0.33519047,0.16306610000000002,-0.1573938
-9.105303,0.80039126,-1.4561343,0.23298400000000002,0.19713494,-0.09724975
-9.612222000000001,1.6003993,-1.5503893,0.12332497,0.07204719,-0.08819149
-9.737544,2.3272886,-1.3846531000000002,-0.026249751,0.03584906,-0.15102334
-10.522765,1.8433055,-0.6172539,-0.16730726,0.17744762,-0.17442821
-11.668775,0.38205713,-0.29526255,-0.26471409999999995,0.3233048,-0.13664183
-11.943715,-1.09189,-1.4002249,-0.31103513,0.43881068,-0.06956882
-11.733647,-0.8819855999999999,-2.7227626,-0.32915163,0.3972893,0.01452114
-11.480638,0.8681566999999999,-2.6075826,-0.38823104,0.22961551,0.032096606
-11.869484,1.4715913999999999,-0.2756971,-0.39941859999999996,0.17105971,0.07147123
-12.436844,-0.3307063,1.6218035,-0.56070447,0.19235274,0.16943656
-13.880958999999999,-1.6864852,5.5202246,-0.434011,0.14018485,0.49841368
-13.706757000000001,-3.2027142000000004,6.5058217,-0.08107054,-0.15735888,0.85665995
-9.973038,-1.2011996999999999,3.3511162000000003,-0.17104226,-0.13128367,0.84175485
-9.03838,3.1353793,2.4936377999999997,-0.29825932,0.20086995,0.4590215999999999
-11.235022,3.413241,1.1686098999999999,-0.5612281,0.10770427,0.057648227
-11.214564999999999,1.0625563,0.5869338000000001,-0.81674427,-0.24520129999999998,-0.05253441
-9.531155,-0.8517995,1.2475323999999999,-0.88222903,-0.37562975,0.004415683
-7.993597500000001,-1.7173897,1.5512701999999998,-0.79279834,-0.32983232,-0.018989183
-7.1788034,-1.7309791,1.7121415,-0.6538527,-0.26542968,-0.09138544
-6.9417677,-1.730711,1.6650044999999998,-0.49734902,-0.18664551,-0.14835298
-7.2970386,-1.5869535,1.1350813999999998,-0.34456290000000006,-0.11903145,-0.15580554
-7.776606599999999,-0.8781644000000001,0.46577758,-0.22692771,-0.08443903,-0.11428416
-8.169648,-0.097980306,-0.09118078,-0.19978784,-0.100949846,-0.049340457000000004
-8.18068,0.18500476,-0.09323022,-0.25035003,-0.14138912,-0.0056723203
-8.281744999999999,0.05861006,-0.07739017,-0.31368804,-0.06633996,0.030508353999999998
-8.724691,-0.34542584,0.06675034,-0.30944687,0.0044331364,0.07733554
-9.196224,-1.123618,0.15387055,-0.17955947,0.04330162,0.13535029
-9.992066000000001,-1.9798037,-0.039791632,-0.021450097,0.04117232,0.158249
-10.48555,-2.1685243,-0.43367612,0.08447394,-0.031730086,0.17369516
-9.71568,-1.0426844000000002,-0.97049445,0.12810716,0.028396507999999997,0.1497318
-10.356713000000001,-0.80344623,-1.1432408,0.16058774,0.29030059999999996,0.109275065
-12.103867999999999,-0.278484,-1.0580456,0.23565435,0.33129840000000005,0.15985471
-12.344667,-0.08371087,-1.3259184,0.2814169,0.10452777,0.19018853
-11.594851,-0.3499078,-1.5147347,0.30112165,-0.0013962634,0.1534668
-10.616044,-0.38899076,-1.6326157,0.2952748,-0.09189159,0.11674507
-10.940113,0.4009905,0.7806343000000001,0.23776620000000004,-0.20048597,0.01452114
-12.000208,2.0720665,1.5985606,0.17336355,0.1476374,-0.2223375
-12.280311,1.4273655,1.4348738,-0.031031952999999998,-0.10199704,-0.39959314
-10.191360000000001,1.1908376,2.3764942000000002,-0.1539904,-0.33782592,-0.42833869999999996
-8.552874000000001,-0.46051034,3.0481637000000004,-0.18966493,-0.40915754,-0.44484952
-8.890925,-1.2134388999999999,3.3076184,-0.043284167000000005,-0.1829105,-0.5177868
-11.535110000000001,-1.7263823,3.2499373,0.06743952,-0.089762285,-0.462425
-12.258169,-0.85367656,2.8970609,0.21861994,-0.065798916,-0.2601413
-11.598728999999999,-0.6996911,2.2397373,0.37884116,-0.09721484,-0.11267845
-10.965060000000001,-0.79586136,2.0154965,0.5230925999999999,-0.120637156,0.047525316
-9.520716,-0.17229633,1.5013465,0.63861597,-0.1823869,0.15507251
-7.7811747,0.28742870000000004,1.2208513,0.68919563,-0.1717404,0.17423622
-6.4974995,0.8498554,0.9258281999999999,0.6593854,-0.095609136,0.14016739
-6.292623000000001,1.2675573999999998,0.8696507,0.6119996999999999,-0.0019373155,0.06455973
-6.679181,1.2467183000000002,0.7410629,0.5449267,0.000715585,-0.01420698
-6.95552,1.1256866,0.7661637,0.5108579000000001,-0.015777776,-0.09724975
-7.360427400000001,0.872495,0.65076315,0.4719894,0.062465332,-0.1531352
-8.065318,0.7347997,0.14460979999999998,0.41769218,0.22003366,-0.16325809
-8.9056835,0.28628907,-0.54986197,0.38948768,0.30572933,-0.17229891
-9.585647,0.39331946,-1.111417,0.3650007,0.26954865,-0.19465657
-10.006471000000001,1.1920826,-1.5070734,0.29260445,0.19608775,-0.18188076
-9.968354,1.7655323,-1.9779171000000002,0.13025393,0.19874065,-0.13981833
-10.449714,2.3058558,-1.481331,-0.053930674000000005,0.24345598,-0.111090206
-11.28008,1.8231366999999998,-0.5978034000000001,-0.1492082,0.30946434,-0.11534881
-11.704831,-0.44737095,-0.86754376,-0.21043435,0.37866664,-0.081279986
-11.530265,-1.2964411,-1.8278198,-0.22212805,0.42231733,-0.006213371999999999
-11.092921,-0.27450958,-2.9971382999999996,-0.29613,0.30466467,0.04061381
-10.976830999999999,1.1278988,-1.9872736,-0.408983,0.13805555,0.028902652
-11.512481,0.86697876,0.46299073,-0.4755324000000001,0.00710349,0.07414158400000001
-12.507396,-0.4331494000000001,3.2420459,-0.54206437,-0.027471482999999998,0.28068385
-14.399207999999998,-2.0297275000000004,6.2977365999999995,-0.38236672,-0.015236723999999998,0.7060206
-12.131095,-1.9241049,3.9056610000000003,-0.27642524,-0.28298768,0.90778065
-9.327551,2.2400724999999997,2.7583694,-0.4217588,-0.15896459,0.68312186
-10.11487,3.2743676,2.2149238999999996,-0.6149842,-0.019495327,0.26527259999999997
-11.209135,2.0119338,1.3878613000000002,-0.8683711,-0.065798916,-0.017383479
-10.837458999999999,0.014068329,0.9440146,-1.0642669,-0.14884168,-0.021642083
-9.715133999999999,-0.8459098,0.9846298000000001,-1.1191051,-0.22603759,0.021991148999999998
-8.508697,-1.1801977,1.1861066999999998,-1.0584201000000002,-0.3681772,-0.05199336
-7.2422686,-1.3945267,1.4390876,-0.90617496,-0.45706683,-0.1531352
-6.447643,-1.9109943999999999,1.5365316,-0.73528975,-0.39477602,-0.19891517
-6.223708,-1.9647872,1.4591318000000002,-0.57719785,-0.27234116,-0.15046483
-6.793193,-1.223552,1.3172993999999998,-0.4914847,-0.08496263,-0.06316347
-7.276783,-0.32930806,0.90404093,-0.5154481,0.03000221,0.02677335
-7.839421000000001,-0.30542353,0.60669076,-0.5255535,0.21099286,0.07255334
-8.988207000000001,-0.44347322,0.34450647,-0.4680624,0.39091885,0.120462626
-10.232071000000001,-0.93408346,-0.083059646,-0.36000907,0.47609090000000004,0.16571902
-10.587705999999999,-1.7122374,-0.42185834,-0.26738444,0.38453093,0.18275343
-10.205208,-1.9771988,-0.8106767,-0.16198401,0.36430258,0.15985471
-9.996836,-1.280352,-0.9404903,-0.071488686,0.40208894,0.1492082
-10.699162,-0.6610199999999999,-0.9635799999999999,0.02857104,0.5570044,0.14442599
-11.643424000000001,0.27604187,-1.4522845,0.06583382,0.68422145,0.16571902
-12.216403999999999,0.6331323,-2.2967196,0.06318091599999999,0.5830795999999999,0.18062413
-11.609511999999999,0.4195312,-3.0641662999999997,0.102031946,0.29988247,0.20457004
-10.514597,-0.12235328599999999,-2.8546739,0.12545426,-0.021083577000000003,0.23385666
-9.975431,-0.83609354,-0.45201573,0.20956168,-0.27766442,0.15879005
-10.659493,0.4663905,1.9153997,0.25694737,-0.2494599,0.008150687
-10.565172,1.32,3.0034685000000003,0.16325809,-0.6226113,-0.18081611
-10.096588,1.7620653999999998,4.0788484,-0.15772541,-0.88931507,-0.46401322
-9.398774000000001,0.6578309,4.1798644,-0.23596852,-0.47462484,-0.66682047
-10.786856,-1.1308198,3.3363774,-0.059236474000000004,0.047560222,-0.567808
-13.240012,-2.4702319999999998,2.2338572,0.11213741,0.2253569,-0.328279
-13.664371,-2.1231299999999997,1.2770193,0.250542,0.12260938,-0.05305801
-12.082655,-0.5545929,0.52625513,0.41558033,-0.12276646,0.06190683
-10.304816,0.79651254,0.32037294,0.47465974,-0.43045056,0.080546945
-8.272072,1.1614847,0.66478366,0.41451570000000004,-0.49591786,0.07255334
-6.970383,1.4059614,0.9191053,0.30698597,-0.29311058,0.051801372000000005
-6.8323426,1.5199924999999999,0.80125314,0.21329668,-0.14351842,0.054995324000000005
-6.8153825,1.2864141000000002,0.71775293,0.11321951,-0.18664551,0.035831608
-6.757989,1.1269316999999999,0.86207545,0.06211627,-0.20420352,-0.058381262999999996
-7.308664299999999,1.154465,0.92596227,0.07276278,-0.15310028,-0.17175785
-7.923734700000001,0.9923103999999999,0.49478573,0.115872405,-0.06260496,-0.23458971
-8.530961999999999,0.68285507,-0.22476766,0.11908381400000001,0.065659285,-0.23722515
-9.120366,0.5118229000000001,-0.9175059999999999,0.09670869,0.124756135,-0.20476203
-9.122091000000001,0.7216507,-1.4256418,0.0418879,0.15721926,-0.18879226
-9.055465,1.3463361,-1.6881613000000002,-0.015062191499999999,0.13433799,-0.20156808
-9.3796015,2.1792502000000002,-1.349056,-0.1470789,0.0028448866,-0.2335076
-10.097785,2.022047,-0.15543158,-0.26260224,-0.08443903,-0.26598817
-10.582831,0.4234098,-0.12549448,-0.3615973,0.23441517,-0.22766075
-11.036715,-0.8148905,-1.2812139999999999,-0.38501963,0.53358203,-0.1105317
-10.929837,-0.70557123,-2.830521,-0.4025951,0.59426713,-0.07860963
-10.486709,0.5339644,-3.3062968,-0.5000019,0.45586255,-0.102031946
-11.278366,1.2283117000000001,-0.7442807,-0.51438344,0.18969983,-0.059445914
-12.79857,-1.0607558000000001,2.8173816,-0.51916564,-0.12807226,0.080546945
-15.636914,-3.1393251,6.308472599999999,-0.44943973,-0.014172073,0.5037369
-15.771257,-3.5475461000000004,6.2070155,-0.18273596,0.053948127,0.8848994000000001
-9.894374000000001,0.87504244,2.1290486,-0.29506537,-0.10040879,0.6048788
-7.926541,3.1189554,1.7680892,-0.39940116,-0.17971656,0.19659388
-9.197958,2.20777,1.9454900000000002,-0.6266954,0.014032447,0.0017627826
-11.252355999999999,-0.1325047,1.1694622,-0.71506137,0.12102113,-0.14514159
-11.272936,-2.4981868,0.80484444,-0.6655464,-0.15149458,-0.08019788
-9.767414,-2.8376462000000005,1.2690896999999999,-0.5085191,-0.3820002,-0.042394046
-7.9873533,-2.2982419999999997,1.6232592,-0.2684491,-0.52466345,-0.094055794
-6.5904229999999995,-1.9962758000000003,1.9829736,-0.061365776,-0.43310344,-0.16324064
-6.501321,-1.9388436999999998,1.8148528000000002,0.102031946,-0.17013470000000003,-0.1749518
-7.0412893,-1.0111192,1.2560078000000001,0.18081611,-0.04717625,-0.102573
-7.340507499999999,-0.25213817,0.7745338,0.19093902,-0.070598565,-0.032829642
-7.5380197,-0.44789767,0.6117281,0.17603391,-0.0072431164,-0.00726057
-8.255945,-0.33414438,0.36227146,0.18401006,0.1497667,0.014014994
-9.218164999999999,-0.31205067,0.12450807,0.24310692,0.22802727,0.040631264
-9.783388,-0.87003374,-0.2667907,0.30433306,0.2812598,0.10876892
-9.933103,-1.4082407,-0.37108213,0.40919244,0.24293238,0.14549065
-9.704542,-1.670061,-0.73068166,0.49649382,0.3233048,0.16730726
-9.898367,-1.0097785,-1.3628753,0.5667608000000001,0.54796356,0.16732472
-10.760012,0.16445293,-2.0758207,0.5885774,0.6560169,0.16997762
-11.882749,1.1487858,-2.2955031000000004,0.55237925,0.47289696,0.17263052
-11.799976,0.9473090000000001,-2.5405737999999998,0.55133206,0.17585938,0.19819959
-10.66682,0.033566706,-2.4079254,0.6221226,0.0198793,0.25408503
-9.922041,-0.5704617,-1.4021403000000001,0.75307465,-0.06527531,0.278572
-10.294828,-0.11207737,0.5183159,0.8254709000000001,-0.15629423,0.16252506
-11.176344,0.89952075,2.2950146,0.7131415,-0.28192303,-0.058904864
-12.142491,1.4221941,3.5965986000000005,0.41184536,-0.88132143,-0.31655037
-10.921084,2.4950360000000003,4.6505647,0.28304005,-1.0149264,-0.5241573
-9.132164999999999,-1.7771298,3.5101199999999997,0.54120916,-0.25052455,-0.6162583
-12.289735,-3.4259207000000003,2.8935652000000003,0.66736156,0.331822,-0.43579125
-13.726198000000002,-1.8598830000000002,1.6886305,0.84089965,0.18331192,-0.20689133
-12.467901,-0.4358022,0.63558394,0.9761103000000001,-0.07592182,-0.035482544
-10.767108,0.6834680000000001,0.3516699,0.97452205,-0.30269244,0.012409291000000001
-8.956881,0.96011317,0.6424409000000001,0.9479058000000001,-0.40594614,0.029443703999999998
-7.130890400000001,1.1892383,0.68881184,0.8669923,-0.38892916,0.03741986
-6.131819,1.6444622,0.87586606,0.7711737,-0.2473306,0.056583576
-5.785435,1.8297830000000002,0.74175245,0.6577797,-0.12276646,0.049131017
-5.7279263,1.6824917000000001,0.83390045,0.5667608000000001,0.036390115,-0.08445648
-6.71338,0.6420387,0.5666884,0.5768661999999999,0.15882497,-0.20530307
-7.71293,0.5532713,-0.06420291,0.5358859,0.23815018,-0.19518016
-8.617996,0.41459912,-0.55533034,0.49382347,0.23706807,-0.19624482
-9.295986,0.5489904999999999,-1.3230933,0.4107807,0.24558528,-0.16111134
-10.033688,1.6508498999999999,-1.6321273,0.28356364,0.19821705,-0.17229891
-10.472286,2.626248,-1.7403644,0.11641346,0.084823005,-0.20369738
-10.714367999999999,2.5066142000000005,-1.2998505,-0.044331364000000005,0.05235988,-0.19783308
-11.261519999999999,1.3150392,-0.732664,-0.21626374,0.14179055,-0.19730946
-11.514012,-0.02989879,-1.1356369,-0.37491417,0.40315359999999995,-0.15632914
-11.522928,-0.7533595000000001,-2.4568244999999997,-0.4111123,0.7033851,-0.12597786
-11.905942999999999,-0.08669883,-3.712957,-0.37969637,0.5846853,-0.07806858
-12.862945,0.6582043000000001,-1.4932541000000001,-0.30462977,0.009250245,0.034766957
-13.308046,-1.2191563,2.4780755,-0.12843879,-0.37454766,0.13058554
-13.8162,-2.256468,4.944486,-0.035273105,-0.47036624,0.32754594
-13.263542000000001,-2.8397148,5.602135,0.07808603,-0.6316520999999999,0.55538124
-9.783551,0.4040838,2.8690965,0.18668042,-0.4320388,0.6032905
-8.263606,3.294345,1.6276165,0.014748032,-0.29469883,0.31211722
-9.3891115,2.8545012,2.0982877999999996,-0.19338249,-0.21856758,0.05873033
-10.595013,0.11954728,1.357024,-0.37915534,-0.189822,-0.06742207
-10.803175,-1.5558577,1.2620506999999999,-0.5106484,-0.20472711,0.0044331364
-9.825258,-0.93706185,1.0486604,-0.57665676,-0.27766442,0.057107173
-8.332867,-0.20768264,0.7528328000000001,-0.59901446,-0.41767475,0.009215338
-6.785608,-0.60263014,1.0379343,-0.59315014,-0.40488148,-0.05677556
-6.5262394,-1.1516110000000002,1.2407423,-0.5825210999999999,-0.1807812,-0.05784021
-7.2329025,-1.0119333000000001,1.1290576,-0.55482274,0.019355701,0.026249751
-7.521030400000001,-0.6046125,0.59456646,-0.5697453,-0.0072431164,0.096516706
-7.3180118,-0.5686325,0.49975607,-0.6043377,-0.06260496,0.11674507
-7.1194463,-0.5970850999999999,0.6882851,-0.5979498000000001,0.02893756,0.11302752
-7.495775999999999,-0.9814695,0.38759252,-0.53246504,0.24825563,0.13271484
-8.567152,-1.3534135,-0.60336757,-0.40418336,0.54049355,0.19978784
-10.031369999999999,-1.9860095000000002,-0.8033600000000001,-0.2689727,0.56126297,0.23439772
-11.225521,-2.708091,-0.7600729,-0.11140437,0.39837140000000004,0.26047292
-11.594171000000001,-2.484808,-0.74446267,0.010489428,0.33236304,0.30998793
-11.140278,-0.39147112,-0.96626145,0.15741125,0.46490335,0.33180454
-11.2249365,0.7938024,-1.9398109000000001,0.22979005,0.511748,0.2721841
-11.174773,0.56708103,-2.5327015,0.21755528,0.44788638,0.23172736
-10.826014500000001,-0.6239098000000001,-2.0150657,0.23458971,0.17744762,0.22586305
-11.759284,-0.9043475000000001,1.3584222,0.24684192,-0.1813048,0.0901288
-12.583416999999999,1.8133299999999999,2.9477412999999997,0.12760103,-0.1115789,-0.12704252
-11.797161000000001,2.4614215,3.3425163999999996,-0.07360053,-0.6103590999999999,-0.37350047
-8.912215,1.5913205,3.6079566,-0.25300294,-0.58163095,-0.5140344
-8.774289,-1.3222218000000001,4.1561713,-0.26471409999999995,-0.057281705999999995,-0.5614201
-11.84176,-2.2657287,3.3641312000000005,-0.048589967000000005,0.35365605,-0.40278709999999995
-13.918357,-1.8466764999999998,2.359323,0.11801916,0.27913052,-0.16749924
-12.826782000000001,-0.46416867,1.1854267,0.286234,-0.015760323,-0.014172073
-11.647245,0.29316524,0.95125467,0.43261477,-0.31386256,0.026790803
-9.811468,0.38114733,0.9116736999999999,0.49703485,-0.40489894,0.06351253400000001
-8.036866,0.34801158,0.79921323,0.5098107,-0.33941418,0.08801696
-6.794285,0.58633995,0.6635099,0.4784122,-0.21537364,0.07630579
-6.5839300000000005,0.88762635,0.42494208,0.43900266,-0.12808971,0.03741986
-6.6558423,0.9700348,0.27249850000000003,0.40067524,-0.1892984,0.0006981317
-6.3112593,0.9215283000000001,0.5290994000000001,0.37779397,-0.30108675,-0.06901032
-6.170863,0.5926894,0.7961295,0.38257617,-0.19462167,-0.15791739999999999
-6.776539,0.581724,0.39239050000000003,0.3602185,0.06620034,-0.18718657
-7.727639999999999,0.9781367,-0.51466715,0.2904926,0.30042353,-0.16641714
-8.794812,1.4597447000000001,-1.2541307,0.20373228,0.41275293,-0.14299482
-9.705558,1.9616651999999999,-1.5021316999999998,0.085014984,0.33503342,-0.14353588
-10.293239,2.2192621,-1.6419148000000001,-0.07094763,0.25996679999999994,-0.18718657
-11.377065,1.3586808000000001,-0.97437304,-0.19551179,0.25570820000000005,-0.21434389
-11.935307,-0.5504078,-1.1794795,-0.28707176,0.34674457,-0.17921041
-12.015962,-1.4545253999999999,-1.8498558999999997,-0.30675906,0.43563417,-0.08232718
-11.881753,-0.31695402,-3.0150182,-0.35679767,0.31691688,0.005497787
-11.796768,1.3284947,-2.2998414,-0.42547637,0.10772172,0.056059975
-12.367508,1.0610336,0.9680523999999999,-0.41003019999999996,-0.06899287,0.15774286
-13.508698999999998,-0.6953719,4.1761675,-0.4350582,-0.043982297000000004,0.35522687
-15.075513,-2.3740904,6.616836,-0.2604555,-0.15416493,0.68207467
-12.558708,-2.4737563,4.68914,-0.083182395,-0.54808575,0.89182836
-8.147957,2.2138991000000003,2.974719,-0.24980898,-0.32876766,0.62777746
-9.255333,3.882447,2.2951200000000003,-0.43186426,-0.009372418,0.19074704
-11.494878,1.9235398999999997,1.3567557,-0.68790406,-0.11370819999999998,-0.05942846
-11.210716,-0.21262427,0.92963016,-0.84866637,-0.22017328,0.009756391
-9.716561,-1.0112724,1.03803,-0.8965755999999999,-0.33834952,0.07044149
-8.123527000000001,-1.0922444,1.2130846000000002,-0.8348259,-0.37987092,-0.026424285
-6.639044999999999,-1.2487965,1.435592,-0.7272962,-0.35377824,-0.14514159
-6.0772786,-1.7072764999999999,1.3634117000000001,-0.6128549,-0.17545795,-0.18186331
-6.8110729999999995,-1.3951875,1.2694345,-0.44942227,-0.029059732,-0.12383111
-7.527581,-1.008409,0.6747052,-0.33604568,-0.026406832,-0.033353243
-7.7495327000000005,-1.3594756000000001,0.48858953,-0.2860071,-0.057281705999999995,0.000715585
-7.899008,-1.4219738000000002,0.511526,-0.21200514,-0.041311942000000004,0.014556046000000001
-8.182568,-1.00884,0.5922297,-0.08798204,0.05183628,0.05553638
-8.822011,-1.2444198,0.13178644,0.057857665999999995,0.2727426,0.12206833
-9.5503845,-1.5437717,-0.52045155,0.18987437,0.37707838,0.1502903
-10.136847999999999,-1.5513374,-0.62172633,0.29421017,0.22057470000000004,0.13751449
-10.540435,-1.3367977,-0.1778892,0.39215803,0.12529719,0.13058554
-10.76435,-0.19119138,-0.27196217,0.46348962,0.35152677,0.15987216
-11.292156,0.9563111999999999,-1.5224538,0.46244243,0.5266706,0.17212437
-11.675153,0.9096339,-2.3445937999999997,0.40599850000000004,0.38507199999999997,0.16146041
-11.704573,-0.14876612,-1.5071881999999999,0.4102571,-0.058346357,0.15348426
-12.168597,0.50928503,1.5819832,0.33466688,-0.25637139999999997,0.039566614
-13.367988,2.1869693,2.5715642000000005,0.16538739,-0.021607175,-0.26436502
-12.756067,2.9986417000000003,2.5923076000000003,-0.108210415,-0.37613592,-0.5092522
-9.313742,1.1856948,3.1012862,-0.17048377,-0.6013183000000001,-0.5390449
-7.249509,-1.3304194999999999,3.0049627,-0.033143803,-0.15097098,-0.40809290000000004
-10.866123,-3.102981,3.0559304,0.11908381400000001,0.19395845,-0.29258698
-13.331392999999998,-1.1414788,2.6373281000000004,0.28143433,0.029478611000000002,-0.1733461
-12.250507,0.31951103,1.8540602,0.441673,-0.18397516,-0.1105317
-10.860586999999999,0.51234,1.771422,0.5034228000000001,-0.30002209999999996,-0.05836381
-9.729605000000001,0.6986472,1.5511937,0.50394636,-0.25795966,0.037437312
-8.520773,1.0658219999999998,1.4122056,0.45923102,-0.19462167,0.104510315
-7.383229300000001,1.232832,1.2700187,0.4272915,-0.10677924,0.11248647
-6.9112463,1.2810704,0.8511004000000001,0.37885863,-0.044505894000000004,0.07735299
-6.9287524000000005,1.0362775,0.80966157,0.34424874,-0.07696902,0.0006981317
-6.802291,0.65465134,0.7716225,0.3729943,-0.16907005,-0.10149089
-6.7482679999999995,0.44483310000000004,0.63882095,0.43528512,-0.12487831,-0.18399261
-7.362553,0.7020374,-0.09667786,0.43847907,0.019355701,-0.23137829999999998
-8.15647,1.1459415000000002,-0.789579,0.37566468,0.026808257999999998,-0.21964969
-8.496323,1.4136516000000001,-0.7654645999999999,0.29955086,-0.051958452999999995,-0.22232004
-8.520647,1.9976931,-0.88780826,0.21277308,0.06354744,-0.24787165
-9.075738000000001,2.1424754,-1.2850063999999999,0.04775221,0.18704693,-0.26597074
-10.034741,1.1903205,-1.5367708999999998,-0.14173819,0.24186772,-0.21273819
-11.156433999999999,0.048688482000000005,-0.8817556999999999,-0.19284143,0.28338912,-0.10414380000000001
-11.727949,-1.1673936000000003,-1.5254705,-0.18805923,0.38507199999999997,-0.06635742
-12.082367,-0.33750582,-2.5163537999999996,-0.26895523,0.27328366,-0.054628804
-11.899393,1.5001589,-2.1740406,-0.42760566,0.03213151,-0.05623451
-13.015493,1.7450284,2.049925,-0.41587704,0.04277802,0.07363544400000001
-14.962295000000001,-0.5674640999999999,5.183993,-0.330705,0.18969983,0.40634754
-15.5569105,-2.4248571,6.9782649999999995,-0.076270886,0.01616175,0.8561538000000001
-10.112792,-2.0582283,2.8519254000000003,-0.16250761,-0.2941578,0.7997273
-7.561406,2.8000187999999997,2.5163443,-0.24181537,-0.19620991,0.41060615
-10.012341000000001,3.374656,2.1258502,-0.46858599999999995,-0.018954275,0.06990044
-11.918747999999999,1.4467204,1.6257205,-0.6905744,-0.10412634,-0.0056723203
-11.146033000000001,-0.9539744000000001,1.5328063,-0.7933045,-0.15735888,0.08215265
-9.917856,-1.5047078999999999,1.6822715,-0.7134557,-0.21111503,0.074700095
-8.46267,-1.3982617,1.4687278,-0.58037436,-0.32131509999999996,-0.04717625
-7.005453,-1.83302,1.6435332999999999,-0.44303438,-0.3335499,-0.16376424
-6.860566,-2.143883,1.8782704,-0.27162558,-0.11796680000000001,-0.16536994
-7.529822,-1.4923058999999999,1.5135568000000001,-0.13322099,0.007120943,-0.088715084
-7.771837,-0.5024376,0.8501139999999999,-0.07946484,-0.021607175,-0.045588
-7.75254,-0.22568703,0.82137394,-0.06295402,-0.08176868,-0.05729916
-7.670438000000001,-0.46232992,0.9096626,-0.028885199,-0.10625564,-0.046652652
-7.710019,-0.76410466,1.1310784,0.026459191,0.0023387412,-0.004066617
-8.377245,-0.7658477,0.5673395999999999,0.13240068,0.22111577,0.05979498
-9.479774,-1.0493499,-0.021001939,0.2505769,0.29564133,0.09334021
-10.314767,-1.4448241000000002,-0.31229009999999996,0.40228093,0.15882497,0.12100368
-10.333126,-1.6326923,-0.08356722,0.5311037,0.11465068,0.14336134
-10.328969,-1.0102286,-0.2835022,0.6088232,0.33183944,0.16732472
-10.59395,0.35062605,-1.0482773,0.6508682,0.5064422000000001,0.14337879999999997
-11.391229,1.2115042999999999,-1.9235687,0.5960474,0.37868407,0.09334021
-11.216941,1.057787,-2.6112888,0.49012336,0.19291124,0.11623893
-10.699132,0.48396394,-2.1763678,0.39002872,0.11198033,0.18381807
-11.174066,0.8281639000000001,0.3966905,0.35489523,-0.16800539,0.13112658
-11.842431,2.2829,3.032611,0.24097762,-0.1749169,-0.14885913
-11.676014,2.3169456000000004,3.0889034,-0.043249257,-0.37400659999999997,-0.47090727
-9.703077,2.3064398999999995,3.3599365,-0.21945770000000003,-0.4150044,-0.6503097
-8.755509,-0.8153501999999999,3.2009613999999997,-0.20348793,-0.25902432,-0.63114595
-11.0807,-2.6613562,3.3681437999999995,-0.04431391,0.11943288,-0.52626914
-13.849413,-2.3260627,3.25327,0.11854276,0.06780604,-0.29738665
-13.043064999999999,-0.9432867,2.318746,0.33999014,-0.060999255999999995,-0.055693455
-11.484976,-0.18126981,1.8778107,0.5098107,-0.16533504,0.044889867
-10.140584,0.11796711,1.5667752000000001,0.6396980999999999,-0.20739748,0.082693696
-8.60388,0.32461545,1.2943821000000002,0.69773024,-0.22921409,0.08908161
-7.352593400000001,0.81374127,1.0697868000000001,0.69985956,-0.22123794,0.07257079
-6.672803,1.4624933,0.7498161,0.6556853,-0.16266468,0.05235988
-6.675187599999999,1.3791751,0.40954256,0.5566553000000001,-0.15203562,0.019338248
-6.532215,1.080465,0.6318394,0.4815887,-0.21005037,-0.07061602
-6.6137137,0.6705871999999999,0.74855196,0.43689079999999997,-0.1765226,-0.13395402
-6.962233500000001,0.8760863000000001,0.56882405,0.41718605,-0.0067020644999999995,-0.1754754
-7.888933,1.1738962,-0.33370382,0.39111084,0.18278833,-0.20155062
-8.958872999999999,1.0854545,-1.2755158000000002,0.2755875,0.17107718,-0.21167353
-9.586478999999999,1.4738226,-1.447362,0.08449139,0.04703662,-0.21593213
-9.788003999999999,2.134766,-0.7459758000000001,-0.06295402,-0.02693043,-0.21912609
-10.001864,1.977352,-0.20280804,-0.22158699999999998,0.11623893,-0.2361605
-10.606812,0.24518539999999997,-0.6571892,-0.40257764,0.43617523,-0.24572489999999997
-11.248247000000001,-0.6175125,-0.8777621999999999,-0.47603855,0.6554933000000001,-0.18612191
-11.411321000000001,-1.0136665999999999,-2.3808038,-0.4605924,0.7023379,-0.09136798
-11.066757,-0.32742146,-3.8413625,-0.45952773,0.66294587,-0.030682888
-11.357594500000001,1.0959315,-2.8568860000000003,-0.44464007,0.46172684,-0.0024609142000000003
-12.357787,1.2575018,1.3991524,-0.32005847,-0.0019198620999999999,0.07630579
-12.985106,-1.2589287,4.8011217,-0.40364229999999995,-0.21591468,0.28337166
-13.799795999999999,-3.2440283,8.076694999999999,-0.19710003,-0.10677924,0.6591934
-12.410048,-2.542805,5.6176205,0.08075638,-0.10519099,0.86734134
-9.534583,1.6546998,2.324856,-0.06455973,0.06407104,0.5207887999999999
-10.236831,3.5875199999999996,2.050107,-0.15344934,0.06461209,0.09653416
-11.735266000000001,1.7254148999999999,1.0669425,-0.34189254,-0.06419321,-0.14831808
-11.321299,-1.1594065,0.7524496999999999,-0.5015902,-0.18823376,-0.08498008
-9.849832000000001,-1.4651556000000001,0.9843042,-0.57663935,-0.23666665,-0.019495327
-8.136168,-0.61052144,1.0348793,-0.51755995,-0.28244662,-0.09030333
-6.809559299999999,-0.7510611,1.0474633,-0.42812926,-0.20685643,-0.20209168
-6.583278699999999,-1.2524165,0.8141531,-0.3536037,-0.01680752,-0.20315632
-7.1006083,-1.2716945,0.60095423,-0.28066638,0.060894538,-0.07698647
-7.569958,-0.84489465,0.6302399999999999,-0.23862141,0.05555383,0.053948127
-7.5710406,-0.68131316,0.6142850999999999,-0.20455259,0.10613347,0.10238101
-7.518741,-0.6039039,0.37333268,-0.14599679999999998,0.22537437,0.07311184
-7.731222,-0.7780484999999999,-0.16530527,-0.08264134,0.33822736,0.04330162
-8.565725,-1.6503519,-0.6692560000000001,-0.010245083,0.48834312,0.07044149
-10.122522,-2.3334465,-0.47676218,0.16112879,0.44149849999999996,0.13912019
-11.409194,-2.4254987,-0.33019873,0.3559599,0.18650588,0.18542378
-11.424872,-1.3968444,-0.2752949,0.48106509999999997,-0.050893802,0.20938715
-10.666848,0.545696,-0.6243215999999999,0.5289744000000001,0.07365289,0.17903587
-10.824328999999999,1.6349812,-1.5018731,0.46563640000000006,0.35685003,0.13857915
-10.796393,1.3189274,-2.4660852,0.43476152,0.36749652,0.105574965
-10.527334,-0.16371551,-3.0456831,0.49331729999999996,0.33557445,0.09440486
-10.271987,-1.5437237,-1.6349907,0.6327866,0.24773203,0.091734506
-10.899229,-1.1044357,1.3762447,0.81430084,0.14498450000000002,-0.09030333
-11.105007,0.9183392,2.5904686000000003,0.8068482,0.002321288,-0.37615335
-11.208561,1.7952394,3.928205,0.57370716,-0.46556658,-0.712042
-9.408207,1.9011493999999998,3.5253375,0.36608282,-0.39051740000000007,-0.83662355
-9.638912,-0.48121540000000007,3.5283542000000003,0.21490239,-0.016283922,-0.6391220999999999
-11.500213,-1.2199415,2.3219445,0.28675759999999995,0.3957185,-0.3122743
-13.061481,-1.1038226999999998,1.7543848000000002,0.4326322,0.37388444,-0.023753932000000002
-13.253084,-0.5755661,1.0681875,0.6562089,0.22111577,0.08695231
-12.897939,0.18198805,0.33555216,0.83133525,-0.055676002,0.08375835400000001
-11.411186,0.42183918,0.021001939,0.85849255,-0.25050712,0.114633225
-9.590875,0.7311126,0.14639106,0.7440339,-0.32822663,0.16999507
-8.0422,1.4085758999999998,0.25892812,0.5603903,-0.33993778,0.18064158
-6.926578500000001,2.1044552000000003,0.30728143,0.39430478,-0.36603045,0.15934856
-6.3353543,1.9956342,0.4175775,0.28729865,-0.34845498,0.10131636
-6.518827,0.9084271999999999,0.756788,0.26600564,-0.20792107,0.008709193
-7.114945,0.14319241,0.5027441,0.2926219,-0.09986774,-0.053040557
-7.498601400000001,0.015102623999999999,-0.010199299,0.30913273,-0.05248205,-0.071663216
-7.605612799999999,0.6023141,-0.7855184000000001,0.30593875,0.011920598000000001,-0.08124508
-7.831309299999999,0.7815632,-0.9926360000000001,0.27239352,0.031066861,-0.11904891
-8.097698,1.0691165,-1.3359549,0.18882717,0.11145672,-0.14990632
-8.823341000000001,1.6347705,-1.498186,0.031258848,0.24080308,-0.18132226
-10.2751,1.6669006000000002,-1.0612059999999999,-0.11990411599999999,0.31374037,-0.2276433
-11.749143,0.8678693999999999,-1.1263473999999998,-0.27269024,0.33503342,-0.22071433
-12.103044,-0.40872854,-2.000911,-0.3690324,0.32384583,-0.11744320400000001
-11.707705,-0.7667479,-3.0908666,-0.42387065,0.2637018,-0.017907077
-10.950982000000002,0.18277337,-3.9078736000000003,-0.5095662999999999,0.21259856,-0.018430676
-10.545816,1.2990841999999998,-3.52845,-0.6639406999999999,0.1944995,-0.046652652
-11.585188,1.7680125,-0.79087186,-0.74963635,0.17161822,0.031066861
-12.626283,-0.5704712,2.6389081,-0.7560416999999999,-0.056740652999999995,0.23120376
-13.982195,-2.3514605,6.391417,-0.5920854999999999,-0.15948819,0.5852089
-13.781657000000001,-3.3777876000000004,6.723789999999999,-0.21413444,-0.46343729999999994,0.97220075
-9.013116,0.53317916,2.825043,-0.22903955,-0.17545795,0.8114385000000001
-8.773763,3.2402072,2.066713,-0.31047663,0.19556414,0.25994933
-11.27917,2.089851,0.79926115,-0.44409904,0.11730358,-0.088697635
-12.042603999999999,-0.96998686,0.25719473,-0.54363513,-0.18769270000000002,-0.1020145
-11.078555999999999,-2.1960576,0.5062396,-0.5526934,-0.3085393,0.06085963
-9.538624,-1.5292628000000001,0.8076121,-0.47603855,-0.4474675,0.080564395
-7.871292599999999,-0.6249824,1.3060658,-0.34828046,-0.49750609999999995,-0.048781954
-6.68035,-1.0057563,1.3052039,-0.24127431,-0.36442474,-0.17493436
-6.733424,-1.4659027,1.0593576,-0.14971434,-0.189822,-0.16961110000000001
-7.473338,-0.92437255,0.7319745,-0.08848819,-0.16852899,-0.057822755999999996
-7.679852,-0.43432733,0.66469747,-0.08264134,-0.18343410000000002,0.03530801
-7.700480499999999,-0.32067940000000006,0.61173767,-0.07731809,-0.08655088,0.06140068
-8.17188,-0.5110279999999999,0.3482797,-0.047525316,0.04225442,0.040631264
-8.835177999999999,-0.89100695,0.12265974,0.044034656,0.1529781,0.05607743
-9.436525,-1.4196275,-0.30214825,0.19254473,0.23547982,0.12260938
-9.905474,-1.7069796000000002,-0.68273056,0.32084388,0.14126694,0.17051867
-10.0798,-1.3710061000000002,-0.8041931999999999,0.43847907,0.067282446,0.18224728
-10.125672999999999,-0.6818495,-0.8529008,0.5018345000000001,0.11677998,0.15774286
-10.824683,-0.02626918,-0.96818644,0.49172905,0.27754226,0.14285520000000002
-11.453047,0.90340894,-1.445619,0.45073128,0.29403559999999995,0.16786577
-11.316529,1.3002527,-1.8842174999999999,0.40282199999999996,0.20301670000000002,0.15934856
-11.149731,0.58186764,-2.0760121,0.38950512,0.070999995,0.1513724
-11.445711,0.13718776,-0.1359715,0.42305034,-0.17332865,0.12102113
-12.316319,1.0533339,0.83363235,0.32084388,0.11838568,-0.08496263
-12.55642,1.0223433000000002,1.2492944,0.13079497,-0.1104968,-0.35220745
-11.055245,1.2459713,3.2039974,-0.09861110000000001,-0.6401693,-0.5252045
-7.896585000000001,0.6569115,3.510187,-0.07677703,-0.44853216,-0.51988125
-8.658277,-1.5924219,3.016043,0.07490953,0.08749335,-0.48315948
-12.360909,-2.1223066000000004,2.6716225,0.18989182,0.16627751,-0.35166640000000005
-12.8312645,-0.8210771000000001,1.9438906000000002,0.3469191,-0.04982915,-0.18558086
-11.375608,-0.11825441,1.3212928999999998,0.46031314,-0.28670523,-0.088697635
-10.065559,0.2806579,1.2723745000000002,0.49597022,-0.34152603,-0.016842427
-9.133975999999999,0.58183885,1.1161671999999998,0.536968,-0.23134339,0.06085963
-8.515199,0.75900984,0.8835754000000001,0.5470734,-0.13552481,0.109851025
-7.736738000000001,0.89671475,0.65043753,0.53429765,-0.13339551,0.11569787599999999
-7.3959093,0.9463992,0.45993572,0.5135457,-0.13552481,0.10025171
-7.214505,0.64718145,0.41793185,0.4831944,-0.21163863,0.04276056599999999
-7.0878043,0.64812,0.3641868,0.4619014,-0.20472711,-0.03705334
-7.464326400000001,0.9846298000000001,0.21520042,0.43476152,-0.058869954,-0.09136798
-8.368855,1.1519367,-0.08359595,0.41240385,0.012444196999999999,-0.08283333
-8.778167999999999,0.83073056,-0.42236590000000007,0.3926991,-0.048764499999999995,-0.08285078
-8.494178,0.55677634,-0.6697348000000001,0.36875317,-0.099326685,-0.13608332
-8.606159,0.82123035,-1.2107956,0.29635692,0.05609488,-0.1712168
-9.511838000000001,1.7313334999999999,-1.8262205000000002,0.13611823,0.2578375,-0.14034192
-10.488222,2.6748118,-1.1243746000000001,-0.050701816,0.18065903,-0.13393657
-11.010072000000001,1.9000192999999999,0.030942663999999998,-0.15929620000000003,0.054506633,-0.21539108
-11.158761,-0.43552443,-0.57520217,-0.23595107,0.2807362,-0.22816689999999998
-11.524988,-1.2742993999999999,-1.6808062,-0.20668189,0.5389053,-0.11159635
-11.627316,-0.42327570000000003,-2.9898597999999996,-0.22369885,0.47237337,-0.054087754
-11.513026,1.0126995,-2.749434,-0.33763394,0.141808,-0.053023104
-12.064391,1.2839146000000001,0.23471795,-0.38446113,0.16362461,0.058747783
-13.532554999999999,0.35958034,3.140053,-0.3956487,0.30415854,0.31798154
-14.248344,-1.1074908,5.247621,-0.25244442,-0.017872171,0.6538876
-9.676473,-1.3437313,3.2267232000000003,-0.31100023,-0.38252379999999997,0.67411596
-7.652855000000001,1.9443311999999997,2.9466972,-0.40310124,-0.075363316,0.42179373
-10.202211,2.1906084999999997,2.3394797,-0.49998447,0.18332939,0.21258110000000002
-12.052660000000001,0.39260120000000004,2.1027796000000003,-0.5803569000000001,-0.032253683,0.14391986
-11.684202,-1.1108042,1.8602564,-0.6139021,-0.16639969,0.12740904
-10.266202999999999,-0.68933856,1.5900468,-0.5686631999999999,-0.20418607,0.031049407999999997
-9.472841,-0.65135694,1.3219633,-0.524995,-0.2377313,-0.09880309
-8.507125,-0.8477485,1.1148744,-0.46910959999999996,-0.21909118,-0.17758726
-7.9865394,-1.4174248999999999,1.0710223,-0.35573299999999997,-0.17065829,-0.21273819
-7.8447266,-1.3467097,0.85190487,-0.19282398,-0.17331119,-0.20155062
-7.762787299999999,-1.1539956,0.60263014,-0.05550147,-0.26860616,-0.1845162
-7.6394477,-1.2580572,0.5705383,0.0371057,-0.33567917,-0.15737633
-8.003156,-1.3842412,0.6301922,0.16114625,-0.31225684,-0.11211995
-8.344750999999999,-0.83481985,0.37869567,0.22396065,-0.22123794,-0.08018043
-8.262323,-0.14289553,0.22339818,0.27506390000000003,-0.11316715,-0.03705334
-7.5823793,-0.013982138,0.26014438,0.32084388,0.07367035,0.039584067
-7.813391,-0.6459748000000001,0.17221014,0.36503562,0.42233476,0.12208578
-9.320876,-1.0720085,0.12410584,0.48799405,0.5474399999999999,0.1540253
-10.820364,-1.1370063999999998,-0.28310955,0.6365041,0.46598545,0.16360717
-11.55301,-0.83609354,-0.8300506,0.7105060999999999,0.29297096,0.16147786
-11.018059,0.7459661999999999,-1.4626466,0.68760735,0.16629498,0.12262683
-10.388852,0.8606485,-2.2301414,0.63598055,0.23123868,0.07843509
-10.691433,-0.23959257,-2.9263752,0.62905157,0.31215215,0.11836823
-11.4898405,-0.9363914000000001,-2.1564669999999997,0.7110470999999999,0.118909284,0.16521287
-12.574213,0.01574427,-0.42112089999999996,0.71530575,-0.15840608,0.023073252000000002
-12.269288000000001,1.5710847,1.6210278,0.6311809,-0.42671555,-0.18612191
-12.387101,2.2652116,5.36667,0.38311723,-0.8046666,-0.48422414
-10.981944,3.5379023999999997,6.9679985,0.32244956,-0.62845814,-0.8440586999999999
-7.808228999999999,-1.5225208000000001,4.4711432,0.6647261,0.16629498,-0.7615569999999999
-10.460727,-4.417915,3.5664222000000003,0.8792620000000001,0.4409749,-0.43416809999999995
-13.164882,-2.2126446,2.1491504,1.0517353999999999,0.21739821,-0.108384944
-12.933353,1.1990832,0.5322406,1.1305195,-0.09506808,0.06885324
-10.876217,2.6601784,0.40943724,1.1054915,-0.5049585999999999,0.06724753
-9.043532,1.8127936999999998,1.3900063999999999,1.0208606,-0.4027522,0.09707521
-7.8892869999999995,1.0749296,1.2100201000000002,0.91544265,-0.11262609999999999,0.155631
-7.3149185,0.70996696,1.0034482,0.8489107,-0.008831366,0.16786577
-6.854686,0.64598435,0.8421078000000002,0.8233591,0.0039269909999999995,0.10079276599999999
-7.0712649999999995,0.71648884,0.47394659999999994,0.7648033000000001,-0.032777283,0.015620696000000002
-7.130124,0.98266655,0.49931556,0.75256854,-0.12061971,-0.09934414
-7.3584547,1.1137826000000002,0.30219615,0.74563956,-0.11316715,-0.18186331
-7.971197599999999,1.0581797,0.25052926,0.71315897,-0.075363316,-0.19355701
-8.405314,1.2543128000000001,-0.26186820000000005,0.6737844,0.010855948,-0.1823869
-8.650528,1.4659313999999999,-0.77050203,0.6413038000000001,0.061418135,-0.20313887
-9.122751,1.5589988000000001,-1.2197308999999998,0.57848936,0.14500195,-0.26330036
-9.710508,1.8304247,-1.7395504000000002,0.44275513,0.16362461,-0.28298768
-10.2623625,2.2678645,-1.628536,0.26069984,-0.023195425,-0.26169467
-10.783408,2.3222513,-0.75568664,0.081297435,-0.09665633,-0.25797713
-11.279736,1.1243937,-0.47187799999999996,-0.06827728,0.11412708,-0.26649433
-11.325475,-0.49798438,-1.1915079,-0.11458086,0.30628783,-0.19144517
-10.887651,-0.36449325,-2.482385,-0.154514,0.30415854,-0.12541936
-10.6555,0.63028795,-3.105701,-0.26204374,0.29138273,-0.15524703
-11.901825,1.6407943,-0.9008136,-0.27851963,0.29618236,-0.13713051
-13.949634,0.37712505,2.041306,-0.15929620000000003,0.19182913,0.0853466
-14.489326,-1.3104233,4.851255999999999,-0.0027925267,-0.19301596,0.3855956
-11.781972,-2.4653192,4.821175,0.13720033,-0.49005353,0.5868146
-7.9762735000000005,1.0635043,2.611059,0.015812684,-0.2696708,0.43722242
-8.87158,2.7496257,2.3372965,-0.07305948400000001,0.054506633,0.24399702
-10.939672,1.6041056,1.6588082,-0.13746212,0.035342917,0.11730358
-11.8055315,-0.6748201,1.7671028000000002,-0.150779,-0.124337256,0.10665707
-11.042681,-1.6197062,1.7331626,-0.07093018,-0.18502235,0.124756135
-9.649055,-1.0595013,1.6910917,0.0371057,-0.27925268,0.00816814
-8.240507000000001,-0.6107895999999999,1.6621985000000001,0.08929104,-0.26860616,-0.13819517
-7.370674,-1.0147680000000001,1.65673,0.15688765,-0.20312142,-0.2409427
-7.1387815,-1.2137165,1.6234795,0.27560493,-0.15042993,-0.24626596
-7.137411999999999,-0.7402968000000001,1.3339246999999999,0.3921755,-0.124337256,-0.19729201
-7.1780175999999996,-0.46921563,1.1473686,0.42092106,-0.049288097999999995,-0.13925982
-7.664117299999999,-0.6603208,1.0576051000000002,0.43582615,0.09442231,-0.09295624
-8.378681,-0.65234333,0.62759686,0.43743187,0.21898647,-0.055152405
-8.940553,-0.44195047,0.06567774,0.4927937,0.31799898,0.009232792
-9.376728,-0.64317834,-0.6376142,0.5603903,0.40477675,0.07311184
-9.871025,-0.98708147,-1.124997,0.60723495,0.38667768,0.10505137
-10.625016,-0.9028533999999999,-0.76359713,0.6854955,0.1332908,0.14285520000000002
-10.290834,-0.6438486999999999,-0.3969012,0.79780746,0.047577675,0.18757053
-10.011096,-0.6349806,-0.6367619000000001,0.9122486999999999,0.22483331,0.19713494
-10.509502000000001,0.080809094,-1.0609282,0.9537875,0.31428143,0.16627751
-10.56157,1.1365947,-1.9079297999999998,0.92556554,0.26796040000000004,0.108786374
-10.544965,0.6180584,-2.2315682999999997,0.89416707,0.21472786,0.074717544
-10.796988,-0.24480234,-0.99775964,0.9282359,-0.0050963615,0.09227556
-11.943800999999999,0.48919287,1.0781376,0.87978554,-0.04129449,-0.04024729
-12.729702,2.3330154,1.8740375,0.7616093,-0.010960667,-0.29044023
-12.276595,3.062318,4.141557,0.53803265,-0.5997126,-0.53424525
-9.828026,1.6705493999999999,4.716405,0.47628290000000006,-0.47567204,-0.70671874
-10.140699,-0.988834,3.0471869,0.6210753999999999,0.19716984,-0.5789605999999999
-13.855715,-1.9814126,2.5367718,0.76108575,0.14552556,-0.24520129999999998
-13.754161999999999,-0.40999267,2.1217513,0.9314124,-0.30002209999999996,0.00816814
-11.411033999999999,0.7282204000000001,1.9650936999999997,1.0740931,-0.40646973,0.049689524000000006
-10.001778,1.1764054,1.678594,1.1081618999999998,-0.38411206,0.050771628
-9.324764,1.1711669,1.4812351000000001,1.0756813,-0.34845498,0.08588765599999999
-8.523319,1.291873,1.5600809,1.0410714,-0.31810370000000004,0.13114405
-7.360657000000001,1.3732950000000002,1.5249437,1.0139315,-0.31012756,0.13166764
-6.3419433,1.2634681,1.2080088,0.9777509,-0.27284732,0.07152359
-6.1781225,0.92407566,1.1267112,0.9857271000000001,-0.19992746,-0.048764499999999995
-6.622668300000001,0.5757193,1.2725852,1.0304424,-0.16214108,-0.15151203
-7.026886500000001,0.77836454,0.89562297,1.0565176,-0.09665633,-0.1845162
-7.693231,1.347744,0.10821792,1.0112786,-0.017872171,-0.20100957
-8.648077,1.6832675,-0.6295601,0.9095958000000001,-0.0045727626,-0.19516271
-8.734181,1.978348,-1.1093006,0.7392517,-0.08175122,-0.21111503
-8.630024,2.1942093,-1.4304589,0.54815555,-0.033841934,-0.25050712
-9.275625999999999,2.5959373,-1.1917666,0.31977922,0.04066617,-0.25530675
-10.010291,2.9296124,-0.8404510000000001,0.09300859,0.022026055,-0.23081979
-10.265447,2.8428847999999998,-0.2714833,-0.11138691,-0.023195425,-0.25956535
-10.479124,1.0894959,-0.22586899,-0.29131290000000004,0.100810215,-0.29630455
-11.064085,-0.16144581,-0.36516362,-0.38287288,0.36803758,-0.24891886
-11.599352,-0.042846635,-1.3410882,-0.415336,0.44629815,-0.19888027
-11.635819999999999,0.9773323,-2.1185715,-0.45101053,0.23549728,-0.19835667
-11.009622,1.2880517,-2.4612586,-0.49146727,0.09548696,-0.2526364
-11.45998,0.75242096,-0.6235363,-0.50689596,0.13222614,-0.21910863
-12.670211,-0.8537915,2.0561116000000004,-0.5266006999999999,0.17001252,-0.08176868
-14.210324,-1.320067,6.0635650000000005,-0.31260592,0.03267256,0.22005111
-13.724081,-2.2529244,6.0800085,-0.01982694,-0.1919513,0.52080625
-9.676186,-0.26832297,2.5669767999999995,-0.1007404,-0.18821629999999998,0.60171974
-8.192575,2.8164241000000003,1.6360825,-0.21837559999999998,-0.049288097999999995,0.40369466
-9.46448,2.7134445,1.1278988,-0.44940484,0.056635935,0.12316789
-10.293505999999999,0.537393,0.9799180000000001,-0.61655504,-0.12168436,0.021485003
-9.677105000000001,-1.5425841,1.753408,-0.60271454,-0.09346238,0.0752586
-9.374258,-2.3911849999999997,1.9810008999999997,-0.44675192,-0.07271042,0.07045894
-8.38527,-2.2119262,1.8707526,-0.26682594,-0.18502235,-0.006178465699999999
-7.160731299999999,-1.8971558999999998,1.9072403000000002,-0.07571238,-0.18289305,-0.084421575
-6.946881299999999,-1.5839465,1.8005258999999998,0.10365511,-0.049288097999999995,-0.11903145
-7.621616,-0.9677745999999999,1.3575506000000002,0.19734438,0.08751081,-0.09136798
-8.100589999999999,-0.39455488,0.9068757,0.18030997,0.14074335,-0.031189033999999997
-8.340681,-0.30784646,0.74834126,0.16594589999999998,0.19078194,0.002321288
-8.729307,-0.6866283000000001,0.60186404,0.18510962,0.21579250000000003,0.039584067
-9.190717999999999,-1.0227455,0.4163325,0.25590017,0.28286552,0.077911496
-9.778801,-1.2229391,0.07520667,0.3921755,0.31693435,0.13166764
-10.344407,-1.5646204,-0.13154702,0.5385736999999999,0.18385299,0.16043067
-10.442454,-1.5098603000000002,-0.42114967,0.63226295,0.06195919,0.15723671
-9.790609,-0.7107523,-0.5898259,0.65462065,0.07579965,0.1513724
-9.603661,-0.14168885,-0.74745065,0.64290947,0.29192376,0.12316789
-10.432504,0.43328348,-1.069509,0.6045821,0.41488220000000003,0.14337879999999997
-11.239523,0.9758095999999999,-1.3357347,0.5598666999999999,0.36484364,0.2077989
-11.245891,0.80086046,-1.6474596999999997,0.54976124,0.19504054,0.26263714
-10.496458,0.31929073,-1.9161946,0.57690114,0.058224183,0.27380726
-9.788530999999999,-0.055306062,-1.2698079,0.64236844,-0.07749262,0.24825563
-10.450001,0.51588345,0.19478267,0.61522853,-0.062063905999999995,0.10611602
-11.981571,1.5516055,0.777924,0.42572072,-0.07962192,-0.10519099
-12.811805,1.9179950000000001,2.0833387,-0.018221237,-0.6039711999999999,-0.33622023
-10.855627,3.1001751,3.7453837,-0.26789057,-0.84936446,-0.51295227
-7.749016,0.5344911,3.5373563999999997,-0.24286257,-0.4075344,-0.4676959
-9.786491,-2.5982547,3.1705357999999997,-0.14756759,0.13861404,-0.33941418
-13.040231,-3.1499267000000004,2.497114,0.012636183999999998,0.1998402,-0.13393657
-13.317421,-1.7661354999999999,1.8340638999999999,0.27506390000000003,-0.04342379,0.063006386
-11.754974,-0.6446531999999999,1.5315325,0.48640582,-0.26221827,0.12795009
-9.679605,0.07451714,1.3883976,0.6130993,-0.34098497,0.1316851
-8.1880455,0.49395254,1.461957,0.63598055,-0.21856758,0.13540265
-7.345219,1.1605174999999999,1.2248353,0.58276546,-0.10143854,0.15404277
-6.9127116,1.5641512,0.9023267,0.49544662,-0.069516465,0.14924310000000002
-6.824652700000001,1.6581953,0.6655306,0.37568212,-0.19141026,0.092816606
-6.549492400000001,1.4227878,0.98376787,0.29956833,-0.22600268,-0.02480113
-6.7550482999999995,1.0451840000000001,0.8901259,0.27399924,-0.06684611,-0.14032447
-7.478231399999999,0.7941854,0.51046294,0.2809282,0.07154105,-0.19088666
-8.42486,0.5089115,0.017496826,0.29211575,0.08431686,-0.19036306
-9.24002,0.6325481,-0.45237959999999994,0.27293459999999997,0.100810215,-0.22176154
-9.985555,1.4116021,-1.2583828000000001,0.22291344,0.08644616,-0.25317746
-10.471712,2.0382414,-1.1959229,0.13772394,-0.10784389,-0.25104815
-10.045831,2.1153922,-0.75820535,0.020629792,-0.23451988,-0.23720770000000002
-9.792380999999999,1.4507139,-0.33961272,-0.09541715,0.08909906,-0.25583035
-10.768851,0.18578047,-0.55670935,-0.1529083,0.4324577,-0.22390829
-11.971401,-0.69372475,-1.4086143,-0.14065608,0.48675486,-0.13925982
-12.013185,-0.32983482,-2.2377548,-0.112975165,0.36058503,-0.040770892
-11.527401,0.72088456,-2.2211776000000003,-0.112975165,0.11945033,-0.029077185
-11.902257,0.76408553,-0.28617412,-0.09539969999999999,0.11573278,0.04277802
-12.403832000000001,-0.6268020000000001,1.7751569,-0.13480923,-0.0077667153,0.19502309
-12.8194275,-1.4731427,5.1788883000000006,-0.02300344,-0.1195376,0.47663197
-12.568458,-2.352265,6.292431400000001,0.17339846,-0.108367495,0.7763224
-9.131514,0.4989612,2.9913347000000003,0.05948082,0.070999995,0.6815685
-8.845713,2.7750041000000003,2.1609874,-0.036320303,0.111997776,0.3919835
-10.479794,2.1362312,1.9191922,-0.23221606,0.04012512,0.08908161
-11.520631,0.054846372000000004,1.5596309,-0.3983016,-0.06419321,-0.050893802
-10.434946,-0.9255888000000001,1.2809458,-0.45472807,-0.1796991,-0.033859387000000005
-8.918478,-0.98715806,1.3025318000000001,-0.44408157,-0.25103070000000005,-0.06792822
-7.995570699999999,-0.81502455,1.3807361,-0.3983016,-0.21216223,-0.16001178
-7.381046,-1.2304665000000001,1.4687375,-0.30674163,-0.15786503,-0.21643828
-7.394578,-1.5891753,1.4508288,-0.18537141,-0.08494517,-0.20100957
-7.559634,-1.1922742,1.2081716,-0.05974262,-0.046076692999999995,-0.13020156
-7.4764314,-0.7427866999999999,0.92354894,0.00040142572999999997,-0.008290314,-0.051940999999999994
-7.6539755000000005,-0.70321536,0.67301965,0.062133722,0.10400417,0.008185594000000001
-8.185671000000001,-0.51912034,0.21241358,0.08981464,0.17055358,0.040648717
-8.759628,-0.35281914,0.13888286,0.1531701,0.17641789,0.07792895
-9.136475,-0.8685301999999999,0.08041645,0.2718874,0.29352948,0.13062043
-9.701219,-1.6301066,-0.24916936,0.38207003,0.39838886,0.15617207
-10.621982000000001,-1.7240933999999997,-0.8000752,0.45978954,0.34569737,0.19395845
-10.901088,-0.6052925,-1.0826198,0.5018520000000001,0.25946066,0.24027948
-10.745934,0.6739582,-1.3148764,0.5119574,0.29831168,0.21951006
-11.453047,1.2538052,-1.5959748,0.47204176,0.35634387,0.20460495
-11.396572,1.3790697,-2.3444693,0.35971236,0.32705724,0.21685717
-10.954191,0.48507482,-2.877773,0.29316294,0.21259856,0.23602088
-10.759791,-0.27096617,-1.3327563999999998,0.29476866,-0.07855727,0.26316074
-11.2813635,0.21406079999999997,1.1629307,0.26975808,-0.15147713,0.09868091
-11.390021,1.2142625,2.5698786,0.18245672,-0.3399203,-0.15468854
-10.743501,1.803466,3.9636392999999996,-0.14330898,-0.78335613,-0.5054997
-8.715363499999999,1.324865,4.3602147,-0.25989696,-0.60184187,-0.8238303
-9.673829,-1.1202756999999999,3.8861341,-0.15821409,0.06195919,-0.71469486
-12.571933999999999,-2.2718773,2.6508794,-0.08103564,0.30044097,-0.3782652
-13.306398000000002,-1.6191219,2.0687531999999997,0.0339292,0.14660765,-0.045029495
-11.9782295,-0.20133321,1.4333031999999999,0.22130775,-0.018936822,0.040648717
-10.781406,0.18884505,1.3109594999999998,0.34215435,-0.21909118,0.022549653
-9.297949000000001,0.15744270000000002,1.1973403,0.39219293,-0.24890140000000002,0.044383723
-7.9636125999999985,0.6586928000000001,1.1254951000000002,0.37781143,-0.19141026,0.10559242
-7.0332837,1.4028299,1.0620009,0.30647979999999997,-0.13072516,0.1487195
-6.553342,1.5564322,0.9145754999999999,0.23621286,-0.14030702,0.13116150000000001
-6.2239379999999995,1.160709,0.7861026,0.17819811,-0.19779816,0.030543262
-6.238198000000001,0.45773306,1.0270647,0.18298031,-0.17702875,-0.09400343
-7.0343757,0.16144581,0.7316872,0.20959659,0.005009094699999999,-0.15042993
-8.035583,0.39691076,0.2999456,0.25218263,0.14234905,-0.14563027
-8.89715,0.5706435999999999,-0.41394790000000004,0.27454029999999996,0.16948892,-0.14510667
-9.376,0.67306757,-0.8831636,0.23675391,0.11360348,-0.16746435
-9.771942999999998,1.090128,-1.3609886999999998,0.12922418,0.082187556,-0.18449876
-10.410679,1.6144773000000001,-1.1110053999999998,0.04564036,0.08857546,-0.19355701
-10.976092,1.2428589,-0.91254514,-0.053354714000000004,0.17055358,-0.21430898
-11.642992999999999,0.2090138,-1.1277072,-0.13372713,0.36644933,-0.10997319
-12.400433,-0.6534734000000001,-1.6346938999999998,-0.2205049,0.29192376,-0.043964844
-12.072255,-0.56839305,-2.2297583,-0.28438395,0.13596115,-0.0013788101
-11.200842,0.40732074,-2.6383815,-0.34133404,0.14873695,-0.015219271000000001
-10.766428,0.764957,-2.5184512000000003,-0.41001275,0.10348057,-0.048223447
-11.524375,0.18330008,-0.11056423,-0.394043,-0.09611528,0.059288833
-12.013625,-1.3163799999999999,3.1539585999999997,-0.28864256,-0.28722882,0.22750367
-13.217937,-2.488227,6.978350999999999,-0.029391345,-0.34098497,0.58362067
-12.406753,-2.2686496,6.659136999999999,0.32138494,-0.3356617,0.8402014999999999
-8.973477,0.44618344,2.921769,0.28038713,-0.1796991,0.6762453
-8.53122,3.099792,2.411277,0.1010022,0.021502456,0.3329041
-10.753346,3.5680501000000002,1.6401047999999998,-0.08210029,-0.014137166999999999,-0.031189033999999997
-11.5053835,1.3037769,0.81830937,-0.30087729999999996,-0.23719025,-0.10412634
-10.423368,-0.46033794,1.2208226,-0.40097195,-0.29948103,0.012967796
-9.103713,-0.6947878000000001,1.2863567,-0.39191368,-0.30478686,0.0065798913
-7.593517299999999,-0.952672,1.3842412,-0.31684709999999994,-0.35004324,-0.063669614
-6.680397500000001,-1.7130991999999998,1.6376913999999998,-0.17631316,-0.26700047,-0.14245377
-6.9194154999999995,-1.466439,1.5475736999999998,-0.035255652,-0.14189526,-0.14458308
-7.2598996,-0.42385029999999996,0.8833742,0.041381758,-0.10995574,-0.07909832
-7.398744000000001,-0.011281478999999999,0.4984728,0.037664205,-0.016266469,-0.02586578
-7.7110343,0.07546524,0.24970566,0.004660029,0.12531464,0.014573500000000001
-8.171583,-0.035999216,0.021720197000000004,-0.012356931000000002,0.19877554,0.024155356
-8.464192,-0.29525295,-0.11314997,0.037664205,0.29618236,0.0731293
-8.742159,-1.0666648,-0.35078886,0.12390092,0.41116467,0.12688543
-9.461387,-2.0434415,-0.57372737,0.24740042,0.44736278,0.14391986
-10.792007,-2.0561213,-0.59206694,0.35599482,0.39999455,0.16149531
-11.371405000000001,-0.6427474,-1.2531157,0.40709805,0.38667768,0.18331192
-11.6249895,1.2839817,-1.6590668999999998,0.40922734,0.38934806,0.17053612
-11.901164999999999,1.6828077000000001,-1.9932400000000001,0.36981782,0.28180087,0.16255997
-11.470658,0.88733906,-2.0352726000000003,0.34267795,0.16894788,0.20727529999999997
-11.117714999999999,0.034208353999999996,-0.81326246,0.39165187,0.020978857000000004,0.23867378
-11.966,0.9662519,1.6804710999999999,0.3581241,-0.07749262,0.070999995
-12.668957,2.0493407,2.5581949,0.21491985,0.025237462000000002,-0.29096383
-11.609082,2.0796418,3.0276692,-0.07304203,-0.4352153,-0.5597969
-8.497164999999999,0.57338256,3.285199,-0.18589501,-0.47832492,-0.60184187
-7.772364,-1.4422958000000001,3.2449095000000003,-0.10072295,0.02417281,-0.50921726
-11.979637,-2.7977684,2.974853,0.05841617,0.29778808,-0.3649658
-13.769677,-1.4706815,2.5137297999999997,0.226631,0.15512486,-0.14510667
-12.343565,-0.5823081999999999,1.4381681999999998,0.4150742,-0.07375761,-0.018413223
-10.771638000000001,-0.5371057,1.5231624,0.5055695,-0.29468140000000004,0.049165923
-9.010808,0.005592855,1.4294149999999999,0.5673193,-0.22334978,0.11039207
-7.680407499999999,0.8432857,0.99007905,0.5678603,-0.099309236,0.13913764
-6.772612,1.8341787,0.5724344,0.4922701,-0.05300565,0.14817846
-6.708092999999999,2.1049342,0.29954335,0.38472292,-0.037035886000000004,0.10559242
-6.6285105,1.6079171,0.27269,0.24898867,-0.19832176,0.019355701
-6.452039,1.1887404,0.58928007,0.16913986,-0.19086921,-0.056199603
-6.719739,1.0299377,0.3221159,0.13400638,0.010332349000000001,-0.100391336
-7.901267999999999,0.8634353000000001,-0.13702495,0.08450884,0.23177972,-0.11262609999999999
-8.8921795,0.7749169,-1.017823,0.0062482785,0.33983305,-0.11955505599999999
-9.46335,1.0550193,-1.3784856,-0.085817836,0.31428143,-0.11475539999999998
-9.864217,1.7309694,-1.3207375,-0.25083873,0.21155135,-0.10784389
-10.082165,2.1932132,-1.3118981,-0.43130577,0.18280579,-0.13393657
-10.671867,1.1623371,-1.0102860999999999,-0.5622578,0.31641075,-0.13072516
-11.882489999999999,-0.78547055,-1.2105755,-0.6133436,0.49101347,-0.069516465
-12.640417999999999,-1.4744548000000002,-2.506145,-0.6586,0.4617443,0.04918338
-11.695273,0.07406703,-3.2983097999999997,-0.7171558000000001,0.15938346,0.09548696
-10.997727000000001,1.1684086,-2.0862117,-0.8113861,0.059829887000000005,0.06832964
-12.227093,0.24960029999999997,0.9091454999999999,-0.8342674000000001,0.11573278,0.100810215
-13.607234,-1.8485247999999999,3.5022767,-0.9109222,-0.057264253,0.27487192
-15.11991,-3.2768865,7.035486,-0.7671944,-0.2664594,0.63365924
-13.246448000000001,-2.8031697,5.3666415,-0.5973913000000001,-0.5283635,0.87535244
-9.1367235,1.7112606,2.5192172999999998,-0.79168135,-0.34791392,0.6687927
-8.941816000000001,4.138349,2.1370645,-0.93807954,-0.16053538,0.2727426
-10.3610325,2.1604989,1.2001462,-1.0940421999999999,-0.19886282,0.016702801
-10.0836115,-0.9406051999999999,1.0172101,-1.2095655,-0.316498,0.020961404
-9.532121,-2.4157975,1.4388386,-1.1675031,-0.25209534,0.026808257999999998
-8.626969,-2.2765603,1.2909153,-1.0503916000000002,-0.28775242,-0.008831366
-6.8685913,-1.5160756000000002,1.1316146,-0.9545729,-0.33726743,-0.060999255999999995
-5.900625,-1.0457969,1.0801777,-0.8832413,-0.19938642,-0.06738716
-6.2352867,-0.24139298,0.86218077,-0.8465196,-0.025324726000000002,0.017767452
-6.862739599999999,-0.043737277000000005,0.19008046,-0.9055989999999999,-0.064175755,0.1487195
-7.1190050000000005,-0.58477896,0.057278882999999996,-1.0205812,-0.034906585,0.25731388
-7.5349164,-0.927485,0.039303213,-1.0477386,0.13809045,0.29138273
-8.742658,-1.2934244,0.35888126,-0.8976228,0.26317820000000003,0.28180087
-10.029857000000002,-2.4145525,0.23096386,-0.67830473,0.2860769,0.30469957
-11.0787945,-3.5984566,0.12517844,-0.50848424,0.13542010000000002,0.34409165
-11.169583,-3.1529912999999996,0.14917792,-0.34026940000000006,0.060370937,0.37974873
-10.793952,-1.5532143,0.135598,-0.15875515,0.18599974,0.34196237
-11.391525,-0.4315022,-0.53115845,0.008918633,0.42394048,0.28286552
-12.120569,0.80055404,-1.5263803,0.1728574,0.50218356,0.27541295
-12.214231,-0.7275117,-2.7868698,0.226631,0.38135445,0.23656192
-12.415142999999999,-2.1408472,-2.8781752999999997,0.23940681,0.1285086,0.25040239999999997
-12.669253999999999,-1.1114843,0.18800229,0.12070697,-0.5161287999999999,0.17107718
-12.347109,1.8839398999999997,3.1765504,-0.058677968,-0.47141343,-0.07696902
-10.272408500000001,3.0321797999999998,4.121139,-0.33335790000000004,-0.6869965,-0.35217252
-7.0696273000000005,2.4519212,3.7043470999999997,-0.6144257,-0.5060059,-0.49644145
-6.7122116,-0.6094871000000001,2.6282876,-0.7741233000000001,0.071017444,-0.5305103
-10.279246,-1.4819055,1.9209638,-0.7730587,0.31269318,-0.43627995
-13.250269,-1.4143316000000001,2.283197,-0.7602829000000001,0.02417281,-0.27127653
-12.972772,-0.051561527,1.9397343,-0.6910805999999999,-0.18076375,-0.10519099
-11.455346,0.9740474,1.6013091,-0.62453115,-0.25422466,0.008185594000000001
-9.660009,0.6901813,1.6454678,-0.595262,-0.23134339,0.0800408
-8.092536,0.50081915,1.5590178999999997,-0.5500056,-0.1254019,0.10346312
-7.612949,0.29327056,1.350119,-0.54363513,-0.040770892,0.13966125
-7.569336,0.6111823000000001,0.90326524,-0.57555723,-0.05778785,0.18065903
-7.1476690000000005,1.1874761999999999,0.74722075,-0.6037792,-0.12007865,0.1465902
-6.7009300000000005,1.010401,1.0055551999999999,-0.5835508,-0.09772099,0.061418135
-7.072855000000001,0.46426442,1.0102478000000001,-0.5287126,-0.09292133,0.009773844
-7.624996,-0.34493744,1.0528646000000002,-0.45046946,-0.098244585,0.0172264
-7.9873343,-0.552304,0.82449603,-0.38072613,0.08166396,0.03267256
-8.591718,-0.52733725,0.13362518,-0.37807322,0.29138273,0.012967796
-9.318567999999999,0.46124774,-0.27824453,-0.41692424,0.36006144,-0.03544764
-10.117484,1.6570367,-1.1416511999999999,-0.5803569000000001,0.45162138,-0.09721484
-11.166634,1.6392811999999999,-0.74033505,-0.73846626,0.4713087,-0.09719738
-11.596076,-0.5015469,-0.89995164,-0.75176567,0.50007176,-0.07803367
-11.909296000000001,-3.158,-1.6063752,-0.75602424,0.51762974,-0.034382987999999996
-11.831292,-2.4168220000000002,-2.0528459999999997,-0.73792523,0.36751398,-0.002984513
-11.331967,-0.29891127,-2.675913,-0.81564474,0.16842428,-0.058869954
-10.6875725,1.2162735,-2.1652202999999997,-0.9700190999999999,0.03747222,-0.08389798
-11.361483999999999,1.5687958999999998,0.9724193999999999,-1.0392214,0.041207224,0.03799582
-12.484996,-0.88299114,4.2185926,-1.050409,0.07632325,0.2770012
-14.262422,-2.886392,7.432339,-0.7863755,0.033213615,0.6091723000000001
-13.433674,-2.8689146,5.6756085999999994,-0.44249332,-0.35110790000000003,0.79813904
-9.07773,1.6668718999999996,2.9634664,-0.5734454000000001,-0.38252379999999997,0.5500929
-9.166527,4.2107015,2.7355096000000003,-0.72460836,-0.15041247,0.21312216
-10.945591,2.9439678,1.4941733,-0.98225385,-0.099309236,-0.04982915
-10.957878,-0.099435985,1.1024724,-1.1691087,-0.16692328,-0.03651229
-9.960703,-1.2505202,1.3308026000000002,-1.2042422,-0.17224655,0.021485003
-8.4397135,-1.1543499,1.3514215,-1.1222641000000002,-0.30161035,-0.014172073
-6.700058500000001,-1.3431662,1.4065648000000002,-0.9998292999999999,-0.34046137,-0.08815658
-5.97746,-1.4889444,1.4988086,-0.86036,-0.1291369,-0.13606587
-6.7951565,-0.8467334000000001,1.0348698,-0.7411366,0.07792895,-0.08656833
-7.334789999999999,-0.8196023000000001,0.44340616,-0.6814986999999999,0.017767452,0.026267204
-7.2554940000000006,-1.2865387,0.5892321999999999,-0.6282835999999999,0.0060562924,0.11091567599999999
-7.403082400000001,-1.3725383,0.7577265000000001,-0.55906385,0.12903219999999999,0.1540253
-8.480454,-1.1785411,0.45076114,-0.44249332,0.25624925,0.20512855
-9.379878999999999,-1.2923518,-0.00794875,-0.30248302,0.2764776,0.24345598
-9.611015,-1.9765476000000002,-0.25176468,-0.20507619,0.2136632,0.19926424
-9.662978,-2.5702522,-0.08925584,-0.08689994,0.26689574,0.17373008
-10.213559,-2.0854647,0.06462429,0.073303826,0.49314278,0.19554669
-11.198983,-0.44667184,-0.8598056999999999,0.26761132,0.72682494,0.19821705
-12.318666,1.0577775,-1.9936421999999998,0.32456142,0.57670915,0.1540253
-12.573495,0.9722279,-2.8023365,0.30061552,0.33663909999999997,0.13273229
-11.894853999999999,0.18512926,-2.7493383999999996,0.23993040000000002,0.10613347,0.18648843
-11.578188,0.18724573,0.21264341,0.17818066,-0.26380652,0.16999507
-11.642227,1.9421476999999998,2.6905942000000005,0.03817035,-0.1115789,-0.090826936
-11.313053,2.497248,3.3774907999999995,-0.21891665,-0.419263,-0.3745651
-9.536546000000001,2.1467178,3.7423862999999997,-0.47230354,-0.5353099,-0.56194365
-7.760412,-0.8064821,3.1514015,-0.55108774,-0.21005037,-0.55820864
-9.714004,-1.9671624,3.2881582000000003,-0.4169417,0.18437658,-0.50817007
-13.200891,-1.7174566999999998,3.0196054,-0.27747244,0.16681857,-0.31333897
-13.199952,-0.6360628,2.0155060000000002,-0.07679449,0.02734931,-0.13500121
-11.80285,-0.60165334,1.4282753000000001,0.07810348,-0.29895744,-0.05942846
-10.253283999999999,-0.50290686,1.5891466,0.1728574,-0.34951964,0.03584906
-8.440278999999999,0.28706479999999995,1.1936437,0.20319124,-0.22602014,0.10077531
-7.268059299999999,1.1030086000000001,0.6420866,0.17551029999999998,-0.07112217,0.10716321
-7.185324700000001,1.3755168,0.48829263,0.13505358,-0.046635196,0.08588765599999999
-7.1856313,1.175352,0.28093565,0.07436848,-0.17811085,0.052342422
-6.7412386,0.7909484999999999,0.5763418,0.039235003,-0.29202849999999997,-0.00726057
-6.4241410000000005,-9.576806000000001e-06,0.98198664,0.05094616,-0.20633282,-0.066881016
-6.565140700000001,0.16084246,0.7120739,0.060528017999999996,-0.040788345,-0.11320206
-7.529803,0.5373545999999999,-0.2026165,0.04082325,0.1944995,-0.14301229
-8.795023,0.71766675,-1.1787325000000002,-0.026755897,0.30309388,-0.13288938
-9.949939,1.4738992,-1.4089111,-0.1513375,0.14498450000000002,-0.12704252
-10.179974000000001,2.142188,-1.5302396,-0.32700488,0.17373008,-0.13130112
-10.892085,1.6928443,-1.2146455,-0.48722609999999994,0.37549013,-0.13768902
-12.147863000000001,0.18035042,-0.98973423,-0.5825036,0.3414213,-0.10679669999999998
-12.310535,-0.8716139,-1.4477163999999998,-0.6554409000000001,0.28710666,-0.0008726646000000001
-11.548633,-0.58129305,-2.2763495,-0.66343457,0.3861192,0.0922581
-11.007916999999999,0.40846038,-2.7009852000000003,-0.7006799,0.36695546,0.08693485
-12.055629,0.83310556,0.47658019999999995,-0.6820571999999999,0.24080308,0.14814354
-13.366060999999998,-0.6494989999999999,4.13945,-0.54258794,0.11995648,0.3392571
-14.240434,-2.2172127,6.733060000000001,-0.3094294,-0.016283922,0.61980134
-11.940717,-2.8676789,5.3008676,-0.1534668,-0.15522958,0.7416951
-8.501149,2.175027,2.2244432,-0.2833542,0.01616175,0.4712738
-10.366559,3.7615112999999996,1.9389873,-0.45635125,0.047560222,0.12685053
-12.243967,1.9583994999999998,1.6766307,-0.74221873,-0.22017328,-0.020577433
-11.654237,-0.2902347,0.9158204,-0.9689894,-0.22284363,0.021450097
-10.4371395,-0.38193262,0.9804064,-1.0451206,-0.22071433,0.059777527999999996
-8.9468155,-0.31534508,1.0687238000000001,-1.0222219000000001,-0.38679987,-0.009407325
-7.080228999999999,-0.6902579000000001,1.3034321000000002,-0.97324795,-0.47036624,-0.1052259
-6.084519,-1.6003323,1.364264,-0.9120218000000001,-0.26914722,-0.13662437
-6.583691,-1.5710464,1.272432,-0.7784169,-0.041852996,-0.08180358
-7.2526600000000006,-1.2002612,0.6198779999999999,-0.6607816999999999,-0.00991347,0.02677335
-7.584295,-1.3745016,0.18006313,-0.5990319000000001,-0.021624627999999996,0.14014994
-7.7174697,-1.174107,0.10353486,-0.57346284,-0.012566371000000002,0.23172736
-8.170788,-1.1179773000000002,0.4060853,-0.46595055,0.027331855,0.26364943
-9.006144,-1.422922,0.5982057,-0.29187140000000006,-0.0067195175,0.27909559999999994
-9.185996000000001,-1.8796111,0.5261306,-0.103428215,0.026267204,0.2817485
-8.84806,-1.8342171000000003,-0.339584,0.035482544,0.20725785,0.22479841
-9.8924675,-1.9531705000000001,-0.18356824,0.17229891,0.29775316,0.18592992
-11.436671,-0.47854346,-0.12084015,0.31229177,0.36482617,0.25513223
-11.898962,1.1282915,-0.92095363,0.53215086,0.5112069,0.31422907
-11.661736,1.2512577,-2.834955,0.55555576,0.52824134,0.26204374
-11.462375,0.25363216,-3.0575392000000003,0.4906295,0.07204719,0.29239499999999996
-12.094827,0.9118844000000002,0.18726487,0.39322270000000004,-0.47197193,0.24076816
-13.225225,3.0090133999999997,3.9765105000000003,0.20903808,-0.5220104999999999,0.008674286
-12.352644999999999,3.3458203999999996,4.785042,-0.095452055,-0.8882504000000001,-0.34477234
-9.393019,2.1164649,5.19152,-0.31529373,-0.64231604,-0.62851053
-8.113211999999999,-1.8390342,3.8114061,-0.14229669,0.37653732,-0.53907984
-12.286104,-3.6986394000000002,3.3949301,0.16962855,0.51494193,-0.35808920000000005
-13.929982,-2.2692628,2.413748,0.4863709,-0.015777776,-0.10309660000000001
-11.149146,0.006703765,1.9807901,0.75412184,-0.26171213,-0.06478662
-9.696057000000001,0.41411072,1.3894031,0.84355253,-0.25745353,-0.11321951
-8.651898,1.081911,0.97189265,0.7716799,-0.2510656,-0.06691592
-7.3382955,1.8580058999999998,0.48925993,0.6588269,-0.19144517,-0.017400933
-6.574727,1.9786354,0.24421816,0.50818753,-0.05623451,0.0012217305
-6.6071729999999995,1.8703408,0.06548621,0.35967746,-0.013107423,-0.007819075
-6.727860000000001,1.432901,0.22563915,0.2771583,-0.10040879,-0.080215335
-6.544761,0.7777516,0.46020390000000005,0.25001842,-0.14885913,-0.16006415
-6.6137238,0.61035866,0.36372712,0.24467771,-0.018430676,-0.21649064
-7.3269660000000005,0.7974607,-0.34315613,0.21380283,0.2732662,-0.20532054
-8.478721,0.8806832,-1.0936426000000001,0.15364133,0.4207116,-0.16753416
-9.543613,1.248624,-1.2919973999999999,0.05942846,0.35630897,-0.14782938
-10.104125,2.2251517999999995,-1.1972637,-0.04754277,0.31744048,-0.13027138
-10.480972,2.8730995999999998,-0.5696572,-0.11089822,0.3344749,-0.13344787
-10.701995,1.4787451,-0.30643865,-0.09918706,0.41910592,-0.1691224
-11.494955000000001,-1.3530782,-0.7445584,-0.09279916,0.6123488,-0.15421729
-11.571138000000001,-1.3781025,-2.4791958,-0.104510315,0.529306,-0.10684906
-10.653575,0.5299421999999999,-3.699147,-0.28550094,0.17849483,-0.17924531
-10.367823,2.3700297000000004,-2.0084193,-0.50694835,0.09227556,-0.18722147
-11.656545,2.8006507999999997,2.9322937000000002,-0.5697627,0.15294321,-0.031241393
-14.159432999999998,-0.6667181,6.952398,-0.526112,0.29721212,0.3536037
-15.344717000000001,-2.8331068,7.679852,-0.23013912,0.103445664,0.69109803
-12.283998500000001,-0.44437340000000003,2.5984368,-0.20139354,-0.110008106,0.5883505
-11.151799,3.7065879999999995,2.093787,-0.36109117,-0.20263273,0.16835445
-12.182177000000001,3.1930704,1.6098516999999999,-0.5836031999999999,-0.24467771,-0.054140113
-11.514242999999999,0.69379175,1.0021937,-0.8029213000000001,-0.40011674,-0.030194197000000002
-10.268616999999999,-0.99544203,1.2326117,-0.84870124,-0.35007814,0.062430426
-8.784794999999999,-1.5014805,1.2834454,-0.7677878,-0.39107594,0.012391837
-7.0058264999999995,-1.5320114,1.2973700000000001,-0.617672,-0.5225516,-0.13398893
-5.7100754,-1.7665665000000002,1.3806976999999998,-0.5074894,-0.42727405,-0.21383774
-5.847972,-1.2636405000000002,1.1468227,-0.40313616,-0.12597786,-0.16379915
-6.555516000000001,-0.34392226,0.5672726,-0.37812558,-0.080721475,-0.042970005
-6.7323704,-0.037301663,0.19247466,-0.42338195,-0.039200094,0.037926003
-7.2926326,-0.35347036,0.19226398,-0.47075020000000006,0.04914847,0.040055305
-8.047391000000001,-0.63951045,0.16541061,-0.45903903,0.10716321,0.060283672
-8.921159,-1.2052889999999998,0.29269594,-0.34885642,0.16784832,0.12576842
-9.780381,-1.8511297999999998,-0.101495,-0.21949259999999998,0.27324873,0.19230038
-10.486814500000001,-1.9244689,-0.47477020000000003,-0.12315043,0.25408503,0.17952457
-10.551161,-1.3110169,-0.7301166,-0.04117232,0.25249678,0.15610225
-10.890112,-0.050680462,-1.0443795,-0.001256637,0.4004658,0.12681562
-12.000907000000002,1.0751306,-1.5626379,0.010978121,0.49789008,0.14864969
-12.359367,1.3286861,-2.0898220000000003,-0.017208947,0.38610172,0.19017108
-11.656191,0.27857015,-2.7064342,0.013107423,0.20830505,0.23223351
-10.911048,-0.8985247,-1.6514915000000001,0.09456194,-0.023247786,0.26202628
-10.641059,-0.06317819999999999,1.2411925,0.16589354,-0.22924899999999998,0.10552260000000001
-11.069371,1.4838113000000002,3.1549737,0.15097098,-0.19198622,-0.17819811
-11.372391,2.1948605,3.5595076,-0.18277088,-0.65723866,-0.49811697
-9.794574,2.3321345,3.931461,-0.39837140000000004,-0.5747369000000001,-0.7126354
-9.322868,-0.45506114,3.5808926,-0.42390558,0.0023038345,-0.6327866
-11.942211,-1.9911139,3.1493137000000004,-0.25090852,0.39409533,-0.36768850000000003
-13.330638,-2.1323814,2.2492855,-0.104510315,0.17104226,-0.055745817999999996
-12.044176,-0.9394081,1.6672262999999998,0.113725655,-0.06422812,0.04590216
-11.277285000000001,-0.27659732,1.376599,0.27607617,-0.22659610000000002,0.06771877400000001
-9.741881,0.18617313,1.0856938,0.33410838,-0.35807174,0.102869704
-7.686958,0.77361447,0.86305225,0.30003956,-0.32878512,0.10925761
-6.6902614,1.3106052,0.9764799999999999,0.25319493,-0.16058774,0.09541715
-6.534198,1.2922176,0.7090571999999999,0.1850398,-0.09616764,0.06347763
-6.3700514,0.8692389000000001,0.5891172,0.12489576,-0.18294542,-0.020629792
-5.907444,0.40510848,0.8483231,0.11744320400000001,-0.23776620000000004,-0.13774139
-6.131723,0.34673786,0.71765715,0.16694075,-0.051452305,-0.23408356
-7.364191,0.4639101,0.019632453,0.16961110000000001,0.16091935,-0.2287603
-8.479602,0.94454134,-0.97949666,0.07538077,0.26738444,-0.18936822
-9.424142999999999,1.5742163999999998,-1.3679799,-0.062465332,0.28815386,-0.18563321
-10.039702,2.1808686,-1.5208544,-0.23600341,0.25195572,-0.20053834
-10.416395,1.8745353999999999,-1.4817044,-0.38027233,0.3046472,-0.20587903
-11.202259,0.51912993,-1.1107468999999999,-0.48832566,0.35735616,-0.18510962
-12.169516999999999,-1.3879761999999998,-1.1284161,-0.5133537,0.41378266,-0.12175417
-12.539575,-1.9885186000000001,-2.1745865,-0.50696576,0.38077849999999996,-0.03234095
-11.627460000000001,-0.37444356,-3.2750285,-0.53358203,0.13536774,-0.012636183999999998
-11.025729,1.2371128,-1.9146622,-0.5804267,-0.06689847,-0.02115339
-12.177292999999999,0.9630629,2.6475945,-0.4808731,-0.15046483,0.13693853
-14.332170000000001,-0.99513555,6.714213000000001,-0.36802012,-0.26012388,0.47760934
-14.912142000000001,-2.9530945,8.250735,-0.11517428,-0.35967746,0.9556376
-10.063127,-0.94241524,3.3965008,-0.123691484,-0.21062633,0.95670223
-8.705441,3.3514513999999997,3.2807076,-0.23280947,0.045937065,0.45101053
-11.051644,3.5799540999999997,1.7282209,-0.39091885,0.06297148,0.006510078000000001
-12.022178,0.9344186,0.5625225,-0.60278434,-0.25373596,-0.0940907
-10.632593,-0.9630437,1.134976,-0.6751805999999999,-0.33944908,0.014486233000000001
-8.970298,-1.3633255,1.4151552,-0.6192776999999999,-0.29473376,0.0075747290000000005
-7.004975,-1.1420726,1.3265889,-0.5032308,-0.36713,-0.101543255
-5.557986,-1.530345,1.6198976999999999,-0.36536723,-0.23457225,-0.22556636
-5.7925887000000005,-1.335275,1.5450263000000002,-0.21790436,0.017732546000000002,-0.2175902
-6.858018400000001,-0.559228,1.0276777,-0.10398672,0.07309439,-0.11590732
-7.5182147,-0.5632982,0.5349891,-0.08962265400000001,0.110357165,-0.013177236
-7.9280925,-0.92556006,0.26565102,-0.09759881,0.119397976,0.040578905
-8.243936,-0.8821962999999999,0.25962722,-0.05609488,0.09384635,0.06346017
-8.743108,-0.8102936,0.3347573,0.048223447,0.1603783,0.12733923
-9.087882,-1.0383365,0.11140699,0.16694075,0.24822073,0.1688606
-9.736328,-1.6953726000000002,-0.22559126,0.27392942,0.27644270000000004,0.13959143
-10.701296000000001,-1.6825205,-0.41780734,0.38041195,0.21043435,0.12788028
-11.192903,-0.35657325,-0.49399084,0.41393974,0.23331562,0.13053317
-11.425877999999999,0.9567517,-1.1445912,0.419263,0.3690673,0.110845864
-11.928353,1.433217,-1.8834131,0.3649658,0.32328734,0.09327039
-11.7332735,0.9199385,-2.3604722000000002,0.35325465,0.2210634,0.11030481
-12.241008,0.36619794,-0.28861624,0.37828267,-0.14833553,0.14226179
-12.459128999999999,1.4629914,1.1699697,0.34419638,0.027314402,-0.056286868
-12.582439,1.2673085,1.6911683000000002,0.17917550000000002,-0.14194763,-0.39484584
-11.681233,2.3411557999999997,3.4780184999999997,-0.11198033,-0.6072175,-0.60566413
-8.672114,1.6247245000000001,3.6739311000000003,-0.17266542,-0.5135282,-0.547632
-7.7025394,-1.1615326000000001,3.25757,-0.025220007000000003,0.008150687,-0.45340163
-11.204155,-2.7835853,3.1968625,0.13819517,0.21999875,-0.34960690000000005
-12.808434,-1.23491,2.5133946,0.34793139,0.08372344,-0.16648696
-11.977741,-0.6034633,1.4301333,0.53318065,-0.14407693,-0.06693338
-10.6841345,-0.14838304,1.2869887,0.6055769,-0.38789943,-0.007853981999999999
-9.206998,0.46594995,1.2302749,0.6183526999999999,-0.38203509999999996,0.06398377
-7.774375,1.1905408000000002,1.0931063,0.58321923,-0.23989551,0.11030481
-6.750748599999999,1.6112785,0.85080355,0.5267927,-0.099902645,0.11616912
-6.863764999999999,1.406603,0.7573052,0.45917870000000005,-0.047734755999999996,0.068783425
-6.9880424,0.86693084,0.5908028000000001,0.40329322,-0.13344787,-0.017976891000000002
-6.6261735,0.45862368,0.5672438,0.39210567,-0.21062633,-0.11271336
-6.537253,0.5987803,0.30976182,0.41126940000000006,-0.049323004000000004,-0.18298031
-7.5260005,1.0729663,-0.32938470000000003,0.40116394,0.17954202,-0.22664845
-8.659052,1.2107763999999999,-0.95819783,0.34686673,0.14440854,-0.24527112
-8.961574,1.4506371999999998,-1.3113043,0.22921409,0.031031952999999998,-0.22717206
-8.994029,1.9684168999999998,-1.2543128000000001,0.08122762,0.10981612,-0.22717206
-9.629402,2.0879257,-1.2244523,-0.10826277,0.26364943,-0.24687682
-10.813393,1.5844539,-0.40833586,-0.23069762,0.27642524,-0.23197171
-11.457529,-0.03655467,-0.76379824,-0.26316074,0.41908845,-0.18990928
-12.076153,-1.6243988,-1.8878568,-0.25729644,0.571351,-0.102607906
-11.962514,-0.4715045,-3.3930724000000003,-0.30894074,0.39620718,-0.06906268
-12.058492999999999,1.5356985,-1.9045587,-0.37974873,0.085329145,-0.057892572
-13.368791,1.1298143,2.4105685,-0.30255282,0.010803588000000001,0.10337585
-14.732930999999999,-0.63080513,5.7271985999999995,-0.2008874,-0.10470230000000001,0.48347366
-13.768844,-3.1593406,6.187776,-0.023614304,-0.24363051,0.8731184000000001
-8.624796,-0.08863334,2.719411,-0.09761626,-0.16751671,0.8097804
-8.705796000000001,3.1217995,2.7307692,-0.123691484,0.08693485,0.40256020000000003
-11.510278999999999,2.3760632999999998,2.129566,-0.2663547,0.0070860367,0.078906335
-12.132444,0.35749263,1.7079852999999998,-0.39145988,-0.18453366,-0.00040142572999999997
-10.753825,-0.62390023,1.5027636999999998,-0.42072907,-0.18081611,0.043755405
-9.327762,-0.61699533,1.2115139,-0.39891246,-0.23937191,-0.0030717794
-7.7553267,-0.5302199000000001,1.4103858,-0.33449236,-0.31124458,-0.163293
-6.5458045,-1.1734556999999999,1.5614026,-0.25570820000000005,-0.19997983,-0.29211575
-6.630425999999999,-1.5259109,1.6371360000000001,-0.14285520000000002,-0.014730578999999999,-0.29530972
-7.1483583,-0.9863056999999998,1.1778611,-0.01563815,0.040072758,-0.19203858
-7.3114419999999996,-0.73462725,0.5665926,0.048764499999999995,0.048589967000000005,-0.06482153
-7.4582067,-0.92116433,0.38290945,0.083356924,0.08478809,0.008098328
-7.7726893,-0.8806736,0.13259089,0.098262034,0.12685053,0.042708207000000005
-8.482159,-0.4054054,0.12227667,0.14830063,0.17530087,0.068783425
-9.013919999999999,-0.5121581000000001,-0.27177063,0.23347269,0.27429596,0.13105677
-9.651898,-1.1272764,-0.50571287,0.28991663,0.30518827,0.15182619
-10.277791,-1.4052719,-0.7338228,0.39584067,0.25035003,0.14437364
-10.784979,-0.7789486999999999,-0.8582158999999999,0.45387286,0.16730726,0.14704399
-11.327055,0.25460900000000003,-0.9570773000000001,0.45811403,0.25193828,0.118822016
-11.958625999999999,1.445868,-1.5464149999999999,0.40701079999999995,0.3509508,0.07942993
-11.749449,1.5360049,-2.4650988999999996,0.34686673,0.24343853,0.07784168400000001
-11.099758999999999,0.15474205,-2.1785512000000002,0.40914008,0.058712877000000004,0.13531537
-11.248094,-0.23919033,0.30385295,0.53637457,-0.13877113,0.10976376
-11.788053,0.76280224,1.1360774,0.5267753000000001,0.071488686,-0.112730816
-12.259299,1.1237712,2.2784183,0.3255737,-0.39268163,-0.41455059999999994
-11.285396,2.779697,4.954494,0.13074261,-0.8382466999999999,-0.70413566
-8.51246,1.485449,4.1664376,0.14084807,-0.3085742,-0.70574135
-9.564319,-1.8282028000000001,2.85453,0.25902432,0.32859313,-0.544438
-12.722605999999999,-2.8335857000000004,2.212271,0.37241834,0.28867745,-0.25005332
-12.573322000000001,-1.110268,1.2902066,0.5581911999999999,0.039008107,-0.04724606
-11.672892,0.3743861,0.8438699000000001,0.6816906999999999,-0.2569299,-0.00837758
-10.367324,1.1194521000000002,1.003496,0.6987251,-0.34051374,0.04642576
-8.68511,1.1517546,1.1439591999999998,0.6465571999999999,-0.2995334,0.09752899999999999
-7.094651700000001,1.3740036,1.1443901,0.5757667,-0.21114993,0.112975165
-6.563474,1.3992288999999998,1.0481145,0.53159237,-0.091909036,0.10126399999999999
-6.7399745,0.9189808,0.8739985,0.48366565,-0.13025393,0.042690754000000004
-6.657394,0.38770747,0.77040625,0.48366565,-0.20265017,-0.05630432
-6.7465057,0.32481655,0.65605915,0.53105134,-0.16804029999999998,-0.18032742
-7.2673697,0.49986142,0.24235068,0.5688377,-0.049864057,-0.26230553
-8.218193,0.76102096,-0.62232965,0.54595643,0.050195668,-0.27295205
-8.939049,1.175735,-1.1201704,0.5145405,0.025167647999999997,-0.23729496
-9.427581,1.9057941000000003,-1.1094348,0.42830379999999996,-0.040282197,-0.24474752
-9.553163,2.3323259999999997,-1.3235626,0.26380652,0.020909045,-0.30010936
-10.21557,1.9349266999999999,-1.1074427,0.077510074,0.11566297,-0.31979668
-11.272658,0.790326,-0.6763716,-0.07045894,0.16943656,-0.27933994
-11.612798,0.07527371,-1.2588042,-0.19024089,0.29984757,-0.16809265
-11.529173,0.3870179,-2.217682,-0.29616493,0.3615973,-0.09302605
-10.954939,1.226176,-2.9427418999999997,-0.38294268,0.34456290000000006,-0.07546803
-11.561983,1.6747729,-1.173111,-0.40795326,0.2184105,-0.035011306
-13.371865,0.0837013,3.045913,-0.24399702,0.12152728,0.18216002
-14.802659,-1.8929707999999998,6.231676,-0.062482785,-0.14781193,0.6048264
-12.694642,-3.3125023999999996,6.71338,0.15362388,-0.44484952,0.9508554
-7.987804,0.48857996,3.4989917,0.09028588,-0.08553859,0.8491725
-9.081992,2.937379,2.3882833,0.010960667,0.31901127,0.43874088
-12.282685,2.3525906,1.5382267,-0.10719812,0.11620402,0.04642576
-12.248946,0.080148295,1.1469566999999998,-0.20354029999999998,-0.37458256,-0.021694442
-10.386161999999999,-1.2542553,1.9498761999999998,-0.19769344,-0.33519047,0.043231804000000006
-9.148311999999999,-1.3375063999999999,1.7941189999999998,-0.10719812,-0.2606649,-0.00041887903
-7.952389,-1.0982107,1.7322528000000001,0.008831366,-0.27717572,-0.1462586
-7.1624555999999995,-1.4681532,1.7279911000000001,0.12861331,-0.17283995,-0.2628466
-7.4692583,-1.4175781,1.5134419,0.26912978,-0.057857665999999995,-0.26604053
-7.8971976999999995,-0.85578346,0.95443416,0.36603045,-0.11267845,-0.1606401
-7.7012467000000004,-0.57396674,0.8954027,0.40062287,-0.102573,-0.07918559
-7.9489985,-0.54017025,0.7800022,0.39317033,-0.024312437000000003,-0.04457571
-8.103492,-0.02666183,0.37413709999999994,0.37507126,0.048589967000000005,-0.035534903
-8.276028,0.19716729,0.1583525,0.41446334,0.09756391,-0.01956514
-8.542205000000001,-0.0988518,-0.2716557,0.486336,0.21148154,0.024609142999999997
-9.404999,-0.98874784,-0.16966270000000003,0.5911954,0.23490386,0.075694926
-10.092882000000001,-1.6947788000000001,0.039628826,0.68649036,0.1385617,0.117757365
-10.20425,-1.0917368,-0.15704048,0.75834554,0.24767968,0.14543828
-10.515802,0.6311403,-0.5341943,0.78230894,0.33552209999999993,0.13852678
-10.760261,1.7151679,-1.1353209,0.7439815,0.29133037,0.11349876
-10.863000999999999,1.7204446,-1.617312,0.687555,0.25886723,0.11189306
-11.011939,0.87064666,-2.031777,0.6598741,0.2897421,0.14224434
-11.549227,0.2577406,-1.1179868,0.73014104,0.11407472,0.18430677
-12.017513000000001,0.99017483,0.027370514,0.7657980999999999,0.07361799,0.0368439
-12.103475,0.69388753,1.0774099,0.70352477,-0.08180358,-0.20268509
-12.180146,0.77561605,3.099725,0.40435788,-0.45923102,-0.48907617
-10.889797,2.5885724999999997,4.610591,0.302675,-0.6551268,-0.72223467
-8.398841000000001,0.09434113,3.5780962,0.46343729999999994,-0.33573154,-0.60086447
-10.495652999999999,-2.5934088,3.3506854,0.5928011,0.100234255,-0.37728783
-12.763710000000001,-2.0303310000000003,2.3397765,0.7461108,0.0906524,-0.14679964
-11.961383999999999,-0.35932177,1.2972743999999998,0.9095260000000001,-0.1531352,-0.012653636999999999
-10.768362,0.59687454,1.0529028,0.96436423,-0.37405896,0.032044247000000005
-9.35362,1.1098944,1.1367478000000002,0.9526356,-0.41451570000000004,0.07304203
-8.249471,1.3130378,1.2100966,0.8786511,-0.31389746,0.11349876
-7.223497999999999,1.6591243000000002,1.1892575,0.793479,-0.18613936,0.13372713
-6.8521,1.4458583999999999,0.9153991,0.7093716,-0.05518731,0.13425073
-6.7482586,0.81803167,0.8561761,0.63910466,-0.08447394,0.06824237
-6.545316000000001,0.3766175,0.9113098,0.65561545,-0.08873254,-0.050440013
-6.804493400000001,0.41570044,0.7760374,0.7466344,0.06723008,-0.16009904
-7.7194424,0.6757778,0.010544063999999999,0.7982786999999999,0.1470789,-0.20216149
-8.677449000000001,0.91171205,-0.46827713,0.8051902,0.07468264,-0.19682078
-9.075509,1.5297512,-1.0085431,0.7024600999999999,0.026232297999999998,-0.21919589999999997
-9.504761,2.0784736,-1.2426099,0.58161354,0.0970403,-0.25113544
-9.949957000000001,2.5074859,-1.2952249,0.43575636,0.07733554,-0.276146
-10.197452,2.2841833,-1.2085834999999998,0.24253096,0.05284857,-0.31660274
-10.49167,1.1807628000000001,-0.76032186,0.10732029400000001,0.30730012,-0.32670817
-11.388222,-0.36436877,-1.1317583,0.034924038,0.6283011,-0.25485298
-11.960599,-0.2508453,-2.0277164,-0.011903145,0.6160489,-0.19842649
-11.916277000000001,0.7565773,-2.7939374,-0.0773879,0.39140755,-0.19257963
-12.20158,1.9082553,-1.2008454,-0.10346312,0.13004448,-0.1585108
-13.397081,0.35466745,1.0981341999999998,-0.13220869,0.20189969,-0.0137008345
-14.943477,-0.31194535,4.3086915,-0.16734217,0.08213519,0.3003537
-13.723699,-1.6196678999999998,4.5919256,-0.03160791,-0.17442821,0.60749674
-9.154364999999999,-0.23754312,2.8176115000000004,-0.048101272,-0.47678906,0.5792748000000001
-7.475042299999999,2.6927779,2.741993,-0.061941735,-0.33892548,0.33121112
-9.356636,2.2589773999999996,2.1364324,-0.20141099999999998,-0.0397586,0.101787604
-10.988266000000001,0.38211459999999997,1.7371178,-0.35952038,-0.13664183,0.022462387
-10.63921,-1.1740973999999997,1.5922878999999999,-0.42446408,-0.21169098,0.07730063
-9.504291,-1.3885795,1.6328646999999998,-0.36697292,-0.26705283,0.07197738
-8.544293,-0.9343229,1.4852478999999998,-0.26155505,-0.27557003,-0.04457571
-7.765402000000001,-0.78286564,1.5264951,-0.16095427,-0.26865852,-0.1499936
-7.4106193,-1.2056817,1.5962142,-0.057683133,-0.15845844,-0.16861627
-7.571002,-1.303528,1.28764,0.042376593,-0.06476917,-0.10634291
-7.791239699999999,-0.7195055,0.8151395,0.070598565,-0.04187045,-0.031799898
-7.897083,-0.25375664,0.7035984000000001,0.027995082,-0.033370696,0.0352382
-8.084741000000001,-0.14744452,0.5891364,-0.009773844,0.04860742,0.06558947
-8.763812,-0.19011877,0.38163576,-0.022549653,0.13269739,0.0959233
-9.161423,-0.24499387,0.005295974,-0.008185594000000001,0.19657643,0.13531537
-9.3313055,-0.55655617,-0.35955164,0.031712633,0.23650956,0.18268362
-9.398974,-1.0723629,-0.34849042,0.083356924,0.24876177,0.21038198
-9.4509,-1.4793293,-0.38089836,0.15788248,0.39886009999999994,0.22368139
-9.870776,-1.2603365,-0.5993069999999999,0.25530675,0.6197838999999999,0.21835814
-10.6617155,-0.69013345,-0.8663945,0.32131509999999996,0.7597767,0.21729349
-11.44639,0.30371884,-1.3070618,0.36815974,0.7549945,0.19921188
-11.73224,1.3218579,-1.8502678,0.38306487,0.62776005,0.17366026
-11.449637,0.958466,-2.7206080000000004,0.4150044,0.49042007,0.1795071
-11.125558999999999,-0.012152966999999999,-1.9965726000000001,0.46823692,0.27909559999999994,0.20240583
-10.853539,-0.28626034,-0.5699062,0.595454,0.11620402,0.12414527
-11.1226,0.76441115,0.053237467999999996,0.5757667,0.108210415,-0.07120943
-11.707502999999999,1.1101722,0.87114465,0.33248523,-0.3735179,-0.21546089999999998
-11.446669,2.1999169999999997,3.2956760000000003,0.06101671,-0.8882679,-0.39645153
-9.297825,1.4043525,4.0530577,0.15203562,-0.75466293,-0.5109102
-8.942563,-1.5368667999999999,3.5592203000000002,0.28298768,-0.072221726,-0.41402700000000003
-10.862349499999999,-2.906082,2.491349,0.3607072,0.43134066,-0.21385519
-12.230731,-1.2049825,1.4082694,0.5235988,0.40844196,-0.055222217000000004
-12.388078,0.0034380737,0.6911294,0.7136302,0.064577185,-0.021694442
-11.278184,0.2759078,0.5051382000000001,0.8424704,-0.37936476,-0.04670501
-9.624883,0.41446507,0.8318606,0.84618795,-0.4858473,-0.060021874
-8.530215,1.2484612,0.6884574,0.7615395,-0.3298672,-0.0062657319999999996
-7.8050976,1.970677,0.3988357,0.6263463,-0.21753784,0.056007615999999996
-7.6097402999999995,2.0199976000000004,0.2547718,0.48740065,-0.20636773,0.055484015
-7.4853570000000005,1.2973413,0.32478783,0.38732347,-0.28408724,-0.0009250244999999999
-7.22912,0.6033005,0.5077623,0.37028906,-0.18242182,-0.058433622000000005
-7.35606,0.27825412,0.43406877,0.37454766,-0.058904864,-0.087702796
-7.9046674,0.31458852,-0.007469909300000001,0.36390114,0.07202974,-0.071733035
-8.315427,0.6607039000000001,-0.59883773,0.34260812,0.066706486,-0.08609709
-8.583893,1.0071736999999998,-1.1232541999999999,0.32396802,-0.0030194195,-0.13402383
-8.986157,1.177114,-1.5476311000000003,0.25850073,-0.013665928,-0.16168729999999998
-9.420781,1.5848657,-1.3893648,0.10890854,0.05284857,-0.15744615
-10.108568,1.9997522,-0.6599186,-0.019355701,0.03741986,-0.1505172
-10.766716,1.6048908000000002,-0.17593552,-0.05503023,0.16144295,-0.18723892
-11.460287,-0.593513,-0.46714705,-0.075782195,0.38821357,-0.19416788
-11.636721000000001,-1.6386108,-1.8438035,-0.07632325,0.5356765,-0.14093533
-11.056155,-0.7401818,-3.6634061,-0.18011798,0.4153709,-0.12070697
-10.446582000000001,0.9253110999999999,-3.7101699999999997,-0.3861192,0.31529373,-0.15688765
-10.951385,2.1169243,-2.1280334,-0.5745624,0.24450317,-0.12390092
-12.298516000000001,1.0749488,1.8049694,-0.6666634,0.11568042,0.025673794
-14.480869,-0.5894333,5.6443596,-0.44841000000000003,0.17156586,0.3046123
-14.779848000000001,-3.174587,5.2754035,-0.23122121,-0.09297369,0.53403586
-10.024897,-0.5830264000000001,1.664564,-0.3962421,-0.33412582,0.48506190000000005
-8.116085,2.8273127000000002,1.6516543999999997,-0.5027072,-0.41397464,0.14172074
-8.772153999999999,3.2859461000000003,2.1531342999999996,-0.68795645,-0.026965337000000002,0.008098328
-10.7909355,0.89179224,1.7267078999999999,-0.7289542,0.18327703,-0.056286868
-11.099289,-1.6457741999999997,0.99266475,-0.7257428000000001,0.04860742,-0.00040142572999999997
-10.449427,-2.4062781,0.96481544,-0.62248915,-0.25747097,0.04909611
-9.023401,-1.5667465,1.3944789,-0.49684290000000003,-0.479983,-0.0099832835
-7.7946973,-1.1944098,1.8447516,-0.38027233,-0.38149408,-0.11325441
-7.4035896999999995,-1.22654,1.5699834,-0.2711369,-0.22020820000000002,-0.12548918
-7.6349463,-0.78196543,1.3173089,-0.19076449,-0.17123425,-0.06534512
-7.799283999999999,-0.37796783,0.87214065,-0.18172368,-0.100967295,0.012356931000000002
-7.985811999999999,-0.69391626,0.48139733,-0.2077989,0.033161256,0.04909611
-8.603516,-0.9764415999999999,0.39538804,-0.18757053,0.10555751599999999,0.032585297
-8.988033999999999,-0.44758165,-0.087445825,-0.1402023,0.0906524,0.050684362999999996
-9.062408,-0.32844618,-0.6455917,-0.077911496,0.11513937,0.079970986
-9.169352,-0.6192747,-1.0122301999999999,0.007784168199999999,0.17636552,0.114039816
-9.499752,-1.2434813,-0.8412649999999999,0.093479834,0.26258478,0.15447909
-9.866457,-1.4294245,-0.7175231,0.18771017,0.30358258,0.21038198
-10.358303,-1.3599448,-0.11890563,0.285117,0.27909559999999994,0.26680848
-10.64349,-0.8830869,-0.21581334,0.35857790000000006,0.37065557,0.32749358
-10.943655999999999,0.7079846,-1.0414298,0.3260973,0.5500404999999999,0.32642892
-10.885515,1.7900488,-2.2037284,0.26595327,0.5404760999999999,0.30726522
-11.03997,1.324367,-2.8228595000000003,0.27659976,0.29719466,0.28651324
-10.791281,0.32389718,-2.5598803,0.38465312,-0.038152896,0.34772193
-10.710624000000001,-0.1521946,-1.1395252,0.47834238,-0.19252726,0.34611624
-11.117236,0.4385986,-0.24512795,0.48048913,-0.010471975,0.25296799999999997
-11.276507,0.63036454,0.12952629999999998,0.40542254,-0.38789943,0.18908897
-11.538539,0.5496991999999999,2.1718092,0.21165608,-0.93991214,0.13479178
-10.112724,0.25616044,4.15054,0.239337,-1.1698766999999999,-0.0030717794
-8.642082,0.036966473,4.243981,0.47356018,-0.6402042,-0.1590344
-10.234675,-1.1494372,3.345217,0.63432246,-0.015254176999999999,-0.23355997
-12.0221,-0.72258925,2.0744705000000003,0.71630055,0.08958775,-0.13295919
-11.512586,0.44412443,1.331655,0.83767074,-0.1052259,-0.04618141
-10.594610000000001,1.2110542,1.1024916,0.9436123,-0.15845844,-0.07119198
-9.728647,1.1675659999999999,0.7673225,0.99843305,-0.24043655,-0.0946143
-9.211902,0.6237853,0.70567656,1.0218554,-0.2223375,-0.072797686
-8.658851,0.7164313,0.71068525,0.9686228000000001,-0.16111134,-0.0137008345
-7.9208717,1.354582,0.45070368,0.8680046,-0.14994124,0.008098328
-7.726453,1.3703261999999998,0.339335,0.80573124,-0.19039796,0.0011868239
-7.491716,0.89621675,0.4348349,0.7833736,-0.23511331,-0.041381758
-7.4894175999999995,0.50762826,0.254858,0.79082614,-0.17388715,-0.07012733
-7.8463544999999995,0.8332396000000001,0.02555092,0.8259595999999999,-0.06689847,-0.08079129
-8.473051,1.3662846000000002,-0.43663535,0.8185071,-0.0376293,-0.0983493
-8.639294999999999,1.7141238,-1.0548948999999999,0.7631452,-0.06689847,-0.14306463
-8.596506,1.4949968999999999,-1.653723,0.6604151,-0.042411502000000004,-0.19097392
-8.708765,1.5324422,-1.9789703999999997,0.5204048,0.052866023,-0.21757275
-8.813286,2.010277,-2.305693,0.36603045,0.109292515,-0.21439624
-9.338305,2.7513973999999997,-2.0088692,0.18345156,0.15879005,-0.2356718
-10.725726,3.1911836,-0.8232702,-0.0039269909999999995,0.0070685832999999995,-0.2867925
-12.103705,1.7828853999999998,-0.18993682,-0.18757053,-0.08445648,-0.32138494
-12.020004,0.6593344,-0.6653104000000001,-0.335557,0.013473942,-0.24099506
-11.157888999999999,0.46361320000000006,-1.7621133000000002,-0.39891246,0.22799236,-0.17393951
-10.889662,1.116627,-2.728681,-0.48780206,0.40153044,-0.16594589999999998
-11.636280000000001,2.0254084999999997,-1.502783,-0.4675737,0.48989648,-0.11803662
-13.002345,0.44661438,-0.008169016,-0.4569272,0.33126348,-0.048851766
-13.62294,-0.3665906,2.7042606,-0.3941128,-0.047734755999999996,0.03312635
-12.995573,-1.4948436999999999,4.068036,-0.29510027,-0.34423128,0.056007615999999996
-10.804217,-0.6613168,3.2154032999999997,-0.34726816,-0.7605272,0.04855506
-8.448247,2.3746746,2.1693667999999997,-0.53251743,-0.63383377,0.008639379
-8.866007000000002,2.8812208,2.0772765,-0.7832514,-0.19146262,0.03577925
-10.708173,0.6655115,1.9507955000000001,-0.93921405,0.06297148,0.020874137
-11.376491,-1.9573460999999999,1.3118501,-0.92537355,-0.103620194,0.037384953
-9.878552,-1.7712878,1.4806988,-0.8295549999999999,-0.21008529,0.051749012999999996
-8.700807000000001,-0.9755988999999999,1.3920273,-0.72254884,-0.19624482,0.018221237
-7.9053288,-1.2498403999999999,1.4942021,-0.62833595,-0.14088298,-0.037664205
-7.332309700000001,-1.3917494,1.492009,-0.533041,-0.034958944,-0.014765485
-7.031128999999999,-0.38552392,0.87812614,-0.5016425,0.033702306,-0.010506882
-7.1759973,-0.5633461,0.6888310000000001,-0.40208894,-0.048799407,-0.05681047
-7.856266499999999,-0.59107095,0.5343091999999999,-0.41168827,-0.038152896,-0.01850049
-8.271114,-1.092139,0.42285433,-0.39252454,-0.032829642,0.020333085
-8.747245,-1.2444295,0.6369821999999999,-0.34088024,0.027838001,0.050684362999999996
-9.198935,-1.1422736999999998,0.45329902,-0.23493877,0.0970403,0.07464773
-9.569405,-1.2395548,0.05952943,-0.12795009,0.100234255,0.12733923
-9.493958000000001,-1.4648492,-0.12392388,-0.008709193,0.19924679999999997,0.18324211
-9.600337,-1.8537824,-0.23588632,0.13447762,0.35096827,0.21092305
-10.101337,-1.8062911,-0.38093665,0.27766442,0.44146359999999996,0.23647466
-10.859611,-1.4768968999999998,-0.3725378,0.43577382,0.3898193,0.26415557
-11.044939999999999,0.06511271,-1.1224976,0.5156225999999999,0.40472440000000004,0.2838429
-11.405047,0.81804127,-2.073963,0.46397832,0.4499808,0.26309094
-11.392522,0.5417025,-2.6588182000000002,0.45226717,0.34032175,0.2795843
-11.211682000000001,-0.5869146,-1.5581943,0.5054997,0.024644048999999998,0.2944894
-11.895304,-0.24022463,0.70507324,0.44961426,0.043807764000000006,0.1662077
-12.601449,1.1737046999999998,1.2221921999999998,0.34314920000000004,0.10822786400000001,-0.011571533
-12.323894500000002,1.8683679,2.0396683,0.14618878,-0.34423128,-0.13454743
-9.443296,1.4250767,3.186673,0.108384944,-0.6625619,-0.25059438
-7.687379400000001,-0.45088565,3.8780417000000003,0.23774876,-0.29951596,-0.3485248
-10.207372,-2.3817232,3.623318,0.48048913,0.10183996,-0.39219293
-12.77952,-1.6977572,2.538955,0.64071035,0.14547320000000002,-0.28998646
-12.485206,0.062038555999999995,1.3046387,0.7045894,-0.038676497000000004,-0.11431906
-11.226028,1.263315,0.87862414,0.6726499,-0.19997983,0.013962634
-9.98522,1.600543,0.8278958000000001,0.59973,-0.28461084,0.09913469999999999
-8.691163000000001,1.5298088,0.6915986999999999,0.51721084,-0.24043655,0.13585643
-7.8787335999999994,1.36232,0.6267254,0.42352159999999994,-0.18613936,0.14543828
-7.2024193,1.3351601,0.60144264,0.32876766,-0.19678587,0.12149237
-7.073726700000001,1.1929923999999998,0.5219647,0.2648886,-0.21221459,0.08689994
-6.9650490000000005,0.8247163000000001,0.6496044,0.23455479999999998,-0.21327923,0.012897983
-6.8583727,0.32790986,0.748801,0.25956535,-0.18772762,-0.07332128
-7.4023447,0.48585054,0.6239481,0.3037571,0.0251851,-0.14891149
-8.242863999999999,0.8544235000000001,-0.18444929999999998,0.3165329,0.15187855,-0.18830357
-8.89376,0.6947686,-0.9789125,0.29096383,0.08319984400000001,-0.20853193
-9.049699,0.60626936,-1.3307452,0.21111503,0.047001716,-0.24846508
-9.337712,1.1678723999999998,-1.6280763,0.07325147,0.19020598,-0.27508134
-9.965508999999999,2.2176150000000003,-1.6355175,-0.07152359,0.33073990000000003,-0.28412214
-10.873459,2.762248,-0.81519693,-0.19874065,0.22746876,-0.3059562
-11.189224000000001,1.2864906999999999,-0.75049603,-0.26902506,0.17263052,-0.32032028
-11.299186,-0.7262188,-0.90804404,-0.27913052,0.3855607,-0.23088960000000003
-11.325178,-1.2180452,-2.3842323,-0.268484,0.51492447,-0.1483879
-10.793952,-0.19215862,-3.8206959000000005,-0.3845135,0.36852628,-0.15849335
-10.804267,1.5653003,-3.350532,-0.5309116999999999,0.33871606,-0.16275196
-12.11036,1.8754834999999999,-0.36445495,-0.5974611,0.16624261,-0.0323235
-12.845409,-0.10915644,3.5747252,-0.5394289000000001,-0.09032079,0.19228293
-13.866660999999999,-2.1491599999999997,6.446301999999999,-0.3334277,-0.027506389,0.5297772
-12.950841,-2.3748662,5.455878,-0.09388126,-0.34264305,0.7304725999999999
-9.178889999999999,1.3333788,2.3825564,-0.25251424,-0.28461084,0.48399726
-9.111680999999999,3.0241544,2.2056153,-0.3797313,-0.06263987,0.14437364
-10.938189,1.8956236000000002,1.6274825000000002,-0.51228905,0.07255334,-0.060021874
-11.242951,-0.38452795,0.76260114,-0.5958554,-0.058381262999999996,-0.049898963
-10.081332000000002,-1.3517758999999998,0.8969636999999999,-0.57936203,-0.22446679999999997,0.039514255
-8.671769,-1.2042834999999998,1.0533626,-0.47715557,-0.33944908,-0.00572468
-7.4702253,-1.0112341999999999,1.2369021,-0.33875096,-0.3330612,-0.12335987400000001
-6.816455,-1.3108829,1.1910962,-0.21258110000000002,-0.17336355,-0.18510962
-7.0047545,-1.3123577,0.9014457,-0.10292207,-0.059445914,-0.15210545
-7.394645,-0.47774859999999997,0.54993856,-0.05927138,-0.042411502000000004,-0.039252456
-7.554347999999999,-0.022448035,0.30400616,-0.10239847,0.06244788,0.052290063
-7.922787,-0.09145851,-0.041582495,-0.16043067,0.16837192,0.06452482
-8.426508,-0.4060853,-0.08473559,-0.1540253,0.18966493,0.042184606
-9.044402999999999,-0.5379196999999999,-0.043344627999999996,-0.07204719,0.16252506,0.062412973
-9.639649,-1.1581615,0.09265561,0.07592182,0.19072957,0.14756759
-10.194395,-2.2638996,-0.039379828,0.21165608,0.20031144,0.21464059
-9.954324,-1.9870917000000001,-0.7481689,0.3016278,0.18381807,0.20401153
-9.9403515,-0.28154856,-1.3718967,0.32716197,0.2556733,0.12255702
-11.357489999999999,0.75096536,-1.8099878,0.30534536,0.39088395,0.06771877400000001
-12.756881,1.4042567,-2.1569936000000003,0.25797713,0.3291342,0.08155923
-12.75963,1.0980864,-2.7181563,0.21485002,0.06084218,0.15130259
-11.689978,0.14082696,-2.6775794,0.21219712,-0.14355333,0.21889919
-10.549380000000001,-0.36615005,-1.5324233,0.28459337,-0.31442106,0.22635175
-10.92298,0.6069972,0.5052053,0.3500607,-0.20104447,0.055466562999999997
-11.607837,2.0535357,1.0445136000000002,0.23453735,-0.047734755999999996,-0.14039429
-12.180089,1.5808722,1.8898871,-0.05607743,-0.42036256,-0.23301889999999997
-10.116872,1.3398528,3.217127,-0.24506168,-0.6859841999999999,-0.38739327
-8.003079,0.105593875,3.5945682999999997,-0.20619320000000002,-0.42462116,-0.45978954
-9.0460415,-2.237142,3.4621593999999996,0.017889624,-0.030159289,-0.46883035
-11.659044,-2.7396083,3.2051659,0.23827235,0.13536774,-0.32510248
-12.166269,-1.2767129,2.1068687,0.47090727,0.049131017,-0.14730579
-11.442761,-0.17905755,1.4804882,0.6332578000000001,-0.15472344,-0.05576327
-10.371107,0.3705075,1.1941224,0.70832443,-0.27928758,0.0075747290000000005
-9.175509,0.6300581000000001,0.93308747,0.71364766,-0.25480062,0.05920157
-7.9960303,0.7525934,0.69210625,0.6657384,-0.18401006,0.09114109
-7.0992484,1.2044559,0.48828307,0.5944068,-0.12704252,0.079970986
-6.822622999999999,1.2895361,0.3446597,0.5092346999999999,-0.10149089,0.050160762000000005
-6.941155,0.9886521,0.47996083,0.45387286,-0.08019788,0.0038397241999999997
-6.859560000000001,0.5571595,0.60148096,0.44109705,-0.09616764,-0.05893977
-6.9724803,0.5838213000000001,0.3971406,0.43629742,0.023055799999999998,-0.11006046
-7.709492,1.0191351,-0.20716548,0.4384267,0.19179423,-0.1563815
-8.655663,1.0622402,-1.126855,0.39955822,0.25406757,-0.17181021
-9.364230000000001,1.0232434000000001,-1.7705122,0.31918582,0.22108085,-0.18777998
-9.881578999999999,1.6483216,-1.9466583999999998,0.20846212,0.079482295,-0.20694369
-9.963384,2.5417612000000003,-1.9751111000000001,0.06738716,0.11355112,-0.24633577
-10.732794,1.983395,-0.9479698000000001,-0.031590457999999995,0.119397976,-0.25909412
-11.553221,0.30198544,-0.73456985,-0.11836823,0.23492132,-0.20533799
-11.960417,-0.5538651,-1.5009633,-0.18385299,0.38662532,-0.0967436
-11.65845,-0.041228153,-2.6942717999999997,-0.19608775,0.40791836,-0.039252456
-12.207125,1.0117513,-2.3925834,-0.23015657,0.34084535,-0.013177236
-13.770729000000001,0.33837733,0.08683291,-0.22909191,0.24769713,0.11245156
-14.413448,-0.5336293000000001,3.2764652,-0.21205749999999998,-0.025377087000000003,0.3136531
-13.599573000000001,-2.026079,4.4608192,-0.14337879999999997,-0.11800171,0.50370204
-10.642906,-1.1160043,3.5683854,-0.11677998,-0.29312804,0.5888741
-8.522592,2.1341723999999997,2.3358312000000003,-0.18224728,-0.24895376,0.45366344
-9.547253,2.6141715,2.3922098,-0.34407422,-0.103620194,0.28757790000000005
-11.048714,0.9635321,2.2436542999999998,-0.55913365,-0.04187045,0.08955284
-10.978019,-0.49428773,1.350119,-0.6852861,-0.09616764,0.027262043
-9.646459,-0.66254264,1.3218675,-0.69647366,-0.33944908,0.034191
-8.027078,-0.63840914,1.5018731,-0.64856434,-0.44804347,-0.05682792
-7.083916,-0.9920709999999999,1.5271367,-0.5724331,-0.31815606,-0.14519393
-6.7380877,-1.3630285,1.3404559999999999,-0.49471357,-0.19624482,-0.15158184
-7.0287538,-1.4872589,1.0392271,-0.4005007,-0.12438962,-0.07970919
-7.4833455,-0.8202822,0.76860577,-0.32171655,-0.09245009,0.0054454273
-7.805403699999999,-0.2518221,0.27246013,-0.29881779999999997,-0.034958944,0.07623598
-8.035602,-0.3828999,-0.10648451,-0.32011083,0.05126032,0.09700539999999999
-8.388525999999999,-0.47468403,-0.38595490000000005,-0.35524429999999996,0.13697344,0.107651904
-8.958221,-0.59852165,-0.37353379999999997,-0.29777062,0.19127063,0.15714945
-9.145966,-1.1529709,-0.61195797,-0.18329448,0.26686084,0.22211060000000002
-9.506359,-1.9624122,-0.6149650999999999,-0.039043017,0.22373375,0.22741639999999996
-10.121278,-2.3563063,-0.51766473,0.10625564,0.14336134,0.21518165
-11.013577,-1.8604096,-0.41427349999999996,0.20261528,0.19924679999999997,0.22369885
-11.399609,0.0047405194,-1.1187626,0.24520129999999998,0.3333928,0.23860396
-11.643597,1.5502839,-2.0754473,0.23614305,0.35362116,0.22104596
-11.642821000000001,0.9216049000000001,-2.6392434,0.24359560000000002,0.22533946,0.23593360000000002
-11.339313,-0.4090446,-2.4156156,0.32344443,0.054995324000000005,0.2870543
-11.816564,-0.76314706,0.5241291,0.40170497,-0.2872812,0.22530456
-12.362432,1.224998,1.8312674999999998,0.27075294,-0.025900686000000003,-0.0344528
-12.33825,2.3358404999999998,2.642423,0.013107423,-0.41610396,-0.31712633
-10.242241,2.6611936000000003,3.8000865,-0.2770012,-0.72750556,-0.5944590999999999
-7.665592,0.36231935,3.1544566,-0.32649875,-0.30112165,-0.64823276
-9.817788,-1.9087342,3.1674235,-0.19874065,0.08267625,-0.5678603
-13.002182000000001,-1.8172468999999998,2.6334877,-0.12899728,0.028902652,-0.32564354
-12.647475,-0.7304421999999999,1.9724389999999998,0.0045727626,-0.102031946,-0.0983493
-11.374938,-0.53989244,1.8674103,0.14990632,-0.33145547,0.018744836
-9.836176,-0.22762156,1.8860755,0.24678956,-0.42514476,0.09168214
-8.329417999999999,0.3018514,1.402782,0.3255737,-0.26864108,0.13798574
-7.3289385,0.6697923000000001,0.86614555,0.32876766,-0.15046483,0.14172074
-6.8281198000000005,1.0636671999999998,0.51539505,0.27127653,-0.07061602,0.14172074
-6.7386436000000005,0.9354720999999999,0.17136739,0.21910863,-0.10735519999999998,0.084753186
-6.799246000000001,0.27993006,0.35410240000000004,0.20207421,-0.1643053,-0.0030543262
-6.825112299999999,-0.2861933,0.5555026999999999,0.2494599,-0.18720402,-0.1031315
-7.109706399999999,-0.2772677,0.56211066,0.29044023,-0.14727089,-0.21224949
-7.405150999999999,0.34970668,-0.036276944,0.27447048,-0.01844813,-0.33044317
-8.110905,0.9416683000000001,-1.102233,0.1892984,0.17475982,-0.4150742
-9.052544000000001,1.4846636,-1.4392312,0.08550368,0.22746876,-0.39430478
-9.658966,1.957164,-1.9003737,-0.09440486,0.26792550000000004,-0.34428364
-10.773305,1.7936497999999998,-1.5092568000000002,-0.28710666,0.27057838,-0.30754447
-11.9755,1.3219727,-0.7943004,-0.42976987,0.18860027,-0.25377086
-12.2491,0.100163825,-1.0948781,-0.53410566,0.30358258,-0.163293
-11.810224,-0.62359375,-2.0643575000000003,-0.5830795999999999,0.40526545,-0.07918559
-11.463898,-0.084754735,-2.7557259999999997,-0.6506761999999999,0.32381094,-0.076515235
-12.481672999999999,0.5092084,-0.383417,-0.6427,0.09171705,-0.021694442
-14.490638,-1.2291353,2.9868815,-0.48247883,0.14336134,0.20081758
-16.105938000000002,-1.8287678,6.2982059999999995,-0.20193459,0.053930674000000005,0.5026374
-14.025529999999998,-2.6006392999999997,5.4842734,-0.0044505894,-0.21647319,0.6745696999999999
-8.164563000000001,0.40153635,2.574897,-0.079499744,-0.36180675,0.464851
-7.6477889999999995,3.3033376000000003,2.6064525,-0.2706133,-0.12704252,0.23540999999999998
-9.858787,2.4769645000000002,2.5555133999999997,-0.47822022,0.04061381,0.08157669
-11.559398,-0.21126436,1.6955832,-0.6453704,-0.05625196,0.041643556
-10.692486,-1.3757371,1.5868098999999998,-0.6661224,-0.21966714,0.08742354
-8.755469999999999,-1.0543299,1.9157061999999998,-0.5250648,-0.35861279999999995,0.04696681
-7.210933,-0.77838373,1.6638168999999998,-0.42231733,-0.32293826,-0.08609709
-6.593124,-1.4116978999999998,1.4672433999999999,-0.36749652,-0.14940019,-0.16968091
-7.0349784,-1.7729542,1.3049262,-0.28284806,0.0017627826,-0.16968091
-8.063566,-1.06745,0.8518378000000001,-0.19662879999999996,0.042743113,-0.06054547
-8.1097355,-0.34487998,0.44558966,-0.13166764,-0.025900686000000003,0.05921902
-7.762232000000001,-0.38231570000000004,0.4557602,-0.10452777,0.0022863813,0.10180505
-7.8312135,-0.7162398,0.38224867,-0.0800408,0.11142181599999999,0.09700539999999999
-8.3292465,-0.8228009,0.3431657,-0.037454765,0.19339994,0.10658725
-8.324763,-0.81431586,-0.061665057999999995,0.03281219,0.30251792,0.15130259
-8.571711,-1.1323233999999998,-0.69647324,0.08922123,0.40100685,0.17844246
-9.830181,-1.737884,-0.51859367,0.19462167,0.32541662,0.20134118
-10.657625999999999,-2.083262,-0.23053289999999999,0.34101987,0.2013761,0.23647466
-10.989730999999999,-1.6114128,-0.38931635,0.44003242,0.30199432,0.24979152
-11.164144,0.31930992,-1.2872281,0.45865506,0.44572219999999996,0.23062779999999997
-11.417564,1.488456,-2.1960382000000003,0.41128683,0.36213836,0.18217747
-11.449436,0.9439571,-2.7366493,0.36124825,0.25408503,0.17153096
-11.662616,-0.19268535,-1.6704538,0.3687008,0.0922581,0.23062779999999997
-12.524548,0.42467391,0.5719748,0.34580207,0.028902652,0.14863224
-13.1020775,1.5263035,1.3692535,0.20048597,0.03741986,-0.08929104
-12.123481,2.0189154,2.3430998,-0.047560222,-0.42727405,-0.32723179999999996
-9.427352,1.537269,3.5110009,-0.14924310000000002,-0.6508507,-0.5034402
-7.4980364,-0.75883746,3.5562803999999995,-0.077911496,-0.2856755,-0.5220629
-9.795187,-2.8554015,3.6277997,0.13234831,0.045413468,-0.4848001
-12.644641,-2.1851208,3.0342388,0.2978928,0.16517796,-0.29742154
-12.357692,-0.15048036,1.6626964,0.41980404,0.10238101,-0.080232784
