accx,accy,accz,gyrx,gyry,gyrz
6.9046173,0.3183136,-0.577713,0.43359375,-0.50894165,-0.62138367
7.8383636,-0.3496704,-0.015075683999999999,0.36434937,-0.15527344,-0.989975
8.039474499999999,0.07171631,0.7726288,0.38352966,-0.16804504,-1.1124725
9.037857,-0.48373413,-0.046188354,0.10122681,-0.76246643,-0.86639404
12.214966,-1.0176544,0.29617309999999997,-0.01914978,-0.43756104,-0.55960083
14.8414,-1.4414215,2.0559081999999997,-0.18852234,0.35818479999999997,-0.38916016
15.123917,-3.3543854,1.1078033,-0.27053833,0.34114075,-0.09727478
16.095963,-2.76062,-1.6981964,-0.10223389,0.13874817,-0.065322876
15.851760999999998,0.49787903,0.9521941999999999,0.07992554,-0.16485596,0.23188782
14.262008999999999,0.22254944,7.8355103,0.19390869,-0.30227659999999995,0.6047363
8.527892999999999,-1.8651886000000002,7.892975,0.27380370000000004,-0.19680786,0.63349915
5.0993958,0.17227173,2.841217,0.30149840000000006,-0.08177185,0.47370909999999994
11.360229499999999,2.2360687,3.5738373,0.2418518,0.031158447000000002,0.35440063
17.26912,0.4332428,5.9752197,0.24929810000000002,0.24420166,0.38102722
16.445510000000002,-2.427826,5.079788,0.29830933,0.43914795,0.39167786
11.192642,-1.2881927,4.4932099999999995,0.38139343,0.3805542,0.24893188
9.657959,-0.69203186,2.8220520000000002,0.49430847,0.13342285,0.061447144
8.705063,-1.3049469,1.6321411,0.5720824999999999,0.2548523,0.008178711
6.7633667,-1.3025513000000002,1.2586517,0.53479004,0.53822327,-0.04081726
5.025176999999999,-0.81414795,1.105423,0.3622284,-0.24688720000000003,-0.1260376
4.0339813,-0.31375122,1.2754059,0.375,-0.8072052,-0.061050415
4.038757299999999,-0.35446167,1.158081,0.25250244,-0.33210754,0.09660339
4.239868,-1.0822906,1.026413,-0.14485168,-0.23410034,0.39913940000000003
4.7833557,-1.8460387999999999,0.82528687,-0.26841736,-0.51213074,0.61112976
5.911026000000001,-1.4821167,0.023239136,0.047973632999999995,0.08654785,0.43855286
8.678726,-0.38796997,0.39912415,0.23864746,0.41677856,0.5344238
9.844696,-0.9434203999999999,2.3288574,0.3622284,-0.77311707,0.88383484
8.080169999999999,-0.82850647,0.916275,0.39311218,-0.9701995999999999,1.1171265
11.235733,-0.24911499,-1.7867737000000001,0.37287903,-0.16059875,0.73150635
15.073639000000002,0.30635070000000003,-2.1100006000000002,0.14170837,0.15258789,0.122161865
17.429535,-0.8309021000000001,-2.1938019,-0.21728516,-0.12437439,-0.22723389
17.33377,-3.1963654,-2.4810944,-0.41648865,-0.051940917999999996,-0.36679077
15.083221,-4.71669,3.5403137000000005,-0.45803833,-0.08282471,-0.56811523
10.773651,-0.8332976999999999,11.407669,-0.37387085,-0.059387207000000004,-0.5851593
6.4233856,2.0325623,5.8243865999999995,-0.24816895,0.017303467,-0.4466858
8.049057000000001,0.79714966,1.2490691999999999,-0.18106079,0.13661194,-0.35507202
14.953934,-2.7725983,3.6935425000000004,-0.24604797,0.3027954,-0.38383484
18.083145000000002,-2.2410889,4.031128,-0.38986206,0.4774933,-0.32949829999999997
14.975479,0.29916382,1.9050751,-0.52407837,0.55526733,-0.084487915
12.643524000000001,-0.52204895,1.5770721,-0.63487244,0.49880979999999997,0.10939026
10.582123,-0.79019165,1.4094848999999998,-0.75737,0.46151733,0.07849121
7.982010000000001,-0.5747223000000001,1.2706146,-0.8319397,0.5222473,0.0018005370999999999
6.1696014,-0.86920166,1.3113098,-0.8862610000000001,0.247406,0.09446716
4.6756134000000005,-1.0511627000000001,0.7486725000000001,-0.9672241,-0.36299133,0.17863464
3.428238,-0.6441498000000001,0.44700623,-0.74246216,-0.16804504,0.098739624
2.8488464,0.37098694,0.5523529,-0.22793579,0.062042235999999994,0.035888672
3.7275237999999997,1.0126343,0.36082458,0.16940308,-0.31399536,-0.107925415
5.7745667,0.7013855,-0.108444214,0.09378052,-0.53770447,-0.62031555
7.1033479999999996,0.11001587,-0.017471313,-0.24072266,-0.08602905,-0.9441681000000001
7.4864197,-0.1844635,1.1700591999999999,-0.18852234,0.18562317,-0.90901184
7.7306213,-0.625,1.1461181999999999,-0.13418579,-0.39707947,-0.88664246
10.469589,-0.68963623,0.45658875,0.13745117,0.05885315,-0.94522095
14.283554,-0.8309021000000001,1.6273499,0.3984375,0.4551239,-0.8919678
15.171798999999998,-3.2921447999999995,0.24829102,0.07141113,0.2548523,-0.4243164000000001
16.347351,-2.6313477,-3.455536,0.03944397,0.0023956299,0.05293274
15.715285999999999,1.0102386,-4.2791443,0.034118652,-0.2554016,0.22869873
13.919632,3.3230437999999993,2.4964447,0.043701172,-0.42372129999999997,0.48542786
11.209396,-0.29460144,8.448425,0.10017395,-0.48017883,0.63775635
8.039474499999999,-3.8404083,6.6934814,0.23652649,-0.5025482,0.5940857
9.478394,-4.3623505,5.6927031999999995,0.43572998,-0.41625977,0.5472107
13.005051,-0.01687622,5.450897,0.69885254,-0.17231749999999998,0.5418854000000001
14.839004500000001,3.3350067,6.0494385,0.9225464,0.153656,0.46092224
13.447982999999999,0.18423462,4.732635500000001,1.0557098,0.40505979999999997,0.32670593
12.016235,-0.7662505999999999,3.4636992999999996,1.2080383,0.49028015,0.17436218
10.565353,-1.5443726,2.5299682999999997,1.3145752,0.48709106,0.009246826
8.264526,-2.1453247,2.0415497,1.2421265,0.49453735,-0.07597351
6.4617004,-2.08786,1.8547973999999998,0.93107605,0.31558228,-0.14733887
5.4465485000000005,-1.8604126,1.6943816999999999,0.7435913000000001,-0.49615479999999995,-0.046142578
5.140091,-1.7694244,1.3663788000000001,0.67541504,-0.5664673000000001,0.110458374
4.8168793,-1.5156403,0.5810852,0.32279968,-0.2820282,0.23295593
4.4697265999999996,-1.4629669,-0.012680054,-0.011688232,-0.18508911,0.33096313
5.0826416,-1.5371857,-0.39814758,-0.029800415,0.13874817,0.3330841
6.5454865,-0.9290619000000001,-0.76205444,0.040512085,0.6596526999999999,0.4076538
8.216644,-0.07672119,0.037597656,-0.1309967,0.010910033999999999,0.69314575
7.139251700000001,1.1347351,1.8619843,3.0517577999999997e-05,-0.9755249,0.96266174
8.719421,0.26324463,0.49249268,0.24824524,-0.38110352,1.0734558
12.179047,-0.6345824999999999,-1.4707489,0.4644928,0.39334106,0.83909607
15.064055999999999,0.24888611,-2.6965790000000003,0.17900085,0.33474729999999997,0.24786377
18.473404000000002,-0.51246643,-3.7117157,-0.26734924,0.13874817,-0.05999756
18.667328,-3.0335693,-1.8442383000000002,-0.46122742,-0.045547485,-0.26239014
15.217285,-2.2506561,5.1516113,-0.41009520000000005,-0.24156189,-0.4935608
9.844696,1.457962,8.611237,-0.28225708,-0.14355469,-0.6192626999999999
6.171997,1.2137451000000001,3.600174,-0.23219299999999998,-0.057266235,-0.51060486
8.808014,-3.2155304,3.1021729,-0.29824829999999997,0.118499756,-0.39234924
16.30426,-4.2593994,4.457290599999999,-0.49531555,0.39334106,-0.36891174
16.874084,-0.23953247,2.6089783,-0.68600464,0.5946808000000001,-0.31565857
13.447982999999999,1.0940398999999998,2.204361,-0.7477875,0.6490021,-0.1494751
11.013077000000001,-1.2570648000000002,2.5131989,-0.7903899999999999,0.63835144,-0.03656006
9.648375999999999,-1.4581757,1.9601439999999999,-0.8575134,0.65327454,-0.039749146
7.156006,-0.56274414,1.6560822,-0.8095703000000001,0.5669860999999999,0.02949524
5.5423279999999995,-0.17967224,1.105423,-0.8085022,0.043930054,0.16052246
4.4481660000000005,-0.21080017,0.3249054,-0.9533844000000001,-0.31932068,0.10192871
3.63414,0.12199402,0.16448975,-0.8180847,-0.11691284,-0.05039978
3.6389312999999994,0.5888671999999999,0.1405487,-0.34298706,-0.16592407,-0.049331665
5.171219000000001,0.6128081999999999,-0.098861694,0.18965149,-0.5749816999999999,-0.09194946
7.3714905,0.019042969,-0.49870299999999995,0.41868590000000006,-0.56539917,-0.61286926
8.350723,-0.23474121,0.14294434,0.5102997,0.083343506,-1.0655975
8.290863,-0.3209381,1.1221771,0.48898315,-0.39068604,-1.1316528000000001
8.417755,-0.6656951999999999,0.0016937256,0.21627808,-0.83703613,-0.9558716
11.147140499999999,-0.44543457,0.24110413,-0.01701355,-0.10093689,-0.81207275
13.596420000000002,-0.5771179,1.5579223999999998,-0.21728516,0.54248047,-0.47863770000000005
14.118347,-2.9785004,0.64572144,-0.051101685,0.31665040000000005,-0.20806885
16.464676,-3.229889,-1.2145691,0.27061462,0.12277222,-0.055725098
17.182938,-1.0056763000000002,1.2778015,0.48258972,-0.024246216,0.3565216
13.804718,-1.5611267,8.434067,0.57740784,-0.11053467,0.5717163000000001
7.8647003,-2.7127380000000003,6.6934814,0.6466522,-0.12223816,0.566391
7.342758,0.48112488,1.7566376,0.7478484999999999,-0.09135437,0.47796629999999996
13.390518,3.0764313,4.581802400000001,0.84265137,0.031158447000000002,0.47477722
17.558823,-0.37600708,7.2321777,0.947052,0.2559204,0.5706482
14.422409,-3.0886383,5.520324700000001,0.9662323,0.40612793,0.39700317
10.584503,-1.9011078000000001,4.3854675,0.91082764,0.40505979999999997,0.13069153
10.060181,-0.94821167,3.042328,0.9715575999999999,0.06843567,-0.072769165
8.506348,-1.2905883999999999,2.1540833,0.93852234,-0.092422485,-0.15480042
6.4736633,-1.2810059,1.8117064999999999,0.6786041,-0.19361877,-0.16226196
4.7187195,-1.4078979999999999,1.4142609,0.49325562,-0.54196167,-0.09194946
3.79216,-1.7622375,1.2179413000000001,0.35583496,-0.30441284,-0.08129883
4.7737885,-1.6377411,0.7175598000000001,0.05329895,-0.06791687,-0.01737976
5.2143097,-1.0870819,0.12619019,-0.086257935,-0.15527344,0.37570190000000003
5.211914,-0.77104187,0.58348083,-0.039382935,-0.09135437,0.7655945
5.5088042999999995,-1.0487671,-0.09169006,0.024536132999999998,0.30386353,0.5344238
6.8663177,-0.34248352,-0.62319946,-0.15229797,0.6404877,0.34480286
7.2685394,1.0054474,0.521225,-0.27374268,-0.25221252,0.72084045
8.922928,0.85461426,0.071121216,-0.17999268,-0.88816833,1.0862273999999998
12.78717,0.22494507,-0.28800964,-0.0052948,-0.025299072000000002,1.093689
15.025757,0.57928467,-1.2145691,-0.09690857,0.58935547,0.76345825
16.565231,-1.2139739999999999,-2.8426207999999997,-0.66682434,0.3805542,0.13282776
17.197295999999998,-4.024765,-3.400467,-0.9065094000000001,0.2836151,-0.42111206
17.1949,-4.3862915000000005,0.4517975,-0.87561035,0.10784912,-0.68637085
13.273193,0.3973236,8.086914,-0.6891937,-0.08815002400000001,-0.8227234
7.2517853,2.6143494,8.199432,-0.49745178,-0.045547485,-0.68955994
5.302902,1.1898041000000001,2.5347595000000003,-0.37600708,0.040740967,-0.50527954
11.355438000000001,-2.226715,3.8252258,-0.39837646,0.17283629999999997,-0.42111206
17.951462,-2.4781036,4.3136444,-0.5496521,0.38375854,-0.33270264
16.373688,0.56970215,3.0399323,-0.7296753,0.6170502,-0.10473633
11.697815,-0.95539856,2.7095337,-0.8692169,0.7438201999999999,0.08807373
10.838303,-2.178833,2.6879882999999998,-0.9949188,0.6553955,0.17224121
8.55423,-1.3097382,1.6464995999999998,-0.97042847,0.4316864,0.21272278
6.2534027000000005,-0.81414795,1.244278,-0.84365845,-0.1531372,0.27236938
4.740265,-0.79737854,0.93782043,-0.74139404,-0.7464905,0.08062744
3.7394867,-0.52923584,0.5619354,-0.54751587,-0.32145690000000005,-0.11325073
3.4497833,0.22015381,0.2052002,-0.24072266,0.06417847,-0.17823792
4.218322799999999,0.9216614,0.032806396,0.026657103999999997,-0.22451782,-0.37211609999999995
5.585418700000001,0.98150635,-0.08929443,0.12786865,-0.50787354,-0.63842773
7.1536255,-0.08390808,0.5882721,0.19711304,-0.0029296875,-0.7982178000000001
7.1607970000000005,-1.3265076,1.802124,0.46661377,0.052459717,-0.9569397
7.598938,-2.3560027999999997,0.50686646,0.43040466,-0.76885986,-1.1007538000000001
10.574936,-2.0303955,-0.4125061,0.18965149,-0.8306427,-0.78863525
13.866959,-2.1524963,1.0048523,0.26315308,-0.13502502,-0.5904999
16.234833,-2.5906372,1.1221771,0.19604492,0.3262329,-0.35932922
17.252365,-1.644928,-1.3749847,0.23013306,0.1302185,0.058258057
15.856537,0.552948,-2.5816498,0.29937744,0.041809082000000004,0.26065063
14.783935999999999,1.0892487,3.5235595999999996,0.25143433,-0.09454346,0.46305847
12.94519,-2.42305,8.515472,0.094833374,-0.10733032,0.5280304
6.8064575,-3.2322845,4.873886,-0.0031585693,0.0002593994,0.37463379999999996
5.4106445,-0.45739746,2.5922089,-0.08518982,0.19839478,0.16477966
12.4879,1.33107,5.189926,-0.13418579,0.41145325,0.032684326
17.441498,-0.05757141,6.5426483,-0.0287323,0.5467377,-0.01737976
14.628310999999998,-1.7742156999999998,4.514755200000001,0.13105774,0.5243683000000001,-0.028030396000000003
11.175873,-0.9793396000000001,3.8850860000000003,0.292984,0.42210388,-0.05467224
10.881393,-0.70401,2.1899872000000005,0.4176178,0.18988037,-0.16651917
9.533463000000001,-0.64175415,1.0120392,0.51667786,0.34220886,-0.27729797
7.5845795,-0.5076904000000001,0.6720581,0.5337219,0.36138916,-0.31672668
5.8056792999999995,-0.09588623,0.8420563,0.60617065,-0.6506195,-0.10366821
4.211151,0.10284424,1.4860992,0.8469238000000001,-0.6825713999999999,0.18928528
2.2287445,-0.838089,1.5004578000000002,0.7787323,-0.24900818,0.4768982
1.1106566999999998,-2.130951,1.3807526,0.36860657,-0.24156189,0.8167267
2.3149414,-2.9761047,0.59783936,0.21627808,-0.11479187,0.6910248000000001
5.911026000000001,-1.9944762999999999,-0.15393066,0.085250854,0.725708,0.3714447
9.238968,-1.055954,2.0032349,-0.16934204,0.28149414,0.6026001
9.547821,-1.1613007,3.1093597,0.012817383,-1.0341187,0.8763733
9.995529,-0.34487915,-0.25209045,0.10017395,-0.62931824,0.86465454
13.26123,0.24888611,-1.4779205,0.15875244,0.23355103,0.5567932
16.098357999999998,-0.19165039,-2.2680206000000003,-0.111816406,0.30812073,0.21272278
19.158142,-1.7550659,-3.2209015,-0.47294617,0.029022217000000003,-0.009918213
19.174910999999998,-3.2586212000000003,-2.9288177,-0.61676025,-0.048736572,-0.21232605
15.286728,-0.8404845999999999,4.972046,-0.54112244,-0.16059875,-0.44454956
9.24855,2.4300080000000004,10.514633,-0.3025055,-0.04447937,-0.4424286
5.3507843,1.2328948999999998,3.782135,-0.15336609,0.15258789,-0.3263092
6.938141000000001,-1.6209869,1.8547973999999998,-0.11502075,0.35818479999999997,-0.24427795
14.678589,-3.0072327000000003,5.5538483,-0.18959045,0.5541991999999999,-0.23576355
17.618668,0.27522278,4.7422028,-0.33552550000000003,0.7715149,-0.21765137
13.962723,0.8929290999999999,3.0255585,-0.5400543000000001,0.7821655,-0.07597351
11.5972595,-1.9825133999999998,2.5443267999999994,-0.7584380999999999,0.62023926,0.04333496
10.1822815,-1.7694244,2.0990142999999994,-0.87667847,0.4785614,0.059310913
8.049057000000001,-1.1828461000000001,1.3376465,-0.84898376,0.37097168,0.047607422
6.4257812,-1.2139739999999999,0.84924316,-0.8085022,-0.27883909999999995,0.08169556
5.336426,-0.89793396,0.41110230000000003,-0.7541809,-0.7741852,0.07635498
4.531967,-0.27305603,0.19322205,-0.47294617,-0.19148254,-0.006729125999999999
3.598236,0.5720978,0.2674408,-0.20982361,0.24420166,-0.07597351
3.2917786,1.4196472,0.1405487,0.19497679999999998,-0.12118530000000001,-0.18463135
4.2279053,1.4771118,0.17167664,0.2876587,-0.35766602,-0.49781800000000004
5.855957,0.014251709,1.4334258999999998,0.20349121,0.18241882,-0.7769165
6.571822999999999,-1.0535583,3.0183868,0.38778687,0.041809082000000004,-1.0794525
8.408188,-1.1182098,0.61221313,0.18325806,-0.8913726999999999,-0.9047394
12.530991,-1.4988861,-0.5250397,0.02027893,-0.75927734,-0.53829956
16.213272,-1.9968720000000002,0.5667267,-0.15550232,0.13874817,-0.4466858
17.386444,-2.7821808,0.9210663,-0.29078674,0.45619202,-0.20167542
16.81662,-2.5523376,-1.8825531000000002,-0.21940613,0.36564636,-0.033355712999999995
15.2699585,0.47154236,-0.25448608,-0.047912598,0.09826660000000001,0.20419312
16.050476,-0.18206787,8.596878,0.014938354499999999,-0.08282471,0.51631165
9.104889,-3.1245422,10.150711,0.07141113,-0.061523438,0.5482788000000001
3.6125946000000004,-1.5731049,3.454132,0.19816589999999998,-0.051940917999999996,0.46517944
8.065811,1.8170929,2.2283020000000002,0.28977966,-0.068984985,0.45559692
15.715285999999999,2.3869019000000002,6.410965,0.39204407,-0.05619812,0.45027159999999994
17.592346,-1.2786102,5.458069,0.5188141,0.018371582,0.37783813
12.382553,-1.9657593,5.0007779999999995,0.5901947,0.0002593994,0.16371155
9.54303,-1.1684875,3.4445495999999998,0.58273315,-0.057266235,-0.04827881
8.743362,-1.2714386,1.8093109,0.58166504,0.10040283,-0.1026001
6.57901,-1.3360748,1.747055,0.5752716,0.23675537,-0.16438293
4.575058,-1.3049469,1.7757874,0.5699463,-0.35127258,-0.18995667
3.7778015,-1.1253815,1.5890503,0.60191345,-0.51319885,-0.121780396
3.6317443999999997,-1.2427063,1.3376465,0.2652893,-0.21917725,0.01777649
4.385925299999999,-1.7478790000000002,0.6960144,-0.06921387,-0.27565002,0.30220032
5.4609222,-1.9944762999999999,-0.25448608,-0.22047424,-0.18829346,0.5940857
6.0403137000000005,-1.103836,-0.34068298,-0.08093262,0.19413757,0.51205444
7.5103607000000006,0.14593506,0.98091125,0.27166748,0.8503417999999999,0.42897034
8.7314,-0.34008790000000005,1.8595886000000001,0.17472839999999998,-0.019973755,0.8039398
9.452057,-0.9673767,0.09027099599999999,-0.13951111,-0.77311707,1.2332458
12.530991,-0.6345824999999999,-1.2552643,-0.17466736,-0.2032013,1.31633
14.551697,1.0461578,-2.0549316,0.06607056,0.22183228,0.64094543
15.930756,0.5385895,-3.3382263,-0.08518982,0.06843567,-0.009918213
17.733597,-2.6217651,-3.7260894999999996,-0.19171143,-0.045547485,-0.32524109999999995
17.192505,-5.1189117,1.3616028,-0.18106079,-0.057266235,-0.5574646
12.732117,-2.482895,9.190628,-0.11395264,-0.043411255,-0.7034149000000001
7.5175323,2.8633575,8.060577,-0.01914978,0.017303467,-0.64056396
5.4513397,3.1386871,2.9297942999999997,0.010681152,0.09719849,-0.51911926
10.313965,-1.4701538,4.591369599999999,-0.023406982000000003,0.22608948,-0.39874268
16.208496,-5.305664,6.0853577,-0.15655518,0.41571045,-0.28157043
16.565231,-1.3815613000000002,4.347168,-0.3781433,0.60639954,-0.121780396
12.918854,-0.5675354,2.5036316000000003,-0.581604,0.6372833000000001,0.016708373999999998
11.099258,-1.2618561000000001,2.2977295,-0.7073059,0.552063,0.018844603999999997
8.223831,-0.70640564,1.9050751,-0.72435,0.5818939000000001,0.01777649
6.2126923,-0.7111969,1.5746765,-0.73713684,0.46258545,0.10406494
4.8216705,-0.79019165,1.189209,-0.9075774999999999,-0.26286316,0.18821716
4.005249,-0.5603484999999999,0.7965698,-0.86816406,-0.09881592,0.11151123
3.8855286,0.24169922,0.37997437,-0.45057678,0.38269043,-0.007797241
4.254242,1.0509491000000002,0.078308105,-0.032989502000000004,-0.2820282,0.006057739300000001
5.7793427,1.2041779,-0.28082275,0.25994873,-0.9233245999999999,-0.40620422
7.4959869999999995,0.36619568,-0.3550415,0.06713867,-0.44181824,-0.97398376
7.9413146999999995,-0.3903656,0.77500916,0.21948242,0.40931702,-1.0858459999999999
7.4098053,-0.6944275,1.3687744,0.32600403,-0.14355469,-1.1263275
8.927719,-0.5388031,-0.12998962,0.17153929999999998,-0.7241211,-0.96972656
13.129547,0.20100403,2.0008545,0.122543335,-0.13290405,-0.62031555
14.439178,-2.0734863000000003,2.5634918,-0.0798645,0.22183228,-0.46905518
15.550079,-3.6871796000000003,-0.6279906999999999,-0.24604797,0.14833069,-0.3454895
17.048859,-1.0822906,-3.6686248999999997,-0.31634520000000005,-0.037017822,-0.019515991
15.837387,1.4411926000000002,1.536377,-0.26309204,-0.22238159,0.40553284
13.701767000000002,-1.9753265,8.515472,-0.12034607,-0.24900818,0.6047363
6.4305725,-3.1891937,7.7972107,0.08631897,-0.20959473,0.59620667
5.0778503,-1.1541138000000002,4.354355,0.28233337,-0.19148254,0.4492035
13.737670999999999,1.0796661,6.3606873,0.40057373,-0.06791687,0.37677002
18.782257,0.27522278,6.367874,0.48258972,0.14726257,0.34480286
15.013779000000001,-0.28501892,5.6903076,0.55397034,0.18667603,0.21377563
10.902939,-0.30178833,4.7086945,0.5752716,0.054595947,0.110458374
9.85907,-1.5156403,3.1261292000000003,0.5614319000000001,-0.18936157,0.06890869
8.082564999999999,-1.9681396,2.2953339,0.68499756,0.071640015,-0.06958008
6.4593050000000005,-2.3153076,2.1804047000000004,0.8256073,0.41996765,-0.24641418
4.907852,-2.446991,1.7662201000000002,0.83306885,-0.6687316999999999,-0.11752319
3.7299042,-1.779007,1.3999023000000002,0.8245392,-0.849823,0.025222777999999998
3.5575256,-1.1780548,1.2586517,0.38992309999999997,-0.26179504,0.07316589
3.2726135,-1.2498931999999998,0.8707886,-0.062820435,-0.14994812,0.28834534
3.2845917,-1.3408661,0.059143065999999994,-0.1352539,0.0023956299,0.4492035
5.171219000000001,-0.7447052,-0.33589172,0.3238678,0.5723114,0.36398315
8.542252000000001,-0.14137268,1.4429931999999999,0.5933838,0.8269042999999999,0.472641
9.574158,-1.4150848,3.5498962,0.18644714,-0.36619568,0.79541016
9.684296,-1.7239380000000002,0.25068665,-0.16082764,-0.4737854,1.2342986999999999
13.668242999999999,-0.2706604,-2.5912322999999997,-0.25137329999999997,0.15472412,1.0361633
16.447906,1.536972,-3.3382263,-0.2556305,0.21543884,0.296875
18.312988,0.5433655,-4.2528076,-0.49850464,-0.018920898000000002,-0.2474823
16.941116,-3.5602875,-2.9312134,-0.5539093,-0.19575499999999998,-0.49142456
13.668242999999999,-5.80365,3.7198792000000003,-0.5624237,-0.20640564,-0.58410645
10.208618,-1.7837982,9.5282135,-0.5208893,-0.16804504,-0.544693
6.2486115,3.3685303,5.165985,-0.45909120000000003,-0.027435302999999998,-0.44348145
7.613312,3.8042754999999997,2.5539092999999995,-0.46868896,0.29321290000000005,-0.36253357
13.495865,-0.40234375,4.9385376,-0.57414246,0.58403015,-0.28796387
16.644241,-4.57782,4.919372599999999,-0.7296753,0.8258361999999999,-0.13562012
15.095184,-1.5850677,3.8443756000000002,-0.9288788,0.95899963,0.04547119
12.188628999999999,-0.5244446,2.4198303,-1.1057128999999999,0.8791046,0.065704346
10.203827,-0.3041687,2.1085814999999997,-1.1707001,0.67137146,0.0028533936
7.72583,-0.20123291,1.4525757,-1.1355438,0.32730103,-0.005661010699999999
6.34198,-0.52204895,0.77500916,-1.1334076000000002,-0.40133667,0.027359009
4.9677124,-0.42388916,0.3177185,-1.0279540999999999,-0.69429016,0.006057739300000001
4.0363617,-0.10066223,0.3249054,-0.5581665,-0.17231749999999998,-0.05253601
3.7179413,0.42126465,0.1405487,-0.084121704,0.11210632,-0.09088135
4.3117065000000006,0.9575653000000001,-0.07014465,0.28233337,-0.2500763,-0.32098390000000004
5.3507843,0.49069214,0.58348083,0.43040466,-0.29162598,-0.6512146
6.1696014,-1.0703278,2.1325226,0.5145569000000001,0.034347534,-0.8557434000000002
6.037918,-1.3863524999999999,2.3384247000000005,0.59124756,-0.43969727,-1.1135406
7.898208599999999,-1.1421508999999999,0.27223206,0.13319397,-1.18219,-1.0027466
12.112015,-1.269043,0.55714417,-0.086257935,-0.58351135,-0.6991576999999999
15.698532,-2.8994904,1.3687744,-0.26841736,0.38482666,-0.54042053
17.573180999999998,-4.333618,0.2842102,-0.4047699,0.27189636,-0.110061646
17.101532000000002,-2.3751678,-1.5114441,-0.121414185,0.13449097,0.08488464
15.3489685,1.0557251,1.3328705,0.122543335,-0.16592407,0.38316345
14.769576999999998,-0.15573120000000001,8.501099,0.30575562,-0.3757782,0.76452637
8.005951,-2.9162445,6.8131866,0.43359375,-0.41200256,0.81565857
3.665268,-0.60105896,1.8212891,0.49005127,-0.33636475,0.71339417
9.538239,2.7484283,3.3248443999999995,0.46981812,-0.27565002,0.61112976
16.404816,1.3861237,6.8036194000000005,0.46235657,-0.16059875,0.51631165
17.348129999999998,-2.2243195,5.4245605,0.46342468,0.027954102,0.31285095
12.322708,-2.4781036,5.1085205,0.42720032,0.17283629999999997,0.11897278
10.086517,-1.5012816999999998,3.6217193999999995,0.38671875,0.16111755,-0.00033569336000000005
9.32756,-1.779007,2.2594147,0.46875,0.36245728,-0.10473633
7.3547363,-1.8651886000000002,1.5794678,0.5944519,0.7576599,-0.22616577
5.666824299999999,-1.486908,1.3759613000000002,0.5465088,-0.016784668,-0.32098390000000004
4.764206,-0.9075165000000001,1.2801971,0.6413269,-0.73690796,-0.228302
4.9365845,-0.6656951999999999,0.71276855,0.53053284,-0.20108032,-0.061050415
4.5798492,-0.9027252,0.13098145,-0.103302,0.022628784,0.22976685
4.089035,-1.2546692,-0.6758728,-0.38772583,-0.20640564,0.5259094
4.6397095,-1.3193207,-1.3486481000000001,-0.11608887,0.31237793,0.37783813
6.9094086,-1.0056763000000002,0.28660583,0.32279968,0.97283936,0.26278687
8.757736,-1.6976012999999999,3.2099152,0.421875,0.19306946,0.5972748000000001
7.8383636,-1.4246674,1.3017426,0.23652649,-0.6687316999999999,0.9253844999999999
10.641967999999999,-0.64894104,-1.5689087,-0.16189575,-0.3992157,1.3078156
14.992232999999999,0.84265137,-2.550537,-0.047912598,-0.03276062,0.86465454
17.676132,1.0461578,-2.8138885,-0.22793579,0.15258789,-0.08023071
17.877243,-2.0040588,-4.2767487,-0.6423187,-0.10093689,-0.51805115
15.554870999999999,-4.783722,-1.0158539,-0.69558716,-0.15206909,-0.5319060999999999
11.745697,-5.5450897,8.266479499999999,-0.6039734,-0.17231749999999998,-0.6309661999999999
8.269318,0.27522278,10.090850999999999,-0.42607117,-0.104141235,-0.6607970999999999
6.65802,3.794693,3.2769623,-0.26309204,0.017303467,-0.56066895
9.303619,2.7604064999999998,2.85318,-0.26841736,0.19306946,-0.42538452
14.642685,-3.72789,3.995224,-0.42288208,0.33474729999999997,-0.38276672
16.35933,-3.7135162000000004,3.8563538,-0.6423187,0.49028015,-0.37104797
13.907669,-0.4262848,3.0303497000000004,-0.79145813,0.58403015,-0.2559967
12.437622,-1.190033,2.197174,-0.8734894,0.5243683000000001,-0.12922668
10.883789,-1.3384705,1.7829741999999997,-0.92248535,0.34753418,-0.088760376
7.998779300000001,-0.8811798000000001,1.4693298000000001,-0.84684753,0.34220886,-0.07171631
5.9517365,-0.59147644,0.9617614999999999,-0.74246216,0.19200134,0.008178711
5.1376953,-0.28981018,0.5786896,-0.7264862,-0.21917725,0.003921509
4.6229553,0.21296692,0.35842896,-0.62527466,-0.21279907,-0.07809448
3.9669342000000003,0.78518677,0.45419312,-0.37493896,-0.18936157,-0.13029480000000002
3.9549712999999995,0.849823,0.5116577,-0.072402954,-0.41732788,-0.30606079999999997
5.2933197,0.016647339,0.18365479,0.06820679,-0.36831665,-0.6331024000000001
7.1703796,-0.7925873000000001,0.24589539,0.18539429,0.16537476,-0.8365630999999999
8.367477000000001,-1.1229858,1.0862578999999999,0.421875,0.019439697,-0.9569397
8.95166,-1.4581757,0.8372649999999999,0.32707214,-0.84236145,-0.91752625
10.697037,-1.4294434,0.45419312,0.17153929999999998,-0.48762512,-0.66186523
12.813507000000001,-0.86680603,0.58587646,-0.11820984,0.25273132,-0.40834045
14.848587,-1.5036774,-0.17308044,-0.25030518,0.37950134,-0.11218262
16.694519,-1.6114044,-2.0668945,-0.16508484,0.18241882,0.04121399
16.392838,0.14593506,-0.953598,-0.08093262,-0.1531372,0.26597595
14.843796,-0.86920166,5.821991000000001,-0.027664185,-0.24900818,0.5269623000000001
10.383392,-3.9888458,8.280838000000001,0.0074920654,-0.17018127,0.5227050999999999
5.673996,-1.2762146,2.920227,0.07141113,-0.022109985,0.37356567
9.40657,2.3581696,2.611374,0.12466431,0.14086914,0.296875
16.847748,1.2065582000000001,5.845932,0.16728210000000002,0.40612793,0.30326843
17.355316000000002,-1.9513855,5.2066803,0.23545837,0.5307616999999999,0.22763062
12.214966,-2.0184173999999997,4.620101999999999,0.35688782,0.46044922,0.05079651
10.948425,-1.1732788,2.8172759999999997,0.48898315,0.25166320000000003,-0.07916260000000001
10.127213000000001,-1.3887482,1.6632689999999999,0.5188141,0.14407349,-0.1026001
8.23819,-1.3767853,1.3999023000000002,0.46554565,0.2836151,-0.11431885
6.061858999999999,-1.0152588,1.2586517,0.39950562,0.12915039,-0.16119385
4.457748400000001,-0.70401,1.0096436,0.49111938,-0.49189758,-0.17503357
4.124954,-0.79977417,1.1173859,0.5241394,-0.58351135,-0.084487915
4.0076447,-1.3719940000000002,1.1628723,0.25357056,-0.5856323,0.18821716
3.9118652000000003,-2.2243195,0.9330291999999999,0.010681152,-0.56858826,0.519516
4.9006805,-2.5403595,0.1477356,0.054367065,-0.12863159,0.6356201
6.8926544000000005,-0.8093566999999999,-0.3047638,0.20455933,0.80667114,0.54400635
8.161575,0.026229857999999998,1.0718994,0.031982422,0.1685791,0.70913696
8.070602000000001,-1.1349639999999999,2.3527985,-0.13313293,-1.0021514999999999,1.077713
9.578949,-1.802948,0.56910706,-0.076660156,-0.47164917,1.0883636
12.511841,-0.7255554,-1.2169647,-0.006362915,0.13235474,0.46092224
15.279541,-0.05038452,-2.5625,-0.38879395,0.05885315,-0.006729125999999999
17.487000000000002,-1.6233826,-4.2001343,-0.72753906,-0.2266388,-0.24108887
17.101532000000002,-4.2378540000000005,-1.6814422999999998,-0.82128906,-0.30014038,-0.43070984
13.445587,-2.5403595,8.311966,-0.7616272,-0.32783508,-0.63842773
8.434525,3.0620727999999997,9.671875,-0.6423187,-0.14567566,-0.63523865
6.4114227,2.8370208999999997,2.1660461,-0.5869293000000001,0.09400939999999999,-0.5436249
11.192642,-1.0607452,2.6377106,-0.62420654,0.29107666,-0.46372986
17.180542000000003,-3.5124053999999996,4.545883,-0.7765503,0.41784668,-0.42111206
17.793457,-0.3903656,3.5594788,-0.9352722,0.5296936,-0.32098390000000004
13.857391,-0.19165039,2.6448822,-0.98854065,0.6415558000000001,-0.065322876
12.363403,-1.4749451,2.355194,-1.029007,0.71292114,0.07423401
10.184677,-0.97694397,1.6560822,-1.0801392,0.59680176,0.004989624000000001
8.159180000000001,-0.52204895,1.2586517,-1.0673676,0.44235230000000003,0.015640259
6.617325,-0.31614685,1.1221771,-1.0300751,0.011978148999999999,0.077423096
5.080246,-0.03363037,0.8947296,-1.0226288000000001,-0.48550415,0.098739624
3.8280792000000003,0.51464844,0.97613525,-0.9203644,-0.4077301,-0.021636963
2.9254607999999998,0.8234863000000001,0.71995544,-0.6050415,-0.10519409,-0.2602539
3.179245,0.6582946999999999,0.25308228,-0.19598389,0.0002593994,-0.48396300000000003
4.831238,-0.33050537,0.31054688,0.046905518,-0.21917725,-0.5542755
6.092987,-1.0679321000000002,0.95936584,-0.06921387,-0.048736572,-0.51272583
7.242202799999999,-1.1565094,1.8500061,-0.12460327,0.34541320000000003,-0.69595337
8.503952,-0.9793396000000001,0.91148376,0.19177246,-0.051940917999999996,-0.927124
11.441635,-0.625,-0.18026733,0.5933838,-0.17124939,-0.8461609
14.843796,-1.0487671,-0.5489807,0.47833252,-0.14994812,-0.42111206
17.139832000000002,-1.8651886000000002,-1.1140136999999999,0.16940308,-0.15206909,0.09339905
17.422348,-1.5563506999999999,-1.9974669999999999,0.12786865,-0.068984985,0.22123718
13.668242999999999,0.6104126,-2.7229156000000003,0.07885742,-0.16059875,0.24893188
11.91568,1.3406372,1.9242401000000002,0.075668335,-0.1797638,0.43748474
10.091308999999999,-1.8604126,8.735733,0.083114624,-0.10839844,0.50779724
8.288467,-4.929779,7.988739,0.19711304,0.054595947,0.54507446
9.564575,-4.8363953,4.6775665,0.3707428,0.11531067,0.50354004
12.384949,1.4052886999999998,5.055847,0.49963379999999996,0.2239685,0.44387817
15.473465,1.8577881,5.1492157,0.57740784,0.3731079,0.39593506
15.411223999999999,-1.2594604,4.0838013,0.644516,0.3262329,0.3011322
12.756058,-1.2403107,3.5068053999999997,0.7201538000000001,0.21118164,0.1796875
10.534225,-1.530014,2.6257324,0.7712859999999999,0.104660034,0.07423401
8.594925,-1.6066284,2.2259064,0.7563629,0.3304901,-0.007797241
6.828003,-1.395935,2.1205597000000003,0.65304565,0.5957489,-0.058929443
5.470489499999999,-1.3049469,1.8619843,0.5667572,-0.21279907,0.006057739300000001
4.187209999999999,-1.1253815,1.5076447,0.68392944,-0.6559448,0.023101807000000002
3.7514648,-1.1373596000000001,1.4310303,0.6125641,-0.08389282,0.022033691
3.9142608999999995,-1.292984,0.9138794,0.09590149,0.04499817,0.26811218
4.577453599999999,-1.4007263,-0.039016723999999996,-0.058563232,-0.18296814,0.5418854000000001
6.4712677,-0.86920166,-1.1188049,0.16621399,0.23887634,0.45240784
8.946869,-0.21559143,-0.18745422,0.09803772,0.41996765,0.5152588
8.815201,-0.25628662,3.2099152,0.0010986328,-0.34275818,0.79222107
8.161575,-0.6345824999999999,1.6800232,0.12680054,-0.81466675,0.8486786000000001
11.889342999999998,-1.2163696000000002,-1.5569305,0.18432617,-0.38963318,0.79541016
15.145462,-0.05278015,-2.3159027,0.17472839999999998,0.34541320000000003,0.4534607
16.67775,0.80433655,-2.4068756000000002,-0.29397583,0.33581543,0.061447144
16.555649,-1.8747711,-2.555313,-0.6966553000000001,0.06524658,-0.08023071
15.073639000000002,-3.8260498,1.4070892,-0.78826904,-0.039154053,-0.3497467
12.638733,-1.4677582,7.7924194,-0.6540375,-0.092422485,-0.63630676
8.827164,1.4699249,7.4213257,-0.45697020000000005,-0.07431030000000001,-0.624588
6.100174,0.260849,2.8172759999999997,-0.36109924,-0.08177185,-0.50527954
10.316360000000001,-3.119751,2.8388214,-0.36747742,0.042877197,-0.4328308
16.637054,-1.9011078000000001,4.735030999999999,-0.48252870000000003,0.26763916,-0.4051361
15.516570999999999,1.1539001,4.1987305,-0.62527466,0.41996765,-0.36785890000000004
12.679443,-1.2091827,3.5810242,-0.77227783,0.47644043,-0.24002075
12.480713,-3.1221466,3.1285095000000003,-0.8841399999999999,0.46897888,-0.06637573
10.41452,-1.4749451,2.6329192999999997,-0.9384613000000002,0.31132507,0.04121399
7.840759299999999,-0.6728821,1.9529572,-0.8511200000000001,0.18562317,0.07635498
6.5742188,-0.6321869000000001,1.3089294,-0.6369934,0.08868408,0.11151123
5.673996,-0.37121582,0.79896545,-0.51449585,-0.30334473,0.013519287
4.804901,0.11720276,0.83966064,-0.52194214,-0.41519165,-0.057861328
3.8065186,0.58647156,0.64094543,-0.4835968,-0.1797638,-0.12071228
3.2941589999999996,0.7732085999999999,0.3464508,-0.30996704,-0.078567505,-0.30500793
4.112976000000001,0.4667511,0.16688538,-0.10649109,-0.23303223,-0.48503113
6.598160000000001,-0.3903656,0.29617309999999997,-0.002105713,-0.21385193,-0.5734558000000001
8.044266,-1.5108489999999999,1.0216216999999999,-0.11608887,-0.1563263,-0.5585326999999999
9.052216,-2.6624603,1.2538605,-0.15975952,0.29853820000000003,-0.6746521
9.650772,-2.0232086,0.13098145,0.25569153,0.40292358,-0.8653259
11.657119999999999,-0.6369629,-0.22575378,0.73931885,-0.013595581,-0.85787964
14.628310999999998,-0.09828186,0.16688538,0.40376282,-0.28735352,-0.19953918
16.34256,-0.5819092,-0.7524871999999999,-0.14378357,-0.29162598,0.27130127
16.052872,-0.38078308,-2.5026398,-0.38879395,-0.10733032,0.20419312
13.333054,1.0222168,-2.7037659,-0.42395020000000005,-0.14355469,0.14559937
11.944412,0.84025574,1.5459441999999999,-0.25030518,-0.05833435,0.27662659999999994
11.063354499999999,-2.3775482000000006,8.572937,-0.053237915,0.14833069,0.33203125
10.179886,-4.632889,10.974319,0.07460022,0.23143005,0.25213623
8.326782000000001,-4.120529,5.1037292,0.18325806,0.29000854,0.1711731
9.495148,1.864975,3.806076,0.22267151,0.41358948,0.19033813
14.570862,1.8984832999999999,4.821212999999999,0.26315308,0.45193479999999997,0.20739746
15.92598,-1.6425323,4.4525146,0.38565063,0.26657104,0.15412903
13.141525,-2.8132935000000003,3.6169279999999997,0.5699463,0.07801819,0.06997681
10.960403,-2.3105164,2.762207,0.7148285,0.010910033999999999,0.020965576
9.64119,-1.8747711,2.1660461,0.82987976,0.16004944,-0.019515991
7.709076,-1.4222716999999998,1.7350922,0.8501129000000001,0.47962952,-0.09513855
5.7099150000000005,-1.1684875,1.3400421,0.7371979000000001,0.08015442,-0.10685730000000002
4.414657599999999,-1.1684875,1.6249542,0.76275635,-0.41200256,-0.20167542
3.8496246,-1.3408661,1.9936676,0.7840729000000001,-0.33850098,-0.30393982
3.6173858999999995,-1.6185913,1.644104,0.49111938,-0.20959473,-0.007797241
3.8376464999999995,-1.5731049,0.6983948,0.25994873,-0.27244568,0.48222349999999997
5.2957152999999995,-0.40951538,-0.29759216,0.18218994,0.17816162,0.5045929
7.4265593999999995,0.04058838,-0.10125732400000001,-0.14164734,0.87164307,0.34054565
7.9437103,-0.8931427,2.0678864,-0.5315399000000001,-0.28416443,0.60899353
8.302841,-1.6090088,1.4860992,-0.29397583,-0.8913726999999999,0.7655945
11.060959,-1.5874633999999999,-0.20181274,-0.01701355,-0.38963318,0.70274353
13.491074,-0.5364075,-1.3989258,0.044769287000000005,0.22290039,0.648407
15.961884,-0.17489624,-1.9902802,-0.46868896,0.3773651,0.21058655
17.513336,-1.5467681999999998,-3.2855529999999997,-0.92248535,0.24208069,-0.22616577
17.048859,-2.9306183,-1.2839966,-0.99598694,0.054595947,-0.24108887
14.551697,0.42366028,7.567367599999999,-0.8969269,-0.20852661,-0.4562683
8.987579,2.3222656,7.404556299999999,-0.7339325,-0.32571409999999995,-0.56599426
6.1289062,-1.0152588,3.0303497000000004,-0.6934509,-0.37684629999999997,-0.5627899000000001
9.193481,-4.594589,3.92099,-0.71795654,-0.16592407,-0.56066895
15.868514999999999,-1.7718201,4.96727,-0.77441406,0.21438599,-0.5074005
16.321014,1.9032745,3.6648102,-0.8777466,0.46791077,-0.3806305
12.6171875,1.0533295,4.126892,-0.9757538,0.56591797,-0.228302
12.289185,-2.8851318,4.260971,-1.1099701000000002,0.49560547,-0.16865539999999998
10.584503,-2.3943176,3.3583527,-1.1920013,0.36457825,-0.16012573
8.163971,-0.73753357,2.3288574,-1.1366119,0.45193479999999997,-0.10366821
6.4952087,-0.21798706,1.1604767,-0.97787476,0.71292114,-0.05467224
5.8176575,0.23690796,0.65530396,-0.77015686,0.43382263,0.014572143999999999
5.1352997,0.53619385,0.64811707,-0.72221375,-0.21066284,0.022033691
4.589432,0.41647340000000005,0.7869873000000001,-0.5911865,-0.38536072,-0.057861328
4.6397095,0.22494507,0.46138,-0.25776672,-0.44502258,-0.1260376
4.965317,-0.009689330999999999,0.054367065,0.12359619,-0.4460907,-0.2506714
5.923004,-0.38317870000000004,-0.46038818,0.3387909,-0.19575499999999998,-0.47117615
7.845550500000001,-1.2115784,0.16209412,0.43040466,0.27296448,-0.6693268
8.973206,-1.6257781999999998,1.8284607,0.691391,0.21543884,-0.8600005999999999
9.10968,-1.2259368999999998,1.8787383999999998,0.60510254,-0.65701294,-0.8056793000000001
10.606064,-0.6465454,1.0838623,0.41868590000000006,-0.4503479,-0.56492615
12.689011,-1.1517181,1.05513,0.122543335,0.08441162,-0.3582611
14.441574,-2.1956024,0.0016937256,-0.084121704,0.31132507,-0.13136292
16.297073,-1.6521148999999997,-2.1746368,-0.08732605,0.3027954,-0.09194946
15.485443,0.766037,-1.4563751,-0.037246704,0.13128662,0.015640259
14.551697,0.66548157,6.087753299999999,-0.021270752,-0.030639648,0.37356567
10.7114105,-3.0646972999999997,8.936844,-0.035125732,-0.080703735,0.49287415
6.571822999999999,-2.4182587000000004,3.9784546,0.023468017999999997,-0.13502502,0.38955688
8.384232,1.4819031,2.7717742999999997,0.06288147,-0.024246216,0.28941345
14.329041,1.5920258,5.7932587,0.13851929,0.26338196,0.26704407
16.936325,-2.0423737,6.0183105,0.29617309999999997,0.49453735,0.24786377
14.180603,-2.2626342999999998,4.8116455,0.48898315,0.41145325,0.14666748
10.737732000000001,-0.17010498,3.8132629999999996,0.70843506,0.10572815,0.027359009
9.878219999999999,-0.6680908,2.573059,0.68392944,-0.09347534,0.009246826
8.099335,-1.3049469,2.046341,0.6040344,0.0077209473,-0.057861328
6.2055206,-1.0607452,1.5100403,0.6594238,0.12489319,-0.16545105
4.8456116,-0.7255554,1.1963959,0.6455841,-0.46739197,-0.18569946
4.045944,-0.6058501999999999,1.4382172,0.6349335,-0.6719208000000001,-0.046142578
3.9453888,-0.88597107,1.6464995999999998,0.46768188,-0.15420532,0.12536621
4.529571499999999,-2.3009338,2.0535126,-0.013824463,-0.11691284,0.46517944
4.4745026,-3.5171967000000004,0.33688354,-0.23539734,-0.50894165,0.6302948
5.4010620000000005,-2.1333466,-0.8721924000000001,-0.0031585693,0.03541565,0.4023285
7.934128,0.019042969,1.1006316999999999,0.12147522,0.725708,0.49394226
9.061798,-0.8524475,2.604187,-0.16722107,-0.47804259999999993,0.9296416999999999
8.803223,-1.2546692,0.6529083000000001,-0.32168579999999997,-0.86473083,1.4154053
11.5733185,-0.42149353,-1.3701934999999998,-0.10649109,-0.051940917999999996,1.0766448999999998
14.896469,0.8091278000000001,-1.7269287,-0.22474670000000002,0.28256226,0.28408813
17.05603,0.59843445,-2.0956268,-0.7595062,-0.060455322,-0.1729126
16.57959,-2.0663147,-3.2137298999999997,-0.93634033,-0.25753784,-0.3454895
14.130325,-4.127716,2.5275726,-0.8788147,-0.34062195,-0.5521393
11.168700999999999,-0.08630371,10.907272,-0.67640686,-0.24261475,-0.5990143
6.964477499999999,3.5361176,6.0733795,-0.5251465,-0.050872803,-0.5553435999999999
8.836746,2.0588990000000003,1.8739471,-0.47613525,0.21331787,-0.45413208
15.60994,-3.2274933,4.727844,-0.55070496,0.46044922,-0.37530518
17.099135999999998,-2.9473724,4.6296844,-0.7073059,0.59254456,-0.34442140000000004
13.888504000000001,0.35183716,3.8994446000000003,-0.8585663,0.5755005,-0.26345825
12.940399000000001,-1.5443726,3.2458343999999997,-0.99172974,0.5861510999999999,-0.11538696
11.087296,-2.0998229999999998,2.173233,-1.0151671999999998,0.5307616999999999,-0.0014038085999999999
9.04982,-1.2714386,1.5148315,-0.9107665999999999,0.5286255,-0.018447876000000002
7.3858643,-0.67048645,1.1413269,-0.72435,0.28894043,-0.04827881
5.877502400000001,-0.23713684,0.8348694,-0.64764404,-0.3842926,-0.044006348
4.958130000000001,0.14353943,1.0192261,-0.6071625,-0.41944885,-0.072769165
4.290161,0.54096985,1.0718994,-0.41009520000000005,-0.05619812,-0.13562012
3.799347,0.85461426,0.45419312,-0.07879639,0.006652831999999999,-0.19102478
4.096222,0.69659424,0.20280457,0.13638306,-0.1563263,-0.36572266
5.74823,-0.8787841999999999,0.5499573,0.18005371,0.13554382,-0.6054076999999999
6.3084717,-1.8771667,2.4557495,0.34837340000000006,0.26763916,-0.8259125
6.203125,-2.1692657000000004,2.5371552000000004,0.38139343,-0.49401855,-0.9580078000000002
8.963638000000001,-1.5252228,0.46377563,0.20562744,-0.7060088999999999,-0.7002106
13.268417000000001,-0.66329956,0.06872558599999999,0.05329895,-0.11904907,-0.5042114000000001
15.794296,-1.0583496000000001,0.023239136,-0.2364502,0.23036194,-0.18888855
17.19011,-2.1189880000000003,-1.2887878000000001,-0.27374268,0.24952698,0.1946106
16.742401,-1.0104674999999999,-2.1459045,-0.15655518,0.18241882,0.047607422
15.399246,0.5026702999999999,3.32724,-0.17680359,-0.10519409,0.23188782
13.385727,-2.0327911,8.8003845,-0.2843933,-0.18829346,0.45666504
7.4337463,-3.3711547999999993,5.4053955,-0.35150146,-0.11479187,0.39381409999999994
5.6644287,-0.08869934,3.035141,-0.3536377,0.026885986,0.31710815
11.252487,2.877716,5.2497864000000005,-0.2566986,0.23568726,0.30326843
16.129486,-0.33050537,6.3223877,-0.08200073,0.41996765,0.25
15.753585999999999,-2.7773895,5.0917664,0.122543335,0.48495483,0.11790466
11.367416,-0.5890808000000001,4.536300700000001,0.28233337,0.34007263,0.027359009
10.584503,-0.14616394,2.8052979,0.38992309999999997,0.059921265,0.022033691
9.54303,-0.77822876,1.5435486,0.43785095,-0.21385193,-0.05253601
7.5175323,-0.57232666,1.2394867,0.3984375,-0.07431030000000001,-0.110061646
5.501617400000001,-0.253891,1.3663788000000001,0.36860657,0.18028260000000002,-0.12922668
4.6013947,-0.66329956,1.536377,0.4730072,-0.22984314,-0.11112976
4.4481660000000005,-1.3672028,1.6920012999999998,0.4026947,-0.500412,-0.07383728
4.2087555,-2.0998229999999998,1.5124358999999998,0.034118652,-0.43223572,0.07635498
4.1345367,-2.4876862,1.0407715,-0.20449829,-0.26818848,0.29154968
5.2645874,-1.7550659,0.30575562,-0.037246704,-0.059387207000000004,0.36079407
6.693939,-0.05517578,-0.41011047,0.11401367,0.61172485,0.45133972
8.183121,0.3829651,0.56910706,-0.07879639,0.25698853,0.70806885
9.229385,-0.99609375,2.4222259999999998,-0.28225708,-0.64208984,0.98928833
10.517471,-1.8484343999999997,0.9904938,-0.21408081,-0.36724854,0.94880676
12.760834,-0.51486206,-1.1068268,0.063949585,0.22822571,0.43641663
14.987442000000001,0.6295624,-2.373352,-0.19277954,0.19094849,-0.05467224
17.556427,-0.52923584,-2.6151732999999995,-0.43992615,-0.066848755,-0.16331482
16.426361,-3.7374572999999995,-0.9990844999999999,-0.46229553,-0.15100098,-0.27729797
13.483887,-3.5842285000000005,7.217819,-0.41755676,-0.07643127400000001,-0.44987488
9.205444,2.3462067,9.705383,-0.45271300000000003,-0.053009033,-0.41259766
7.819214,2.9615172999999997,3.533142,-0.49638367,-0.05406189,-0.40087890000000004
11.053772,-2.4158630000000003,3.8108672999999995,-0.5560303000000001,0.21118164,-0.46798706
15.509383999999999,-5.1811676,5.4197693,-0.6519165,0.46684265,-0.43070984
15.056885000000001,-0.5747223000000001,4.945709,-0.7477875,0.4774933,-0.2602539
13.878936999999999,-0.21080017,3.6432648000000003,-0.87028503,0.376297,-0.05999756
11.795975,-1.779007,2.7574158,-0.9331360000000001,0.3017273,-0.023773192999999998
8.10173,-0.17727661,1.7374878,-0.90864563,0.36245728,-0.08236694
6.725052000000001,-0.11743164,1.3256836,-0.8638915999999999,0.3496704,0.0007324219
6.4521180000000005,-0.68006897,0.72473145,-0.86283875,-0.25965879999999997,0.12962341
5.2454376,-0.54599,0.5667267,-0.8234253,-0.4812317,0.08274841
4.0483400000000005,-0.06954956,1.0096436,-0.4835968,-0.005065918,-0.09513855
3.6987915,0.45957947,0.61460876,-0.10437012,-0.12863159,-0.18569946
4.613373,0.69659424,-0.098861694,0.17260742,-0.59202576,-0.35932922
6.478454599999999,-0.12222290000000001,-0.2760315,0.18751526,-0.38536072,-0.5958251999999999
6.8447723,-1.1349639999999999,0.6194,0.19604492,0.4316864,-0.8259125
6.634078999999999,-1.2163696000000002,2.0678864,0.36009216,0.13768005,-1.2349854
7.6683655,-1.2235565000000002,0.2052002,0.41015625,-0.7113341999999999,-1.1774597
11.793579,-0.62739563,0.7391052,0.36116028,-0.5249176,-0.57450867
15.107161999999999,-1.5611267,1.9098663,-0.13418579,0.07269287,-0.031234741
16.550857999999998,-2.8707580000000004,0.06872558599999999,-0.39198303,0.08868408,0.34480286
16.555649,-1.4078979999999999,-3.388504,-0.22900389999999998,0.021560668999999998,0.35012817
14.680984500000001,1.4076843,0.16209412,-0.23219299999999998,-0.20108032,0.4023285
15.368117999999999,-1.2427063,8.941635,-0.41223145,-0.12863159,0.5780945
10.452835,-4.3862915000000005,9.473145,-0.36642456,0.071640015,0.6441498000000001
4.924621599999999,-1.9825133999999998,3.92099,-0.19277954,0.20799255,0.53230286
7.108124,3.5480957,3.279358,-0.097976685,0.33901978,0.425766
15.444733,2.3605652000000004,5.5538483,-0.055358887,0.44021606,0.4033966
17.894012,-2.3679810000000003,5.1276703,-0.009552001999999999,0.40612793,0.23828125
13.670639000000001,-2.1381377999999995,4.665588400000001,0.07778931,0.25912476,0.034820557
10.912521,-0.34727478,2.4653167999999996,0.11721802,-0.0008087158,-0.1026001
9.159958,-1.0463715,1.778183,0.14277649,-0.0008087158,-0.24002075
7.428955,-1.2810059,1.6608734,0.20776367,0.43063354,-0.28796387
6.4114227,-0.76387024,1.1796417,0.20669556,0.19520569,-0.37957764
5.144882,-0.759079,0.87557983,0.29937744,-0.39389038,-0.30926514
4.654068,-1.4893036,1.0072478999999999,0.047973632999999995,-0.24581909,-0.12071228
4.235092,-2.068695,1.0647125,-0.48252870000000003,-0.08921814,0.046539307
3.603012,-2.2003784,0.5715026999999999,-0.3770752,-0.28309629999999997,0.09979248
4.6588593000000005,-0.6848602,-0.5705260999999999,0.29617309999999997,-0.12437439,0.13815308
6.507187,-0.012084961000000002,-0.09408569,0.5965729000000001,0.22715760000000002,0.5099182
8.393814,-1.9178619,2.7598114,0.21627808,-0.10839844,0.9264374
8.499161,-2.7007751,2.9848632999999998,-0.2524414,-0.40879822,1.0702515
10.249329,-1.1301727,-0.005493164,-0.30464172,-0.26286316,0.7048645
13.469528,1.572876,-1.5473633,-0.0042266846,0.06736755,0.124298096
16.04329,0.9862976000000001,-1.6143951,-0.16827393,0.08441162,-0.1026001
16.711273000000002,-2.9425812000000002,-0.37660217,-0.42713928,-0.1296997,-0.13882446
14.949142000000002,-6.756546000000001,3.1189423,-0.5954437,-0.07005310000000001,-0.31352234
11.355438000000001,-3.8619537000000004,7.672714,-0.5262146,-0.04234314,-0.46905518
8.805617999999999,3.157837,6.636017,-0.42181396,0.032211303999999996,-0.43603516
10.086517,3.0405273,2.4222259999999998,-0.39518738,0.20266724,-0.30180359999999995
13.639510999999999,-3.4381866000000003,4.225067,-0.48680115,0.35179138,-0.25813293
16.119904000000002,-5.9209747,4.5746155,-0.64871216,0.44340515,-0.17184448
14.029770000000001,-0.18206787,3.9329681000000005,-0.7818755999999999,0.38908386,-0.072769165
12.736892999999998,-0.32572937,2.4485626,-0.90864563,0.247406,0.013519287
10.594086,-1.3049469,2.264206,-0.9288788,0.2239685,0.05718994
8.434525,-1.0176544,1.7638245,-0.8372649999999999,0.53289795,0.038009644
7.041092,-0.34248352,1.1437225,-0.8180847,0.2601776,0.027359009
6.3156433,-0.07911682,0.91867065,-0.99279785,-0.42904663,0.034820557
4.903076,0.0501709,0.84684753,-0.97042847,-0.16378784,-0.04827881
3.63414,0.42126465,0.93063354,-0.56030273,-0.017852783,-0.16758728
3.1768494,0.7085724,0.48771667,-0.19171143,-0.5025482,-0.32949829999999997
4.5487212999999995,0.51464844,-0.36941528,-0.0031585693,-0.55900574,-0.6607970999999999
7.0865784,-1.0822906,-0.23533629999999997,0.23864746,0.08654785,-0.9537505999999999
7.5007779999999995,-1.4701538,2.039154,0.6466522,0.15579224,-1.3649445
6.65802,-0.842865,1.5339813,0.6125641,-0.66127014,-1.3106079
9.5933075,-0.22038269,-0.22337341,0.25036620000000004,-0.6687316999999999,-0.57450867
14.175811999999999,-0.9601898000000001,2.0966186999999996,-0.18319702,0.15258789,-0.27197266
15.310669,-3.4094542999999997,1.7566376,-0.5336609,0.14619446,-0.14521789999999998
15.439957000000001,-2.9425812000000002,-2.0692901999999997,-0.48040770000000005,0.08547974,0.012451172
15.425583,-0.18925476,-0.38856506,-0.43353270000000005,-0.12437439,0.25
17.33377,-1.5371857,7.51709,-0.45483398,-0.18829346,0.44068909999999994
13.452759,-5.099762,7.8881836,-0.39837646,-0.016784668,0.49501038
4.333252,-1.8292846999999999,2.3264617999999997,-0.26521300000000003,0.17283629999999997,0.4300232
7.254181,3.8090667999999996,2.6089783,-0.150177,0.32409668,0.34268188
17.216445999999998,1.9679259999999998,5.9105834999999995,-0.0010375977,0.41358948,0.29794312
18.765503,-1.6712646,4.878677400000001,0.2546234,0.4039917,0.21165466
12.806335,-1.5874633999999999,4.4525146,0.46768188,0.29107666,0.124298096
9.887802,-1.2738341999999998,2.8795166,0.56036377,0.0087890625,0.061447144
8.894211,-1.2714386,1.5938263000000001,0.7009734999999999,-0.14248657,-0.05253601
7.402618400000001,-1.3911438,1.4837036,0.8074951,0.10359192,-0.1537323
5.7434387000000005,-1.5228271,1.2538605,0.70843506,-0.24900818,-0.2240448
4.1776276,-1.4246674,1.4884948999999998,0.6210785,-0.78590393,-0.21125793
3.471344,-1.6808471999999999,1.9314116999999997,0.41654968,-0.46525574,-0.21339417
3.2845917,-2.233902,1.912262,-0.060684204000000005,-0.29588318,-0.01524353
3.7155457000000003,-2.4493866,1.2490691999999999,-0.21514893,-0.34169006,0.34161377
5.329239,-1.5012816999999998,0.71276855,0.11721802,0.3486023,0.34587097
6.8926544000000005,-0.49331665,0.8157196,0.2642212,0.6468811,0.2734375
8.549438,-1.3767853,2.0798492,0.08418274,-0.35766602,0.36717224
8.910965,-1.0894774999999999,1.1820374,-0.14378357,-0.5099945,0.48010254
10.61084,0.37338257,-1.2097778000000001,-0.24284363,-0.09881592,0.42150879999999996
13.649094,1.1610718,-1.7628326,-0.14910889,0.29960632,0.25213623
16.153427,1.1491089,-1.8274841,-0.5613556,-0.13822937,0.21165466
17.305038,-1.6233826,-1.949585,-0.8266144,-0.16271973,-0.13989258
15.787109,-5.492416400000001,2.7214966,-0.85217285,0.055648804,-0.4243164000000001
11.827103,-5.171584999999999,9.568924,-0.628479,-0.03489685,-0.4232483
9.583739999999999,2.1474915,5.4077910000000005,-0.33978270000000005,-0.060455322,-0.27197266
8.855896000000001,3.7204742,0.40151978,-0.1821289,0.18562317,-0.14094543
10.94603,0.8234863000000001,3.454132,-0.21195984,0.40187073,-0.07064819
14.609160999999999,-3.1820068,5.007965,-0.38240050000000003,0.4551239,-0.021636963
16.876465,-1.3025513000000002,3.1764069,-0.6061095999999999,0.41038513,0.08807373
14.829436999999999,-1.0487671,2.0247955,-0.79252625,0.35073853,0.16584778
10.0434265,-1.5228271,2.5419312,-0.8830719000000001,0.29214478,0.15625
7.326003999999999,-0.9865265,2.2067412999999996,-0.75523376,0.34220886,0.16264343
6.4617004,-0.5268401999999999,1.323288,-0.6316681,0.12915039,0.15945435
5.764983999999999,-0.21559143,0.88993835,-0.51982117,-0.35127258,0.08381653
4.9677124,0.16748047,1.0623169,-0.22367859,-0.115859985,-0.018447876000000002
4.060318,0.5744934,0.82051086,0.1395874,-0.12011719,-0.12710571
3.8304748999999996,0.75405884,0.26983643,0.34837340000000006,-0.44181824,-0.19741821
4.7833557,0.93122864,-0.19224548,0.51667786,-0.10946655,-0.42643738
6.344375599999999,0.11480713,0.49728394,0.7244109999999999,0.5797576999999999,-0.69169617
7.292480499999999,-2.0902557,1.8835297,1.0621033000000002,0.21011353,-1.0102081
7.6803436000000005,-2.439804,1.4405975,0.84265137,-1.0042877000000001,-0.9782562
9.985961999999999,-1.1636963,1.0120392,0.20137024,-0.86898804,-0.5350951999999999
13.546142999999999,-0.96258545,2.3934937,-0.548584,0.29853820000000003,-0.21125793
14.302704,-2.0998229999999998,0.33448792,-0.771225,0.47430420000000006,-0.110061646
15.511779999999998,-1.9968720000000002,-2.5768737999999995,-0.38986206,0.27616882,-0.07171631
17.463058,-0.8093566999999999,-0.85543823,-0.103302,-0.060455322,-0.020584106
17.951462,-2.0279999,6.8874054000000005,0.024536132999999998,-0.26179504,0.26171875
11.396149000000001,-3.2562256,8.156342,0.122543335,-0.10626221,0.41618347
4.8934937000000005,1.1227722,2.8196716,0.108688354,0.11531067,0.36611938
6.298889,5.1354523,0.5738983,0.038375854,0.2836151,0.33415222
15.475860999999998,4.093979,5.3335724,0.011749268,0.3954773,0.31710815
18.363266,-3.0215912,5.9345245,0.047973632999999995,0.45726013,0.20632935
14.228485000000001,-4.8507690000000006,5.276108,0.09803772,0.41252136,0.09767151
9.495148,-1.5515594,3.8443756000000002,0.14810179999999998,0.23248291,0.04866028
9.059402,-0.56993103,2.3504028,0.19390869,0.0055847169999999995,-0.014190673999999999
7.859909,-1.2211608999999999,1.4094848999999998,0.21948242,-0.04234314,-0.16545105
5.8104705999999995,-0.8596344000000001,1.1676636,0.22480774,-0.27990723,-0.27410890000000004
4.666046,-0.25628662,1.3544159,0.33451843,-0.789093,-0.20593262
4.462539700000001,-0.47416687,1.3855438,0.30149840000000006,-0.46313477,-0.10580444
3.9453888,-1.1421508999999999,1.2418823,-0.16615295,-0.14355469,0.13708496
3.6748505,-1.8628082,1.0120392,-0.4090271,-0.19468689,0.46517944
4.687591599999999,-2.0040588,0.60502625,-0.150177,0.19200134,0.43641663
6.832794,-0.57232666,0.6983948,-0.006362915,0.48921204,0.43322754
8.087357,-0.18685913,1.9290161,-0.2364502,-0.18936157,0.8358916999999999
8.039474499999999,-1.0751038,1.7374878,-0.40690613,-0.50787354,0.9317627
10.548599000000001,-1.2594604,-0.8937378,-0.48892212,-0.230896,0.84228516
14.317078,-0.21559143,-2.2632293999999997,-0.23858643,0.19306946,0.53656006
16.268341,0.69898987,-2.3829346,-0.35682678,0.083343506,0.008178711
16.754364000000002,-1.0391998,-2.830658,-0.6891937,-0.016784668,-0.32524109999999995
15.387282999999998,-4.2953033,1.6656647,-0.91397095,-0.008255005,-0.5670624
12.736892999999998,-2.9066772000000003,8.412521,-0.8361969000000001,0.022628784,-0.66186523
10.041031,2.2456512,6.770096000000001,-0.6061095999999999,0.083343506,-0.56599426
8.046661,2.3605652000000004,1.9098663,-0.4090271,0.21543884,-0.39767456
9.909348,-2.9641266,3.3320160000000003,-0.325943,0.5627135999999999,-0.28475952
17.384048,-5.324814,6.2744904,-0.39091492,0.77363586,-0.19528198
17.281097,-0.33050537,3.9186096,-0.5539093,0.78749084,-0.03656006
13.986664000000001,0.23213196,2.4677124,-0.74246216,0.6766968000000001,0.17010498
11.446425999999999,-1.1924286,2.5778502999999997,-0.8287505999999999,0.43275452,0.24786377
8.824767999999999,-1.0679321000000002,2.2450562,-0.7818755999999999,0.36245728,0.23188782
6.9357452,-0.8165283,1.6776276,-0.6891937,0.34646606,0.29367065
6.0403137000000005,-0.7423095999999999,0.88275146,-0.6508484,-0.36831665,0.31071472
4.7785645,-0.49092102,0.76304626,-0.5613556,-0.5973510999999999,0.16903687
3.5623169999999997,0.11720276,0.8636017,-0.150177,-0.16059875,-0.037628174
2.8057556,0.6104126,0.54756165,0.28233337,-0.13290405,-0.25813293
3.3013458,0.86180115,0.26504517,0.4026947,-0.34062195,-0.54148865
5.1424866,0.03100586,0.20280457,0.40696716,0.15153503,-0.78970337
6.3036804,-1.2498931999999998,1.45018,0.7925873000000001,0.34753418,-1.0506897
6.73703,-1.5132446000000002,2.8124847,1.0088348,-0.5238495,-1.2520294
8.537460000000001,-1.6976012999999999,0.8372649999999999,0.63812256,-1.1140136999999999,-0.77371216
12.653107,-1.9465941999999998,1.2586517,0.11508179,-0.26393127,-0.22084045
15.863724,-3.4070587,2.0583038,-0.325943,0.5584564000000001,-0.14201355
17.276305999999998,-4.0534973,-0.64953613,-0.39198303,0.45193479999999997,-0.007797241
17.1111,-0.9601898000000001,-1.9878997999999999,0.05329895,0.22290039,-0.032287598
17.774292000000003,0.43803406,4.919372599999999,0.22480774,-0.10733032,0.26704407
16.050476,-3.2682037,9.312744,0.20988464,-0.16378784,0.5109863
6.7035065000000005,-1.6305695,4.644043,0.16728210000000002,-0.11691284,0.58236694
3.203186,3.1099547999999997,0.76304626,0.15982056,-0.049804688,0.51205444
10.309174,5.468246499999999,3.5977782999999994,0.14384460000000002,0.01411438,0.40126038
16.524520000000003,0.16748047,6.123657,0.17793274,0.09613037,0.3203125
16.708878,-4.1301117,5.826782,0.29724120000000004,0.15258789,0.15731812
10.570145,-3.5171967000000004,4.9385376,0.42294312,0.05885315,0.024169922000000003
8.697875999999999,-0.91470337,3.1356964,0.43359375,-0.13183594,-0.012054443
7.6803436000000005,-0.42149353,2.2187195,0.48153687,-0.11479187,-0.05253601
5.990036,-0.8165283,1.9984589,0.56036377,-0.015716553,-0.18356323
5.027572599999999,-0.73753357,1.620163,0.5997772,-0.5984191999999999,-0.2474823
4.5606995,-0.80696106,1.3927155,0.5710144,-0.8540802,-0.10473633
4.910248,-1.2905883999999999,1.2897644,0.19390869,-0.46739197,0.035888672
5.2023470000000005,-1.8604126,0.98091125,-0.22474670000000002,-0.22557068,0.21165466
5.389099,-1.8005523999999997,0.06872558599999999,-0.42395020000000005,0.28256226,0.40126038
6.2797394,-0.24432373,-0.17070007,-0.581604,0.2559204,0.61857605
7.687530499999999,-0.23713684,0.7798004,-0.5911865,-0.76034546,0.7528076
8.355514999999999,-1.6976012999999999,2.307312,0.019210815,-0.674057,0.56211853
8.551834,-1.8149109,0.5786896,0.4964447,0.33688354,0.5344238
11.985123,-0.27305603,-1.4372253000000001,0.515625,0.40719604,0.63456726
14.561279,1.2161407,-1.7364959999999998,0.05116272,0.25379944,0.40553284
17.498962,0.41647340000000005,-1.0110626,-0.5081024000000001,0.118499756,0.02949524
19.608261,-1.0535583,4.548279,-0.77227783,-0.20213318,-0.48184204
13.917235999999999,-0.5052948,6.9736023000000005,-0.7318115,-0.17443848,-0.6650543000000001
8.7864685,-2.1381377999999995,3.8180389999999997,-0.5911865,-0.08602905,-0.5723876999999999
7.771316499999999,-4.853164700000001,1.7566376,-0.5070342999999999,0.0055847169999999995,-0.46372986
11.930054,-4.790909,5.8076324,-0.487854,0.22076416,-0.37637329999999997
18.063995000000002,1.2807921999999998,4.6464386,-0.56988525,0.48388672,-0.2240448
15.521347,3.3876800000000005,2.6353150000000003,-0.7616272,0.5808258000000001,-0.030166626000000002
11.276428,-0.39994812,3.2099152,-0.9565735000000001,0.49241638,0.09979248
9.576553,-1.8388519,2.501236,-0.9991913,0.4785614,0.05718994
7.871886999999999,-0.56993103,2.142105,-1.0034485,0.41358948,0.028427123999999998
6.521545400000001,-0.57232666,1.4884948999999998,-1.0140991,0.09719849,0.102996826
5.990036,-0.6752776999999999,0.81811523,-1.0066376,-0.30653379999999997,0.203125
5.49205,-0.13179016,0.46138,-0.7903899999999999,-0.0029296875,0.100860596
4.5415497,0.21536255,0.38716125,-0.21728516,0.3720398,-0.100479126
3.8639832000000003,0.48831177,0.035202026000000004,0.24610901,-0.21173096,-0.20274353
4.4314117,0.48591614,-0.46517944,0.22692871,-0.5110626,-0.3966217
6.2414246,-0.5866852,-0.35264587,0.06074524,-0.05406189,-0.66293335
7.658798,-1.2427063,0.7079773,0.36967468,0.2559204,-1.1071472
7.922165,-1.0056763000000002,0.7295227,0.83839417,-0.44714355,-1.4767914
9.430511,-0.89793396,0.09985351599999999,0.6360016,-1.1789856,-0.91859436
13.062515,-1.3145294,3.0878143,0.07460022,-0.29374695,-0.0834198
14.010620000000001,-3.2658080000000003,3.9233856,-0.3547058,0.6245116999999999,0.06997681
13.79274,-2.7821808,-0.95599365,-0.26948547,0.4316864,0.24041748
15.171798999999998,0.23690796,-2.0956268,0.03944397,0.14939879999999997,0.27023315
18.595505,0.6750488,4.979233,0.058624268,-0.12011719,0.35333252
17.5253,-3.3783263999999997,10.471527,0.035186768,-0.13928223,0.5418854000000001
7.2015076,-4.060683999999999,4.699112,0.09271239999999999,-0.013595581,0.62390137
1.0292511,0.86898804,-0.21139526,0.14703369,0.052459717,0.5227050999999999
8.690704,5.8201904,3.2985077000000005,0.14170837,0.13768005,0.38848877
17.60431,1.2113495,6.501953,0.18325806,0.28256226,0.30752563
19.100693,-4.771758999999999,4.866699,0.33772278,0.31132507,0.22230529999999998
12.334671,-4.120529,4.332794,0.52201843,0.12382507,0.09553528
8.705063,-0.25151062,2.8220520000000002,0.57847595,-0.26498413,0.0018005370999999999
8.080169999999999,0.38536072,2.015213,0.55822754,-0.60588074,-0.11645508
7.1464386,-0.75668335,1.8691711,0.5411835,-0.31506348,-0.29115295
6.0498962,-1.1182098,1.5100403,0.45277405,0.052459717,-0.48289490000000007
5.207138,-1.1517181,1.5890503,0.41441345,-0.27883909999999995,-0.44348145
4.5247803,-1.4414215,1.7733917000000001,0.3387909,-0.24368286,-0.24215698
4.539154,-2.020813,1.9912720000000002,-0.16401672,-0.18508911,0.14134216
5.283752400000001,-2.3895264,1.3687744,-0.49957275,-0.18190002,0.3714447
5.966095,-1.4462128,-0.005493164,-0.35682678,0.18028260000000002,0.22976685
6.4712677,-0.6561279000000001,-1.4563751,3.0517577999999997e-05,0.6330260999999999,0.10939026
8.544647,-1.1182098,-0.7237549,0.03944397,0.14086914,0.36717224
9.753722999999999,-1.2451018999999999,1.3879242,-0.0990448,-0.31825256,0.53656006
10.859848,-0.51246643,0.73431396,-0.38665770000000005,-0.5046692,0.79541016
12.971527,0.39013672,-0.69262695,-0.3078308,-0.12223816,0.90727234
14.297913000000001,1.1443176000000002,-2.107605,-0.18745422,0.34753418,0.51312256
14.941956,-0.62979126,-3.5752410000000006,-0.7062378,0.05671692,-0.13349915
14.831818,-3.9888458,-0.82910156,-0.86602783,-0.06365967,-0.357193
14.408051,-6.272918700000001,5.7429809999999994,-0.7115630999999999,-0.059387207000000004,-0.41578674
12.088074,-1.3001709,7.3614654999999996,-0.44631958,-0.092422485,-0.46479797
8.606902999999999,2.9567259999999997,4.2035065000000005,-0.26734924,0.03755188,-0.3731842
6.51915,2.453949,1.7614288,-0.25030518,0.33901978,-0.25706482
10.582123,-3.091034,3.8156586000000003,-0.3621521,0.6884155,-0.23788452
16.75676,-4.359955,3.8946532999999994,-0.51875305,0.9494171,-0.2559967
16.012161,-0.74949646,3.2889252,-0.7073059,0.8556671,-0.18888855
13.06012,-1.5707091999999998,2.925003,-0.9118347,0.63516235,-0.10473633
10.6371765,-1.9992676,2.556305,-0.96829224,0.44554138,0.027359009
8.448883,-1.2714386,1.4980621,-0.9075774999999999,0.28042603,0.12643433
6.89505,-0.6680908,0.64094543,-0.9395294,-0.12651062,0.16052246
5.8535614,-0.16531372,0.30096436,-1.0492553999999998,-0.61013794,0.03161621
5.415436,0.13874817,0.49011229999999995,-0.89372253,-0.16699219,-0.14627075
4.4266205,0.36141968,0.7558594,-0.54751587,0.17922974,-0.17610168
3.9789123999999996,0.7947693,0.46617126,-0.23858643,-0.24900818,-0.26132202
4.7737885,0.7013855,0.3751831,-0.119277954,-0.31825256,-0.4477539000000001
6.4161987,-0.49092102,0.88035583,0.037322997999999996,0.15898132,-0.7342987
7.1153107,-1.2881927,1.4334258999999998,0.31214905,-0.38110352,-1.1838378999999999
7.8263855,-1.0224304,0.27223206,0.108688354,-0.9776459000000001,-1.089035
10.799988,-0.07194519,-0.24971008,-0.35150146,-0.6602020000000001,-0.5478821
14.372131,-1.5778961,2.0774689,-0.44525146,0.46791077,-0.5042114000000001
15.281937,-4.2593994,2.391098,-0.38665770000000005,0.7235718000000001,-0.51805115
15.087997,-3.4094542999999997,-0.9703521999999999,-0.04257202,0.34007263,-0.34014893
15.911605999999999,-0.34008790000000005,-0.055770874000000005,0.38992309999999997,0.08868408,-0.0834198
16.85971,-0.40711975,6.346328700000001,0.5230713,-0.09667969,0.35865784
11.087296,-1.0583496000000001,6.118881,0.44638062,-0.1446228,0.5887604000000001
5.2334747,0.24888611,1.747055,0.28019714,-0.1765747,0.5812988
6.792099,2.3773346,2.1349182,0.08631897,-0.038085938,0.43641663
14.575638,-0.15333557,6.679123,-0.020202637,0.153656,0.28089905
18.272292999999998,-4.166030999999999,6.794036999999999,0.022399902000000003,0.35499573,0.15838623
13.570084,-4.5874023,6.1475983,0.23971558,0.42742920000000006,0.034820557
9.452057,-1.3695983999999999,4.7374268,0.45489502,0.20904541,-0.05467224
9.933289,0.0501709,2.841217,0.48791504,0.031158447000000002,-0.11538696
8.223831,-0.19883728,1.8141022,0.60617065,0.11956787,-0.17184448
6.523941000000001,-0.13418579,1.110199,0.7670288000000001,0.026885986,-0.27836609999999995
5.501617400000001,0.09805298,0.9330291999999999,0.7691498000000001,-0.676178,-0.26771545
4.800125,-0.44543457,1.026413,0.74998474,-0.8785858,0.038009644
4.338043,-1.3743896,1.3616028,0.41336059999999997,-0.22024536,0.24467468
3.9765167000000003,-2.2195435000000003,1.4118805,-0.16294861,-0.18615723,0.46945190000000003
4.8144836,-2.774994,0.30815125,-0.36854553,-0.1296997,0.55892944
6.8184357,-1.7574615000000002,0.18603516,-0.19491577,0.54248047,0.2926178
8.511139,-1.4414215,1.5531311,-0.07772827,0.294281,0.37463379999999996
9.009125,-1.7933655,2.3168792999999996,-0.12034607,-0.45567322,0.70274353
7.8958282,-0.6345824999999999,-0.16830444,-0.20236206,-0.54515076,0.9200591999999999
11.226150500000001,0.631958,-1.9711304,-0.29397583,-0.12437439,1.013794
15.023360999999998,1.6375275,-1.5737,-0.37174988,0.41677856,0.5983429
17.23082,1.1658629999999999,-2.4164581000000003,-0.9256897,0.200531,-0.006729125999999999
17.324188,-1.7837982,-2.6869965000000002,-1.2868042,0.009841919000000001,-0.2549286
14.422409,-4.1420746,4.2897034000000005,-1.3177032,0.053527832000000004,-0.43603516
10.476776,-2.171646,7.9815674,-1.0748138,0.08015442,-0.5766449
8.152008,1.4028931,5.0534514999999995,-0.8031769,0.13554382,-0.5244446
6.918991,1.9415894,1.6536865,-0.67214966,0.2548523,-0.39555359999999995
10.869415,-1.7909698,3.106964,-0.66256714,0.46365356,-0.31672668
16.246796,-2.597824,4.541092,-0.74671936,0.7193146,-0.28689575
15.281937,0.81152344,3.430191,-0.8596344000000001,0.83543396,-0.15054321
13.87175,-1.0415955,2.7310790000000003,-0.92781067,0.76937866,0.023101807000000002
12.550156,-3.2610167999999997,2.7837523999999996,-0.92141724,0.6522064000000001,0.102996826
9.131226,-2.039978,2.355194,-0.8319397,0.46577454,0.15092468
7.0698240000000006,-1.1206055,1.6872101000000002,-0.6646880999999999,-0.080703735,0.21591187
6.088196,-0.78541565,1.2323151,-0.5059662,-0.9020233,0.1711731
5.5135955999999995,-0.5890808000000001,0.93063354,-0.34617615,-0.78697205,0.006057739300000001
4.7905426,-0.20600891,0.85401917,-0.088378906,-0.09667969,-0.13882446
4.1488953,-0.06954956,0.58587646,0.16088867,-0.07963562,-0.34228516
4.6397095,-0.12939453,0.32969666,0.24078369,-0.35980225,-0.50527954
5.949341,-0.5819092,0.67684937,0.21095276,-0.07110596,-0.51379395
6.322830000000001,-1.1349639999999999,2.331253,0.28019714,0.22822571,-0.6309661999999999
5.908630400000001,-1.352829,2.6568604,0.37713623,-0.4226532,-0.98783875
8.530289,-0.8931427,0.66967773,0.12680054,-0.78271484,-0.91433716
13.017014,-1.0224304,1.110199,0.16088867,-0.36724854,-0.7300415
16.062439,-2.7055664,1.7350922,0.14703369,0.26870728,-0.79182434
16.440735,-3.2131347999999997,-0.80755615,0.108688354,0.24526978,-0.35614014
15.116729999999999,-0.5076904000000001,-3.2640076000000002,0.32814026,0.07376099,0.09020996
14.637894000000001,1.8769379000000002,0.37039185,0.5614319000000001,-0.07005310000000001,0.42897034
14.637894000000001,-0.16770935,7.071762,0.6306609999999999,-0.14035034,0.71232605
8.47522,-2.3392487,5.991974,0.57315063,-0.14994812,0.73683167
5.4417725,-2.1644745,4.4094086,0.49963379999999996,-0.1797638,0.61431885
9.531067,-1.5515594,3.8467712,0.4410553,-0.13076782,0.5067291
14.142288,0.6822357,6.317596400000001,0.39950562,0.069503784,0.47370909999999994
15.217285,-1.3001709,6.003952,0.32919312,0.27189636,0.41937256
12.377761999999999,-2.0351868000000004,5.2473906999999995,0.24290466,0.17070007,0.22230529999999998
10.874207,-1.3193207,3.6887665000000003,0.31002808,-0.17764282,-0.13882446
9.756119,-1.3336792,2.2426605,0.26101685,-0.23835754,-0.28157043
7.756958,-1.0224304,1.6752319,0.21948242,0.23994446,-0.19207764
6.5263367,-0.79977417,1.4358215,0.30149840000000006,0.12489319,-0.13349915
5.6428833,-0.7111969,1.2801971,0.33239746,-0.65701294,-0.06425476
4.7737885,-0.6369629,0.9330291999999999,0.39950562,-0.53663635,-0.007797241
4.0579224,-0.62020874,0.56433105,-0.018081665,-0.16059875,0.20951843
4.907852,-0.9362488000000001,0.78219604,-0.39198303,-0.080703735,0.5472107
6.076233,-1.4916992,-0.19224548,-0.26948547,0.27722168,0.43215942
7.0267334,-0.19883728,-1.4252625,-0.011688232,0.7235718000000001,0.23402405
9.04982,0.18423462,0.9450073,-0.012756348,-0.23410034,0.5610504
9.023483,-1.2905883999999999,1.9912720000000002,-0.011688232,-0.59628296,0.78796387
10.141586,-1.6952057,0.0040893555,-0.21408081,-0.418396,0.9924927
13.388123,-0.6441498000000001,-1.7604369999999998,0.026657103999999997,0.17602539,0.8678589
14.989838,0.91926575,-3.0581055,-0.064956665,0.2782898,0.34693909999999994
16.728026999999997,-0.16531372,-3.6590423999999997,-0.5581665,-0.037017822,-0.13775635
16.625076,-3.7446442,-0.28800964,-0.77227783,-0.07005310000000001,-0.4424286
12.358611999999999,-4.7621765,7.881011999999999,-0.74246216,-0.1765747,-0.6554718
9.080948,-0.54119873,8.027054,-0.54112244,-0.13395691,-0.62991333
7.567810000000001,1.8984832999999999,2.8148804,-0.3302002,-0.023178099999999997,-0.38809204
8.697875999999999,1.0341797,2.7191009999999998,-0.21940613,0.30812073,-0.2517395
14.616348,-3.8835144,4.55307,-0.27587890000000004,0.8290405000000001,-0.2709198
17.008148000000002,-2.5810547,3.2745667000000003,-0.49745178,1.0814972,-0.21446228
14.245239000000002,-0.67048645,2.0559081999999997,-0.8543091,0.9707184000000001,-0.07171631
12.327484,-1.6233826,2.2953339,-1.2090454,0.62023926,-0.008865356
9.904556,-1.5419768999999999,2.0080261000000004,-1.3198242,0.34220886,-0.03656006
7.179962,-0.85484314,1.6082001,-1.1845398,0.19200134,0.1285553
6.468872,-0.9290619000000001,1.0407715,-1.0066376,-0.418396,0.30859375
6.344375599999999,-1.2834014999999999,-0.12042236,-0.7477875,-0.55474854,0.24041748
5.4585266,-0.6752776999999999,-0.18745422,-0.29185486,0.13981628,0.040145874
4.4601440000000006,0.28001404,0.042388916,0.18005371,0.06524658,-0.26985168
4.2087555,1.2233276000000002,-0.024642944,0.26315308,-0.41412354,-0.5734558000000001
4.953354,1.8027191000000002,0.22674560000000002,0.08418274,-0.14994812,-0.626709
5.3316345,1.0533295,1.1437225,0.2769928,-0.051940917999999996,-0.91752625
5.973282,-0.38796997,2.5036316000000003,0.6264038000000001,-0.7049408,-1.2403107
9.013916,-1.2331238000000002,1.4789124,0.40696716,-1.08844,-0.96333313
13.464737,-2.7725983,1.5243988000000002,0.25994873,-0.3480835,-0.56173706
16.651413,-4.905838,2.580246,0.043701172,0.5201110999999999,-0.4935608
16.886047,-4.3479767,-0.18266296,0.056488037000000005,0.30065918,-0.23043823
14.28595,-0.20840454,-3.2927399,0.43252563,0.050323485999999994,-0.035491943
14.470305999999999,2.6742096,1.6967773000000002,0.7563629,-0.19255066,0.3480072
13.560501,0.27043152,8.302383,0.82987976,-0.29588318,0.66970825
8.410568,-3.7566222999999996,5.0414886,0.8628998,-0.25646973,0.74427795
4.515213,-3.035965,1.7087555,0.9427948,-0.15739441,0.6686554
8.903777999999999,0.42845154,3.1764069,0.9449158000000001,0.0023956299,0.56318665
15.779922500000001,0.98150635,7.6176452999999995,0.9523773000000001,0.24101257,0.47477722
16.60353,-2.6672516,6.2266083,0.9790039,0.38694763,0.33203125
12.1862335,-2.6792297,5.7334137,0.9960479999999999,0.34541320000000003,0.14666748
10.804779,-1.3121338,3.5475006000000002,0.94918823,0.20372010000000002,-0.07171631
10.002716,-1.292984,1.8260651,0.78086853,-0.19575499999999998,-0.29008484
8.286072,-1.5515594,1.4190521,0.55503845,-0.5462189000000001,-0.322052
6.9213867,-1.4510040000000002,1.1317443999999999,0.35050964,-0.39707947,-0.2602539
6.2845306,-1.055954,0.85162354,0.27487183,-0.31825256,-0.181427
5.66922,-1.0032806,0.8157196,0.23013306,-0.37045288,-0.084487915
4.7187195,-1.1876373,0.7175598000000001,0.025604248,-0.29055786,0.23295593
4.6397095,-1.4486084,0.16688538,-0.18426514,-0.14674377,0.60899353
5.6716156,-0.9817351999999999,-0.17547607,-0.1821289,0.294281,0.5184479000000001
5.9517365,0.69898987,-0.44842529999999997,-0.01701355,0.68096924,0.32989502
6.4066315000000005,1.2616272,-0.9703521999999999,-0.21940613,0.03967285,0.67930603
8.305237,0.5433655,0.073516846,-0.39305115,-0.54089355,0.9743805
10.912521,-0.7447052,0.5619354,-0.30036926,-0.15527344,1.0340424000000001
13.407272,-0.6824646,-1.1403503000000001,0.04902649,0.4540558,0.86997986
15.145462,-0.3496704,-2.9192352,-0.13313293,0.3251648,0.38528442
16.423965,-1.6377411,-4.2001343,-0.5954437,0.01411438,-0.09088135
16.218063,-3.7709808,-0.19224548,-0.7946625,-0.038085938,-0.4477539000000001
13.541351,-2.3488312000000002,6.200271599999999,-0.7200928000000001,-0.17231749999999998,-0.64907837
9.792023,1.1083983999999998,6.169159,-0.47187805,-0.12544249999999998,-0.5947571
7.381073,1.536972,2.1780242999999997,-0.27053833,0.021560668999999998,-0.4424286
8.858292,-0.8117523,3.600174,-0.18426514,0.20692444,-0.31565857
14.989838,-4.57782,5.5059510000000005,-0.23432922,0.48814392,-0.21765137
16.79747,-1.0200348,3.537918,-0.37600708,0.7193146,-0.08023071
15.068848000000001,0.42366028,2.1899872000000005,-0.5720215,0.76405334,0.091278076
12.636337,-1.7119598000000003,2.264206,-0.7850647,0.69055176,0.18182373
9.966812,-1.5108489999999999,1.8188933999999997,-0.9544524999999999,0.59147644,0.18608093
7.9772186000000005,-1.0344086,1.1796417,-1.0055847,0.35499573,0.2542572
6.215088,-1.1062317,0.8348694,-0.99812317,-0.230896,0.29473877
4.941375700000001,-0.7878113,0.35124207,-0.89372253,-0.37684629999999997,0.07102966
4.0579224,-0.10305786,0.3129425,-0.43885803,0.08441162,-0.13349915
3.4809113,0.46914673,0.0064697266000000005,0.108688354,0.03967285,-0.18249512
4.038757299999999,0.9360199,-0.31674194,0.21308899,-0.36087036,-0.357193
6.203125,0.96954346,-0.050979614000000006,-0.04045105,-0.28416443,-0.7108612
7.754562400000001,0.4452057,0.67684937,0.056488037000000005,0.18241882,-1.0453644
7.352340700000001,-0.44543457,1.2945556999999999,0.6040344,-0.00932312,-1.2520294
8.159180000000001,-1.6808471999999999,0.37757874,0.57740784,-0.7283783,-1.0474854
11.4991,-1.941803,1.7877655,0.3941803,-0.27565002,-0.63949585
14.113570999999999,-3.1006012000000003,3.4206084999999997,0.024536132999999998,0.61598206,-0.47224426
15.657822,-3.9026642,0.45658875,-0.121414185,0.48176575,-0.41792297
16.689728,-1.1062317,-3.3286437999999996,0.14170837,0.17070007,-0.21018982
15.600357,2.1331177,-1.3414612,0.37927246,-0.07324219,0.17543029999999998
14.731262,0.9791107,6.255340599999999,0.38671875,-0.26818848,0.52163696
9.717804,-3.4549407999999997,7.5434265,0.31002808,-0.32678223,0.65586853
5.0706635,-3.3950958,3.4397583,0.31854248,-0.32997129999999997,0.6121979000000001
8.515915,-0.8500519,3.2985077000000005,0.421875,-0.16804504,0.4768982
16.704086,1.7404785,7.047821000000001,0.550766,0.07589722,0.42790222
16.445510000000002,-1.2905883999999999,6.078171,0.68499756,0.20159912,0.31924438
11.965958,-2.3224945,5.3240050000000005,0.7244109999999999,0.20266724,0.20951843
10.376221000000001,-1.2594604,3.5355377,0.5475769,0.052459717,0.04121399
9.176727,-1.2307281,1.9050751,0.38992309999999997,-0.43009949999999997,-0.21446228
7.287689,-1.1660919,1.6488953000000002,0.43785095,-0.38110352,-0.25813293
6.160019,-1.3049469,1.699173,0.5390625,0.036483765,-0.23255920000000002
5.0515137,-1.2139739999999999,1.402298,0.6157531999999999,-0.22024536,-0.19741821
4.768997,-0.7830199999999999,1.2203369,0.5379944000000001,-0.38110352,-0.09727478
4.4888763,-1.2067871000000001,0.78219604,0.19177246,-0.32571409999999995,0.29048157
4.4409943,-1.7287292,0.016052246000000003,-0.08518982,-0.1765747,0.71765137
5.6404877,-0.9649810999999999,-0.3047638,-0.19598389,0.3805542,0.58343506
6.514374,0.04777527,-0.85543823,-0.22579956,0.549942,0.43322754
8.025116,0.04777527,-0.25448608,-0.2524414,-0.27565002,0.6004791
9.497542999999999,-1.3983306999999998,1.3017426,-0.13418579,-0.61120605,0.66226196
11.630783000000001,-2.1213683999999997,0.7151642,0.0010986328,-0.11904907,0.9338989
14.001038000000001,-0.4885254,-1.087677,0.1395874,0.5669860999999999,0.9615935999999999
14.941956,0.87376404,-3.0126037999999995,-0.22047424,0.36671448,0.4183197
16.759155,-1.1660919,-3.9678955,-0.54219055,0.1174469,-0.06851196
16.876465,-3.6919708,0.79177856,-0.6657562,0.03327942,-0.5084685999999999
12.763228999999999,-2.0926514,7.2201996,-0.6188812,-0.09347534,-0.71832275
9.121658,0.58647156,6.8682555999999995,-0.48680115,-0.1563263,-0.63949585
6.811249,1.1491089,2.0846405,-0.4559021,-0.068984985,-0.48396300000000003
9.50473,-1.4581757,3.0207825,-0.5208893,0.18562317,-0.36465454
16.464676,-3.8140717000000004,4.624893,-0.6785431,0.48709106,-0.35293579999999997
16.251587,-1.1229858,3.3415985,-0.82554626,0.69374084,-0.17823792
13.608382999999998,-0.83569336,2.5443267999999994,-0.92355347,0.7502135999999999,0.07316589
11.293198,-1.4964905000000002,2.3839264,-0.9395294,0.7523346,0.098739624
8.281296000000001,-0.4885254,2.1133728,-0.9107665999999999,0.664978,0.067840576
6.3348083,-0.2419281,1.3951111,-0.91716003,0.39120483,0.19247437
5.1257324,-0.29699707,0.73191833,-0.9160919,-0.19041443,0.24467468
4.745056,-0.05038452,0.3656006,-0.63912964,-0.18083191,0.024169922000000003
4.4481660000000005,0.5673064999999999,0.521225,-0.29292297,0.0077209473,-0.13456726
4.709137,0.79714966,0.24589539,-0.029800415,-0.26393127,-0.322052
6.0235596,0.5122528000000001,-0.21858215,0.09057617,-0.31718445,-0.56492615
6.99321,-0.31135559999999995,-0.21139526,0.014938354499999999,0.26763916,-0.7119293000000001
6.7346344,-1.0056763000000002,0.49249268,0.38565063,0.25379944,-0.9750519
7.1727753,-0.8213196,1.0958405,0.65623474,-0.70921326,-1.2658691
9.878219999999999,-0.7159729,0.89712524,0.34197998,-1.1789856,-1.0602722
13.534164,-1.7837982,1.8547973999999998,0.19816589999999998,-0.33210754,-0.6288451999999999
15.032944,-3.9266052000000005,1.505249,0.038375854,0.6958771,-0.36997986
15.629089000000002,-3.2993163999999995,-1.5617218000000002,-0.009552001999999999,0.49348450000000005,0.02949524
15.114334,-0.11503601,-3.261612,0.38139343,0.16430664,0.051864624000000005
15.827805,1.8984832999999999,3.9401550000000003,0.6636963,-0.10626221,0.32350159999999994
14.089615,-1.9537811,10.775589,0.7457123000000001,-0.22451782,0.5653229000000001
7.924545299999999,-4.711899,5.853119,0.85650635,-0.2000122,0.64201355
3.4042969,-2.1046142999999997,1.8787383999999998,0.9800719999999999,-0.09667969,0.7048645
9.430511,3.1171417000000003,4.2226715,1.0045776,0.046066284000000006,0.6686554
17.178145999999998,1.1275635,6.873047,0.9949950999999999,0.2239685,0.53868103
17.740783999999998,-3.071869,5.6615753,0.9896698,0.3486023,0.35333252
11.355438000000001,-2.1381377999999995,5.256958,0.98220825,0.38694763,0.1477356
9.078552,-1.1541138000000002,3.3176574999999997,0.87887573,0.247406,-0.018447876000000002
7.8263855,-1.2738341999999998,2.0798492,0.7521057,0.28894043,-0.05039978
6.397049,-1.5012816999999998,1.8955078,0.69351196,0.42636108,-0.09727478
5.834411599999999,-1.427063,1.3663788000000001,0.56248474,-0.39601135,-0.16865539999999998
5.3675385,-0.9577941999999999,1.0982361,0.53053284,-1.089508,-0.07064819
5.2526245000000005,-0.76387024,0.6098175,0.35688782,-0.5568695,0.058258057
5.173614499999999,-1.1325684,0.24110413,-0.21195984,-0.2511444,0.31178284
5.626114,-1.3025513000000002,-0.23533629999999997,-0.49638367,-0.18722534,0.43748474
6.7585754,-0.12460327,-0.5130615,-0.29504395,0.5073242,0.3948822
8.310013,0.9168700999999999,0.37757874,-0.20343018,0.48602295,0.6867523
8.635635,0.03100586,2.4270172000000003,-0.1309967,-0.7422333000000001,1.0350952
7.1823425,-0.92427063,0.99528503,0.013885498000000001,-0.87965393,1.2257843000000002
10.373825,-0.99609375,-1.8825531000000002,0.120407104,0.106781006,1.2470856000000001
14.508606,0.20339966,-2.3182982999999995,-0.09370422,0.5776366999999999,0.74427795
16.716064000000003,0.9216614,-2.7253112999999995,-0.6700134,0.09613037,0.030563353999999997
17.460663,-0.9506073,-2.3973082999999997,-0.9118347,-0.016784668,-0.37423706
15.238845999999999,-3.5746613,3.8419952000000004,-0.9331360000000001,-0.102005005,-0.6054076999999999
10.373825,-2.0495453,10.36618,-0.7435303000000001,-0.23516846,-0.68955994
7.326003999999999,0.7325134,5.48201,-0.567749,-0.26072693,-0.63630676
7.165588400000001,0.7995453,1.5555267,-0.42074585,-0.07110596,-0.47224426
12.839844,-2.8085175,4.280121,-0.31954956,0.30918884,-0.2559967
18.10231,-1.6233826,4.976837000000001,-0.29292297,0.70440674,-0.11431885
16.723236,0.43563843,3.3224487000000003,-0.29824829999999997,0.9004059000000001,0.06890869
13.057724,-1.8412476000000002,3.0112,-0.38346863,1.0197144,0.17649841
10.311569,-1.7622375,3.0878143,-0.5539093,1.030365,0.12536621
8.147217,-1.0463715,2.3144836,-0.71476746,0.6969451999999999,0.046539307
6.511978,-0.6154175000000001,1.5196075,-0.8873290999999999,-0.0008087158,0.04121399
5.2765656,-0.59147644,1.1748505,-0.9065094000000001,-0.8221283000000001,0.032684326
4.682800299999999,-0.7662505999999999,0.8564148000000001,-0.5869293000000001,-0.5813751,-0.008865356
4.6253357,-0.81414795,0.5882721,-0.1267395,0.032211303999999996,-0.09194946
5.2167053,-0.5819092,-0.103652954,0.24824524,-0.13076782,-0.28796387
5.908630400000001,-0.19644165,-0.51545715,0.37181090000000006,-0.3289032,-0.51272583
6.2964934999999995,0.026229857999999998,0.20759583,0.21734619,0.18774414,-0.624588
6.4114227,-0.28262329999999997,1.2275238000000002,0.2418518,0.30812073,-0.81100464
6.57901,-0.34248352,1.5531311,0.27806090000000006,-0.6964264,-1.0762482
8.841536999999999,-0.50289917,1.074295,0.15023804,-1.058609,-0.9793091
12.677048,-1.9657593,1.9984589,0.20455933,-0.30441284,-0.76626587
15.384888,-4.388687,1.8260651,0.09057617,0.44128418,-0.6277771
16.95308,-3.9601288,-1.3270874,0.09271239999999999,0.17283629999999997,-0.18035889
16.371292,-0.625,-4.257599,0.32814026,-0.13076782,0.10511780000000001
14.831818,2.0014343,1.5004578000000002,0.5252074999999999,-0.36724854,0.38209534
12.454376,0.43803406,8.826721000000001,0.55610657,-0.45993042,0.6462859999999999
7.5175323,-2.2195435000000003,7.1555634,0.550766,-0.44395447,0.70806885
5.645279,-3.2107391,3.6169279999999997,0.5955199999999999,-0.31079102,0.6675873000000001
9.873428,-1.5778961,3.758194,0.66474915,-0.14674377,0.5461425999999999
15.121521,1.2137451000000001,7.414139,0.6999054,0.153656,0.43536377
14.989838,-1.3049469,6.2625275,0.7286682,0.36671448,0.37037659999999994
11.987518,-2.0471497,5.355118,0.7723541,0.33369446,0.17329407
11.163910000000001,-1.4749451,3.4325867,0.7744751,0.13128662,-0.005661010699999999
9.64119,-1.3743896,2.0247955,0.7521057,-0.22877502,-0.17184448
7.816818,-1.4940948,1.4238434,0.63705444,-0.1765747,-0.25813293
6.804061999999999,-1.1852417,1.3137054,0.44744873,-0.37791443,-0.18782043
6.4257812,-0.73753357,0.9138794,0.48153687,-0.58883667,-0.086624146
5.377121,-0.66329956,0.59306335,0.33346558,-0.23835754,-0.03656006
5.0036316,-1.0463715,0.5236206,-0.11288452,-0.029571532999999997,0.26704407
4.326065,-1.4294434,0.2674408,-0.33872986,0.21011353,0.5152588
4.804901,-0.76387024,-0.4699707,-0.19064331,0.70440674,0.3714447
6.871109,0.339859,-1.0613403000000001,0.045837402,0.44021606,0.26811218
7.677948,0.27282715,0.5595398,0.09590149,-0.24900818,0.58236694
8.187911999999999,-0.7662505999999999,0.66967773,0.022399902000000003,-0.39707947,0.8305664
11.688232000000001,-1.3767853,-0.7237549,-0.16189575,-0.18722534,1.0233765
15.210114,-0.11503601,-2.059723,-0.012756348,0.32090759999999996,0.9807739
17.685715,0.36141968,-3.3166809999999995,-0.26948547,0.31132507,0.4300232
16.328201,-2.0232086,-3.3190765,-0.67108154,0.08761597,-0.11218262
13.505432,-4.565857,2.0343628000000002,-0.8053130999999999,0.12702942,-0.47117615
10.993912,-3.7111205999999997,7.016692999999999,-0.7637634,0.09187317,-0.7566681
9.040253,0.36141968,5.9895935,-0.6061095999999999,0.12277222,-0.76519775
8.187911999999999,2.532959,2.573059,-0.49105835,0.19094849,-0.56385803
8.7864685,1.1586761,3.0016173999999998,-0.5059662,0.35925293,-0.41685486
13.737670999999999,-3.593811,4.351959,-0.6369934,0.55952454,-0.34014893
16.378479000000002,-2.2458801,3.3655396,-0.7861328000000001,0.6703186,-0.20912170000000002
14.472686999999999,-0.42388916,2.319275,-0.89585876,0.6522064000000001,-0.044006348
12.38974,-1.4797363000000001,2.1516876,-0.9256897,0.6234436,0.053985596
9.638794,-1.3073424999999999,2.039154,-0.91929626,0.64793396,0.13708496
6.859131,-0.8404845999999999,1.6488953000000002,-0.84046936,0.43914795,0.25958252
5.6835785,-0.6968231,1.0766907,-0.7328644,-0.23942566,0.25639343
5.5064087,-0.53163147,0.8061371,-0.49638367,-0.47697449999999997,-0.008865356
5.106582599999999,-0.11264038,0.66249084,-0.036193848,-0.12863159,-0.21232605
4.644500700000001,0.19142151,0.16209412,0.36860657,-0.06472778,-0.25280762
5.8415985,0.33746338,0.035202026000000004,0.5230713,-0.28948975,-0.3966217
7.654007000000001,-0.14376831,-0.24971008,0.46342468,-0.031692505,-0.5819701999999999
8.128052,-0.46937559999999995,0.23153687,0.6349335,0.3805542,-0.7779845999999999
6.954895,-1.3384705,1.2969513000000001,0.92681885,-0.14994812,-1.1508178999999998
7.637253,-2.482895,0.82051086,0.6306609999999999,-0.7028198,-1.0453644
11.724152,-2.142929,1.639328,0.36009216,-0.69429016,-0.5958251999999999
14.944351000000001,-2.633728,2.494049,0.20243835,0.22076416,-0.47756958
16.174973,-3.0239868,0.17646789999999998,0.0650177,0.5904235999999999,-0.36572266
15.375304999999999,-1.0080719,-3.3621673999999997,0.18432617,0.29321290000000005,-0.16438293
14.755203,1.2424773999999998,-0.2712555,0.39631653,0.01411438,0.18395996
15.976257,-0.54119873,7.902557400000001,0.4026947,-0.13928223,0.5024719
10.390578999999999,-3.6656342000000004,7.057403599999999,0.38565063,-0.13183594,0.56851196
4.4338074,-2.123764,4.481247,0.39524840000000006,-0.09135437,0.5503998000000001
6.1025696,0.9001007,3.9569092000000006,0.41973877,-0.008255005,0.48435974
14.714507999999999,1.4914703,6.169159,0.46128845,0.09719849,0.40660095
16.890839,-1.269043,6.27211,0.5454406999999999,0.20692444,0.31178284
11.388962,-1.2331238000000002,5.9153595,0.58273315,0.20799255,0.16584778
9.385010000000001,-0.7878113,4.126892,0.45277405,0.0087890625,-0.003540039
8.944489,-1.079895,2.307312,0.37606812,-0.34594727,-0.09194946
7.318817,-0.99609375,1.7398833999999999,0.35795593,-0.31825256,-0.11538696
5.666824299999999,-0.97694397,1.7518463,0.32279968,-0.41519165,-0.13243103
5.0203857,-0.87638855,1.5627136000000001,0.3153534,-0.79229736,-0.12817383
4.9940489999999995,-0.62260437,1.3927155,0.25143433,-0.56326294,-0.04827881
5.2909239999999995,-1.5132446000000002,1.3017426,-0.06921387,-0.2969513,0.30645752
5.568664599999999,-1.9873047,0.037597656,-0.32487488,-0.17443848,0.75387573
6.0977783,-1.190033,-0.043807982999999995,-0.31848145,0.35499573,0.61964417
6.9812316999999995,0.48591614,0.044784545999999995,-0.22047424,0.70973206,0.34268188
8.132843,0.5098572,0.81811523,-0.16401672,-0.15420532,0.6175232
9.066589,-0.9889220999999999,1.244278,0.017074585,-0.5813751,0.71658325
11.470367,-1.5347899999999999,-0.50827026,0.07885742,-0.21066284,0.78582764
14.060898000000002,0.03579712,-1.5329895,0.16940308,0.34220886,0.81033325
15.097579999999999,0.38056946,-2.5457457999999997,-0.1309967,0.1770935,0.46838379999999996
16.787888,-1.8891449,-3.740448,-0.40370178,0.05671692,-0.028030396000000003
17.403198,-4.4964294,0.19322205,-0.48466492,0.055648804,-0.40834045
13.007446,-2.9042816000000005,7.143585000000001,-0.36535645,-0.06259155,-0.6192626999999999
9.320374000000001,0.42845154,7.038253999999999,-0.14164734,0.0023956299,-0.5574646
6.990814,1.0748901000000002,2.6616516,3.0517577999999997e-05,0.15686035,-0.33909607
8.04187,-0.40951538,2.8938904,-0.022338867000000002,0.31665040000000005,-0.23150635
14.776764000000002,-3.0072327000000003,4.881073000000001,-0.19171143,0.48814392,-0.24641418
16.84056,-1.4174805,3.92099,-0.36747742,0.6266326999999999,-0.13775635
13.653870000000001,-1.0751038,3.0471191,-0.548584,0.6031951999999999,0.035888672
11.535003999999999,-1.7957611,2.8555756000000003,-0.6593628,0.5573883000000001,0.12962341
9.272491,-1.1134186000000001,2.185196,-0.6870575,0.5467377,0.12750244
6.772933999999999,-0.8021698,1.3256836,-0.7073059,0.31132507,0.17756653
5.4992220000000005,-0.79019165,0.61221313,-0.7318115,-0.27883909999999995,0.19033813
5.288543700000001,-0.332901,0.17886353,-0.6316681,-0.33850098,0.053985596
4.634918,0.43563843,0.26026917,-0.14697266,0.016235351999999998,-0.14840698
4.338043,1.0964355,0.032806396,0.24078369,-0.33529663,-0.24002075
4.7905426,1.2664185,-0.39575195,0.22586060000000002,-0.7198639,-0.41152954
6.3348083,0.36141968,-0.41969300000000004,0.034118652,-0.16911316,-0.67144775
7.165588400000001,-0.9434203999999999,0.6002350000000001,0.18218994,0.3059845,-0.9814453000000002
7.3666990000000006,-1.3504486,1.4477844,0.46128845,-0.28416443,-1.1465607
8.88942,-1.4629669,0.78219604,0.38459778,-0.9190674000000001,-0.81207275
12.56691,-1.6042328000000001,2.8579712,0.32067870000000004,-0.46739197,-0.49249268
14.501419,-3.2274933,3.4708862000000003,0.044769287000000005,0.44660950000000005,-0.45840454
14.74324,-3.708725,-0.8219146999999999,-0.14057922,0.36883545,-0.2559967
15.619522,-0.67767334,-4.303085299999999,0.15449524,0.11317444,-0.10473633
16.85971,2.5951996,0.679245,0.48046875,-0.13290405,0.2776947
15.416016,0.70617676,8.266479499999999,0.58592224,-0.21385193,0.63349915
8.381851,-3.4549407999999997,7.1531677,0.60084534,-0.15739441,0.73150635
4.8408203,-2.7989349999999997,2.628128,0.62960815,-0.048736572,0.68569946
8.937302,0.766037,2.9968414,0.65197754,0.07057189999999999,0.5578613
15.961884,2.046936,6.7653046,0.7009734999999999,0.200531,0.42897034
17.281097,-1.6999970000000002,6.0805664,0.7712859999999999,0.25698853,0.28302002
12.143142999999998,-2.3105164,5.589752,0.8309325999999999,0.23461914,0.09020996
9.595703,-1.4222716999999998,3.648056,0.75424194,0.10784912,-0.07916260000000001
8.355514999999999,-1.3384705,1.9768982,0.66581726,0.19306946,-0.19953918
6.7226562,-1.4797363000000001,1.3975066999999999,0.5965729000000001,0.16430664,-0.25920105
5.650055,-1.3911438,1.3065338,0.5283966,-0.4737854,-0.23469543
5.049118,-1.0894774999999999,1.3687744,0.48153687,-0.61120605,-0.16438293
4.6037903,-1.0487671,1.1197815,0.0884552,-0.21066284,-0.008865356
4.515213,-1.4821167,0.84924316,-0.3302002,-0.25326538,0.38528442
4.8144836,-1.4893036,-0.5705260999999999,-0.47187805,-0.09454346,0.6121979000000001
6.562256,-0.759079,-0.6591034,-0.39305115,0.6607208000000001,0.40020752
7.759353599999999,0.36619568,0.7295227,-0.41967773,0.43807983,0.5749054
7.6803436000000005,0.011856078999999999,2.0056305,-0.42607117,-0.53770447,0.84654236
8.709854,-0.9577941999999999,0.2052002,-0.11395264,-0.7848358,0.8007354999999999
12.092865,-0.48135376,-1.5569305,0.2216034,-0.102005005,0.82844543
14.235672000000001,1.1347351,-1.9974669999999999,0.18325806,0.46897888,0.6963501
15.92598,0.38774109999999995,-3.1011963,-0.18745422,0.0471344,0.11578369
18.186096,-2.5379639,-2.7923431,-0.5549774000000001,0.03967285,-0.26771545
16.663391,-3.739853,4.2561800000000005,-0.72221375,0.036483765,-0.57450867
11.444030999999999,-0.72795105,8.831497,-0.6359253,-0.0146484375,-0.69169617
8.444092,0.7947693,5.788467400000001,-0.5251465,0.05885315,-0.5958251999999999
6.8495482999999995,-0.81892395,2.2570342999999995,-0.5315399000000001,0.16644287,-0.43496704
10.687453999999999,-3.8882904000000003,3.7797394,-0.614624,0.37522888,-0.3966217
17.886826,-1.6856232,5.312027,-0.75097656,0.58828735,-0.37530518
16.596344000000002,0.6295624,2.9034576000000003,-0.9256897,0.60214233,-0.22190857
12.440017999999998,-1.0607452,2.1804047000000004,-1.0396729,0.5307616999999999,-0.044006348
10.014694,-1.2738341999999998,2.264206,-1.0023804,0.44447327,0.006057739300000001
7.654007000000001,-0.33529663,1.5651093,-0.87028503,0.42956543,0.067840576
5.8224487,-0.1844635,1.2227325,-0.69026184,0.1451416,0.1796875
5.068268,-0.29699707,0.87557983,-0.56455994,-0.4812317,0.21272278
4.539154,-0.13897705,0.78219604,-0.32913208,-0.27883909999999995,0.10725403
4.0555267,0.25846863,0.7486725000000001,0.05116272,0.10784912,-0.01524353
4.175232,0.6606903000000001,0.22914124,0.3473053,-0.18296814,-0.17610168
5.633301,0.4452057,0.013656616000000002,0.46981812,-0.30334473,-0.4988861
7.038696300000001,-0.9601898000000001,-0.036621094,0.53160095,0.09400939999999999,-0.7502899000000001
7.665985000000001,-1.9035034,1.3927155,0.72654724,-0.11904907,-1.0943604
7.6516113,-1.8412476000000002,1.6153870000000001,0.67967224,-0.8540802,-1.3180695
9.358673,-1.9154663,0.27941895,0.31002808,-1.1800537,-0.96759033
13.242080999999999,-2.0663147,1.7087555,0.096969604,0.1685791,-0.5819701999999999
15.439957000000001,-2.7989349999999997,1.7374878,-0.19171143,0.7544708000000001,-0.2794342
16.486221,-2.2961577999999996,-1.1259766000000002,-0.13739014,0.20159912,-0.09088135
16.153427,0.06213379,-1.3965302,0.3153534,-0.19575499999999998,0.110458374
15.937942499999998,0.14593506,5.074997,0.53585815,-0.45567322,0.61431885
12.976318,-2.8468169999999997,8.697433,0.56355286,-0.51319885,0.8018036000000001
5.7099150000000005,-2.5092316,4.0933839999999995,0.57847595,-0.44288635,0.8039398
4.479294,1.8721466,1.2634277,0.5805969,-0.21598816,0.71232605
13.613173999999999,3.9718628,6.0805664,0.611496,0.0471344,0.5376281999999999
19.239548000000003,-0.97694397,7.0095215,0.69351196,0.20478821,0.38528442
14.434387,-3.0551147000000003,6.2218323,0.73612976,0.29000854,0.22230529999999998
9.356277,-1.1732788,4.758972,0.7254791,0.19200134,0.03694153
9.452057,-1.2235565000000002,2.4772950000000002,0.6210785,-0.031692505,-0.11325073
7.8072357000000006,-1.3767853,1.4765167,0.49751282,0.050323485999999994,-0.17077637
6.140869,-1.0439911,0.9833069,0.41015625,0.13235474,-0.2517395
5.2598114,-0.6106262,0.9545745999999999,0.38565063,-0.3480835,-0.28050232
4.6229553,-0.6178130999999999,1.2251282,0.41548157,-0.42584229999999995,-0.18035889
4.5822449999999995,-1.0990448,0.80374146,0.09164429,-0.21385193,0.028427123999999998
4.903076,-1.6305695,0.15731812,-0.31634520000000005,-0.13076782,0.43855286
5.700332599999999,-1.6640778000000003,-0.70700073,-0.43460083,0.23143005,0.58236694
7.223053,0.26564026,-1.2648468000000002,-0.37174988,0.7629852,0.4300232
8.796036,0.8163147,0.111816406,-0.325943,-0.029571532999999997,0.648407
9.016312,-1.0032806,2.027176,-0.100097656,-0.7113341999999999,0.76026917
9.351500999999999,-2.288971,0.6170044,0.03944397,-0.45460509999999993,0.72618103
12.514236,-1.3121338,-1.3438568000000002,0.20669556,0.35073853,0.78689575
14.393692000000001,0.9647522,-2.4858856,0.010681152,0.54566956,0.53868103
16.48143,0.11480713,-3.321457,-0.44099426,0.11424255,0.091278076
17.92035,-3.1245422,-1.0565491000000002,-0.6838684,0.057785034000000006,-0.17077637
14.360168,-3.5148010000000003,7.059799000000001,-0.7062378,0.022628784,-0.43070984
10.052994,-0.3209381,8.374207,-0.5357970999999999,0.07801819,-0.5532074
7.795273,0.63435364,2.7909393,-0.3621521,0.24526978,-0.4754486
7.191925,-0.8500519,1.2155457,-0.29292297,0.42636108,-0.36891174
12.315521,-3.4214325,3.8348082999999997,-0.30569458,0.6692505,-0.28263855
16.488617,-1.000885,4.0407104,-0.38986206,0.8556671,-0.13243103
14.918014999999999,0.9001007,2.8627625,-0.54751587,0.8364868000000001,0.04333496
12.214966,-1.4462128,2.5084229,-0.7158203000000001,0.7565918,0.09660339
9.655563,-1.6329651,2.1516876,-0.74990845,0.5904235999999999,0.10832214
7.852722,-1.0344086,1.644104,-0.71795654,0.1259613,0.23934937
6.2414246,-1.0344086,1.1173859,-0.7073059,-0.676178,0.26597595
5.4345856,-0.9362488000000001,0.76304626,-0.6465911999999999,-0.8050841999999999,0.09339905
4.745056,-0.5675354,0.43025208,-0.36854553,-0.21492004,-0.10899353
4.4864807,0.026229857999999998,0.30336,-0.041519165,0.057785034000000006,-0.34014893
5.073059,0.70617676,0.023239136,0.12466431,-0.17124939,-0.6469574
5.6979370000000005,0.80433655,0.46138,0.059692382999999995,0.06311035,-0.73643494
5.599777,-0.21798706,1.9577484,0.19177246,0.36778259999999996,-0.8227234
5.6979370000000005,-1.0703278,2.5108185,0.4495697,-0.41732788,-1.2008972
8.582962,-1.3265076,0.40631104,0.31428528,-0.94888306,-1.1167296999999998
13.012238,-1.6545105,0.5379944000000001,0.24929810000000002,-0.5227814000000001,-0.7108612
16.428757,-3.6656342000000004,1.2754059,0.10762024,0.3059845,-0.48928833
17.769516,-4.357558999999999,-0.41729736,-0.10437012,0.35073853,-0.16865539999999998
15.631485000000001,-0.9697571,-3.2472382,0.15663147,0.13128662,-0.04081726
14.051314999999999,2.0900269000000002,0.61221313,0.597641,-0.18936157,0.23614502
14.601974499999999,0.7085724,8.40773,0.7414550999999999,-0.24368286,0.6004791
8.994766,-3.277771,6.7796783,0.70310974,-0.20108032,0.63668823
4.4026794,-2.9665222,3.2386475,0.62854004,-0.13395691,0.5759734999999999
7.1727753,-0.39994812,2.9106445,0.53160095,0.021560668999999998,0.48649597
15.320235999999998,1.8577881,6.442093,0.49537659999999994,0.2793579,0.35226440000000003
17.6091,-1.4533996999999999,5.7836914,0.55822754,0.38269043,0.15306091
12.918854,-2.8396301,6.078171,0.7158966,0.27616882,0.025222777999999998
10.448044,-1.6018371999999999,3.8778992,0.71055603,0.22929382,-0.051467896
9.732178,-1.403122,2.0032349,0.6455841,0.15258789,-0.12496948
7.5031740000000005,-1.403122,1.3161011,0.60510254,0.15046692,-0.17184448
6.078628500000001,-0.9865265,1.031189,0.50923157,-0.17871094,-0.22190857
5.7817383,-0.49810790000000005,0.94740295,0.47087097,-0.73902893,-0.22297668
5.535141,-0.5819092,1.0407715,0.29617309999999997,-0.5014801,-0.049331665
4.591827400000001,-1.3504486,1.2490691999999999,-0.1352539,-0.35980225,0.27450562
4.2087555,-1.7694244,0.09985351599999999,-0.41967773,-0.13716125,0.6494751
4.7618103,-1.2810059,-0.39814758,-0.46229553,0.6543274,0.5695800999999999
6.492813,0.07171631,0.54756165,-0.42395020000000005,0.7310333000000001,0.42683409999999994
7.780899000000001,-0.031234741,1.7710113999999997,-0.38452148,-0.48976135,0.742157
8.642807000000001,-0.8907623,1.244278,-0.09370422,-0.7273102,0.86039734
11.070526,-0.4765625,-0.70700073,0.15449524,-0.104141235,1.0372314
14.233276000000002,0.38774109999999995,-2.0453491,0.16940308,0.4039917,0.9967499
15.700911999999999,0.61520386,-3.4291992,-0.17041016,0.28042603,0.36291504
17.970627,-1.4055023000000002,-4.051697,-0.42395020000000005,0.14300537,-0.08769226
18.763107,-3.2634125,2.446167,-0.54325867,0.08547974,-0.41046143
12.329880000000001,-1.1158142,9.145142,-0.5336609,0.050323485999999994,-0.5862274000000001
7.982010000000001,-0.12222290000000001,6.8060149999999995,-0.52301025,-0.010391235,-0.6181946
5.942154,-0.5890808000000001,3.4277954,-0.5997161999999999,0.041809082000000004,-0.5489501999999999
9.629227,-2.4661407000000004,3.734253,-0.77441406,0.18135071,-0.43496704
17.752747,-2.3177032000000004,4.63208,-0.95018005,0.34220886,-0.37744140000000004
16.802246,-0.05038452,3.6935425000000004,-1.0513916,0.552063,-0.23362732
12.135956,-0.9697571,3.0782317999999997,-1.0961303999999998,0.6692505,-0.08981323
9.8423,-1.5922546,2.6664276,-1.0162354,0.6916199000000001,-0.08236694
7.72583,-0.69921875,2.0295715,-0.8820038,0.45939636,-0.088760376
6.4617004,-0.25151062,1.2323151,-0.7200928000000001,-0.12757874,0.08488464
4.8456116,0.09086609,0.6194,-0.5336609,-0.6133270000000001,0.21377563
4.429016000000001,0.64871216,0.42306520000000003,-0.22900389999999998,-0.35447693,0.08488464
4.709137,0.9264374,0.36799622,0.11187744,-0.048736572,-0.047210693
5.2526245000000005,0.5337982,0.092666626,0.41229248,-0.3012085,-0.16438293
5.879898000000001,-0.41430664,0.1477356,0.37820435,-0.4460907,-0.32949829999999997
6.2653656,-1.5755005,0.92585754,0.12466431,0.15686035,-0.58836365
5.9397583,-1.7119598000000003,2.1923828,0.17793274,0.14833069,-0.96759033
6.590988,-1.5252228,1.4645386,0.24717712,-0.64741516,-1.1241913000000001
10.531845,-1.69281,0.7223358,0.23013306,-0.98191833,-0.9793091
14.525360000000001,-2.3560027999999997,1.9697266,0.36541748,-0.21173096,-0.83869934
16.04329,-3.9649047999999993,1.7446747,0.27593994,0.51797485,-0.5478821
15.351364000000002,-3.1341248,-2.1842194,0.30789185,0.23036194,-0.13668823
15.257995999999999,0.2895813,-3.637497,0.5891266,-0.048736572,0.18075562
16.368896,3.5624542000000003,2.7813567999999997,0.7244109999999999,-0.17124939,0.6526642
12.540573,1.7021636999999998,8.987122,0.7222748000000001,-0.20959473,0.7986145
7.112914999999999,-3.6919708,6.916137700000001,0.7510376,-0.18083191,0.76452637
5.815262000000001,-4.4054413,2.9058533,0.76382446,-0.028503418,0.7293701
10.309174,-0.9506073,4.1388702,0.8224181999999999,0.17602539,0.63456726
16.079207999999998,1.7117461999999999,6.9975433,0.9278716999999999,0.28149414,0.45773315
15.310669,-0.46458435,5.644821,1.0045776,0.21757507,0.27236938
11.470367,-0.14376831,4.450119,1.0450591999999999,-0.115859985,0.08062744
10.064972000000001,-0.9506073,2.9106445,1.0067139,-0.44502258,-0.063186646
8.132843,-1.7694244,1.802124,0.8948517,-0.030639648,-0.15161133
6.8615265,-1.6138,1.4334258999999998,0.57315063,0.10040283,-0.24002075
6.3036804,-1.1876373,1.5962219,0.22267151,-0.86047363,-0.12496948
5.5566864,-1.0679321000000002,1.6369323999999998,0.12786865,-0.68577576,0.016708373999999998
4.4026794,-1.2738341999999998,1.2514648000000002,-0.1267395,-0.028503418,0.25532532
4.156082,-1.9513855,0.99768066,-0.45057678,0.18881226,0.5184479000000001
4.768997,-2.1884155,-0.24012756,-0.49531555,0.43807983,0.37677002
6.5526733,-0.34487915,-1.839447,-0.33552550000000003,0.6543274,0.13494873
8.96843,1.2664185,-0.12519836,-0.23219299999999998,0.33369446,0.25746155
7.5845795,1.1467133,1.4358215,-0.032989502000000004,-0.54515076,0.5940857
9.030669999999999,0.29437256,-1.1954193000000002,0.05116272,-0.73158264,1.0617371000000002
14.319458,0.17466736,-2.6127777,0.02986145,0.16430664,1.4079437
17.937103,-0.15812683,-2.8689575,-0.185318,0.5062561,0.8582610999999999
17.585160000000002,-1.2115784,-3.3837127999999996,-0.6359253,-0.066848755,-0.044006348
14.915619,-3.0431366,-0.9942931999999999,-0.81703186,-0.080703735,-0.4243164000000001
13.682602,-3.6752167,4.383072,-0.86283875,-0.08709717,-0.673584
10.539017,-0.46697998,8.501099,-0.86816406,-0.06472778,-0.7950286999999999
6.590988,1.8386383000000002,5.953674299999999,-0.9118347,0.013046265,-0.6842345999999999
5.4537354,1.0485535,2.070282,-0.99279785,0.17283629999999997,-0.5553435999999999
11.439239500000001,-2.4158630000000003,3.734253,-1.092926,0.44447327,-0.5116577
17.218842000000002,-2.7630157000000004,4.873886,-1.2079773,0.70440674,-0.41046143
15.085617000000001,-0.86680603,2.9944458,-1.2314148,0.76937866,-0.15905762
12.159897,-1.4222716999999998,2.204361,-1.1195678999999998,0.7203826999999999,0.05293274
10.457611,-1.1062317,1.8284607,-1.0194244000000001,0.60639954,0.12004089
7.982010000000001,-0.34727478,1.1365356000000002,-0.8319397,0.3262329,0.12536621
6.145660400000001,-0.21080017,0.58587646,-0.55070496,-0.18936157,0.15092468
6.042709400000001,-0.45979309999999995,0.43983459999999996,-0.33233643,-0.58351135,0.10939026
5.877502400000001,-0.45262146,0.28181458,-0.06707764,-0.31399536,-0.022705077999999997
5.0946045,0.023834229,0.38955688,0.20455933,0.17390442,-0.2709198
5.0706635,-0.4190979,0.34405518,0.43998718,0.09400939999999999,-0.37104797
6.2917023,-1.3648071000000002,0.22434998,0.43572998,-0.090286255,-0.33589172
7.1607970000000005,-1.5371857,0.6361541999999999,0.28126526,0.23355103,-0.51272583
6.9716644,-1.4078979999999999,1.584259,0.5795288000000001,-0.028503418,-0.9111328000000002
7.263748,-1.8125305,0.73191833,0.65197754,-0.8018799,-1.1124725
10.364243,-1.7502746999999999,0.092666626,0.37181090000000006,-0.9052124,-0.8173981
14.819854999999999,-2.1165924,1.0910492,0.35583496,0.12915039,-0.6096649000000001
16.93872,-2.3823395,1.0599213,0.1395874,0.66285706,-0.61499023
15.679367000000001,-1.3025513000000002,-1.9136658,0.11508179,0.010910033999999999,-0.23043823
14.209335000000001,1.0246124,-3.2352752999999996,0.3515625,-0.08389282,0.14134216
14.264404,2.343811,3.5522919,0.36328125,-0.28735352,0.50779724
11.645142,-1.0463715,8.556168,0.28233337,-0.35554504,0.6590576
6.1504517,-3.5626830000000003,5.216263,0.30682373,-0.29907227,0.6356201
5.4393769999999995,-3.1484832999999997,3.4134216,0.41973877,-0.230896,0.5610504
13.04335,-0.92666626,5.6328583,0.5965729000000001,-0.010391235,0.45452879999999996
16.768738,0.6798401,7.270492599999999,0.83306885,0.26763916,0.37783813
13.187012,-0.20361328,4.8858643,0.9917908000000001,0.3720398,0.26597595
10.802383,-0.22517395,3.8994446000000003,1.0216216999999999,0.2708435,0.09339905
10.431274,-0.76387024,2.2187195,0.85224915,-0.24156189,-0.12390137
8.496765,-1.1325684,1.3568115,0.5720824999999999,-0.43330383,-0.28369140000000004
6.974060000000001,-1.3336792,1.4310303,0.31428528,-0.041290283,-0.35081482
6.2294617,-1.2666473,1.3951111,0.18965149,-0.22238159,-0.30500793
5.4106445,-1.0966492,1.3065338,0.24078369,-0.16485596,-0.21978760000000003
4.9677124,-1.427063,0.8300780999999999,0.12680054,0.08015442,0.053985596
4.9174347,-2.1213683999999997,0.4517975,-0.08093262,-0.018920898000000002,0.5780945
5.0012360000000005,-1.6856232,-0.0030975342,-0.053237915,0.28149414,0.7197876
6.0235596,0.8450469999999999,-1.2480774,-0.09265137,0.61598206,0.5301666
7.816818,1.5489349,-1.4420166,-0.3312683,-0.23942566,0.7272339
9.155167,0.25128174,0.7103729,-0.16189575,-0.7475586,0.8294983
10.333115,-1.2642517,-0.039016723999999996,0.13105774,-0.2969513,0.6633300999999999
13.761612,-0.84765625,-0.7046051,0.37181090000000006,0.51052856,0.5418854000000001
15.724869,-0.19404602,-1.1858368000000001,0.094833374,0.41677856,0.43109129999999996
16.59874,-0.9530029000000001,-2.4308167000000003,-0.31634520000000005,0.20904541,0.19033813
17.216445999999998,-2.5595092999999998,-0.2425232,-0.43353270000000005,0.18881226,-0.19421387
14.601974499999999,-0.8524475,5.5538483,-0.38240050000000003,-0.09561157,-0.44561768
9.775269,0.36141968,6.185912999999999,-0.18852234,-0.18190002,-0.51272583
7.017150999999999,-1.2451018999999999,1.9385986000000002,-0.0756073,-0.14141846,-0.45840454
7.8862457,-3.3855133,2.8723297000000003,-0.13418579,-0.03489685,-0.40620422
13.847809,-3.0551147000000003,5.3455505,-0.30996704,0.27510070000000003,-0.30819702
16.040894,0.3829651,2.841217,-0.5123595999999999,0.5818939000000001,-0.11645508
14.695357999999999,0.6822357,2.221115,-0.72114563,0.7203826999999999,0.079559326
11.259674,-2.233902,2.8340302000000004,-0.82554626,0.6681824000000001,0.10618591
8.77449,-1.7119598000000003,2.1468964,-0.74990845,0.5478058000000001,0.025222777999999998
6.89505,-0.68006897,1.6680602999999998,-0.61250305,0.29960632,0.04547119
5.6835785,-0.46937559999999995,1.2346953999999999,-0.5528411999999999,-0.21173096,0.16584778
4.9820709999999995,-0.05517578,0.49728394,-0.54537964,-0.48869324,0.112579346
4.302124,0.48831177,0.2674408,-0.37387085,-0.18403625,-0.10899353
4.242264,0.87615967,-0.048583984000000004,0.017074585,-0.12330627400000001,-0.22723389
5.5423279999999995,0.9144745000000001,-0.14675903,0.30470276,-0.4503479,-0.32524109999999995
7.0315094,0.21057129,0.107040405,0.14277649,-0.230896,-0.58943176
7.1536255,-1.1182098,0.77500916,0.017074585,0.0023956299,-0.989975
7.0674285999999995,-1.2163696000000002,1.5483398000000002,0.09590149,-0.61013794,-1.1945038000000001
8.602112,-0.5388031,0.5882721,0.052230835,-0.7038727,-0.9984894
12.911667,-0.14137268,0.7965698,0.26315308,-0.10093689,-0.88131714
16.110321,-1.668869,1.7111511000000001,0.07673645,0.29960632,-0.56811523
15.964279000000001,-3.5986023,-0.13478088,0.07246399,0.14086914,-0.10899353
14.839004500000001,-1.8747711,-3.4076538,0.2695465,-0.102005005,0.17543029999999998
14.882095000000001,1.7787781000000003,0.48532104,0.43572998,-0.26286316,0.47370909999999994
12.492691,2.1115722999999997,8.209014999999999,0.46342468,-0.29481506,0.62924194
6.4305725,-2.2674255000000003,6.817978,0.54971313,-0.24049377,0.648407
7.242202799999999,-4.139694,4.3303986,0.6540984999999999,-0.07537842,0.63349915
12.327484,-1.8556213,3.9233856,0.6679535,0.200531,0.61325073
16.16539,2.410843,6.1404266,0.7766113,0.37097168,0.48649597
14.843796,-0.34487915,5.343155,0.82987976,0.41358948,0.24253845
12.559723,-1.3504486,4.4764557,0.83839417,0.35073853,0.006057739300000001
11.108841,-1.1708832,2.659256,0.8032379,-0.039154053,-0.1494751
8.999542,-1.1493225,1.6417236000000002,0.71055603,-0.23942566,-0.17823792
7.1703796,-1.3839569,1.5100403,0.5656891,0.022628784,-0.098342896
6.2557983,-1.292984,0.9904938,0.3473053,-0.27458190000000005,-0.056793212999999995
5.717102,-0.86680603,1.1485138000000001,0.31854248,-0.5515441999999999,-0.04081726
4.874344000000001,-0.9577941999999999,1.0814667,0.15023804,-0.42051697,0.059310913
4.254242,-1.2570648000000002,0.5092621,-0.13632202,-0.18722534,0.40446472
4.644500700000001,-1.9465941999999998,0.3249054,-0.3621521,0.24633789,0.67077637
6.0331269999999995,-0.68963623,-0.6734772,-0.2801361,0.727829,0.46305847
6.969269000000001,1.1826172,-0.9248656999999999,-0.18852234,0.08229065,0.5503998000000001
7.634857000000001,0.6247710999999999,0.89712524,-0.06388855,-0.80934143,0.77731323
8.8654785,-1.4198761,1.0048523,0.022399902000000003,-0.5717926,0.9253844999999999
12.423264,-1.3743896,-0.67108154,0.20137024,0.23248291,1.1448212
14.549301000000002,0.09326172,-2.2632293999999997,0.14170837,0.46791077,0.9839629999999999
16.874084,-0.12460327,-3.9654998999999997,-0.31529236,0.021560668999999998,0.28515625
18.147797,-2.5810547,-2.672638,-0.6455231,0.062042235999999994,-0.29541016
14.511002,-3.3472137,4.8140410000000005,-0.7168884,-0.03276062,-0.6522826999999999
9.610077,-0.56993103,8.194641,-0.628479,-0.09667969,-0.7619934
7.4074097000000005,1.0772858,3.9928284,-0.46229553,-0.0008087158,-0.59794617
7.117706299999999,0.6582946999999999,2.1636505,-0.34617615,0.12382507,-0.38916016
11.6595,-2.7295074,4.2154846,-0.34191895,0.33262634,-0.2709198
17.611496,-2.5092316,4.23703,-0.38346863,0.6564635999999999,-0.13136292
16.95787,-0.54119873,2.0846405,-0.48466492,0.9270476999999999,0.006057739300000001
13.20137,-0.8907623,2.3719482000000003,-0.6732178000000001,0.9621886999999999,0.065704346
10.778442,-0.84765625,2.35997,-0.74246216,0.727829,0.07423401
8.288467,-0.39994812,1.8667755000000001,-0.6742859,0.39334106,0.13920593
6.047500599999999,-0.73991394,1.4860992,-0.6977234,-0.19894409,0.23721313
5.187973,-0.89553833,1.0288085999999999,-0.6849365,-0.59521484,0.27450562
4.931793,-0.6824646,0.43264769999999997,-0.34085083,0.016235351999999998,0.06251526
4.970108,-0.41430664,-0.010284424,0.054367065,0.38162229999999997,-0.27197266
5.147278,0.12438965,-0.20899963,0.30256653,-0.21812439,-0.44454956
5.712311,0.74209595,0.2674408,0.26634216,-0.33636475,-0.5990143
6.1552430000000005,0.78279114,0.9138794,0.06927489999999999,-0.023178099999999997,-0.82484436
6.030730999999999,-0.74710083,1.5100403,0.099105835,0.06311035,-1.0624083999999998
7.012359599999999,-1.3695983999999999,0.5715026999999999,0.26634216,-0.53556824,-1.1316528000000001
11.357834,-1.4486084,0.545166,0.44424438,-0.74967957,-1.0016785
16.153427,-2.7390747,2.1397095,0.6157531999999999,0.19200134,-1.0379028000000001
15.621917999999999,-4.2306669999999995,1.5914458999999999,0.31428528,0.65327454,-0.99316406
14.384109500000001,-2.2745972,-2.610382,0.2216034,0.25698853,-0.49674988
14.831818,0.983902,-4.0277557,0.35263062,-0.001876831,0.04121399
14.817459,3.0500946,1.5124358999999998,0.34304809999999997,-0.1446228,0.56425476
12.327484,0.25367737,7.940857,0.24078369,-0.13716125,0.8071289
7.479233,-3.3903046000000003,7.04303,0.25357056,-0.14994812,0.78263855
7.235016000000001,-4.4653015,3.6169279999999997,0.38246155,-0.027435302999999998,0.63668823
11.645142,-2.988083,4.354355,0.6029663000000001,0.21331787,0.44813538
14.637894000000001,1.8769379000000002,7.35907,0.867157,0.41891480000000003,0.3948822
13.234894,0.9958800999999999,5.980011,1.0269469999999998,0.46365356,0.3245697
11.590073,0.10523987,4.2561800000000005,0.9662323,0.30065918,0.12962341
10.141586,-0.8332976999999999,2.5084229,0.67967224,0.020507812,-0.16651917
8.47522,-1.3695983999999999,1.8835297,0.41229248,-0.47590637,-0.31033325
7.670761,-1.5180358999999999,1.6943816999999999,0.31961059999999997,-0.5536804,-0.23788452
6.8519440000000005,-1.3097382,1.7518463,0.20881653,-0.3992157,-0.1579895
5.027572599999999,-1.3265076,1.9888762999999998,0.085250854,-0.37684629999999997,-0.11431885
4.1464996,-1.7023926,1.6225586,-0.27374268,-0.31932068,0.12322998
4.5487212999999995,-2.142929,0.7295227,-0.56669617,-0.18083191,0.47477722
5.84639,-1.5946503,-0.0030975342,-0.6732178000000001,0.43382263,0.6356201
6.5,1.2089538999999998,-0.2568817,-0.7435303000000001,0.82476807,0.48010254
6.6005554,1.4435883,-0.53460693,-0.6231536999999999,-0.057266235,0.68356323
7.9365234,0.27522278,-0.55137634,-0.11820984,-0.69429016,0.7059326
10.378616000000001,-0.48135376,0.29856873,0.21520996,-0.47911072,0.5653229000000001
13.225310999999998,0.014251709,-0.23054504,0.41122437,0.32409668,0.9424286000000001
14.827042,0.687027,-1.8442383000000002,0.20349121,0.6266326999999999,0.88383484
15.753585999999999,-0.43585205,-3.716507,-0.29078674,0.25912476,0.32670593
17.910767,-2.7055664,-1.4228668,-0.53260803,0.16537476,-0.19102478
15.569244,-2.628952,5.64003,-0.49850464,0.013046265,-0.5074005
10.060181,-2.3751678,7.991134599999999,-0.26309204,-0.04447937,-0.56599426
8.781677,-1.6329651,4.612915,-0.095840454,0.006652831999999999,-0.45733643
7.484024000000001,-0.9649810999999999,3.0973968999999997,-0.076660156,0.15686035,-0.31884766
12.298752,-1.3648071000000002,4.110138,-0.19598389,0.3997345,-0.20379639
16.471848,-0.45501709999999995,3.8659362999999995,-0.37387085,0.5818939000000001,-0.08555603
14.518188,0.17706299,2.8148804,-0.5166168,0.6330260999999999,0.14134216
11.685837,-2.0926514,3.0782317999999997,-0.6455231,0.6756439000000001,0.29899597
9.401779,-2.075882,2.6927642999999994,-0.67533875,0.5808258000000001,0.21804810000000002
7.563034,-0.98413086,1.7829741999999997,-0.6519165,0.376297,0.16691589999999998
6.3515625,-0.79737854,1.026413,-0.62420654,-0.25965879999999997,0.15412903
5.0395355,-0.70401,0.43743896,-0.57095337,-0.7337036,0.087020874
4.381133999999999,-0.16770935,0.46138,-0.36428833,-0.27244568,-0.032287598
4.350006,0.29197693,0.44700623,0.01600647,-0.16378784,-0.14521789999999998
4.7187195,0.53619385,-0.4125061,0.30363464,-0.5153350999999999,-0.30073547
6.349167,0.94081116,-0.34068298,0.22267151,-0.22984314,-0.61286926
7.033905,0.18902588,0.6098175,0.09803772,0.07376099,-1.0400391
7.2493896,-0.62020874,2.355194,0.07992554,-0.76460266,-1.2104796999999998
7.8575134,-1.079895,1.7303008999999998,-0.015945435,-0.81466675,-0.96440125
11.051376,-1.1876373,0.95936584,0.12573242,-0.17871094,-0.78863525
14.669022,-2.7031707999999997,2.5682678,0.07885742,0.3773651,-0.6820984
15.416016,-4.474869,0.8013458000000001,0.25569153,0.29000854,-0.33589172
15.449523999999998,-3.0048369999999998,-3.4172363,0.5656891,-0.017852783,-0.03656006
16.56044,0.76364136,-0.36462402,0.8266754000000001,-0.24688720000000003,0.36824036
13.289963,2.9926453,7.469208,0.8394623,-0.324646,0.695282
6.9836273,-0.19404602,6.501953,0.7606354000000001,-0.32571409999999995,0.6995392
6.7035065000000005,-4.345581,4.378296,0.7467804,-0.22451782,0.6079254
11.099258,-3.7350616000000003,3.4325867,0.7893982,0.023696900000000003,0.5109863
15.660217000000001,1.2041779,7.270492599999999,0.78193665,0.43914795,0.40020752
15.559662,-0.45739746,6.7222137,0.8309325999999999,0.48069763,0.34268188
12.23172,-1.2115784,5.5873566,0.9790039,0.329422,0.24041748
10.790405,-0.6178130999999999,3.3942718999999997,1.0940552,0.031158447000000002,0.075302124
9.32756,-1.0176544,1.7733917000000001,1.0035094999999998,-0.23942566,-0.07064819
7.876663000000001,-1.3456573,1.3089294,0.7457123000000001,-0.24049377,-0.1729126
7.452896000000001,-1.4438171,1.0766907,0.47193909999999994,-0.66552734,-0.2517395
6.7466125,-0.9577941999999999,0.48052979999999995,0.42294312,-0.7528838999999999,-0.26664734
4.915039,-0.6609191999999999,0.8564148000000001,0.099105835,-0.24261475,-0.063186646
3.8352508999999997,-1.2810059,1.0695038000000001,-0.44418335,0.048202515,0.37356567
3.8089142,-1.9657593,0.7510680999999999,-0.6306,0.25805664,0.46411133
5.221496599999999,-0.93385315,-0.4053192,-0.46762085,0.68522644,0.26065063
7.0985565,1.1347351,-0.40054320000000004,-0.10437012,0.53822327,0.23721313
7.658798,0.60562134,0.7774048000000001,0.028793335,-0.08709717,0.63243103
8.654785,-0.91947937,-0.68544006,0.06607056,-0.3949585,0.90834045
11.8941345,-0.7303467,-2.0261993,-0.17359924,-0.24581909,1.1916962
15.152648999999998,1.1083983999999998,-2.5002593999999996,-0.06921387,0.13661194,0.88916016
18.35849,1.7787781000000003,-3.340622,-0.15122986,0.18667603,0.047607422
17.290665,-1.4078979999999999,-3.4938507000000003,-0.43778992,0.0055847169999999995,-0.37850952
13.749649,-4.652054,2.4126434,-0.6103668000000001,0.06417847,-0.3497467
10.931671000000001,-3.914627,7.268097,-0.6007843,0.13661194,-0.4328308
8.389023,0.5625305,7.315979,-0.51768494,0.08015442,-0.47863770000000005
6.854339599999999,2.4515533,2.9273987,-0.52194214,0.153656,-0.4328308
8.79364,0.6391449,2.956131,-0.6369934,0.376297,-0.46266174
14.350585999999998,-4.4221954000000006,4.5003967000000005,-0.7903899999999999,0.6287689000000001,-0.49249268
16.34256,-2.3895264,4.086197,-0.86602783,0.8237152,-0.31140137
14.233276000000002,-0.012084961000000002,2.707138,-0.86816406,0.7704468000000001,-0.03656006
12.001877,-0.8021698,2.2019653,-0.7903899999999999,0.61491394,0.05293274
8.673935,-0.7447052,2.3575897,-0.71902466,0.6000061,-0.013122558999999999
6.5933684999999995,-0.29460144,1.5124358999999998,-0.661499,0.34220886,0.044403076
5.8128660000000005,-0.20361328,0.77023315,-0.7254181,-0.58776855,0.07423401
5.7937164,-0.026443481,0.70558167,-0.7754821999999999,-0.7518158,-0.10473633
5.554291,0.3685913,0.6720581,-0.53793335,-0.18508911,-0.21658325
5.27417,0.05256653,0.65530396,-0.13418579,-0.17764282,-0.17823792
5.834411599999999,-0.88357544,0.43264769999999997,0.13105774,-0.32678223,-0.19102478
7.225448599999999,-1.5755005,0.078308105,0.08099365,0.027954102,-0.37637329999999997
7.096161,-1.4557799999999999,1.1772461,0.042648315,0.29000854,-0.7279053000000001
5.877502400000001,-1.1158142,2.0200043,0.23013306,-0.42904663,-1.1561431999999998
7.862304700000001,-0.79019165,-0.13717651,0.17579651,-0.8018799,-1.1316528000000001
12.011459,0.023834229,0.26983643,0.33558655,-0.45248413,-0.8514862
14.853378,-1.8484343999999997,2.2163239,0.3238678,0.1685791,-0.62564087
15.284332000000001,-3.8308410000000004,-0.38856506,0.13426208,0.32409668,-0.2602539
15.272354,-2.3823395,-4.0277557,0.20669556,0.14726257,-0.013122558999999999
15.040115,1.1467133,-0.4771576,0.40483093,-0.10733032,0.22549438
13.749649,1.3406372,8.106064,0.44424438,-0.13822937,0.53230286
8.800827,-2.743866,7.960022,0.38885498,-0.10626221,0.6867523
6.42099,-3.5794373,4.995987,0.39950562,-0.11904907,0.63882446
9.246155,-1.0990448,3.9257812000000007,0.43891907,-0.07110596,0.59194946
15.246017000000002,2.5401306,6.027893,0.55822754,0.0471344,0.5717163000000001
17.058426,0.36141968,5.881851,0.7180175999999999,0.19734192,0.46092224
13.289963,-1.4940948,5.4101870000000005,0.80111694,0.21224976,0.19886779999999998
10.76886,-1.0296173,3.6025696000000003,0.88313293,-0.0039978027,-0.09727478
9.519089,-0.79977417,2.3480072,0.80963135,0.017303467,-0.16331482
7.337967,-0.8739929,2.070282,0.68818665,0.14939879999999997,-0.17077637
5.425003,-0.9649810999999999,2.027176,0.517746,-0.34915159999999995,-0.26239014
4.436203,-1.0655364999999999,1.9697266,0.46981812,-0.6974945,-0.2709198
4.397888,-1.3600159,1.639328,0.3984375,-0.23728943,-0.16970825
4.733078,-1.565918,0.81811523,0.0074920654,-0.09135437,0.21697998
