accx,accy,accz,gyrx,gyry,gyrz
7.007568400000001,-0.8715973,1.2490691999999999,0.09803772,-0.010391235,0.07316589
5.7697754,-0.17967224,1.0120392,0.06074524,-0.16485596,0.028427123999999998
4.915039,0.25367737,1.05513,0.038375854,0.29960632,0.004989624000000001
5.3124847,-0.11743164,0.9928894,-0.0042266846,0.9291687,0.18182373
6.215088,-0.99609375,0.6936188,-0.20449829,-0.13928223,0.5259094
7.287689,-1.7933655,-0.09408569,-0.24284363,-0.61972046,0.48754883
9.179108,-2.8516082999999997,-0.15153503,-0.008483886999999999,0.11956787,0.2926178
11.039413,-2.0663147,0.24349976,0.18112183,0.39440918,0.296875
12.095245,-0.6968231,-1.1738586000000002,0.11187744,0.22183228,0.26597595
12.878159,-0.37361145,-2.0190125,-0.041519165,0.0471344,0.17649841
12.78717,-0.8021698,-1.8514252,-0.17999268,-0.115859985,0.087020874
12.071304,-1.9681396,-1.0589447,-0.12460327,-0.1446228,-0.10153198
13.352203,-0.009689330999999999,5.486801,0.008560181,0.11956787,-0.33695984
12.765625,4.793075599999999,5.7549589999999995,0.09378052,0.33369446,-0.41792297
9.3754425,1.0437622,2.3216705,0.07034302,0.3496704,-0.28157043
9.978775,-3.5052185,2.1564636000000004,0.02772522,0.24101257,-0.07064819
12.250869999999999,-3.8595580000000003,4.65123,0.0010986328,0.22608948,0.018844603999999997
15.755981,-2.0782776000000003,3.2745667000000003,0.036254882999999995,0.26977540000000005,-0.008865356
16.912384,0.983902,2.580246,0.10017395,0.27296448,-0.024841309
13.028992,-0.44303894,2.5922089,0.13745117,0.12702942,0.047607422
9.952438,-1.7047881999999999,3.0327453999999996,0.075668335,-0.09347534,0.13494873
9.018707000000001,-0.5675354,3.1141509999999997,-0.04045105,-0.23942566,0.16584778
8.075394000000001,0.51464844,3.2841339999999994,-0.10223389,-0.2500763,0.09767151
7.721039,0.59843445,3.083023,-0.12246704,-0.15206909,-0.018447876000000002
7.1607970000000005,0.51464844,2.6137695,-0.121414185,-0.2969513,-0.077041626
6.543091,0.40930176,1.9673308999999997,-0.05961609,-0.53982544,-0.010986328
5.934966999999999,0.07650757,1.7853699,-0.04045105,-0.39175415,0.124298096
5.3627625,-0.62020874,1.9792938000000002,-0.13845825,-0.027435302999999998,0.203125
4.891098,-1.1277771,1.8069153000000002,0.12573242,-0.37364197,-0.06744385
5.3388214000000005,-0.7925873000000001,0.8013458000000001,0.46554565,-0.98617554,-0.46798706
6.3132477,-0.22038269,-0.5681305,0.14703369,-0.7070770000000001,-0.40620422
7.64682,-0.2706604,-1.5928497,-0.07347107,-0.37896729999999995,-0.42218018
9.976379,-0.55078125,-0.8386688,-0.33552550000000003,-0.27030945,-0.44136047
11.736114500000001,-0.7830199999999999,-0.09169006,-0.5027771,-0.16166687,-0.39022827
12.1072235,-1.5611267,-1.281601,-0.44844055,-0.013595581,-0.27836609999999995
12.526214999999999,-1.9394226000000003,-2.4547577,-0.2833252,0.10784912,-0.06425476
12.191025,-1.0176544,-2.0621185,-0.14271545,0.16323853,0.13388062
12.116806,-0.9530029000000001,5.3958281999999995,-0.025527954,0.21224976,0.21165466
14.74324,-5.0758209999999995,9.789185,0.14916992,0.15686035,0.20419312
11.953994999999999,-2.506836,1.936203,0.34304809999999997,0.14300537,0.13388062
11.906113000000001,3.3685303,2.501236,0.5007019,0.29853820000000003,0.049728394
14.532547000000001,3.3828888,3.3056946000000003,0.564621,0.48069763,0.026290894
16.452698,0.06932068,3.4589233,0.53479004,0.5936127,0.02949524
15.250809,-0.4885254,3.4924315999999997,0.41868590000000006,0.5573883000000001,-0.012054443
11.690628,0.29676820000000004,2.8843078999999996,0.30256653,0.37950134,-0.11538696
9.284454,-0.09349060000000001,2.956131,0.23864746,0.26870728,-0.2240448
7.771316499999999,-1.5347899999999999,2.9729004,0.2141571,0.17283629999999997,-0.27624512
6.681961,-2.628952,2.750229,0.19497679999999998,0.0002593994,-0.20593262
6.8735046,-2.6624603,2.319275,0.19497679999999998,-0.22770691,-0.09408569
7.2326355,-2.2841797,1.6273499,0.17367554,-0.15100098,-0.020584106
6.887863,-1.4916992,1.1772461,0.011749268,0.10145569,-0.04295349
6.4138184,-0.49571228,0.9713440000000001,-0.07772827,-0.09561157,-0.13562012
6.181579599999999,-0.17967224,0.9354248,-0.002105713,-0.22238159,-0.13243103
6.5047913,-0.6728821,1.0048523,-0.15229797,0.81944275,0.1285553
7.476837,-1.2786102,0.49728394,-0.50064087,0.20478821,0.6004791
8.068207000000001,-1.2714386,-0.010284424,-0.6593628,-0.66659546,0.5493469
8.190308,-0.8811798000000001,-0.060562134000000004,-0.3493805,-0.36619568,0.25213623
8.096939,-1.3384705,-0.3837738,0.002166748,0.23355103,0.22123718
9.396988,-1.5755005,-0.92007446,0.21202087,0.34327698,0.29580688
12.382553,-1.0966492,-0.51545715,0.18965149,0.15153503,0.39274597
14.18779,-0.838089,0.073516846,0.005355835,0.05885315,0.34587097
12.562119000000001,-0.18206787,-0.6064453000000001,-0.13632202,-0.02104187,0.08595276
11.501495,0.026229857999999998,2.398285,-0.22154236,-0.013595581,-0.24534607
12.305939,3.5792236000000006,6.8634644,-0.30996704,0.11531067,-0.4093933
11.230942,1.6231537,2.0678864,-0.42927550000000003,0.20904541,-0.357193
10.515075999999999,-2.8899077999999996,2.233078,-0.548584,0.15579224,-0.15693665
12.619583,-5.2625732,5.0055695,-0.64764404,0.1174469,-0.034423828
15.813445999999999,-3.0311737,4.9864197,-0.69984436,0.12277222,-0.074905396
16.773529999999997,0.24888611,4.332794,-0.68600464,0.153656,-0.12284851
14.178207,0.16508484,3.3344116,-0.6369934,0.15046692,-0.12710571
10.874207,-0.44543457,3.0997925,-0.5911865,0.03541565,-0.057861328
8.939697,0.20339966,2.85318,-0.56881714,-0.20533752,0.03907776
7.955673,1.1730499,2.4006805,-0.54112244,-0.41732788,0.07849121
8.096939,1.1539001,2.046341,-0.46762085,-0.26712036,0.06251526
7.606125,1.0102386,1.7662201000000002,-0.40690613,-0.22984314,-0.006729125999999999
7.079391499999999,0.7947693,1.2873688,-0.20130920000000002,-0.33210754,-0.065322876
6.811249,0.06932068,1.0288085999999999,0.08206177,-0.25860596,0.008178711
5.7817383,-0.6321869000000001,1.21315,0.054367065,-0.104141235,0.21058655
4.836029,-1.1373596000000001,1.2825928,-0.025527954,-0.005065918,0.19779968
4.606186,-0.9434203999999999,1.1628723,0.375,-1.0522156,-0.3348236
5.1903687000000005,-0.51246643,0.97613525,0.3110962,-1.0607452,-0.53829956
6.171997,-0.6058501999999999,-0.19703674,-0.0031585693,-0.5696564000000001,-0.4285736
8.178345,-0.5747223000000001,-0.7644501,-0.14804077,-0.31185913,-0.4093933
10.649155,-1.5850677,-0.034225464,-0.26309204,-0.21492004,-0.36997986
11.953994999999999,-2.8444214,-0.49870299999999995,-0.23219299999999998,-0.14674377,-0.25280762
13.172638000000001,-3.0191956,-0.6255951,-0.06707764,0.05671692,-0.12284851
12.78717,-2.6241608,-1.063736,0.11508179,0.22503662,0.06037903
11.977936,-0.9530029000000001,0.98091125,0.20562744,0.34434509999999996,0.17863464
13.354598999999999,-2.5092316,9.937622,0.27806090000000006,0.34541320000000003,0.20845032
13.51741,-3.739853,5.017547599999999,0.40908813,0.31132507,0.21272278
11.362625,1.3358459999999999,0.2674408,0.55503845,0.3027954,0.16903687
13.402481,3.5648498999999996,2.4892578,0.658371,0.36032104,0.098739624
16.38327,0.89772034,3.4038544,0.6455841,0.44660950000000005,0.065704346
15.789504999999998,-0.9290619000000001,3.490036,0.53585815,0.48495483,0.026290894
13.309113,-0.22277832,2.944168,0.38352966,0.38908386,-0.035491943
10.737732000000001,0.4045105,2.845993,0.26315308,0.25805664,-0.11645508
9.004333500000001,-0.38078308,3.0255585,0.21734619,0.13768005,-0.16758728
7.8575134,-1.8675842,2.9226074,0.23120117,0.09719849,-0.15054321
7.4672546,-2.0782776000000003,2.786148,0.25036620000000004,0.16323853,-0.08981323
7.3858643,-1.9465941999999998,2.43898,0.31428528,-0.090286255,-0.037628174
6.945327799999999,-1.9322357,1.9625397,0.25675964,-0.14994812,0.022033691
6.219879,-1.4390258999999999,1.2275238000000002,0.14810179999999998,-0.1765747,0.056121826
5.8224487,-0.42149353,0.59306335,0.20776367,-0.31611633,0.10406494
5.537536599999999,0.36380005,0.44221497,0.061813354,0.5243683000000001,0.22016907
5.796112,0.19381714,0.4158782999999999,-0.29930115,0.43701172,0.54081726
6.6843566999999995,-0.7016144,0.15731812,-0.48680115,-0.69003296,0.62390137
7.922165,-1.1206055,-0.43405150000000003,-0.22900389999999998,-0.42904663,0.44387817
9.353897,-1.6808471999999999,0.13098145,0.2216034,0.24952698,0.38635254
9.710632,-1.6377411,0.7175598000000001,0.40696716,0.2782898,0.39593506
10.35228,-0.79737854,-0.44363403,0.37713623,0.055648804,0.39807129999999996
12.514236,-1.1948242,-0.72854614,0.18751526,-0.14141846,0.27557373
12.7512665,-0.88357544,-0.7548828000000001,0.042648315,-0.18296814,0.06037903
12.940399000000001,-0.51246643,0.76304626,-0.015945435,-0.09774780000000001,-0.20167542
15.023360999999998,3.3374023,5.8914184999999994,-0.0798645,0.009841919000000001,-0.3966217
12.679443,3.7516022000000007,2.5060272,-0.19491577,0.06843567,-0.35614014
9.964416499999999,-3.1676482999999998,1.8715668,-0.31741333,0.017303467,-0.13775635
11.999481,-5.159622,5.541869999999999,-0.40583800000000003,0.053527832000000004,0.015640259
14.578033,-3.7709808,5.2976684999999994,-0.45483398,0.055648804,-0.00033569336000000005
16.131882,0.29676820000000004,4.0047913,-0.43566895,0.08973694,-0.07809448
14.001038000000001,0.7684326,3.1165466,-0.35043335,0.10891724,-0.061050415
10.862244,-0.18685913,2.8867035,-0.25349426,-0.005065918,0.03161621
9.301224000000001,0.11480713,2.987259,-0.19491577,-0.10519409,0.11364746
8.369873,0.90249634,2.6353150000000003,-0.17787170000000002,-0.102005005,0.12750244
7.88385,1.2017822,2.1756287,-0.17254639,0.021560668999999998,0.089141846
7.419372599999999,1.0988312,1.8739471,-0.15762329,0.04499817,0.114715576
7.177566499999999,0.7397003000000001,1.5100403,-0.17573547,-0.23196411,0.11897278
6.476058999999999,0.06932068,1.2730103000000002,0.009613037,-0.32783508,0.030563353999999997
5.9469449999999995,-0.51486206,1.4142609,0.20030212,-0.23835754,0.01777649
5.2023470000000005,-0.8883667,1.4525757,0.17047119,0.13874817,0.1477356
4.804901,-0.99609375,1.0168304,0.33026123,-0.102005005,0.063583374
5.899063,-0.87638855,0.2052002,0.68925476,-0.98617554,-0.39341736
7.6252747,-0.8500519,-0.41011047,0.49005127,-0.7251892,-0.49461365
9.073775999999999,-0.8404845999999999,-0.8626251,0.15235901,-0.32357788,-0.39555359999999995
9.734573,-0.06236267,0.2339325,-0.123535156,-0.18829346,-0.2517395
10.225388,-0.5052948,-0.2137909,-0.19810486,-0.17764282,-0.13668823
12.234116,-1.7095794999999998,-0.58488464,-0.11608887,-0.09454346,-0.086624146
13.835830999999999,-2.6672516,-0.50827026,0.056488037000000005,0.083343506,-0.04081726
12.887725999999999,-2.470932,-2.2991333,0.2141571,0.17176819,0.08807373
12.061736999999999,-1.5180358999999999,3.2147064,0.30470276,0.16537476,0.21377563
13.546142999999999,-3.593811,8.668700999999999,0.39097595,0.07376099,0.30859375
11.968353,-1.3193207,3.16922,0.4921875,0.04925537,0.28727722
11.535003999999999,2.446762,2.2666016,0.58592224,0.10784912,0.19779968
13.445587,3.1003722999999996,2.8914948,0.5997772,0.24420166,0.10618591
15.004210999999998,1.0988312,3.4038544,0.52201843,0.36564636,0.087020874
14.487060999999999,-1.0822906,3.3487854,0.39950562,0.3528595,0.05718994
13.165466,-0.921875,2.9154357999999996,0.30363464,0.2708435,-0.039749146
11.060959,-0.026443481,2.8340302000000004,0.26208496,0.31344604,-0.15586853
9.186295,-0.88597107,3.1500702,0.27806090000000006,0.376297,-0.228302
7.828780999999999,-2.1620789,3.0662689999999997,0.35263062,0.35499573,-0.24641418
7.694702,-2.26503,2.4342040000000003,0.38992309999999997,0.26124573,-0.20274353
7.675552400000001,-1.9825133999999998,1.9625397,0.36009216,0.055648804,-0.16438293
7.009964,-1.5778961,1.3520203000000002,0.23545837,0.040740967,-0.11218262
5.9804535,-0.84765625,0.9737396,-0.052169799999999995,0.23248291,-0.08129883
5.425003,0.021438599,0.892334,-0.11608887,-0.010391235,-0.13989258
5.4010620000000005,0.23690796,0.67445374,-0.06388855,0.018371582,-0.14521789999999998
5.891876,-0.5483856,0.28181458,-0.09265137,0.74061584,0.0028533936
6.8998413,-1.4318389999999999,0.080703735,-0.35577393,0.25912476,0.43322754
8.233398,-1.6018371999999999,0.15013123,-0.6082306,-0.29481506,0.5045929
9.507126,-1.984909,0.3656006,-0.4793396,-0.23835754,0.29473877
9.863861,-2.1956024,0.24110413,-0.18106079,0.08441162,0.27450562
10.364243,-0.20361328,-0.9009246999999999,-0.05961609,0.13449097,0.18075562
13.057724,0.49308777,-1.1355591,-0.031921387,0.04499817,0.05718994
15.387282999999998,-0.17010498,-0.5896759,-0.12567139,-0.13928223,0.10511780000000001
13.869354000000001,-1.6425323,-1.6191864,-0.16934204,-0.28097534,0.06997681
13.297134,-1.4653625,2.1804047000000004,-0.10862732,-0.17337036,-0.086624146
12.301147,2.738861,4.6416473,-0.07879639,0.040740967,-0.19741821
10.155945,1.2017822,2.7286835,-0.1309967,0.15046692,-0.20379639
9.550217,-1.5563506999999999,2.4581451000000003,-0.21195984,0.19627379999999997,-0.049331665
10.275665,-2.6600647,4.541092,-0.3067627,0.16963196,0.08595276
13.110397,-2.8659668,4.63208,-0.37174988,0.18988037,0.0028533936
16.309051999999998,-0.42388916,3.655243,-0.32273865,0.2708435,-0.13456726
15.222076000000001,0.03340149,3.1740112000000003,-0.16827393,0.31237793,-0.12817383
11.317139,-0.9386443999999999,3.2554016,-0.06388855,0.2505951,-0.010986328
8.966034,-0.7830199999999999,3.3056946000000003,-0.07028198,0.069503784,0.09339905
7.855117999999999,-0.09349060000000001,2.908249,-0.12780762,-0.18508911,0.114715576
7.397827,0.7803955,2.4844817999999997,-0.15336609,-0.22024536,0.07423401
7.464859,1.2233276000000002,2.331253,-0.17147827,-0.15206909,0.08807373
6.9764557,0.9719391,1.9649352999999998,-0.16934204,-0.26179504,0.087020874
6.4305725,-0.05278015,1.639328,-0.045776367000000005,-0.33210754,-0.0014038085999999999
6.0187683,-0.9721527,1.8907166000000002,0.11187744,-0.35447693,-0.07809448
5.551895,-1.1613007,2.2666016,0.08418274,-0.19361877,-0.044006348
5.357971,-1.0439911,1.9816895,0.25250244,-0.104141235,-0.16226196
5.741043,-0.56274414,1.1724548000000001,0.75424194,-0.83917236,-0.5212555
6.6484375,-0.09349060000000001,0.36799622,0.5294647,-0.5898895000000001,-0.36997986
8.116089,-0.07672119,-0.33110046,0.13105774,-0.25753784,-0.2517395
9.509506,-0.36402893,-0.0030975342,-0.17787170000000002,-0.22344970000000003,-0.35400390000000004
10.974762,-1.2594604,-0.11323547,-0.33233643,-0.1296997,-0.35186768
12.602829,-2.0327911,-0.97514343,-0.29078674,0.026885986,-0.29647827
13.864563,-2.7630157000000004,-0.8721924000000001,-0.14164734,0.08761597,-0.13882446
13.088852000000001,-2.6672516,-1.1571045,-0.0010375977,0.12382507,0.091278076
13.026596000000001,-1.937027,2.5754547000000003,0.042648315,0.18667603,0.22230529999999998
14.903656,-3.8404083,9.597656,0.11294556,0.2601776,0.18714905
12.559723,-2.0806732,3.0447235,0.23439026,0.25698853,0.04547119
10.012299,2.568863,1.4405975,0.34411620000000004,0.3539276,-0.11431885
12.444809,4.606338500000001,2.845993,0.41441345,0.46365356,-0.14733887
16.179764000000002,1.3837433000000001,3.4972230000000004,0.421875,0.5201110999999999,-0.06851196
16.095963,-2.2051697,3.995224,0.31854248,0.4551239,-0.012054443
12.191025,-0.6393585,3.6121519999999996,0.14703369,0.24101257,-0.07809448
9.511902000000001,0.8091278000000001,3.4493407999999994,-0.014877318999999998,0.06311035,-0.21232605
8.130447,-0.28262329999999997,3.3224487000000003,-0.09690857,0.08654785,-0.32737732
7.4121857,-1.8244933999999997,2.9657134999999997,-0.039382935,0.18455505,-0.3582611
7.5534514999999995,-2.0710907,2.798111,0.07034302,0.14193726,-0.27304077
8.092148,-1.8747711,2.415039,0.11187744,-0.043411255,-0.16545105
6.9477234,-1.6281738000000001,1.9505615,0.06074524,-0.09881592,-0.10366821
5.7554016,-0.96258545,1.7063598999999998,-0.10116577,-0.038085938,-0.09408569
5.4130400000000005,0.13156128,1.4932709,-0.121414185,-0.32678223,-0.08981323
5.360367,0.49787903,1.2466736,-0.03831482,-0.11265564,-0.03656006
6.1696014,-0.31135559999999995,0.61221313,-0.09051514,0.8535309000000001,0.19033813
7.8647003,-0.85484314,-0.28800964,-0.36961365,0.18667603,0.6356201
9.159958,-0.9721527,-0.42687988,-0.48252870000000003,-0.48869324,0.6313629
9.243758999999999,-1.5970459,0.14533997,-0.27587890000000004,-0.1563263,0.42364502
8.630844,-2.2051697,0.42306520000000003,-0.009552001999999999,0.16963196,0.45133972
9.28685,-1.2546692,0.21716309,0.15982056,0.21118164,0.44387817
12.047363,-0.6393585,0.5116577,0.17153929999999998,-0.026367188,0.36717224
13.787949,0.12678528,-0.12280273400000001,0.07778931,-0.29907227,0.23402405
13.038574,-0.44303894,-1.6455231,0.07141113,-0.35554504,0.10725403
12.679443,-0.6321869000000001,2.8076935,0.118270874,-0.19361877,-0.045074462999999995
12.344254,2.798706,6.200271599999999,0.108688354,-0.03489685,-0.23255920000000002
10.005111999999999,1.3741608,3.5068053999999997,0.0010986328,0.081222534,-0.29222107
10.412125,-0.921875,3.1811828999999996,-0.15550232,0.14407349,-0.16758728
12.576492,-2.9090729,5.7214355,-0.31315613,0.15046692,-0.04827881
14.853378,-2.1501007000000003,5.0366974,-0.41542053,0.16537476,-0.058929443
15.447128,0.30874634,4.450119,-0.43353270000000005,0.20799255,-0.1026001
14.020187,-0.6106262,3.5594788,-0.41967773,0.2836151,-0.057861328
11.288406,-1.2091827,3.2506256000000002,-0.43353270000000005,0.17070007,0.04333496
9.291641,-0.86442566,3.2601929,-0.47080994,-0.23410034,0.1477356
8.195099,0.12438965,2.8867035,-0.46975708,-0.5227814000000001,0.22763062
7.6252747,1.2017822,2.5227814,-0.43778992,-0.4269104,0.25
7.2493896,1.7931519,2.1947784,-0.37919617,-0.33636475,0.12962341
7.065033000000001,1.3286743,1.8045197,-0.19703674,-0.3842926,-0.02909851
6.6436615,0.37817383,1.6680602999999998,-0.0042266846,-0.34275818,-0.07809448
5.760193,-0.31375122,1.7829741999999997,0.036254882999999995,-0.28842163,0.03907776
4.771393,-0.7447052,1.778183,-0.12246704,-0.17550659,0.19033813
4.4936676,-0.7111969,1.8667755000000001,-0.21835327,-0.06791687,0.17010498
5.231079,-0.09109497,1.5507355,0.17793274,-0.5057373,-0.1579895
6.626892,0.42126465,0.30575562,0.48686218,-0.7550049,-0.45733643
8.7864685,-0.54359436,-0.22814941,0.45277405,-0.5014801,-0.44348145
11.369812,-2.1979827999999997,-0.19464111,0.2184143,-0.33850098,-0.31245422
12.966736000000001,-2.3560027999999997,-0.21139526,-0.036193848,-0.22131348,-0.2517395
13.570084,-2.42305,-0.95599365,-0.14697266,-0.18190002,-0.18356323
13.366577,-2.1261597,-2.258438,-0.14271545,-0.11158752400000001,-0.07383728
12.085678,-0.8404845999999999,-2.8545990000000003,-0.052169799999999995,0.03327942,0.051864624000000005
11.218979,0.1986084,-0.7237549,0.059692382999999995,0.1770935,0.100860596
12.023422,-1.7191467,7.6822815,0.19923401,0.21224976,0.14241028
12.983505000000001,-5.865906,8.60405,0.42720032,0.22076416,0.14347839999999998
11.458389,-2.2530517999999997,3.9233856,0.658371,0.30065918,0.10406494
11.125595,3.035736,2.3384247000000005,0.76275635,0.4242401,0.040145874
14.156661999999999,3.4690857000000004,2.5227814,0.7244109999999999,0.44447327,0.035888672
16.115112,1.6351318000000001,2.956131,0.61042786,0.50413513,0.035888672
14.513397,-0.05996704,2.6233367999999997,0.44850159999999994,0.5286255,-0.006729125999999999
11.274047999999999,-0.6441498000000001,2.3144836,0.31321716,0.3954773,-0.100479126
8.989975,-0.9386443999999999,2.4413757,0.26208496,0.2793579,-0.18356323
7.175171000000001,-1.8388519,2.8723297000000003,0.28445435,0.21864319,-0.21339417
6.6532288,-3.0191956,2.9920502,0.3387909,0.20478821,-0.1729126
7.342758,-3.1844025,2.6448822,0.3164215,0.038604736,-0.13882446
7.606125,-2.2985535,1.8835297,0.25357056,-0.10307312,-0.10899353
6.538315,-1.1876373,1.402298,0.0650177,0.17390442,-0.13882446
6.1767883,-0.08390808,1.031189,-0.021270752,-0.0039978027,-0.22084045
5.800888,0.5888671999999999,0.64572144,0.040512085,0.0034637451,-0.16438293
6.0666504,0.08607483,0.6170044,0.056488037000000005,0.6138458000000001,0.08807373
7.2062990000000005,-1.1301727,0.46855164,-0.11608887,0.28256226,0.5802307
8.398605,-1.5707091999999998,0.092666626,-0.38452148,-0.24368286,0.68782043
9.3754425,-1.6066284,0.30575562,-0.35150146,-0.23410034,0.38209534
9.509506,-2.1932068,0.7103729,-0.09477234,0.051391599999999996,0.26597595
9.954834,-1.0535583,-0.039016723999999996,0.061813354,0.16751099,0.23081970000000002
12.949982,-0.09109497,-0.3550415,0.108688354,0.11210632,0.19354248
15.514175,-0.08151245,-0.48672485,0.07992554,-0.031692505,0.18289185
14.475082,-0.8165283,-1.7867737000000001,0.055419922,-0.09986877400000001,0.14454651
13.488678,-0.71836853,2.1349182,0.061813354,-0.03489685,0.003921509
12.246094,2.374939,5.264145,0.050094604,0.106781006,-0.19741821
10.0961,1.1419219999999999,3.4948273000000003,-0.044708252000000004,0.16004944,-0.29115295
9.547821,-1.9513855,2.956131,-0.20982361,0.13235474,-0.21018982
10.546204,-2.2841797,4.6895294000000005,-0.37919617,0.05885315,-0.06744385
12.861388999999999,-2.3823395,4.8595276,-0.51342773,-0.005065918,-0.049331665
14.680984500000001,-0.9697571,3.9090269999999996,-0.5773468,0.016235351999999998,-0.10473633
14.712112,0.06932068,3.7390442000000004,-0.5304718,0.09080505,-0.098342896
11.695419000000001,-0.44303894,3.430191,-0.44950867,0.07269287,-0.05253601
8.987579,-0.8237152,3.4565277,-0.42607117,-0.051940917999999996,0.042266846
8.132843,0.05256653,3.0710602000000002,-0.44418335,-0.21492004,0.12536621
7.5414734,1.0988312,2.4916534,-0.43778992,-0.28416443,0.12962341
7.009964,1.5920258,1.9338074,-0.33338928,-0.066848755,0.10192871
6.5502777000000005,1.5106354,1.8164977999999998,-0.26628113,-0.17871094,0.10192871
6.3826904,0.89053345,1.7494506999999997,-0.13418579,-0.38536072,0.04121399
6.1025696,0.1698761,1.5746765,0.038375854,-0.21812439,-0.019515991
5.425003,-0.5052948,1.560318,-0.0010375977,0.029022217000000003,0.07102966
5.3627625,-0.8500519,1.5651093,0.09164429,-0.16911316,-0.032287598
6.377899,-0.70880127,1.1006316999999999,0.5411835,-1.1076202,-0.47331238
7.733017,-0.65852356,0.3656006,0.36967468,-0.7326355,-0.44136047
8.582962,-0.9003296000000001,-1.1092224,0.07778931,-0.4077301,-0.33589172
9.748932,-0.8715973,-0.76205444,-0.1352539,-0.2266388,-0.3816986
10.694641,-1.2834014999999999,0.24110413,-0.27374268,-0.115859985,-0.28263855
11.8941345,-2.4876862,-0.22814941,-0.24179077,0.040740967,-0.18356323
14.190185999999999,-3.2897491000000003,-0.14675903,-0.100097656,0.18135071,-0.13989258
13.285171499999999,-2.7773895,-0.048583984000000004,0.010681152,0.22503662,-0.005661010699999999
12.222137,-1.7095794999999998,3.5738373,0.07885742,0.26445007,0.056121826
13.967514000000001,-4.2665863,9.3103485,0.20137024,0.247406,0.102996826
12.387344,-1.7191467,2.2977295,0.36860657,0.18881226,0.12962341
11.080109,3.3852843999999997,1.5579223999999998,0.53053284,0.24633789,0.11790466
13.584442000000001,4.4483185,2.9034576000000003,0.6349335,0.36778259999999996,0.10406494
15.370514000000002,1.0198212,3.2147064,0.63279724,0.44128418,0.13388062
14.623535,-1.1062317,3.5570831,0.5283966,0.42956543,0.12110901
12.629166,-0.45739746,3.4756775,0.39950562,0.25805664,0.024169922000000003
10.158339999999999,0.25128174,3.4206084999999997,0.3110962,0.069503784,-0.119644165
8.898987,-1.0368042,3.3679352,0.28552246,-0.05833435,-0.21232605
7.555847,-1.9585723999999998,3.0566864,0.2919159,-0.09454346,-0.21018982
6.832794,-1.9274445,2.8148804,0.2642212,0.16430664,-0.16545105
6.516754,-1.9801178,2.3575897,0.2184143,0.32836914,-0.17503357
6.140869,-2.00885,1.9601439999999999,0.07885742,0.23780823,-0.26878357
5.5878143,-1.5108489999999999,1.5172119,0.0032348633000000003,-0.07749939,-0.40727234
5.4944305,-0.62979126,1.2107544,0.22053528,-0.27565002,-0.36785890000000004
5.772171,-0.08151245,1.2275238000000002,0.52201843,0.013046265,-0.18888855
6.5814056,-0.5364075,1.0335846,0.6125641,0.36457825,0.28834534
7.3236084,-1.1445465,0.32250977,0.33772278,-0.08389282,0.7464142
7.855117999999999,-1.1828461000000001,-0.54418945,0.036254882999999995,-0.17443848,0.7474823
8.860686999999999,-1.6042328000000001,-0.81951904,-0.032989502000000004,0.21438599,0.6249695
10.555786,-1.6353455,0.8731841999999999,-0.031921387,0.30386353,0.6079254
12.090469,-0.65852356,1.2993469,-0.0010375977,0.18135071,0.54400635
14.360168,-0.35684204,0.5044708,-0.052169799999999995,0.11424255,0.37677002
14.465515,-0.49092102,-1.4372253000000001,-0.16722107,-0.10946655,0.14666748
12.413681,-1.7335205000000002,-1.3773651000000002,-0.24391174,-0.16592407,-0.10153198
9.756119,-1.0415955,2.8388214,-0.3270111,-0.06791687,-0.28157043
9.078552,0.34944153,4.9313507,-0.46229553,0.027954102,-0.36679077
11.776825,1.1898041000000001,3.5834197999999997,-0.64871216,0.13235474,-0.32949829999999997
15.377701,1.9511566000000002,4.304062,-0.85324097,0.16004944,-0.16545105
15.162231,0.789978,5.314422599999999,-0.9991913,0.11424255,-0.02909851
14.352982,-0.11264038,5.154007,-1.046051,0.06736755,-0.032287598
14.477478,-1.0607452,4.624893,-0.9832001,0.040740967,-0.11325073
12.6171875,-1.5563506999999999,4.035919,-0.84472656,0.10572815,-0.11645508
10.618027,-0.5819092,3.375122,-0.70944214,0.08229065,0.024169922000000003
8.159180000000001,0.45478820000000003,2.580246,-0.661499,-0.16804504,0.17224121
6.7657623,1.244873,2.0247955,-0.6274109,-0.2969513,0.21591187
6.478454599999999,1.9750976999999998,1.6010132,-0.5048981,-0.11053467,0.16477966
5.934966999999999,2.0445404,1.2251282,-0.40583800000000003,-0.18190002,0.065704346
5.705124,1.1036072000000001,1.2873688,-0.20875549999999998,-0.28309629999999997,-0.051467896
5.784134,-0.012084961000000002,1.37117,0.02027893,-0.07110596,-0.0014038085999999999
5.6644287,-1.0128632,1.560318,-0.002105713,0.01411438,0.19886779999999998
5.231079,-1.6473236,1.584259,-0.055358887,-0.027435302999999998,0.18821716
5.2286835,-1.5563506999999999,1.6967773000000002,0.2141571,-0.9978943000000001,-0.24108887
6.0714417,-1.1708832,1.2849883999999998,0.25782776,-0.81785583,-0.36146545
7.8335724,-0.91470337,-0.2425232,-0.0287323,-0.51426697,-0.23255920000000002
10.383392,-0.3616333,-0.4412384,-0.29930115,-0.35127258,-0.2506714
11.999481,-1.7191467,0.2052002,-0.31848145,-0.23728943,-0.24427795
13.131943,-3.938568,-0.23533629999999997,-0.2364502,-0.08177185,-0.21018982
14.420029000000001,-4.024765,-0.53460693,-0.08732605,0.029022217000000003,-0.21871948
13.905273000000001,-3.1365203999999998,-0.5872803000000001,0.03944397,0.07589722,-0.13029480000000002
13.775985999999998,-1.8412476000000002,1.7207183999999998,0.099105835,0.21971129999999997,0.04333496
14.882095000000001,-2.9856873,7.2034454,0.18218994,0.22608948,0.16691589999999998
12.262848,-1.3312836000000001,4.0478819999999995,0.32067870000000004,0.19094849,0.19033813
9.013916,2.3486022999999996,2.264206,0.46768188,0.19200134,0.14241028
9.966812,3.6462555,1.4094848999999998,0.60723877,0.2505951,0.09660339
14.362564,1.7045593,2.8603668,0.66581726,0.33901978,0.112579346
17.029709,-2.5331726000000003,3.8443756000000002,0.59124756,0.28575134,0.13282776
14.18779,-1.3241119,3.6121519999999996,0.43998718,0.13235474,0.06890869
10.613235000000001,0.6391449,3.3703307999999996,0.30789185,-0.05406189,-0.0834198
8.989975,-0.2634735,3.5546875,0.27273559999999997,-0.033828735,-0.23469543
7.634857000000001,-1.9250488000000001,3.7390442000000004,0.32279968,0.27296448,-0.29222107
7.0626373,-2.3248749,3.40625,0.33984375,0.51052856,-0.24534607
6.883072,-2.0782776000000003,2.8747252999999997,0.33346558,0.09719849,-0.16970825
6.3467712,-2.051941,2.5778502999999997,0.28977966,-0.11053467,-0.08981323
5.286148000000001,-1.8220977999999999,2.10141,0.16407776,0.0055847169999999995,-0.05999756
4.907852,-0.9889220999999999,1.6153870000000001,0.22480774,-0.21173096,-0.058929443
5.355575599999999,-0.0647583,1.0072478999999999,0.3941803,-0.25326538,0.016708373999999998
5.848785400000001,0.09326172,0.24349976,0.22373962,0.6969451999999999,0.28727722
6.911803999999999,-0.20123291,-0.86979675,-0.11076355,0.3773651,0.63668823
8.424942,-0.759079,-1.5808716,-0.48146057,-0.4460907,0.59513855
9.756119,-1.7119598000000003,0.056762695,-0.39091492,-0.37791443,0.38209534
9.988358,-2.3416443,1.644104,-0.018081665,0.118499756,0.37356567
10.227768,-0.8237152,0.119003296,0.16835022,0.104660034,0.3245697
12.693802,-0.31854248,-0.6040496999999999,0.20137024,0.0013275146,0.19354248
13.797531,-0.7111969,-1.2744141000000002,0.10229492,-0.09561157,0.16903687
13.064896000000001,-1.3073424999999999,-1.5018768,0.0042877196999999995,-0.12863159,0.10939026
13.062515,-1.8747711,0.76304626,-0.035125732,-0.14567566,-0.09513855
14.817459,2.3773346,6.5665894,-0.07879639,-0.018920898000000002,-0.27304077
12.289185,3.272766,3.1404877,-0.11502075,0.08973694,-0.31140137
10.266083,-0.67048645,1.857193,-0.16294861,0.10359192,-0.1771698
10.94603,-3.545929,4.9696503,-0.22047424,0.11105347,-0.006729125999999999
13.134338,-3.6201477,4.821212999999999,-0.27267456,0.11210632,0.034820557
15.303482,-0.9003296000000001,3.6600342000000006,-0.28865050000000003,0.12915039,-0.034423828
14.024979,-0.13179016,3.2290802000000003,-0.24923706,0.083343506,-0.058929443
10.972366000000001,-0.39755250000000003,2.925003,-0.20663452,-0.053009033,0.016708373999999998
9.250946,-0.05278015,2.9800720000000003,-0.22154236,-0.21173096,0.13601685
8.343536,0.8282776,2.5682678,-0.28865050000000003,-0.29481506,0.1796875
8.178345,0.6678772,2.3647614,-0.3067627,-0.12223816,0.15092468
7.7785034,0.3757782,2.0846405,-0.30143738,-0.14035034,0.09339905
7.093765299999999,0.29916382,1.6536865,-0.16615295,-0.36938477,0.009246826
6.4305725,0.18663025,1.3903198,0.15663147,-0.36299133,-0.014190673999999999
5.908630400000001,-0.15333557,1.3807526,0.21627808,-0.24156189,0.12004089
5.164032,-0.5268401999999999,1.457367,0.028793335,0.069503784,0.27450562
4.689987,-0.70640564,1.110199,0.10229492,-0.6644591999999999,-0.021636963
5.19516,-0.67048645,0.47813416,0.25569153,-1.1747284,-0.49674988
6.5263367,-0.40951538,-0.7931824000000001,0.13319397,-0.6442260999999999,-0.6757201999999999
8.355514999999999,0.33746338,-1.1499176000000002,-0.0074310303000000005,-0.22984314,-0.57025146
9.985961999999999,-0.009689330999999999,-0.0030975342,-0.10542297,-0.13183594,-0.34014893
11.360229499999999,-1.9346313000000002,-0.09408569,-0.11714172,-0.15846252,-0.12922668
13.105606,-3.2011566000000005,-0.24012756,-0.07879639,-0.05406189,-0.039749146
13.505432,-3.5028229,-1.3246917999999999,0.02772522,0.09400939999999999,0.047607422
12.207778999999999,-1.4102936000000001,-2.0501404,0.14491272,0.24208069,0.13282776
12.598038,-0.014480591000000001,5.9297333,0.24290466,0.35499573,0.16264343
13.577255,-2.9952544999999997,7.3255463,0.39950562,0.33474729999999997,0.17863464
13.270798000000001,-1.6664734,3.1548462,0.58699036,0.33262634,0.13815308
12.74408,1.6159668,2.1205597000000003,0.7233429,0.4316864,0.018844603999999997
14.082443,2.0565033,2.9321900000000003,0.7190857,0.55633545,-0.051467896
15.581207000000001,0.7037810999999999,3.5977782999999994,0.6082916,0.5541991999999999,-0.051467896
14.850983,-0.33050537,2.920227,0.47514343,0.41996765,-0.08555603
12.377761999999999,-0.5819092,2.5275726,0.36541748,0.19734192,-0.17184448
10.062576,-0.5268401999999999,2.7023467999999995,0.34197998,-0.02104187,-0.23683167
8.264526,-1.7574615000000002,2.8076935,0.36648559999999997,0.0077209473,-0.24215698
6.9836273,-2.815689,2.8052979,0.39950562,0.24313354,-0.22084045
7.048278999999999,-2.5451507999999996,2.611374,0.45809937,0.08015442,-0.1729126
7.2565764999999995,-1.937027,2.1109772,0.39311218,0.062042235999999994,-0.13775635
6.5047913,-1.3408661,1.4980621,0.19604492,0.051391599999999996,-0.18035889
5.599777,-0.5555725,1.1173859,0.17153929999999998,-0.22344970000000003,-0.17077637
5.324447599999999,0.04058838,0.85162354,0.27166748,-0.2500763,-0.057861328
5.3483887,0.05494690000000001,0.8085326999999999,0.35583496,0.27510070000000003,0.124298096
5.8846893,-0.25868225,0.28660583,0.2769928,0.598938,0.47477722
7.275726299999999,-0.72795105,-1.3414612,0.010681152,-0.10733032,0.7496033000000001
9.418533,-1.4893036,-0.89852905,-0.27053833,-0.41519165,0.5695800999999999
9.957230000000001,-1.9633636000000003,0.8157196,-0.16189575,0.04499817,0.41618347
10.330719,-1.1445465,0.1405487,0.021331787,0.30812073,0.41725159999999994
12.712952,-0.8237152,-0.055770874000000005,0.055419922,0.19627379999999997,0.29154968
13.507828,0.04777527,-1.6383362,-0.0031585693,0.0002593994,0.18182373
13.256439000000002,-0.8500519,-2.2823792000000003,-0.052169799999999995,-0.11158752400000001,0.09234619
12.46875,-2.0351868000000004,-0.5896759,-0.06921387,-0.059387207000000004,-0.04827881
13.328261999999999,-0.009689330999999999,5.652008,-0.14271545,-0.038085938,-0.24960327
12.0354,3.3397980000000005,5.711853,-0.27160645,0.0471344,-0.38383484
10.680283,1.3574066,2.0583038,-0.41223145,0.1259613,-0.3263092
10.483948,-1.4486084,2.240265,-0.5496521,0.1685791,-0.16651917
11.865402,-3.4980469,5.1707764,-0.64338684,0.19839478,-0.07383728
14.829436999999999,-1.9825133999999998,4.5386963,-0.6604309,0.18028260000000002,-0.058929443
15.365738,-0.07911682,3.6025696000000003,-0.6007843,0.12489319,-0.06744385
12.588455,-0.57951355,3.2865295,-0.53260803,0.046066284000000006,-0.045074462999999995
9.689072,-0.5052948,3.1021729,-0.51449585,-0.10519409,0.03375244
8.29805,0.42605590000000004,2.8675537,-0.5400543000000001,-0.27565002,0.13601685
8.087357,1.1443176000000002,2.2737884999999998,-0.5208893,-0.2543335,0.16903687
7.938919,1.3071289,1.8619843,-0.39837646,-0.08389282,0.13494873
7.4552917,1.1921997,1.6512909,-0.2801361,-0.21812439,0.058258057
7.0315094,0.7205353,1.4837036,-0.062820435,-0.4077301,-0.034423828
6.2438199999999995,-0.08151245,1.4621582,0.15342712,-0.40667725,-0.046142578
5.4513397,-0.72795105,1.6560822,0.06607056,-0.17124939,0.10511780000000001
4.9557495000000005,-1.1613007,1.5890503,-0.1352539,0.18774414,0.16903687
5.1568604,-1.1876373,1.0431671,0.09590149,-0.7486267,-0.2986145
6.047500599999999,-0.6848602,-0.027038574,0.2141571,-1.042633,-0.5819701999999999
7.6803436000000005,-0.50289917,-1.4396209999999998,-0.06600952,-0.6463623000000001,-0.44880676
9.770477,-0.39515686,-0.50587463,-0.325943,-0.30014038,-0.35614014
11.044189,-1.4294434,0.43264769999999997,-0.41116333,-0.21173096,-0.30712890000000004
11.865402,-2.9114685000000002,-0.12998962,-0.34405518,-0.15739441,-0.23043823
13.019409,-3.2059479,-0.9440155000000001,-0.18852234,0.10572815,-0.13456726
13.187012,-1.941803,-2.234497,-0.020202637,0.24208069,0.03694153
13.009841999999999,-0.0048980713,-0.98472595,0.06074524,0.34646606,0.18395996
14.300308,-1.4845123,7.9935303,0.13531494,0.40612793,0.19033813
13.634720000000002,-3.7997131,7.055008,0.27061462,0.36138916,0.13815308
10.76886,0.20579529,2.0487366000000002,0.42720032,0.38587952,0.075302124
11.733734,2.901657,1.3855438,0.5422516,0.45086670000000006,0.023101807000000002
14.482269,1.4747162,2.690384,0.5518341,0.46151733,0.009246826
16.222855,-1.5036774,3.8898773,0.45063782,0.4774933,-0.005661010699999999
14.867737,-1.2331238000000002,3.1117554,0.30256653,0.41358948,-0.077041626
11.185455000000001,0.021438599,2.8819122000000004,0.19284058,0.20266724,-0.17398071
9.013916,-0.36402893,3.0064087,0.19711304,0.011978148999999999,-0.24534607
7.9077910000000005,-1.8628082,3.0997925,0.28233337,0.036483765,-0.23788452
7.321213,-2.3224945,2.8914948,0.35369873,0.18241882,-0.19314575
7.4098053,-1.9035034,2.4485626,0.46022034,0.051391599999999996,-0.17398071
6.830398599999999,-1.8556213,1.9314116999999997,0.36009216,0.048202515,-0.10580444
5.700332599999999,-1.4533996999999999,1.3687744,0.10336304,-0.023178099999999997,-0.063186646
5.463318,-0.49810790000000005,0.85162354,0.002166748,-0.3012085,-0.02696228
5.487259,0.30155945,0.5308075,0.110824585,-0.41732788,0.009246826
5.4992220000000005,0.15312195,0.52601624,0.17793274,0.31770325,0.19140625
6.2917023,-0.57951355,0.33926392,0.11933899,0.727829,0.6228484999999999
7.567810000000001,-1.2666473,-0.30236816,-0.13206482,0.0055847169999999995,0.80926514
9.298828,-2.142929,-0.029434204,-0.32806396,-0.41625977,0.5738373000000001
10.471985,-2.1572876,0.83966064,-0.19598389,-0.08177185,0.4960785
11.171097,-1.1062317,0.22434998,0.02986145,0.21864319,0.5567932
12.765625,-0.5196533,-0.6279906999999999,0.15875244,0.15898132,0.46517944
13.433608999999999,-0.05278015,-1.9950714,0.10122681,-0.08177185,0.32350159999999994
13.376144,-1.4845123,-2.5984192000000004,0.0074920654,-0.18936157,0.15945435
12.145522999999999,-2.4206543,-0.9033203000000002,-0.056427002000000004,-0.1446228,-0.035491943
11.999481,-0.50289917,5.869873,-0.13739014,-0.039154053,-0.28263855
10.723372999999999,2.4874572999999995,6.2792816,-0.25776672,0.10572815,-0.43176270000000005
10.407333,2.6885833999999997,2.6712189,-0.42713928,0.083343506,-0.37744140000000004
10.416916,-0.81892395,2.7478333,-0.5911865,0.031158447000000002,-0.19528198
12.56691,-3.6225433,5.1037292,-0.7062378,0.041809082000000004,-0.06425476
16.447906,-2.3512115000000002,5.1396484000000004,-0.7200928000000001,0.059921265,-0.046142578
16.218063,-0.70401,3.8084717000000006,-0.6338043000000001,0.05885315,-0.047210693
12.638733,-0.5938720999999999,3.1237334999999997,-0.51768494,0.03327942,-0.010986328
9.727386,-0.5268401999999999,2.9968414,-0.45483398,-0.0146484375,0.05079651
8.597321,0.13156128,2.6233367999999997,-0.43992615,-0.06578064,0.09234619
7.816818,0.9671478000000001,2.1085814999999997,-0.38986206,-0.06259155,0.089141846
7.0698240000000006,1.3262787,1.8835297,-0.31954956,-0.08177185,0.10939026
6.6604156,1.2424773999999998,1.6704407,-0.21302795,-0.24794006,0.087020874
6.339584400000001,0.6511078,1.2514648000000002,0.11187744,-0.36087036,-0.04081726
5.9373627,-0.253891,1.165268,0.35369873,-0.29801940000000005,-0.09088135
5.3483887,-0.842865,1.1557007,0.2450409,0.08868408,0.06677246
5.240646400000001,-1.1852417,1.0216216999999999,0.1395874,-0.15953064,0.03907776
6.1289062,-1.4246674,0.45658875,0.27380370000000004,-1.0170746,-0.47651672
7.3954315,-1.1804503999999998,-0.21139526,0.17472839999999998,-0.8348999,-0.6820984
8.439300999999999,-0.56274414,-0.7189635999999999,-0.029800415,-0.41305542,-0.56173706
9.167145,-0.38317870000000004,-0.34068298,-0.20982361,-0.15206909,-0.36358643
10.452835,-1.8460387999999999,-0.23773193,-0.27267456,-0.115859985,-0.21018982
12.808731,-3.2035522000000003,0.080703735,-0.27267456,-0.017852783,-0.16970825
14.527756,-4.0822296,-0.23773193,-0.18959045,0.22715760000000002,-0.10685730000000002
13.012238,-2.9210358,-3.1131743999999997,-0.06707764,0.35606384,0.03161621
11.807953,-0.38078308,1.8500061,0.04902649,0.40826416,0.13069153
13.823868,-2.0184173999999997,7.6870728,0.2216034,0.36990356,0.18075562
13.579651,-1.3456573,4.936142,0.45382690000000003,0.35606384,0.19140625
12.289185,1.5393523999999998,3.106964,0.6509094,0.47004700000000005,0.14559937
13.270798000000001,2.719696,2.6401062,0.73612976,0.5531311,0.07423401
14.393692000000001,1.5058441,3.4636992999999996,0.7095031999999999,0.5797576999999999,0.05079651
14.839004500000001,-0.5747223000000001,3.4756775,0.57740784,0.6607208000000001,0.042266846
13.462341,-0.5531769,2.845993,0.41229248,0.58403015,-0.014190673999999999
10.577332,-0.1844635,2.7430573,0.28977966,0.26763916,-0.13989258
8.580566000000001,-1.1182098,2.9297942999999997,0.25250244,0.031158447000000002,-0.2559967
6.9213867,-2.3631897,2.8220520000000002,0.27166748,0.13874817,-0.25387573
6.4856415,-2.76062,2.6209412,0.28552246,0.106781006,-0.14627075
6.839981,-2.384735,2.1923828,0.24929810000000002,-0.031692505,-0.05467224
6.4952087,-1.7694244,1.6680602999999998,0.0884552,0.1302185,-0.024841309
5.9469449999999995,-0.9386443999999999,1.2945556999999999,-0.19810486,0.13449097,-0.12817383
5.970886,-0.024047852,0.90190125,-0.24391174,-0.29162598,-0.20700073
5.762588500000001,0.36380005,0.9785155999999999,-0.053237915,-0.31825256,-0.07597351
6.160019,-0.253891,1.2634277,0.02772522,0.39120483,0.24681091
7.464859,-1.0511627000000001,0.43983459999999996,-0.07028198,0.7075958000000001,0.71125793
8.903777999999999,-1.0511627000000001,-0.8099518,-0.41755676,0.18135071,0.8486786000000001
9.329956,-1.2810059,-0.43644714,-0.62420654,-0.45567322,0.5887604000000001
9.095322,-1.7263336,-0.5178528,-0.40583800000000003,-0.27990723,0.35333252
10.646759,-0.92666626,-0.043807982999999995,-0.09690857,0.0034637451,0.23828125
13.979492,-0.50289917,0.8372649999999999,0.14277649,0.0045166016,0.203125
14.652251999999999,0.23451233,-0.96795654,0.16835022,-0.14994812,0.22549438
13.026596000000001,-0.59866333,-1.8777618000000003,0.12573242,-0.29588318,0.23614502
11.183060000000001,-2.0016632,-0.285614,0.096969604,-0.29907227,0.09660339
11.06575,-0.8045654000000001,5.810028,0.061813354,-0.16699219,-0.14627075
11.570922999999999,2.6023865,7.047821000000001,-0.01701355,0.04499817,-0.29968262
12.042572,3.505005,3.8874817000000004,-0.16082764,0.1259613,-0.24215698
11.135178,-1.9011078000000001,4.011978,-0.31315613,0.10784912,-0.096206665
12.799149,-4.517975,5.991974,-0.42395020000000005,0.071640015,-0.039749146
14.807877,-2.9162445,5.56102,-0.44525146,0.034347534,-0.11431885
14.779144,-1.5443726,4.323226999999999,-0.42181396,0.09719849,-0.19102478
11.520645,-0.95539856,3.648056,-0.44418335,0.16111755,-0.13989258
8.700272,-0.5890808000000001,3.3056946000000003,-0.5283356,0.09826660000000001,-0.024841309
7.5127562999999995,0.18423462,2.7167206000000004,-0.6092987,-0.001876831,0.027359009
7.012359599999999,1.0413666,2.240265,-0.56988525,-0.022109985,0.020965576
6.57901,1.6423035,2.0415497,-0.51449585,-0.055130005,0.05505371
6.3204346,1.3047333,1.9553528000000002,-0.36854553,-0.19255066,0.0018005370999999999
6.188751,0.3757782,1.8595886000000001,0.009613037,-0.27137756,-0.14308167
6.239029,-0.45739746,1.5770721,0.22373962,-0.34062195,-0.12284851
6.160019,-1.0128632,1.29216,0.11401367,-0.19680786,0.023101807000000002
6.385086,-0.9984894,0.8636017,0.042648315,0.0013275146,-0.041885376
7.033905,-0.57232666,0.104644775,0.29724120000000004,-0.9105377,-0.48928833
7.754562400000001,-0.17967224,-0.8027649,0.15875244,-0.8775177,-0.5766449
8.606902999999999,0.10284424,-0.7453003,-0.05961609,-0.46525574,-0.5819701999999999
9.303619,-0.47416687,-0.015075683999999999,-0.18319702,-0.23516846,-0.59155273
10.632400500000001,-2.5403595,0.30575562,-0.27160645,-0.13290405,-0.44348145
13.002655,-3.1820068,0.99768066,-0.29930115,-0.0072021483999999995,-0.26771545
13.361785999999999,-3.7733765,-0.33828735,-0.23007202,0.041809082000000004,-0.10153198
12.614792,-2.8659668,-2.72052,-0.13313293,0.10252380000000001,0.09553528
13.316298999999999,-0.68963623,0.28660583,-0.023406982000000003,0.25379944,0.20632935
15.310669,-2.0926514,8.098877,0.16088867,0.29533386,0.22444153
12.236511,-2.0232086,4.5267334,0.41336059999999997,0.33155823,0.24467468
10.302002,1.1610718,2.415039,0.6509094,0.3731079,0.24786377
12.334671,3.0261536,3.655243,0.8309325999999999,0.38269043,0.18714905
15.2556,1.6423035,3.8994446000000003,0.8863373,0.37950134,0.112579346
15.734435999999999,-0.97454834,3.9712677000000003,0.8213501,0.36457825,0.06677246
12.684219,-0.12939453,3.4996185,0.691391,0.30386353,0.04333496
9.962021,0.28240967,2.786148,0.57847595,0.13768005,-0.009918213
8.944489,-0.842865,2.9273987,0.52734375,-0.013595581,-0.11218262
7.5654144,-2.4613495,3.1644287,0.56248474,0.040740967,-0.20379639
6.995605499999999,-3.1891937,3.0231779999999997,0.6040344,0.13768005,-0.17184448
6.954895,-2.949768,2.8268432999999997,0.5742035,0.0045166016,-0.096206665
6.629287700000001,-2.4110717999999998,2.5634918,0.48791504,-0.03489685,-0.06744385
5.891876,-1.6018371999999999,1.9409942999999998,0.24610901,0.21224976,-0.10685730000000002
5.539932299999999,-0.49571228,1.2083588,0.07673645,-0.03489685,-0.13882446
5.487259,0.260849,0.6864319000000001,0.019210815,-0.3012085,-0.028030396000000003
5.685974,-0.00010681152,0.39433290000000004,-0.11608887,0.43914795,0.17329407
6.655624400000001,-0.88357544,-0.024642944,-0.35043335,0.84820557,0.56425476
8.135239,-1.3935393999999999,-0.637558,-0.6423187,-0.26179504,0.78689575
9.227005,-1.7263336,-0.35983276,-0.6338043000000001,-0.42051697,0.54507446
9.430511,-2.154892,0.27462770000000003,-0.32806396,0.27189636,0.425766
10.024261,-1.1589049999999999,-0.0030975342,-0.05003357,0.32409668,0.3842163
13.081665,-0.20600891,0.19561768,0.06074524,0.14300537,0.27557373
14.812667999999999,0.62716675,-0.31195068,-0.011688232,-0.024246216,0.22976685
13.467132999999999,0.28718567,-2.356598,-0.1267395,-0.11904907,0.14559937
12.076096000000001,-0.94104004,-1.6958008000000002,-0.15122986,-0.17764282,-0.07064819
13.459945999999999,1.299942,5.606521599999999,-0.15122986,-0.09561157,-0.32844543
11.602051,3.6271057,4.924164,-0.21302795,0.011978148999999999,-0.49035645
9.104889,-0.60105896,1.9673308999999997,-0.34405518,0.11317444,-0.47438050000000004
10.43367,-3.3304443,4.701507599999999,-0.5070342999999999,0.12063599,-0.30073547
13.289963,-4.2713623,7.198653999999999,-0.6593628,0.14939879999999997,-0.16226196
15.542907999999999,-1.4916992,5.1635895,-0.76057434,0.17922974,-0.15266418
15.588394000000001,0.23451233,4.0455017,-0.77227783,0.1451416,-0.17398071
12.796753,-0.37121582,3.32724,-0.70410156,0.09080505,-0.16758728
10.342697,-1.024826,3.2314606,-0.614624,0.048202515,-0.11112976
9.028275,-0.46218872,3.2673798,-0.5570984,-0.06578064,-0.028030396000000003
7.754562400000001,0.71336365,2.7837523999999996,-0.548584,-0.17337036,0.03375244
6.9333496,1.3143004999999999,2.2737884999999998,-0.52726746,-0.11265564,0.06465149
6.478454599999999,1.6878052,1.9553528000000002,-0.49212646,-0.08177185,0.05505371
6.4856415,1.3621826000000001,1.6273499,-0.34724426,-0.28630066,-0.047210693
6.3874817,0.473938,1.5028534,0.024536132999999998,-0.4737854,-0.15586853
5.6237183,-0.21319580000000002,1.5076447,0.21948242,-0.46313477,-0.1026001
5.0299683,-0.78541565,1.323288,0.20030212,0.023696900000000003,0.040145874
5.3914795,-1.4725494,1.1676636,0.50283813,-0.49508667,-0.32310486
6.4377594,-1.5707091999999998,0.92585754,0.5007019,-0.79229736,-0.6703949
7.598938,-1.1493225,-0.053375244,0.08418274,-0.62397766,-0.6224518
8.6284485,-0.33529663,-1.2648468000000002,-0.19384766,-0.31932068,-0.51698303
10.124817,-0.0025024414000000004,-0.6734772,-0.30569458,-0.07431030000000001,-0.4477539000000001
11.827103,-1.8340758999999998,0.066329956,-0.32913208,-0.024246216,-0.33163452
13.163070999999999,-3.3759308,0.49249268,-0.2801361,0.09080505,-0.14627075
13.170242000000002,-4.1684113,-0.7189635999999999,-0.15975952,0.17602539,0.04866028
12.071304,-2.5044402999999997,-2.0740814,-0.08093262,0.27189636,0.2265625
14.678589,-2.2482604999999998,7.7612915,-0.011688232,0.28256226,0.30538940000000003
14.482269,-3.186798,6.8371277,0.16835022,0.21118164,0.30220032
10.644363,1.9320068,2.6472778,0.38246155,0.23887634,0.27450562
12.207778999999999,3.6366730000000005,2.9824677000000004,0.5529022,0.35606384,0.1946106
16.455092999999998,2.31987,3.9401550000000003,0.6232147,0.42849729999999997,0.075302124
16.416779000000002,-0.47177124,4.272949,0.60084534,0.46577454,0.009246826
13.694579999999998,-0.5388031,3.8348082999999997,0.50497437,0.42956543,-0.008865356
11.080109,0.16508484,3.4134216,0.38885498,0.21543884,-0.044006348
8.997162,0.22254944,3.1572418,0.31854248,0.020507812,-0.11431885
7.452896000000001,-1.0152588,3.0207825,0.33132935,-0.039154053,-0.20593262
6.6125336,-2.2458801,3.0399323,0.41229248,-0.08496094,-0.26239014
6.40184,-2.336853,2.690384,0.46875,-0.060455322,-0.20700073
6.2725525,-2.0950317,2.2905425999999998,0.41441345,0.07269287,-0.1026001
5.7266693,-1.7718201,1.8356476000000002,0.15449524,0.21864319,-0.08023071
5.345993,-0.79019165,1.4980621,-0.008483886999999999,-0.17443848,-0.10580444
5.2933197,0.20100403,1.2251282,0.063949585,-0.4812317,-0.046142578
5.436980999999999,0.32789612,1.1197815,0.07778931,0.0471344,0.15306091
6.3515625,-0.35923767,0.5906677,-0.055358887,0.97283936,0.5749054
7.8742676,-1.3001709,-0.108444214,-0.36961365,0.20478821,0.8273773000000001
9.04744,-1.9825133999999998,-0.46757507,-0.5986481,-0.46418762,0.6548004
9.473602,-2.1908112,-0.8434601,-0.4835968,-0.2511444,0.54507446
10.709014999999999,-1.1996002000000001,-0.40771484,-0.20343018,0.12809753,0.53123474
13.167847,-0.20600891,0.3751831,0.0032348633000000003,0.15791321,0.36930847
14.44635,0.42366028,0.32011414,-0.015945435,-0.05406189,0.18608093
12.736892999999998,0.05734253,-1.7293243000000003,-0.057495117000000005,-0.11158752400000001,0.042266846
10.737732000000001,-1.6569061,-2.344635,-0.06707764,-0.08177185,-0.057861328
10.728164999999999,-1.4486084,4.945709,-0.12780762,-0.026367188,-0.22616577
12.016235,3.2919160000000005,8.357452,-0.24604797,0.09080505,-0.4093933
12.631546,4.615906,3.830017,-0.41967773,0.16111755,-0.41366577
11.99469,-0.81414795,3.1668243,-0.6050415,0.16751099,-0.24215698
13.191803,-4.3695374000000005,6.0374756,-0.7563019,0.09187317,-0.10473633
15.246017000000002,-2.8731537,5.93692,-0.84365845,0.04925537,-0.077041626
15.612335,-0.9721527,4.735030999999999,-0.8085022,0.0023956299,-0.063186646
13.740067000000002,-0.05757141,3.6360931000000005,-0.6977234,-0.033828735,-0.003540039
9.969208,-0.07911682,3.2123107999999996,-0.6061095999999999,-0.08282471,0.10406494
8.135239,0.08607483,2.8507842999999995,-0.56881714,-0.20959473,0.18289185
7.5343018,0.8953247,2.3144836,-0.5123595999999999,-0.24261475,0.16584778
6.847167999999999,1.4699249,1.9697266,-0.39730835,-0.15953064,0.122161865
6.222275,1.4986572,1.7757874,-0.32913208,-0.30334473,0.065704346
6.025955000000001,1.1850128,1.584259,-0.08518982,-0.36938477,-0.056793212999999995
6.030730999999999,0.42845154,1.3616028,0.28019714,-0.18403625,-0.11431885
5.178406,-0.21319580000000002,1.3089294,0.292984,-0.20852661,0.009246826
4.436203,-0.86203,1.2227325,0.14170837,0.13981628,0.11151123
4.941375700000001,-1.3767853,0.77500916,0.36434937,-0.5281066999999999,-0.23788452
6.3324127,-1.4222716999999998,0.06872558599999999,0.6200104000000001,-1.0437011999999999,-0.6799774000000001
7.840759299999999,-0.82850647,-0.8650055,0.40057373,-0.7070770000000001,-0.6320343
9.507126,0.14833069,-0.1563263,0.13426208,-0.33955383,-0.42538452
10.716187,-1.0942688,0.21955872,-0.012756348,-0.24900818,-0.2986145
12.34903,-2.8731537,-0.25209045,-0.07772827,-0.19468689,-0.22616577
14.508606,-3.0623016,0.3751831,-0.088378906,-0.026367188,-0.19528198
13.730483999999999,-2.9952544999999997,-1.3223114,0.0181427,0.10145569,-0.07916260000000001
12.202988000000001,-1.1804503999999998,-2.5242004000000002,0.14810179999999998,0.18562317,0.12643433
13.596420000000002,-0.9075165000000001,5.8555145,0.25675964,0.32197570000000003,0.25746155
14.434387,-3.6680297999999993,7.924103,0.40483093,0.35818479999999997,0.32350159999999994
11.515854,-0.9865265,3.5905913999999997,0.57847595,0.37843323,0.31924438
10.019485000000001,2.568863,2.5108185,0.7212219,0.43275452,0.21484375
12.351425,3.1219330000000003,3.1835785,0.7787323,0.46897888,0.098739624
15.813445999999999,0.6032257,4.134079,0.75531006,0.56803894,0.03694153
16.735214000000003,-1.1732788,3.6025696000000003,0.6551666,0.60746765,0.003921509
13.0720825,-0.06954956,2.85318,0.50709534,0.44979858,-0.058929443
9.665131,0.36141968,2.9585266,0.37181090000000006,0.25698853,-0.1729126
8.171158,-1.292984,3.1309052000000004,0.28445435,0.13449097,-0.29647827
6.9237823,-2.5212097,2.8029022,0.26741028,-0.0146484375,-0.31459045
6.911803999999999,-2.4206543,2.628128,0.30789185,-0.18936157,-0.21765137
7.132064999999999,-2.1022186,2.4820862,0.3515625,-0.25965879999999997,-0.11431885
6.3467712,-1.5970459,1.9792938000000002,0.34518433,-0.15953064,-0.047210693
5.791321,-0.87638855,1.402298,0.18325806,0.01411438,-0.037628174
5.365158,-0.08151245,0.93063354,0.06820679,-0.17871094,-0.037628174
5.0227814,0.32789612,0.7941741999999999,-0.04257202,0.14939879999999997,0.030563353999999997
5.958908,-0.17727661,0.7271271,-0.22154236,0.772583,0.3330841
7.634857000000001,-0.69203186,0.5116577,-0.56669617,0.106781006,0.742157
8.494369500000001,-0.70640564,0.5667267,-0.69984436,-0.48336792,0.68995667
8.772095,-1.079895,0.38716125,-0.3312683,-0.27458190000000005,0.49287415
9.629227,-1.8795624,0.1405487,0.10443115,0.023696900000000003,0.40660095
11.642746,-0.9937134,-0.44842529999999997,0.3164215,0.07057189999999999,0.27983093
14.027373999999998,-0.8404845999999999,-0.67826843,0.36009216,-0.06578064,0.27023315
14.520584,-0.7614746,-1.4132843000000002,0.2546234,-0.14355469,0.28727722
12.942795,-0.78541565,-2.0884552,0.16728210000000002,-0.14355469,0.12110901
13.752045,1.2233276000000002,3.5594788,0.09271239999999999,-0.051940917999999996,-0.13775635
13.263626,4.718857,5.223449700000001,-0.025527954,0.15579224,-0.3497467
10.218200999999999,0.68463135,2.877121,-0.21408081,0.26124573,-0.39022827
9.892593,-2.925827,4.404632599999999,-0.43885803,0.23248291,-0.22616577
11.874985,-4.704712000000001,6.312805,-0.62527466,0.21224976,-0.046142578
13.821472,-3.5578917999999997,5.0103607000000006,-0.7168884,0.14939879999999997,-0.01737976
15.023360999999998,0.18423462,4.337585400000001,-0.6891937,0.07589722,-0.049331665
13.737670999999999,1.0964355,3.1740112000000003,-0.5794678000000001,0.06736755,-0.033355712999999995
10.934067,0.26803590000000005,3.0016173999999998,-0.45057678,-0.06472778,0.009246826
8.772095,-0.01687622,3.16922,-0.3781433,-0.24794006,0.07102966
7.661194,0.6894226,2.6927642999999994,-0.36854553,-0.2969513,0.12004089
6.978836,1.3166962,2.264206,-0.3312683,-0.20852661,0.12750244
6.375503500000001,1.8506011999999998,2.0032349,-0.29185486,-0.09347534,0.14347839999999998
6.1504517,1.6351318000000001,1.7949523999999997,-0.23219299999999998,-0.2511444,0.08595276
6.1289062,0.8474425999999999,1.7279053,0.038375854,-0.37045288,-0.03656006
5.865539599999999,-0.12939453,1.7805786,0.28871155,-0.27990723,-0.11325073
5.2765656,-1.1469421,1.5124358999999998,0.23332214,-0.17231749999999998,-0.020584106
5.403457599999999,-1.5826721000000001,1.2418823,0.00642395,0.11956787,0.10618591
6.377899,-1.3121338,0.5164489999999999,-0.01701355,-0.48762512,-0.181427
7.780899000000001,-0.8332976999999999,-0.31434629999999997,0.122543335,-1.0767212,-0.5851593
9.013916,-0.3041687,-0.6447449000000001,-0.034057617000000005,-0.71665955,-0.5074005
9.638794,-0.32333374,-0.13238525,-0.20130920000000002,-0.41200256,-0.357193
10.615631,-1.6760558999999997,0.42785645,-0.26841736,-0.34169006,-0.3263092
12.392136,-2.3320618,0.13098145,-0.21728516,-0.27244568,-0.36146545
14.843796,-3.2059479,-0.28321838,-0.121414185,-0.05406189,-0.31033325
13.910048999999999,-3.2682037,-2.6917877,-0.011688232,0.08654785,-0.09088135
12.21257,-0.69203186,-2.452362,0.0884552,0.19306946,0.10406494
13.775985999999998,0.3829651,4.8140410000000005,0.17793274,0.3262329,0.24467468
13.823868,-2.0782776000000003,7.179504400000001,0.33346558,0.3496704,0.32882690000000003
10.747314,-0.8811798000000001,3.7629851999999997,0.5763397,0.3720398,0.34054565
9.387405000000001,1.8673706,2.8005066000000003,0.7936554,0.44021606,0.29473877
11.944412,2.0325623,3.0997925,0.8948517,0.45086670000000006,0.22337341
15.827805,-0.09828186,3.8778992,0.87887573,0.48709106,0.15199279999999998
17.290665,-1.3312836000000001,3.8228302000000003,0.75849915,0.55633545,0.089141846
13.263626,-0.031234741,2.9465637000000005,0.5763397,0.43914795,0.015640259
10.088913,0.56970215,2.5658722000000003,0.41548157,0.200531,-0.100479126
8.45607,-0.62020874,2.9178314,0.33239746,0.07589722,-0.228302
7.134460400000001,-2.2865752999999995,3.162033,0.34091187,0.12382507,-0.30180359999999995
7.0147552,-2.9162445,3.1285095000000003,0.38139343,0.09613037,-0.27836609999999995
7.0746155,-2.6864014,2.7358703999999996,0.35795593,-0.053009033,-0.20700073
6.286911,-2.044754,2.1468964,0.25250244,0.036483765,-0.15161133
5.927795400000001,-1.0032806,1.5866547,-0.04257202,0.17602539,-0.1729126
5.899063,-0.028839111,1.0647125,-0.2609558,-0.09454346,-0.181427
5.5088042999999995,0.27043152,0.8444519,-0.2843933,-0.24900818,-0.05253601
5.9397583,-0.19644165,0.70318604,-0.20236206,-0.026367188,0.12750244
7.1895294000000005,-0.70401,0.073516846,-0.21089172,0.901474,0.40660095
8.604507,-1.0056763000000002,-0.34068298,-0.34085083,0.52757263,0.66545105
9.066589,-1.4916992,0.13815308,-0.6135559,0.043930054,0.6207123000000001
9.045044,-1.9944762999999999,0.29377747,-0.6849365,0.009841919000000001,0.43641663
10.371429,-1.1636963,0.2554779,-0.42820740000000007,0.09187317,0.4076538
13.349808,-0.22038269,0.40870667,-0.12034607,0.017303467,0.27557373
14.817459,1.0581207000000001,-1.3175201,0.075668335,-0.029571532999999997,0.15945435
13.768799,0.16748047,-2.8138885,0.13319397,-0.104141235,0.1796875
11.764847,-1.7215424,-2.727707,0.14916992,-0.22877502,0.07423401
11.89653,-2.3512115000000002,2.1756287,0.14491272,-0.13822937,-0.12496948
12.40889,1.0150299,7.1531677,0.07885742,0.029022217000000003,-0.25387573
11.422485,2.7412415,4.517151,-0.039382935,0.08868408,-0.3028717
11.441635,1.3358459999999999,3.4086304,-0.21408081,0.046066284000000006,-0.22723389
10.436066,-2.1979827999999997,5.8722687,-0.42288208,-0.07643127400000001,-0.057861328
12.384949,-3.5962067,6.1763306,-0.5954437,-0.061523438,0.0071258545
15.3489685,-2.1405334,5.1037292,-0.6572418000000001,0.052459717,-0.018447876000000002
13.720917000000002,-0.78541565,4.014374,-0.6231536999999999,0.020507812,-0.03656006
10.876602,-0.5771179,3.3320160000000003,-0.5539093,-0.005065918,-0.013122558999999999
9.478394,-0.31614685,2.8795166,-0.48892212,-0.013595581,0.049728394
7.749771000000001,0.31112670000000003,2.4796906,-0.4559021,0.0087890625,0.1285553
6.9980009999999995,0.67744446,2.3264617999999997,-0.39411926,0.04925537,0.17329407
6.5742188,1.2233276000000002,2.1588592999999996,-0.29185486,0.118499756,0.1796875
6.059463500000001,1.2855682,1.9625397,-0.27053833,0.116378784,0.14559937
6.3994446,0.770813,1.7279053,-0.21940613,-0.11691284,0.0007324219
6.330017,0.13156128,1.6225586,0.03944397,-0.25753784,-0.14840698
5.5447083,-0.41670227,1.6656647,0.25994873,-0.33422852,-0.12817383
5.7506104,-0.65133667,1.4310303,0.2695465,-0.053009033,0.03375244
6.667602499999999,-0.79977417,0.8420563,0.42826843,-0.11053467,-0.065322876
7.5893707,-0.8931427,-0.11323547,0.853302,-0.98617554,-0.46052550000000003
8.470428,-0.838089,-0.5896759,0.74038696,-0.83810425,-0.4189911
9.540633999999999,-0.35684204,-0.37898254,0.34944153,-0.43009949999999997,-0.28901672
10.754501,-0.76387024,0.33688354,0.11508179,-0.20640564,-0.27729797
11.956389999999999,-1.6257781999999998,0.22195435,-0.053237915,-0.27458190000000005,-0.26239014
13.4982605,-2.2051697,0.32011414,-0.1586914,-0.10093689,-0.32524109999999995
13.783157000000001,-2.7869568,-0.68066406,-0.21195984,0.029022217000000003,-0.31245422
12.880554,-2.4254456,-2.4020843999999997,-0.19064331,0.0045166016,-0.100479126
13.550919,-1.7742156999999998,2.3815307999999997,-0.08944702,0.09933472,0.13494873
15.145462,-4.0032196,9.281616,0.06288147,0.1259613,0.26597595
11.908508,-1.1684875,4.0023956,0.27166748,0.14300537,0.30433655
9.016312,1.9990386999999998,1.1987915,0.48791504,0.25166320000000003,0.20526123
10.09848,3.1674194,3.6743927000000003,0.6498413000000001,0.43275452,0.058258057
13.153488000000001,1.5106354,3.6743927000000003,0.71694946,0.5776366999999999,-0.016311646000000003
16.763947,-1.1541138000000002,3.5139769999999997,0.67541504,0.58296204,-0.00033569336000000005
14.829436999999999,-0.40951538,2.9154357999999996,0.5571594,0.44660950000000005,0.022033691
10.641967999999999,0.9096832,2.7669982999999996,0.44212340000000006,0.29321290000000005,-0.009918213
8.79364,0.27282715,2.829239,0.36116028,0.28042603,-0.07809448
7.156006,-1.4318389999999999,2.944168,0.33558655,0.3965454,-0.15054321
6.353958,-2.463745,2.956131,0.36009216,0.40931702,-0.22190857
6.4473267,-2.7654113999999996,2.5993958,0.375,0.092941284,-0.228302
6.926162700000001,-2.605011,2.1516876,0.25357056,-0.078567505,-0.119644165
7.112914999999999,-1.7718201,1.8452301,0.033050537000000005,0.16963196,-0.013122558999999999
6.179183999999999,-0.56274414,1.2801971,-0.27587890000000004,0.22929382,-0.045074462999999995
5.468094000000001,0.0070648193000000005,1.105423,-0.39305115,-0.24049377,-0.1579895
5.8128660000000005,-0.25868225,1.1269684,-0.34831238,-0.10946655,-0.121780396
7.065033000000001,-0.7662505999999999,0.61221313,-0.27587890000000004,0.664978,0.23721313
8.843933,-1.2235565000000002,-0.2568817,-0.40690613,0.28681946,0.76452637
10.07933,-1.1684875,-0.18984985,-0.5720215,-0.43223572,0.76771545
9.54303,-1.3983306999999998,0.5092621,-0.48040770000000005,-0.19575499999999998,0.4076538
8.23819,-2.2722168,-0.27842712,-0.2566986,0.18455505,0.27130127
9.811188000000001,-1.4342346000000001,-0.39814758,-0.0010375977,0.22503662,0.24360657
14.135117000000001,0.0836792,1.0695038000000001,0.21520996,0.050323485999999994,0.24360657
16.431151999999997,0.9934844999999999,-0.31913757,0.29405212,-0.21917725,0.27662659999999994
14.475082,-0.86920166,-2.2727966,0.34091187,-0.29269409999999996,0.21697998
12.619583,-1.8987121999999999,2.1109772,0.35050964,-0.25646973,-0.005661010699999999
11.226150500000001,1.0700988999999999,6.908966,0.28659058,-0.09667969,-0.21765137
9.401779,1.6470947,4.952896,0.13105774,0.06311035,-0.28582764
10.01709,-0.52204895,3.2913208,-0.13739014,0.14939879999999997,-0.1729126
12.15271,-2.4374084,5.93692,-0.46336365,0.17495728,-0.041885376
14.065674,-2.9952544999999997,6.348724400000001,-0.6923828000000001,0.19520569,-0.074905396
14.403259,-1.427063,5.7549589999999995,-0.75737,0.16751099,-0.15693665
13.421645999999999,-0.91470337,4.8140410000000005,-0.7200928000000001,0.10891724,-0.17823792
10.737732000000001,-1.2427063,3.9401550000000003,-0.6785431,0.10998535,-0.13668823
8.908569,-1.3432617,3.2697754,-0.6551056,0.03541565,-0.04827881
7.9532776,0.08607483,2.453354,-0.67214966,-0.11904907,0.04866028
6.942932000000001,1.5585175,1.9146576000000002,-0.6828003,-0.18190002,0.12536621
5.9565125,2.3845062,1.6225586,-0.66256714,-0.11053467,0.14987183
5.8727264,2.3845062,1.3184966999999999,-0.567749,-0.20959473,0.077423096
6.751388499999999,1.2807921999999998,1.5076447,-0.21089172,-0.5110626,-0.09408569
6.602950999999999,-0.10545349,1.6536865,0.24610901,-0.42051697,-0.20700073
5.630905,-0.94821167,1.6488953000000002,0.34197998,-0.0061340330000000005,0.0007324219
5.772171,-1.4725494,1.4669341999999999,0.14596558,0.18988037,0.23509216
6.3108673,-1.3983306999999998,0.98809814,0.010681152,-0.5568695,0.02949524
7.393036,-0.79019165,0.29617309999999997,0.31428528,-1.1108093,-0.56066895
8.779282,-0.20600891,-0.29759216,0.47726440000000003,-0.6783142,-0.8461609
9.823151,-0.07911682,-0.42687988,0.49005127,-0.2820282,-0.69488525
10.843079,-1.5395813,0.20999146,0.421875,-0.18508911,-0.36465454
12.284393,-3.1173706,0.56910706,0.3110962,-0.13502502,-0.18995667
14.819854999999999,-4.515579,0.35603333,0.07778931,-0.12651062,-0.12817383
14.431992000000001,-4.0941925,-1.9136658,-0.0756073,0.0002593994,-0.057861328
12.047363,-1.1469421,-2.8186798,-0.06600952,0.106781006,0.12643433
11.032227,1.0365753,3.241043,0.037322997999999996,0.21118164,0.24786377
11.975539999999999,-1.4055023000000002,8.082123,0.26634216,0.20692444,0.36717224
12.516632000000001,-3.3711547999999993,6.331955000000001,0.564621,0.13554382,0.3480072
11.819916000000001,-1.5084534,4.1556244,0.78619385,0.18774414,0.15838623
11.949203500000001,1.1730499,3.2386475,0.88526917,0.34434509999999996,0.010314941
14.807877,1.92482,4.0742188,0.8692931999999999,0.38162229999999997,0.019897461
15.918792999999999,1.754837,3.3152617999999996,0.74038696,0.37097168,0.06890869
13.471924,1.2400818,2.2019653,0.52627563,0.27296448,0.008178711
9.614853,0.7803955,2.410263,0.32174683,0.17390442,-0.14840698
7.3834686000000005,-0.6321869000000001,2.9106445,0.21520996,0.19520569,-0.27836609999999995
5.5447083,-2.6026154,3.3679352,0.2141571,0.24208069,-0.26239014
5.381912000000001,-3.5315552,3.5307465,0.20349121,0.036483765,-0.13029480000000002
6.538315,-3.1460876,2.8843078999999996,0.15023804,-0.18403625,-0.06425476
6.847167999999999,-2.1596832000000004,2.0176086,0.05329895,0.05671692,-0.056793212999999995
5.9517365,-0.79019165,1.3687744,-0.10223389,0.13128662,-0.07809448
5.6428833,0.4045105,0.81811523,-0.13313293,-0.2511444,-0.065322876
5.927795400000001,0.6511078,0.45419312,-0.23751831,0.5009308,0.03161621
6.954895,-0.04321289,0.17167664,-0.4047699,0.99627686,0.40126038
8.369873,-0.62020874,-0.20420837,-0.8266144,0.019439697,0.76026917
9.449661,-0.92666626,0.15252686,-0.9096985000000001,-0.36724854,0.54400635
9.452057,-1.5228271,0.64094543,-0.54751587,0.04499817,0.32775879999999996
9.933289,-1.8795624,0.119003296,-0.21728516,0.018371582,0.23295593
12.564513999999999,-0.7135773,-0.37420654,0.050094604,0.009841919000000001,0.035888672
15.432770000000001,-0.5172577,-0.3502655,0.15875244,-0.025299072000000002,0.056121826
14.506210000000001,-0.35684204,-1.3917389,0.15663147,-0.16378784,0.13175964
12.753662,-0.69203186,-1.3031464,0.19390869,-0.21812439,0.053985596
13.493469000000001,1.8529968,5.671158,0.23013306,-0.08496094,-0.13349915
11.218979,4.285507,5.5179290000000005,0.19390869,0.062042235999999994,-0.31672668
9.150391,0.42126465,2.6353150000000003,0.07673645,0.13449097,-0.35614014
10.2565,-2.7223206,5.230621299999999,-0.11395264,0.09826660000000001,-0.15480042
12.301147,-4.731048599999999,6.7317963,-0.29292297,0.09080505,0.06037903
14.925201000000001,-2.7630157000000004,5.039093,-0.36428833,0.19306946,0.08595276
15.631485000000001,-0.46458435,4.31604,-0.3493805,0.17816162,0.019897461
13.079269,-0.6944275,3.40625,-0.31954956,0.21331787,0.0071258545
9.887802,-0.9530029000000001,3.1716156000000004,-0.33978270000000005,0.0471344,0.09020996
7.785690299999999,-0.56274414,3.0183868,-0.41862488,-0.28097534,0.19779968
6.777725,0.28240967,2.5874328999999996,-0.4793396,-0.41412354,0.22016907
6.3683167,1.2568358999999998,2.5778502999999997,-0.5251465,-0.26498413,0.19673157
5.815262000000001,1.9367981,2.276184,-0.47613525,-0.48017883,0.077423096
6.0666504,1.6375275,1.8069153000000002,-0.14164734,-0.6229248000000001,-0.11325073
6.4736633,0.49069214,1.6417236000000002,0.25889587,-0.28630066,-0.20700073
5.614151000000001,-0.38078308,1.6704407,0.35263062,0.16751099,0.0071258545
4.855179,-0.80696106,1.6752319,0.28338623,0.23887634,0.10406494
4.836029,-0.8309021000000001,1.5986176,0.58273315,-0.8743286,-0.33377075
5.7075195,-0.39515686,1.0024719000000002,0.56781006,-0.9510193000000001,-0.48822020000000005
7.460083,0.31591797,-0.15872192,0.27061462,-0.58244324,-0.41471863
9.516693,0.43563843,-0.4819335999999999,0.06288147,-0.3438263,-0.37211609999999995
11.5182495,-1.1062317,-0.055770874000000005,-0.041519165,-0.20747375,-0.26132202
13.720917000000002,-2.9545592999999997,-0.2137909,-0.044708252000000004,-0.06578064,-0.20700073
15.413620000000002,-4.139694,-0.7764281999999999,-0.032989502000000004,0.08441162,-0.14840698
13.835830999999999,-2.894699,-2.0022583,-0.014877318999999998,0.19520569,-0.04295349
12.605209,-1.1014403999999998,0.09027099599999999,-0.034057617000000005,0.27510070000000003,0.089141846
14.925201000000001,-2.2530517999999997,9.403717,0.009613037,0.34646606,0.17756653
13.670639000000001,-2.8204803,5.711853,0.15768433,0.35925293,0.20526123
10.222992,1.1060028,2.1373138,0.34623718,0.37843323,0.19033813
11.087296,3.449936,2.6999512,0.51242065,0.41145325,0.10618591
13.775985999999998,2.3414154,2.7358703999999996,0.60084534,0.51478577,-0.031234741
16.208496,-0.9937134,3.9138184000000003,0.5997772,0.5765686,-0.09408569
14.642685,-0.6321869000000001,3.6456604,0.5454406999999999,0.49453735,-0.13029480000000002
11.013077000000001,0.58647156,3.1189423,0.47407532,0.35925293,-0.17610168
8.721817,0.28479004,2.9944458,0.43040466,0.16537476,-0.21551514
7.5845795,-1.0990448,2.9968414,0.42720032,-0.05619812,-0.1963501
6.614928999999999,-2.0567322,2.8867035,0.36755370000000004,-0.14035034,-0.09301758
6.0331269999999995,-2.288971,2.6879882999999998,0.30363464,-0.25221252,-0.05253601
5.626114,-2.3009338,2.3623657000000002,0.25357056,-0.19894409,-0.04295349
5.7793427,-2.130951,1.8476256999999998,0.13745117,0.071640015,-0.06637573
5.3867035,-1.3456573,1.3639832,0.17472839999999998,-0.11691284,-0.12817383
5.1041870000000005,-0.34487915,1.1149902,0.31747437,-0.23622131,-0.07916260000000001
5.3795166,-0.25151062,0.91867065,0.12892151,0.7033385999999999,0.19567871
6.2414246,-0.68006897,0.83247375,-0.23326111,0.51478577,0.7144623000000001
7.304458599999999,-0.8739929,0.6576996,-0.71476746,-0.39814758,0.76878357
8.463242,-1.0990448,-0.24012756,-0.72435,-0.39601135,0.43109129999999996
9.813583,-1.5539551,-0.09408569,-0.41009520000000005,-0.008255005,0.37463379999999996
11.946808,-0.3496704,-0.6160126,-0.11288452,0.1302185,0.28089905
15.133498999999999,-0.19644165,-0.54418945,0.021331787,0.12170410000000002,0.16584778
15.660217000000001,-0.75668335,-0.5106659,-0.041519165,-0.14248657,0.17543029999999998
13.469528,-0.9649810999999999,-1.5305939,-0.09158325,-0.29162598,0.098739624
11.855835,-1.316925,0.2889862,-0.05961609,-0.16485596,-0.06851196
11.637955,2.9303894,7.1555634,-0.051101685,-0.0072021483999999995,-0.27836609999999995
10.321152,4.352539,3.5714417000000003,-0.13206482,0.10040283,-0.39767456
10.086517,0.61997986,2.2306976,-0.27481079999999997,0.030090332,-0.30073547
11.041808999999999,-3.56987,5.592148,-0.43139648,-0.0146484375,-0.06211853
14.511002,-5.083008,6.197876,-0.56455994,0.0023956299,0.06997681
16.814224,-1.4821167,4.945709,-0.6423187,-0.090286255,0.05718994
14.410445999999999,0.03579712,4.0885925,-0.6359253,-0.104141235,-0.012054443
11.417694000000001,-0.6393585,3.2745667000000003,-0.5869293000000001,-0.07749939,-0.010986328
9.246155,-0.84765625,3.2937163999999997,-0.5443115,-0.13928223,0.06677246
7.898208599999999,-0.21080017,3.2625884999999997,-0.5294036999999999,-0.33743286,0.122161865
7.2206573,0.7373046999999999,2.6999512,-0.43992615,-0.3480835,0.14134216
6.830398599999999,1.3478241000000002,2.5036316000000003,-0.3035736,-0.2554016,0.13494873
6.267761,1.5393523999999998,2.039154,-0.11288452,-0.36087036,0.026290894
6.057068,1.0198212,1.4645386,0.23013306,-0.14567566,-0.13562012
5.5734406,0.44760132,1.2993469,0.33132935,0.06311035,-0.07171631
5.3388214000000005,-0.22038269,1.2059784,0.13851929,0.116378784,0.1285553
5.2645874,-0.93385315,0.8348694,-0.064956665,0.040740967,0.102996826
5.6356964000000005,-1.2091827,0.41827393,0.16300964,-0.95954895,-0.40087890000000004
6.677169999999999,-0.8715973,-0.2928009,0.33026123,-0.8487549000000001,-0.71939087
8.180725,-0.15093994,-0.8626251,0.33558655,-0.51852417,-0.65335083
9.854279,-0.37121582,-0.14675903,0.22267151,-0.25965879999999997,-0.42004395
11.535003999999999,-2.5236053,-0.18745422,0.07034302,-0.08496094,-0.27197266
14.666626,-3.6823883,-0.12519836,-0.053237915,-0.09881592,-0.21765137
15.234055,-3.9481506,-1.3510284,-0.11714172,0.08654785,-0.15266418
11.702606,-1.6329651,-3.1802063,-0.084121704,0.27189636,0.03375244
10.744919,0.5816803,0.26983643,-0.01701355,0.34434509999999996,0.21910095
12.34903,-1.2019958,8.163528,0.09057617,0.31558228,0.3245697
13.452759,-3.617752,6.442093,0.29510498,0.27189636,0.33203125
12.480713,-1.0631409,3.8587493999999998,0.5241394,0.30918884,0.24893188
12.583664,2.1187592,2.7238922000000003,0.65730286,0.35818479999999997,0.09979248
14.652251999999999,1.8577881,3.4373627,0.66049194,0.46151733,-0.039749146
15.837387,0.7732085999999999,3.537918,0.5614319000000001,0.44979858,-0.09408569
14.757598999999999,0.4835205,2.4485626,0.41654968,0.31237793,-0.13456726
11.190247,0.46914673,2.3336487,0.30575562,0.15258789,-0.1963501
8.422546,0.14114379999999999,2.8507842999999995,0.28126526,0.0034637451,-0.2506714
6.5263367,-1.427063,3.0734557999999996,0.3238678,0.02583313,-0.21871948
6.2773438,-2.9856873,3.1668243,0.32814026,0.19413757,-0.11325073
6.7178802,-3.2753754,2.8843078999999996,0.3164215,0.0087890625,-0.039749146
6.8064575,-2.5044402999999997,2.2498473999999997,0.14491272,0.08441162,-0.008865356
6.48085,-1.3408661,1.4453888000000001,-0.0287323,0.10252380000000001,-0.06744385
5.384308,-0.10066223,0.78938293,-0.014877318999999998,-0.17550659,-0.077041626
4.7306824,0.46914673,0.5738983,-0.020202637,0.15046692,0.010314941
4.915039,0.011856078999999999,0.5020752,-0.15762329,0.8737792999999999,0.33735657
6.2486115,-0.79019165,0.36322020000000005,-0.38240050000000003,0.08441162,0.6782379
7.972442599999999,-1.2498931999999998,-0.17547607,-0.62420654,-0.3757782,0.5983429
9.918915,-2.1141967999999998,0.18125916,-0.5560303000000001,-0.023178099999999997,0.47477722
11.166306,-1.4366302,0.37757874,-0.34298706,0.14193726,0.46945190000000003
12.741684,-0.24671936,-0.6184082,-0.1352539,0.041809082000000004,0.25532532
15.188553,-0.2778473,-0.9105072,-0.074539185,-0.09347534,0.053985596
14.850983,-0.35684204,-1.8011475,-0.045776367000000005,-0.16059875,0.018844603999999997
13.031386999999999,-1.4390258999999999,-2.373352,0.023468017999999997,-0.15953064,-0.025909424
12.930832,-0.9099120999999999,3.1883698,0.07141113,-0.029571532999999997,-0.19421387
11.568527,3.2655792000000003,6.616867,0.08631897,0.11956787,-0.30073547
9.70105,2.6742096,3.1835785,0.037322997999999996,0.1685791,-0.31565857
10.582123,0.04298401,3.2099152,-0.09265137,0.18348694,-0.11112976
12.05455,-3.7661896,5.4293365,-0.23751831,0.10572815,0.10406494
14.412842000000001,-3.4214325,5.0606384,-0.33552550000000003,0.08761597,0.12643433
15.566849,-1.0846863000000002,4.193939,-0.35577393,0.10359192,0.05505371
13.390518,-0.8715973,3.3535767,-0.34191895,0.069503784,0.023101807000000002
9.873428,-0.8237152,2.925003,-0.34298706,-0.001876831,0.077423096
8.439300999999999,-0.5076904000000001,2.8148804,-0.372818,-0.21917725,0.16052246
6.89505,0.3757782,2.69516,-0.3547058,-0.33955383,0.19779968
6.4617004,0.7779999,2.6353150000000003,-0.26948547,-0.16804504,0.20419312
6.3204346,1.0892487,2.2737884999999998,-0.18852234,-0.22024536,0.14347839999999998
5.985244799999999,1.3119048999999998,1.8739471,0.038375854,-0.38963318,0.016708373999999998
6.3922577,0.7373046999999999,1.6560822,0.2919159,-0.23622131,-0.047210693
6.1025696,0.08847046,1.5531311,0.24717712,-0.02104187,0.08807373
5.527954,-0.52204895,1.3879242,0.09803772,0.10359192,0.13601685
5.6165465999999995,-0.76864624,1.0216216999999999,0.41229248,-0.90309143,-0.34867859999999995
6.1193237,-0.5890808000000001,0.41110230000000003,0.50497437,-1.0234528,-0.61712646
7.390640299999999,-0.5819092,-0.6950225999999999,0.24824524,-0.5760498000000001,-0.50527954
9.634018,-0.22994995,-0.4412384,0.16407776,-0.23728943,-0.41471863
11.666687,-1.3815613000000002,0.19801329999999998,0.083114624,-0.10093689,-0.26239014
12.712952,-2.8851318,-0.39575195,-0.012756348,-0.07963562,-0.15586853
14.077651999999999,-3.4836730000000005,-0.8051605,-0.074539185,0.057785034000000006,-0.12284851
13.086456,-2.7079619999999998,-1.9831085,-0.06600952,0.14939879999999997,-0.04295349
12.140747,-0.85484314,-0.8937378,-0.053237915,0.24208069,0.04333496
13.941177,-1.5084534,9.576096000000001,0.031982422,0.3262329,0.10406494
14.420029000000001,-4.1013794,6.913742,0.2546234,0.38587952,0.16903687
11.276428,-0.27305603,1.0599213,0.5060272,0.40931702,0.20526123
11.254883,3.8473663,2.0654907,0.6828613,0.43063354,0.122161865
13.175034,3.0500946,3.5259552000000003,0.7329406999999999,0.46897888,-0.02696228
15.995407,-0.94821167,4.311249,0.6690216,0.48709106,-0.10685730000000002
15.614730999999999,-0.9577941999999999,2.9824677000000004,0.50283813,0.35179138,-0.11431885
11.544586,0.37098694,2.5347595000000003,0.30789185,0.14086914,-0.16012573
8.903777999999999,0.30874634,2.6975555,0.22267151,0.013046265,-0.24320984
7.381073,-1.1565094,2.7717742999999997,0.25782776,0.027954102,-0.25920105
6.507187,-2.494873,2.8124847,0.31854248,0.0013275146,-0.16226196
6.2294617,-2.743866,2.786148,0.35476685,-0.13076782,-0.09941101
6.327621499999999,-2.4350127999999995,2.6089783,0.32067870000000004,0.040740967,-0.07597351
6.1863556,-1.8053436,2.039154,0.11933899,0.19734192,-0.08129883
5.645279,-0.69921875,1.3017426,0.07460022,-0.2266388,-0.06958008
4.759414700000001,0.3542328,0.65530396,0.12573242,-0.36938477,-0.006729125999999999
5.0634765999999996,0.21296692,0.27223206,-0.029800415,0.7075958000000001,0.24467468
6.598160000000001,-0.31375122,0.078308105,-0.27053833,0.58721924,0.6718445
8.173553,-0.7878113,-0.07971191400000001,-0.5752106,-0.2266388,0.74108887
9.219818,-1.779007,0.16688538,-0.5070342999999999,-0.26393127,0.5344238
9.794417999999999,-2.5714874,-0.13957214,-0.21302795,0.08868408,0.45452879999999996
11.551772999999999,-1.2498931999999998,-0.37181090000000006,0.037322997999999996,0.0471344,0.33628845
14.601974499999999,-0.43107605,0.16448975,0.16621399,-0.048736572,0.16903687
14.889282000000001,0.31591797,-0.49870299999999995,0.11933899,-0.14355469,0.13282776
12.653107,-0.07432556,-2.0716858,0.047973632999999995,-0.12437439,0.046539307
11.958786,-1.316925,0.020843506,-0.0010375977,-0.03276062,-0.15161133
12.3250885,1.912857,7.035858,-0.05961609,0.07269287,-0.33695984
10.965195,3.1698150000000003,4.509964,-0.16722107,0.18562317,-0.42964172
10.955612,0.6463165,3.1428833,-0.31634520000000005,0.2708435,-0.28475952
12.011459,-3.1556702000000003,5.6591797,-0.46975708,0.18667603,-0.05253601
13.316298999999999,-4.1803894,5.9273375999999995,-0.59225464,0.06736755,0.022033691
15.461502,-1.5347899999999999,4.9074097000000005,-0.6188812,-0.008255005,-0.006729125999999999
14.2500305,0.0022888184,3.6624297999999995,-0.5283356,-0.022109985,-0.021636963
11.570922999999999,-0.13658142,2.8914948,-0.4324646,0.048202515,0.02949524
9.16954,-0.09828186,2.944168,-0.39730835,0.015167236,0.09767151
7.369095,0.69659424,2.8076935,-0.4132843,-0.11479187,0.124298096
7.100952,1.1395263999999998,2.501236,-0.40370178,-0.16166687,0.11790466
6.7178802,1.5992126,2.2905425999999998,-0.30464172,-0.11798096,0.12750244
6.081024,1.572876,2.118164,-0.19703674,-0.28630066,0.12322998
6.1696014,0.770813,1.857193,0.058624268,-0.43544006,-0.013122558999999999
5.9325714000000005,-0.06236267,1.6321411,0.34091187,-0.34915159999999995,-0.08769226
5.341202,-0.84765625,1.4693298000000001,0.2450409,-0.16699219,0.035888672
5.2358704000000005,-1.3767853,1.0695038000000001,-0.06921387,0.15258789,0.18928528
6.1983337,-1.1996002000000001,0.39912415,-0.097976685,-0.5504760999999999,-0.01524353
7.8072357000000006,-0.625,-0.11323547,0.23545837,-1.1257172,-0.50527954
9.100098,-0.13418579,-0.78601074,0.41336059999999997,-0.7539520000000001,-0.7715911999999999
9.918915,-0.33769226,-0.29998779999999997,0.37713623,-0.4695282,-0.6309661999999999
10.261291499999999,-2.1405334,0.39912415,0.22799683,-0.21705627,-0.32524109999999995
11.774429,-3.3927002,0.22914124,0.108688354,-0.18296814,-0.11325073
13.866959,-3.5291595,0.18125916,0.011749268,-0.13395691,-0.047210693
13.275589000000002,-2.5906372,-2.3996887000000005,-0.002105713,0.095062256,0.0018005370999999999
11.795975,0.14833069,-3.1873932000000003,0.022399902000000003,0.28042603,0.09553528
11.329102,1.4531708,4.4142,0.06074524,0.34220886,0.16584778
12.861388999999999,-2.640915,8.606444999999999,0.18112183,0.32090759999999996,0.18928528
14.214127,-4.436569,5.8507233,0.35476685,0.26977540000000005,0.17863464
12.653107,0.11480713,2.8364257999999998,0.50497437,0.32730103,0.09660339
13.036178999999999,2.5569,2.6185455,0.53692627,0.39334106,-0.005661010699999999
14.932373000000002,1.9750976999999998,3.6121519999999996,0.45277405,0.42530823,-0.065322876
15.257995999999999,1.0605163999999998,3.0303497000000004,0.33239746,0.39227295,-0.10473633
13.213348000000002,0.24409485,2.501236,0.20988464,0.29321290000000005,-0.18249512
9.916534,0.12438965,2.5922089,0.11401367,0.13128662,-0.26985168
7.618088,-0.93385315,3.0926056,0.08418274,0.083343506,-0.34228516
6.428177,-2.18602,3.2290802000000003,0.06288147,0.200531,-0.34867859999999995
6.373108,-2.5140228,3.1189423,0.05329895,0.07908630000000001,-0.27836609999999995
6.9357452,-2.1213683999999997,2.7789612,0.0884552,-0.09986877400000001,-0.16970825
6.6077423,-1.4007263,2.1325226,0.013885498000000001,0.038604736,-0.08236694
5.8607483,-0.69921875,1.3544159,0.017074585,-0.16378784,-0.06637573
5.106582599999999,-0.06715393,0.90190125,0.16728210000000002,-0.39707947,-0.04081726
5.03714,-0.27545166,0.79177856,0.30149840000000006,-0.07005310000000001,0.05079651
5.815262000000001,-0.79737854,0.49728394,0.24610901,0.8258361999999999,0.37463379999999996
7.7066803,-1.0056763000000002,-0.25209045,-0.032989502000000004,0.48176575,0.67503357
9.629227,-1.0391998,-0.49630737,-0.42395020000000005,-0.2266388,0.59194946
10.325942999999999,-1.2834014999999999,0.35124207,-0.548584,-0.23303223,0.44706726
10.735352,-0.71836853,0.28181458,-0.37174988,0.06417847,0.42150879999999996
12.868576,-1.0751038,0.23153687,-0.17573547,-0.005065918,0.24893188
14.451141,-1.5683136,-0.40771484,-0.058563232,-0.08282471,0.07423401
13.95076,-1.4773406999999998,-2.210556,-0.064956665,-0.068984985,0.06251526
12.612396,-2.2362976000000003,-2.8426207999999997,-0.0756073,-0.09986877400000001,0.044403076
11.487122,-1.9968720000000002,2.142105,-0.09690857,-0.05833435,-0.08981323
11.190247,2.3126830000000003,7.277664,-0.17787170000000002,0.13128662,-0.24320984
11.053772,4.421982,4.299286,-0.3344574,0.24313354,-0.31140137
11.446425999999999,1.5489349,2.6017914,-0.5389862,0.26124573,-0.23469543
11.211791999999999,-2.7702026,5.063034,-0.71795654,0.19839478,-0.11857605
12.461563,-3.8045044000000003,5.5945434999999994,-0.8276825000000001,0.09613037,-0.09727478
15.305878,-0.9889220999999999,4.5315247,-0.84791565,0.023696900000000003,-0.12071228
14.759994500000001,-0.05517578,3.3415985,-0.7850647,-0.0061340330000000005,-0.077041626
10.955612,-0.14376831,2.9920502,-0.67214966,-0.12437439,0.018844603999999997
8.71225,-0.11264038,2.7454376,-0.58374023,-0.21385193,0.11578369
7.740203999999999,0.69181824,2.3575897,-0.534729,-0.26605225,0.16477966
7.1991119999999995,1.2472687,2.0008545,-0.45271300000000003,-0.15846252,0.15412903
7.002777,1.4411926000000002,1.7590331999999997,-0.29292297,-0.035964966,0.15625
6.6915436,1.1993866000000002,1.778183,-0.17359924,-0.13076782,0.19140625
6.5,0.66548157,1.7901611000000002,0.04902649,-0.19787598,0.13282776
6.0738373,0.04537964,1.7614288,0.25036620000000004,-0.19148254,0.049728394
5.03714,-0.64894104,1.5674896,0.118270874,-0.11479187,0.08274841
5.025176999999999,-1.1732788,1.3879242,-0.14590454,0.1770935,0.16477966
6.3036804,-1.3839569,0.64094543,-0.03086853,-0.7752533,-0.16012573
7.847931,-1.2283325,-0.20181274,0.24717712,-0.978714,-0.5265808000000001
9.090530000000001,-1.1852417,-0.9990844999999999,0.14277649,-0.43756104,-0.44561768
10.064972000000001,-0.87638855,-0.06295776,-0.002105713,-0.15206909,-0.322052
10.706619,-1.8340758999999998,0.21716309,-0.072402954,-0.14567566,-0.2559967
12.100037,-2.8180847,-0.106048584,-0.1309967,-0.12544249999999998,-0.1729126
14.065674,-3.0575104,-0.20899963,-0.14697266,-0.030639648,-0.1579895
13.687393,-2.9114685000000002,-1.9064941000000002,-0.07028198,0.02583313,-0.098342896
12.121582,-0.8213196,-1.6000366000000001,0.010681152,0.17070007,0.04333496
12.523819,-0.2419281,6.403778,0.10549927,0.31132507,0.17543029999999998
14.290741,-2.1118011,6.825164999999999,0.27061462,0.37950134,0.21591187
12.923645,-1.3576202,2.9776764,0.4495697,0.3997345,0.15412903
11.005889999999999,1.4028931,2.5203857000000003,0.5805969,0.38908386,0.042266846
12.210175,2.5736542,3.16922,0.61361694,0.43275452,-0.057861328
14.843796,-0.014480591000000001,3.4493407999999994,0.5230713,0.49560547,-0.12817383
15.81105,-0.8811798000000001,3.0734557999999996,0.32493590000000006,0.43701172,-0.12710571
12.281998,0.2895813,2.6496735,0.096969604,0.23036194,-0.14627075
9.073775999999999,0.3183136,2.6688232000000003,-0.07772827,-0.039154053,-0.22723389
7.347549400000001,-1.2738341999999998,2.8914948,-0.12246704,-0.12437439,-0.29222107
6.926162700000001,-2.585846,2.8340302000000004,-0.10116577,0.12063599,-0.23150635
7.175171000000001,-2.4757233,2.6736145000000002,-0.08093262,0.12382507,-0.10685730000000002
7.136856,-2.1453247,2.5131989,-0.064956665,-0.08709717,-0.065322876
6.531128,-1.7909698,2.0319672,-0.15762329,0.1174469,-0.05467224
5.9517365,-0.9984894,1.4238434,-0.23858643,-0.008255005,-0.07809448
5.3435974,0.10762024,1.0958405,-0.11395264,-0.34062195,-0.046142578
5.283752400000001,0.49787903,0.93782043,0.122543335,-0.20108032,0.05293274
6.1193237,-0.07194519,0.48771667,0.2184143,0.5531311,0.35226440000000003
7.4074097000000005,-0.48373413,-0.50349426,0.0415802,0.2239685,0.7506714
8.906174,-0.83569336,-1.3558197,-0.24604797,-0.3331604,0.70806885
9.959625,-1.5252228,-0.017471313,-0.24923706,-0.15100098,0.46517944
10.031448,-1.427063,0.22914124,0.02986145,0.25273132,0.42257690000000003
11.621201,-1.0679321000000002,0.047180176,0.24610901,0.16323853,0.39060974
14.077651999999999,-1.1134186000000001,0.23153687,0.34411620000000004,-0.005065918,0.31604004
14.024979,-0.51246643,-1.3965302,0.28338623,-0.18083191,0.22763062
12.772812,-1.5491638,-1.839447,0.20349121,-0.24261475,0.06677246
11.513458,-2.1118011,2.5587006000000003,0.15875244,-0.16059875,-0.13136292
11.223755,0.90489197,6.6815186,0.09803772,-0.022109985,-0.26878357
10.86702,2.580841,4.6153107,-0.01914978,0.053527832000000004,-0.28157043
11.889342999999998,0.54815674,2.901062,-0.17254639,0.06843567,-0.16651917
13.136733999999999,-3.0072327000000003,5.3575134,-0.29930115,0.062042235999999994,-0.021636963
14.139892999999999,-3.4693146,5.295273,-0.36642456,0.06097412,-0.022705077999999997
14.800704999999999,-1.2187653,4.31604,-0.35150146,0.116378784,-0.13136292
13.258835000000001,-0.64894104,3.6456604,-0.29824829999999997,0.19306946,-0.1771698
11.013077000000001,-0.6321869000000001,2.8890991,-0.2843933,0.17176819,-0.09408569
9.035461,-0.34727478,2.6329192999999997,-0.32487488,0.009841919000000001,0.06890869
7.5295105,0.60562134,2.3001251,-0.39730835,-0.19041443,0.19354248
6.926162700000001,1.4603576999999999,2.0247955,-0.43460083,-0.23303223,0.22016907
7.07222,1.6183624,1.8763428,-0.42500305,-0.11158752400000001,0.203125
6.964477499999999,0.9647522,1.6129913,-0.34617615,-0.19255066,0.12643433
6.871109,-0.08390808,1.5531311,-0.076660156,-0.324646,-0.00033569336000000005
6.540710400000001,-0.75668335,1.5914458999999999,0.21308899,-0.34275818,-0.055725098
5.7697754,-0.86920166,1.4908752,0.22906494,-0.31611633,0.030563353999999997
5.3172607,-0.7016144,1.347229,0.047973632999999995,0.034347534,0.10939026
5.6189423,-0.2993927,0.8947296,0.17260742,-0.45674133,-0.1729126
6.782516499999999,0.03819275,0.17646789999999998,0.48153687,-0.88816833,-0.56066895
8.324387,0.0501709,-0.6734772,0.46554565,-0.53237915,-0.5755768
9.985961999999999,-0.45501709999999995,-0.6064453000000001,0.30682373,-0.28416443,-0.4477539000000001
11.470367,-2.1285553,-0.022247314,0.11721802,-0.24581909,-0.28582764
12.851822,-2.774994,0.0040893555,0.0032348633000000003,-0.20959473,-0.16331482
13.7161255,-3.0024414,-0.49391174,-0.03831482,-0.059387207000000004,-0.11538696
12.86618,-2.7989349999999997,-2.356598,-0.020202637,0.09826660000000001,-0.051467896
11.980331,-1.1277771,-2.7037659,0.040512085,0.20266724,0.061447144
12.957169,-0.6728821,4.7877045,0.14064026,0.31770325,0.15519714
14.228485000000001,-3.229889,7.5601807,0.28659058,0.376297,0.21165466
12.4831085,-1.4653625,4.014374,0.45703125,0.40931702,0.22763062
10.720978,1.6854095000000002,2.9106445,0.6317291,0.43595886,0.18821716
11.683456,2.5305633999999997,2.4581451000000003,0.7435913000000001,0.48495483,0.13494873
14.482269,1.2712097,2.956131,0.7744751,0.5765686,0.09767151
15.418396,0.1986084,2.9824677000000004,0.7158966,0.58296204,0.058258057
13.021805,0.021438599,2.4485626,0.5795288000000001,0.4540558,-0.0024719238
10.369034,-0.23713684,2.4342040000000003,0.43572998,0.26551820000000004,-0.110061646
8.714644999999999,-1.3336792,2.6401062,0.35050964,0.08973694,-0.2517395
7.579788000000001,-2.221939,2.6879882999999998,0.33558655,0.06311035,-0.32524109999999995
7.2852936,-2.2793883999999998,2.5084229,0.3110962,0.06629944,-0.24215698
7.050674400000001,-2.130951,2.276184,0.24717712,-0.08815002400000001,-0.13136292
6.535919,-1.7718201,1.9026793999999998,0.12786865,-0.0072021483999999995,-0.051467896
6.1528472999999995,-1.1229858,1.5076447,-0.07772827,0.08761597,-0.06958008
5.784134,-0.45979309999999995,1.2586517,-0.07879639,-0.36724854,-0.11218262
5.4273987,-0.17010498,1.0120392,0.07460022,-0.53237915,-0.06637573
6.1145325,-0.5531769,0.679245,0.118270874,0.22715760000000002,0.14880371
7.4385223,-0.917099,0.25787354,-0.022338867000000002,0.8982849,0.5653229000000001
8.544647,-0.79019165,-0.16590881,-0.35256958,0.31025696,0.7783661000000001
8.956451,-0.87638855,-0.18745422,-0.62101746,-0.22238159,0.5994109999999999
8.997162,-1.4749451,-0.07252502400000001,-0.58374023,-0.19041443,0.39381409999999994
10.369034,-0.6609191999999999,-0.26167297,-0.35043335,-0.06365967,0.22549438
13.79274,-0.5771179,0.3177185,-0.109695435,-0.05406189,0.07423401
14.989838,-0.3209381,-0.7189635999999999,-0.011688232,-0.06472778,0.13069153
13.483887,-1.0655364999999999,-2.2321014,-0.008483886999999999,-0.11158752400000001,0.16159058
11.649933,-2.2051697,-1.8849487,-0.013824463,-0.11265564,0.028427123999999998
11.42009,-0.917099,4.691925,-0.07347107,-0.07749939,-0.19847107
11.175873,3.018982,6.7174225000000005,-0.19703674,0.13342285,-0.36572266
11.985123,3.9407501000000003,3.8707123,-0.37068176,0.21971129999999997,-0.38702393
11.180664,-0.6848602,3.059082,-0.5549774000000001,0.20372010000000002,-0.24427795
11.460785000000001,-4.494034,5.218658400000001,-0.6934509,0.18241882,-0.11218262
14.482269,-3.193985,5.1564026,-0.75523376,0.14407349,-0.09301758
15.633881,-1.2905883999999999,4.2346344,-0.70410156,0.048202515,-0.084487915
13.266022,-0.78541565,3.2697754,-0.6231536999999999,0.01411438,-0.008865356
10.041031,-0.5196533,3.0016173999999998,-0.57839966,-0.07643127400000001,0.124298096
8.195099,0.11959839,2.7358703999999996,-0.5869293000000001,-0.21173096,0.22444153
7.4337463,0.9216614,2.3001251,-0.56988525,-0.19255066,0.24041748
6.8902589999999995,1.2975464,2.0798492,-0.44204712,-0.066848755,0.20951843
6.729842999999999,1.2616272,1.8763428,-0.2843933,-0.11265564,0.124298096
6.847167999999999,0.9072876,1.5794678,0.06288147,-0.29162598,-0.06637573
6.7394257,0.28479004,1.3999023000000002,0.48686218,-0.40240479999999995,-0.16865539999999998
5.685974,-0.45501709999999995,1.457367,0.49858093,-0.28523254,-0.044006348
4.819275,-1.1469421,1.3831482,0.25994873,0.11956787,0.1477356
5.0898129999999995,-1.3600159,0.91867065,0.2184143,-0.5249176,-0.09194946
6.435364,-1.0176544,-0.18026733,0.4644928,-1.2056122,-0.66400146
8.137634,-0.1269989,-1.3390656,0.4410553,-0.816803,-0.84828186
9.648375999999999,0.44041443,-1.0852814,0.33451843,-0.41519165,-0.70980835
10.709014999999999,-1.8340758999999998,-0.14675903,0.26208496,-0.21705627,-0.39767456
11.865402,-4.32164,0.5738983,0.24610901,-0.22770691,-0.16226196
13.014617999999999,-4.245025599999999,0.7079773,0.24078369,-0.19148254,-0.08981323
12.811111,-3.2514342999999997,-2.143509,0.28871155,-0.033828735,0.014572143999999999
11.942017,-0.45022583,-3.3166809999999995,0.35795593,0.13128662,0.18821716
12.432831,0.69181824,4.782913,0.43040466,0.26657104,0.29473877
13.845413,-2.4757233,8.031845,0.5699463,0.29960632,0.33842468
13.297134,-2.676834,4.3136444,0.74998474,0.31558228,0.30006409999999994
12.3250885,0.75645447,2.580246,0.87887573,0.39015198,0.20100403
13.37854,2.9926453,3.0207825,0.8863373,0.46044922,0.09553528
15.234055,0.8594055,4.325622599999999,0.7712859999999999,0.49028015,0.02949524
15.346573000000001,-0.59147644,3.3056946000000003,0.56248474,0.42636108,0.0007324219
12.811111,0.08607483,2.410263,0.38032532,0.24208069,-0.057861328
9.624435,0.24169922,2.4270172000000003,0.30789185,0.09080505,-0.14733887
7.5893707,-0.94821167,2.7167206000000004,0.36328125,0.1174469,-0.24320984
6.476058999999999,-2.4374084,2.7023467999999995,0.45703125,0.16963196,-0.2506714
6.753784,-2.774994,2.5634918,0.49963379999999996,0.06629944,-0.13668823
7.215866,-2.2793883999999998,2.1899872000000005,0.47726440000000003,-0.20640564,-0.07383728
6.710693400000001,-1.4533996999999999,1.5746765,0.28019714,-0.025299072000000002,-0.046142578
5.923004,-0.33050537,0.97613525,-0.045776367000000005,-0.0072021483999999995,-0.06958008
5.444153,0.5625305,0.62657166,-0.14485168,-0.48017883,-0.035491943
5.278961,0.770813,0.4948883,-0.16722107,0.01411438,0.067840576
6.286911,-0.29699707,0.15969849,-0.25030518,0.8918915000000001,0.35546875
8.403397,-1.6401366999999998,-0.048583984000000004,-0.48252870000000003,0.18348694,0.7964783000000001
9.440078999999999,-1.8580169999999998,0.028030396000000003,-0.6338043000000001,-0.29588318,0.80500793
9.416138,-2.178833,0.38716125,-0.41009520000000005,0.08973694,0.64094543
9.631622,-2.5020599999999997,0.29617309999999997,-0.12460327,0.3070526,0.5578613
11.56134,-1.0846863000000002,-0.63038635,0.030929565,0.16004944,0.31178284
14.276367,0.15789795,-0.44842529999999997,-0.006362915,-0.035964966,0.08381653
13.785553,1.2376862,-1.5234222,-0.1352539,-0.17764282,-0.005661010699999999
12.123978,-0.46937559999999995,-2.1147918999999997,-0.18959045,-0.15420532,-0.08981323
12.456772,-0.36642456,3.411026,-0.22474670000000002,-0.047683715999999994,-0.23576355
11.269257000000001,2.884903,5.668762,-0.3067627,0.029022217000000003,-0.37530518
10.6371765,1.2616272,2.956131,-0.44525146,0.116378784,-0.45520020000000005
11.297989,-1.8292846999999999,3.0782317999999997,-0.6029053000000001,0.118499756,-0.33909607
12.973923,-4.175598,6.130844000000001,-0.71902466,0.0471344,-0.15266418
14.874923999999998,-3.1125792999999997,5.2521667,-0.77227783,0.040740967,-0.09194946
15.071242999999999,-0.9817351999999999,4.0455017,-0.74990845,0.015167236,-0.110061646
13.570084,-0.34487915,3.083023,-0.6817321999999999,0.0002593994,-0.12496948
10.816742,-0.19165039,2.6377106,-0.61143494,0.024765015,-0.08129883
8.661972,-0.11264038,2.7885437,-0.58799744,-0.048736572,0.016708373999999998
7.6564026,0.6175841999999999,2.4509583,-0.61250305,-0.17764282,0.10618591
7.816818,1.0796661,2.0798492,-0.5539093,-0.24049377,0.13601685
7.175171000000001,1.4866943000000001,1.7063598999999998,-0.36961365,-0.17231749999999998,0.14666748
6.5550690000000005,1.0461578,1.6010132,-0.18426514,-0.22451782,0.08807373
6.478454599999999,-0.09109497,1.45018,0.15663147,-0.27137756,-0.09301758
5.918213,-0.6968231,1.3568115,0.45596313,-0.24794006,-0.11538696
5.487259,-0.97454834,1.3089294,0.36967468,-0.14994812,0.091278076
5.59021,-1.3049469,1.105423,0.11721802,0.09719849,0.12962341
6.282135,-1.000885,0.6289673000000001,0.2418518,-0.99468994,-0.3454895
7.2326355,-0.48135376,-0.29519653,0.18539429,-0.9989624,-0.5553435999999999
8.190308,-0.31135559999999995,-1.2624511999999999,-0.031921387,-0.5845642,-0.45413208
9.540633999999999,-0.67048645,-0.44363403,-0.17787170000000002,-0.28948975,-0.3806305
10.799988,-2.7989349999999997,0.12858582,-0.29611206,-0.12651062,-0.24002075
12.581268,-3.8021087999999996,0.025634766,-0.3547058,-0.13290405,-0.13349915
13.766403,-3.5004425,-0.14675903,-0.27693176,0.016235351999999998,-0.13562012
12.255661,-2.3751678,-2.5457457999999997,-0.1309967,0.09187317,-0.005661010699999999
12.327484,-0.36882020000000004,-0.74290466,-0.024475097999999997,0.22929382,0.16796875
13.8526,-1.3049469,7.356674000000001,0.13212585,0.33155823,0.21697998
13.416854999999998,-2.0615234,4.6608124,0.32067870000000004,0.31983948,0.18608093
11.307556,-0.19883728,1.9050751,0.45063782,0.28575134,0.11790466
11.621201,2.3821258999999997,1.620163,0.50816345,0.32730103,0.05079651
14.341019000000001,1.9559479,3.4469452000000005,0.46661377,0.41038513,0.019897461
16.158217999999998,-1.8795624,3.7988892,0.34944153,0.44235230000000003,0.012451172
15.921188,-1.2187653,2.5443267999999994,0.22480774,0.38269043,-0.03656006
12.040192,0.72532654,2.4964447,0.16407776,0.26445007,-0.11645508
8.898987,-0.05757141,2.7837523999999996,0.18325806,0.20159912,-0.18463135
7.555847,-2.209961,3.1907654,0.2418518,0.2793579,-0.23469543
7.045883,-2.9090729,3.0542908,0.32600403,0.19946289,-0.22937012
7.1631927,-2.336853,2.4868773999999996,0.39524840000000006,-0.066848755,-0.17077637
6.8926544000000005,-1.7095794999999998,1.7949523999999997,0.43572998,-0.113723755,-0.11538696
5.9924316,-0.9003296000000001,1.0024719000000002,0.27166748,0.083343506,-0.049331665
5.3747253,0.011856078999999999,0.6217804,0.033050537000000005,-0.092422485,-0.018447876000000002
5.417816,0.35902405,0.54278564,-0.055358887,-0.4460907,0.0028533936
5.7218933,-0.3496704,0.48052979999999995,-0.10437012,0.09187317,0.063583374
6.586197,-1.3073424999999999,0.17646789999999998,-0.18745422,1.0900268999999998,0.30966187
8.025116,-2.1572876,-0.13238525,-0.3312683,0.31983948,0.66651917
8.767319,-2.226715,0.35124207,-0.43460083,-0.46099854,0.6026001
8.480011,-1.802948,0.26026917,-0.19491577,-0.001876831,0.42897034
9.916534,-1.3025513000000002,0.063934326,0.09271239999999999,0.43275452,0.41511536
12.411285000000001,-1.1445465,-0.38856506,0.20776367,0.26124573,0.33096313
14.2668,-0.86442566,-0.93444824,0.12573242,0.006652831999999999,0.24253845
13.6610565,-0.31375122,-2.6750336,-0.04257202,-0.14994812,0.13388062
12.188628999999999,-1.403122,-2.5122223,-0.107559204,-0.16804504,-0.021636963
13.289963,-0.5651398,3.339203,-0.11288452,-0.10307312,-0.19421387
12.40889,3.090805,6.2649230000000005,-0.16401672,0.006652831999999999,-0.32310486
10.122437,1.3981018,3.6935425000000004,-0.24816895,0.09400939999999999,-0.30606079999999997
10.342697,-1.8149109,2.8627625,-0.36428833,0.07908630000000001,-0.1260376
12.660278,-4.0822296,5.5538483,-0.46655273,0.08441162,0.046539307
15.205322,-2.0256042,5.3934326,-0.501709,0.08229065,0.075302124
15.638672,0.6941986,4.007187,-0.47401428,0.06417847,0.03375244
13.483887,-0.07194519,3.042328,-0.41435242,0.036483765,0.018844603999999997
10.795197,-0.96258545,3.0327453999999996,-0.35577393,-0.016784668,0.063583374
9.013916,-0.7734375,3.138092,-0.30996704,-0.059387207000000004,0.112579346
7.9652557,0.48591614,2.5634918,-0.30889893,-0.08389282,0.12643433
7.6683655,1.0054474,2.2905425999999998,-0.2833252,-0.115859985,0.11578369
7.033905,1.1395263999999998,1.9338074,-0.20663452,-0.10733032,0.10939026
6.543091,0.90249634,1.4405975,-0.10649109,-0.1765747,0.061447144
6.432968,0.014251709,1.3855438,0.18751526,-0.32250977,-0.058929443
6.100174,-0.6393585,1.4094848999999998,0.35369873,-0.35340879999999997,-0.07383728
5.7386475,-0.99609375,1.323288,0.13531494,-0.038085938,0.07209778
5.5973816,-1.1708832,0.87557983,-0.17680359,-0.22024536,0.091278076
6.3084717,-1.1325684,0.20040894,-0.022338867000000002,-1.2993622,-0.30073547
7.352340700000001,-1.0631409,-0.77882385,0.033050537000000005,-1.0479584000000002,-0.55107117
7.970047,-0.67048645,-1.3821564,-0.11714172,-0.49401855,-0.5585326999999999
8.705063,-0.45501709999999995,-0.94641113,-0.3025055,-0.33955383,-0.48822020000000005
10.313965,-2.3583984,-0.077316284,-0.38986206,-0.27883909999999995,-0.34442140000000004
12.258057,-3.1341248,0.43504333,-0.30569458,-0.15420532,-0.21339417
13.720917000000002,-3.0814513999999997,0.114212036,-0.086257935,-0.00932312,-0.17077637
12.490295,-2.0303955,-3.1562653,0.14703369,0.083343506,-0.016311646000000003
11.56134,0.4452057,0.2387085,0.29617309999999997,0.24101257,0.16264343
12.655502,-0.92666626,6.901778999999999,0.43145752,0.37097168,0.21058655
15.080826,-2.973709,5.197113,0.56248474,0.38587952,0.20100403
13.4767,-1.1876373,2.2426605,0.6636963,0.3965454,0.16691589999999998
11.884567,2.1738281,2.1277466,0.70843506,0.43595886,0.10511780000000001
13.471924,2.0421448,2.9609222,0.644516,0.47109985,0.06037903
15.684157999999998,-1.5156403,3.3799133,0.49751282,0.47644043,0.03694153
15.581207000000001,-1.7095794999999998,3.0686646,0.32919312,0.44021606,-0.023773192999999998
11.693024000000001,-0.29699707,2.9729004,0.19816589999999998,0.29107666,-0.119644165
8.989975,-0.92666626,2.9273987,0.122543335,0.14939879999999997,-0.21978760000000003
8.051437,-2.305725,2.6760101,0.14491272,0.14407349,-0.29115295
7.637253,-2.233902,2.4246216,0.26101685,0.036483765,-0.25706482
7.333191,-1.7311249,2.1947784,0.33558655,-0.051940917999999996,-0.13136292
6.65802,-1.5156403,1.833252,0.3110962,0.020507812,-0.06744385
5.626114,-0.9673767,1.21315,0.10122681,0.10784912,-0.06637573
5.171219000000001,-0.2706604,0.67445374,-0.064956665,-0.23410034,-0.10685730000000002
5.384308,0.14353943,0.47094727,0.0032348633000000003,-0.5749816999999999,-0.046142578
5.9325714000000005,-0.14616394,0.40631104,0.06713867,0.19094849,0.102996826
6.995605499999999,-1.0679321000000002,-0.077316284,-0.006362915,0.96325684,0.5014038
8.286072,-1.589859,-0.34786987,-0.21089172,0.11105347,0.8476104999999999
8.511139,-1.4988861,-0.034225464,-0.40583800000000003,-0.32678223,0.7101898
8.338745,-2.0184173999999997,-0.33110046,-0.25456238,0.16751099,0.5567932
9.914139,-2.0112457,-0.17308044,0.0074920654,0.31344604,0.54400635
12.329880000000001,-1.0511627000000001,-0.034225464,0.13319397,0.16218567,0.4033966
14.10878,-0.57951355,-0.48912048,0.10122681,-0.024246216,0.21058655
13.493469000000001,-0.18685913,-1.9232483,0.012817383,-0.11479187,0.077423096
11.784011999999999,-1.6329651,-1.7676238999999998,-0.058563232,-0.10307312,-0.07597351
12.329880000000001,-1.0631409,3.9497223,-0.12246704,-0.028503418,-0.23576355
12.195801,2.532959,6.001556400000001,-0.21408081,0.017303467,-0.30180359999999995
11.827103,2.1977692,2.1828003,-0.32061768,0.03755188,-0.2474823
11.824707,-1.3097382,2.9465637000000005,-0.41435242,0.07908630000000001,-0.07383728
12.758438,-3.6895752,6.197876,-0.4644165,0.104660034,0.042266846
14.527756,-2.8396301,5.1252747,-0.48040770000000005,0.08654785,0.03161621
14.941956,-1.0368042,3.8563538,-0.4601593,0.059921265,-0.035491943
12.638733,-0.1844635,2.9657134999999997,-0.42500305,0.027954102,-0.07809448
10.234955000000001,-0.18925476,2.611374,-0.41009520000000005,-0.02104187,-0.056793212999999995
9.018707000000001,0.03579712,2.6089783,-0.4324646,-0.053009033,-0.006729125999999999
7.922165,0.74209595,2.1133728,-0.49105835,-0.11479187,0.018844603999999997
7.8263855,1.0557251,1.7686157,-0.48466492,-0.18615723,0.027359009
7.3547363,0.9767151,1.5196075,-0.4132843,-0.14674377,0.079559326
6.6963196,0.23451233,1.323288,-0.3110199,-0.17443848,0.079559326
6.2893066,-0.70640564,1.3256836,-0.013824463,-0.27565002,-0.05467224
5.8966675,-1.0679321000000002,1.3759613000000002,0.25994873,-0.3800354,-0.16438293
5.638091999999999,-1.024826,1.2466736,0.23757935,-0.14248657,-0.0834198
5.958908,-0.9362488000000001,0.71995544,0.28338623,-0.27565002,-0.19741821
6.9477234,-0.89793396,0.08547974,0.4964447,-1.1470337,-0.6043396
7.852722,-0.625,-0.46278379999999997,0.23120117,-0.7933655,-0.53616333
8.501555999999999,-0.11982727,-0.9081116,-0.09690857,-0.34915159999999995,-0.40087890000000004
9.468811,0.20339966,-0.50349426,-0.25456238,-0.24368286,-0.36572266
10.993912,-1.5802916999999999,-0.13957214,-0.24816895,-0.20959473,-0.29541016
12.78717,-3.1293335,0.3129425,-0.1352539,-0.041290283,-0.21125793
13.876541,-3.7925262,0.15252686,0.021331787,0.07696533,-0.07809448
12.423264,-2.992859,-2.1578827,0.12892151,0.17922974,0.063583374
13.136733999999999,-1.6760558999999997,2.319275,0.21308899,0.31237793,0.15731812
15.406432999999998,-3.1436919999999997,7.354278599999999,0.33558655,0.39759827,0.23509216
12.923645,-0.21319580000000002,2.2378693,0.49751282,0.46684265,0.23828125
10.055389,2.4060669999999997,1.6010132,0.6455841,0.47004700000000005,0.16264343
11.647537,2.7771605999999998,2.7358703999999996,0.7467804,0.44340515,0.05293274
15.023360999999998,-0.03842163,3.1596375,0.7521057,0.50413513,-0.04295349
15.449523999999998,-2.6241608,3.2506256000000002,0.6509094,0.55526733,-0.08023071
12.56691,-1.2714386,3.0159912,0.550766,0.49880979999999997,-0.09194946
10.364243,0.16748047,2.4629211,0.48898315,0.32730103,-0.15586853
9.143203999999999,-0.6752776999999999,2.501236,0.46342468,0.18774414,-0.24641418
7.898208599999999,-1.941803,2.6664276,0.47087097,0.20159912,-0.30393982
7.6683655,-2.4589539,2.549118,0.5145569000000001,0.20692444,-0.28796387
7.4121857,-2.4733276,2.3839264,0.5060272,0.05671692,-0.22511292
6.9237823,-2.0184173999999997,2.1109772,0.43040466,-0.07110596,-0.1771698
6.3108673,-1.1924286,1.5220032,0.19284058,0.041809082000000004,-0.10685730000000002
5.8128660000000005,-0.41430664,0.9785155999999999,-0.072402954,-0.051940917999999996,-0.11752319
5.7817383,-0.04321289,1.050354,-0.15975952,-0.17337036,-0.12284851
6.2007294,-0.45262146,0.9785155999999999,-0.034057617000000005,-0.17231749999999998,-0.06637573
7.009964,-1.1924286,0.5044708,0.021331787,0.56803894,0.15199279999999998
8.175949000000001,-1.5132446000000002,-0.055770874000000005,-0.057495117000000005,0.3539276,0.58662415
8.891815,-1.4964905000000002,0.16688538,-0.26841736,-0.27565002,0.73043823
8.800827,-1.9226531999999998,0.38237,-0.44204712,-0.10093689,0.47903442
9.605286,-1.5467681999999998,0.33926392,-0.36322020000000005,0.16323853,0.33096313
11.705002,-0.30656433,-0.25448608,-0.22474670000000002,0.20266724,0.22549438
14.594803,0.24169922,-0.97753906,-0.14378357,0.14726257,0.14454651
15.138275,0.41647340000000005,-2.5601043999999997,-0.150177,0.0077209473,0.16584778
13.208557,-1.3312836000000001,-2.2416840000000002,-0.1309967,-0.05406189,0.091278076
11.963577,-2.5595092999999998,1.3041382,-0.121414185,-0.08496094,-0.13243103
12.377761999999999,0.48831177,6.947265600000001,-0.1821289,0.0002593994,-0.33270264
10.249329,2.63591,4.402237,-0.32168579999999997,0.06311035,-0.39874268
10.239746,0.4835205,1.7422790000000001,-0.5059662,0.09719849,-0.30712890000000004
10.90773,-1.4629669,4.0742188,-0.67214966,0.12489319,-0.16438293
12.574097,-2.3895264,4.995987,-0.7754821999999999,0.15046692,-0.11645508
14.817459,-0.9506073,4.71109,-0.75523376,0.10145569,-0.10685730000000002
14.36496,-0.8332976999999999,4.0933839999999995,-0.63487244,-0.00932312,-0.053604125999999995
11.836685000000001,-0.70401,3.3368073,-0.5208893,-0.050872803,0.038009644
9.772872999999999,-0.38078308,3.3152617999999996,-0.45376587,-0.102005005,0.15306091
8.408188,0.29916382,2.9273987,-0.45164490000000007,-0.19361877,0.21804810000000002
7.622878999999999,1.1131897,2.4174347000000003,-0.45697020000000005,-0.19680786,0.18821716
7.445709,1.6662445,1.8787383999999998,-0.3855896,-0.0029296875,0.12750244
7.045883,1.4531708,1.6632689999999999,-0.3110199,-0.1563263,0.09020996
6.586197,0.69181824,1.6034088,-0.15336609,-0.41093445,-0.0024719238
5.863144,-0.20840454,1.6752319,0.005355835,-0.26072693,-0.05467224
5.1568604,-1.0176544,1.7757874,-0.07028198,-0.066848755,0.034820557
4.7905426,-1.5491638,1.4477844,-0.33552550000000003,0.18988037,0.16159058
5.144882,-1.5515594,0.9210663,-0.32806396,-0.08921814,0.075302124
6.3946533,-1.1014403999999998,0.3751831,0.14810179999999998,-0.94036865,-0.29008484
8.12088,-0.5531769,-0.45082092,0.42080688,-0.68577576,-0.5350951999999999
10.457611,-0.10066223,0.18365479,0.35369873,-0.40454102,-0.5478821
11.429657,-1.2618561000000001,0.75346375,0.20455933,-0.36831665,-0.40727234
12.1072235,-3.0311737,-0.40293884,0.13105774,-0.28416443,-0.28901672
13.775985999999998,-3.6680297999999993,-1.4922943000000002,0.0032348633000000003,-0.041290283,-0.2602539
13.972304999999999,-2.695984,-2.79953,-0.037246704,0.13874817,-0.1771698
13.057724,-0.8021698,-3.0748596,0.019210815,0.22715760000000002,0.059310913
12.712952,0.3757782,2.3288574,0.083114624,0.31132507,0.26385498
12.844635,-2.530777,8.017471,0.20243835,0.26977540000000005,0.33947754
12.425644,-3.7111205999999997,6.5570070000000005,0.37181090000000006,0.20904541,0.28941345
10.333115,-0.7662505999999999,3.9593047999999995,0.5283966,0.21331787,0.18395996
10.270874000000001,2.1809998,3.1237334999999997,0.63705444,0.2836151,0.11790466
14.862945999999999,1.7165375,3.8994446000000003,0.6253357,0.31983948,0.124298096
17.76233,0.2273407,2.925003,0.49005127,0.30386353,0.12322998
14.324248999999998,1.0054474,2.549118,0.32600403,0.17922974,0.04333496
9.904556,1.3166962,2.956131,0.20243835,-0.06472778,-0.12284851
7.8311768,-0.25628662,3.3200529999999997,0.13851929,-0.14567566,-0.26878357
6.4617004,-2.1501007000000003,3.4158172999999996,0.14703369,-0.008255005,-0.322052
6.6604156,-2.7175293,3.1979523,0.19497679999999998,0.28042603,-0.27729797
7.292480499999999,-2.209961,2.8316345000000003,0.19816589999999998,0.3304901,-0.21871948
6.8782806,-1.589859,2.2689972000000003,0.21734619,0.07482910000000001,-0.18569946
5.877502400000001,-0.8811798000000001,1.6848145,0.11294556,0.12915039,-0.13775635
5.638091999999999,-0.08151245,1.1604767,0.044769287000000005,-0.08709717,-0.11112976
5.6021730000000005,0.17466736,0.7462920999999999,0.10336304,-0.2820282,-0.045074462999999995
6.2294617,-0.26586914,0.52601624,0.19604492,-0.10839844,0.024169922000000003
7.424164,-0.76864624,-0.23054504,0.2769928,0.4316864,0.1711731
8.499161,-1.395935,-1.226532,0.17260742,0.6969451999999999,0.42150879999999996
9.684296,-1.3815613000000002,-1.147522,-0.14057922,0.22929382,0.58769226
10.084122,-1.6952057,0.30096436,-0.43353270000000005,-0.23516846,0.54081726
9.997925,-1.6497191999999998,1.2466736,-0.36003113,-0.1531372,0.49926758
11.671478,-1.1924286,1.1125946000000002,-0.08093262,0.16111755,0.4811554
13.910048999999999,-0.6441498000000001,0.039993286,0.15556335,0.14939879999999997,0.28727722
13.555710000000001,-0.09588623,-2.4810944,0.19497679999999998,-0.028503418,0.13282776
12.904494999999999,-1.5587311000000001,-3.5513,0.10549927,-0.27137756,0.035888672
11.6595,-2.5499419999999997,-0.68544006,0.07778931,-0.36724854,-0.07916260000000001
11.309952000000001,-0.89793396,5.3575134,0.06288147,-0.25326538,-0.20379639
10.871811,3.5480957,6.078171,-0.008483886999999999,-0.07324219,-0.31991577
11.530211999999999,4.955887000000001,3.509201,-0.12567139,0.010910033999999999,-0.35932922
10.282836999999999,0.34465027,3.09021,-0.28652954,0.03755188,-0.21658325
11.183060000000001,-3.921814,5.529907,-0.4367218,0.0077209473,-0.047210693
14.585220000000001,-3.2993163999999995,5.1204987,-0.5166168,-0.043411255,0.012451172
16.730423000000002,-1.2953796,4.2035065000000005,-0.49531555,-0.07537842,-0.013122558999999999
13.311507999999998,-0.26107788,3.0542908,-0.41223145,-0.09986877400000001,-0.0045928955
9.966812,-0.24671936,2.8268432999999997,-0.33659363,-0.13928223,0.053985596
8.35791,-0.08151245,2.6640472,-0.29718018,-0.14781189,0.12322998
7.5941467000000005,0.55055237,2.3216705,-0.2833252,-0.06578064,0.1477356
7.4050139999999995,0.74687195,2.2594147,-0.24711609,0.055648804,0.13069153
6.8016663,0.94799805,1.9768982,-0.23326111,0.026885986,0.124298096
6.2581940000000005,0.7157593000000001,1.6177673000000001,-0.19064331,-0.23196411,0.059310913
5.9684906,0.30874634,1.5698853000000002,0.0010986328,-0.32145690000000005,-0.11538696
5.650055,0.0046691895,1.6632689999999999,0.16940308,-0.23835754,-0.19207764
5.3005066,-0.43345642,1.5172119,0.15023804,-0.19575499999999998,-0.10366821
5.4130400000000005,-0.8021698,0.9234619000000001,0.0032348633000000003,-0.0072021483999999995,0.016708373999999998
6.375503500000001,-0.6537323,-0.06295776,-0.09158325,0.10252380000000001,-0.009918213
7.9796143,-0.41670227,-0.5609436,0.16088867,-0.62397766,-0.26239014
9.638794,-0.41430664,-0.15153503,0.37713623,-0.7060088999999999,-0.4797058
10.606064,-0.94581604,0.48532104,0.2450409,-0.27137756,-0.55641174
11.338683999999999,-1.403122,0.073516846,-0.010620117,-0.068984985,-0.41578674
13.35939,-1.6880188000000003,-0.6088256999999999,-0.20663452,-0.104141235,-0.24002075
14.269179999999999,-2.5020599999999997,-1.8011475,-0.36109924,-0.060455322,-0.12817383
13.488678,-2.7127380000000003,-3.5082092000000005,-0.39518738,0.046066284000000006,-0.04081726
12.406494,-1.1541138000000002,-2.9647217,-0.33978270000000005,0.12915039,0.075302124
12.042572,0.45718384,0.53559875,-0.28120422,0.2601776,0.1796875
11.465575999999999,-0.9697571,6.410965,-0.18426514,0.33474729999999997,0.17863464
11.230942,-3.2346802,7.703842,0.0010986328,0.32409668,0.11683655
11.491913,-2.5116272,4.1364746,0.22373962,0.38694763,0.0018005370999999999
11.455994,1.5633086999999999,2.556305,0.36967468,0.46151733,-0.074905396
14.293121,3.1243133999999997,3.695938,0.39950562,0.49986267,-0.088760376
16.886047,1.3909148999999998,3.0327453999999996,0.34837340000000006,0.44873047,-0.08769226
15.250809,0.21057129,2.2187195,0.28019714,0.31877136,-0.074905396
11.666687,0.40690613,2.2953339,0.23864746,0.18135071,-0.09088135
9.054611,-0.03842163,2.7119293,0.23332214,0.13342285,-0.12710571
7.1033479999999996,-1.4916992,2.9154357999999996,0.27487183,0.19839478,-0.18356323
6.260589599999999,-2.5571136,2.9729004,0.39097595,0.18562317,-0.23150635
6.859131,-2.6265563999999997,2.786148,0.5060272,0.0471344,-0.18675232
6.859131,-1.8867493000000002,2.0750732,0.48153687,0.013046265,-0.047210693
6.239029,-1.1469421,1.3879242,0.24290466,0.1302185,0.056121826
5.7362519999999995,-0.62739563,1.2323151,-0.032989502000000004,-0.24261475,0.07635498
5.250229,-0.26107788,1.1604767,-0.20875549999999998,-0.40133667,0.06997681
5.568664599999999,-0.38557434,0.8564148000000001,-0.18319702,-0.1446228,0.09020996
6.7561800000000005,-0.90512085,0.020843506,-0.074539185,0.86738586,0.33628845
8.362686,-1.5204315000000002,-0.7931824000000001,-0.064956665,0.8269042999999999,0.7229767
9.420929,-1.8580169999999998,-0.23773193,-0.23965454,-0.09135437,0.7709198
9.121658,-1.8651886000000002,0.64094543,-0.25137329999999997,-0.22344970000000003,0.58981323
9.399384,-1.7263336,0.82051086,-0.057495117000000005,0.09613037,0.46199036
11.743300999999999,-0.75668335,0.59306335,0.15556335,0.032211303999999996,0.296875
14.355376999999999,1.1850128,-0.6040496999999999,0.25675964,-0.017852783,0.19567871
14.484665,0.770813,-3.3837127999999996,0.2418518,-0.010391235,0.25958252
12.576492,-1.9394226000000003,-3.5273589999999997,0.20776367,-0.22238159,0.19567871
12.102432,-2.5786743,1.457367,0.15663147,-0.24581909,-0.063186646
12.966736000000001,0.7037810999999999,7.35907,0.096969604,-0.008255005,-0.24427795
11.479935000000001,2.5664673,5.912979,0.012817383,0.23461914,-0.27304077
10.639572,0.72532654,3.6528473,-0.09690857,0.3539276,-0.14094543
10.996307,-2.2985535,5.2856903,-0.23432922,0.3528595,-0.007797241
12.796753,-2.0423737,5.886642500000001,-0.3547058,0.31877136,-0.030166626000000002
15.758377,-0.36402893,4.596161,-0.37919617,0.32197570000000003,-0.11218262
14.606766,-1.0272217,3.4828644,-0.34617615,0.26657104,-0.14840698
10.699432,-1.0487671,3.5115814,-0.35577393,0.20904541,-0.11431885
9.227005,-0.43824768,2.829239,-0.39624023,0.08654785,-0.022705077999999997
7.924545299999999,0.6535034000000001,2.2354736,-0.42820740000000007,-0.12651062,0.08381653
7.342758,1.1371307,2.2713928,-0.41648865,-0.27244568,0.14880371
7.191925,1.3023376,2.3456116000000002,-0.38986206,-0.2511444,0.16903687
6.57901,1.0174254999999999,2.0319672,-0.37387085,-0.39389038,0.11897278
6.404236,0.28718567,1.7135468,-0.19598389,-0.56858826,-0.016311646000000003
5.8176575,-0.60824585,1.6584778000000002,0.045837402,-0.40240479999999995,-0.09408569
4.931793,-1.0080719,1.5579223999999998,0.08099365,-0.27244568,0.067840576
5.0467224,-1.0200348,1.1987915,0.002166748,-0.0029296875,0.19247437
5.970886,-0.842865,0.9330291999999999,0.38992309999999997,-0.5611267,-0.16758728
6.782516499999999,-0.3784027,0.58348083,0.5901947,-1.058609,-0.4935608
7.474441499999999,-0.14137268,-0.34068298,0.28871155,-0.6602020000000001,-0.34761047
8.875046000000001,-0.18685913,0.018447876000000002,0.08099365,-0.32997129999999997,-0.26239014
11.151932,-1.2762146,0.55714417,-0.11288452,-0.25221252,-0.2943573
13.503036499999999,-2.4158630000000003,0.12858582,-0.19384766,-0.18722534,-0.26239014
15.092789000000002,-3.1652527000000004,-0.5681305,-0.107559204,-0.047683715999999994,-0.20806885
13.397689999999999,-2.8204803,-1.9759216,0.036254882999999995,0.0055847169999999995,-0.047210693
11.748092999999999,-1.2570648000000002,-1.3677979,0.17047119,0.07801819,0.17329407
13.728104,-1.4677582,7.315979,0.27380370000000004,0.13554382,0.34375
13.313904,-4.309677,7.763686999999999,0.43891907,0.21331787,0.42257690000000003
9.784851,-0.75668335,2.0822449,0.6594238,0.24313354,0.36611938
10.488739,3.4762726,3.0950012000000005,0.83200073,0.23780823,0.23295593
14.817459,3.2464294,3.6935425000000004,0.90338135,0.33901978,0.09767151
17.417557000000002,-0.40711975,3.5642547999999996,0.8543700999999999,0.45939636,0.07209778
15.873306,-0.8309021000000001,3.3727263999999995,0.6977844,0.42742920000000006,0.08595276
11.736114500000001,0.2895813,3.0782317999999997,0.4730072,0.26551820000000004,-0.0024719238
8.903777999999999,0.12918091,3.0016173999999998,0.2769928,0.13235474,-0.15161133
7.345153999999999,-1.3719940000000002,2.9681091,0.18539429,0.18774414,-0.27304077
6.875885,-2.336853,2.9154357999999996,0.18005371,0.29853820000000003,-0.31777954
6.966873,-2.7055664,2.9776764,0.16514587,0.18774414,-0.28582764
6.918991,-2.6217651,2.7598114,0.10762024,-0.10733032,-0.23683167
6.468872,-1.9202576,2.0559081999999997,-0.08944702,0.011978148999999999,-0.14308167
5.463318,-0.79019165,1.2897644,-0.28546143,-0.018920898000000002,-0.1537323
4.8096924,0.256073,0.86120605,-0.19277954,-0.46313477,-0.14201355
5.080246,0.51942444,0.53559875,0.033050537000000005,-0.37364197,-0.09301758
6.267761,-0.03842163,0.2387085,0.13105774,0.48388672,0.10406494
8.058624,-0.9290619000000001,-0.18745422,0.110824585,0.60214233,0.48649597
9.358673,-1.7335205000000002,0.114212036,-0.16401672,0.26763916,0.60899353
9.83992,-2.439804,0.9138794,-0.44631958,-0.11158752400000001,0.5099182
10.120041,-2.1213683999999997,0.6983948,-0.5720215,-0.008255005,0.47477722
11.671478,-0.6848602,-0.098861694,-0.47401428,0.022628784,0.31498718
14.805481,-0.01927185,-0.039016723999999996,-0.32273865,-0.011459351000000001,0.08595276
14.721695,0.5026702999999999,-1.3965302,-0.26202393,-0.07110596,0.01777649
13.136733999999999,-1.3360748,-2.4212493999999998,-0.18426514,-0.14248657,-0.055725098
11.2213745,-2.7845763999999997,-0.661499,-0.12567139,-0.060455322,-0.16651917
9.535843,-1.6736602999999999,5.549057,-0.14164734,-0.017852783,-0.33802795
9.143203999999999,0.7444916,5.5945434999999994,-0.23751831,0.14300537,-0.45094300000000004
12.684219,3.6438599000000003,4.5123596,-0.4047699,0.2793579,-0.38490295
12.763228999999999,0.3542328,3.3344116,-0.581604,0.28042603,-0.16545105
12.756058,-2.774994,5.48201,-0.69984436,0.20372010000000002,-0.01524353
14.731262,-1.7167511000000002,5.192322,-0.7073059,0.13128662,-0.009918213
15.384888,-1.9657593,4.2346344,-0.6103668000000001,0.07589722,-0.037628174
12.602829,-1.3504486,3.5618591,-0.48466492,0.09400939999999999,0.014572143999999999
9.385010000000001,-0.72795105,3.2123107999999996,-0.40156555,-0.05406189,0.15199279999999998
7.8335724,-0.22038269,3.0614777,-0.38986206,-0.37471008,0.27236938
7.2996674,0.7397003000000001,2.6616516,-0.39518738,-0.43223572,0.32882690000000003
7.136856,1.517807,2.3527985,-0.39411926,-0.2554016,0.24253845
6.483246,1.7476501,1.9960631999999998,-0.27587890000000004,-0.27670288,0.011383057
6.239029,1.0653076000000001,1.7733917000000001,-0.055358887,-0.30227659999999995,-0.13562012
6.0714417,-0.014480591000000001,1.644104,0.057556152,-0.30441284,-0.12071228
5.381912000000001,-1.1229858,1.584259,-0.06175232,-0.1765747,0.022033691
4.946167,-1.8292846999999999,1.639328,-0.29824829999999997,0.14407349,0.13708496
5.1113586,-1.6521148999999997,1.6345367,-0.14590454,-0.46099854,-0.18995667
5.700332599999999,-1.1086273000000002,0.71995544,0.12359619,-1.0362396,-0.58943176
