accx,accy,accz,gyrx,gyry,gyrz
14.093862,-2.4420857000000002,3.6891199999999995,0.17886133,0.32410765,0.3099181
20.35057,-6.215022,7.5121139999999995,0.26935667,0.21977186,0.31630602
13.932797,-7.322474000000001,6.5985923,0.3114191,0.1388584,0.29342476
6.3392425,-2.6066346,2.2218385,0.3034255,0.020158553,0.33601078
9.203828,2.410377,3.8066370000000003,0.28852037,-0.06393141,0.35889205
10.427678,3.8978083,2.3901222,0.2986433,-0.110776044,0.2231578
10.818717999999999,3.0202663,2.1341436000000003,0.27787387,-0.12941617,0.05333726
9.5437565,0.5121676,2.3527245999999997,0.2427404,-0.06660176,-0.050440013
8.496072999999999,-1.1529901000000002,2.142619,0.24593434,-0.01282817,-0.10101966
7.61585,-2.3711312,1.9047310000000002,0.34229398,-0.24439846,-0.109536864
6.560237400000001,-3.2415192000000004,1.5527643,0.48441613,-0.38971457,-0.12763593
5.928992,-2.649443,1.4787548000000001,0.48335147,-0.14432128,-0.16968091
5.7587733,-1.29873,1.3764937,0.43065998,-0.10067059,-0.13667673
5.783568,-0.7021524,1.0267965000000001,0.31354840000000006,-0.2672797,0.042690754000000004
6.544579,-0.68524927,1.030407,0.20708331,-0.35351643,0.30033624
7.844898700000001,-0.66159457,0.8304623999999999,0.20867157,-0.30986574,0.4658982
8.883552,-0.33167356,0.22384828,0.03139847,0.05475098,0.47548005
9.542876,-0.19001342,-0.38036203,-0.391233,-0.11025245,0.6202726
9.347633,-0.72708076,-0.33918175,-0.5695707,-0.09854129,0.79859287
8.421432000000001,-1.3116491000000001,-0.403672,-0.49078658,0.30016172,0.48558549999999995
8.373883,-1.8894081999999999,0.111531496,-0.24963444,0.6104987,0.19015363
9.832134,-2.5218606,0.76731294,-0.23260003,0.42205550000000003,0.4398055
10.839882000000001,-1.8236156000000003,0.84580445,-0.18682005,0.2032785,0.62666047
11.030806,-0.7448649,0.50600016,-0.15275122,0.05794493,0.54307663
11.150563,0.8018852,-0.26989356,-0.1351932,0.15695746,0.18322466
12.007524499999999,0.4684112,-0.47090116,-0.17352064,0.22403046,-0.14679964
13.333003,0.18939093,1.6543742,-0.27838,0.24692918,-0.35227725
14.506726,1.8627846000000001,3.4671678999999997,-0.3385415,0.22031291,-0.44064328
14.695256,0.5828349,4.762153,-0.39709732,0.18198548,-0.41720352
12.291611999999999,0.34616327,4.2298837,-0.45191809999999993,0.19847885,-0.37302923
8.429851,-1.346748,5.0170403,-0.48918090000000003,0.15217526,-0.37835246
7.247928599999999,-2.8097491000000003,4.4165554,-0.53656656,0.0861669,-0.36931166
9.125614,-3.4285352,3.8973677,-0.5376312,0.07497934,-0.29372147
12.013779,-2.7010045,2.988931,-0.4439245,0.10691887,-0.14199999
12.700876,-1.3634403999999998,2.1133907,-0.35397023,0.13727015,0.05333726
10.903539,0.22064963,1.3914716,-0.33161256,-0.018151425,0.2231578
9.105455000000001,1.3554726000000001,1.1279371,-0.3151192,-0.19807741,0.3136531
7.6453853,1.6028031,1.3627987,-0.32257175,-0.51002014,0.30353022
6.5292754,1.1421492,1.1698357,-0.3672871,-0.42804200000000003,0.14489724
6.268777,0.23374112,0.94994265,-0.34918803,-0.20820032,-0.041922808
6.384943499999999,-0.5863209,0.9679087,-0.069184855,-0.24865706,-0.20907299
6.518032,-1.2101157,0.8447414000000001,0.20708331,-0.48872709999999997,-0.39379865
6.7688007,-1.3415,0.7525455,0.21505947,-0.53398347,-0.51729816
7.099861,-1.2659101000000001,0.6102628999999999,-0.070249505,-0.06553711,-0.46780059999999996
7.6455193,-0.80771744,-0.10873506,0.22464132,-0.22523473,-1.0554879
7.796047,-0.38325423,-1.0114449,0.68828803,0.11278318,-0.8670271999999999
8.059458,0.46585420000000005,-0.7624958000000001,0.44024184,0.18943803,-0.37089992
8.442309,0.22355141,-0.7197161999999999,0.26083946,0.06593854,-0.33524284
9.899086,-0.6954007,-0.05979758,0.06174975,0.17666222,-0.42945573
11.923287,-0.8258464,1.7729926,-0.02872812,0.3571118,-0.388999
12.652617999999999,-0.8596334000000001,1.8290647,-0.006894050600000001,0.42366123,-0.13241813
13.009843,-1.2498307,-0.32924104,0.09210102,0.41407937,0.11402236
12.729597,-0.568144,0.3069941,0.201219,0.42312017,0.27211428
14.703272,-3.003507,5.573912,0.3204599,0.36456436,0.33972833
20.413892999999998,-5.614326,8.845321,0.46418777,0.25438175,0.37114426
11.638195,-6.505783,2.0718176,0.50145054,0.18250908,0.39296088
8.50566,0.20099802,4.065555600000001,0.47218138,-0.0032463125,0.42277109999999996
9.901193,3.2730174,3.3454757000000006,0.4806986,-0.11503465,0.3551745
10.961594,2.9928575,2.6816687999999997,0.5264611,-0.12674580000000002,0.1677785
10.657339,1.1508927,2.4681728,0.48761007,-0.09161233,0.005427974
9.182788,-0.2036508,2.4357363999999997,0.43650684,-0.0027227136,-0.08398525
7.856601700000001,-1.4265898000000001,2.0788567,0.44237116,-0.06979571,-0.112730816
6.907348599999999,-2.5100043,1.7999417000000002,0.51848495,-0.22788765,-0.12231267
6.0666676,-2.876576,1.7950575,0.58927554,-0.25078636,-0.16435766
5.6595197,-2.6116624,1.7212108,0.58768725,-0.19914207,-0.117513016
5.4921455,-1.9345915,1.1879455,0.46418777,-0.3018896,0.09114109
5.8500595,-1.3911653,0.98176634,0.27893853,-0.43071234,0.2966187
6.719758000000001,-0.85169417,1.1778803,0.16128588,-0.36683330000000003,0.4211654
7.938492999999999,-0.44723687,0.84839016,-0.016475908,-0.050631999999999996,0.44725809
8.897486,0.043833047,0.0692882,-0.46788788,-0.121963605,0.5979149
9.247662,0.030061595,-0.38059190000000004,-0.8437096,-0.24598670000000003,0.9077283000000002
8.674633,-0.5570254,-0.5507333999999999,-0.68402946,0.09201376,0.6995803
8.352267999999999,-1.1849096000000001,-0.18568471,-0.34864697,0.5375789000000001,0.20345303
9.240719,-1.5276443000000002,0.38696045,-0.27253315,0.35391787,0.34131658
10.564797,-1.3901788,0.7482359000000001,-0.17830284,0.078173295,0.56543434
11.4675455,-0.96656793,0.31889809999999996,-0.04363323,-0.11770499999999999,0.47919759999999995
12.042433,0.14627615,-0.75063014,0.05110324,-0.06925467,0.15660839
12.4667425,0.6993941999999999,-0.8485242000000001,0.03460988,-0.027209682000000002,-0.109536864
13.3154,0.35169864,0.8477868000000001,-0.07930776,0.0132295955,-0.276146
14.299964000000001,2.79524,3.2859172999999995,-0.21397737,0.05529203,-0.36025342
13.861968,1.7979592,5.393648000000001,-0.34119442,0.017488198,-0.3581241
12.300767,0.5706532,4.338887000000001,-0.38538614,0.05742133,-0.3325725
9.050130000000001,-1.252292,5.4164886,-0.43116614,0.11171853,-0.35173622
7.406003500000001,-3.3928328000000003,4.726125700000001,-0.5120796,0.05103342599999999,-0.3618591
9.324601,-4.751819599999999,4.395668,-0.5488013,-0.010698868,-0.2947861
11.782289,-4.2600703,3.3675501000000003,-0.43329543,0.022811454,-0.14254104
12.288585000000001,-2.186136,2.3438277000000003,-0.2586927,0.024940755,0.05120796
10.333298,0.26048914,1.4231901000000002,-0.15913913,-0.0048520155,0.18057176
8.762625,1.6295128,1.1279466999999999,-0.21664771,-0.30773646,0.26680848
7.2637205,2.1210809,1.0251302,-0.31140164,-0.48075095,0.19174187
6.1642075,1.7493473999999998,1.0188572,-0.38964474,-0.27686158,0.009686577
5.793499,0.7619882,0.94365066,-0.20971876,-0.1789137,-0.17713347
5.864396,0.10809342599999999,0.7533978,0.05110324,-0.23959879999999997,-0.3059562
6.1327095,-0.70809954,0.39485174,0.1815317,-0.52173126,-0.43957862
6.7231197,-1.4171758999999997,0.3891344,0.10700613,-0.42697734,-0.40922734
7.6744413,-1.6423457,0.40492654,0.09049532,0.06646214,-0.44277257
8.347481,-1.2781686,-0.43515095,0.39924407,-0.20872392,-0.9809449
8.444005,-0.32175198,-0.8685589,0.8730136999999999,0.122365035,-0.81805325
8.411883,0.1412579,-1.157405,0.6781826,0.21551326,-0.51836276
9.505747,0.030540438,-0.799491,0.40510836,0.050492376,-0.51462775
11.4459505,0.60241944,1.0117705,0.12669346,0.19209094,-0.41776199999999997
12.743972,0.5264754,2.2639475,0.01277581,0.3986332,-0.18565068
12.517835,-1.1417661,0.36317167,0.0010646508,0.40343285,0.08155923
12.345327000000001,-0.82901627,-1.623623,0.08836602,0.41833797,0.27319640000000006
11.268482,-0.6228564,-0.58786273,0.22518238,0.43217844,0.34505159999999996
14.130923000000001,-2.798975,5.440756299999999,0.3939208,0.32997194,0.32749358
19.268545,-6.3159137,9.564769,0.5232846,0.20699605,0.35571554
11.775478,-7.739754700000001,2.2667537,0.53232545,0.09094911,0.39828414
9.02977,-0.8219582000000001,3.5260272000000006,0.5168967000000001,-0.013892821000000001,0.4201182
10.432476,3.4103968,2.8570293999999996,0.52061427,-0.04956735,0.3471809
11.032328,4.395792500000001,1.9839026000000002,0.47589892,-0.06660176,0.15076154
10.203676,2.2514117000000002,2.1060833999999997,0.41681954,-0.020821778,-0.01584759
8.943837,-0.44577163,2.0345736,0.40723768,0.07497934,-0.10314896
8.197451,-2.467876,1.8144697,0.4455651,-0.013369222,-0.08824385
7.317504,-3.4846837999999996,1.572483,0.52009064,-0.184778,-0.06588618
6.3789096,-3.3965870000000002,1.530412,0.5637413,-0.18158406,-0.07918559
5.7715106,-2.5437338,1.2599822,0.45886450000000006,-0.09480628,-0.036075957
5.6335945,-1.1048379,0.9025565999999999,0.30503118,-0.2875081,0.11136946
5.9063425,-0.20152475,0.9148628000000001,0.16289158,-0.32424727,0.3056595
6.970909599999999,-0.002384625,0.7861888000000001,0.14959218,-0.15336208,0.38392007
8.426603,-0.14550042,0.21906945,-0.062255893,0.11969468,0.3551745
9.468532000000002,-0.16888699,-0.4819049,-0.49930379999999996,-0.025080381000000002,0.58088046
9.359538,-0.3665427,-0.5451885000000001,-0.74097955,-0.184778,0.972672
8.482628,-0.60247695,-0.85404044,-0.42743114,0.38001055,0.5643697
8.360629,-0.96080273,-0.42909843,-0.15594517,0.5423611,0.26787314
9.53894,-1.3678266000000001,0.07975565,-0.12932889,0.32197833,0.47493900000000006
10.847275999999999,-1.7038383000000001,0.35612315,-0.0090233525,0.064332835,0.56224036
11.321414,-0.7394444,-0.12525506,0.07400196,-0.09534734,0.38763762
11.92706,0.7078601,-0.5047456,0.08464847,-0.016563175,0.08208284
12.330589,0.5278735999999999,-0.6111535,-0.013281955,0.04464552,-0.16116370000000002
13.033161999999999,0.9014553,2.4344148999999997,-0.14158110000000002,0.09307841,-0.34215435
13.576934,2.2907722,4.6379137,-0.24750514,0.08988445,-0.39964548
14.420938,1.058151,6.017481299999999,-0.3545113,0.0824319,-0.36184165
12.103561000000001,0.07379887,4.748047,-0.41039672,0.1473756,-0.34960690000000005
8.738645,-2.2247784,4.9912019999999995,-0.45458844,0.123429686,-0.37144098
7.654980999999999,-3.464295,4.1235337,-0.5355019,-0.013369222,-0.36292377
9.721551,-4.354124,3.8993309999999997,-0.52644366,-0.03944444,-0.26178193
12.098619,-3.2599452,2.8188470000000003,-0.39016834,0.08562585,-0.08503244
11.825958,-1.0886052,1.8203307,-0.2523048,0.09361946,0.08794714
10.048322,0.89569,1.134727,-0.22940607,-0.014957472,0.19600047
8.450938,1.8679273999999997,1.3677979,-0.3113842,-0.39451423,0.26254988
6.7194705,1.8711932,1.3111223,-0.3827158,-0.50469685,0.21305235
5.8506722,1.4026191000000001,1.18309,-0.44872415,-0.2390752,0.06291912
5.790559,0.6606656,1.0953760000000001,-0.29222047,-0.12674580000000002,-0.11590732
5.9760714,-0.046533704,1.0466683,-0.028710665,-0.22043508,-0.23621286
6.557967,-1.0072406999999999,0.5680387,0.070266955,-0.5031085999999999,-0.36451203
7.382242999999999,-1.7253671000000002,0.43637678,-0.037768926,-0.42858306,-0.40123373
8.291983,-1.4863108,0.33152992,0.10274753,0.009512044499999999,-0.6354569
8.569825,-0.91836786,-0.58098656,0.43970078,-0.42219514,-1.2779825
8.597415,-0.07899908,-0.9074406999999999,0.8112639,0.2836509,-0.8819323
8.281544,0.30355603,-0.96779376,0.51530844,0.1968906,-0.48321185
9.180778,-0.1111963,-0.82184327,0.2587276,0.06752679,-0.4752357
11.062514,-0.15631264,0.8276947,0.009581857,0.2144486,-0.36025342
12.360574,-0.50657475,1.8473468999999998,-0.05321509,0.36243507,-0.116448365
12.178941,-1.9720657,0.2801695,0.0031939526,0.3438124,0.14065608
12.084206,-1.1557481,-1.0384897,0.086236715,0.38001055,0.28117254
11.684536999999999,-0.5031462999999999,0.7665276,0.1841846,0.41940263,0.32058206
16.258316,-2.8026526,8.062551,0.3114191,0.3352952,0.33281684
20.262196,-7.449578,9.059133000000001,0.40989056,0.24745278,0.3423987
8.77698,-5.61492,0.860524,0.41362557,0.11597713,0.3817908
7.9396133,1.2759371000000002,3.6327510000000003,0.40404373,-0.02560398,0.43821725
9.881416,3.7878663999999995,2.8855397999999997,0.45301765,-0.03359759,0.348263
10.984463,3.5444336000000005,2.1891525,0.44928265,-0.013892821000000001,0.14863224
10.850676,1.1058339,2.2968535,0.40350267,0.00577704,-0.00572468
9.763823,-0.9775142,1.9713953000000002,0.402438,0.011641346,-0.06161012
8.776349,-2.2610650000000003,1.5414541000000002,0.48815113,-0.06447246,-0.058957222999999996
7.4386410000000005,-3.0808299999999997,1.4509724,0.5536359000000001,-0.18743089999999998,-0.07970919
6.281265,-2.8406722999999996,1.6757017,0.56161207,-0.1182286,-0.09515535
5.735405999999999,-1.8086758,1.437881,0.50731486,-0.15177383,-0.015830137
5.417025,-0.88750184,0.9438613000000001,0.39287362,-0.33754668,0.17418386
5.864568,-0.35892913,1.0155341999999998,0.24647539999999998,-0.3104068,0.35198054
7.2509933,-0.36382288,1.0125079,0.14055136,-0.20020671,0.4201182
8.552021,-0.41944498,0.371446,-0.18095574,-0.08257153,0.5260597
9.167993,-0.53206825,-0.24794352,-0.61533326,-0.1741315,0.70385635
8.840992,-0.6890513,-0.47056597,-0.7106283,-0.06873106,0.7102443
8.336457000000001,-0.8233372,-0.29170954,-0.35716417,0.3336895,0.26522022
8.42961,-1.06881,0.123454615,-0.07714355,0.5865528,0.051225413
9.541746,-1.3804201,0.6593919,-0.024993114,0.41673225,0.394043
10.672892,-0.88756883,0.86672014,0.06283186,0.24745278,0.65435886
11.357603999999998,-0.46013683,0.09149681,0.11658800000000001,0.10053097,0.58407444
12.04315,0.38628048,-0.5262168,0.09264208,0.09787806,0.23593360000000002
12.710233,0.092808835,0.036391865,-0.054803338,0.11171853,-0.091420345
14.332323,1.1143285,1.7578325000000001,-0.24644049,0.13939945,-0.3437426
14.927617999999999,2.7279727000000005,3.3690631,-0.34756488,0.13992305,-0.47308895
13.799076999999999,-0.43032426,4.5071135,-0.42210788,0.14205235,-0.48321185
11.012742999999999,-0.8167867,4.873292,-0.50940925,0.1425934,-0.47417104
8.244672999999999,-2.2037957,5.602681,-0.58978164,0.123429686,-0.45392522
7.7101912,-3.5387258999999998,4.441292,-0.64781386,0.031869713,-0.40229840000000006
9.463723,-3.5885252999999997,3.664029,-0.6110747,0.01802925,-0.30169759999999995
11.359711,-2.5156259999999997,2.6129456,-0.4327544,0.046233773,-0.1505172
11.422842,-0.69672227,1.7392918000000002,-0.26080456,0.0015184365,0.016615533999999998
10.139864999999999,0.9035716999999999,0.90330356,-0.18788469,-0.1746551,0.1571669
8.787074,2.0345352,1.118935,-0.2506991,-0.34554029999999997,0.25776768
7.0584607,2.190599,1.4900936000000002,-0.29113838,-0.5323778,0.25776768
6.072193,1.6394918,1.0356646999999999,-0.29806733,-0.26995006,0.11030481
6.0243096,0.794128,0.74761343,-0.11601204,-0.076183625,-0.08874999
6.31058,0.011674128,0.69683725,0.14374532,-0.105993845,-0.22343706
6.870267,-1.2526273,0.52106446,0.24541074,-0.5227959,-0.42146212
7.402574499999999,-2.0286261999999997,0.50552136,-0.1964019,-0.5180137,-0.4108156
7.8552610000000005,-1.8193252,0.38741055,0.10754719,0.24000022,-0.9239773000000001
8.037115,-1.2208417999999999,-0.45146980000000003,0.51265556,-0.42538909999999996,-1.4520441000000002
7.991041,-0.46541366,-1.3982712,0.36465165,0.33635986,-0.6599439
8.127194,0.53057426,-1.1623371,0.07080801,0.19634955,-0.15104079
8.788148,0.06040092,-0.5170805,-0.20011945,0.26022860000000003,-0.12070697
10.902275,-0.040653545,1.3562195,-0.45083599999999996,0.39491564,-0.25857052
12.553422,0.11229764,2.4475540000000002,-0.52270865,0.57644737,-0.30380946
12.53673,-0.77456254,0.9501725000000001,-0.48863983,0.5546133000000001,-0.14624114
12.878583,-0.9239415999999999,-0.7357095,-0.37950438,0.46198866,0.037384953
11.671522,-1.3940958,0.03680367,-0.25919884,0.36775833,0.17578956
19.720446,-3.1352358,10.013107000000002,-0.17776178,0.2836509,0.24499187
20.066399,-9.203475,9.275922999999999,-0.078749254,0.22244221,0.25724408
7.1408309999999995,-3.2396326,0.43751642,-0.028710665,0.14791666,0.27373743
8.033897,3.6586084000000003,3.2172325,-0.0063529983,0.064332835,0.29663616
9.779817,4.3972864000000005,2.5196674,0.015463616999999999,0.06435029,0.21252874
10.80057,2.7728975,2.4241482999999997,-0.0031590459999999996,-0.0016580628,0.07731809
10.428338,0.1670674,2.473488,-0.014870205,-0.030403635,-0.010506882
8.636709,-1.2982989999999999,2.384098,0.026110126,-0.017086774,-0.06000442
7.4272637,-2.0386436000000003,2.098968,0.10595894,-0.15123278,-0.06106907
6.635606299999999,-2.7966192000000003,1.7298107,0.20017181,-0.26515043,-0.06693338
6.0005207,-2.9440062,1.7921749,0.23052308,-0.21191788,-0.12229522
5.744532599999999,-1.9074701,1.9122776000000001,0.2608569,-0.19540706,-0.090355694
5.644809700000001,-0.9924731999999999,1.4910705,0.19858356,-0.2502453,0.042184606
6.444875,-0.89591986,1.2728342,0.11341149,-0.29974285,0.18324211
7.696899,-0.8773025,0.9192394,0.062308256,-0.16240288,0.26841420000000005
8.703737,-0.6857281,0.48962380000000005,-0.19586085,0.05900958,0.348263
9.302891,-0.6261795,0.16769946,-0.7127401,-0.16772614,0.6517059000000001
9.300266,-0.92378837,-0.07470867,-0.9656034,-0.18156660000000002,0.89975214
8.805883,-1.4970274,-0.6083954,-0.63395596,0.28684485,0.43929937
8.746996000000001,-2.10752,-0.5207389,-0.36301103,0.48647562,0.09541715
9.478434,-2.1197689,0.62202317,-0.33904767,0.28579766,0.32005847
10.354280000000001,-1.6111636999999999,1.2371128,-0.22352432,0.112259574,0.49359655
10.985764999999999,-0.8938896000000001,0.7911208000000001,-0.09578366599999999,-0.04209734,0.38339648
11.517738,0.6040571,-0.49821424,-0.04893903,0.053162728,0.075188786
12.045592,0.40678445,-0.37559277,-0.12133529,0.09096656,-0.16488126
12.995727,0.49977523,2.5262275,-0.25387558,0.089360856,-0.3314904
14.061729999999999,2.4369332999999997,3.9344587,-0.3571467,0.045710173,-0.41027454
13.793560999999999,0.44201753,5.631028,-0.39495057,0.046251226,-0.42572072
11.430147999999999,-0.10026917,5.0276227,-0.43008402,0.074455746,-0.39058724
8.852005,-2.3397577000000003,5.609222,-0.48703409999999997,0.07606145,-0.40015164
8.0985985,-3.8834622000000003,4.7338059999999995,-0.57274723,-0.030386182,-0.36023596
10.029952,-4.647222,4.4309683,-0.5764648,-0.11342895,-0.22980749999999997
12.246561,-3.3647727999999995,3.3328054,-0.42263147,-0.03890339,-0.04722861
11.735486,-1.2552128999999999,2.1001363,-0.25494024,0.016441,0.10499900599999999
9.570668,0.37977785,1.3941915,-0.18467329999999998,-0.048485245999999996,0.19868828
7.995168700000001,1.3802669,1.3948907,-0.25706956,-0.42058945,0.24392721
6.624871300000001,1.6591817,1.4489421999999998,-0.38269836,-0.6052976,0.17685421
5.7812595,1.1222581,1.2086792,-0.42367867,-0.44879395,0.025691247
5.590432,0.60595334,0.91995764,-0.23631757,-0.21137683,-0.16275196
5.887036,0.07170156,0.80026674,0.09424778,-0.1895602,-0.27773425
6.4026510000000005,-0.90447193,0.7002465,0.22146483,-0.5392893,-0.35171875
7.330279400000001,-1.5050814,0.6947303000000001,-0.08300786,-0.58561033,-0.22874285
8.3006115,-1.6552552,0.5002349,0.024504422999999997,0.037192967,-0.44807836
8.891424,-1.3646472,-0.4176157999999999,0.3689277,-0.37374482,-1.0650349
8.733692999999999,-0.40466797,-0.86194134,0.6680946,0.16442747,-1.0022204
8.385797,0.56073165,-0.89980805,0.47912780000000005,0.24640559,-0.74989814
8.875363,0.51427454,-0.5387241,0.20071286,0.089360856,-0.62905157
10.495854,0.19186173,0.9435453000000001,-0.016982054,0.23521802,-0.42411499999999996
12.174439,-0.24240813,2.3431287,-0.09950122,0.28951523,-0.12334242
12.174142999999999,-1.5722531000000002,1.0687428999999997,-0.0803375,0.29270917,0.16835445
12.015597,-1.5035396,-1.4185644,0.0048171086,0.32093114,0.35466835
10.236419,-1.3150775,-0.91198975,0.13950416,0.34541813,0.41374776
15.319529999999999,-1.7016646,6.778664999999999,0.30026644,0.28312729999999997,0.38873717
20.517256,-5.771731,9.616579,0.43174209999999996,0.19582593,0.37915534
12.727730000000001,-7.982096,1.9107646,0.45357618,0.060091686,0.39512509999999995
8.853067999999999,-0.5026387,3.8836633999999997,0.44345325,-0.15707964,0.4254589
9.620811999999999,3.906456,3.650018,0.46794020000000003,-0.18849556,0.32964033
9.92228,4.2498226,2.7223222000000002,0.41311944,-0.13898057,0.13535029
9.810711,1.7786716,2.4707587,0.31569517,-0.023998277000000002,-0.024870941
9.220913000000001,-0.7155599,2.0132363,0.27471483,0.09255481,-0.097267196
8.356798,-2.4306223,1.7265737,0.3055897,-0.009634216999999999,-0.10684906
7.3121789999999995,-3.4115555,1.6223207,0.4072551,-0.21670008,-0.13292427
6.4902690000000005,-3.4919047,1.6872226000000001,0.51639056,-0.13313371,-0.18880972
5.9291544,-2.5336592000000002,1.3903704,0.5653645,-0.059131755999999994,-0.14889404
5.5702157,-1.3619943,1.0000389,0.47219880000000003,-0.1879545,0.035273105
6.0685735,-0.36550844,0.98068416,0.31782445,-0.2880317,0.26577875
7.2102056,-0.011089942,0.73931986,0.26726228,-0.25822145,0.4169417
8.259364,-0.055650827,0.028050467000000003,0.23371704,-0.12407546,0.46910959999999996
9.01482,0.1426178,-0.46248317,-0.038816124,-0.016022123,0.49785516
9.203675,0.15339170000000002,-0.6909379,-0.40718532,-0.19488347,0.6027319999999999
8.671559,-0.51637185,-0.5674449,-0.58604664,-0.10917035,0.60805523
8.427648,-1.2493423000000001,0.038326383,-0.4007974,0.36458182,0.23223351
9.507921000000001,-1.3283893,1.1781771,-0.24109977,0.62329197,0.17739527
10.866152,-1.2874101,1.1632565000000001,-0.20650735,0.43378413,0.53459436
11.4210415,-1.4667454,0.34886393,-0.122382484,0.24905849,0.66074675
11.915913,-0.44362643,-0.6529467,-0.102695175,0.10161307,0.45687485
12.3819685,0.38741055,-0.97873056,-0.1372876,0.10800097,0.06988298
13.000046000000001,-0.42741287,-0.53652143,-0.24535839999999998,0.1340762,-0.18189822
14.001473,0.92052263,1.9359897000000001,-0.4034503,0.17720328,-0.328279
13.518524,1.0341994,3.6098337,-0.53014374,0.12662363,-0.441673
13.089397,0.02069548,5.2095337,-0.5801824000000001,0.098419115,-0.48586476
10.72202,0.39089653,5.046345,-0.67067766,0.1441991,-0.44806093
7.7960186,-1.5938583999999998,5.2880445,-0.77714276,0.08883726,-0.4155978
7.7299104000000005,-2.6675715,4.3934274,-0.8341103000000001,-0.018151425,-0.33574899999999996
9.728771,-3.262234,3.4940596,-0.7526558000000001,-0.07031932,-0.20371483
11.581788000000001,-2.9420335,2.5284686,-0.5381374,0.009512044499999999,-0.059463367
11.192366999999999,-1.3654516,1.7884016,-0.32518974,0.056897733,0.083182395
9.776436,0.5223478,1.0769886,-0.23150048,-0.033056535,0.20242329
8.165023,1.8321964,0.8533318000000001,-0.26185176,-0.29548424,0.27429596
6.956084700000001,2.2442957999999997,0.9096913000000001,-0.31667253,-0.49138000000000004,0.25352654
6.300341599999999,1.6985424999999998,0.98726344,-0.32679546,-0.33967596,0.12789772
6.126197299999999,0.7997878,0.34412342,-0.18519689,-0.15495034,-0.057857665999999995
6.3557725,0.10808384,0.26796862,0.045814894,-0.20340067,-0.18242182
6.932123700000001,-0.9816035,0.41312429999999994,0.20390682,-0.44134140000000005,-0.30380946
7.628099000000001,-2.0739245,0.52387047,0.11449360000000001,-0.57548743,-0.38470548
8.308406,-2.3451111,0.34012988,0.07030186,-0.042638395,-0.5002287999999999
8.495164,-1.7315824,-0.49533162,0.46581092,-0.30773646,-1.1933165000000001
8.233258,-0.62298083,-1.0703231000000002,0.8576024,0.33157766,-0.8563458
7.990025999999999,0.3719057,-1.021673,0.52490777,0.23575908,-0.39535198
8.523349000000001,0.12991896,-0.5001104000000001,0.2757795,0.13461724,-0.33733723
10.069332000000001,-0.36421555,0.7594695,0.01972222,0.20062560000000002,-0.32562608
11.993275,-0.36726096,2.0566956999999997,-0.045186576,0.41674972,-0.20532054
12.145172,-0.97557974,0.83548063,-0.010053096,0.43856633,0.024644048999999998
12.555606,-0.9547598,-0.9095285,0.08946557,0.39226276,0.2210634
12.502129,-0.41073009999999993,-0.089677215,0.22893484,0.36564648,0.33178708
15.971433,-2.8061385,7.176773,0.35030502,0.29537952,0.38076103
20.91092,-7.174532000000001,7.6544740000000004,0.4674166,0.22191861,0.39673078
9.884223,-5.8871794,1.3473705,0.4977679,0.108524576,0.39673078
8.177864999999999,1.2516599,3.5759988,0.44505897,-0.045291292999999996,0.42334706
10.292922,4.1305246,2.9271703,0.45357618,-0.07829547,0.3509508
11.398881,3.4646397000000007,2.3359077,0.44666466,-0.06232571,0.1534668
11.071842,1.1077492,2.4047937000000004,0.38224456,-0.043703045999999995,-0.04082325
9.421797,-0.6200216,2.1387882,0.3332706,0.0020594885999999997,-0.13344787
8.280337,-2.0097694,1.8028721999999997,0.34711108,-0.11129965,-0.14090043
7.269667999999999,-3.109522,1.4936083999999998,0.424307,-0.22734658,-0.14781193
6.2329593,-3.1154213,1.4541231000000001,0.48818603,-0.14378022,-0.18507472
5.7596254,-2.1406364,1.4381012,0.473822,-0.09054768,-0.14887658
5.586266,-1.0991587999999999,0.95124507,0.3705334,-0.22469369,0.02729695
5.914224,-0.4969022,0.781908,0.18741345,-0.30400145,0.29078930000000003
6.976636999999999,-0.37758476,0.826239,0.10011209,-0.26460937,0.5287475
8.117061999999999,-0.32937512,0.41790309999999997,-0.1287704,-0.004834562,0.6330833
8.807157499999999,-0.094638005,-0.27452874,-0.5445078000000001,-0.07564257,0.7480656
8.783033,-0.026920404,-0.64466274,-0.7542439999999999,-0.18423696,0.7927809
8.159784,-0.38051525,-0.5991251,-0.46359435,0.2527935,0.26364943
8.067263,-0.7859206999999999,-0.055976436,-0.17346828,0.6073221999999999,-0.098837994
9.089625,-1.2268368,0.81384665,-0.113324225,0.5003161,0.23544492
10.56723,-1.5782481000000002,0.9923392,-0.047856927,0.36777577,0.5692041999999999
11.532936,-1.5049663999999998,0.47891697,0.0064228117,0.12716469,0.5761156999999999
12.368399,-0.114548184,-0.30111396,0.0074874623999999996,0.089360856,0.27162558
13.106789,0.5647826,0.0093182335,-0.057962384000000006,0.17081538,-0.0397586
14.629769,0.677674,1.3692343,-0.18891443,0.17346828,-0.23832470000000003
15.102174,2.8975202999999996,3.2851322,-0.24160592,0.1441991,-0.36341247
14.500809,0.07783071,4.2183247,-0.24907593,0.17081538,-0.36074209999999995
12.263761500000001,-0.3072048,4.5124379999999995,-0.34541813,0.17081538,-0.33786082
8.820564,-2.1141183,5.5633300000000006,-0.42633158,0.10533062,-0.34051374
7.1244354,-3.511135,4.332058999999999,-0.47211155,-0.03890339,-0.30911526
8.378461,-3.3839839,4.090637,-0.44975388,-0.09107128,-0.21329668
10.459271000000001,-2.5412437999999997,3.1489978,-0.29963812,-0.022933627,-0.07382743
11.351253999999999,-1.3114097,2.0741448,-0.1399405,0.006318091999999999,0.07681194
10.106097,0.22186589,1.2730832,-0.07180285,-0.09107128,0.19764109
8.548756,1.5426893999999998,1.1141849,-0.16549212,-0.30560714,0.29239499999999996
7.0992774999999995,2.1339327999999997,1.7819276999999998,-0.25918138,-0.5494121999999999,0.30997047
6.023236799999999,1.4968357,1.4342416999999998,-0.30283207,-0.3694862,0.17847736
5.96999,0.6793595,0.73042303,-0.17346828,-0.11503465,-0.047211155
6.2551966,-0.0017621324,0.5863305,-0.0068591437,-0.1900838,-0.18029252
6.791795,-0.8606676,0.5372206,0.10011209,-0.46369907,-0.31550318
7.555439999999999,-1.6101964,0.45109636,0.14378022,-0.46530476,-0.4863709
8.159612,-1.7326837,0.4139383,0.10119419,-0.13100441,-0.6982364000000001
8.370483,-1.2483176,-0.29034963,0.40301397,-0.21402973,-1.224715
8.116478,-0.4462888,-1.3891062,0.76979494,0.28525662,-0.7120769
7.9712167,0.6350285,-1.3423523000000002,0.4849920999999999,0.1968906,-0.22979005
8.351061999999999,0.6637685000000001,-0.938077,0.38278562,0.10321877,-0.349572
10.258235,0.31806490000000004,0.7415991999999999,0.16133824,0.21926571,-0.48689449999999995
12.387475,0.122152165,2.3762642999999994,0.08361872,0.5093743,-0.40811035
12.403334,-1.1233785,0.9082068999999999,0.08148942,0.4604004,-0.09564404
12.650837,-1.3534614,-0.62621784,0.13739231,0.3257308,0.2120226
13.316741,-0.25221479999999996,1.9332508999999998,0.21617648,0.31080824,0.39407790000000004
16.23827,-3.3171089,6.6168647,0.31199506,0.27249825,0.44305182
20.030859,-6.6072783,7.008547,0.4131369000000001,0.21553071,0.44783404
8.744755,-4.875149700000001,1.1378108,0.44879395,0.1378112,0.4307996
7.9710445000000005,0.37909790000000004,3.6248116,0.41633084,-0.026127578999999998,0.426541
10.993953999999999,2.1130362000000003,3.32139,0.43868852,-0.09213593,0.33552209999999993
12.28169,2.2114186,2.6900675,0.46636942,-0.09053023,0.13643239999999998
11.050007,1.4973623999999999,2.5355744,0.43175954,-0.11288789999999999,-0.055710907999999996
8.627496,0.4312915,2.4214572999999997,0.41259584,-0.071907565,-0.13344787
7.4362183,-0.8636939,1.8830109,0.45039967,-0.17996089,-0.11747811
6.860834,-2.2337806000000002,1.6089035,0.51799625,-0.32690015,-0.10841985
6.2546124,-2.9176029999999997,1.598417,0.48500955,-0.21935298,-0.13875368
5.935312000000001,-2.5624759999999998,1.5933030000000001,0.35777503,-0.20765927,-0.05359906
5.8000492999999995,-1.6968473999999998,1.2731788999999998,0.1895602,-0.38810885,0.14175564
6.0530972,-1.0787123,1.0641459999999998,0.07777187,-0.46156980000000003,0.3413864
7.0630293,-0.5584715,1.0251302,0.14536847,-0.29016098,0.426541
8.082873,-0.22994871,0.5803162,-0.0068591437,0.004729842299999999,0.36374408
8.750903,0.077658325,-0.27291983,-0.3475474,-0.19540706,0.6149842
8.733674,0.04491522,-0.4676642,-0.50351006,-0.2970725,0.9769655
8.13543,-0.44568542,-0.78736675,-0.24853489,0.3911981,0.64479446
8.137576,-0.86028457,-0.5378046999999999,-0.10480702,0.52693236,0.5319415
9.555105000000001,-1.1275063,0.08602846,-0.12449434,0.28101546,0.73050755
10.844814,-0.99837255,0.11463438,-0.032410762999999995,0.03986332,0.6533291
11.408007000000001,-0.6330748,-0.08832689,0.005899213,0.03986332,0.28815386
11.936724,0.5213039,-0.27019045,-0.06380924,0.122382484,-0.059986967999999995
12.7327385,-0.16070838,0.10876379,-0.21233675,0.16708037,-0.30698597
13.208581,0.21648371,3.4505712999999996,-0.39917424,0.16709782,-0.48263590000000006
13.326970000000001,1.0027108,4.8555655,-0.5285206,0.08618436,-0.54012704
14.23577,0.71946716,6.1348453,-0.61477476,0.11386528,-0.48370054
12.059192,0.44763909999999996,4.921406299999999,-0.7015351,0.18306759,-0.4507138
9.235441,-2.3275661,5.2732677,-0.7638083999999999,0.12397074,-0.44217917
9.32915,-3.5327883,4.6840067,-0.7915068000000001,-0.017610373000000002,-0.3506192
11.623284,-3.9021275,3.7658013999999995,-0.66533697,-0.02932153,-0.14622368
12.704161000000001,-2.6195345000000003,2.3722997,-0.4044975,0.034016468,0.08745845
11.11694,-0.5066514,1.3531548999999998,-0.18357372,0.02656391,0.24663247
9.221058,1.3919218999999998,0.82541543,-0.06700319,-0.043161992,0.29187140000000006
7.543928,2.3166199,0.7376344,-0.08564331,-0.31890655,0.29506537
6.111333999999999,2.3035572,0.9849266999999999,-0.10958923,-0.46635200000000004,0.22321016
5.5001802,1.5377766000000002,0.67731965,-0.104265966,-0.26460937,0.07681194
5.4756446,0.73366964,0.58928967,0.080965824,-0.12140510000000002,-0.10841985
5.721903,-0.4086902,0.6436189,0.26195645,-0.22999948,-0.22553144
6.288581400000001,-1.5552448,0.57297075,0.36629224,-0.5036148,-0.38894662
7.084874,-2.1573192999999997,0.56687033,0.044767695999999996,-0.61381483,-0.42942079999999994
8.128239,-1.9867948,0.2898133,0.19488347,0.15645131,-0.6945014
8.565381,-1.5556374,-0.6780379,0.5329188,-0.22999948,-1.0649998999999999
8.756793,-0.9385654,-0.93324065,0.69526935,0.24853489,-0.56567866
8.72087,-0.33942118,-0.63949126,0.54195964,0.27036896,-0.30112165
9.284389,-0.80426985,-0.29231286,0.34341097,0.18306759,-0.34423128
11.252882000000001,-0.61422765,1.5930539,0.14590952,0.31614894,-0.37564722
12.596662,-0.0462464,2.0817776,0.09641199,0.42952552,-0.25214770000000003
12.655855,-0.89108354,0.18353951,0.13313371,0.38322195,-0.02963569
13.257499,-0.36956897,-0.63620645,0.23427555,0.34808847,0.17901842
12.423714,-0.7010126999999999,-0.63591915,0.357234,0.35021776,0.2769663
17.858791,-3.3716776,6.787360700000001,0.4828628,0.31986648,0.31635840000000004
17.358767999999998,-5.58753,8.129847999999999,0.58773965,0.25120524,0.35203290000000004
8.179781,-4.34969,1.3969208999999998,0.61329126,0.09896017,0.41591197
8.5634365,1.2342014,3.9179769999999996,0.60477406,-0.08201302,0.45211008
10.230682,3.1658049,2.9703424,0.6244788,-0.14856243,0.36426768
11.181027,2.7718439999999998,2.5573523,0.6159616,-0.13365729999999998,0.17050122
10.327581,0.92879707,2.5496237,0.5510179000000001,-0.08148942,-0.004607669
8.953529,-0.40689936,2.3776915,0.52173126,-0.039426986000000004,-0.08552113
8.089002,-1.6783544999999997,1.9856071,0.5616644000000001,-0.1123643,-0.08126253
7.399022,-2.8396955000000004,1.5907269,0.61967915,-0.131528,-0.077003926
6.471613400000001,-3.2153554,1.5536741000000003,0.57176983,-0.045291292999999996,-0.089779735
5.8458934000000005,-2.6181746,1.4714476,0.44188246,-0.070842914,-0.05784021
5.608743,-1.71127,1.185398,0.31412435,-0.25874507,0.05873033
6.0784855,-0.9574986999999999,1.0142318000000001,0.18584266,-0.26780329999999997,0.20617574
7.2721963,-0.49262136,0.8360361,0.14219198,-0.15547393,0.27537805
8.500287,-0.19664058,0.23493822,-0.010035643,0.077667154,0.31848767
9.058721,0.0817572,-0.47764325,-0.40236822,-0.060720004,0.5085366
8.781358,0.09524134,-0.7234607,-0.82396996,-0.26035076,0.81196207
8.103558999999999,-0.31200278,-0.5299326,-0.6104987,0.06435029,0.5819975000000001
8.220406,-0.8606389000000001,0.048496947,-0.23893557,0.5583483,0.047001716
9.314756,-1.3524271,0.83729064,-0.18305013,0.45507714,0.25834364
10.643903,-1.0143275,1.1343728000000002,-0.18037978,0.35393533,0.57241565
11.503258,-0.23177788,0.5497565999999999,-0.1388584,0.17933258,0.59796727
12.145451,1.2598288999999998,-0.9358168,-0.10904817,0.11705923,0.31902874
12.494544,0.54754436,-1.2236094,-0.12927654,0.18039723,-0.020577433
13.367335999999998,-0.9674586,0.9840264999999999,-0.24054128,0.22671826,-0.27129397
14.586557999999998,1.5058666,3.4595160000000003,-0.33635986,0.21659537,-0.43420299999999995
14.257404000000001,0.1049618,4.9796906,-0.41086796,0.18891443,-0.44589671
12.243162,-0.103257135,4.7511015,-0.48806387,0.18626153,-0.41290998
8.9739275,-0.9234148000000001,5.6449723,-0.5673891,0.15803957,-0.41928044
7.2115364,-2.7142584,4.528728500000001,-0.6562786999999999,0.0813847,-0.42195079999999996
8.781367,-3.572944,4.4557915,-0.70685834,0.029216811000000002,-0.34264305
11.305353,-3.0985568,3.6420884,-0.6121044,0.06063274,-0.1664346
12.148543,-1.3442868000000001,2.603838,-0.45825365,0.10161307,0.0054803337
10.660537,0.04006936,1.5075041999999998,-0.34327134,-0.057002455,0.14283775
9.020681,1.0491391,1.2004336000000002,-0.36404076,-0.35562828,0.23438026
7.55249,1.4815608,1.4520737,-0.41407937,-0.5850693,0.23385666
6.205292,1.4202596,1.3164854,-0.39756855,-0.45944047,0.12100368
5.8058624000000005,0.8971648999999999,0.771134,-0.24000022,-0.1943424,-0.07806858
5.924586,0.56004214,0.81391364,0.030403635,-0.1943424,-0.2569299
6.505774,-0.21548773,0.6983695,0.22842869,-0.5121319999999999,-0.41610396
7.1784678,-1.0387292,0.4166294,-0.032934364,-0.5712288000000001,-0.41130429999999996
7.744936,-1.5767255,0.32335132,0.10067059,0.14100514,-0.68544316
8.147947,-1.5689491000000002,-0.22706608,0.5291838000000001,-0.36681584,-1.2198978999999999
7.860107000000001,-1.2943437,-1.1096838,0.6164852,0.22085397,-0.7674386999999999
7.6384039999999995,-0.30935,-1.2149136999999999,0.33648202,0.10054842,-0.34370768
8.142066999999999,0.17133865,-0.3307159,0.07670722,0.03721042,-0.28674015
9.934683,-0.06312074,1.1097698999999999,-0.1447227,0.19743164,-0.36180675
12.337686,-0.092205495,2.5358713,-0.21764256,0.36564648,-0.35487779999999997
12.661621,-0.9215761,1.2985862,-0.18357372,0.38960984,-0.162176
12.949452,-1.6861691000000003,-0.60943925,-0.061679937000000004,0.36458182,0.06777114
11.682833,-1.6284306,-0.21774787,0.07937758,0.33105406,0.19607028
17.682760000000002,-3.1079323,7.6160703,0.22575834,0.23523548,0.26260224
20.608503,-7.788989,9.542608,0.34021702,0.18252653,0.3392571
9.096147,-5.0674043,0.904855,0.34766957,0.09896017,0.39887753
8.310858999999999,1.8191718999999997,3.2469012999999998,0.33595842,-0.11555825,0.41165337
9.970988,4.1255064,2.663875,0.37747982,-0.18528415,0.3089058
10.825372999999999,3.3918559999999998,2.5658849999999997,0.36842155,-0.16186184,0.11142181599999999
10.190833,0.8771684999999999,2.4207199,0.2789909,-0.08787732599999999,-0.05784021
8.845943,-0.72194755,2.3501675,0.23321089,0.036669366,-0.11906636
7.7890179999999996,-1.899962,2.1419678,0.27047366,0.03933972,-0.08710938
7.046815400000001,-2.9180052000000005,1.9372060000000002,0.43922955,-0.13311626,-0.081786126
6.316938400000001,-3.3610952000000003,1.8090012999999998,0.5632701,-0.15388568,-0.12969542
5.823206,-2.7669501,1.6173886,0.5382421,-0.12779301,-0.089779735
5.702155,-1.6455252,1.3119076,0.36737436,-0.21402973,0.07415904
6.0758133,-0.9169984,1.2814726,0.19435987,-0.2965489,0.25569072
7.191061500000001,-0.4184777,1.1354836000000001,0.06499606,-0.12885766,0.38877209999999995
8.400813000000001,-0.055957284,0.43788993,-0.31559044,0.038798667,0.4776617
9.336094000000001,0.14119086,-0.36789304,-0.80478877,-0.08201302,0.7289193
9.227685000000001,0.007182605,-0.4996603,-0.8660148999999999,-0.021868976000000002,0.8039859
8.72856,-0.7907761,-0.056876656,-0.5514193000000001,0.50885075,0.31051153
8.552222,-1.6774639,0.6046413,-0.41247365,0.55196035,0.22001621
9.532715,-2.039764,0.8099968000000001,-0.41886157,0.27515116,0.501084
10.583981,-1.9649214,0.23693977,-0.30387926,0.094701566,0.57082736
11.251541,-1.0274669,-0.060247693,-0.19900244,0.058503438,0.38290778
11.674999,0.9525091999999998,-0.23665246,-0.17772688,0.1937141,0.07202974
12.312306,1.2061605,0.21796812,-0.25118777,0.18413223,-0.16536994
13.393146,1.8138089,3.433697,-0.37892842,0.15165167,-0.3378434
14.097710999999999,2.9166932,3.7880006,-0.52319735,0.07340855,-0.42460370000000003
13.6288595,-0.12611696,4.5846279999999995,-0.594529,0.08192576,-0.44004986
10.718295,-0.5530798000000001,4.866301,-0.65469044,0.16177456,-0.44059092
8.199174000000001,-2.9222574,5.095235,-0.7696553,0.11173598,-0.44217917
8.837353,-3.9891806000000005,4.657278,-0.82662284,0.03933972,-0.37775907
11.1999035,-3.8181483999999997,4.127661,-0.75209725,0.02549926,-0.19570377
12.546058,-2.3330537999999996,2.9438815,-0.566307,0.040404372,0.029443703999999998
11.0438,-0.8353178,1.9190102,-0.3837281,-0.051679197999999996,0.19181168
9.077606,0.7343208000000001,1.2732459999999999,-0.28630382,-0.26035076,0.2503675
7.8325830000000005,1.7216609,1.1887785,-0.25864035,-0.5493946999999999,0.23120376
6.814692999999999,1.934898,1.1306665,-0.24265313,-0.5930454000000001,0.13058554
6.3611736,1.1003081000000001,1.2021286,-0.19102629,-0.2992018,-0.0008726646000000001
6.0835133,0.475929,0.8966668999999999,-0.0063006384,-0.23054054,-0.18453366
6.216008,-0.24212083,0.65315735,0.20233601,-0.2922903,-0.27981117
6.603993400000001,-0.92153776,0.74573636,0.24439846,-0.5371600000000001,-0.34848988
7.056967,-1.3542563,0.7617488,-0.10798352,-0.45251152,-0.31335640000000003
7.615276,-1.6134334,0.33076376,0.06714281400000001,0.0792554,-0.7722209
7.8343644,-1.5573612,-0.5473624,0.56272906,-0.40566690000000005,-1.2081867
7.831462400000001,-0.9866601,-0.98168015,0.46212828,0.22139502,-0.64551
8.000666,-0.17890432,-0.59375244,0.29656634,0.1308997,-0.44802603
9.243744,-0.54403925,0.12745772,0.07777187,0.03508112,-0.5145754
11.346505,-0.9727163000000001,1.8884026000000003,-0.057403877,0.23150048,-0.4203451
12.8184595,-1.1460181,2.2027326,-0.06593854,0.31347859999999994,-0.15046483
12.540378,-1.5877961999999999,0.016644489,0.0059166662,0.26611036,0.13590878
12.523629,-0.13969688,-0.6527168999999999,0.13899802,0.27940977,0.3254341
11.541163000000001,-0.5967786999999999,0.91331136,0.29443705,0.29592058,0.41325906
18.299948,-2.2899678,8.573243,0.45146433,0.25439918,0.40261254
19.28153,-7.497250999999999,8.975239,0.52333695,0.18997909,0.41964698
7.992717,-5.009647,1.1751604,0.52068406,0.040404372,0.47713809999999995
8.66249,1.3214270000000001,3.8556416,0.52014303,-0.093724184,0.48193777
10.322332000000001,3.4800394,3.0764534,0.55421185,-0.08787732599999999,0.32702234
11.187797999999999,3.3429377000000002,2.8004594,0.49885002,0.0074001959999999995,0.105574965
10.146847,0.84955853,2.6034547999999997,0.40090212,0.10693632,-0.03174754
8.919857,-1.1270657,2.4465103,0.36629224,0.11971214,-0.061034165
8.05058,-2.6439647999999996,2.0622122,0.41528365,-0.0064228117,-0.039200094
7.2563944000000005,-3.4362159,1.877102,0.47916270000000005,-0.12992232,-0.054646257000000004
6.390546,-3.1272776,1.6468756000000002,0.50204396,-0.11449360000000001,-0.099885195
5.839123000000001,-2.12132,1.2367774999999999,0.40729004,-0.14217453,-0.061034165
5.824383999999999,-1.3130089,1.0923402,0.33648202,-0.20764183,0.080546945
6.839411,-0.5404671,1.2731216,0.27633798,-0.24596925,0.2136283
8.187586,-0.22245964,0.9026235999999999,0.31679472,-0.16292648,0.25356144
9.113673,-0.16102444,0.06832094,0.22097613,0.045727625,0.2503675
9.149987,-0.015524004,-0.46003148,-0.12341223,-0.12566371,0.42336452
8.572181,-0.043143515,-0.5137957000000001,-0.5524665,-0.31304225,0.7677878
8.002887,-0.17877024,-0.36083493,-0.5200034,0.11971214,0.7315897
8.195697000000001,-0.70553297,0.08191043,-0.28152162,0.56899476,0.33553955
9.024253999999999,-1.1777749,0.6255474,-0.27673942,0.42367867,0.45478043
10.140267,-1.2847478,1.0629969,-0.2666165,0.27408649999999996,0.6219306
11.347233000000001,-0.6128773000000001,1.0119429,-0.2213601,0.16283922,0.5516637
11.958051,0.42728838,-0.12995727,-0.22615977,0.20968385,0.20512855
12.131171,-0.21380222,-0.26144683,-0.30174997,0.17667969,-0.13076007
12.447358,-0.89291275,1.5085673000000002,-0.41247365,0.23204152,-0.38201767
13.142261499999998,1.2204108,3.078905,-0.5306499,0.22991222,-0.50977576
13.780057999999999,1.1236275,4.762048,-0.5934643000000001,0.16283922,-0.5422389
12.53965,1.0425408,3.9239912000000006,-0.6488261,0.19104373,-0.53586847
9.170779,-0.61363393,5.3296847000000005,-0.71003485,0.15645131,-0.53319806
7.8255729999999994,-2.62099,4.7633795999999995,-0.743039,0.06647959,-0.5023232
9.602483,-3.1652305,4.3231044,-0.70790553,0.09896017,-0.36765359999999997
12.04904,-2.8520017,3.0559304,-0.59505254,0.1463284,-0.18240435
12.225752,-1.5261313,2.0519075,-0.43483132,0.13835225,0.012950343000000001
10.792056,0.043555316,1.5071787,-0.28578022,0.058503438,0.1582839
9.650203,1.4359177,1.2180548999999998,-0.17612118,-0.10224139,0.23546237
8.138456,1.9878386000000001,1.2902257,-0.13566445,-0.24383995,0.26207864
7.1176167,1.3861566,1.3301034999999999,-0.08775515,-0.47541022,0.218969
6.5138373,0.34301248,1.0798233,-0.07017968599999999,-0.33700562,0.08801696
6.271669,-0.22107102,1.0384035,0.053825952,-0.20018926,-0.053040557
6.4951053,-0.94917643,1.0690398,0.23481660000000001,-0.1836959,-0.14405948
6.787503999999999,-1.512628,0.93347055,0.34873423,-0.26567402,-0.24415411
7.1379004,-1.6885825,0.8287385,0.34714597,-0.5174552,-0.38786453
7.4979309999999995,-1.3425821000000002,0.57946384,0.01282817,-0.25661576,-0.40650463
8.055923,-1.2203723999999998,-0.13343365,0.31520647,0.1441991,-1.0053794
8.307784,-0.9387473,-0.9403658000000001,0.91088736,0.21978931,-0.85844016
8.318932,-0.27582163,-0.33866462,0.5467593000000001,0.21233675,-0.14299482
8.546716,-0.74687606,0.21232738,0.364704,0.11971214,-0.025359634
10.023813,-1.336271,1.6147933,0.13367477,0.06702064,-0.25958282
11.791673,-0.6537224,2.7258751,0.0032637657,0.3736401,-0.48635346
12.314203,-0.23770592,1.2433856,-0.052621678,0.46094146,-0.39320523
12.885105000000001,0.03992571,-0.8605048000000001,0.0043284167,0.36884043,-0.09456194
14.328282000000002,1.0379822,0.13142252,0.12515756,0.3172136,0.1502903
15.078126999999999,-2.379147,3.8275528,0.22842869,0.23842943,0.25994933
20.01616,-5.314649,6.5087905,0.36791540000000006,0.13941689999999998,0.30572933
11.104978,-5.0347667000000005,5.243215599999999,0.43444735,0.06382669,0.36747909999999995
5.9408765,-1.3443635,2.5550632,0.4232598,-0.020263273000000002,0.43348742
8.88268,2.4714482,3.460426,0.40676644,-0.13524556,0.43614033
11.183987,1.9594338,2.355473,0.4232598,-0.1922131,0.30253538
11.69466,1.127985,2.4301338,0.39718458,-0.17570229,0.10983357
9.662835000000001,0.28241047,2.481073,0.34447563,-0.20657717,-0.035482544
7.796736699999999,-0.34439155,2.66874,0.33969343,-0.22095868,-0.077003926
7.035649,-1.4073596000000002,2.4307756,0.40196678,-0.25715682,-0.055693455
6.626728999999999,-2.5112207000000004,2.2049737,0.44935247,-0.22095868,-0.08443903
6.2720709999999995,-2.9889502999999995,1.9949734000000001,0.46052256,-0.18315485,-0.13182472
6.3287277,-2.3348255,1.5814852,0.35405749999999997,-0.18476056,-0.054105207
6.446924,-1.6317443,1.1732738,0.24068089999999998,-0.33539993,0.103445664
7.072577000000001,-1.0472143,1.1041963,0.12836896,-0.43547709999999995,0.2759191
8.055608,-0.4957434,0.9002677,0.08257153,-0.20818287,0.35044464
8.811897,-0.045346178,0.29603824,-0.2229658,-0.030386182,0.4036772
8.845597999999999,0.15654248,-0.24312639,-0.64083254,-0.30133109999999996,0.69593257
8.418961,-0.17688362,-0.2297859,-0.5758888000000001,-0.13098696,0.7241371
8.234302,-0.68264437,-0.27143544,-0.23574162,0.3821573,0.24185027
8.841097999999999,-1.4649546,0.14820108,-0.13938199,0.48914596,0.19128808
9.703039,-1.9176790000000001,0.36361220000000005,-0.18835594,0.34648275,0.51972413
10.3785,-1.6181068,0.74666536,-0.12606514,0.25385815,0.663452
10.98025,0.10225157,0.16665560000000001,-0.07763225,0.14686945,0.46329764
11.562156,1.4394993999999999,-0.41716570000000003,-0.13618805,0.1378112,0.11089822
12.233825,0.15958789999999998,0.525738,-0.25542894,0.15697491,-0.22071433
13.351026999999998,0.48067906,3.7652172999999993,-0.38957494,0.19530234,-0.42353904
14.483025,1.9095865,3.8901181000000005,-0.5093569,0.11280063,-0.47677159999999996
13.941446,-0.56474435,4.317991,-0.56470126,0.08937831,-0.47570693
11.232071000000001,-1.2819992,5.061764,-0.6301859999999999,0.16336282,-0.45493752
8.948137,-3.255913,5.071034,-0.7137524000000001,0.09628981,-0.42619196
8.997150999999999,-3.4903343000000002,4.3616223,-0.7105584,0.05318018,-0.33995524
10.622613000000001,-2.275277,3.8878675000000005,-0.5769535,0.12770574,-0.15844099
11.5492935,-1.2175857,2.7979502999999997,-0.38266343,0.17081538,0.056059975
11.020472,-0.37836048,1.7200615000000001,-0.22242476,0.13622294,0.21099286
9.991703,0.6910528,1.0417075999999998,-0.16121607,-0.05274385,0.28497735
8.23682,1.6605226000000002,0.9282224,-0.17238617,-0.35243434,0.29349455
6.841182000000001,1.9315845,1.0707445,-0.19900244,-0.55152404,0.20404644
6.313011599999999,1.1800636999999998,1.1202565,-0.17132153,-0.3657512,0.04117232
6.088694599999999,0.26227042,0.80593616,-0.046233773,-0.17889625,-0.13660692
6.311287999999999,-0.5326046,0.73533595,0.12411036,-0.26832690000000003,-0.21912609
6.8474073,-1.250664,0.8919455,0.24865706,-0.51480234,-0.34953707
7.488909700000001,-1.5743313,0.90117747,-0.17025687,-0.67875856,-0.27022934
8.0819435,-1.5212758,0.70628947,-0.09519026,0.09416051,-0.37562975
8.410734,-1.2188689,-0.17386693,0.16454963,-0.20764183,-0.9271189000000001
8.283342999999999,-0.7548918000000001,-0.84938616,0.65111256,0.08883726,-0.8978323
8.13001,-0.1870063,-0.76093477,0.54569465,0.20648989999999998,-0.59281856
8.70663,-0.4115058,-0.08402689999999999,0.37695622,0.13248794,-0.50391144
10.329381,-0.8608879,1.4817523000000001,0.17467254,0.18252653,-0.49061206
11.986245,-0.5328056999999999,2.2336082000000004,0.07298967,0.31082568,-0.36976546
12.222495,-1.0471759,0.50721645,0.043720499999999995,0.34009486,-0.05836381
12.899911,-0.5868667,-1.4526291999999998,0.08897688,0.3448945,0.215234
11.41995,-0.3728921,-2.4940207,0.18425441,0.34808847,0.3296927
15.076413,-1.6711049,5.642109,0.31147146,0.30763173,0.32808699999999996
18.372137,-4.211113500000001,8.203358999999999,0.4488114,0.25492278,0.33234559999999996
12.465995,-7.180488599999999,3.2791657,0.5025850000000001,0.12131783,0.41325906
8.492224,-1.7442620999999998,4.1498985,0.5196194000000001,-0.07562511400000001,0.47500882
9.2005825,1.9479417,3.5498445,0.5595351,-0.16931438,0.3930307
10.2143345,2.44923,2.8595387999999997,0.55794686,-0.10437069,0.18116517
10.353304,1.7954596999999999,2.4039605,0.47329837,-0.011222467,-0.012042772
9.342051,0.6870114,2.0738862,0.41528365,0.008464847,-0.11266100400000001
8.445967999999999,-0.69911647,1.8235293999999997,0.42219514,-0.09107128,-0.113725655
7.841183,-2.2590057999999997,1.5401038,0.46371654,-0.17517869,-0.12224286
7.076283,-3.2114959,1.5951896,0.5111022,-0.15334463,-0.17015214
6.310043,-3.042657,1.49968,0.48288023,-0.12672836,-0.14194763
5.8558345,-1.8889006000000002,1.1704773000000002,0.34288737,-0.22254694,0.03796091
6.1180377,-0.811213,1.0826963,0.16828464,-0.28590238,0.29454178
7.1604443,-0.25292346,0.9131964,0.09962339999999999,-0.20711823,0.46116835
8.365302999999999,-0.011214441,0.25320122,-0.11276572,-0.041556288,0.5905321
9.025001,0.31810322,-0.53870493,-0.49658108,-0.15547393,0.77524036
8.64482,0.20613119,-0.68885016,-0.75900877,-0.20924753,0.7832165
7.920267999999999,-0.34872028,-0.52887917,-0.4513247,0.109606676,0.26900759999999996
7.9799223,-0.90836966,0.031747114,-0.19048524,0.53492594,-0.24096015
9.135613000000001,-1.2592926000000002,1.0412288,-0.16653931,0.60786325,0.019338248
10.582965,-1.1819216000000001,0.9071343000000001,-0.20113175,0.5104390000000001,0.49843112
11.492992,-0.8162791,0.34327105,-0.20060815,0.3363773,0.6948505
12.415229,0.52867806,-0.24732102,-0.22403046,0.196367,0.5106659
12.963463,0.627051,0.07679642,-0.28258625,0.21394245,0.08215265
14.038929000000001,-0.39864418,1.6053984,-0.38692203,0.22511257,-0.26438248
15.500359,1.922927,3.6476812000000005,-0.47314129999999993,0.23310618,-0.41767475
14.861173999999998,0.23108836,3.4582040000000003,-0.49391073,0.17720328,-0.44057345
12.59601,-1.3315496,4.295054400000001,-0.51468015,0.13941689999999998,-0.42514476
9.293458,-1.4213226,5.24899,-0.5876,0.10693632,-0.4118279
6.658246000000001,-2.6232598,4.569669,-0.6541494000000001,0.030822514,-0.3687008
7.205474400000001,-2.5005808,4.2860904,-0.64243823,0.0004712389,-0.25213027
9.5209255,-1.528219,3.3909748,-0.49604002,0.0766025,-0.114790305
11.414241,-0.95391697,2.3778923,-0.28736845,0.15219271,0.017732546000000002
11.048685,-0.57760596,1.6513383000000001,-0.13725269,0.014852752,0.15400785
9.552760000000001,0.34953429999999996,1.2957036,-0.13566445,-0.27897343,0.24239133
7.6191545,1.3459339,1.4994885,-0.21764256,-0.5861339,0.25089110000000003
6.3098707,1.3329287,1.460645,-0.25968754,-0.5653645,0.14070845
6.084117,0.8934489999999999,1.0397539,-0.16812757,-0.30452505,-0.03387684
6.532703400000001,0.1684656,0.59014195,0.11185815,-0.27365017,-0.24521875
7.110674,-0.8483709999999999,0.5944899,0.34554029999999997,-0.35349899999999995,-0.3697829
7.666836999999999,-1.4535486,0.7013574,0.30562459999999997,-0.60955626,-0.44856706
7.87316,-1.6639798,0.8647761,-0.22561869999999998,-0.3247534,-0.20580922
7.9390483,-1.4577336,0.6277118,0.20820032,0.15964526,-0.7349581999999999
7.7849193,-1.1016966000000001,-0.41514498,0.8363443000000002,-0.20338322,-1.0463598
7.745367,-0.4429273,-1.1223731000000001,0.57763416,0.23895302,-0.6072
8.078027,0.051245495999999995,-0.8141914000000001,0.42805946,0.15591027,-0.39266416
9.535588,-0.17114711,0.25390029999999997,0.1762608,0.09789552,-0.39533454
11.711132000000001,-0.10597695,2.2401109,-0.0073827426000000005,0.288468,-0.38735837
12.818805000000001,-0.7909196999999999,2.2096567000000005,-0.054209925,0.42633158,-0.19305086
12.559321,-1.6990021,-0.45074198,0.021345377000000002,0.38906878,0.06351253400000001
12.396018,-0.64711446,-2.1641095,0.13421582,0.36299357,0.23013912
11.51341,-1.8446653999999998,2.586207,0.23640485,0.30976105,0.28495990000000004
18.928492000000002,-2.2612946,8.84397,0.36151004,0.23417082,0.31051153
17.020035,-8.054305000000001,8.434256,0.3881263,0.1287704,0.37706092
8.305955,-3.5483599999999997,2.5360436,0.35299283,-0.019198623,0.44092253
8.6496,2.8016853,3.1813004,0.35992178,-0.10917035,0.39674824
10.521252,4.0041394,2.5994040000000003,0.40729004,-0.06232571,0.19711748
11.456773,2.8947527,2.4713717,0.39823177,-0.024521876,-0.023230333
10.211347,0.5877190999999999,2.3250284,0.39557886,-0.010681415,-0.12226032
8.468675,-0.8992813000000001,2.2453783,0.4301713,-0.09904744,-0.09403834
7.478174,-2.1199412,1.9258671000000003,0.5345071,-0.29016098,-0.07220427
6.707097500000001,-2.8284235,1.6822618000000003,0.5648584,-0.24916321,-0.10520845
5.951075599999999,-2.7456226000000004,1.5954098,0.45998153,-0.14217453,-0.07274532
5.6662807,-1.6761615,1.1470045,0.29708993,-0.31464794,0.09864601
5.765841,-0.8174763,0.87444866,0.08789478,-0.4376064,0.35203290000000004
6.597108,-0.46816220000000003,1.0565421999999998,0.025080381000000002,-0.38863248,0.501084
7.928064,-0.3850355,0.9223423000000001,-0.10691887,-0.07510152,0.4904375
8.920652,-0.015389928999999998,-0.013685257,-0.40982077,-0.06232571,0.5527109
8.663036,0.042942400000000006,-0.26764299999999996,-0.61742765,-0.24916321,0.7890808000000001
8.067186,-0.4827764,-0.42024946,-0.37308156,0.0766025,0.54740506
8.058873,-0.89419603,-0.30351773,-0.108524576,0.6142512,0.20245819
9.426891,-1.4214567,0.16852307,-0.12395328,0.47211155,0.5000194
11.145764999999999,-1.3515747,0.14573985,-0.10533062,0.24640559,0.7225314
11.736405,-0.5253357,-0.08212112,-0.063268185,0.0766025,0.6011612
12.182034,0.7896269,-0.677176,-0.06487389,0.11067133,0.19339994
12.757082,0.6380835,-0.75954616,-0.1601514,0.11864748,-0.12278391400000001
13.723258,0.021815965,1.6885154999999998,-0.32145473,0.18678513,-0.342102
13.922771,1.9296403999999998,4.0366626000000005,-0.43057272,0.14313444,-0.45015532
13.289984,-0.029592333,6.270280400000001,-0.5050983,0.1287704,-0.42355649999999995
12.245834,0.17146315,4.557564,-0.55674255,0.18626153,-0.36339499999999997
8.902284,-1.6723881999999999,5.0105949999999995,-0.57751197,0.14313444,-0.36339499999999997
7.6917944,-2.926835,4.355771,-0.6254038000000001,0.004729842299999999,-0.3288026
9.784346000000001,-3.095128,4.0455303,-0.598264,-0.033580136000000003,-0.22446679999999997
11.927242,-2.4984547999999998,3.0146449,-0.4130147,0.068608895,-0.035482544
11.842584,-1.2427248,1.9438331999999998,-0.20221385,0.12822933,0.15027285
10.014054,0.5528499,1.0564079,-0.106395274,0.012182398,0.27377236
8.312046,1.9085139,0.7777516,-0.14365806,-0.37372735,0.28654817
6.731211999999999,2.1921310000000003,1.1649227,-0.2570521,-0.49296823,0.17475982
5.793317,1.6835738,1.0878678999999998,-0.27354544,-0.3093247,0.009215338
5.6478834,0.62741494,0.7698316,-0.06859144,-0.21509437,-0.19785053
5.7807426,-0.28191248,0.7949036999999999,0.20446531,-0.23692845,-0.32826152
6.130563700000001,-1.3079907,0.5383219,0.16561429,-0.39982003,-0.43579125
7.0930233,-1.8596244,0.33746752,-0.038257618,0.067544244,-0.42462116
8.154852,-1.7509276000000003,0.29671820000000004,0.3843913,-0.21615903,-1.1342021999999998
8.71045,-1.3048973,-0.3725378,0.9310982,0.21659537,-0.90797263
8.61178,-0.5109226,-0.60217047,0.6638534,0.24055873,-0.38044688
8.550288,0.18310855,-0.70589685,0.41526620000000003,0.059550636,-0.20690878
9.619548,-0.107288964,-0.6700891999999999,0.15336208,0.10161307,-0.25907668
11.601525,0.067152575,1.2822483,0.0037873646000000003,0.27249825,-0.29738665
12.855397,0.101265155,1.9489473000000002,0.009110618000000001,0.45242426,-0.20369738
12.833505,-0.5263413,0.9912953000000001,0.07990117,0.42739624,-0.041346848
12.393414,-1.1966125,0.47408065,0.19914207,0.35393533,0.11355112
13.815567999999999,-3.3478794,6.870181,0.3237062,0.27036896,0.23705062
21.095753,-6.7680345,8.708162,0.45092326,0.2112721,0.33871606
10.996119,-7.2762947,0.8093071999999999,0.50628513,0.15803957,0.42017058
7.282079700000001,0.38906735,2.970189,0.48179814,-0.0027052604,0.4680624
9.022099,4.490785,2.9795072,0.48179814,-0.10543534,0.40633009999999997
11.393968,3.80295,2.4476976,0.49724430000000003,-0.06764896,0.21043435
12.221729,1.3713222,2.3735542,0.45146433,-0.05806710599999999,0.010803588000000001
10.320226,-0.40124905,2.2186685,0.41366049999999993,-0.118752204,-0.07435103
8.201614999999999,-1.2792411,1.9848411,0.49830896,-0.25183356,-0.06955137
7.088484299999999,-2.3701065,1.7889475,0.5967804,-0.26248008,-0.086062185
6.30898,-3.0393242999999996,1.7633581999999999,0.62606704,-0.19807741,-0.13238323
5.895626,-2.553531,1.753657,0.46424013,-0.13843952,-0.0429351
5.6132919999999995,-1.679791,1.3193008999999998,0.2709973,-0.3034604,0.13217378
5.7770267,-0.9415245999999999,1.1053933,0.14217453,-0.39556143,0.34084535
6.688192999999999,-0.37121618,1.1230817,0.11023499999999999,-0.25289822,0.39247218
7.9725575,0.06564901,0.66524327,-0.07019714,-0.033580136000000003,0.33393383
8.859494,0.09642887,-0.35855564,-0.4694412,-0.20711823,0.59370863
8.468407000000001,-0.1684656,-0.53413683,-0.5429020999999999,-0.21350613,0.8178089
7.805011299999999,-0.6413204,-0.123646155,-0.33796555,0.4620061,0.44465753
8.311232,-1.0107554,0.20424455,-0.23788838,0.5093743,0.48935542
9.56995,-1.3192531,0.503242,-0.23841198,0.27461009999999997,0.74380696
10.881464999999999,-1.2610068,0.42588058,-0.14526375,0.067544244,0.6618289
11.738942999999999,-0.28853962,-0.15173492,-0.10641272,0.06647959,0.27216664
12.365534,1.0454713,-0.46381432,-0.14578736,0.13461724,-0.11800171
12.813001,0.08330864,-0.010716446999999999,-0.25970498,0.18146189,-0.36767107
13.474529,1.0716735000000002,3.5439355000000003,-0.38959240000000006,0.18146189,-0.50340533
13.498795999999999,1.215766,4.713455000000001,-0.482217,0.11971214,-0.5145754
13.781667,0.54335934,5.542366,-0.5626069,0.17188002,-0.42196825
10.738004,0.21486524,5.069492299999999,-0.6259623000000001,0.18730873,-0.39002872
8.368616000000001,-2.3439522,5.14354,-0.6765245,0.09628981,-0.34477234
9.359739,-3.3025522000000005,4.745375,-0.69942325,0.014311700000000002,-0.22020820000000002
11.657014,-3.73959,3.6197267,-0.55567795,0.024417156000000002,-0.006754424
12.568074000000001,-2.5832193,2.3522265,-0.36191148,0.022287855,0.16144295
10.889403999999999,-0.6811504,1.5155776,-0.24054128,-0.08255407,0.23970352
8.8120985,1.1446009,0.9805884,-0.22989477,-0.39610246,0.25513223
7.036156699999999,2.2512583999999998,1.0281277,-0.27035149999999997,-0.5845457,0.19657643
5.74528,2.2362802000000004,1.1855223999999998,-0.24427629,-0.43762386,0.07307693
5.4606566,1.3049357,0.8322628000000001,-0.107459925,-0.17146115,-0.13983577
5.5750519999999995,0.29647878,0.7028993,0.048485245999999996,-0.21244147,-0.25055948
5.8749975999999995,-0.7779623,0.6706063,0.16187929,-0.47753954,-0.35328954
6.542874299999999,-1.2701049,0.49093586,0.09639453,-0.6148795,-0.43261477
7.523635400000001,-1.7990988,0.40733033,-0.031887166,-0.050614547,-0.48743555
8.303398,-1.703168,-0.30990547,0.3843913,-0.08148942,-1.2529196000000002
8.43347,-1.2104412,-0.88703257,0.91139346,0.16177456,-0.9718517
8.399654,-0.5190246000000001,-1.0849372,0.6170088,0.21553071,-0.4256858
9.139664,-0.36953068,-0.62509733,0.42484805,0.09309586,-0.36180675
11.04903,-0.2559306,0.99544203,0.16027358,0.114388876,-0.34636059999999996
12.653069,-0.057259727,2.0730817,0.021327923999999998,0.30761427,-0.23298400000000002
12.201597999999999,-1.0060244,0.5581555,0.026651177999999998,0.3789459,-0.05253441
12.3267,-0.94893706,-1.1551545,0.11555825,0.31667253,0.123115525
12.219086,-0.22342689999999998,-0.34034055,0.22469369,0.30974358,0.21308725
14.855169,-2.4167167999999997,7.454711,0.34445820000000005,0.25492278,0.2727077
21.192938,-6.350936,8.523971000000001,0.4439943,0.21446607,0.338175
9.889796,-7.448103,1.4777396,0.46102872,0.16069247,0.4004658
6.7302446,-0.33099359999999994,3.207761,0.41578978,0.033999015,0.45263368
9.387895,3.9128053,3.2804968,0.43655920000000004,-0.025062927999999998,0.37597883
11.64534,3.9604980000000003,2.3244537999999997,0.48127455,-0.009634216999999999,0.16676621
12.322563,1.9197571,2.2119741000000004,0.45411720000000005,-0.05487315,-0.019530235
10.218826,-0.45138365,2.2197504,0.41844269999999995,-0.09745918,-0.08073893
8.512201,-1.5528121000000001,2.006322,0.48818603,-0.16346754,-0.059986967999999995
7.522390400000001,-2.414447,1.6124086000000002,0.5611059,-0.20340067,-0.06850417
6.617899,-2.7121804,1.5274336000000002,0.5478065,-0.16240288,-0.1004437
6.0991235,-2.2352555,1.3809948,0.3891735,-0.14962707,-0.015795228999999997
5.7151510000000005,-1.5315325,0.9974436,0.19753636,-0.34286994,0.18592992
5.805173,-0.9781367,0.8361223,0.059655353,-0.3843913,0.40044835
6.697042,-0.6242545999999999,1.0250726000000001,0.018675024,-0.26993263,0.47764426
7.7545705,-0.49117526,0.5660946,-0.15858062,0.006318091999999999,0.4558102
8.2937155,-0.16592775,-0.31394687,-0.53705525,-0.22149974,0.64744735
8.168844,0.081948735,-0.60904664,-0.6014579000000001,-0.18688986,0.8295200999999999
7.8409243,-0.1430296,-0.38758296,-0.30869640000000004,0.34967673,0.40737729999999994
8.215522,-0.7118153,0.0037062243,-0.12716469,0.64191467,0.23170991
9.422303999999999,-1.3269241000000003,0.312156,-0.16390386,0.36671114,0.58517396
10.803213000000001,-1.1627296999999999,0.20500113,-0.07180285,0.19901989999999997,0.63573617
11.731836999999999,0.065639436,-0.39624038,-0.023369959,0.08883726,0.39779544
12.591853,1.2711487,-0.80095625,-0.0723439,0.11013027,0.002268928
12.928402,0.08533893,-0.28536009999999995,-0.18146189,0.1553692,-0.28304005
13.89836,0.18690096,2.8361330000000002,-0.29911453,0.19476129,-0.44539058
14.075645000000002,1.7654747,4.5824637,-0.36884043,0.14898129999999998,-0.49117056
14.346698000000002,0.5220509,5.3353252,-0.42633158,0.16282177,-0.41877429999999993
11.661324,0.050670885,4.4217362,-0.5131093,0.2054078,-0.3841819
8.292575999999999,-2.586456,4.895606,-0.5812470000000001,0.13939945,-0.38577009999999995
8.074722999999999,-3.6696407999999994,4.237967,-0.63235027,-0.018151425,-0.33094934
10.335003,-3.6422608,3.6973946000000004,-0.5700594,-0.022410028,-0.21169098
11.939204,-2.4012597,2.4831033,-0.40238565,0.07658505,-0.05146976
11.404071,-0.70547545,1.4451208999999998,-0.2527935,0.023352506000000002,0.09543460599999999
9.759973,1.0625755,0.89418644,-0.19264944,-0.20978858,0.18167132
8.116161,2.0811455000000003,0.9269103999999999,-0.23310618,-0.46743408,0.17847736
6.4100347,2.1288955,1.2634012,-0.28527406,-0.43336526,0.07466519
5.8277745,1.3213025,1.0696622,-0.2778215,-0.17624335,-0.08234464
5.905605,0.44412443,0.6944716999999999,-0.13941689999999998,-0.15601498,-0.25003588
6.124617,-0.1848611,0.7436774,0.049549895999999996,-0.27686158,-0.3160442
6.6559477,-1.1967082,0.60881674,-0.11119492,-0.37800342,-0.28995153
7.4893600000000005,-1.789522,0.3911934,-0.28153905,0.089360856,-0.30911526
8.3700905,-1.5214959,0.015361198000000001,0.06923721,-0.06819001599999999,-1.0671467
8.623674000000001,-0.9520112,-0.7543171999999999,0.70696306,-0.021345377000000002,-1.3056284
8.284196000000001,-0.31337228,-1.4488943,0.57868135,0.4587947,-0.74455744
8.436036999999999,0.030071173,-1.1829846000000002,0.31677726,0.15591027,-0.4922352
9.894575,-0.36400485,-0.27536193,0.10278243599999999,0.12875293,-0.32243213
11.842555,-0.34217933,1.3896712,-0.05370378,0.27035149999999997,-0.10737266
12.749699,-0.42227015,1.5405252,-0.10480702,0.47476447,0.060824725999999996
12.338001,-0.5847024000000001,-0.13009134,-0.062220987,0.50511575,0.16144295
11.260046,-0.29649790000000004,-1.0669425,0.043685592999999995,0.49818677,0.21413444
12.778955999999999,-1.4620911,5.4013386,0.16931438,0.4130147,0.24500932
20.354631,-4.2021303,11.1125145,0.29387853,0.33370695,0.29984757
16.629904,-11.619425,3.7306166,0.33007666,0.23682372,0.36370915
7.590223,-2.4240812999999997,2.7417536,0.32581806,0.099483766,0.40737729999999994
7.688289,4.114033,3.1578946,0.34711108,0.015376351000000002,0.34082788
9.561082,5.306010700000001,2.6480637000000002,0.34711108,-0.018151425,0.14919074
11.0463295,2.8929138,2.4183545,0.31197759999999997,0.005794493,-0.0009075712300000001
10.484095,-0.13574165,1.9491197,0.30026644,0.037734017,-0.06531022
8.951356,-1.7707708,1.7996638999999999,0.3082426,-0.0538085,-0.067456976
7.518453999999999,-2.7965713,1.6751367,0.36466908,-0.27260298,-0.07808603
6.2776445999999995,-3.1006541000000003,1.7698321,0.3593633,-0.311454,-0.11960741
5.5545287000000005,-2.2707758,1.8381148999999997,0.29866076,-0.1922131,-0.108960904
5.2252784000000005,-1.2603078,1.5248958000000001,0.15920894,-0.19594811,0.02942625
5.6132827,-0.7508791,1.48271,-0.07393215,-0.30613074,0.2173284
6.642186,-0.62634236,1.2976477,-0.20064305,-0.31784192,0.3530801
8.023850999999999,-0.54870313,0.8018181999999999,-0.4561418,-0.107041046,0.45368087
9.164047,-0.27934590000000004,0.014087482,-0.8218581,-0.16613789,0.6027319999999999
9.268663,-0.20749108,-0.61354774,-1.0081719999999998,-0.09107128,0.6889687
8.704771000000001,-0.52656156,-0.69316924,-0.6589665,0.14152876,0.4185474
8.240698,-0.8015116999999999,-0.65694976,-0.26024604,0.6589491,-0.01155408
9.005405999999999,-1.044686,-0.31006828,-0.1942377,0.5668655,0.22638665
10.582765,-1.1575582,0.42603382,-0.20542525,0.30229104,0.57770395
11.720422,-0.6166696999999999,0.38239232,-0.17083283,0.09681341,0.6235014
12.162392,0.6855557,-0.4537108,-0.1308997,0.14952235,0.30675906
12.496746,0.96610826,-0.08116343599999999,-0.19690804,0.112259574,-0.022200587999999997
13.6152115,0.24495557,2.1571757999999996,-0.33957127,0.114388876,-0.22607249
15.02012,2.0091662,4.217702,-0.46732935,0.09574876,-0.35437164
13.046283,-0.30350816,5.7912483,-0.5099154,0.048904125,-0.40599850000000004
10.955599000000001,-0.23657586,5.346280999999999,-0.54611355,0.0776497,-0.44326127
7.980295,-1.5026106000000001,5.580051,-0.6547079,0.04783947400000001,-0.46083674
6.586257499999999,-3.377232,4.83941,-0.7255159000000001,0.0073827426000000005,-0.4161214
9.293428,-4.2275376,4.1781120000000005,-0.68238884,0.073391095,-0.28996900000000003
12.483761,-3.4206053999999995,3.0190978,-0.5503720999999999,0.17613862,-0.13292427
12.879684,-1.735011,2.263718,-0.37044615,0.0776497,0.024626596
10.387723,0.22448993,1.3430705,-0.29433233,-0.20073032,0.13693853
8.916198,1.457341,1.0258578999999999,-0.334248,-0.537701,0.17048377
7.6466970000000005,1.9898403000000002,1.2795954999999999,-0.34595916,-0.5451536,0.060301125
6.891786,1.5703951,1.4604535,-0.25333455,-0.18849556,-0.07810348
6.645364999999999,0.68963546,0.8130996,-0.034016468,-0.17304939,-0.23460716
6.711042999999999,-0.1302733,0.5289366,0.24436355,-0.2502453,-0.34904840000000004
6.951507,-0.7765545,0.6493554,0.22680554,-0.58028704,-0.42517966
7.1814365,-1.3005016,0.7669776999999999,-0.26080456,-0.3758741,-0.2553591
7.284397,-1.431656,0.49371314,0.07614872,0.29112092,-0.76159185
7.247248599999999,-1.2152393999999997,-0.35467702,0.70483375,-0.26035076,-1.1949222
7.1309285000000004,-0.72604644,-1.0202938,0.5813343000000001,0.39439204,-0.81484187
7.4852705,-0.26982653,-0.73502946,0.32049479999999997,0.22457151,-0.6583382
9.157467,-0.6622840999999999,0.49270755,0.008011062,0.06541494,-0.57529545
11.493853999999999,-0.70127124,2.4987135,-0.12505284,0.2527935,-0.36449456
12.806536999999999,-1.3389046,2.2195303,-0.18360864,0.3369009,-0.06372197
12.283211999999999,-2.0199113,-0.1573182,-0.13941689999999998,0.36297613,0.13480923
11.950591000000001,-0.8563198000000001,-1.7182515,-0.05958554,0.40503857,0.20242329
11.216375,-1.5176174999999998,1.5417415,0.06604326,0.3310366,0.24288002
18.137532999999998,-1.2599916000000002,9.889576,0.20177752,0.24001768,0.31527627
19.297601999999998,-8.696468,8.577228,0.25288075,0.12610003,0.42067669999999996
9.180843,-5.4501705000000005,2.8937087000000004,0.24649285,-0.009093165,0.49094367
8.782842,2.5283439999999997,3.4931211,0.2603333,-0.07031932,0.44090506
10.142881,5.3590665,2.8513026000000004,0.2933375,-0.07564257,0.25352654
10.883055,4.2212934,2.595257,0.27523842,-0.09852383,0.060824725999999996
10.286401,0.9181189000000001,2.471659,0.28588492,-0.09800023599999999,-0.03551745
9.046329,-1.2091292,2.2708044,0.3337942,-0.14962707,-0.044558257000000004
7.8689365,-2.7067695,1.8840069,0.43013638,-0.31838295,-0.05148721
6.6683974,-3.3768682,1.9446759999999998,0.4104491,-0.31677726,-0.08342674
5.955826,-2.8287876,1.9296689999999999,0.23638739,-0.21298252,-0.06958628
5.5196695,-1.6257778,1.5211226,0.037821285,-0.28963740000000004,0.066147976
5.775504,-0.87555,1.2755541000000001,-0.094701566,-0.45252895,0.21306979999999998
6.609711,-0.5073505,1.3932626000000001,-0.0824668,-0.45465827,0.32751104
7.718130599999999,-0.43801442,1.2496966,-0.06063274,-0.11716395,0.25830874
8.54753,-0.23189281,0.43770796,-0.2607871,-0.044226642999999996,0.26843163
8.633308999999999,-0.24103865,0.018253393,-0.5658183000000001,-0.25343925,0.65915847
8.495614,-0.6497193,-0.30595982,-0.5759411999999999,-0.036250487000000005,0.94020885
8.178669000000001,-0.8996261000000001,-0.7812279999999999,-0.27092746,0.5327791999999999,0.6559471
8.856162,-0.96029514,-0.7690846,-0.12878785,0.45560074,0.6479709
10.0984745,-0.60502434,-0.3039104,-0.06117379,0.12397074,0.77359974
10.795561,-0.05803545,0.5589407,0.005881759300000001,-0.03944444,0.5803569000000001
11.210543,0.9475771000000001,0.14724341,0.020245818,0.146852,0.17367771
11.728878,0.44129926,-0.32695219999999997,-0.052132983,0.12077679,-0.12281882
12.600185,-0.75040984,1.225113,-0.20650735,0.18465583,-0.3117856
12.705741,0.114299186,3.9003654,-0.39866809999999997,0.18411478,-0.47148323
12.758068,0.8161642,6.1981473,-0.5551718000000001,0.14791666,-0.5103517
12.870816,1.3673382,5.273909,-0.66963047,0.1558928,-0.49331729999999996
9.532141000000001,-0.62213814,5.6202736,-0.72818625,0.13301153,-0.48853509999999994
8.632438,-2.3928707,5.8153915000000005,-0.7782249,0.033475414,-0.43795547
10.723898,-3.7654377999999995,4.8663583,-0.77183694,0.059550636,-0.3022212
14.0751095,-4.210932,3.040837,-0.6371498999999999,0.16442747,-0.07756243
13.556161,-2.5157217999999997,2.012336,-0.46734682,0.16655678,0.15184364
10.846586,0.09265561,1.3454936000000002,-0.34437090000000004,0.036128316,0.30782372
8.972471,1.9560723000000002,0.8162983,-0.29752627,-0.18263125,0.35999159999999997
7.565332400000001,2.706061,0.59823436,-0.30232593,-0.42004840000000004,0.30037117
6.3215737,2.4966927000000005,0.7029664000000001,-0.22832397,-0.33700562,0.13215633
6.010059,1.0381451,0.6367906,0.012269665,-0.16879079,-0.07810348
5.985974,-0.30042443,0.7569891,0.22094123,-0.111840695,-0.22343706
6.144163,-1.2484803999999998,0.6309679,0.29546678,-0.24544565,-0.2835811
6.4951725,-1.5112393,0.5129912,0.29653144,-0.59625685,-0.3527834
7.0724144,-1.3796443999999999,0.51247406,-0.10056587,-0.49565604,-0.3229732
7.564241,-0.9606878000000001,-0.1885769,0.19591321,0.24427629,-0.7184997
7.688403999999999,-0.58931834,-0.8365245000000001,0.5946336999999999,-0.14962707,-1.0618409
7.8657284,-0.29501352,-0.9322254999999999,0.55204767,0.28579766,-0.58009505
8.488546000000001,-0.8151586,-0.4885608,0.41683698,0.25544637,-0.357042
10.275914,-1.3492764,1.5760072,0.27523842,0.15271631,-0.40760419999999997
12.207163000000001,-1.4386758,2.9281375,0.11819369,0.2719572,-0.40708059999999996
12.331614,-1.8409017,1.0607367,0.07667231599999999,0.39543924,-0.25802946
11.755453999999999,-1.142197,-1.366074,0.116605446,0.36297613,0.011309733999999998
12.285291,1.2021478,-0.9723332,0.20816542,0.35765287,0.19549432
12.70509,0.028213272,1.6509169,0.30344296,0.36671114,0.26789057
18.775807999999998,-2.2394214,7.6232147,0.39660862,0.31932545,0.26736698
17.590822,-7.0658827,9.231554,0.44025929999999996,0.25918138,0.30728266
7.614250999999999,-4.570579,1.5521419,0.4471708,0.16229817,0.3983016
8.464997,1.2626923,3.6598341,0.44662976,0.03345796,0.44462264
10.017665,2.887972,3.0683417,0.48497462,-0.019739674,0.32909927
10.961852,2.4275386,2.6590388,0.48284534,0.059027035,0.11512191599999999
10.150025999999999,0.57220465,2.529254,0.43015385,0.15378097,-0.034976397
8.901106,-0.65971744,2.3446321,0.39872047,0.143117,-0.08396779
8.285614,-1.7867258000000001,1.9886047999999998,0.4152313,-0.020821778,-0.07597418
7.606197,-2.6914659,1.735825,0.43013638,-0.21031217,-0.091420345
6.8086977,-2.790739,1.762391,0.35295793,-0.20818287,-0.14198254
6.1207004000000005,-1.9104676,1.5539517,0.20868902,-0.13952161,-0.09833185
5.8561883,-0.9963135000000001,1.4544106,0.12564625,-0.21830578,0.03473205
6.5089817000000005,-0.52666694,1.5625421999999998,0.10276499,-0.2353402,0.13107422
7.787926,-0.37133113,1.3824983,0.051661745,-0.08522443,0.2151991
8.677746,-0.2872755,0.6927574000000001,-0.32255429999999996,-0.07829547,0.45366344
8.942956,-0.22684583,-0.021375433,-0.71167547,-0.24972170000000002,0.77572906
8.661944,-0.16717274,-0.25875574,-0.61372757,-0.056478854,0.7203672
8.116056,-0.3739456,-0.44446918,-0.20118411,0.31826079999999995,0.20559978
8.072951,-0.6703286,-0.30243555,-0.12772319,0.35393533,0.14758503
8.803001,-0.6830944999999999,-0.21339998,-0.19160224,0.2123193,0.4589867
9.697341,-0.32782367,0.46769294,-0.22832397,0.122365035,0.62189573
10.658526,0.43755472,0.7493085,-0.25228733,0.052098077,0.5079606
11.424325999999999,0.74361026,0.26534456,-0.31881928,0.18092082,0.14173819
12.223319,-0.42799708,1.3770586,-0.38908625,0.11917108,-0.1728574
14.172533999999999,0.13962027,4.2536059999999996,-0.47958156,0.11597713,-0.3522598
15.246737,1.4195986999999999,3.623816,-0.56423,0.00418879,-0.40175733
12.926438000000001,-1.0054020000000001,4.2753835,-0.57274723,-0.010698868,-0.41666245
9.913566000000001,-0.7049583,4.7533617,-0.5743355,0.030281462000000002,-0.42252675
7.661722999999999,-2.336195,5.02881,-0.6366263000000001,0.03080506,-0.41613886
8.599407000000001,-3.2896523,4.6794767,-0.68294734,0.015358897,-0.36503562
11.742008,-2.4723005000000002,3.8271029999999997,-0.67760664,0.033999015,-0.222896
13.6303625,-1.1783781999999998,2.5015192,-0.5865876999999999,0.098419115,-0.08503244
11.740072999999999,-0.34963006,1.7372998,-0.47160542,0.06593854,0.040055305
9.753633,0.35289577,1.6514723999999998,-0.42582542,-0.11716395,0.13533282
8.109553,1.1640513000000001,1.5738046,-0.43912485,-0.34447563,0.18856537
6.997045,1.2965081,1.6946447,-0.429543,-0.51160836,0.1007404
6.575004600000001,0.7439455,1.734963,-0.29113838,-0.33541736,-0.07384488
6.2723393,0.34300290000000005,1.4198574,-0.16125096,-0.13578662,-0.23088960000000003
6.426018,-0.30902442,0.9986119000000001,0.074543014,-0.2944196,-0.34693655
6.598544599999999,-0.8740081000000001,0.7541161,0.16983798,-0.50523794,-0.50715774
6.904561500000001,-1.0606792,0.7127059,-0.24802874,-0.3758741,-0.44860196
7.4508996,-1.119184,0.5595536,0.16345008,0.087231554,-1.0586468999999998
7.819826600000001,-1.1726034,-0.20243454,0.6095388,-0.21991149,-1.2715771
7.945264,-1.0749104,-0.7695922,0.2629862,0.22883011,-0.55347884
8.050599,-0.23683442,-0.4889726,-0.004223697,0.16708037,-0.25590017
9.235451,-0.34963965,0.42771935,-0.21183062,0.15856317,-0.29316294
10.991052,-0.90720135,1.6215832000000001,-0.3523645,0.31028464,-0.38845792
11.873372999999999,-1.1144243,1.5031181999999998,-0.33800048,0.5285206,-0.32457888
11.822741,-1.6194378999999999,0.7417811,-0.24589944,0.5429020999999999,-0.101525806
12.398574,-1.1986523999999998,-0.44626004,-0.15060446,0.4438896,0.102869704
12.187368,-1.4781227,3.4197915,-0.039357174,0.33742452,0.23966861
20.119770000000003,-3.4796562000000004,8.713428500000001,0.05804965,0.2719572,0.31419417
16.350807,-8.179283,5.6718736,0.11341149,0.26928684,0.33922220000000003
7.737102,-1.3604428999999998,2.1824584,0.104353234,0.15962781,0.38498473
8.804628999999998,4.392575,3.0316532000000005,0.13470452,0.11491248,0.37329102
11.016402000000001,3.4970477,2.7653701,0.15971509,0.19634955,0.23008676
12.175809,1.1646833,2.883318,0.10115928,0.19528489,0.009704031
10.79446,-0.91366565,2.7547493,0.021310471,0.15430456,-0.12388347
8.508543,-1.4373829,2.6334972000000003,0.0021467548999999997,0.0861669,-0.16540486
7.3541064,-2.0025487,2.114061,-0.006876597,-0.14590952,-0.14837044
6.5758667,-2.8188758,1.7634254,-0.018064158,-0.35938075,-0.16594589999999998
6.18633,-2.8656104,1.7497208999999998,-0.09417797,-0.29656634,-0.22556636
5.858736,-2.0244124,1.7062519,-0.14795156,-0.15655604,-0.20533799
5.8896690000000005,-1.0696814,1.7539252,-0.08567821,-0.20127137,-0.12390092
6.879231,-0.38738182,1.7703686,-0.0782082,-0.15123278,-0.08820894
7.944191,-0.42174342,1.214569,-0.04201007599999999,-0.054349552999999995,-0.06054547
8.678445,-0.46638092,0.5671193,-0.30497882,0.040910516,0.04431391
8.8718195,-0.55332875,0.38303396,-0.7255159000000001,-0.13100441,0.2955715
8.498641000000001,-0.441826,-0.13563631,-1.1907683999999998,-0.20020671,0.60271454
7.933235000000001,-0.548866,-0.4759673,-1.0204242000000001,0.20114920000000003,0.44036403
8.109372,-0.69570714,-0.45952392,-0.82986915,0.5258676999999999,0.15397294
9.363608000000001,-0.97837615,0.048477795,-0.86339694,0.37788123,0.26096162
10.847706,-1.1006336,1.9501251,-0.8404982,0.25811675,0.330705
11.92706,0.059127204,1.3823258999999999,-0.80590576,0.057962384000000006,0.25563836
12.236899000000001,0.3932907,-0.33927754,-0.7782249,0.16282177,0.028344147000000004
11.800704,-0.69317883,-0.6485318,-0.8101644,0.1335526,-0.17446311
12.174468,-1.1474068000000002,2.1621652,-0.89320713,0.06541494,-0.30754447
13.826101999999999,0.8724854,3.398512,-0.99274325,-0.006981317,-0.4092099
13.522192,-0.2920447,5.2756906,-1.0741978,-0.009634216999999999,-0.49012336
11.198907,0.94732815,5.100511599999999,-1.1444647,-0.038920842000000004,-0.57529545
8.528825999999999,-0.3994486,5.299345,-1.2083437,-0.05222025,-0.62214005
8.002476,-2.6498067,4.5861125,-1.2940395,-0.038920842000000004,-0.6035174
9.897601,-3.8947629999999998,4.2796164,-1.3361018999999998,0.0015358897,-0.47521824
12.079591,-3.6112702000000003,2.8323789,-1.2674232,0.10266027,-0.29529226
11.362766,-1.8813157999999999,2.0579793,-1.0944261999999998,0.09307841,-0.12281882
9.471835,-0.1920054,1.8251479,-0.9464396999999999,-0.14006267,-0.04351106
8.237012,1.0677948,1.6490113000000002,-0.8761726999999999,-0.3636219,-0.054681167
7.4962645000000006,1.5215248,1.4416063000000001,-0.8032354,-0.42697734,-0.11323696400000001
6.968113400000001,1.3589296,1.3235818000000001,-0.63769096,-0.45998153,-0.2878397
6.646476299999999,0.8488210999999999,1.1248248,-0.49502772,-0.15814428,-0.35119516
6.7123265,0.24641123,1.0146914,-0.35449383,-0.23321089,-0.36983526
6.9226713,-0.42275855,0.75851184,-0.22886503,-0.32955307,-0.4044277
7.6190777,-1.1902629999999998,0.545696,-0.55784214,-0.29869565,-0.24525367
8.5335,-1.4132878,0.42595720000000004,-0.41463786,0.0020594885999999997,-0.8659450999999999
8.90825,-1.5791963,-0.18034086,0.13257521,-0.41474259999999996,-1.5031473999999998
8.383153,-2.175659,-0.6314371999999999,-0.15379842,0.457189,-0.8893674000000001
8.278948,-2.1819603,-0.17771679,-0.5791352,0.19315559,-0.53059757
8.824252,-1.2233891000000001,0.766834,-0.90650654,0.16495107,-0.4805415
10.139578,-0.6002742,1.346049,-1.1327536,0.45505969999999996,-0.43104395
10.251722000000001,-0.5230372999999999,1.7072573,-1.1790571,0.5897468000000001,-0.28677505
10.413523,-0.98668885,1.1830708,-1.1162428,0.53012633,-0.09087929
10.660059,-1.3821918,0.20030849,-0.9916786,0.45666540000000005,0.024609142999999997
10.589248,-2.4580022999999995,2.990061,-0.85646796,0.31880185,0.07199483
19.570454,-3.42752,9.694765,-0.74467963,0.26183429999999996,0.057613317000000004
20.256142,-11.990277,2.9265764,-0.5865876999999999,0.2921681,0.051225413
9.344789500000001,-1.9300042000000002,1.8191049,-0.46680576,0.29057986,0.12522738
8.904295,4.959799299999999,3.029824,-0.38056904,0.34220672,0.09861110000000001
10.559771000000001,4.9971013,2.1061408999999998,-0.33267722,0.38159879999999996,-0.02274164
11.416224,2.330851,2.5039613,-0.34704128,0.34220672,-0.1031315
10.327064,-0.61936086,2.6545186000000003,-0.36672857,0.29855603,-0.11004301
8.320426,-2.3765897999999996,2.3225577,-0.37472218,0.17453292,-0.07597418
6.9754105,-3.166983,2.1213488999999996,-0.32627186,-0.21511184,-0.052028265
6.5312767,-3.1301217,2.0020316000000005,-0.28103292,-0.4802099,-0.066392325
6.613331,-2.1281006000000002,2.2240505,-0.34224162,-0.4796863,-0.12920672
6.237019999999999,-1.0930966999999998,2.3564307999999996,-0.42369613,-0.37693876,-0.11217231
5.9992849999999995,-1.0625371000000001,2.1318354999999998,-0.41517892,-0.40781364,-0.013159783000000001
6.581134,-1.2221633,1.9183013,-0.39547417,-0.3109304,0.07944739
7.7007008,-1.3970837999999999,1.5695428999999999,-0.62065655,-0.15177383,0.25298548
8.928822,-1.3716766000000002,1.0184455,-0.92568773,-0.08683013,0.5297772
9.704886,-1.2442666,0.52217543,-1.1817275,-0.039985493,0.65488243
9.594151,-1.489749,0.36295143,-1.1402061000000001,0.10587167,0.45685738
9.0193405,-1.435343,-0.37896383,-0.7814188,0.33635986,0.030997047000000003
8.888905000000001,-1.1051444,-0.8938896000000001,-0.58126444,0.24853489,-0.0019896755
9.648231,-0.9569624,-0.812956,-0.44020694,0.3209137,0.20933479
10.355189999999999,-1.2648376000000001,0.5022652,-0.3528881,0.11384783,0.33602825
10.944164,-1.1527123,1.0959411000000001,-0.34330627,-0.09161233,0.24286257
11.715586,-0.8874731,0.8602558000000001,-0.36620498,0.012182398,0.015568336499999998
12.82841,-0.5023514,2.5637686,-0.45882959999999995,0.022828907000000002,-0.15421729
14.799662,2.2529342,2.9881742,-0.5589068,-0.019739674,-0.23408356
13.2864685,0.44312840000000003,4.6533513,-0.6110747,-0.012304571,-0.28199285
11.730276,-0.0028921957,5.357496,-0.66430724,0.0020594885999999997,-0.33096677
9.616158500000001,-1.8730223000000001,6.217704,-0.7239277,-0.041050144,-0.35810664
8.083542999999999,-3.9172491999999997,5.5278764,-0.79951787,-0.10438814,-0.3229732
7.758219199999999,-3.9618292,4.785042,-0.8064294,-0.12248721,-0.25537658
9.45093,-2.7701585,3.676632,-0.68985885,-0.07031932,-0.1680752
11.16489,-1.6567206,2.5522861,-0.49342203,0.0015184365,-0.054157566
10.361952,-0.8341303,1.9044150000000002,-0.3039142,-0.066060714,0.06667158
8.619596000000001,0.33834857,1.7236528000000002,-0.22088887,-0.25237462,0.14917329
7.495412,1.1862024,1.6645926,-0.22354177,-0.44614106,0.16674876
7.035074000000001,1.2594267,1.5473821,-0.27625072,-0.5579294,0.0996583
6.7858477,1.1147499,1.2946215,-0.17137387,-0.4626344,-0.04457571
6.83445,0.48928863,0.9516473,0.023439772,-0.23746950000000003,-0.19469148
7.1614119999999994,-0.52304685,0.77950424,0.19591321,-0.27632052,-0.22502529999999998
7.839181,-1.175122,1.0289897,0.19326031,-0.4828628,-0.22608995
8.223576,-1.68502,1.14937,-0.16072737,-0.65161866,-0.13346533
8.3297825,-1.8361419999999997,0.9321584999999999,-0.13304645,0.012705997,-0.26228809999999997
8.302736999999999,-1.5396729,0.18224663,0.11712904,-0.39662609,-0.83507025
8.183094,-0.9056499,-0.5272511,0.5286253000000001,0.07180285,-0.82761765
8.326047,-0.17716135,-0.13263878,0.23636994,0.2027549,-0.36130062
9.096683500000001,0.011166556999999999,0.74590874,0.009599311,0.050492376,-0.30913273
10.652023,-0.19969557,2.1159859,-0.18627898,0.2719572,-0.37514105
11.900523,-0.48584098,2.3890877,-0.28794440000000004,0.47689375,-0.37461746
10.942066,-1.7434290000000001,0.4968255999999999,-0.34704128,0.45027748,-0.15636405
10.985602,-1.037647,-1.5099847,-0.27783898,0.41462043,0.13002703
10.566206,-0.034802116,-1.7822247,-0.16231562,0.40290925,0.33815753
14.72729,0.2554709,5.8752847,-0.06117379,0.3395538,0.38819614
20.667315,-3.9352152,8.785791,0.015463616999999999,0.23575908,0.36690313
13.245356,-7.525139,1.8515607,0.054314647,0.1473756,0.3605152
8.498641000000001,-0.9834136,3.341482,0.07880162,0.088296205,0.38926077
9.43257,2.6864762000000004,3.5123992,0.10861184,0.07019714,0.34506905
10.180624,3.0924563,2.8989952000000003,0.119258344,0.07819075,0.19442968
10.502539,1.5042098999999998,3.0546854,0.07773697,0.09361946,0.057613317000000004
9.272753,-0.15064317,2.7834988,0.044732787,0.12023573,-0.03286455
8.281668,-1.0863835,2.5542972,0.07721337,0.053162728,-0.08503244
7.692781,-2.2366633,2.180179,0.14960963,-0.20713568,-0.07332128
7.031636,-3.0273627999999997,1.7945596000000001,0.17994344,-0.35086355,-0.062133722
6.4544516,-2.527396,1.7706558000000001,0.11180579,-0.18903661,-0.0993965
6.0266848,-1.3567653999999998,1.6355556999999998,0.006946410500000001,-0.13739231,-0.06054547
6.4457755,-0.61992586,1.5753273,-0.06330309,-0.26462683,0.1033933
7.419659599999999,-0.45679453,1.3973997999999999,-0.052132983,-0.32850587,0.27214918
8.311098,-0.5451789,0.934658,0.038344882000000004,-0.3135833,0.30567697
8.826148,-0.4471794,0.43405920000000003,-0.020717058,-0.09852383,0.35040975
9.048665,-0.29913157,-0.007776366999999999,-0.31403708,-0.14803882,0.48986155
8.735159,-0.35756925,-0.32055488,-0.76384336,-0.315189,0.74324846
8.116689,-1.0165876,-0.67322075,-0.6163979,0.010576695,0.595262
8.186091000000001,-1.539376,-0.6916849,-0.24802874,0.4130147,0.13533282
9.663353,-1.590947,0.23549369,-0.13304645,0.3369009,0.3035651
10.950542,-0.761653,1.1735993999999998,-0.051591933,0.26981044,0.57396895
11.143514999999999,0.27342740000000004,1.1451178999999998,0.03143338,0.056897733,0.62826616
11.378721,0.99496317,-0.024037784,0.09157742599999999,0.023352506000000002,0.31525883
12.108705,-0.6720812,-0.20125659,0.06976081,0.036128316,-0.028605945
13.442293,-1.5232103000000001,1.3420362,-0.06332055,0.02867576,-0.25644124
14.259578,0.45951435,3.0890756,-0.18147933,0.054768432,-0.38313466
13.81892,0.02642241,4.8872075,-0.30232593,0.048380528,-0.43369687
11.876266000000001,0.6349806,5.263202,-0.39069197,0.025481807000000002,-0.45340163
8.703574,-0.72806716,5.8353305,-0.44764206,-0.009634216999999999,-0.4587249
7.1771845999999995,-2.5917711,5.0403023000000005,-0.5370727,-0.08948303,-0.4326322
8.515371,-4.0194529999999995,4.631832,-0.6057514,-0.13952161,-0.31977922
11.193659,-4.2343855,3.4024382000000006,-0.52110296,-0.042114794000000004,-0.13294172
12.541451,-2.634867,2.4984740000000003,-0.35342917,0.043039817,0.051766466
10.694248,-0.7333344,1.5867906999999999,-0.21022491,0.008447394,0.19230038
9.078966000000001,0.9505364,1.3384545,-0.24696408,-0.28485520000000003,0.25883234
7.4970407,1.8784906000000003,1.5243787,-0.33213615,-0.4802099,0.18697712
6.319208000000001,1.8080915000000002,1.1293641,-0.28794440000000004,-0.4088783,0.037384953
6.033637000000001,1.3275465,0.9355678,-0.044680428,-0.17784905,-0.15796974
6.1432056,0.64751667,0.88583547,0.16184439,-0.15601498,-0.3107384
6.586477799999999,-0.40484035,0.42979753,0.2459518,-0.37641516,-0.42252675
7.234042,-1.4359655,0.26598623,0.21666518,-0.52173126,-0.42413247
7.973094000000001,-1.661691,0.3084785,-0.10801843,-0.17306685,-0.2681524
8.529938000000001,-1.3342313000000001,-0.22869416,0.15545648,-0.050631999999999996,-0.8393288000000001
8.49368,-0.5115643,-0.6532627,0.6010041,-0.10864674,-1.0442828000000002
8.274419,0.13826036,-1.141632,0.3108955,0.23734732,-0.5039638
9.013959,0.08732132599999999,-0.39576155,0.08093092,0.2032785,-0.32084388
10.667433,0.081383705,1.3959441000000001,-0.19851375,0.28578022,-0.38898152
12.09657,-0.19327912,2.6042113,-0.412526,0.52319735,-0.4001691
12.040583999999999,-1.3610845,1.0201215000000001,-0.4657411,0.5828178,-0.21863739
11.845916,-1.0577007999999999,-1.0539947,-0.4173082,0.49871036,0.08103564
11.482985000000001,0.6995378000000001,-0.8584937,-0.29326767,0.48008773,0.31632346
12.301141000000001,-1.1124419,3.0335972,-0.15273376,0.45027748,0.37274995
19.793228,-3.9593775,7.050311,-0.018587757,0.33262485,0.33229324
16.837185,-8.03315,6.0078278,0.075607665,0.2054078,0.27321383
8.379380000000001,-2.3346627,1.9501442999999998,0.12829915,0.15856317,0.25776768
9.526893,2.784332,3.3458487999999997,0.14322172,0.17505652,0.25192082
10.5528555,3.6814968999999995,2.5803363,0.11341149,0.17240362,0.18484782
10.224371000000001,2.4944707999999998,2.3745022000000002,0.0596379,0.12449434,0.11351621
8.921312,0.3151344,2.5255666000000003,0.040997785,0.09468411,0.052290063
7.961601700000001,-1.2600684,2.4255082999999997,0.056967545,0.024417156000000002,-0.00038397242
7.4064440000000005,-2.5492407999999998,1.9977506,0.08890707,-0.2438574,-0.014765485
6.8129497,-3.4245129,1.7481598999999999,0.16664404,-0.5052205,-0.03338815
6.3421636,-2.9711277000000003,1.814757,0.20655972,-0.40303144,-0.09407324
6.192928299999999,-1.7135206000000003,1.6730394,0.20762436,-0.23959879999999997,-0.0935322
6.438717400000001,-0.70837724,1.4072733999999998,0.13948672,-0.29122564,0.025673794
7.0175967,-0.5739189,0.96962297,0.023439772,-0.37374482,0.20027652
7.7476077000000005,-0.76307034,0.67603636,0.0596379,-0.36681584,0.35145694
8.500833,-0.47170562,0.5120239999999999,0.055920347999999995,-0.11503465,0.4089481
9.06102,-0.52289367,0.23668119999999998,-0.20544271,-0.17198475,0.50370204
9.075814999999999,-0.7542597,-0.21223160000000002,-0.5908463,-0.4323005999999999,0.7810348000000001
8.491427999999999,-1.05659,-0.6775878000000001,-0.48064622,-0.15283848,0.8321555
8.184579,-1.4905821000000001,-0.48810109999999995,-0.09578366599999999,0.40556216,0.2918365
9.282665,-1.1664742000000001,0.6279321,0.015463616999999999,0.43376666,0.32751104
10.780075,-0.9058318999999999,1.3165236999999999,0.07986627,0.31452578,0.6122964
11.1484375,-1.0227264,0.76044637,0.20497146,0.12288863,0.63465405
11.215675,0.25387156,-0.46527958,0.2454282,0.02867576,0.3040887
11.724003999999999,0.050306965,-1.0050379999999999,0.20975366,0.03345796,-0.041905355
12.498987,-1.2209471,0.37061286,0.10276499,0.09946632,-0.27506390000000003
13.313189000000001,0.39217022,3.3842807,0.042062435,0.2165779,-0.37461746
13.788264000000002,0.9541947000000001,5.716281400000001,-0.07183775,0.19795524,-0.37622318
13.552417000000002,0.5305934,5.407132,-0.12826425,0.18411478,-0.34693655
10.552578,-0.99504936,5.6110225,-0.1399754,0.12981759,-0.31979668
8.118355000000001,-3.2408106,4.989459,-0.23312363,-0.031468287000000005,-0.2851868
8.778302,-3.9680731,4.76155,-0.2741214,-0.13206907,-0.18510962
10.832958,-4.0616293,3.7055347000000003,-0.13943435,-0.041573743999999996,-0.013159783000000001
12.101972,-2.7328856,2.5575726000000003,0.019181168000000002,0.052098077,0.168337
10.773974,-0.59776515,1.5090175,0.13735741,0.015358897,0.29768336
9.363187,1.3465757,1.1741356,0.11126474,-0.28857273,0.3503923
7.313012599999999,2.1459517000000004,1.3458094999999999,0.038344882000000004,-0.51960194,0.25724408
6.0059986,1.8447324,1.0662049999999998,-0.08194321,-0.39451423,0.08529424
5.69685,0.6998156,1.1337694,-0.03190462,-0.2502453,-0.08290314
5.6499809999999995,-0.4236109,0.8910548,0.13257521,-0.20446531,-0.17765707
6.057176999999999,-1.1641662,0.35989640000000006,0.22146483,-0.33222342,-0.24631831
6.74482,-1.441817,0.40291542,0.124581605,-0.50204396,-0.30115655
7.606914999999999,-1.489002,0.40214926,-0.0047647487,-0.067125365,-0.33416075
8.307794,-1.2081046,-0.27515125,0.3933972,-0.027209682000000002,-0.8883201999999999
8.528491,-0.4247218,-0.70062965,0.90868825,0.04783947400000001,-0.7168939999999999
8.609397,0.27420312,-0.87147987,0.81286967,0.17240362,-0.34054863
9.305726,0.13080004,-0.6787658000000001,0.74846697,0.17292722,-0.3330961
11.149251,0.19285774,0.61432344,0.53073716,0.25064674,-0.39858085
12.8612585,0.26645549999999996,1.896179,0.44024184,0.41673225,-0.339484
12.916306500000001,-0.57479995,0.5492874,0.43919465,0.45347145,-0.038187806
12.696107000000001,-0.10311348,-0.9647005,0.50731486,0.3986332,0.23169246
12.381642,0.13441047,-0.54411584,0.5935516,0.3858574,0.36849135
14.502157999999998,-2.7486200000000003,4.633623,0.6702064,0.33581880000000003,0.3785968
18.689281,-4.906323,9.144299,0.7442084,0.25171140000000003,0.38871974
10.559436,-6.2239,3.2554152000000003,0.77030104,0.14791666,0.45633379999999996
7.9134974,-1.729466,3.816185,0.7457965999999999,0.0009948377,0.5351179
9.73175,2.1526747000000004,3.7274082,0.7223743,-0.13473941,0.49357912
11.131592,2.5175223,2.9554120999999998,0.7090749,-0.15016812,0.29768336
11.214345,1.2180933,2.8906443,0.6483898,-0.08789478,0.078906335
9.614463,-0.32520920000000003,2.524839,0.58451074,-0.02560398,-0.039252456
8.302631,-1.3941052999999999,2.1082766,0.55096555,-0.20394172,-0.07810348
7.468539999999999,-2.3051180000000002,1.7271675,0.54086006,-0.39344957,-0.11004301
6.540442,-2.785261,1.6008687,0.43971825,-0.2789909,-0.14730579
5.859665000000001,-2.0158317,1.5257002,0.35667548,-0.15868534,-0.08822639
5.4547669999999995,-1.0424259,1.0985267,0.28373817,-0.21458822,0.10552260000000001
5.678059999999999,-0.70090735,0.93643934,0.15439183,-0.27686158,0.33601078
6.777553999999999,-0.60294616,0.8322724,0.10967649,-0.2582389,0.5484173000000001
8.233822,-0.32076555,0.46596912,0.05644395,0.05900958,0.5718397
9.150754,0.31613040000000003,-0.13247597,-0.2618692,0.0840376,0.7267376
8.955003999999999,0.77558726,-0.5549185000000001,-0.49131018,-0.31147146,1.0482622
8.023563000000001,0.521438,-0.8900396999999999,-0.14634585,0.28792697,0.47017425
8.050187,-0.06929777599999999,-0.8649771999999999,0.17887879999999998,0.5998522,0.051766466
9.4181385,-0.55380756,-0.05594770599999999,0.26192155,0.5423611,0.37220892
11.006949,-0.09003156400000001,1.1534688,0.3933972,0.39491564,0.6665936
11.826735000000001,-0.35298193,1.3422564,0.5126381,0.26768115,0.64156556
12.1769285,-0.27919266,0.35748303,0.5349958,0.0824319,0.30993557
13.097058,-0.06992026400000001,0.47131297,0.49080405,0.0840376,0.0054454273
13.992117000000002,0.56071246,2.4201262000000003,0.45301765,0.19795524,-0.12922418
14.138229999999998,2.6361022000000003,5.4473351999999995,0.36945128,0.25277603,-0.15104079
15.173147,0.8917635,5.0396222999999996,0.30770156,0.17399187,-0.0988729
13.147519,-0.44298476,4.5374620000000006,0.2778913,0.11171853,-0.08183849
8.81071,-2.3801143,4.777208,0.1815317,0.01855285,-0.08449139
6.667967,-3.3115256,4.0959716,0.11819369,-0.09161233,-0.031799898
7.458532300000001,-4.0981264,4.4786706,0.16823229,-0.08522443,0.028867746
9.37689,-3.3914537000000005,3.2912133000000003,0.25019294,-0.11451105,0.09168214
10.826035000000001,-1.6939839,2.1560457000000004,0.30450758,-0.28272587,0.19228293
9.992536999999999,0.36416766,1.4639874,0.35294047,-0.62980205,0.3093945
8.025594,1.5938106,1.8537921000000002,0.33590606,-0.77140063,0.3418751
6.4920983,2.0571365000000004,2.005709,0.113394044,-0.6675884,0.33122858
5.788576,1.5763041000000002,2.0514095,0.08838347,-0.45413467,0.23540999999999998
5.74709,0.36491466,1.4313208,0.21027727,-0.41207224,0.07517133
6.365406500000001,-0.32787156,0.7472687,0.22785273,-0.23746950000000003,0.0043807765
7.4104466,-0.9024608000000001,0.6913401,0.42214277,-0.07670722,-0.57848936
8.597311,-1.2282351,0.47921383,0.82777476,-0.5733756,-1.1310606
8.893455,-1.1671637,-0.60362613,0.90655893,0.24799383,-0.8531867
8.601821000000001,-0.22310129,-1.2272965,0.86131996,0.14791666,-0.6556853
8.197756,0.43121487,-1.3703165000000002,0.80915207,0.052098077,-0.38154644
8.687448,0.5399116,-1.2575399999999999,0.769219,0.26289895,-0.06960373
10.046875,-0.014518439,-0.8995685999999999,0.83576834,0.3438124,0.14011504
11.86801,0.68532586,1.5151466,0.89271843,0.33901274,0.25031513
11.868489,0.42954853,1.5198009,0.9060353000000001,0.2144486,0.29874802
11.0852585,-0.21164744,5.321439,0.9635090000000001,0.089360856,0.3551745
17.55467,-2.8483148,11.069303999999999,1.0604097,0.09255481,0.42704716
17.383157999999998,-10.024465,3.686065,1.1487757,0.10478957,0.5399001
10.718698,-4.2534336999999995,2.3780265,1.1700687,0.07391469,0.60962605
11.094127,2.4689677000000003,4.577532,1.1413232,-0.08628908,0.56704
12.788034,2.6487724999999998,4.067586,1.1115129,-0.21191788,0.3610388
12.062736,1.2240883,3.668597,1.0364463,-0.18210766,0.08794714
9.897926,-0.19628625,3.2096093,0.9155996999999999,-0.08576548,-0.04618141
7.983025,-1.2155745,2.152531,0.83948594,-0.14484487,-0.09407324
6.9423804,-1.9079872,1.606835,0.7931823,-0.22842869,-0.13400638
6.480146400000001,-2.3780646,1.5493261999999999,0.5727996,-0.33063516,-0.116448365
6.161162,-1.8927026000000002,1.7411305000000001,0.34709364,-0.25130996,-0.031799898
5.728932,-1.0959219,1.8163084999999999,0.20069541,-0.3237062,0.06719518
5.5746593,-0.6711139,1.6008399,0.045256387,-0.40196678,0.13746212
5.9059305,-0.7327885000000001,1.2950525,-0.07023205,-0.39025563,0.23647466
7.115031200000001,-0.64089906,0.7707510000000001,-0.024993114,-0.27579692,0.29768336
8.369066,-0.19876663,0.047366887,-0.062255893,-0.08150688,0.37594393
9.065578,0.72993463,-0.38407785,-0.45085344,-0.3061482,0.82735586
8.870307,1.4521791000000002,-0.61881495,-0.3481059,-0.23162265,1.0072819
8.591382000000001,1.3542178999999999,-0.7653496999999999,0.17142624,0.45985934,0.39243728
8.73922,0.6157024999999999,-0.9344761,0.42694244,0.48541096,0.34293973
9.972875,0.038546647999999996,0.6823378999999999,0.51635563,0.29323277,0.6272015000000001
11.22532,0.45345223,0.81693035,0.6595599,0.22563617,0.6479535
11.842985,0.22574449,-0.60102123,0.6883055,0.14791666,0.43237042
12.215601,0.07329131,-0.7734325,0.610586,0.07658505,0.13266248
12.694278,-0.2953583,1.1280138000000002,0.43065998,0.14152876,-0.116448365
13.364194,0.6581852,4.160711,0.29332003,0.24160592,-0.31979668
13.94406,1.2459905,6.6688385,0.17142624,0.24054128,-0.36025342
14.726141,0.12902832,5.3988004,0.06389651,0.1516342,-0.31234413
11.36087,-1.9853966,5.3971434,0.05057964,0.10107201,-0.27295205
7.7478666,-4.042255,5.3105407,-0.0031590459999999996,0.010576695,-0.23088960000000003
8.021725,-4.3732489999999995,4.7180715,0.0010821042,-0.03572689,-0.17126916
9.484630000000001,-3.8471565,3.5623233,0.13416345,0.05368633,-0.030735249
11.14047,-1.5201744,2.4718792,0.27522096,0.023876105,0.14276794
10.763613000000001,0.25874615,1.3338671999999998,0.35187584,-0.14803882,0.27106708
9.594802,1.6033107,0.65059084,0.30822515,-0.40142572,0.31578243
8.077786999999999,2.3958009999999996,1.3232848999999998,0.23636994,-0.6558773,0.277455
6.3542404,2.3904092,1.4564791000000001,0.070266955,-0.5680523000000001,0.17737779999999997
5.9365764,1.2420064,1.333896,-0.0010297442999999999,-0.38173842,0.045361105
6.0520344,-0.39343438,1.1589181,0.10009463,-0.2960253,-0.04298746
6.625388,-1.3482994,0.77248436,0.13255775,-0.46104616,-0.12603022
7.4051895000000005,-1.9714909999999999,0.67654395,0.18898425,-0.49885002,-0.28359854
8.04425,-1.9139631000000001,0.5374791,0.080389865,-0.15177383,-0.38048178
8.19155,-1.2427438,-0.06971915,0.31461304,0.063268185,-0.8952317
8.048128,-0.3766941,-0.728546,0.7681543000000001,-0.09054768,-0.92078334
8.16734,0.58136964,-0.5957923,0.7410144000000001,0.1452463,-0.4922701
8.585598,0.42122626,-0.6412534000000001,0.6345494,0.062203534000000005,-0.35438909999999996
10.297155,0.18974528,0.03439989,0.4759164000000001,0.06487389,-0.34906584
12.496210000000001,0.73724174,1.68072,0.3870093,0.17666222,-0.30702087
12.796759,-0.20557573,0.8810087999999999,0.36091664,0.22828907,-0.09354965
12.370151,-0.8318606,-1.8909116999999998,0.39606756,0.19369663,0.15662585
12.376700999999999,0.20477128,0.19337487,0.44930010000000004,0.18730873,0.2859722
12.669253999999999,-1.4388865,3.2589203999999996,0.53393114,0.16175711,0.31419417
18.389585,-3.7031023999999997,8.985966000000001,0.62016785,0.10533062,0.33442253
12.911738,-6.4845805,4.6538687,0.65210736,0.078173295,0.3983016
8.249624,-2.0530567,3.6293032,0.6164503,-0.015498524,0.4829326
9.462211,1.8550466,3.5833633000000003,0.59302795,-0.096935585,0.46376890000000004
11.434209,2.5107803,3.158546,0.62177354,-0.07777187,0.27213174
11.844308,1.7169203000000002,2.8537161,0.6020688,-0.055955257,0.024609142999999997
10.266921,0.58808297,2.6026409,0.53232545,-0.07564257,-0.13880603
8.715545,-0.5143128,2.2945838,0.4759164000000001,-0.06873106,-0.16168729999999998
7.982364,-1.8418497,1.7522971999999999,0.44397685,-0.16667895,-0.14678219
7.253243400000001,-2.5983984,1.4935222,0.3912679,-0.2454631,-0.13720033
6.523567,-2.3551857000000003,1.4211886,0.31248376,-0.16294394,-0.07812094
5.8750167,-1.3800083,1.082227,0.23636994,-0.23959879999999997,0.07571238
5.6814694,-0.851857,0.8053999,0.20921262,-0.35671040000000004,0.25989696
6.384254,-0.37390727,0.938709,0.21453588,-0.32105333,0.43556437
7.427809700000001,-0.11955685,0.69791937,0.3071605,-0.20233601,0.47493900000000006
8.206797,-0.18511967,-0.079046965,0.21931808,-0.0059166662,0.48719120000000005
8.207533999999999,-0.04879383,-0.62300956,0.103271134,-0.31360075,0.6612529
8.024072,0.20260692,-0.6850864000000001,0.0005410521,-0.32424727,0.86301297
8.014351,0.4996603,-0.62212855,0.16397369,-0.028274333,0.6894749
8.647684,0.12415372599999999,-0.10991301,0.5083795,0.44069564,0.40149555
10.072405999999999,-1.0370054,1.1138976,0.5919459,0.4092797,0.65327674
11.332618,-0.71010107,0.9223614,0.64997804,0.35072392,0.7640004
12.443853,-0.34006283,-0.5024662999999999,0.64997804,0.18676768,0.6293308000000001
12.840783,-0.44537896,-1.6149944,0.58929294,0.14791666,0.30726522
13.513917999999999,-1.8165095000000002,-0.9027673,0.46101126,0.15269886,-0.024888393999999998
14.206695999999999,-1.4246936000000001,2.4237845,0.31674236,0.20167279,-0.2766696
14.125368,1.2691567,4.9097705000000005,0.17833774,0.25864035,-0.37463492
13.538962,0.4726633,6.1898737,0.06496116,0.20647246,-0.35280085
11.461139999999999,0.24782862,5.421689,0.03460988,0.16814502,-0.31873202
8.24427,-1.8504881000000002,5.811733,-0.08728392,0.1340762,-0.33843678
6.9271917,-3.6215367,4.780885700000001,-0.21769492,0.00045378560999999995,-0.30276227
8.884959,-3.6977487,3.8721328,-0.21610667,-0.050631999999999996,-0.19895008
11.182215,-2.5646975,2.7685401,-0.114947386,-0.0021816615,-0.05469862
11.776263,-0.74613863,1.662007,-0.010611602,-0.076183625,0.07836528
10.877222999999999,0.9684163,0.9680907,0.021310471,-0.16561429,0.15608479
8.880533999999999,1.7287285,1.0906738,-0.04574508,-0.42058945,0.20188223
6.8284163,1.9804837,1.0431346,-0.16339773,-0.43710026,0.1624727
5.854015,1.5702037,1.1769513,-0.32096604,-0.2502453,0.037384953
5.7566185,0.47126508,0.9381056999999999,-0.12932889,-0.18743089999999998,-0.16116370000000002
6.0863004,-0.59813863,0.29777166,0.10381218,-0.31998867,-0.30169759999999995
6.3888893,-1.2770768,0.34848082,0.22251202,-0.62128484,-0.5359208000000001
7.2562795,-1.5244265,0.49396214,-0.08941322,-0.22417009,-0.40549234
8.142843,-1.18354,0.08827901,0.21505947,0.23415338,-0.95006996
8.526900999999999,-0.65437365,-0.76791626,0.84960884,-0.10545279,-1.1007093000000001
8.654492999999999,0.33573413,-1.0953186000000001,0.75857246,0.0888198,-0.6200281999999999
8.899402,0.59514105,-1.0726597,0.5860989999999999,0.043039817,-0.43425536
10.007581,-0.0031220390999999997,-1.0951461,0.3236713,0.0845612,-0.38739327
12.162449,0.5454758000000001,0.8790072,0.13042845,0.2075371,-0.36397097
13.290118,0.90636814,1.9292095,0.07187266,0.3310366,-0.18245672
12.9739685,0.06562028,0.16885826,0.114458695,0.30974358,0.059725165
13.352578,-0.17317739,-0.24264756,0.21933553,0.29749137,0.20825268
11.664177,-2.5823188,3.3499382000000004,0.36678094,0.26715755,0.26734954
18.588054999999997,-5.3509736,8.521614999999999,0.51104987,0.20380209999999999,0.3051359
14.314712,-8.600413,7.3444720000000006,0.6026098000000001,0.1516342,0.33122858
7.979405,-3.072412,3.1948516,0.5664117,0.035063665,0.365821
9.027481,2.3822498,2.9947631,0.5328665,-0.08841838,0.35358626
10.976744,3.6657717000000005,2.5116994,0.55470055,-0.08628908,0.20453514
11.643241999999999,2.384778,2.465348,0.50253266,-0.020821778,-0.011571533
10.176105,0.41299020000000003,2.3578193,0.4365242999999999,-0.013369222,-0.13987069
8.475934,-0.9041463,2.1578748,0.4455651,-0.105993845,-0.16168729999999998
7.463512400000001,-2.3418069999999997,1.895001,0.53925437,-0.297631,-0.145735
6.547452,-3.220565,1.8315546999999999,0.5791875,-0.29550170000000003,-0.16861627
5.869951,-3.1082006,1.846054,0.45354125,-0.10758209,-0.14041173
5.676680999999999,-1.8837867,1.4321921999999998,0.3156777,-0.181043,-0.01850049
5.5891585,-0.91468084,0.9437846999999999,0.17140879,-0.28166124,0.13213888
6.268431700000001,-0.40336555,1.1953578999999999,0.09690068,-0.33435273,0.30194196
7.4605820000000005,-0.009490616,0.9239224,0.13255775,-0.15016812,0.33920473
8.5319195,0.19238847,0.07070556,-0.09684832,0.1537635,0.32110570000000005
8.951067,0.15920484,-0.36318123,-0.53496087,-0.2438574,0.6687229
8.278671000000001,-0.20656215,-0.38339788,-0.67123616,-0.24226916,0.9002931999999999
7.798566,-0.52666694,-0.1604211,-0.4434009,0.29483846,0.47122145
8.733684,-0.80705667,-0.2006341,-0.23898794,0.59613466,0.24499187
10.544878,-1.1945343000000002,0.12369404,-0.22992967,0.38533378,0.49837875
11.824589,-0.63159996,0.25235844,-0.11601204,0.19209094,0.591527
12.158177,0.6381313,-0.44688255,-0.06544985,0.0776497,0.3860494
12.0873375,1.0745368999999998,-1.0105829,-0.05906194,0.1558928,-0.0009250244999999999
12.704592,-0.49247772,0.13338578,-0.16179202,0.12662363,-0.22930136
13.661276999999998,-0.14268485,3.7599404,-0.30232593,0.13939945,-0.36503562
14.128136999999999,1.6387258000000002,4.785243,-0.3992266,0.146852,-0.4150742
13.411743,0.67156404,5.737992,-0.52485543,0.16814502,-0.40336305
10.737171,0.21863851,4.379464,-0.59564596,0.15749851,-0.39591047
7.6637435,-2.2542462000000003,5.226964,-0.6579193,0.07391469,-0.39538687
7.9448232999999995,-3.6180315000000003,4.995396599999999,-0.72553337,-0.02666863,-0.34641296
10.538434,-4.3859,4.0917387000000005,-0.684012,-0.044244096,-0.23462461
13.057373,-2.9387581000000003,2.665522,-0.49504519,0.03239331,-0.062151175
11.949392999999999,-0.7690846,1.8582357,-0.29061478,-0.029338984,0.14597934
9.537034,1.0233297,1.1476941,-0.17830284,-0.17093755,0.27319640000000006
7.967855499999999,1.7440227,1.0775536000000001,-0.16872098,-0.40303144,0.31897637
6.4966855,1.9550764999999999,1.1401284,-0.20970131,-0.43603559999999997,0.27000242
5.9245285999999995,1.2376395,0.5888012,-0.17617354,-0.23162265,0.10658725
5.812193,0.5467016,0.5792531999999999,-0.01754056,-0.13100441,-0.13507102
6.0347195,-0.27951825,0.76530176,0.17620844,-0.15123278,-0.297439
6.4951434,-1.0929626000000001,0.6996815,0.19750145,-0.47116908,-0.41880920000000005
7.225346000000001,-1.8506892,0.6541055,-0.21502456,-0.5446300000000001,-0.39591047
7.9447756,-1.8133683999999997,0.26320896,-0.037245326,0.26022860000000003,-0.60566413
8.069073,-1.406268,-0.7446925,0.14268066,-0.39503783,-1.3152453000000002
7.9904375,-0.7368204,-1.2755252000000001,0.5727996,0.36084682,-0.9287770000000001
8.158846,-0.2810793,-1.0241149999999999,0.35135224,0.36775833,-0.45446628
9.308895,-0.36646609999999996,-0.28914294,0.13735741,0.18783234,-0.38632864
11.565516,-0.19817287,1.6106273000000002,-0.075031705,0.25970498,-0.40549234
13.036361999999999,-0.23059992,2.295302,-0.12507029,0.42259657,-0.29157472
12.643166,-1.1760415000000002,0.34446818,-0.091001466,0.44547784,-0.016894788
12.424403,-0.34903628,-1.3732662,0.023422317999999998,0.3917217,0.2380629
11.246762,0.19141163,-0.9728024,0.17301449,0.37042868,0.38124973
15.467663,-1.4761403,8.415216000000001,0.3284535,0.31080824,0.4302411
20.499079000000002,-6.475617,9.719864999999999,0.45355870000000004,0.2660929,0.43928190000000006
9.872989,-6.6923202999999996,0.62572944,0.49399799999999994,0.14418165,0.47708574
7.766235000000001,0.8507269000000001,3.4797997000000005,0.500927,0.047298424000000006,0.5218010999999999
9.933236,3.1019661,3.2029247000000005,0.5318018,0.048904125,0.45579273
11.641586,2.3229597,2.643601,0.5046619999999999,0.027070057,0.24659757
11.176899,0.6894726999999999,2.3626270000000003,0.44930010000000004,-0.018692477,0.03577925
9.047028,-0.49070600000000003,2.4517295,0.40352009999999994,-0.029862582999999998,-0.09567895
7.5957584,-1.7096898999999997,2.2143302000000005,0.36997488,-0.15603243,-0.10580186
6.7399554,-2.959511,1.9396672,0.317807,-0.32957053,-0.12123057
6.210856,-3.3364157999999997,1.9723243000000001,0.20549506,-0.3497989,-0.19575612
5.8231583,-2.4966447,1.8903657999999999,0.03460988,-0.21724114,-0.19629718
5.6129093,-1.2880038999999999,1.4278636,-0.05160938599999999,-0.22949335,-0.05735152
6.3122077,-0.574436,1.5606651000000002,-0.07716101,-0.32477087,0.10552260000000001
7.502959,-0.39997533,1.3348728,-0.018064158,-0.20978858,0.2231578
8.546266000000001,-0.35217750000000003,0.6457449000000001,-0.21183062,0.13194689,0.40095448
9.115377,-0.05943366,-0.07055233400000001,-0.63929665,-0.07192502,0.75974184
8.872211,0.07227616,-0.7045465,-0.7596022,-0.1762608,0.97373664
8.145371,0.16429970000000002,-1.2608441000000001,-0.37100464,0.26342255,0.49677306
8.044259,0.020590134,-1.2913748999999999,-0.094719015,0.5572661999999999,0.07145378
9.132567,-0.1279653,-0.95878196,-0.07983136,0.40502109999999997,0.32323498
10.570056,-0.50697696,0.6955347,-0.0084823,0.24054128,0.61336106
11.414806,-0.26817933,1.4959833999999999,0.025569074,0.039845865,0.6186843000000001
11.884138,0.40268558,0.80954665,0.035133477,0.05103342599999999,0.29981264
12.253696000000001,-0.37993109999999997,1.3087663999999999,0.0010821042,0.014835299,-0.0344528
13.398805,-0.84646523,3.427654,-0.08248426,0.03932227,-0.27295205
14.358507000000001,1.5811882,4.4129830000000005,-0.103777274,0.08136725,-0.38632864
14.036707,-0.48703808,5.386255,-0.19214329,0.05581563,-0.41933279999999995
11.598327000000001,-0.93318325,4.470070400000001,-0.30925488,0.06646214,-0.43903756
8.543871000000001,-2.930752,5.277347,-0.41891393,0.029199357999999998,-0.4539427
7.7154875,-3.789418,4.3267155,-0.5062153,-0.06234316,-0.39751620000000004
9.708909,-3.6751379999999996,4.0267506,-0.4849223,-0.06660176,-0.26975808
12.2385845,-2.751139,2.7975001,-0.33745942,0.008447394,-0.0919614
11.898378,-1.5411858999999999,2.1727380000000003,-0.18202038,0.049968775,0.08155923
9.842303999999999,0.06766014,1.7009366999999997,-0.09313077,-0.042638395,0.20718804
8.489225999999999,1.3945842,1.5447868,-0.11920599,-0.26940903,0.27213174
6.857549000000001,1.8330773999999999,1.7658386000000001,-0.16339773,-0.46849874,0.24286257
5.8876386,1.3502052,1.2705454,-0.1969255,-0.37535050000000003,0.09646435
5.695911,1.0706583,0.80334085,-0.0643852,-0.16933185,-0.12016592
5.9739165000000005,0.34770513,0.89459825,0.13203415,-0.1895602,-0.26867598
6.490221,-0.766834,0.87551165,0.27841493,-0.42964769999999997,-0.44329616
7.291809599999999,-1.4722807,0.84526813,0.13255775,-0.5967979,-0.5188864000000001
8.090380999999999,-1.7760189,0.74283457,-0.03403392,0.13194689,-0.43636720000000007
8.653152,-1.4901416,-0.06676950000000001,0.15704472,-0.054349552999999995,-1.0895393
8.586603,-1.0434219,-0.9543384,0.7223743,0.143117,-0.90055496
8.484552,-0.16554467,-0.7950856,0.41894883,0.25277603,-0.30115655
8.895571,-0.12771629,-0.15193604,0.21294762,0.024940755,-0.24792401
10.447674000000001,-0.21389797,0.78530777,-0.04574508,0.111177474,-0.44488442
12.212067,0.31264445,2.2136118,-0.1421047,0.3917217,-0.47417104
12.055112,-0.6167655,0.9927604999999999,-0.16924457,0.43537238,-0.19523253
12.749862,-1.2462681999999998,-1.1329746,-0.09419542,0.3773402,0.08794714
12.186075,-0.60974574,-1.420001,0.012252212,0.36137040000000004,0.24712117
14.449487,-2.8048646,5.8167515,0.119240895,0.29749137,0.27426103
20.749159,-5.013276599999999,10.391468,0.23635249,0.2080607,0.2918365
11.051395,-6.245878,1.5491443,0.2523397,0.11863003,0.34985125
7.333708000000001,0.16028702,3.4267540000000003,0.23849924,-0.006981317,0.4132067
9.273241,3.1884062,3.1079228,0.25286329999999996,-0.041050144,0.3530452
10.950916000000001,2.698026,2.5200120999999998,0.22678809,0.008447394,0.17366026
10.736233,1.2170876,2.394891,0.17194983,0.038257618,-0.0025307273
9.214439,-0.06596504,2.3731612999999996,0.15013322,0.05368633,-0.11910127
7.860585,-1.2337226000000001,2.1789534,0.16290903,-0.02295108,-0.10899581
7.152036,-2.4525723,1.9043957999999999,0.19750145,-0.21617648,-0.06534512
6.4246583,-3.25802,1.9411613,0.21399482,-0.27420866,-0.096761055
5.9721923,-2.6581001,1.8890060000000002,0.15917403,-0.22310543,-0.0898321
5.804857,-1.5090270000000001,1.3895372,0.007993608000000001,-0.14219198,0.0027750734999999996
6.249958,-0.5656062,1.2586223,-0.046286132,-0.2417281,0.058136917999999996
7.2791586,-0.21106325,1.157022,-0.02019346,-0.17784905,0.103934355
8.453667999999999,-0.19087534,0.80512214,-0.11707669,0.097337015,0.12627457
9.433796000000001,-0.113983154,0.27240267,-0.5195147,-0.08789478,0.36636207
9.231716,-0.37235585,-0.03923618,-0.9182351999999999,-0.25930357,0.74590135
8.291072,-0.74260473,-0.40040627,-0.8133583000000001,0.06593854,0.76134753
7.940044400000001,-1.0255802,-0.3113803,-0.52909654,0.43537238,0.3860494
8.827115,-0.9914293,-0.034237083,-0.50089204,0.27300440000000004,0.38392007
9.965645,-0.91170245,0.18210298,-0.48705158,0.17612118,0.46324529999999997
11.425408000000001,-0.25900474,0.7094594,-0.43807763,0.04038692,0.44727552
12.14546,0.8402403,-0.037569813,-0.3997502,0.04038692,0.20879374
11.960942999999999,0.34893095,-0.12130941,-0.4284958,0.048363075,-0.07333873
12.249426,-0.7387453,1.9893421999999998,-0.53122586,0.021223204,-0.30435053
13.429689999999999,0.61632496,3.7910267999999996,-0.6259798000000001,0.005253441,-0.4273264
13.950582500000001,0.8898482,5.040197,-0.6925292,-0.010175269,-0.47469464
12.059996,0.51148766,4.647901999999999,-0.72340405,0.028134707000000002,-0.5172806999999999
9.080986,-1.2463831,5.3715544,-0.78941244,0.06487389,-0.54124403
8.056393,-3.6065872000000003,4.5702724,-0.8815134,0.021746803,-0.52686256
9.27689,-4.152283000000001,4.1983,-0.94431037,0.00418879,-0.42678535
11.620152000000001,-3.2856205000000003,3.1961827,-0.85542077,0.07391469,-0.24047147
12.020999,-1.7453156000000003,2.3438087000000003,-0.6499431999999999,0.15908676,-0.029670598
10.574603999999999,-0.40996397,1.7808168000000002,-0.47640508,0.10000736,0.118822016
9.246321,0.7439551,1.476418,-0.38484509999999994,-0.12674580000000002,0.17844246
7.986138,1.3679415000000001,1.2448700000000001,-0.37526324,-0.30508354,0.13639748
7.0175967,1.2655368,1.149619,-0.33745942,-0.44933500000000004,-0.010506882
6.4013867,0.6295696999999999,0.95084286,-0.18414968,-0.27420866,-0.18777998
6.0568610000000005,0.2422166,0.8448276,-0.015934857,-0.10173524,-0.33787829999999996
6.330547,-0.36383244,0.6033005,0.20017181,-0.21511184,-0.42146212
7.037679,-0.9061383,0.44094490000000003,0.16556193,-0.51694906,-0.45233697
7.918237700000001,-1.3524079,0.64756453,-0.3220307,-0.35351643,-0.20001473
8.745847,-1.7442813000000001,0.38171238,-0.036180675,0.32623693,-0.6285454
8.794046,-1.796858,-0.49292782,0.2778913,-0.4578522,-1.351967
8.362927,-1.5777596999999999,-1.0605452,0.37742746,0.33635986,-0.9782745
8.475991,-0.68927157,-0.38499722,0.1229759,0.22244221,-0.5492201999999999
9.409385,-0.5908793999999999,0.42651266,-0.16817993,0.12608258,-0.39271653
11.099155,-0.43146387,1.8879907999999999,-0.3725929,0.23574162,-0.30967376
11.862408,-0.7216315,1.529914,-0.43168974,0.27567476,-0.18245672
11.516110000000001,-1.2479056999999998,0.29577968,-0.4040088,0.37042868,-0.03286455
11.261932,-0.51247406,-1.6481493000000003,-0.27944466,0.4422839,0.13479178
9.956766,-0.31399477,1.0823132,-0.11229448,0.39704496,0.21038198
16.499010000000002,-0.88451385,8.208789,0.03673918,0.29164450000000003,0.21357594
22.199957,-8.943942,10.60096,0.10754719,0.20860176,0.24764477
9.649188,-6.5735396999999995,0.73982745,0.11606439,0.07391469,0.33922220000000003
7.6967454,2.2643976,2.8962944,0.13629276,-0.010175269,0.38711402
9.13973,4.787656299999999,2.8683016,0.16929694,0.028134707000000002,0.2817136
10.315859,3.2588532000000003,2.4735549999999997,0.1272345,0.051557027000000005,0.09913469999999999
10.680361999999999,0.42697236,2.2102218,0.054838244,0.06965609,-0.05148721
9.628464,-1.5067382,2.0362494,0.020245818,0.13194689,-0.09780825
8.2952,-2.5638068,2.0033147000000002,0.028221974,0.04251622,-0.10206685
7.426286999999999,-3.408692,1.9014941000000003,0.07293731,-0.20074777,-0.13613568
6.844955400000001,-3.4233828,1.9612247,0.07241371,-0.26302109999999995,-0.22556636
6.379255000000001,-2.4336677000000004,1.7980933999999997,0.07080801,-0.12142256,-0.24633577
6.114954,-1.0646057,1.4476588,0.062290803,-0.091088735,-0.15582299
6.570034,-0.24479276,1.533898,-0.015934857,-0.13632767,-0.062674776
7.4830008,-0.09265561,1.2359923000000002,-0.13836971,-0.10758209,0.06452482
8.377676,-0.07620265,0.6958125,-0.47534043,0.007906342,0.3738146
9.067665,-0.06831136,0.2614085,-0.9145002,-0.09428269,0.7773173000000001
9.244492,-0.17186537,-0.24326047,-1.2307013999999998,0.008447394,0.8891056
8.743271,-0.71897876,-0.33506376,-0.9347285,0.27406904,0.5329712
8.27214,-1.2510375,-0.37122577,-0.6520725,0.42205550000000003,0.112975165
8.795397,-1.1683705,0.023060951,-0.5913874,0.3209137,0.16249016
10.11283,-0.6417227,0.93220633,-0.5322905,0.30494392,0.32058206
11.265897,0.06432741,1.0418512,-0.46202356,0.102136664,0.3525216
11.696833999999999,0.58079505,0.2800737,-0.45085344,0.00045378560999999995,0.20827013
11.5038805,0.5496704000000001,0.63506675,-0.50302136,0.06965609,-0.030735249
12.610777,0.56302047,2.2618406,-0.60681605,0.0824319,-0.21865484
14.718154,2.2128457999999998,2.8805504,-0.6887941999999999,0.0840376,-0.33896038
14.049567999999999,-0.31297959999999997,3.2023695,-0.7468264,0.09255481,-0.44008476
10.979579,-0.6911965,4.4233356,-0.8085760999999999,0.0819083,-0.5300564999999999
8.593097,-1.9013696,5.504173799999999,-0.92781705,0.102136664,-0.59393555
7.4422994000000005,-3.9909043,4.6527095,-1.0348057,0.050492376,-0.58754766
8.8120985,-4.311622,4.285133,-1.0449111,0.00045378560999999995,-0.47095963
10.893550999999999,-2.8445895,3.1262814999999997,-0.9246056,0.06859144,-0.28625146
11.742947000000001,-1.3004538,2.0728998,-0.7239277,0.13140585,-0.07171558
10.36833,-0.347437,1.65628,-0.5424134,0.027611108,0.08316494
9.002811,0.76459306,1.5997385,-0.40399137,-0.17732546,0.14491469
7.803028599999999,1.4928422,1.6415701,-0.34278268,-0.3625747,0.11616912
7.1905537,1.2337513,1.6146784,-0.31883675,-0.44933500000000004,0.021956242999999997
6.936941,0.7410916,1.257655,-0.24057618,-0.41207224,-0.14678219
7.053960000000001,0.2835884,0.8030056999999999,-0.19746655,-0.28112018,-0.25324726
7.3078127,-0.58702,0.7409671,-0.04626868,-0.25130996,-0.28677505
7.776482000000001,-1.3771545,0.93097097,0.06709046,-0.37480944,-0.32138494
8.159678,-1.5918665,0.90757483,-0.22727677,-0.5089555,-0.28998646
8.263999,-1.6843496999999998,0.62653387,-0.30497882,0.08084365,-0.45659557
8.2925,-1.7619696,-0.026987443,0.11341149,-0.5989272,-1.3705896
8.408857000000001,-1.5597267,-0.67861253,0.53979546,0.37095228,-0.925042
8.529305,-1.3233039,-0.6993463000000001,0.18687241,0.23095942,-0.3421369
9.251923,-0.5013746,0.38977602,-0.12027064,0.060091686,-0.20479694
10.505298,-0.08522401,1.3769149,-0.39920917,0.26663396,-0.20214403
11.117025,-0.26824638,1.4962227,-0.46361179999999996,0.38107517,-0.18350391
11.034924,-0.85541,0.40485948,-0.48490483,0.3837281,-0.08874999
11.508382000000001,-0.2624141,-1.0190584999999999,-0.36568138,0.37468728,0.062412973
11.605107,-0.29570305,-0.93935066,-0.18682005,0.3837281,0.1704663
16.699901999999998,-2.37931,8.5253315,-0.04839798,0.28099802,0.24179791
23.060349,-8.912856,8.836356,0.006405358000000001,0.15643387,0.2833193
8.273863,-6.469966400000001,-0.12985192,0.010663961999999999,-0.0016406095,0.34932765
7.400142,1.8669601999999998,3.914175,0.04579744,-0.07298967,0.39723694
8.712452,5.137239,3.0153725,0.08838347,-0.09480628,0.32696998
9.661217,4.3117943,2.3639772,0.06070255,-0.06871361,0.17207201
10.047641,1.4039311,2.4180577000000003,0.0048171086,-0.006981317,0.038990654
9.201779,-1.3303621,2.2685156,0.0005585053599999999,0.11543608,-0.0137008345
8.142019,-2.6613467,2.4480424,0.018657569,0.09361946,-0.028605945
7.3476996,-3.5442996,2.193759,0.12512265,-0.23108159,-0.044034656
6.6475296,-3.5085015,2.0867383000000004,0.20284216,-0.45146433,-0.10845476
6.1584900000000005,-2.3805451,1.9480087,0.15173893,-0.3524518,-0.18617427
6.0513544,-1.1685811000000002,1.8970697,0.016528267,-0.12835151,-0.14571753
6.6953176999999995,-0.30214825,1.9099026000000001,-0.08513716,-0.21724114,-0.019024088999999998
7.7720766,-0.13718776,1.4228931999999999,-0.16338027,-0.36255723,0.13800319
8.983657000000001,-0.020168755,0.8453543,-0.1953198,-0.26035076,0.25137976
