accx,accy,accz,gyrx,gyry,gyrz
11.606534,-17.2596,1.6761807,0.11211995,0.16435766,-4.404007
11.151539999999999,-18.185312,1.1148744,0.050911255,0.04511676,-4.1857533
10.977367,-18.035435,1.4371147,0.11637855,-0.20666444,-3.7194362
10.500509,-17.755285,2.1264917999999997,0.16589354,-0.42331216,-3.1024623
9.292146,-17.338062,3.1464121,0.08710938,-0.46856853,-2.5738719
8.478434,-16.903437,3.5333532999999995,-0.07311184,-0.22102849,-2.0809386
8.139548,-17.63254,3.3812737,-0.3190462,0.17605136,-1.5012448999999999
7.1548419999999995,-17.099885999999998,2.2241367999999997,-0.6661224,0.42359140000000006,-0.7421489
6.4022584,-16.207645,0.8534275,-0.8817054,0.50237554,-0.04373795
5.839544,-15.092234,-0.13006261,-0.86254174,0.48427650000000005,0.6115459
5.3913400000000005,-14.430975,-0.11217314,-0.76354665,0.406557,1.2705648
3.9032958,-13.96195,0.22232558,-0.69219756,0.2175902,1.9934627
1.7565012999999998,-12.493825,0.62978995,-0.5639159,0.12601277,2.6530051
0.46153507,-11.097163,0.40364325,-0.44572219999999996,0.047769662000000004,3.337593
0.22156900000000002,-10.194989,0.10273041,-0.41751766,0.010506882,3.9194162000000006
0.36955938,-10.140315,-0.27621427,-0.48300242,-0.02300344,4.341558999999999
-0.61922675,-9.9812155,-0.72528034,-0.4728795,0.05682792,4.7163157
-1.5765723,-9.472428,-1.2692908,-0.34353316,0.09833185,5.0617867
-1.1014382,-9.702856,-0.7061555,-0.16095427,0.10046115,5.3119793
-0.27664524,-10.106902,-0.21635923,-0.04543092,-0.026214845,5.4344144
-0.43357077,-10.319977,-0.24647827,0.14086552,-0.15182619,5.471677
0.21843739,-10.833974000000001,-0.26083392,0.48795915,-0.26522022,5.448254599999999
1.3404559999999999,-11.779961,-0.25124753,0.75091046,-0.26150268,5.2896220000000005
2.689177,-12.586642999999999,-0.50308883,0.7078008000000001,-0.10019935,5.0867968
4.450984,-13.571638,-0.8945408000000001,0.30962140000000005,0.12655382,4.809464
6.1241765,-14.44669,-0.90456766,-0.09386381,0.37248817,4.508692
6.7136190000000004,-14.909929,-0.42918462,-0.31585222,0.7679971999999999,4.216977
7.2306232,-14.989369,0.16591819,-0.7081673,1.1922693000000002,3.9289980000000004
7.725208,-14.696357999999998,0.22866543,-1.1484092,1.7006313999999998,3.763436
8.171275999999999,-14.148765,0.16428055,-1.1739608,1.9955397000000001,3.6372836000000004
8.467191,-13.7671,0.8687313,-0.73319536,2.0051215,3.1363566
9.084799,-13.578101,1.093451,-0.12315043,1.8204133999999998,2.0844817
9.899038000000001,-13.767072,0.58204955,0.5097583,1.5238993,0.9564928
10.192461,-13.778746,-0.48350424,0.84992296,1.1363663999999998,0.10848966
10.602665,-13.853981,-1.1505768,0.76262164,0.85371035,-0.40571925
11.242942,-13.836082000000001,-0.39889315,0.38308233,0.6162932,-0.83103853
11.900398,-13.636866,0.03149812,0.053040557,0.27986354,-1.2132481000000002
12.378185,-13.308064000000002,-0.22484426,-0.19874065,-0.2785371,-1.6215503999999998
12.826475,-12.785736,0.30709946,-0.18863519,-0.8396081,-2.1240656
14.091372,-11.527439,2.188875,0.07485717,-1.2494986000000001,-2.7777612
16.189869,-9.54549,3.284615,0.3644422,-1.488504,-3.425069
17.615195999999997,-7.6012554,3.255626,0.5656611999999999,-1.6721650000000001,-4.0452194
16.803331,-6.864224,2.216686,0.6220876999999999,-1.8446384999999998,-4.4231877
14.609525,-6.903949000000001,0.008073248,0.47038367,-1.9968661,-4.5573163
13.006635000000001,-7.056497599999999,-1.7105997,0.19196877,-1.9622737000000001,-4.5786095
12.958684,-8.315358999999999,-2.3311384,-0.005497787,-1.6913288,-4.647812
13.083374000000001,-9.441132000000001,-1.9625462,0.050911255,-1.1275874,-4.807509400000001
13.057611999999999,-9.68967,-0.9022405000000001,0.32824406,-0.55641097,-4.968271700000001
13.110965,-9.536584,0.81553215,0.5757667,-0.004921828400000001,-5.092853
12.854517,-9.860252000000001,2.051668,0.6604151,0.4784122,-5.124251999999999
12.543059,-11.045611,2.2978398999999996,0.6518979,0.7797084,-5.035344599999999
11.933342999999999,-13.233146,1.8585421000000002,0.5560793,0.8318763000000001,-4.862871
11.160227,-15.403912,1.3070618,0.50125855,0.65727353,-4.607355
10.411694,-16.537020000000002,0.9015318999999999,0.4554611,0.28251645,-4.276266000000001
10.281056,-16.987513,0.9990429,0.37615335,-0.06719518,-3.9451422999999997
10.639861,-16.6117,2.023474,0.3255737,-0.31951743,-3.5852902
10.560996000000001,-16.408708999999998,2.9329352,0.32559118,-0.48453832,-3.2275677000000003
10.014074,-16.12627,3.3028681000000004,0.28832838,-0.5723807,-2.8288646
9.23683,-16.243585999999997,2.4573321,0.19835667,-0.51063097,-2.355095
8.331266000000001,-16.381512,1.3769723999999999,0.0024609142000000003,-0.3349636,-1.8041293999999999
7.3624196,-16.288347,0.48640600000000006,-0.2626197,-0.10445795,-1.1440458
6.656944,-16.072065,-0.10995132,-0.34566244,0.08503244,-0.38388517
5.8194904,-15.584270499999999,-0.10319009400000001,-0.3424685,0.08555604,0.43320817
4.869193599999999,-14.431041,-0.05866752,-0.36908478,-0.08051204,1.3019631999999999
3.926012,-13.078413000000001,0.06277597,-0.35046209999999994,-0.2375393,2.1563542
2.9663584,-12.029198,0.5471517,-0.22003366,-0.32696998,2.9415255
2.1884537,-10.932508,0.7660488,-0.120480075,-0.30141836,3.5121784
1.0224295,-9.939413,0.5390688,-0.20671679,-0.17153096,3.9369739999999998
0.12004527400000001,-9.385663000000001,0.2861933,-0.29829422,0.004118977,4.2872443
-0.5751255999999999,-9.227541,-0.29966784,-0.15721926,0.20692624,4.800406
-1.577051,-8.942601,-0.45119209999999993,0.01150172,0.39004618,5.2805634
-1.9539272,-9.1273,-0.036008794,0.005131268,0.5327094,5.635092299999999
-2.200348,-9.325368,-0.48013320000000004,-0.10026917,0.59658843,5.825124
-1.8691915000000001,-9.855319,-0.7604272,-0.07311184,0.5859419,5.8842206
-0.7914081000000001,-10.396965,-0.54391474,0.1115789,0.5018345000000001,5.8155417
1.2321903,-11.127061999999999,-0.19306841,0.03333579,0.4092099,5.566413400000001
3.3193498,-12.161645,-0.5616606,-0.36802012,0.37248817,5.241695
4.804751,-13.19796,-0.86720854,-0.7699170999999999,0.3586477,4.910065
5.6852236,-14.342254999999998,-0.46534659999999994,-0.9200503000000001,0.36184165,4.6183505
6.0254874,-15.089456,0.26235664,-0.9727418,0.32616714,4.333024
6.9215894,-15.57116,-0.15800774,-0.8199731,0.293704,4.0524974
7.84894,-15.631809,-0.6917615,-0.41327652,0.4198564,3.4653337
8.682706,-15.452762,-0.7246387,0.042917646,0.82177085,2.3085818
9.485807000000001,-15.097701999999998,0.08441955599999999,0.30108675,1.3988116000000002,1.0097079
10.407595,-14.818107999999999,0.05227021,0.22336724,1.8880099,0.22453661
11.119956,-14.676016,-1.005172,0.02427753,2.0312142,0.13351768
11.650253,-14.391326000000001,-1.6418381999999998,-0.17640042,1.6516575,0.3182259
12.079552,-14.175962,-0.87545425,-0.25197318,0.7749262,0.17928022
12.834214,-13.702764000000002,0.14171758,-0.21525146,-0.351998,-0.47439793
13.518438,-12.897287,0.7773111,-0.13166764,-1.4571055,-1.2191125
14.487926999999999,-11.6218195,2.1110057999999996,-0.11676253,-2.1581695,-1.8062761999999999
16.302204,-9.594733999999999,2.8985833999999997,-0.13912019,-2.3152142,-2.2342484000000002
17.493704,-7.328489,2.7893407000000003,-0.07737044,-1.9761142,-2.7367635
16.34826,-6.895282000000001,1.1350143999999998,0.1200961,-1.4453943999999999,-3.3462849
13.42044,-7.733194999999999,-0.64744,0.32824406,-0.96576047,-3.9291725
10.847525,-8.579439,-1.5370106000000001,0.45706683,-0.77679366,-4.3438625
10.1325865,-8.161038000000001,-1.8172278000000002,0.3564486,-0.91413367,-4.4945197
11.773611,-7.188236,-1.2179878999999998,-0.04277802,-1.2042422,-4.4668384
13.955801999999998,-7.7887692,-0.7921264,-0.23973842,-1.3767156999999999,-4.499301999999999
14.454973,-9.113404,-0.0645381,0.10412634,-1.2558866000000002,-4.590338
13.891646,-10.234897,0.58645487,0.7679449,-1.0142108,-4.655282
12.832815,-10.036512,1.7809221999999998,1.333798,-0.5180835,-4.598838
12.371184,-9.600462,2.8898685,1.5861204,0.07970919,-4.4886550000000005
12.145928,-10.352413,3.444586,1.5334288,0.5540024,-4.3140526
11.673017,-12.478906,2.8773994,1.2337208999999998,0.7131764,-4.1032515
11.301341,-15.28558,1.8812393,0.87067497,0.55667275,-3.8866038
10.359825,-17.354467,0.47892654,0.48952994,0.2314132,-3.6901672
9.496141,-17.316467000000003,0.21652202,0.21272072,-0.08264134,-3.4389095000000003
9.358504,-16.257683,2.33563,0.108926,-0.24233897,-3.1493244
8.710842999999999,-14.970445999999999,4.4816394,0.098262034,-0.3418751,-2.7421043
7.9635553,-14.181087,5.290840599999999,0.12116075,-0.36210346,-2.3162439999999997
7.270175500000001,-14.199435000000001,3.7521449999999996,0.15470599,-0.34880406,-1.9244523999999998
6.9735913,-14.126125,2.0221139999999997,0.1200961,-0.33389893,-1.4213961000000002
6.553696,-14.19006,-0.08430462,-0.047577675,-0.3546509,-0.8283855999999999
5.938290599999999,-13.810357999999999,-1.4522365,-0.21418679999999998,-0.33709288,-0.2939309
5.6033516,-13.46025,-1.8336710999999999,-0.17320648,-0.24233897,0.2841396
4.9553175000000005,-12.690256,-1.6383522,-0.080564395,-0.19762363,0.9894795
4.2217727,-11.976429,-0.828365,-0.11517428,-0.25137976,1.8098017
3.332499,-11.119276,0.01481532,-0.18118262,-0.25563836,2.6530051
2.1568694,-10.27486,0.7149948,-0.1444609,-0.16088445,3.3152006000000003
1.763004,-9.933792,0.8090965,-0.18650588,0.062674776,3.7708885999999997
1.7344075,-10.106777000000001,0.5572457,-0.40263000000000004,0.29263934,4.1238117
0.85838836,-10.055973,-0.20446482,-0.6395061,0.45392522,4.5017629999999995
-0.01931642,-9.187289,-0.7754436,-0.6810275,0.51089275,4.8312807
-0.13281116,-9.056557000000002,-0.52806515,-0.48886672,0.4800179,5.067616
-0.51369035,-9.531508,-0.2754577,-0.13913764,0.36130062,5.1788807
-1.065956,-9.913834,-0.75117594,0.20952678,0.27825785,5.215079
-1.1030086000000001,-10.436919,-1.5998056,0.36442474,0.17498670000000002,5.183680000000001
0.36880282,-11.203418,-1.4932541000000001,0.25317746,0.09354965,5.017595
2.7334313,-12.069496000000001,-1.218572,-0.03000221,0.1010022,4.731203599999999
4.5823774,-12.974352,-1.5108466,-0.34461525,0.2809282,4.3606877
5.66606,-13.900295000000002,-1.8268046000000002,-0.69807935,0.5454852,3.9832775999999996
6.195897,-14.487276000000001,-1.2336364,-1.1217928999999998,0.89894927,3.6393955
6.905825599999999,-14.7178955,-0.13422853,-1.4486582000000001,1.2375083,3.417407
7.682179,-14.6942215,0.8195351999999999,-1.4177833,1.4584321000000002,3.2103412000000002
8.351263000000001,-14.372020000000001,1.1732833,-1.0265154,1.5302873,2.8925343
8.710173,-13.990728,0.87917006,-0.5197416,1.5600975000000001,2.411853
9.132031,-13.552493,0.024210166,0.04982915,1.6186533,1.6697913
9.887143,-13.087568,-0.84212697,0.50708795,1.6058774,0.9176243000000001
10.552137,-12.586892,-0.9971084000000001,0.7306646,1.436598,0.32833135
11.053408000000001,-12.165887,-0.6031377,0.5374392,1.2391139,-0.033108898
11.355889999999999,-11.689872,-0.54911494,0.020018926,0.9740158999999999,-0.30511847
11.367909,-11.629184,-0.29161376,-0.34780923,0.48853509999999994,-0.6436774000000001
11.381221,-11.288815,0.890078,-0.3419449,-0.19921188,-1.1919726000000002
12.08028,-10.388565,2.2054907999999998,-0.17320648,-0.8922996,-1.7216276999999998
13.084092,-9.110493,3.1717715,0.12487831,-1.3080544,-2.1214128
13.961012,-7.751850599999999,3.3960602,0.48952994,-1.3628752,-2.5696309
14.436060000000001,-6.786258999999999,2.8124113,0.8350004000000001,-1.1307813999999998,-3.1355014
13.655999999999999,-6.333793599999999,1.3748368,1.0314373,-0.79915136,-3.6922962999999998
12.6976,-6.500439599999999,-0.5206144,1.1277968999999999,-0.5973913000000001,-4.120286
11.800628,-6.940761999999999,-2.700468,1.1852705,-0.6442359000000001,-4.3300222999999995
11.334275,-7.409834,-3.4588265,1.1043571,-0.8401316999999999,-4.3513327
12.133967,-8.167541499999999,-2.0001830000000003,0.9111316999999999,-1.004629,-4.3651557
13.359291,-9.829079,-0.41426393,0.72162384,-0.97268945,-4.529653
13.463832,-11.237061500000001,0.773241,0.6731735,-0.8401316999999999,-4.8240376
12.873747,-11.330876,1.9768636000000002,0.7168241999999999,-0.6005852,-5.0726247
12.768269,-10.945217999999999,2.5840237,0.8823861,-0.2785371,-5.088071
12.550932000000001,-11.056184,2.4276536,0.95797634,-0.07677703,-4.8900285000000006
11.986446,-12.070396,1.5079639999999999,0.800408,0.08822639,-4.5727625
11.216088000000001,-13.633265,0.8809896,0.51988125,0.2181138,-4.2230334
10.688751,-15.554457999999999,0.15110286,0.302675,0.24898867,-3.8754337
10.223586,-16.425142,-0.42466435,0.26328292,0.11004301,-3.4580731
10.262047,-16.165956,-0.5490479,0.28883454,-0.15397294,-2.9960322
10.474163,-15.514732999999998,0.17591637,0.2898992,-0.41640064,-2.5238509999999996
10.173136,-15.008149,0.94841033,0.24837779999999998,-0.5303183000000001,-2.1592166
9.519911,-15.394314999999999,1.3101839,0.13180727,-0.47495645,-1.7727484
8.17413,-15.900948000000001,1.2017361,-0.04703662,-0.33122858,-1.3484763000000002
6.760038000000001,-15.504764000000002,0.22824404,-0.2753955,-0.17791887,-0.7666359
5.4606857,-14.450567999999999,-0.6719949000000001,-0.46385616,-0.14119713,-0.19652407
4.685884,-13.380523,-1.1128249,-0.4713087,-0.05921902,0.43905503
3.9477417,-12.693779,-0.6913401,-0.4372399,-0.026214845,1.1449186000000002
3.2159299999999997,-12.072159,-0.17595467,-0.44786894,-0.09754645,2.027514
2.375843,-10.876054,-0.0023367410000000003,-0.40530035,-0.20401153,2.8004506
1.8310951000000002,-9.678733,0.055966858,-0.18596484,-0.21465804,3.4546873999999996
1.8939571,-9.328930999999999,-0.051092267000000004,0.12061971,-0.18004817,3.994989
1.6040577,-9.396935000000001,-0.33874124,0.2771234,-0.15397294,4.409662
0.6897694999999999,-9.310313,-0.68450224,0.14990632,-0.03312635,4.7008524000000005
-0.64585984,-8.731864,-0.845067,-0.19769344,0.159558,4.849903599999999
-1.278973,-8.348907,-0.46290454,-0.61023694,0.37939966,4.888230999999999
-1.3506361999999998,-8.924062,0.03127785,-0.8359429,0.47043604,4.9372050000000005
-1.4522461000000002,-9.649111999999999,-0.28446950000000004,-0.7944215,0.45978954,5.0378055999999996
-1.249802,-10.402289,-0.4379857,-0.56658626,0.41613886,5.137359
0.44675803,-11.201742,0.007747636600000001,-0.39304814,0.42359140000000006,5.1442879999999995
2.5497577000000002,-12.149836,0.30765492,-0.40795326,0.46883035,5.0181184000000005
4.384549,-13.293517000000001,-0.0930291,-0.5740388000000001,0.5827479999999999,4.7679253
6.148339,-14.419960999999999,-1.1449264,-0.7608763000000001,0.75576246,4.4378834000000005
7.463665,-15.071345999999998,-2.1324867999999997,-0.91739744,0.9032079,4.014676000000001
8.515429,-15.218762,-2.362493,-0.9472075999999999,1.0059555,3.6143675
8.880372,-15.164998,-1.9783288,-0.68050385,1.1800171,3.1076112
8.753680000000001,-14.841963,-0.76252455,-0.19024089,1.3817772,2.3942776
8.563858,-14.422804999999999,0.23928609999999997,0.2377313,1.7054310000000001,1.5777078000000002
8.895341,-13.927081,0.70894223,0.40542254,2.1392674,0.87130326
9.567364999999999,-13.474826,0.42979753,0.27766442,2.354868,0.5769186
10.502252,-13.153648,-0.08095275,-0.04597197,2.2233747999999998,0.4411843
11.251435,-12.651211,-0.08088571,-0.39252454,1.6937199,0.25167647
12.022455,-11.894384,0.17162596,-0.5655216,0.8233591,-0.18055432
12.659925,-11.221029,0.7027557,-0.5623276,-0.04483751,-0.7586596999999999
13.068874000000001,-10.459224,1.7535516,-0.43669882,-0.9040107,-1.3814805000000001
13.912648,-9.260092,3.0152001,-0.15988961,-1.5726115,-1.7594314999999998
14.547945,-7.9010954,3.3340695,0.19942132,-1.9377866999999998,-2.0298529
14.42903,-6.948231699999999,2.228542,0.5826956,-1.8323863,-2.429097
13.067198,-7.125039,0.142953,0.9489354999999999,-1.4975623,-2.907125
11.538692,-7.3495289999999995,-1.6310546000000001,1.1932641000000002,-1.1723027,-3.4122932
11.011374,-7.474850999999999,-2.6399906000000004,1.3236752,-1.1041651000000001,-3.8200545
11.196139,-7.4498553,-2.634436,1.3316687,-1.3107073,-4.0047803
12.059432000000001,-7.4742,-1.4469118,1.1277968999999999,-1.6018981,-4.0164914
13.094444000000001,-8.86595,-0.35468662,0.84140575,-1.7653133,-4.007433
13.588733,-10.944469999999999,0.8269380999999999,0.6731735,-1.7312444,-4.1133747000000005
12.632565,-11.798875,1.8559371999999998,0.5959949999999999,-1.4762692,-4.3348217
12.099969999999999,-11.125358,2.6128880000000003,0.64976865,-1.0126051,-4.5237885
11.930019,-10.014975,3.0483742,0.7493048000000001,-0.52073646,-4.6068316
11.699266,-10.015644,2.6511283,0.74504614,-0.09967575,-4.5882087
11.166307000000002,-11.047775,1.4968261999999999,0.6279346,0.18404497,-4.4843965
10.621034,-12.6277,0.6467984,0.42671555,0.32351422,-4.300753
9.866889,-14.094435999999998,-0.18380764,0.21645573,0.31232667,-4.0739822
9.226478,-14.838907999999998,-0.7988015,0.059934605,0.2351482,-3.8110137
9.372419,-14.805475,-0.22946987,-0.010838495,0.09407324,-3.4910773999999996
9.779529,-14.276222,0.70779306,-0.024155356,-0.024085544,-3.0939627
9.702358,-13.905783,1.5735268999999998,0.0072431164,-0.1007404,-2.6478738999999996
9.252574000000001,-13.946206,2.0816436,0.10093239,-0.13480923,-2.2156257999999998
8.401417,-14.259109,1.6057911,0.12489576,-0.079970986,-1.8520561000000002
7.738883500000001,-14.496633,0.6619202,0.0072431164,0.1010022,-1.5134971000000002
6.9445543,-14.477708999999999,-0.07810844,-0.12049753,0.25909412,-1.0908308
6.1683064000000005,-14.164385000000001,-0.60293657,-0.118909284,0.25324726,-0.47918016
5.48412,-13.587525,-0.6127815999999999,-0.11304498,0.12388347,0.29160962
4.764001400000001,-12.789318,-0.32262346,-0.18224728,-0.09168214,1.2620301
3.936058,-11.803625,0.17252617,-0.28019515,-0.13906783,2.189882
2.9332132,-10.803394,0.4902175999999999,-0.12262683,-0.047507863,3.0815183999999998
2.2293274,-9.902619,0.9000665999999999,-0.013491395,0.02274164,3.806022
2.0642134999999997,-9.375742,1.0248141,0.04024729,0.090355694,4.424043
2.1430118,-9.190909,0.43512222,0.07911578,0.12814207,4.910065
1.3059604,-8.619356,-0.14463852,0.11370819999999998,0.16327555,5.2486239999999995
0.22531354,-8.594092,-0.20004034,0.13074261,0.20799088,5.361477
-0.73179257,-9.363886,-0.5561156,0.11424925,0.24153611,5.372647
-1.9616556,-9.734144,-1.1058339,0.12224286,0.28412214,5.377987999999999
-2.2319036,-9.881598,-1.6626008,0.046635196,0.3330961,5.3859639999999995
-1.1189924,-10.304922,-1.2210045,-0.09440486,0.41188025,5.3630652
0.64994913,-11.167447,-0.68500024,-0.21844539999999998,0.50609314,5.242236
2.6560697999999996,-12.525065,-1.1438058999999998,-0.2775248,0.6333276,4.997907
4.6217194,-13.783361,-1.2364137,-0.47289696,0.812189,4.6023808
6.149507,-14.540734,-1.113141,-0.91525066,1.0581234,4.1339345000000005
7.5110803,-14.913856,-0.89488554,-1.2442278,1.3258742000000001,3.7192442000000003
8.620994,-14.98504,-0.75640494,-1.1420213,1.518576,3.3418343
9.015156,-14.910571,-0.6592099,-0.73480105,1.5691556999999998,2.9037392000000004
9.090191,-14.805781,-0.49331087,-0.29775316,1.6490046000000003,2.326681
9.289636999999999,-14.708184,-0.5216295,0.0104370685,1.8353183999999998,1.6240113999999999
9.718822,-14.438606,-0.36949238,0.04982915,1.9955397000000001,1.0374062
10.46901,-14.077876999999999,0.12336843,-0.15934856,2.0642183000000003,0.66530204
11.331259,-13.480772,0.4692731,-0.42870522,1.8624583,0.3874282
12.118711,-12.763346,0.026508601,-0.5112069,1.2689241000000002,0.011082841000000001
12.323004,-12.102508,-0.2100098,-0.44308674,0.34533083,-0.54251814
12.601967,-11.765576,1.1608813999999998,-0.3296927,-0.7352723000000001,-1.1584273999999999
13.124324,-11.212842,2.618251,-0.19076449,-1.7323091,-1.6146215
13.76529,-10.093657499999999,3.1713214,0.042917646,-2.2923155,-2.0064130000000002
14.278817000000002,-8.885093,2.7281833,0.31812117,-2.3018973,-2.5344973
14.273206,-8.029922500000001,1.5388110000000002,0.5587496999999999,-1.8653904,-3.269089
13.235453,-7.4932094,-0.39980295,0.65083325,-1.3378646,-3.9142672999999997
12.164144,-7.062761,-1.7156273999999998,0.6923547,-0.9359503,-4.4199767
11.651842,-6.5806645999999995,-1.9524236000000001,0.79669046,-0.7187614999999999,-4.6637816
12.016374,-6.31464,-1.2332438000000001,0.8227831,-0.6618114,-4.582868
12.893715,-7.2326630000000005,-0.88298154,0.7349406999999999,-0.61336106,-4.3198996
13.589747000000001,-9.340096,-0.34935233,0.6236934000000001,-0.46272168,-4.079829
13.305651999999998,-10.633732,0.6126475,0.5832366999999999,-0.1747249,-4.058536
13.139091500000001,-10.435224,2.0271131999999996,0.64231604,0.22343706,-4.1719127
13.247013,-9.932069,2.8210495,0.7280291999999999,0.48959976,-4.2395267
12.979408,-10.239148,2.6755395,0.8222421,0.59234726,-4.2863717
12.2270355,-11.589286,1.9427606,0.7956258,0.5774246999999999,-4.2970180000000004
11.371482,-13.402712,1.4960984,0.6673441,0.46085417,-4.215564
10.340194,-15.318332,1.2409148,0.54703856,0.28038713,-4.037767
9.132711,-16.504667,0.65617406,0.47410125,0.062674776,-3.7710805
8.411712,-16.45489,0.45473552,0.48261845,-0.18270107,-3.4122932
8.536489,-15.480687,0.65570486,0.5342627,-0.4126831,-3.0098553
9.227109,-14.6410885,1.0689152,0.6119821999999999,-0.5202127999999999,-2.6313632
9.097029,-14.286125,1.1757828000000001,0.65935045,-0.49199086,-2.2747052000000005
8.53486,-14.295607,0.9400497999999999,0.6284755999999999,-0.3397458,-1.9020773000000002
8.172914500000001,-14.410796,0.5089498,0.43205625,-0.17259560000000002,-1.4714346999999999
7.530444,-14.360594,-0.19488801,0.1605703,-0.037384953,-0.99977696
6.555755,-13.989934,-0.42678082,-0.10025171,-0.00012217305000000001,-0.45680502
5.4948463,-13.546872,-0.31649432,-0.30466467,-0.044296455,0.25542894
4.6195545,-12.906692,0.066261925,-0.39196604,-0.13055062,1.1081968999999998
3.5859394,-11.892180999999999,0.5103479999999999,-0.3233048,-0.17685421,2.016885
2.9955675999999998,-10.864111,0.8981416999999999,-0.2131047,-0.15769049999999998,2.8068560000000002
2.8275812,-10.247873,1.0964295,-0.21629865,-0.053895768,3.4717216
2.5131264,-9.881559,0.86289907,-0.30201176,0.067456976,3.9566788999999996
1.8725721999999998,-9.650347,0.20328689,-0.44999823,0.14199999,4.305361
0.77566385,-8.905693,-0.6508109999999999,-0.57880354,0.16913986,4.524678700000001
-0.22005586,-8.367046,-1.359284,-0.6331182,0.20055579,4.685964599999999
-0.74140763,-8.878811,-1.6706356,-0.5671098000000001,0.22556636,4.889837
-1.5450168,-9.4122095,-1.860898,-0.5878618,0.21439624,5.0570045
-1.9642509,-9.488624,-1.4286681,-0.7044498,0.18137461,5.1900682
-1.3898053,-9.775975,-1.0158694,-0.7912100999999999,0.163293,5.3130440000000005
0.5210836,-10.409395,-1.2695876,-0.6501526,0.09567895,5.415250299999999
2.4638538,-11.455967999999999,-1.7526993999999998,-0.30414107,0.038728856,5.413662400000001
4.516039,-12.521607000000001,-1.9636763,-0.036913715,0.04351106,5.2507706
5.970919,-13.323329999999999,-1.8386128000000002,-0.15454890000000002,0.1590344,4.8903775000000005
7.1335429999999995,-14.02465,-1.4167353999999999,-0.32648128,0.37568212,4.420343
7.5893416,-14.55395,-0.80879,-0.2668783,0.60405844,3.9689136
7.6548567,-14.888669,-0.37030640000000004,0.050387654000000004,0.8877792,3.4200947
7.934958999999999,-14.938333499999999,-0.629541,0.49699995,1.2337908000000002,2.7738519
8.341753,-14.886322,-0.5246940999999999,0.83555895,1.6915904999999998,1.9940038
8.628359,-14.810657,0.28335854,0.9159488000000001,1.9817166000000002,1.3301851999999998
9.307899,-14.7447195,1.3396324,0.7418696,2.0668888,0.8319286
10.352202,-14.456937,2.0148451,0.40118137,1.8438356,0.53010887
11.340395,-13.924888000000001,1.1951184,0.00726057,1.3067280000000001,0.2564936
12.25452,-13.015875999999999,0.58188677,-0.33660419999999996,0.48747045,-0.24548055
12.838629,-12.168951,1.2709955,-0.57402134,-0.47069785,-0.91727525
13.450242000000001,-11.239198,2.48363,-0.7390422,-1.350623,-1.5188030000000001
13.893227,-10.131495,3.3141017,-0.733719,-1.8653904,-2.0575163
14.140680999999999,-9.10467,3.3261015,-0.69752085,-1.7860652,-2.6782076
14.134228,-8.585444,2.080504,-0.5665688,-1.2766385,-3.3808773000000003
13.544487,-8.427446,0.30838275,-0.26633725,-0.77464694,-4.0303144
12.451171,-8.468857,-1.3601555,0.08126253,-0.49038514,-4.464151
11.896319,-8.242144999999999,-2.3337624,0.27822295,-0.48027970000000003,-4.6180015
11.958060000000001,-7.639533500000001,-2.663377,0.2968456,-0.6612703000000001,-4.5179243
13.170092000000002,-7.728349000000001,-2.2120986,0.31442106,-0.87365943,-4.3284163
14.206273000000001,-9.29701,-1.5139303,0.50658184,-1.0046115,-4.3124465999999995
14.166664,-10.581337,-0.18917067,0.9138195,-0.9742777,-4.4982195
13.946435999999999,-10.693961,1.1678916000000001,1.3247746999999999,-0.71769685,-4.6903977
13.403007999999998,-10.193333,1.9872352999999998,1.4402806000000001,-0.32058206,-4.806968
12.7553005,-10.233393,2.7925587000000003,1.3402034,0.06321582,-4.781417
11.910617,-11.468743,3.0104307999999995,1.2582253,0.4044277,-4.60842
10.897697,-13.499735000000001,2.2967577,1.1384608,0.5934119000000001,-4.348104
9.877939,-15.357052,1.2088995,0.95160586,0.5470909,-4.101646
9.127692,-16.476233999999998,0.6987717,0.61411154,0.37835246,-3.8189723
9.138486,-16.521658,1.361707,0.39372882,0.22504276,-3.4937129999999996
9.587906,-15.695985,2.5519125,0.29045770000000004,0.056286868,-3.0992683999999997
9.610526,-14.887739999999999,3.4740824999999997,0.27661723,-0.09859365,-2.6840546
9.162141,-15.000047,3.0915463,0.22392574,-0.19282398,-2.2656467
8.984855,-16.064663,1.5180197,0.09936159,-0.21092305,-1.8600148
7.848269999999999,-15.950555,0.68999934,-0.09492846,-0.12894492,-1.3628228999999998
6.711034,-15.227266,0.25869828,-0.28708920000000004,0.0339292,-0.81398666
5.7320347,-14.176853,-0.2953583,-0.40526545,0.16913986,-0.26729718
5.3584533,-13.779244,-0.9796403,-0.437205,0.21546089999999998,0.3384717
4.4176373,-12.850811,-1.2274209999999999,-0.44306928,0.12177162,1.1337659
3.4159322,-11.794048,-0.6127911,-0.44839254,-0.06558947,2.0818288000000003
2.5610871,-10.7346325,-0.07434475,-0.36002649999999997,-0.22476350000000003,2.8984158
2.0636773,-9.85893,0.1931642,-0.2546261,-0.37062067,3.4850385000000004
1.9680338,-9.743702,-0.10697293,-0.19819959,-0.48506190000000005,3.8763065
1.5157117,-9.568484,-0.34611538,-0.19127063,-0.54042375,4.1893139999999995
0.57458925,-9.11915,-0.5581459,-0.21788691,-0.46324529999999997,4.48794
-0.14565365,-8.717288,-0.7113651999999999,-0.33660419999999996,-0.20879374,4.770072
-0.38984308,-9.098196000000002,-0.66789603,-0.64961153,0.14519393,4.9819374000000005
-1.2061414,-9.469901,-0.90320784,-1.0855774,0.4693714,5.142176
-1.8847922,-9.902667,-1.2862129999999998,-1.422548,0.6450388000000001,5.2353244000000005
-1.4083556000000002,-10.396600999999999,-1.2729588,-1.5763813,0.6455798,5.2529
1.0284916,-11.241667999999999,-1.1210514,-1.3991257,0.4651128,5.1996675
3.2500617999999997,-11.996866,-1.1821226999999999,-1.0041403,0.26602307,5.083097
5.0646653,-12.937882,-1.5447389,-0.6134134,0.12283627,4.8941126
6.183696299999999,-13.878573999999999,-1.7028233,-0.5223770000000001,0.041922808,4.6236916
6.9162645000000005,-14.483541500000001,-1.7417912,-0.5953143,0.058957222999999996,4.3293066
7.5401454,-14.833402,-2.0306756,-0.5159891,0.11325441,3.9912887
8.012991,-14.966548000000001,-2.2890580000000003,-0.16784832,0.2846632,3.4121187000000006
8.315657,-14.901214999999999,-1.8596436,0.12917182,0.6455798,2.6311886
8.675696,-14.8391,-0.8442337999999999,0.2856755,1.2428489999999999,1.7251706999999998
9.080183,-14.7264185,0.4677121,0.31707397,1.8097668000000002,1.0384709
9.72452,-14.518392,1.7816020000000001,0.23455479999999998,2.1760068,0.61741024
10.481451,-14.426042,2.4032133,0.015777776,2.203164,0.43800783
11.306894999999999,-14.085864,1.960832,-0.25516713,1.7767626,0.26234043
12.081285000000001,-13.538079999999999,1.1148648,-0.3562915,0.92291266,-0.16776104
12.670862,-12.751317,1.1096072,-0.27272514,-0.12627457,-0.9188635
13.752582,-11.636031,2.1721348999999996,-0.16891296,-0.87791806,-1.5656476000000001
14.785124,-9.896644,2.8868902000000003,-0.033702306,-1.2771621000000002,-2.0820034
15.411744,-8.08248,2.5446055,0.1776047,-1.2856793,-2.4892235
14.661516,-7.0559325,1.7215077,0.45973718,-1.064773,-2.9544759
13.047001,-6.9457994,0.5629725999999999,0.72270596,-0.82362086,-3.3856595
11.681913,-7.025315299999999,-0.74280584,0.97343993,-0.7608064999999999,-3.7598754999999997
10.877951,-6.9534035,-1.9189622,1.2225507,-0.92530376,-3.9206553
11.101444,-6.6283474,-2.0936527,1.3066757,-1.2223413,-3.9190495000000003
12.547552,-6.665916999999999,-1.2127493999999999,1.1773118999999999,-1.4964802,-3.8312247000000004
13.869438,-8.03745,-0.35113364,1.012291,-1.5736761000000001,-3.8280306000000004
13.894109,-9.729528,0.5665639,0.9510823,-1.5247022,-4.0186033
13.167323999999999,-10.665239,1.5241871,0.91273737,-1.3181599,-4.282113
12.325283,-10.730151,2.3308606,0.8690867,-0.92317444,-4.4439225
11.686376,-10.642332000000001,2.5055609,0.8036194000000001,-0.50316095,-4.5450644
11.159298,-11.191811,2.0421965,0.6875725,-0.2311514,-4.557840000000001
10.486431,-12.536126,1.3538348999999998,0.5651376,-0.07038913,-4.513125
9.623925,-13.954642000000002,0.7752329000000001,0.46612507,-0.053354714000000004,-4.375801999999999
9.127463,-15.050785000000001,-0.11674127,0.42727405,-0.18483037,-4.115486
9.088936,-15.466273999999999,-0.4720504,0.38679987,-0.34719834,-3.7636106
9.596909,-15.052211999999999,0.099435985,0.33517304,-0.48240900000000003,-3.3121986000000003
10.067331,-14.444458,0.73766315,0.25480062,-0.51167816,-2.862916
9.802703999999999,-14.256657999999998,1.1973115,0.14193018,-0.39884263,-2.4423964
9.136321,-14.50891,1.1109191999999999,0.0067195175,-0.23221606,-2.0069366
8.506359,-14.675163000000001,0.66082835,-0.11302752,-0.08742354,-1.4900573000000001
7.729211,-14.683228,0.13623965,-0.2104518,0.12496557,-1.0098999
6.9455979999999995,-14.512673000000001,0.02785893,-0.29401818,0.37622318,-0.45202282
5.972729,-14.358583,0.0049416320000000005,-0.35683256,0.61948717,0.19900244
4.9248533,-13.836235,0.10919475,-0.50694835,0.6067113000000001,1.0501821000000002
3.8227932,-13.110907999999998,0.16497965,-0.4899139,0.35971236,1.9721696
2.9432592,-12.153035000000001,0.23803154,-0.12421508,0.040858157,2.955907
2.5006957,-11.286985000000001,0.33275574,0.19730946,-0.20134118,3.6873221
2.0539281000000003,-10.594266000000001,0.20173542,0.29045770000000004,-0.19601792,4.12437
1.1193084999999998,-9.958509,0.21542068,0.114790305,-0.019809486,4.320266
0.28432579999999996,-9.324544,0.12018893,-0.23385666,0.25963518,4.415019999999999
-0.5289749,-8.862751,0.017832015,-0.62458354,0.5210157,4.4592113
-1.1518408000000002,-9.03314,-0.22226812,-0.8407251,0.6849719,4.562465
-2.182947,-9.285002,-0.7998166,-0.8199556999999998,0.72542864,4.6998053
-3.0730631,-9.727116,-1.3044759,-0.7310485999999999,0.6743254,4.8765373
-2.8906155,-10.472908,-0.6053978,-0.67570424,0.5843537,5.0160065000000005
-0.7596706,-11.283232,-0.14659218,-0.68048644,0.47363,5.020265
2.1285794,-12.332734,-0.9333077,-0.6474821999999999,0.44275513,4.8706903
4.830666000000001,-13.208082999999998,-1.7587134999999998,-0.78428113,0.47788859999999994,4.6039867
6.5029297,-13.722826999999999,-2.3359172000000004,-1.0584375,0.60938174,4.335694999999999
7.3839765,-13.924476,-2.3436074000000002,-1.2074885,0.80580103,4.1653504
7.517094,-14.040069,-1.7577558999999998,-0.9764593,1.0006322,3.9668019999999995
7.367811,-14.250748000000002,-0.609468,-0.5026897,1.1342546,3.5787277000000004
7.357305,-14.439055999999999,0.14799997,0.005131268,1.3226978,2.905345
7.5194883,-14.462645000000002,0.33869335,0.40011674,1.602701,2.0765054
8.165971,-14.301687,0.23012109,0.5550147,1.8427708999999999,1.3631895
9.27168,-14.050248000000002,0.27914476,0.44217917,1.8928095,0.9133831
10.409836,-13.836734,0.41958863,0.13343042,1.6553924,0.6589316
11.221900999999999,-13.723737,0.04949294,-0.14870206,1.0969918,0.44493678
11.466339999999999,-13.496267999999999,0.27406907,-0.21151645,0.27454029999999996,0.03769911
11.68288,-13.060744,1.5392132,-0.15083136,-0.5931327,-0.59149206
12.673668,-12.047145,3.0463345,-0.012426743999999998,-1.2452401000000002,-1.17705
14.002938,-10.441487,3.5579083,0.18399261,-1.6641715,-1.7594140999999999
14.934072500000001,-8.575522,3.1670117,0.42566836,-1.6801412,-2.2406363
14.797622,-7.294855,2.067786,0.70193654,-1.3884268999999998,-2.790537
13.645033999999999,-7.193388499999999,0.15788324,0.93935364,-0.9769306000000001,-3.3340324999999997
12.244723,-7.307506,-1.5055124,1.0713878000000001,-0.76667076,-3.851453
11.476481,-7.5754266,-2.500849,1.1437666000000002,-0.83906704,-4.166066000000001
11.453296,-7.403542,-2.1050012000000002,1.0692585,-1.106818,-4.3092527
12.705511999999999,-7.539063499999999,-0.9812013,0.7599686999999999,-1.3495583999999998,-4.243768
13.884062,-8.657242,0.0026815059,0.35273105,-1.4262306999999999,-4.0665126
14.238088000000001,-10.026917,1.0119716,0.14779449,-1.3681985,-3.9515302000000005
13.897029000000002,-10.576625,1.934582,0.11639601,-1.220212,-4.015409
12.999673,-10.340442999999999,2.7170167000000003,0.25958282,-0.92690945,-4.208652
12.198447999999999,-10.17915,2.8822452999999997,0.5108404000000001,-0.51487213,-4.3933599999999995
11.376068,-10.834596000000001,2.1826307999999996,0.5507561,-0.13213888,-4.4567156
10.863939,-12.183547,1.3267803999999999,0.40863395,0.18458602,-4.388037000000001
10.045975,-13.691798,0.44944912,0.16641714,0.35119516,-4.214499
9.352144000000001,-14.953657000000002,-0.41484812,-0.06511823,0.37514105,-3.9813404
8.495595,-15.555464,-0.9815173,-0.13325588,0.293704,-3.6859086000000003
8.369104,-15.54357,-0.43283337,-0.0198793,0.0988729,-3.3340324999999997
8.665708,-14.883364000000002,0.7585693,0.18505725,-0.14597934,-2.9544932999999998
9.212945,-14.215591,1.8637041,0.40969858,-0.3615624,-2.582389
9.2873,-13.981554000000001,2.5652912,0.51455796,-0.44727552,-2.208173
8.9553,-14.171347,2.4026964,0.46984264,-0.42331216,-1.8403275000000001
8.08972,-14.461514000000001,0.992818,0.3053628,-0.31951743,-1.4698291
7.123296000000001,-14.518142999999998,0.044905648,0.13447762,-0.11988667,-1.1003952
6.2589125999999995,-14.339382,-0.5391454999999999,0.09669124,0.0967436,-0.6921103
5.41918,-13.686004,-0.30580658,0.026424285,0.20427333,-0.060231313
4.529092299999999,-12.835775,0.4196078,-0.24558528,0.18032742,0.86334455
3.6712687000000006,-11.839777,1.1633043,-0.37760198,0.15849335,1.9647171
3.0962007000000002,-10.9655485,1.5257481000000002,-0.12899728,0.08503244,2.9841115
2.7463599999999997,-10.375407000000001,1.5439441,0.12704252,-0.04749041,3.7693002
2.4085095,-9.952772999999999,1.005469,0.13767157,-0.029932396,4.305343
2.0901381999999997,-9.653019,0.37372532,-0.12847368,0.11697197,4.702999
1.5678573,-9.33617,-0.14380533,-0.48033208,0.26708773,4.8951597
0.8674097,-9.183602,-0.24658361,-0.8183674,0.39591047,4.984067
-0.0020494366,-9.629977,-0.39268738,-0.9328086999999999,0.45073128,5.065504
-1.8126502,-9.899564999999999,-1.4384172,-0.7491651,0.42411499999999996,5.2060379999999995
-3.3587012,-10.028354,-2.3620810000000003,-0.54154074,0.34854224,5.356171
-3.1745200000000002,-10.402021000000001,-1.4728553999999998,-0.40900046,0.30435053,5.4551834999999995
-0.8560325000000001,-10.899344000000001,-0.71827966,-0.3717377,0.22930136,5.398757
1.8877226000000003,-11.977433999999999,-1.4988563999999998,-0.37547270000000005,0.12709488,5.1049137
4.225239299999999,-13.159173999999998,-2.3685264999999998,-0.30733502,0.030735249,4.6987404999999995
5.9330324999999995,-13.900822,-2.8298123,-0.12154472599999999,0.0062482785,4.2473288
7.2155685,-14.364970999999999,-2.5397882000000003,-0.0150796445,0.1579523,3.7863347999999997
7.822824000000001,-14.696720999999998,-1.6413403000000002,-0.017749999,0.5673193,3.2928602999999996
8.058453,-14.964220999999998,-0.28834808,-0.006562438,1.0911275,2.8632824
8.177118,-15.070992000000002,0.6063172,0.028012535,1.6442223999999999,2.3692843999999997
8.571261,-15.089878,0.56966674,0.021624627999999996,2.086576,1.836418
9.332187,-14.861757999999998,0.41901404,-0.06405358,2.2899244,1.4515553999999997
10.473894999999999,-14.465604,0.4416536,-0.13006194,2.1360736,1.2428839
11.559905,-13.951865,0.6276255999999999,-0.06618288,1.5968367,1.0203718000000002
12.281297,-13.236698,1.2498978,0.06794567,0.74937457,0.63709754
12.607186,-12.56434,1.5539039,0.12969542,-0.22849850000000002,0.029181905
13.172678,-12.019582000000002,1.2974658000000001,0.12915437,-1.2111537,-0.67079985
13.510519,-11.329966,1.2006921999999998,0.026424285,-1.9457629,-1.3756162
13.638053,-10.430234,1.3532889,-0.095452055,-2.22896,-2.0016133999999997
13.619272,-9.368386,1.0941789,-0.10238101,-2.0027304,-2.6217813
13.307998000000001,-8.848557000000001,0.16652152,0.0035255651,-1.4193016999999999,-3.2957227
12.311541,-8.415954,-0.65120375,0.13021901,-0.73846626,-3.9062912000000005
11.541249,-7.8612556,-1.0132835999999998,0.1669582,-0.29768336,-4.3193755
11.720353999999999,-7.162925,-0.9227828000000001,0.21806143,-0.24499187,-4.547211
12.380341,-6.4211535,-1.0171430000000001,0.28885198,-0.47973865,-4.62706
13.574960999999998,-6.7590995,-1.1946780000000001,0.28246409999999994,-0.73473126,-4.590862
14.666994,-8.236178,-1.17404,0.34688420000000003,-0.85397214,-4.492373000000001
15.200068,-9.631442,-0.74734527,0.48422414,-0.7858345,-4.384302
14.519866,-9.969235000000001,0.44770613,0.64818037,-0.59419733,-4.2645373
13.810177,-9.861362,1.6383713,0.8930501000000001,-0.41800636,-4.153814
13.108168,-10.342903,2.3645232000000003,1.0484891,-0.28651324,-4.0686417
12.188556,-11.839442,2.0472052,1.0240021000000001,-0.15184364,-4.021273600000001
11.163119,-13.825317000000002,1.2468141000000001,0.8259771,-0.05815437,-3.957918
10.426423,-15.379729000000001,0.92502373,0.55555576,-0.010245083,-3.8099315000000002
9.81753,-16.342236,0.7355084,0.29897490000000004,-0.023020892999999997,-3.6087127
8.88132,-16.495953,0.7916284,0.13288938,-0.12681562,-3.3947177
8.4416485,-16.170334,1.5574378,0.1781283,-0.2854486,-3.2328908
8.206968,-15.978470999999999,1.7967718000000001,0.27181756,-0.42917645,-3.0194197
7.646955499999999,-15.162709,2.3022451,0.3074921,-0.45366344,-2.74741
7.269562700000001,-14.516065,2.115536,0.27607617,-0.38713148,-2.3891637
7.1053586,-14.16675,1.2221633,0.25052455,-0.33922220000000003,-1.9643681
7.193599000000001,-14.318810000000001,0.22665428,0.13021901,-0.29874802,-1.3825277
6.699781,-14.158370000000001,-0.53621495,-0.020402899,-0.19334757,-0.7320260000000001
5.8422356,-13.4762335,-0.6773484000000001,-0.15296066,-0.020874137,-0.011257373999999999
5.036232,-12.518764,-0.5048509,-0.4680973,0.12709488,0.88196725
4.6021824,-11.6491995,0.11163683,-0.6985855,0.09567895,2.0919342
4.4333243,-11.277619,0.8773791999999999,-0.33766884,-0.09115855,3.3184120000000004
3.6670934999999996,-10.830267999999998,1.0000389,0.29736918,-0.23540999999999998,4.1685443
2.8496745,-10.422812,0.70219064,0.51295227,-0.13107422,4.666801
2.1015728,-10.418339999999999,0.42676166,0.20528562,0.11590732,4.8637614000000005
1.0057945,-10.650855,0.030808587999999998,-0.32808699999999996,0.4326322,4.88399
-0.5440967,-10.409894,-0.72258925,-0.8455073000000001,0.67484903,4.749303
-1.5847987,-10.114851,-0.89190716,-1.1627733,0.745657,4.593881
-2.6253474,-10.3771305,-1.6318879,-1.1627733,0.6838898,4.5582066
-3.998815,-10.823697,-2.3529737,-0.7736521,0.4975759,4.763143
-4.249698,-11.426816,-1.3619369,-0.14870206,0.1707281,5.0452757
-1.3008751,-12.178614999999999,0.6584246,0.24200736,-0.10871656,5.1741157
2.4449202999999997,-13.049061,0.33010298,0.34049627,-0.24233897,5.0426226
5.349183,-13.987673000000001,-1.5804508,0.18186331,-0.13107422,4.6981993
7.321171799999999,-14.420142000000002,-2.8292662999999996,-0.24293238,0.18989182,4.1307406
8.412516,-14.221414000000001,-2.6945782000000005,-0.7454301,0.69561845,3.6282252999999995
8.764876,-13.744307500000001,-1.8981327000000001,-1.1505383999999999,1.3450379,3.275826
8.489188,-13.50866,-0.5625511999999999,-1.1798077,1.9162318999999999,3.0597017
7.880975,-13.828467999999999,0.7878264,-0.9604896,2.269155,2.8095088
7.4131,-14.304732000000001,2.1609395,-0.6038315,2.4049065,2.4587152000000003
7.972155,-14.202615,2.1213393,-0.07257079,2.407577,1.9013791000000002
9.063797000000001,-13.926995000000002,0.9162322,0.34953707,2.24575,1.2663062
10.548996,-13.292646,0.038814798,0.42247438,1.9087793999999998,0.74036866
11.699382,-12.507559,-0.65162504,0.23509584,1.4339451,0.46621236
12.448661,-11.830795,-0.9097200000000001,0.011519173,0.7339284,0.22666591
12.327237,-11.579604,-0.6223774999999999,0.025359634,-0.14491469,-0.23696335
12.076277000000001,-11.415534,0.66215956,0.23296654,-1.1153351999999999,-0.81241584
12.170407,-10.748281,2.03284,0.45441392,-1.7514728,-1.3362241000000001
12.613382000000001,-9.824444999999999,2.4989624,0.72696453,-2.0666094,-1.8605558999999998
13.294284,-8.643375,2.865831,0.9728989,-1.9638793,-2.4530427
14.013225,-7.7926474,2.4377377,1.0772346000000002,-1.5758054,-3.089163
13.830689999999999,-7.474928,0.6391465000000001,0.9968448000000001,-1.2287291999999999,-3.6544925999999998
12.938343,-7.601159599999999,-1.330228,0.8898560999999999,-1.1653912,-4.1224155
11.888552,-7.6685133,-2.3570342,0.79456115,-1.4501766,-4.3811255
12.263389,-7.5958633,-2.082898,0.6220876999999999,-1.8350391,-4.3938837
13.385876000000001,-8.265704,-0.9795924000000001,0.42193335,-2.1310296,-4.2496324
13.974495999999998,-9.225922,0.06640558,0.4166101,-2.2555761000000003,-4.1367793
14.070676,-9.783475,0.8045763000000001,0.46345472,-2.211402,-4.1692424
13.4964695,-9.444379,1.7253193,0.5252045,-1.9415218,-4.278919
13.08031,-9.231361,1.8048546000000003,0.55182076,-1.5364133,-4.296476999999999
12.499103,-9.874713,1.0613209,0.41448078,-1.0471976,-4.227275
11.950103,-11.477171,-0.0056886235,0.12278391400000001,-0.58620375,-4.100581
11.498182,-13.561793,-0.34645057,-0.19022344,-0.21837559999999998,-3.9376898000000002
10.694477000000001,-15.592305999999999,-0.5670715000000001,-0.41167079999999995,0.040317107000000005,-3.7673454
9.634747,-16.81469,-0.57352626,-0.49523717,0.1547758,-3.612971
9.09041,-16.754269,0.2045223,-0.45851544,0.09780825,-3.4511442000000003
9.007686,-15.932205999999999,1.5529846,-0.3371278,-0.045361105,-3.2355437
9.211366,-15.0948,2.0770082,-0.18968238,-0.19069467,-2.970463
8.864636,-14.706555999999999,2.3784862,-0.074700095,-0.29768336,-2.6750138
8.129368,-14.695235999999998,1.8456038000000001,-0.06298893,-0.34133404,-2.3641357000000003
7.553658500000001,-14.585179,0.8181658,-0.066723935,-0.31899384,-2.0404818
6.825112299999999,-14.292407,0.049799397999999995,-0.13751449,-0.16407839999999999,-1.7354681
6.3129544,-14.0218525,-0.057719413,-0.25143212,0.16275196,-1.3500645
5.862423400000001,-13.587381,0.2605466,-0.48406705,0.46563640000000006,-0.6207786999999999
5.3397879999999995,-13.111607000000001,0.71039796,-0.6091548000000001,0.55028486,0.5790653
4.7851667,-12.369959,1.1919103000000002,-0.38025490000000006,0.35597736,1.9647171
4.147667,-11.88926,1.4865598999999998,0.13182472,0.1010022,3.255615
3.496722,-11.512558,1.6584348999999998,0.62741095,-0.019285886999999998,4.1073184000000005
3.0651624,-11.099547,1.3965762,0.85524625,0.18723892,4.508692
2.4595635,-10.698663,1.1578933999999999,0.6865078,0.5263215,4.611439
1.7830483,-10.274822,0.9572593,0.15844099,0.90587825,4.5363727
0.66448677,-10.143342,0.49804184,-0.5729566999999999,1.2071744,4.3569875
-0.9147765999999999,-10.571684,-0.23408589,-1.2122883,1.3636781,4.1956844
-3.6918684999999996,-11.225904,-0.99616027,-1.5114551999999999,1.324286,4.1749325
-6.1213512,-11.314058000000001,-0.7327598000000001,-1.3815677,1.1257198999999998,4.314925
-5.3074565,-11.622422,0.21270089,-0.9243089,0.91226614,4.5363727
-1.8330104,-11.856603999999999,0.43375275,-0.64535296,0.81644756,4.6849
2.1973502999999996,-12.603154,-0.08935161,-0.76832885,0.79567814,4.695546599999999
5.678692,-13.480103,-1.4505988,-1.1287044,0.8207061999999999,4.561923999999999
7.5401362999999995,-13.379698999999999,-2.7340633999999997,-1.3826323999999999,0.8137772,4.441095
8.336946000000001,-12.821315,-3.7214608,-1.4624811000000002,0.81005967,4.453347
8.260407,-12.039694,-3.6235285000000004,-1.4576815,0.812189,4.6545663
7.753833,-11.712923,-2.4426029,-1.2431631,0.7738615,4.879731
6.994785,-11.837106,-0.75142497,-0.72094315,0.87767375,4.5709824999999995
6.606503,-12.199558,0.9921859000000001,0.017383479,1.4270334999999998,3.2939425000000004
6.979557499999999,-12.457203999999999,1.6350578000000002,0.5651376,2.1989055,1.6985544
8.031512,-13.132148999999998,0.45568362,0.58749527,2.7993683999999996,0.80957097
9.238928,-13.697351999999999,-0.73153394,0.29630455,3.0250745,0.49017572
10.368665,-14.386385,-1.0029215,-0.062465332,2.6391299,0.41777948
10.976084,-15.047041,-0.05200206,-0.3403392,1.6697564999999999,0.22879522
11.314105999999999,-15.877398000000001,0.7818026,-0.37547270000000005,0.027541295,-0.21619393
11.979301,-16.227812,1.6043737,-0.055012777,-1.7914058999999998,-0.75651294
13.747372,-15.1181,3.048106,0.5326569999999999,-3.0812218,-1.5038979
17.348856,-11.9383135,4.54566,1.0490302,-3.4362739999999996,-2.3183557999999995
19.98536,-7.8653073000000004,4.7765474,1.2087103000000001,-3.0551465,-3.1583652
18.412043,-5.930505,2.7069322999999996,0.81852454,-2.192762,-3.854647
14.421838000000001,-6.467764,-0.5203270999999999,0.090826936,-1.4267544,-4.260278700000001
11.769637,-7.007876400000001,-2.2544186,-0.33927456,-1.2526926,-4.3614206
11.089205,-7.242939,-3.002281,-0.3371278,-1.5066031000000002,-4.470015
12.069678,-7.976436,-2.703935,0.15789993,-1.9452393,-4.7404366
13.470592499999999,-9.198025999999999,-0.9635417,0.7418696,-2.4355022999999996,-5.1513915
14.185128,-9.400412,1.3952641000000001,1.209775,-2.5238682999999997,-5.4191427
14.552916,-8.9379,3.4113447999999997,1.6324413999999998,-2.2587702000000003,-5.445759
14.140769,-8.970796,3.7282317000000003,1.9092506,-1.6285143999999998,-5.198777
13.525372500000001,-9.791183,2.2132862,1.9097916000000001,-1.064232,-4.8288025999999995
12.370975,-11.495625,-0.151869,1.7346479,-0.6154904,-4.43647
10.828658,-13.746260999999999,-0.8776664000000001,1.5765558000000002,-0.28864256,-4.0686417
9.737861,-15.067065,0.5032708,1.5254526000000002,-0.09114109,-3.7178307
9.563121,-15.3492365,2.8729270000000002,1.5312995,0.006789331,-3.3776834000000004
10.122531,-15.907967000000001,5.1711497,1.5371639,-0.12096877,-2.982698
9.7430315,-16.246698000000002,5.9959526,1.4541211,-0.43289402,-2.4668832000000003
8.581555999999999,-16.443472,6.381390000000001,1.1938052,-0.7054621,-1.8376746
6.8266063,-16.206657,6.106948,0.83662355,-0.87313586,-1.247858
6.080037,-16.877916,4.6427402,0.42938590000000004,-0.9205040999999999,-0.823586
5.67625,-16.770845,2.7484956,0.13449506,-0.86088365,-0.40889573
4.9382234,-15.628994,1.5994608000000001,-0.08801696,-0.8380023999999999,0.122871175
4.3480144,-13.9530525,1.1764437,-0.47661450000000005,-0.7986103,0.68448323
3.6200042000000003,-12.241408999999999,1.0855215,-0.8258025,-0.56758106,1.2647178999999997
2.9165685000000003,-11.233767,0.6108661999999999,-0.9333497,-0.284925,1.8736807
2.1480875,-10.549896,-0.21171446,-0.7864279000000001,-0.11030481,2.584885
1.2429643,-10.117676,-1.2801221999999999,-0.30414107,-0.14704399,3.346093
0.533907,-9.548996,-2.1579707000000004,0.35698965,-0.3338815,3.9316682999999997
0.9181093000000001,-9.270895,-2.5200696,1.0309136,-0.4201182,4.272880000000001
2.1218565,-9.8496685,-2.5232491,1.2917530000000002,-0.12629202,4.416608
1.8052759999999999,-10.255257,-2.0991883,1.0293254,0.4784122,4.3617697
0.8690952,-10.367018,-2.295867,0.51136404,1.1374485,4.266492400000001
0.11786176,-10.713133000000001,-2.9233587000000005,0.021101031,1.6474162,4.142993
0.16823576,-11.557559,-1.928721,-0.19874065,1.8055082999999998,4.0168230000000005
0.12303323,-12.216041,-0.8153789,-0.19181168,1.8017732,3.9082284
0.45646894,-12.590225,0.36637032,-0.18702948,1.8470296000000002,3.7756882000000007
1.6357761999999998,-13.424432999999999,1.1414883,-0.28337166,2.0381258,3.5670165999999996
3.7533803,-14.122945999999999,1.0838647,-0.44786894,2.2095518,3.295007
6.157781,-14.812389000000001,0.16889656,-0.64057076,2.2739546,2.9686828
7.672478,-14.709956,-1.5295597,-0.8838347,2.3037647999999997,2.6466347999999997
8.380607000000001,-14.001388,-2.7591930000000002,-1.1452153,2.340504,2.4603207
8.480569000000001,-13.089369,-2.918302,-1.2293051000000002,2.382549,2.4837432
8.181888,-12.104327,-2.0220854,-1.0643017,2.252138,2.6445055
7.8670497,-11.22781,-0.58826494,-0.83592546,1.9918221,2.7019966
7.586459,-10.3662615,0.21684764,-0.5175948,1.6367698,2.6684513
7.8578277000000005,-9.641575,0.48016194,-0.12154472599999999,1.1459656999999999,2.4092176
8.172808999999999,-9.186428,0.31253909999999996,0.33464944,0.52473325,1.8688985
8.358149000000001,-8.936999,0.28858748,0.6790553,0.007853981999999999,1.1374834999999999
8.526442,-8.930286,0.22727677,0.7317642,-0.18111281,0.3347367
8.474094000000001,-9.157094,-0.0019249382,0.54703856,-0.040578905,-0.48183304
7.957474,-9.524805,0.25803748,0.26968828,0.007853981999999999,-1.2579635
7.287298700000001,-10.064276,1.1660337,0.08126253,-0.15608479,-1.7807071
7.653055999999999,-10.182253,1.8659737,0.029094638,-0.4829326,-2.0511284
8.892821000000001,-9.95535,1.6582625,0.23670155,-0.8300088,-2.2896101000000004
10.161489999999999,-9.458093,1.9593093000000001,0.6284755999999999,-1.086066,-2.7314403
12.19727,-8.996308,1.8815361000000002,0.91753703,-1.2649274,-3.3420262000000003
13.937788000000001,-8.306529,1.6042299999999998,0.8728216999999999,-1.3469055,-3.8807397000000003
14.817341,-7.546888,0.52383214,0.66680306,-1.4783812,-4.281572
14.666266,-6.8935770000000005,-0.41553766,0.4336445,-1.632232,-4.4838557
14.437122,-7.273364,-1.3212641,0.34049627,-1.6455313000000003,-4.570616
14.005821,-9.004928,-1.5546988000000002,0.41128683,-1.4027909,-4.656329
12.751192,-10.555049,-1.1885391,0.55023247,-1.0099348,-4.8011217
11.563525,-10.935276,-0.09430282,0.59920645,-0.44886377,-4.933138400000001
11.437992,-10.62607,1.2754296,0.6726673000000001,-0.019809486,-4.9294033
11.952334,-10.544734,1.8930473,0.84672904,0.2287603,-4.8080506
12.262393,-11.364136,1.0351666,0.94467694,0.29105112,-4.6265187
11.718266499999999,-13.133642000000002,-0.3244718,0.91753703,0.16116370000000002,-4.331087
11.265179,-14.975233,-0.61880535,0.8430115,-0.051225413,-3.9850754999999998
10.705932,-16.247923,-0.2025782,0.79670787,-0.30354765,-3.5815551
10.494188000000001,-16.502447,0.8939949,0.79616684,-0.55532885,-3.1514363
10.203177,-15.956635,1.8345139,0.7557100999999999,-0.7778409000000001,-2.7569918999999996
9.920155000000001,-15.509179000000001,1.7752240000000001,0.6518979,-0.85610145,-2.478577
9.187700999999999,-15.511477,1.2900053999999999,0.45228463,-0.87365943,-2.266188
8.328595,-15.893352499999999,1.2105947,0.14566518,-0.84119636,-2.0468698
7.373385000000001,-15.719648000000001,0.90959555,-0.3115762,-0.65914106,-1.6859531000000003
6.320787999999999,-15.272229000000001,0.11150276,-0.7656585,-0.42437682,-1.1472223999999998
5.0634494000000005,-14.401985,-0.3331005,-0.9301383,-0.065065876,-0.5653994000000001
3.9730437000000007,-13.321999,-0.37875316,-0.9274853999999999,0.45926595,0.16865116
3.2667446,-12.286411,-0.074181944,-1.1281633,0.6157696,1.4164219
2.6200802000000003,-11.129982,0.13046484,-1.2202643999999998,0.41613886,3.0788830000000003
2.3992487999999996,-10.002792999999999,0.078912884,-0.90299845,0.20533799,4.453329599999999
2.3242335,-9.37466,-0.16609056,-0.33234559999999996,0.06373943,5.306655999999999
2.341491,-9.599982,-0.75949824,0.11798426,0.09354965,5.722411
1.6807584,-9.576663,-1.4372298000000001,0.26064748,0.25005332,5.8911495
0.25867915,-9.579738,-1.8275803,0.10520845,0.4848001,5.882091
-1.1094921999999998,-9.601017,-1.3942491000000001,-0.29721212,0.6945538,5.7479625
-1.7248499,-10.415439,-0.28624117,-0.78004,0.83028805,5.5818769999999995
-3.3245120000000004,-11.304003,-0.9305879000000001,-1.1377453000000002,0.83028805,5.421115
-5.7602386,-12.471665,-2.1075296000000003,-1.2229173,0.69827133,5.292292
-4.818944,-14.002182999999999,-1.3044089,-1.0797305,0.46458918,5.151217
-0.65424913,-14.600081,0.2850728,-0.8289965,0.24153611,4.9276404000000005
3.7893224,-15.522461999999999,0.83881336,-0.7236135,0.19310322,4.5944047
7.108088,-16.496836,-0.10857226,-0.69912654,0.35493016,4.1014714
8.951585000000001,-16.954126000000002,-1.0630735,-0.6698399,0.7296873,3.5254953
9.985085,-16.684723,-1.9229558,-0.5639159,1.2822236,2.970812
10.273854,-16.195787,-2.2863572,-0.43135813,1.7975321,2.450739
10.238056,-15.645523,-1.9173342,-0.23706807,2.2175279999999997,2.023814
10.126534,-15.189428,-0.8413224,-0.07522369,2.4299347,1.7853322
10.098742999999999,-14.653405,0.46294284,0.050911255,2.3351808,1.5787723999999999
10.35995,-14.158064000000001,1.4576954,0.15044738,2.0131151999999997,1.3504136
11.038544,-13.595934,1.7151965,0.28674015,1.4238396,1.0757337
11.958578,-12.812044,1.5421437,0.37615335,0.6562089,0.76005596
12.914458,-11.912916000000001,1.7182131999999999,0.44004986,-0.27639034,0.269793
13.616726000000002,-11.187845,2.0780425,0.49008846,-1.1696323999999998,-0.36472145
13.739633999999999,-10.419613,2.2282932,0.42247438,-1.9329870999999998,-1.060462
13.808013,-9.811889,2.1140895,0.2510656,-2.2821925,-1.6944703999999997
12.732374,-9.186772,1.5234497,0.23190189999999997,-2.1933029,-2.4083099999999997
11.748999000000001,-8.570926,0.6986760000000001,0.28939304,-1.6843998,-3.251531
11.386439999999999,-7.927776299999999,-0.008896854000000001,0.26810002,-1.0046115,-4.036161
11.420314,-7.445364,-0.4752299,0.15789993,-0.52073646,-4.555711
11.57857,-7.078716,-0.8454212999999999,0.13660692,-0.39617229,-4.778764
11.768487,-6.7633615,-1.3265411,0.23509584,-0.62133723,-4.812833
12.798464,-6.9690137000000005,-1.3466523000000001,0.26012388,-0.93327993,-4.9224916
14.414857000000001,-8.381306,-1.1177473999999998,0.33304372,-0.9072046999999999,-5.0779309999999995
15.037904999999999,-9.481258,-1.0614358,0.5624673000000001,-0.69533914,-5.145004
14.872063,-9.717519,-0.15794070000000002,1.005362,-0.3136531,-5.039062
14.995440499999999,-9.781626,1.1148361,1.5046833,0.037664205,-4.829326
14.605291000000001,-10.479994999999999,1.4557129,1.5818791,0.20533799,-4.743630400000001
13.441957999999998,-12.273147999999999,0.8912751,1.3322098,0.20214403,-4.6148076
11.9489155,-14.721333,0.38109946,1.1554778,-0.041119955,-4.472685299999999
10.698998,-16.697584,0.6136722,1.1278143,-0.30087729999999996,-4.217693
9.989394,-17.621984,1.113141,1.252902,-0.549482,-3.8812633
10.180931,-17.778728,1.6059347,1.2055163,-0.79168135,-3.5512214
9.67496,-17.24354,2.5034826,0.9728989,-0.9109222,-3.1546302
8.573205,-16.433436999999998,3.41236,0.81478953,-1.0126051,-2.5302212
7.183687700000001,-15.662379000000001,3.8305218,0.7791324000000001,-1.0290985000000001,-1.8339396000000001
7.0533660000000005,-15.602898000000001,3.0620307999999996,0.78126174,-0.87791806,-1.2281532
7.368490700000001,-16.52636,0.42527726,0.8126601999999999,-0.6660524999999999,-0.73309064
6.461021400000001,-15.487210000000001,-0.15637968,0.8057486999999999,-0.48986155,-0.053302355
5.471306299999999,-14.144244,-0.031651347999999996,0.8531169,-0.42917645,0.7153406999999999
3.926012,-12.5967865,0.81283146,0.94841194,-0.29503044,1.4158983
3.5495765,-12.1509,1.0420619,1.0069677,-0.2231578,2.0685293999999996
2.921606,-11.878477,0.34266773,0.7743502,-0.3093945,2.8760583
1.4590361,-11.027664,0.11189541,0.23349014,-0.19708258,3.6101437000000005
-0.1725549,-9.837124000000001,0.7652635,-0.14070845,0.18298031,4.254781200000001
-0.9276095,-8.615372,1.2320083,-0.22055726,0.4086863,4.7588844
-0.52244353,-8.485529,1.3446219,-0.3797313,0.5694486,5.1139545
-0.52637005,-9.125528,0.72619015,-0.62458354,0.92238903,5.166663
-1.5005131999999999,-9.034931,0.084285475,-0.9109746,1.4382037,5.0218706
-1.3307163999999998,-9.00036,-0.41226238,-1.1313748,1.8598052999999999,4.884531
-0.51249325,-9.6264715,-1.0672872,-1.2910549999999998,2.0360138,4.8217163
0.017314866,-10.870892,-2.544069,-1.4060546999999999,2.0402725,4.8052053
0.743256,-12.334841,-4.6428742,-1.521037,2.0397313,4.7450614
2.6680696,-13.781714000000001,-5.144364,-1.6040623,2.0157855,4.629538
4.752998000000001,-15.076011,-3.713627,-1.6392131999999997,1.8065727999999999,4.4517417
6.3122362999999995,-16.234161,-3.0688207000000003,-1.606209,1.3407968000000001,4.155245
8.110799,-16.685,-2.9040422,-1.4518347,0.7467216999999999,3.7538717000000004
9.633253,-15.914824,-2.285323,-0.959966,0.19842649,3.3642093999999996
9.846116,-14.964286999999999,-1.5192838,-0.26207864,-0.21944025,3.0006225
9.115435,-14.246495999999999,-0.6570264,0.24893631,-0.4030838,2.6248007
8.392414,-13.887509,-0.071596205,0.50499356,-0.20240583,2.1707357999999997
8.319832,-13.727701000000001,0.5718982,0.5864305999999999,0.29635692,1.6868433
8.780572,-13.617166000000001,1.0087538,0.53159237,0.83986986,1.3040924999999999
9.309211999999999,-13.420535000000001,1.4270782,0.33995524,1.2098448,0.99855524
9.735992,-12.93683,1.7844176999999999,0.24520129999999998,1.1805582000000001,0.61367524
10.306109,-12.25227,2.0740201000000003,0.3681772,0.7898313,0.109030716
10.862789999999999,-11.451084,2.8669224,0.51829296,0.1654223,-0.6505889
11.119486,-10.599974000000001,4.248032,0.48209485,-0.5138075,-1.4634411
11.273214,-9.763927,4.393293,0.19729201,-0.9050754000000001,-2.125654
11.458122999999999,-8.860643,3.4675605000000003,-0.07843509,-0.8587718000000001,-2.5483203
11.775708999999999,-7.938492999999999,2.448368,-0.15135495,-0.57396895,-2.9448939999999997
12.012649,-7.163203,1.3292607,0.10786135,-0.34454545,-3.3862004
11.855819,-6.97837,0.004127603499999999,0.5550147,-0.47282714,-3.8344185
11.882164,-6.609893,-0.8898577,0.7887143,-0.89601713,-4.0936522
12.353382,-6.0744824,-0.8530349,0.7583805,-1.4544351999999998,-4.168178
13.208294,-5.9571185,-0.3686879,0.55023247,-1.9207523000000002,-4.173501
14.291469000000001,-7.292517999999999,-0.8982087,0.5001939000000001,-2.0006009999999996,-4.293824
14.776323000000001,-9.61068,-1.8191526999999998,0.64976865,-1.6923758999999998,-4.503560500000001
13.997086999999999,-10.862272,-2.0555849999999998,1.0437068999999999,-1.2068952,-4.669628599999999
12.927196,-10.906153999999999,-0.85666454,1.408341,-0.48080329999999993,-4.644618
11.865185,-10.907867999999999,0.6242641999999999,1.6090364,0.06428047,-4.5030193
11.332858,-11.553115,1.6688543999999998,1.5547392,0.43956116,-4.317229
10.918968,-13.245652,1.2458277,1.2614193,0.5896769000000001,-4.163919399999999
10.281564999999999,-15.277382000000001,-0.029697677000000002,0.9659873999999999,0.46617743,-4.0201910000000005
9.734316999999999,-16.645515,-0.54292834,0.70727724,0.14519393,-3.7897031
9.362889,-16.436884,0.23371239,0.45973718,-0.29396582,-3.4117522000000005
9.727048,-15.829187,2.068437,0.29312804,-0.60110885,-2.9172132
9.378557,-14.813998000000002,3.3654337,0.13395402,-0.7214144,-2.3854287
8.3527565,-13.9495,3.8818726999999997,-0.13112658,-0.68521625,-1.9239113
7.16529,-13.734587,2.6859496,-0.42444659999999995,-0.5063549,-1.58907
6.5437074,-13.699622,1.1947450000000002,-0.6528055,-0.29822442,-1.3223836000000002
6.191798,-13.746406,-0.67385286,-0.7619235,-0.21464059,-0.9651844999999999
5.9567547,-13.476070000000002,-1.6986189999999999,-0.71507883,-0.4957084,-0.4834213
5.327347799999999,-12.996828,-1.7786428,-0.5037543999999999,-0.75763,0.10848966
4.2285337,-12.485389,-1.6784216,-0.40100685,-0.7102443,0.6818128999999999
3.0614178,-11.933947,-1.5162958,-0.55059904,-0.369556,1.4701955
2.3984444,-11.369595,-0.96171254,-0.7214668000000001,-0.08262388400000001,2.6530225
2.1540537,-10.511206,-0.8593173000000001,-0.41964698,0.014241886,3.7634535000000002
2.2366345,-9.488078,-0.92458326,0.10414380000000001,0.0312763,4.5677886
2.6025452999999996,-8.948071,-0.6483211,0.56194365,0.17978637,4.997366400000001
2.658943,-9.365973,-0.30634290000000003,0.6199584,0.4757593,5.203926
1.9322741,-10.153666000000001,-0.006952761700000001,0.34101987,0.8111243,5.276846
0.5881883000000001,-9.969562,0.27790937,-0.12899728,1.1746938,5.2869515
-0.07856812,-10.251407,0.56475383,-0.5798682,1.4009409,5.1741157
-0.26150426,-11.260800999999999,-0.09776004,-0.8348608000000001,1.4419386,4.949474299999999
-1.3339726,-12.387485,-1.0033140999999999,-0.8162381,1.2694652,4.7067165
-2.2439702,-12.703911999999999,-0.45238918,-0.60596085,0.9692337,4.506562000000001
-0.087943815,-13.132647,0.7710383000000001,-0.41964698,0.58541834,4.283003
3.3641883999999997,-13.974198999999999,0.77602786,-0.43881068,0.29689795,3.9801010000000003
6.3970385,-15.068071,-0.19190964,-0.5202652,0.21279055,3.6788049
8.050991999999999,-15.733046,-1.7897998,-0.5601809,0.30276227,3.3769852999999994
8.986339,-15.692096,-2.4866085,-0.5958554,0.59128267,3.127857
9.313167,-14.954816000000001,-2.3957338,-0.5703038,0.9974381999999999,2.9367433
9.560163000000001,-14.071767999999999,-1.4412616000000003,-0.39570105,1.4499148000000002,2.6876152
9.668533,-13.308476,-0.18941008,-0.15774286,1.8337302,2.246326
9.566157,-12.7522745,0.94414866,0.09030333,2.0844467,1.5883718
9.395049,-12.222036,1.3287628,0.25000095,2.160037,1.0560464
9.628109,-11.914916999999999,0.9823601000000001,0.32984978,1.8470296000000002,0.6903301
10.119227,-11.5580845,0.53676087,0.38467056,1.1566123,0.361894
10.397817,-11.171527000000001,0.7541161,0.35753068,0.32883748,-0.092170835
10.525561,-10.809744,1.4002153999999998,0.2861991,-0.44034657,-0.7160562
10.66116,-10.447396000000001,1.6390896000000001,0.21434389,-0.9769306000000001,-1.304267
10.824846,-9.881876,2.2527714,0.17919296,-1.3527523000000001,-1.6827592
11.541143,-8.980258000000001,2.6692476000000003,0.26757643,-1.4746636,-2.0404818
12.660386,-7.661455,2.5352392000000004,0.51296973,-1.3256124,-2.6606324
13.339803,-6.855557000000001,1.7165661,0.76955056,-1.0881953000000002,-3.4825428
12.555462,-6.7802353,0.5278161,0.90741414,-0.88430595,-4.2123694
11.898234,-6.7881174,-0.37331352,0.9313775,-0.88804096,-4.679209999999999
11.691481,-6.782505499999999,-0.9845341000000001,0.79616684,-1.0988418,-4.734048400000001
12.190988,-6.5669889999999995,-1.2543031,0.55182076,-1.2989962,-4.564769
13.243095,-7.731241000000001,-0.97965944,0.4805066,-1.4182371,-4.414112
13.652254999999998,-9.827326,-0.34542584,0.5933596,-1.4161078,-4.4231706
13.185904,-10.87865,0.5932257,0.76262164,-1.1930546999999998,-4.54667
13.135979999999998,-10.368474,1.8095281000000003,0.90795517,-0.8683361999999999,-4.644618
13.436078,-10.079828,2.5678484,0.8776039000000001,-0.478674,-4.680275
13.516570999999999,-11.143659,2.3356493,0.6928956999999999,-0.15184364,-4.665387
13.111003,-13.646375,1.4059614,0.4118279,0.017959438,-4.6116138
11.897545,-16.526972,0.67024237,0.18771017,0.027541295,-4.5264416
10.2491665,-18.238224,0.12967953,0.062081363,-0.022479841,-4.3933599999999995
9.344636999999999,-18.269875,0.34146106,0.07433357,-0.14172074,-4.1612663
9.331325,-17.250116000000002,1.6594021,0.17228144,-0.2705435,-3.8328127999999997
9.5079975,-16.108774,2.1822383,0.2861991,-0.33868113,-3.4495385
9.353428,-15.433264000000001,2.3157291,0.32930872,-0.32004103,-2.9757688
8.940543,-15.261954000000001,1.7767754,0.26010639999999996,-0.1752485,-2.5009346000000003
8.416528999999999,-15.267554999999998,0.78434044,0.16109389,0.08077384,-1.9611741000000003
7.852512400000001,-15.12036,-0.15807477,0.03440044,0.32138494,-1.3468531000000001
7.232759,-14.844903,-0.4671375,-0.16945402,0.5066342,-0.56646407
6.5759144,-14.351199,-0.22382914,-0.49684290000000003,0.5470909,0.35018286
5.8218174000000005,-13.910063000000001,0.23606828,-0.82901394,0.48055896,1.3147565
4.701676,-13.002019,0.9144796999999999,-1.0147868,0.21917845,2.337886
3.6626879999999997,-12.061853999999999,1.1696537,-0.86095345,-0.18430677,3.2965953000000003
2.4505036000000002,-11.087739,1.1944959,-0.5511226,-0.4552517,4.094019
1.3846339,-10.223577,0.64261335,-0.36269686,-0.5058313,4.6055746
0.7040389,-9.830066,0.13398911,-0.46329764,-0.411601,4.9100823
-0.34330934,-9.462269000000001,-0.24424689,-0.59318507,-0.28064895,5.1368529999999994
-1.8245828000000002,-8.874186,-0.9813736999999999,-0.6671696,-0.12201597,5.3135853
-3.2088432,-8.986675,-2.1033828,-0.68526864,-0.025673794,5.477541400000001
-3.6613953,-9.794794,-3.0626917000000002,-0.58892643,-0.014486233000000001,5.654797
-3.6974517999999996,-10.456235000000001,-3.2424388,-0.28975955,-0.09594075,5.810777
-2.728279,-11.285453,-2.3963277,0.06901032,-0.20347048,5.9167185
-0.13826036,-12.239494,-1.1313561,0.18718657,-0.25989696,5.8549514
2.6839192,-13.396181,-0.8373480999999999,0.00991347,-0.19814722,5.5983706
5.4273105,-14.534692000000001,-1.3864246999999998,-0.2674019,0.0019896755,5.1847625
6.9995637,-15.498184,-1.8757229,-0.47181484,0.33203143,4.688094
8.003538,-15.972016,-1.3856491000000002,-0.59744364,0.77440256,4.194096
8.535175,-16.345272,-0.7898184,-0.5074719,1.2039803999999998,3.7820761
8.701553,-16.655695,-0.23134692,-0.16784832,1.6149358,3.2960718
8.946097,-16.817733999999998,0.41139090000000006,0.22816689999999998,2.0791235,2.6998672000000004
9.483691,-16.754978,1.1827356000000002,0.44696137,2.5800505,2.1079214
10.156452,-16.433178,0.94962656,0.4959353,2.849407,1.755522
11.050265,-15.772789999999999,0.23139481,0.37669440000000004,2.7567825,1.526081
12.047258,-15.02984,-0.33774525,0.27768190000000004,2.19997,1.2817523000000002
12.774723,-14.154645,0.20037553,0.26384142,1.2311378000000002,0.8436398
13.140404,-13.432955999999999,0.94936806,0.30642745,0.27028167,0.22294836
13.039646000000001,-12.791807,2.0258393,0.3426256,-0.6985331,-0.53452456
13.164441,-12.03026,3.1249888,0.38414696,-1.4831808000000002,-1.198343
13.6449,-10.817347999999999,3.8864214,0.45280823,-1.8882717,-1.7769720000000002
13.878306,-9.689411,3.0988345,0.6306224,-1.8036406999999999,-2.4221504
13.625239,-9.622967,1.7545283999999999,0.79297286,-1.3958793999999999,-3.1583652
12.91918,-9.427543,0.19834524,0.7668977,-0.94659674,-3.8184487999999996
12.37063,-9.062714,-1.0552397,0.60559434,-0.7900931,-4.304453400000001
12.641088,-8.113441,-1.197915,0.42779765,-0.9460556999999998,-4.5439997000000005
13.425668,-7.135171400000001,-1.234278,0.24415411,-1.3021902,-4.582326999999999
14.525028,-7.1168504,-0.9301282,0.10414380000000001,-1.6796001,-4.4566984000000005
15.194725,-8.396638000000001,-0.5311872,0.13182472,-1.9148880000000001,-4.3459744
14.83955,-9.357804,0.083212875,0.2947163,-1.9777023999999999,-4.3646145
13.908933,-9.002294000000001,1.187275,0.45067890000000005,-1.8462266999999999,-4.5067544
13.599784,-8.6508255,1.9687424999999998,0.40598103,-1.5108618,-4.6765574999999995
12.923259,-9.3212595,1.7885547999999998,0.22232004,-1.0248399,-4.778222599999999
12.014191,-11.265543,0.5457056,-0.004956735,-0.55213493,-4.778222599999999
11.126583,-13.5154505,-0.01913446,-0.19926424,-0.2311514,-4.7154083
10.284552,-15.564370000000002,-0.37092888,-0.31051153,-0.09327039,-4.6126785
9.705558,-16.901379000000002,-0.12676819,-0.30944687,-0.10711086,-4.4449873
9.150323,-17.295073000000002,0.6060778,-0.21949259999999998,-0.22635175,-4.249091
9.30381,-16.959194,1.7967621999999999,-0.10503391,-0.42331216,-3.9004269
9.668974,-16.32725,2.5004372999999998,-0.014014994,-0.5697104000000001,-3.4506031999999998
9.846748,-15.973242,2.319828,0.08019788,-0.6458242,-2.9560816
9.670217999999998,-16.018732,1.6681168999999998,0.18825121,-0.59472096,-2.6159169999999996
8.922108,-16.175438,0.9700348,0.18879226,-0.5026374,-2.3577478
8.115310000000001,-16.021921,0.6823762,0.0035430184000000003,-0.2604206,-2.073486
7.291388,-15.633725,0.48170379999999996,-0.38025490000000006,0.12390092,-1.6997936000000002
6.523031,-15.055468,0.6586065999999999,-0.71616095,0.58915335,-1.1509573
5.7824855,-14.507204999999999,0.96092725,-1.0690839,0.8984257,-0.39399064
5.009550599999999,-13.730516,1.1035546,-1.3378996,0.99211496,0.66638416
3.8853872000000003,-12.9954195,1.118571,-1.2197407,0.89470816,2.2979529999999997
2.8472326,-12.343105,1.1812991000000002,-0.6980444,0.52633893,3.9007932999999997
2.6934388,-11.760079,1.3048878000000002,-0.25782004,0.11058406,5.1443057
2.5654733,-11.2772455,0.9104861999999999,-0.19926424,0.0919614,5.979515599999999
1.3089674999999998,-10.339944000000001,0.08842266,-0.42442918,0.27933994,6.4117812999999995
-0.22287144,-10.03319,-1.0086963,-0.67516315,0.5188864000000001,6.5778666
-1.6104646,-10.263808000000001,-1.7567598999999998,-0.8039685000000001,0.6067113000000001,6.519311
-2.6897802000000004,-10.271806,-2.1044745,-0.709232,0.49439943,6.320221
-3.163909,-10.402223,-2.259839,-0.20458749,0.33044317,6.1014266
-3.3713233,-11.647772999999999,-1.9181960999999998,0.55023247,0.14306463,6.0556470000000004
-3.4762852,-12.758432,-0.2778806,0.96918136,-0.07677703,6.0513883
-1.2861268999999997,-13.657053,0.37187698,0.65298,-0.16940166,5.8432574
2.665618,-14.936982999999998,-0.4990378,-0.11302752,-0.11671016,5.40141
5.748094999999999,-16.355107999999998,-1.5917037,-0.5074719,0.033405602,4.88666
8.133026,-16.710752,-1.6378446000000002,-0.4664916,0.32883748,4.4746404
9.1877775,-16.511219,-0.765886,-0.30731758,0.7429866999999999,4.218583
9.78537,-16.175495,0.19474436,-0.019338248,1.2082391000000001,3.9226099999999997
10.374995,-16.196754000000002,1.3450147,0.34049627,1.6926552,3.2880955000000003
10.839364999999999,-16.591260000000002,2.6324822999999995,0.6295576999999999,2.1552548,2.321916
10.810481,-16.81852,2.5163443,0.8265181,2.5513048,1.3733123999999999
11.264068,-16.804346,0.47435839999999996,0.7791499,2.6386062999999997,0.6892829
12.19999,-16.029936,-1.6905075,0.62049943,2.3075,0.23146556
13.19682,-15.310153,-1.7733948,0.46399578,1.4616258999999998,-0.19703022
13.77413,-14.76914,0.5149353,0.22127284,0.23781857,-0.71923274
13.815837,-14.656163000000001,2.1154976000000003,-0.10609856,-1.32933,-1.304267
14.063531,-14.20069,2.8296783,-0.2759191,-2.5504843999999998,-1.8195581000000003
14.970502999999999,-12.340491,3.4376523,-0.23972097,-3.1312604,-2.3891463
16.5585,-9.785072999999999,3.1139753,-0.08375835400000001,-3.049282,-3.1881754
17.329710000000002,-7.6912007,2.2242037999999997,-0.08267625,-2.4248557,-4.1463614
16.000267,-6.859589,0.6997198,-0.18488273,-1.674277,-4.866065
14.310277,-6.3699365,-0.85529506,-0.21895155,-1.0072819,-5.27435
13.278138,-6.1489706,-1.8114721999999999,-0.13803808,-0.5665164,-5.2983136
13.07306,-6.392930000000001,-2.2317312,-0.053930674000000005,-0.32855824,-5.0422564
13.777137,-7.639467,-2.6049106,0.04612905,-0.20559978,-4.7766347
14.416494,-9.490778,-1.8557266,0.24841271,-0.20292944,-4.6541996
14.490560999999998,-10.097038000000001,0.1308096,0.47518334,-0.27693140000000005,-4.6595054000000005
14.604171,-10.2620945,2.2156997000000005,0.69556606,-0.41905355,-4.69785
15.034858999999999,-11.055839,3.1583064,0.8792095999999999,-0.63304836,-4.7026324
14.817197,-12.821707,3.0174412999999998,0.91327846,-0.8262912,-4.644076999999999
13.580151999999998,-15.087005,2.6039338,0.7280291999999999,-0.9460556999999998,-4.526965000000001
12.184581,-17.025751,2.5118911,0.40969858,-0.93008596,-4.320423
10.40565,-18.046286,2.2451098,0.11852531,-0.866748,-4.057454
9.151222,-18.063698000000002,1.8048354,-0.105574965,-0.7485717,-3.783839
8.993043,-17.635220999999998,1.8033702,-0.24610887,-0.63304836,-3.5150057999999995
9.316634,-16.984602,1.9257616999999998,-0.34938002,-0.4589867,-3.1849642000000005
9.173708999999999,-16.531416,1.8734629,-0.38557813,-0.29609509999999994,-2.845358
8.902063,-16.280839999999998,1.7735096000000001,-0.40100685,-0.07677703,-2.4988053
8.407785,-16.229526999999997,1.4098305,-0.39142498,0.08822639,-2.1480117
7.827833,-16.036171,0.68529713,-0.47394416,0.11803662,-1.7338624
7.127892500000001,-15.492485999999998,-0.0068953009999999995,-0.5601809,0.17872171,-1.2835151000000002
6.224924,-14.829445999999999,-0.17532260000000002,-0.5346291999999999,0.32777283,-0.7996226
5.5431514,-13.924447,0.13953407,-0.38664278,0.55401987,-0.09536479
4.942322,-12.960177,0.563394,-0.24717353,0.54815555,1.0400766
4.3947296,-12.127321,0.9310379999999999,-0.29082420000000003,0.33416075,2.2543022999999995
3.5322709999999997,-11.324373,1.2306197,-0.32115802,0.12548918,3.3594098
2.9212613,-10.445155,1.4229028000000001,-0.25621432,0.00837758,4.2223180000000005
2.5319545,-10.078354,1.3516992,-0.21575761,0.021694442,4.7812595
1.7751473000000002,-9.667728,0.9063011000000001,-0.22853342,0.14465289,5.075103299999999
0.6195524,-9.309834,0.24364354,-0.19339994,0.226631,5.373729
-0.2648083,-9.356684,0.2284643,-0.057124626,0.19416788,5.682494999999999
-1.1363169,-9.795896,0.36053807,0.1557881,0.11218976,5.978451000000001
-2.754309,-10.089559,0.13413276,0.27768190000000004,-0.011292281000000001,6.1908574
-4.139824,-10.646114,-1.0701987,0.47678906,-0.08794714,6.3856883
-3.4898362,-11.493986999999999,-1.9318813000000001,0.73921674,-0.12788028,6.5139875
-0.6467409000000001,-12.410574,-1.7715656000000002,0.7599686999999999,-0.13746212,6.403787599999999
2.1879172000000002,-13.577067000000001,-1.1754094,0.52522194,-0.12733923,6.0923685999999995
4.956505,-14.520422,-1.1206397,0.28832838,0.0009250244999999999,5.647344599999999
6.5143166,-15.208553,-0.8010041999999999,-0.00017453292,0.36397097,5.1102365999999995
6.951086,-15.817945000000002,-0.32317892,-0.36534977,0.88086766,4.6545663
7.3780966,-16.392284,0.08218816,-0.434011,1.4499148000000002,4.4065027
8.026724,-17.031384,0.06064034,-0.13803808,1.7820859,3.960414
8.819674000000001,-17.639442000000003,-0.17916289999999999,0.34264305,2.0573068,2.8366835
9.614951,-18.149189,0.33931586,0.769027,2.3889367999999997,1.4568961999999999
10.82114,-18.34154,0.3071282,0.8238478000000001,2.7370777000000004,0.513598
12.143295,-18.122861999999998,-0.38850233,0.5103168,2.8270494999999998,0.14098770000000002
13.190337,-17.510733,-0.81052345,0.10681415,2.4586802000000003,0.08349655
14.019343,-16.589655,-0.15813223,-0.20191714,1.5462744,-0.077265725
14.666382,-15.660914000000002,-0.2539865,-0.30784118,0.28625146,-0.5079083
14.74358,-14.965819,0.5750202,-0.25675538,-1.0865896000000002,-1.0530095
15.238414,-13.9726095,2.1510372,-0.11248647,-2.2550526,-1.4416069999999999
17.123207,-11.466781,3.2154990000000003,0.09349729,-3.015737,-1.8350042000000002
18.784554,-8.379869,3.1230542999999997,0.36765359999999997,-3.1738462000000003,-2.4737772999999996
17.83486,-7.0203547,1.8710973999999998,0.42887977,-2.756503,-3.3047459999999997
15.139916,-7.5141925999999994,-0.62656254,0.28726375,-2.0990727000000002,-4.1570077
12.542782,-7.748556,-2.3449578,0.07435103,-1.5970985,-4.792587
11.348536,-7.607375,-2.9929914,-0.109292515,-1.3836271999999998,-5.038521299999999
11.517106,-6.8881855,-2.5617192,-0.2759191,-1.3916209,-5.030004
12.458938,-6.971149400000001,-1.5166788,-0.32276374,-1.3607459,-4.9794415999999995
13.038239,-8.592924,-0.34384567,-0.20404644,-1.2335114,-5.0571613
12.973154,-9.874176,0.9057552,-0.095452055,-0.9529847,-5.208865
13.131295999999999,-9.969532000000001,2.3383594,0.08391543,-0.60323817,-5.2637032999999995
13.944453,-9.779606,3.1593504,0.21966714,-0.2918365,-5.191831
14.23215,-10.747494999999999,2.6630895,0.2814169,-0.050684362999999996,-5.078995
13.857639,-13.296410999999999,2.0021176,0.30909780000000003,0.017959438,-4.941637999999999
12.888035,-16.47799,1.6442131999999998,0.29152235,-0.044296455,-4.7563887000000005
11.573302,-19.014845,1.3932626000000001,0.27131143,-0.17153096,-4.4641333
10.617672,-19.922852,1.7059262,0.34475487,-0.44727552,-4.1053634
10.510651,-19.65266,2.564602,0.46293113,-0.8214915999999999,-3.7556343
10.768449,-18.995989,2.9627767000000005,0.5853834,-1.0711608999999997,-3.4915836000000002
10.4819975,-18.664038,2.9646633,0.60135317,-1.0988418,-3.2328734
9.420954,-18.54223,2.9096735000000002,0.49328240000000007,-0.87952375,-2.9177367999999997
8.570437,-18.422022,2.16025,0.23137829999999998,-0.46005133,-2.5333977
7.9741955,-18.091085,1.600792,-0.08000589,-0.040578905,-2.11499
7.170068700000001,-17.540747,1.1967753,-0.42017058,0.30489156,-1.5155915
6.3791394,-16.783161,0.8983045000000001,-0.54154074,0.4800179,-0.63193136
5.2055115999999995,-15.842031,1.1002698,-0.48085567,0.53963834,0.25329962
4.092792,-14.455279999999998,1.472166,-0.41271800000000003,0.5779658000000001,1.0917208999999999
3.6027658,-12.957229,1.8413327000000002,-0.4212352,0.53485614,2.0972748
3.281129,-11.76234,1.7682136999999998,-0.35522687,0.37355283,3.2369924
2.373123,-10.815586,1.5438865,-0.15720181,0.16648696,4.2223180000000005
1.1790581,-10.067378999999999,0.9601898000000001,0.015795228999999997,0.13454743,4.862173
0.06671204,-9.653651,0.19783768,0.06476917,0.2809282,5.216719
-0.7342920999999999,-9.853596000000001,-0.50668013,0.020053834,0.41826814,5.445078400000001
-2.6704445,-9.734019,-0.9366021000000001,-0.06084218,0.5364444,5.610099
-3.8471277,-9.645128,-0.38680723,-0.095452055,0.6588792,5.7282753
-3.7720745000000004,-9.636298,-0.13901693,-0.2184105,0.6743254,5.7958717
-3.619037,-10.168845,-0.46540410000000004,-0.51492447,0.5779658000000001,5.809189
-3.4080407999999998,-11.263033,-0.8308549999999999,-0.81142104,0.40762165,5.742116
-1.9296787,-12.425179,-0.6398935,-0.9759183000000001,0.29796259999999997,5.580289
0.8489456,-13.212067000000001,-0.33736217,-0.9242739999999999,0.3368311,5.365229
3.9244032,-14.083892,-0.5330259,-0.93279123,0.48747045,5.068732700000001
6.018831700000001,-14.947385,-0.7255005,-1.0243512,0.7584328,4.7732835
7.0591793,-15.555416000000001,-0.83508795,-0.94130844,1.1012503999999999,4.473593
7.8329086,-16.241058,-0.7594504,-0.47073275,1.4142578000000001,4.199978
8.590377,-16.588236,-0.64678884,0.12013101,1.818825,3.7315313999999997
9.104823,-16.752489999999998,-1.0318626,0.47465974,2.389478,3.0565425999999998
9.576644,-16.703482,-1.2934244,0.614129,3.1160933999999996,2.219186
10.30541,-16.599901000000003,-0.70499665,0.4970174,3.6718411,1.5452621000000002
11.080364999999999,-16.54265,0.44341573,0.21327923,3.8001404,1.195533
11.837077,-16.532787,1.3686789,-0.15027285,3.4493291,1.0241243
12.429058,-16.468287,1.5684702,-0.426541,2.5310764,0.82023495
12.833302999999999,-16.276215,2.1234748,-0.43666393,1.1661941,0.4481482
13.236067000000002,-15.481416000000001,3.6213832000000004,-0.16943656,-0.42224750000000005,-0.11716395
13.894606,-14.087675,4.8186374,0.17336355,-1.8989183,-0.6479010999999999
15.151589999999999,-12.212555,4.3792634,0.47413614,-2.9475994,-1.0849316
15.893373,-10.254213,3.2485294,0.8483521999999999,-3.488983,-1.5789295
15.575737,-9.025489,1.6106561000000001,1.1938401,-3.5107996,-2.3114092
13.98344,-8.581814999999999,-0.1413824,1.26676,-3.1211374,-3.1152208
12.197078,-8.368836,-1.5279891,1.0293428,-2.5946762999999997,-3.819496
11.373797999999999,-8.036301,-2.258527,0.71898836,-2.2656991,-4.3225346
11.175549499999999,-7.1648307,-1.8227824000000001,0.33412582,-2.179986,-4.6387362
11.957764,-6.623367999999999,-0.51559615,-0.02942625,-2.1437879,-4.871894999999999
13.125148000000001,-7.621625,0.59466225,-0.20563470000000003,-2.0261526,-5.13701
13.627604500000002,-9.089366,1.4167258,-0.11672762,-1.7961881000000002,-5.4382887
13.585716,-9.94697,2.2550602000000004,-0.020926498,-1.4544351999999998,-5.669318
13.765702,-9.527142,3.2940671000000004,-0.021450097,-0.9263684000000001,-5.717751
13.846117999999999,-9.235633,3.2579339,0.032829642,-0.44886377,-5.6320553
13.418992999999999,-9.911861,2.0417464,0.11428416,-0.06771877400000001,-5.417536699999999
12.786665,-11.877539,0.86936337,0.14727089,0.10580186,-5.077372
12.351782,-14.338989000000002,0.30866048,0.116937056,0.11325441,-4.720714
11.939769,-16.517157,0.16700035,0.070092425,0.072797686,-4.347544999999999
11.90376,-17.790526999999997,0.7973266,0.025377087000000003,-0.042708207000000005,-3.999422
11.998819000000001,-18.130101999999997,1.9766337999999999,0.031241393,-0.25350907,-3.6044364
11.803165,-18.204197,2.7534852,0.03176499,-0.44034657,-3.2355263
10.979847999999999,-18.458893,2.4575044999999998,0.018465584,-0.5223247,-2.8458639999999997
9.842697,-18.848295,2.1322951,-0.022514747,-0.48186794,-2.4450142
8.893175999999999,-18.98694,1.9561011000000001,-0.17954202,-0.31100023,-2.0271475
7.739103999999999,-18.660877,1.4734108,-0.36904988,0.0073303827000000005,-1.6790067
6.5792856,-17.64179,0.8060798,-0.6080727,0.43636720000000007,-1.2350473
5.7661953,-16.245281,0.50809747,-0.6852512,0.75736815,-0.73466146
5.1829295,-14.958454999999999,0.33981383,-0.4867025,0.9000314,0.05635668
4.521038,-13.671064000000001,0.49013140000000005,-0.076270886,0.73872805,1.0486113000000001
3.6617017,-12.52835,0.6860058000000001,0.5358859,0.32564354,2.2016282000000005
3.0268648,-11.281728,0.8582351,1.1336786,-0.08155923,3.1353269
2.4129052000000004,-10.361684,1.0185221,1.4583972,-0.33281684,3.7262082000000003
1.8888144,-9.7439995,0.85043955,1.386542,-0.30459487,3.970554
1.5513086,-9.351493,0.7082527,0.9585523000000001,-0.11295771,4.0067525
0.91724735,-9.038734,0.55962074,0.38842303,0.13348278,4.002476000000001
0.10556514,-9.036760000000001,0.38988137,-0.18538888,0.34428364,4.053056
-0.70250666,-9.568494,0.91347414,-0.6655639,0.5151514,4.1829433
-2.2120986,-10.058702,1.3125589,-0.9769655,0.6221575,4.373515599999999
-3.2986449999999996,-10.148456,1.6239871000000001,-1.1968071000000002,0.7419395000000001,4.6189265
-2.369436,-10.448497,1.5270122,-1.1941543,0.89470816,4.862731500000001
0.37950012,-10.893015,0.3404459,-1.256445,1.0788927,4.96705
3.3230274,-11.487762,-1.144687,-1.6604713,1.4041523,4.9154230000000005
5.704041999999999,-11.895256,-2.9077866,-2.2976737000000003,1.6176059999999999,4.691846400000001
7.052743400000001,-11.759658,-3.8575760999999997,-2.8305225,1.7464288000000001,4.5411897
7.1566424,-11.625697,-3.9649894,-2.9188886000000003,1.7139482,4.542795
6.8609295,-11.663296,-3.5620644,-2.5712888,1.4238396,4.6056099999999995
6.622027,-12.051769,-2.834639,-1.8664900000000002,1.0208606,4.499668
6.7095970000000005,-12.52405,-1.930598,-0.80290383,1.0395006,3.7661412000000003
6.8452234,-12.915453999999999,-1.084717,0.23565435,1.4137342,2.7094665
7.6399740000000005,-12.921555,-0.3406949,0.9729163000000001,1.8337302,1.8242182
9.104172,-13.156072,-0.7040581,1.2236503,1.9982275,1.4121983
10.401389,-13.540723999999999,-1.661959,0.9500351,1.7932734000000001,1.3046685
11.163473,-14.166146,-1.3317316000000001,0.46136034,1.3477083,1.1747637
11.549888000000001,-15.049923000000001,-0.044608764,0.006213371999999999,0.61950463,0.72762775
11.98816,-15.573554999999999,2.1680167,-0.24926792,-0.22687535,-0.017610373000000002
12.882893,-15.09573,3.9050483999999996,-0.3993837,-1.0445271999999999,-0.67662925
14.716152,-12.898886,5.5824165,-0.28759536,-1.5193615,-1.0481924
16.825502,-9.987594999999999,6.8202667,0.2425833,-1.7078046999999998,-1.4415896000000001
16.602552,-8.0991535,5.998778,0.9846275,-1.7184511000000002,-1.9792383000000002
14.481932999999998,-8.204833,3.38135,1.49566,-1.6636304,-2.5770310000000003
12.2301,-8.739507000000001,0.5113439999999999,1.5861551999999999,-1.7855417000000002,-3.0220550999999998
10.9879875,-8.558485000000001,-1.8911991000000001,1.425934,-2.1107838,-3.3334742
11.340222,-7.547577400000001,-2.677474,1.0884397,-2.4514720000000003,-3.5384107000000005
13.173223499999999,-7.541898,-2.1642723,0.80046034,-2.6484325,-3.7816919999999996
14.38331,-8.518895,-1.0654198000000001,0.7152708000000001,-2.5808357999999996,-4.133026999999999
13.862801999999999,-9.485301,0.41578665,0.7866199,-2.3130674,-4.511502
12.792488,-9.52333,2.61918,0.77169734,-1.8669786,-4.820250499999999
12.434947,-8.828225999999999,4.5113080000000005,0.642892,-1.2755564,-4.9687777
12.061519,-8.371259,4.709787400000001,0.5438795,-0.7128972,-4.949073
11.543863,-9.27416,2.6182415,0.46987754,-0.2795843,-4.796828
10.988533,-10.728848,0.66297364,0.40652209999999994,-0.040561453,-4.550894
10.449695,-11.961478999999999,-0.49874094,0.33147293,0.039252456,-4.2341685
10.205294,-12.770174,-0.613088,0.2931455,-0.011815879,-3.8812282
10.552339,-13.051644999999999,0.6151087,0.2931455,-0.17151349999999999,-3.497954
10.884203999999999,-13.432114000000002,1.9205998,0.30911526,-0.39296088,-3.1636536
10.721407000000001,-13.932157,2.4033954,0.27078784,-0.5153957,-2.9491353
10.0395775,-14.604372,1.8856732,0.0418879,-0.4052131,-2.7931552
9.167589999999999,-15.324356,1.3564398000000002,-0.28494245,-0.00010471976000000001,-2.6121645
8.293476,-15.767187,1.1373991,-0.6836455,0.64770913,-2.2576357999999996
7.528711,-15.951867000000002,0.63917524,-1.061073,1.1497008,-1.5980933000000002
6.7490726,-15.669753,0.2837608,-1.1893546999999998,1.3839238999999999,-0.77457714
6.000616,-15.138106,0.07929596,-1.1281458999999998,1.2795707,0.25598744
5.324015,-14.288758999999999,0.14963761,-0.9993232,0.80314815,1.3967521
4.625128299999999,-13.259597,0.27163655,-0.6197838999999999,0.08824385,2.4635322
4.4387927000000005,-12.307087,0.3101736,0.0051661744,-0.45471063,3.104993
4.2688809999999995,-11.505442,0.10620679,0.6934541999999999,-0.7065093000000001,3.4350348
3.5628976999999997,-11.101712,-0.5570924,0.9952915000000001,-0.7751705,3.4829442999999998
2.0763667000000003,-10.678398,-0.8176869000000001,0.71261793,-0.65540606,3.480815
-0.17806157,-10.510181,-1.1567155,0.015271631,-0.37327355,3.4941142
-2.4374123,-10.468053,-1.3900735,-0.87634724,0.020106193,3.5521464
-3.6373480000000002,-11.120368,-0.9806937,-1.4427589,0.3969926,3.620284
-3.89256,-11.339639,-0.8949526,-1.7861001,0.7259696999999999,3.6601998999999994
-3.3945087999999997,-11.260083999999999,-0.7816877,-2.0166058999999996,1.1071147,3.7075856
-0.9303771999999999,-10.822453,0.5103479999999999,-2.2252598,1.5010355,3.7719882000000005
2.095166,-10.469451,1.1232445,-2.3099084,1.8395945,3.8167036
4.98197,-10.9751835,0.24072261,-2.3221605,1.9758698000000001,3.8539662000000003
6.878379,-11.604217,-1.9604776999999998,-2.2327125,1.7922088,3.9269035000000003
7.378432000000001,-11.858721000000001,-3.9338074,-2.042681,1.328021,4.043474
7.4041834,-11.707397,-4.987744999999999,-1.7089043000000002,0.80049527,4.252146
7.1199727,-11.1616335,-4.3766394,-1.0738486999999999,0.20961404,4.5071383
6.953145,-10.567316,-2.4814656000000004,-0.3440393,-0.36369172,4.5907044
6.889315600000001,-10.139789,-1.2415947,0.2957984,-0.7144854,4.3005958
6.558044000000001,-9.954104,-0.43689390000000006,0.8185594,-0.6692465,3.6506355000000004
6.5049980000000005,-10.008844999999999,0.2808303,1.1267672,-0.30672416,2.775475
6.89239,-10.739086,0.95691454,1.1400665,0.25378832,1.8987436000000002
7.446704400000001,-11.864199000000001,1.3220303,0.9580287000000001,0.7413984,1.2540889
7.748317,-12.865366999999999,1.6390226000000003,0.70781827,0.79676026,0.86868525
8.156011,-13.585381,1.8959683999999997,0.42942079999999994,0.40603340000000004,0.38426915
8.4482565,-13.846951999999998,2.555341,0.16751671,-0.40201914,-0.28590238
9.567497999999999,-13.892681,3.5398655,0.11267845,-1.2729036,-0.9103288
11.686702,-13.112047,3.3602046999999997,0.2633353,-1.7764833999999998,-1.5033393
14.149655,-11.665681,2.8759055,0.5928534000000001,-1.7674251,-2.1618169999999997
15.898810999999998,-10.043695,2.3050512999999997,0.9553583000000001,-1.4613466999999998,-2.7660153
16.074747,-8.316193,1.306286,1.1746763999999998,-1.2356408,-3.3180454
15.421761499999999,-7.6303306,-0.012823343999999999,1.2050277,-1.3554051999999999,-3.7545347000000002
13.99274,-7.528653,-1.015448,1.002203,-1.820134,-4.009526999999999
13.220935,-7.540174499999999,-1.669295,0.70303607,-2.2843218,-4.1548433
14.184554,-8.134482,-2.0915077,0.44751987,-2.575495,-4.311888
14.966949,-9.061478999999999,-1.5525057,0.34637803,-2.5387732999999995,-4.5445056
14.753060999999999,-9.401791000000001,0.19755037,0.38257617,-2.179445,-4.7723413
13.9895315,-8.827432,1.9040128,0.38522908,-1.667889,-4.9474849999999995
13.075281,-8.414777,3.159561,0.24469516,-1.0296220999999999,-5.0731134
12.246696,-9.094452,2.9876382,0.059445914,-0.36262706,-5.0885425
11.65415,-10.933457,1.6463872,-0.092240654,0.23994787,-4.949073
11.075979,-12.979562,0.35078886,-0.1587726,0.57798326,-4.670675800000001
10.500835,-14.20319,-0.3233034,-0.13269739,0.65676737,-4.253332599999999
10.304663,-14.711085999999998,-0.124086685,-0.019844393999999998,0.46991244,-3.7646577000000003
10.55613,-14.667501999999999,1.0419374,0.11321951,0.11218976,-3.2845001000000003
10.625735,-14.54624,2.0510262999999997,0.2558827,-0.26574382,-2.8463876
10.323299,-14.754373000000001,2.632396,0.332014,-0.5830098000000001,-2.5578673
10.031753,-15.240979999999999,2.1874863999999996,0.3325376,-0.79433423,-2.3742063
9.465102,-15.80039,1.5177037,0.23724261,-0.7017095999999999,-2.1282895
8.619816,-16.170017,1.0052199,-0.034749504,-0.28756043,-1.8440276000000002
7.4276853,-16.234278,0.65828097,-0.42867032,0.25007078,-1.348424
6.1574273,-15.777407,0.45395982,-0.87369436,0.72277576,-0.44772932
4.8968897,-14.871153,0.5008478,-1.2798498999999999,0.8696976000000001,0.8729439
3.967307,-13.643713,0.6307381,-1.3506579,0.47790605,2.355479
3.363777,-12.374402,0.68413836,-0.92799157,-0.045361105,3.546282
3.1890767,-11.165484,0.7872231,-0.22478095,-0.47441540000000004,4.276633
3.3393366,-10.345594,0.5712469,0.45657814,-0.5718222,4.650325
2.7880957000000004,-9.670334,0.37251863,0.8169536999999999,-0.43767622,4.880289599999999
1.252292,-9.18795,0.097951576,0.8520871999999999,-0.24923302,5.052763
-0.07427771,-9.501782,-1.002481,0.6348984000000001,-0.007557275699999999,5.1437992999999995
-2.08059,-10.628885,-1.5300768999999999,0.18561576,0.27349308,5.1464524
-4.495736,-11.817665,-2.5230097999999996,-0.27162558,0.5093045,5.148058
-6.464785,-12.50029,-2.4701552,-0.4952197,0.71212924,5.191168
-5.726911,-12.714944000000001,-0.8560325000000001,-0.5628163,0.9021607,5.2300363
-1.9546453999999998,-12.774522,1.079488,-0.7730760999999999,1.1331898999999999,5.1533812999999995
2.2632197999999994,-13.322669,2.0065996999999998,-1.0749133999999998,1.3700835,4.9393864
5.217789,-14.119526,1.2858205,-1.2883672,1.5212638,4.609344999999999
6.819547999999999,-15.022007,0.0025953148000000003,-1.167538,1.6958666,4.275568
7.920766,-15.644096,-1.0716447,-0.9231919,1.8049846,3.9971704
8.738702,-15.705063,-1.7338425,-0.79223984,1.8119136000000002,3.7677294999999997
9.175711,-15.466744,-2.1317587000000002,-0.5979498000000001,1.800185,3.5484114
9.111892,-14.995115,-1.6040097,-0.24235642,1.7741097,3.0778357999999995
8.969599,-14.2609,-0.10946289999999999,0.17071065,1.8268186999999998,2.3256686
9.177923,-13.639270000000002,0.32556355,0.3639535,1.9513828999999998,1.6187406000000002
9.701410000000001,-13.136334,0.2657085,0.29740409999999995,1.9338074,1.2274726999999999
10.43169,-12.953224,0.45170927,0.20903808,1.5217875,1.0108249
10.993829,-12.80308,1.58341,0.30433306,0.83828163,0.64671427
11.368656,-12.795811,2.7589152,0.4539078,0.035011306,0.013770646999999999
11.657368,-12.6252575,2.7435637,0.5981767,-0.7975281999999999,-0.8198334999999999
12.243431,-12.351725,2.4764855,0.6588618,-1.5667472,-1.6422676
13.200401999999999,-11.6208515,2.8113961,0.62053436,-2.048493,-2.397105
14.729091,-9.938149000000001,3.0583627,0.6333101999999999,-1.9926075,-3.12852
15.451392000000002,-8.784901,2.4193312999999996,0.68121946,-1.4906158,-3.870058
14.584164999999999,-8.429046000000001,0.81303257,0.6939953000000001,-0.90612257,-4.464657
13.028652000000001,-8.148750999999999,-0.52266383,0.7365813,-0.5106135,-4.839414
12.678208,-7.3658576,-0.53594685,0.77862626,-0.3615624,-4.8410025
13.478608,-6.517036,-0.085549615,0.7227408000000001,-0.4424759,-4.5269474999999995
14.618707999999998,-6.355102,0.3086413,0.550791,-0.7549422,-4.1697489999999995
15.856147,-8.054238,0.50188214,0.48212975,-1.014717,-4.086165
16.151495,-10.080882,0.6642569,0.5555906,-1.1467336000000001,-4.2857957
15.610837,-11.023114999999999,1.3777099,0.5396209,-1.1116002,-4.647777
14.71529,-11.415516,2.256468,0.48851764,-0.91144586,-4.963437
13.613594,-12.267037,2.440515,0.48000044,-0.6713758000000001,-5.096536
12.2418785,-13.876574,1.8934113999999997,0.4789358,-0.48665014,-5.0709667000000005
11.159901,-15.9994545,1.3598013,0.4815887,-0.32482323,-4.905422
9.444598,-17.552122,0.88799983,0.3815115,-0.23219859999999998,-4.629154
8.082413,-17.855114,0.09981906,0.25907668,-0.3093945,-4.2650437000000005
8.202057,-17.113754,-0.031584308,0.17283995,-0.5106135,-3.9403076
9.703393,-16.493510999999998,0.97697794,0.14622368,-0.74377203,-3.6007016000000003
10.511877,-15.80585,1.5256715,0.11908381400000001,-0.84384924,-3.1971814999999997
10.540999999999999,-15.520067000000001,1.5755188,0.02804744,-0.62666047,-2.8086014
9.368186,-15.621151000000001,1.67891,-0.18592992,-0.19547687,-2.3635771
8.302411,-15.776717000000001,1.6715262,-0.560146,0.41987386,-1.8243228
7.3957752999999995,-15.964307000000002,1.3733716,-0.938097,0.9341002,-1.0040181000000001
6.4235663,-15.652496,0.94414866,-1.0072993000000001,0.9612575000000001,0.121300384
5.248578500000001,-15.032091000000001,0.3971789,-0.66608745,0.63866836,1.2759228999999999
4.6072774,-14.213734,0.24765623,-0.10554006,0.12177162,2.4065819999999998
4.053134399999999,-13.258485999999998,0.37126407,0.28516933,-0.31045917,3.3306989999999996
3.449968,-12.339246000000001,0.81300384,0.54068553,-0.5712986,4.2282
2.54133,-11.491267,0.99977076,0.67057294,-0.62666047,5.035205
1.3109499,-10.900389,0.9112331,0.6833488,-0.58620375,5.665478
-0.6086444000000001,-10.68287,0.3268277,0.6343748,-0.40414843,6.1349893
-2.7885362999999996,-10.233373,-0.42846635,0.51246357,-0.20238838,6.4006110000000005
-4.9005,-10.077742,-0.5171188,0.45284313,0.04139921,6.543815
-5.756341,-10.9795885,0.13664187,0.61840504,0.2867925,6.649739299999999
-5.981712,-11.148792,1.1436911,0.68441343,0.4246735,6.6534743
-4.7576714,-10.947047,1.0088687,0.47574183,0.5747893,6.3968935
-2.7027952999999996,-11.690714999999999,-0.09813353400000001,0.044558257000000004,0.72117007,5.91513
-0.26781540000000004,-13.469892999999999,-0.97915184,-0.18751818,0.8079478,5.3780227
2.5286124,-15.5947,-1.7587709999999999,-0.065083325,0.86915654,4.8281217000000005
5.3194947,-17.277784,-1.9410272000000002,-0.042202063,1.0437591999999998,4.343182
7.7557387,-19.023006,-1.9022411,-0.3424336,1.3636955,3.9918473
9.772222,-20.25195,-1.6559161,-0.5170363,1.673509,3.8262853999999997
10.902371,-21.022509,-0.7676194000000001,-0.38821357,1.7996613999999997,3.6649995000000004
11.486317,-20.94735,-0.1889121,-0.044331364000000005,1.8002023999999999,3.1534432999999997
12.153216,-19.979277,-0.6103873000000001,0.25642377,1.7868855,2.3959354999999998
12.942585000000001,-18.30528,-1.1520803,0.5034228000000001,1.6809615000000002,1.541021
13.259932000000001,-16.703743,-0.93865156,0.6008296,1.4243807,0.8601854999999999
13.098831,-15.637729,0.5790425,0.48371800000000004,0.94687605,0.34861207
13.155736,-14.910110999999999,1.7710389,0.27132890000000004,0.3320489,-0.059655353
13.017696,-14.527623,0.85265183,-0.0017453292000000002,-0.46961573,-0.57229346
12.917724,-14.105324,0.44060016,-0.1566433,-1.4411184,-1.3026438999999999
12.842669500000001,-13.098811,1.537748,-0.24767968,-2.3295607999999994,-2.135201
13.701231,-11.610758,2.6743328999999996,-0.31794664,-2.7101822,-2.8761978
15.309119,-9.355563,2.714115,-0.36957347,-2.390787,-3.6512637000000003
16.012938000000002,-7.5607452,1.9745461,-0.426541,-1.4778401,-4.411965400000001
15.641693,-6.7294116,0.87918913,-0.43186426,-0.28703684,-5.074178
14.365948000000001,-6.619613,-0.5146576,-0.44196972,0.63973296,-5.395685
13.716698000000001,-6.638594599999999,-1.571487,-0.2737549,1.0352421,-5.2833734
13.529307999999999,-6.698057,-2.11635,-0.16090190000000001,0.8313700999999999,-4.952267
14.296026999999999,-7.1246557,-1.9555935000000002,-0.036861353,0.24794148,-4.739337
15.490189,-8.596630000000001,-0.83866966,0.18615682,-0.42064179999999995,-4.7270845999999995
15.989598999999998,-10.448343,0.3666576,0.53907984,-0.8837649,-4.854319
15.905151000000002,-11.575592,1.6456689999999998,0.7647858000000001,-1.075402,-5.037439
15.259348999999998,-12.231632000000001,2.4365408,0.7190058000000001,-0.97851884,-5.157221
14.191028,-13.220063,2.6281152000000003,0.45444882,-0.72087336,-5.168391000000001
13.112851000000001,-14.756078,1.960382,0.3170914,-0.50794315,-5.031051000000001
11.627364,-17.217537,0.996189,0.38364083,-0.42757076,-4.811192
9.902208,-19.195004,0.5549376,0.56782544,-0.43821725,-4.572727700000001
9.449828,-19.920284,0.016836027,0.6742905,-0.48080329999999993,-4.3518040000000004
10.124179,-19.81247,0.32782367,0.56463146,-0.5106135,-4.163901999999999
10.629479,-19.052225,1.3974668,0.25694737,-0.43661156,-3.8599352999999996
10.503133,-18.08536,2.169463,-0.04113741,-0.3530452,-3.4388745000000003
10.089654,-17.570606,1.9379435,-0.31847024,-0.19919443,-3.1322377
9.624260000000001,-17.847078,0.9633789,-0.5974088000000001,0.22930136,-2.979469
8.65048,-17.70516,0.55323297,-0.7666881999999999,0.6376036999999999,-2.7409873
7.390125,-16.922678,1.2797295,-0.8774119,0.77281433,-1.9057598999999998
6.370999299999999,-15.897144,1.7608396000000002,-0.8571835999999999,0.4576777,-0.7623249
5.815726799999999,-15.104885000000001,1.7262577000000001,-0.6820571999999999,-0.021397736,0.40238565
5.564709,-14.486835500000002,1.0321596,-0.3578623,-0.48558549999999995,1.5383681
5.1427646,-13.643789000000002,0.05588067,0.17231636,-0.70064497,2.7802746
3.6866013999999994,-12.792794,-0.52556556,0.67961377,-0.75920075,4.0413446
2.5970864,-11.929367999999998,-0.27022877,0.8739213,-0.62079614,5.247071
2.1137736,-11.384572,-0.18318516,0.6716376000000001,-0.21409954,6.171728599999999
0.82111543,-10.648652,-0.3087275,0.27026424,0.29530972,6.6955194
-1.7280678,-10.317487,-0.45653594,-0.097022854,0.6029938,6.931348299999999
-4.777591,-10.871563,-1.1549437,-0.122050874,0.6759311,7.0617589999999995
-5.9424376,-11.371673,-1.1928582,0.4773300999999999,0.6136403,7.196446400000001
-5.456529,-10.977414999999999,-0.77228326,1.2108746000000001,0.2841396,7.289611999999999
-4.8085146,-11.189167999999999,-0.23532128,1.563815,-0.15289085,7.2385087
-3.7257226,-12.209423,0.31314242,1.4573499,-0.4898441,6.9393244
-1.3362615,-13.837739000000001,-0.5077335,1.0176492,-0.61440825,6.3692126
1.6226653999999998,-15.741254000000001,-1.9749961,0.5896595,-0.5462706,5.707541
4.9411917,-17.28426,-2.5844544999999997,0.5268451,-0.32588790000000006,5.127829599999999
8.061794,-18.576265,-2.3593897999999998,0.5321683,0.07546803,4.705704
9.734086999999999,-19.679945,-1.3136027,0.42996186,0.69190085,4.416643
10.592935,-20.580147,0.6612019,0.42517966,1.4217103000000002,3.9253154
11.501371,-21.424639000000003,2.2374099999999997,0.579013,2.146214,2.9932048
12.135261,-21.574354,1.3491136000000001,0.5673018,2.9218032000000003,1.7204233
12.773612,-20.804798,-0.2975993,0.25961772,3.6244728999999998,0.7638259
13.914075,-19.477282000000002,-1.8024794999999998,-0.08477064,3.811328,0.37257543
14.866229999999998,-18.077324,-2.1537569,-0.23595107,3.2081945,0.16336282
15.053111999999999,-16.989313,-1.1205343,-0.18858282,1.8795102,-0.16133824
15.150011,-16.268007,0.51508856,0.017941985,0.101543255,-0.6420368000000001
15.33719,-15.639126999999998,0.70107013,0.1579523,-1.6316909,-1.2403531
15.920838,-14.420898999999999,1.0324084999999998,0.11430161400000001,-2.8480458,-1.8110060000000001
17.629934,-12.205113,1.5571026000000001,-0.10128146,-3.3367205,-2.2799932999999997
19.173304,-9.22598,1.4063541000000002,-0.34028685,-3.1142084999999997,-2.8639457000000004
18.867199,-7.560649400000001,-0.11004709,-0.53832936,-2.300815,-3.7087547999999995
16.39264,-7.8224125,-1.6483886000000003,-0.66074675,-1.4735813999999998,-4.475827
13.923164000000002,-8.1460705,-1.9187131999999998,-0.76721185,-0.746966,-5.1103587
13.076804,-7.8091197,-1.779409,-0.8012981,-0.38924333,-5.340323400000001
12.836349499999999,-7.311087599999999,-1.2857438,-0.6490355999999999,-0.609085,-5.2998667
13.097395,-7.503638700000001,-0.7249834,-0.38447857,-1.1398221000000002,-5.2668624
13.880567000000001,-8.882565,-0.61874795,-0.08265879,-1.5182968000000001,-5.2413110000000005
14.080098999999999,-10.479038000000001,-0.24091415,0.30646235,-1.4666700000000001,-4.810668499999999
13.9113655,-11.067905999999999,0.58259547,0.7930078,-1.1925137,-4.1622962999999995
13.993688,-10.996569000000001,1.6383809999999999,1.0469358,-0.9125105,-3.8886809999999996
13.828342999999998,-11.418216000000001,2.3072827,1.1422132,-0.6405009,-3.9695942000000004
13.174057000000001,-13.059115,2.3844237,0.96068156,-0.3615624,-4.2240458
12.100257000000001,-15.967285,1.8926547999999999,0.44699627,-0.15128514,-4.5338593000000005
10.642888000000001,-18.76425,2.0236560000000003,-0.01665044,-0.04749041,-4.650971
9.2404785,-19.794504,2.8195841,-0.30888838,0.05256932,-4.5700574000000005
8.749572,-18.899273,3.7036576,-0.34615114,0.061086524,-4.339028400000001
7.898328,-18.310863,4.315319000000001,-0.2263692,0.08079129,-4.0776477
6.257045,-17.29578,4.99554,-0.08531169599999999,0.18299778,-3.8391660000000005
6.593717599999999,-16.305643,4.32977,-0.09009389599999999,0.44170794,-3.4798547999999996
8.405438,-15.436423999999999,2.8651986000000003,-0.2742785,0.66048497,-3.0534534
9.668016,-15.253841,1.7111744,-0.48029715,0.54072046,-2.3193855
10.148217,-15.148602499999999,-0.15750016,-0.58515656,0.2213252,-1.0694854
9.368052,-15.330476,-1.1790869,-0.49307296,-0.07250097400000001,0.2842094
8.032728,-15.4243,-0.91559064,-0.26949629999999997,-0.15234978,1.4196507999999999
6.456099,-15.118254,0.004721365999999999,-0.124162726,-0.14063863,2.3634725
5.118439700000001,-14.03798,1.1659378999999999,-0.016632987,-0.21783455,3.2764194
4.0173364000000005,-12.740696,1.7556777,0.3027448,-0.45205772,4.255881
3.0124803,-12.046023,1.5560108,0.9165073,-0.62133723,5.169351
1.2625104999999999,-12.358103999999999,0.50729305,1.2513486999999999,-0.63837165,5.7719607
-1.1521857,-12.306503,-0.72942704,1.0453299999999999,-0.34985125,6.0854917
-4.783979,-12.289255,-1.3038919,0.40814525,0.078661986,6.130207
-7.590596000000001,-12.153647,-0.95853305,-0.39458403,0.48268825,5.9470873
-7.3986673,-11.868882000000001,0.13975435,-1.0333745,0.73394585,5.672407
-5.6998377,-11.652809,0.5458970999999999,-1.1898781999999999,0.8063421,5.5356083
-3.9734172999999995,-11.97867,0.16246095,-0.92745054,0.7232993000000001,5.5057983
-2.109713,-13.26539,-0.06300581,-0.6176371,0.7823962,5.494087
-0.091707505,-14.622137,0.3919021,-0.5361826,0.95167565,5.3907986
2.5347316,-15.88845,-0.14638148,-0.6027319999999999,1.0922096000000001,5.220454
5.7897735,-17.486732,-2.2219436000000004,-0.65010023,1.179511,4.915440599999999
8.542387,-18.60151,-4.02586,-0.46698028,1.154483,4.548136
10.251722000000001,-18.566076000000002,-4.5357866,-0.12683308,1.1039207,4.0419035
11.20405,-17.869211,-3.7201107,0.16379915,1.2476486,3.4100241999999996
11.049385000000001,-17.553513,-2.0536983,0.3155206,1.5334986000000002,2.7361002
10.625927,-17.629293,0.10703039999999998,0.26761132,1.8433119999999998,2.0909218999999997
10.607089,-17.399555,1.4684023000000002,0.10259046,2.0567832,1.5059049999999998
10.924714,-17.035225,1.4390876,-0.009180431999999999,2.001945,1.2088674
11.656583,-16.695889,1.0196522,0.020071287,1.6218647,1.0049781
12.415066,-15.8898,1.0421002000000001,0.24151866,0.89257884,0.6674836999999999
13.138392000000001,-14.757696,1.7589912,0.40334558,-0.10869910599999999,0.16070992
13.677748999999999,-13.557454000000002,2.5492885,0.33468434,-1.2255178999999998,-0.5030737
14.557378,-12.292243,2.99008,0.1648638,-2.1900916,-1.2116076
15.146811499999998,-10.966679,2.7619224,-0.04483751,-2.6580142999999996,-2.1096318
14.764122,-9.595702000000001,2.0645583,-0.1481261,-2.4823467999999997,-3.0816581000000003
13.733360999999999,-8.422371,1.1144913,-0.13322099,-1.7919121,-3.9296613
12.757331,-7.843605999999999,0.46828672,-0.017697638,-0.99077106,-4.493926
11.382216,-7.3022194,0.18965909,0.20106193,-0.45205772,-4.747313
11.171777,-6.7964015,0.41151538,0.44753733,-0.5223247,-4.8010693
12.222543,-6.5239987,0.41058642,0.5912651999999999,-1.0301632,-4.75316
13.407998999999998,-6.924577,-0.5122154999999999,0.60988784,-1.5380015,-4.709509400000001
14.862685999999998,-8.168125,-1.1365563,0.536968,-1.8978536,-4.671723
15.870770000000002,-8.826952,-0.8112895999999999,0.41133919999999996,-2.0761738000000003,-4.6211433
16.630144,-9.612299,0.31667626,0.23354250000000001,-1.8994418000000002,-4.6089080000000004
16.005620999999998,-10.626741,1.6891668000000002,-0.023544492,-1.4219546,-4.5865507
14.132973000000002,-11.807399,2.5574574,-0.33444,-0.83746135,-4.4955144
11.884587,-13.2776,2.8134935000000003,-0.43717006,-0.21835814,-4.368297
10.147978,-14.444248000000002,2.0850527,-0.35571554,0.21652554,-4.319847
9.249806,-15.513488,0.9631778,-0.19710003,0.48216465,-4.2932305
8.920978,-16.281778,0.11258494,-0.042184606,0.57904786,-4.2208343
9.048129,-16.814957,-0.10682928,0.1579523,0.43744934,-4.074454
8.937267,-16.959529999999997,0.09705136,0.35065409999999997,0.0073303827000000005,-3.8774934
8.929012,-16.981785000000002,0.51641977,0.43689079999999997,-0.44354049999999995,-3.6741449999999998
9.183937,-17.028463000000002,0.73891765,0.28145180000000003,-0.5696929000000001,-3.5351993999999998
9.223452,-17.767563,0.62281805,-0.14067353,-0.10018189999999999,-3.4314046
9.136868,-18.117355,0.9463034,-0.56066954,0.50878096,-3.0752702000000003
8.706218,-17.428581,1.7696406999999998,-0.7592357,0.87873834,-2.3390727000000004
8.273729,-16.4822,1.8870810000000002,-0.84599596,1.0858216,-1.419197
7.267158500000001,-15.507417000000002,1.6898849999999999,-0.93329734,1.1566123,-0.30291936
6.487348,-14.8656845,1.213956,-1.0679669,1.0128844000000001,1.0113659
5.3239098,-13.881007,1.2041973,-1.0791545,0.60566413,2.4859072999999996
4.123773,-12.797669,0.92563665,-0.8736769,0.10314896,3.7081265
2.8785967999999995,-11.777289,0.41688797,-0.47017425,-0.12946853,4.5598474
2.1343544,-11.102191,-0.2767889,-0.24340361,-0.16725489999999998,5.1384935
1.0051242,-10.580581,-0.9882116,-0.24605651,-0.17737779999999997,5.571283
-1.9928951000000001,-10.265811,-1.1447253000000002,-0.31899384,-0.04749041,5.844357
-3.6467905,-10.495644,-0.8811524,-0.37009707,0.07920304,6.062087
-4.9371214000000005,-11.042212,-1.3044856000000002,-0.20772909,0.25220007,6.259047499999999
-5.309621,-12.129055000000001,-1.8149484,-0.20666444,0.34482470000000004,6.3734884
-5.16708,-13.13756,-2.1049821,-0.5500231,0.42627922,6.3809414
-3.5427480000000005,-13.935182999999999,-1.6720626,-1.0024997,0.5380501,6.2643533
0.00039264910000000005,-14.4097805,-0.90748864,-1.2627981000000001,0.5854358000000001,6.009919
3.3659601,-15.313841,-0.48673162,-1.2292703,0.50345767,5.6149335
5.3722725,-16.151638000000002,-1.3439133,-1.2143651000000002,0.31288517,5.1640453
6.874442599999999,-16.63477,-1.6726947,-1.1983953999999999,0.086638145,4.891494799999999
8.082585,-17.185148,-1.4474386000000001,-0.9242391,-0.05386086,4.7520256
8.69282,-17.134575,-0.8909590000000001,-0.42226496,0.032882,4.322447299999999
9.246953,-17.284796,-0.3677973,0.18510962,0.66422,3.1555902999999996
9.907675999999999,-17.202568,-1.1646258999999999,0.5950002,1.6996016999999999,1.7438631999999998
10.305064999999999,-16.93488,-1.6947596,0.59180623,2.4027947999999997,0.96932095
11.07485,-16.722263,-1.0978564,0.32244956,2.762123,0.5929755999999999
12.135633,-16.683142,0.18471745,-0.06026622,2.6577873,0.34065336
13.280752,-16.505991,1.0298611,-0.42757076,1.9189197,0.026057765
13.907563,-16.195385,0.9386803,-0.6149493,0.77494365,-0.44823545
13.905829999999998,-15.620327,1.6049004,-0.641583,-0.6894749,-1.0455046000000001
14.96241,-14.367785999999999,3.128331,-0.44034657,-1.8983772,-1.6832304
17.375393,-11.506447,4.236511,-0.15823156,-2.2497119999999997,-2.4545786
18.987438,-8.524708,4.400868,0.11110766,-1.8536618000000002,-3.1684183999999997
17.807125,-7.5230417,2.768856,0.5140867,-1.2468108,-3.7545172999999994
14.937674,-7.7599907,0.5847311,0.93090624,-0.84011424,-4.099988
13.201112,-7.7895927,-1.1469183,1.1571358,-0.89760536,-4.294819
12.796673,-7.83763,-2.0963726,1.2290084,-1.2473345,-4.3560276
13.09977,-7.646333,-2.1028562,1.2199502,-1.6907703,-4.464622
14.077532000000001,-8.031187,-1.2194339,1.148095,-2.060204,-4.608367400000001
14.495426,-9.117628,0.10949163,1.2252735000000001,-2.2475827,-4.7382374
14.7626,-9.590836999999999,2.0300531000000004,1.3381264,-2.1916797000000003,-4.8085217
14.259798000000002,-9.258569999999999,3.2257848,1.4334215,-1.9063534,-4.749425
13.175828,-9.568102,3.9877632000000003,1.4105226999999998,-1.3889331,-4.626449
11.641672,-10.533730499999999,4.144258,1.29287,-0.7804938,-4.465704
10.379793,-12.336909,3.0394678,0.9979793,-0.23804545,-4.3390107
9.699074000000001,-14.123510000000001,1.5533485,0.48162362,0.05311037,-4.1457677
9.416406,-15.45597,0.70450824,0.21652554,0.057910025,-3.8913162000000003
9.816668,-16.311619,0.54867446,0.27933994,-0.1693842,-3.6863623
9.733089999999999,-16.679857000000002,1.2468715,0.5188864000000001,-0.41957715,-3.5186884
9.597397,-16.971767,2.3232281,0.6727196999999999,-0.57395154,-3.2626312
9.015874,-17.159235,2.535929,0.73607516,-0.6617765,-2.870316
8.238391,-16.654488,2.4814367,0.63812727,-0.6841341999999999,-2.3843117
7.6313457,-16.043411,1.9025188999999998,0.3666413,-0.5446649,-1.8359991000000002
7.1980042,-15.46185,1.1923698,0.070668384,-0.2577502,-1.2770574
7.3344646,-15.881362,-0.29931352,-0.168337,0.15053464,-0.6377433000000001
6.1371145,-14.835575,-0.6461759,-0.39988983,0.5982116,0.09258971
5.2607126,-13.497110999999999,0.26583302,-0.6192079,0.91121894,0.7191455
4.6240845,-12.077254,1.4379575,-0.9391441999999999,0.9937381,1.3765587
3.9332998,-11.015310000000001,1.7369453999999998,-1.1376928999999998,0.9357059000000001,2.2453136000000002
2.8264603999999998,-10.553459,1.2425620000000002,-1.0136697000000001,0.89099056,3.3232815
1.6696205000000002,-9.924799,0.7495479,-0.6932099,0.85639817,4.1031294
0.7538479,-9.412775,-0.1419187,-0.50050807,0.87289155,4.4667163
0.118436374,-9.054889999999999,-0.72608477,-0.5665164,0.7190582,4.431583
-0.32732567,-9.320167999999999,-0.66089547,-0.93434453,0.60779345,4.3277707
-0.9339014999999999,-9.649199000000001,-0.5750968000000001,-1.293132,0.6120521,4.292114
-1.0202556,-9.896682,-0.70699817,-1.3027138,0.64292693,4.18139
-0.83031875,-10.218406,-1.4515278,-1.1563156,0.56201345,4.293702
-0.6236225000000001,-11.025998,-1.9069049999999999,-0.9396677999999999,0.350689,4.5369835
-0.7170059,-12.282235,-1.2988256999999999,-0.8182976,0.107948616,4.671653
0.33287063,-12.579356,0.38692215,-0.7879638000000001,0.007871435,4.669
2.9250442999999997,-12.9669485,0.43349418,-0.80019855,0.41296235,4.618420599999999
6.059216999999999,-13.253564,-0.7320607,-0.8246855,0.7488684,4.3214
7.9430227,-13.275714,-2.0113018,-0.92795664,0.99267346,3.824732
8.492367,-13.559398999999999,-2.6877406,-1.0482622,1.2034743,3.4457164
7.8639470000000005,-13.994511,-1.7390523999999998,-1.0211049,1.3211095,3.2471502
8.43801,-13.790092999999999,0.38115692,-0.8039161,1.3759477,3.1492023
7.233439,-14.282886999999999,0.8690281999999999,-0.57395154,1.3823357,3.0049507999999996
7.0444884000000005,-14.105132999999999,1.095807,-0.29555404,1.4052168999999999,2.6945963
7.866303,-13.844816,0.9059659,0.115383714,1.3067454,2.1298077
8.567919,-13.307576000000001,0.65672,0.60032344,1.0192896999999999,1.527739
9.511292,-13.0897045,1.2615143999999998,0.87608546,0.74141586,1.043864
10.549227,-12.239025,1.2053847,0.650362,0.64505625,0.6887941999999999
10.960167,-11.69557,1.2319988000000002,0.32246703,0.5008047999999999,0.35875243
10.56183,-11.722156,1.5526111,0.17873918,0.19257963,-0.20921262
10.111527,-11.600463000000001,2.431398,0.16489871,-0.43394122,-0.93423986
10.510553999999999,-11.288546,2.8557463,0.1521229,-1.1579038000000001,-1.4990458
11.113779,-10.316922,2.863944,0.109536864,-1.5598181,-1.8503631
12.113665,-9.004832,3.1515262,0.09302605,-1.441101,-2.0553171999999997
12.948982,-7.835742999999999,3.049763,0.50611055,-1.3096253,-2.668556
12.734634,-7.3581767000000005,2.5638834999999998,1.0458885,-1.4336483,-3.3078876000000004
11.987805999999999,-7.5176115,0.7286800999999999,1.2306142,-1.3671165,-3.5569985
10.984328999999999,-7.3730493,-1.0699303999999998,1.0501472,-1.4086378000000002,-3.7278836
10.976275,-6.9448895,-0.97899866,0.78185517,-1.3282479,-3.5394404
12.0328455,-7.135679,-0.25809494,0.724364,-1.3234656999999999,-3.5990608
12.572499,-8.743376,0.06104257,0.81485933,-1.456547,-3.793892
12.328358,-10.595453,0.36107433,0.76803213,-1.1339579,-3.9876584999999998
10.939749,-11.076363,1.3954173,0.9692337,-1.2015544,-4.116481299999999
10.419806,-10.220559,2.9669905,1.1129615,-1.3138839,-4.1548085
10.880871,-9.569068,4.5884113,1.0821041,-1.3447586999999999,-4.053126
10.66455,-10.55932,4.0160627,0.95858717,-1.4341894,-3.9727532999999995
8.673905,-12.72002,1.5371541000000002,0.79623663,-1.3692456,-3.9594364
7.541132000000001,-14.2582655,0.11128249,0.6466445,-1.240423,-3.8449953000000003
7.21192,-14.778162,0.8034845,0.6759311,-1.2606514,-3.6155543
8.194567999999999,-14.350797,2.1010077000000003,0.7413984,-1.2925909,-3.422329
8.569049,-14.134084,2.6921169999999996,0.70574135,-1.1722853000000002,-3.2205863
8.569345,-14.051081,2.9478752999999998,0.5007872999999999,-0.8810946,-2.9043674
8.096366999999999,-14.239783,2.9909422,0.26497588,-0.47226864,-2.5264165000000003
7.318250999999999,-14.536721,2.517168,0.030752702000000003,-0.11615166,-2.1692348
6.3995576,-14.404924,1.9811733,-0.13531537,0.10156071,-1.8200294
6.3972974,-14.002709,1.7942436000000002,-0.14489724,0.24687682,-1.4149208999999998
6.5707911999999995,-13.829072,1.5138249,-0.075694926,0.39912188,-0.97576123
5.6002965,-13.799681,1.9607553,-0.05440191,0.6109874,-0.46418777
4.8954816,-13.249657000000001,2.4773667,-0.20451768,0.88992596,0.28317967
4.392364,-12.392838000000001,2.4625895,-0.4169068,1.1257548000000002,1.3414426000000002
3.8321784,-11.743281,1.7983806,-0.51007247,1.1358603,2.4305804
2.8896866,-11.220464999999999,1.2524068000000002,-0.5159368,0.9362469999999999,3.2684604999999998
2.4145908,-10.542475,0.94115114,-0.35302776,0.7323576,3.828467
2.0013611,-9.838302,0.6991931,-0.16086699,0.6205693,4.172349
1.5673785,-9.382226,0.65108883,-0.13372713,0.49441686,4.3858027
0.91189396,-9.587992,0.9404998999999999,-0.25933847,0.39540434,4.494397
0.10807426,-9.605317,0.7494809,-0.24710372,0.43053782,4.6131150000000005
-1.1574912,-9.817894,0.056033900000000005,-0.21355848,0.55084336,4.7669654
-2.7321577,-10.289072,-1.0090219,-0.4775919,0.6780604,4.85479
-3.2719352,-10.927855000000001,-1.2534412,-0.99394757,0.8281761999999999,4.831909
-1.7279338,-11.530485,-1.3356103000000001,-1.4421656,0.9548696,4.6785994
0.9970509,-11.935402,-1.1321031000000001,-1.7722248,0.9884149,4.4571347
3.4676565999999998,-12.716448,-0.59397274,-1.8770841,0.86756825,4.3118186
5.1512017,-13.227888,-0.7821090999999999,-1.819593,0.58171827,4.2974544
6.3119197,-13.588014000000001,-1.3335223999999999,-1.5720530000000001,0.17608626,4.350146
6.962396000000001,-13.886389000000001,-1.4878143999999998,-1.0738138000000002,-0.27797859999999996,4.2894607
7.235564699999999,-13.955294,-0.73066247,-0.5633050000000001,-0.5893802,4.085589
7.4217954,-13.86033,-1.3601268999999998,-0.028850293,-0.5750162,3.4058006
7.792283500000001,-13.709419,-2.1422935,0.39433968,-0.25720918,2.2229736
8.587666,-13.704832000000001,-2.0693563999999998,0.6535909000000001,0.23624776,0.8932245999999999
9.3300705,-13.780249,-1.3627892,0.6727371999999999,0.65570277,0.0654673
9.709244,-14.120982000000001,-0.37306452,0.46088909999999994,0.90378386,-0.33269465
9.747129,-14.487181,0.5238609000000001,0.020647245,0.8324348,-0.44715336
9.818392,-14.762801000000001,1.1373321,-0.3950902,0.23144811,-0.7042578
10.581519,-14.16924,2.1353788,-0.45683992,-0.81615084,-1.1716396
11.984235,-12.882041000000001,2.6602069999999998,-0.21142918,-1.7392031000000003,-1.7039650000000002
13.667291,-11.020999,2.831977,-0.008080875,-2.0080361,-2.332109
15.983720000000002,-8.540894,3.0739443,0.0930435,-1.7397441999999999,-2.9405656000000002
17.087782,-6.028217,2.7412555,0.2665816,-1.2814033,-3.4521217000000006
15.5592375,-5.3680973,1.5272421,0.5577548999999999,-0.90931654,-3.7677994
12.875596,-6.291924,0.14681245,0.8952492,-0.7884699000000001,-3.9157858
11.166911,-7.395057,-1.2417096,1.0842333999999998,-0.7741059,-3.9487900000000002
10.474747,-8.365416999999999,-2.1661396,1.0826278,-0.8800299000000001,-3.9557013999999997
11.9706545,-9.808996,-1.6555426,0.94315845,-1.0061997,-4.0339622
12.910388000000001,-10.665719000000001,0.3610552,0.72225213,-1.1211821000000002,-4.1388216
13.304981,-10.714531,2.1092534,0.6003409000000001,-1.1557745000000001,-4.25061
12.7873745,-10.396294000000001,2.803457,0.58756506,-1.0982833,-4.3341937
11.64534,-10.155073,3.211161,0.576395,-0.96307266,-4.338976000000001
10.405602,-10.491181,3.5187967,0.53541464,-0.7874053000000001,-4.237310400000001
9.254087,-11.507003,3.5173886,0.51038665,-0.577128,-4.055238
8.618791,-12.556391,2.9615989,0.43692570000000003,-0.3588746,-3.8465834
8.330778,-13.796166,1.8926165000000001,0.32726669999999997,-0.16086699,-3.5553927000000005
8.484764,-14.435820999999999,1.0243162000000001,0.21919589999999997,-0.08206538,-3.2578316000000003
8.754858,-14.707878,0.43869436,0.14892894,-0.07782423,-2.8825333
8.607097999999999,-14.582804999999999,0.42584229999999995,0.1489464,-0.15126769,-2.5077762999999997
8.429745,-14.516121,1.1095496,0.22027801,-0.24230406,-2.1771933999999997
7.988981699999999,-14.56504,1.4909556000000002,0.2772281,-0.2343279,-1.9206301
7.400219,-14.749067000000002,1.3876123,0.27190486,-0.18268362,-1.6470148999999998
6.668474000000001,-14.631023999999998,1.2625583,0.120724425,-0.067701325,-1.32282
6.115806,-14.199589000000001,1.0329448,-0.13477433,0.15001105,-0.9784141
5.508905,-13.590581,0.74950004,-0.3104417,0.50560445,-0.620674
4.747443,-12.900706,0.5309765000000001,-0.3801676,0.7834783000000001,0.10592403
3.9912012000000003,-12.151224000000001,0.42271066,-0.38018507,0.67381924,1.2908803999999998
3.246212,-11.162573,0.61444795,-0.21727604,0.23305382,2.5849721000000003
2.7558026,-10.178834,0.9556600000000001,0.07600909,-0.18907152,3.4563801
2.6792743,-9.593949,1.1736856000000002,0.39433968,-0.31415927,3.9216325
2.8732142000000005,-9.963719000000001,0.9713468000000001,0.48537606,-0.287543,4.122852
2.20166,-9.76683,0.21690509,0.3416482,-0.10868165,4.2335753
1.1125376,-9.30044,-0.42814073,0.11433652,0.07600909,4.3278055
0.5559623,-9.318971000000001,-0.8254824000000001,-0.08899434,0.22718951,4.4470468
-0.47437754,-10.154729,-0.8230690999999999,-0.34557518,0.31503192,4.527419
-2.2655373,-10.929024,-0.94502014,-0.5883156,0.36932912,4.6083326
-3.7494730000000005,-11.493327,-1.1631702,-0.7820819999999999,0.43427283,4.717991400000001
-1.7808743000000002,-12.054997,-0.95992166,-0.7714354999999999,0.44650757,4.823392
1.7644788,-12.235501,-0.6802693,-0.6335545,0.44437829999999995,4.8798184000000004
4.609413,-12.641356,-0.8970116,-0.64420104,0.44491932,4.795711
6.1149635,-13.04498,-1.7054569,-0.87523025,0.53167963,4.6083326
6.829383999999999,-13.25659,-2.2030485,-1.116906,0.62165135,4.3554864
7.1407833,-13.611782999999999,-2.1504624,-1.0418569,0.5998173000000001,4.127110500000001
7.342403999999999,-13.792910999999998,-2.001045,-0.6740286999999999,0.49494046,3.9423847000000003
7.632734299999999,-13.667606,-1.9531227,-0.14168583,0.40072759999999996,3.6623987999999996
7.592942,-13.538799,-1.4803923,0.44013712,0.39433968,2.886792
7.6941595000000005,-13.637104,-0.8696028,0.92081827,0.5503198,1.6635081999999999
8.17528,-13.7720995,0.08144116400000001,0.9783094000000001,0.8069006,0.52539647
8.936175,-13.980329000000001,0.14192829,0.6605024,0.98415625,-0.17725565
9.863077,-13.774407,-0.39307046,0.1515993,0.99640846,-0.5094267
10.435895,-13.497791000000001,-0.8560325000000001,-0.31415927,0.74141586,-0.6829648
10.963136,-12.880163,-0.10147584,-0.488762,0.2058965,-1.0646334
11.261118,-12.36926,1.2223645,-0.30457740000000005,-0.38177332,-1.5490495000000002
11.694449,-11.459559,2.228638,0.021188296000000002,-0.85180795,-1.9541580000000003
12.910063000000001,-9.481125,3.008755,0.26073474,-1.0674084,-2.2985637000000003
