accx,accy,accz,gyrx,gyry,gyrz
1.448856,9.600749,-0.7675619,0.20488420000000002,-1.935989,-0.75103265
3.1423802000000003,9.887630999999999,-1.8352226000000003,0.15538666,-0.22722441,-0.9149714
-0.18127938,9.597445,-2.2648764,0.12610003,0.70539224,-0.9937556000000001
-2.8327909,9.001174,-2.4475255000000002,0.13461724,0.4754277,-0.87559676
-3.177709,9.007562,-2.1770954,0.14313444,-0.29962066,-0.7084465999999999
-1.6834303,9.58941,-2.0446386000000003,0.09416051,-0.64456755,-0.6195395
-1.0166546,9.692456,-1.9882121,0.026022859,-0.59878755,-0.6285978
-0.5786880999999999,9.452261,-1.6834781000000003,0.024958208,-0.44547784,-0.67277205
-0.7103118,9.454702000000001,-1.9924258999999997,0.06169739,-0.15323989999999998,-0.7361274999999999
-1.9605734000000001,9.994576,-1.880789,0.0707382,-0.08775515,-0.7515562
-1.6543742,10.561542,-1.8598063000000002,0.07127925,-0.36404076,-0.771261
-0.9477111999999999,10.7614,-2.5107036,0.077667154,-0.6994058000000001,-0.83514005
1.5429002,11.381049,-1.2673466,-0.05222025,-0.96237457,-1.1092963
2.6682707999999997,11.222007000000001,-2.388427,-0.19380136,-0.72921604,-1.5079993999999999
1.2216941000000001,11.979867,-2.5215349999999996,-0.33168238,-0.44441320000000006,-1.8492112
-0.14189956,12.428435,-2.4789849999999998,-0.5190609,-0.54342574,-2.05523
0.44742840000000006,12.653815,-2.644367,-0.692599,-0.7840368000000001,-2.2372851000000002
2.2118402,13.22831,-2.6973748,-0.8496437,-0.92563534,-2.4837432
3.7258663,14.265391000000001,-3.8134080000000004,-1.0290287,-1.0933266000000001,-2.7355417999999996
5.0603848,15.554381,-5.3414545,-1.098231,-1.3041274999999999,-2.9740236
5.546522599999999,16.346737,-4.320347,-1.1530517,-1.5958417999999999,-3.2423154999999997
1.2838476,15.269797,-1.2121077,-0.9459859,-0.5684537,-3.6692405
-2.96044,13.59082,-1.9957011999999998,-0.38011527,-0.089360856,-3.4568339999999997
-1.8235484,10.937384,-1.806588,-0.1820902,-1.0762922,-2.5646565
-3.4174356,9.6351385,1.7297436000000002,-0.3620162,-1.3302027,-1.9562173999999999
-8.772163,5.562583,-0.13593319,0.15643387,-0.704729,-1.1987096000000002
-5.805537,3.2070522,-2.9187906000000003,0.5445078000000001,-1.0028312,0.49035025
-0.74723995,4.1097145,0.07757214,0.53119093,-1.3892995000000001,1.8184935000000002
0.070590645,4.003086,3.3233626000000003,0.48169342,-0.39065704,2.2384894
-1.0021458,2.966981,3.3291757000000004,0.8905193000000001,0.82515675,2.7676383999999996
-3.0878115000000004,4.301499400000001,0.88421696,1.1273954,1.4905635,3.2813237
-3.6142678,6.278487,0.3045712,0.9863379000000001,1.511874,3.936625
-4.073293700000001,6.411605000000001,1.0572028999999998,0.82398736,1.2936032,4.4753385
-4.8117614,6.352047,0.7777324999999999,0.79683006,1.0971838,4.936314599999999
-4.608206299999999,7.5384984,0.24016716,0.8292931999999998,0.85070837,5.2173824
-4.020736,9.060578,-0.17402016,0.891584,0.64523077,5.357933999999999
-3.2574549999999998,10.250506,-0.4202686,1.0193421,0.650554,5.403173000000001
-2.618586,11.106098,-1.0847745,1.187557,0.9992359000000001,5.3036194000000005
-2.001792,12.285769,-2.1442566000000003,1.2493067,1.7971830000000002,4.933662
-3.9391992,14.0104475,-2.7645847999999997,1.0193421,2.3848702999999998,4.282619
-5.4505916,14.351506,-2.794062,0.7606319,2.4381027000000004,3.7055782999999995
-6.256154,13.518237,-4.91499,0.51736796,2.051111,2.7963839
-8.179991000000001,11.82682,-5.4298387,0.5636715,1.5805353000000002,1.4565122
-8.759025,10.245287,-5.1811867,0.5104390000000001,0.5584704,-0.13299409
-8.699591,9.17415,-4.3711033,0.42207298,-0.35178855,-1.6086001
-5.342900299999999,13.975442999999999,-2.9621732000000005,-0.24809855,-0.6525611,-2.8350779999999998
5.2578106,17.657381,0.7728866,-1.4798995000000001,-2.5763679,-1.1646408000000001
22.547606,16.346622,8.710824,-0.53503066,-0.8548448000000001,-2.4076117999999997
1.349736,11.665096,1.2279669,-0.16559684,3.7327182,-4.209001
-7.1396820000000005,5.594894999999999,-3.7312486000000002,0.88467246,5.0544910000000005,-3.5702279999999997
-8.742992,6.368012,-5.073505,0.5578247,3.816302,-3.0874002000000003
-12.355727,8.147085,-6.447279,0.11386528,1.2882798999999998,-2.1622186
-13.166797,10.160695,-2.9897547,-0.11395255,-2.1563717999999996,-1.1790048
-3.7739325,10.295403,0.6930735,0.014852752,-3.9630842000000004,-0.7089701999999999
2.8151407,10.573762,0.42932823,0.13515829999999998,-2.7701516,-0.7025823
5.308644,9.958088,-1.2911738000000001,0.1958434,-0.0866905,-0.98632044
0.65606874,9.104230000000001,-2.168572,0.17826793,1.7663081000000003,-1.1752871999999999
-4.367071599999999,9.09721,-2.91292,0.11758283,1.5006864,-1.0012256
-5.51421,9.392961,-1.584387,0.123447135,0.08948303,-0.72867495
-1.679791,9.742313000000001,-1.1000782,0.16175711,-0.72867495,-0.58175313
-0.0752354,9.613678,-1.5757678999999998,0.15219271,-0.47157052,-0.6674488000000001
-0.50509995,9.534813,-1.6838994999999999,0.13515829999999998,-0.020158553,-0.78775436
-1.7685776999999998,9.269458,-1.7572005000000002,0.14526375,0.15974998,-0.8351226
-3.0019171,9.477572,-1.7605138999999999,0.18519689,-0.035587262,-0.77658427
-3.3201258,10.131361,-1.3541604999999999,0.24108233,-0.30654964,-0.6631902
-2.5245802000000004,10.792131,-0.79165715,0.28792697,-0.39118063,-0.5918585999999999
-1.0986034,11.368263,-1.067517,0.27408649999999996,-0.53864354,-0.67437774
0.7806151,10.967360000000001,-1.9063591,0.20755455,-0.633921,-0.91125387
0.9285001,10.879387,-3.4079642,0.10002482,-0.5109626,-1.1997743
0.028031313999999998,11.055849,-3.4263324999999996,-0.0559378,-0.58761746,-1.4579608
-0.0972812,11.466128999999999,-2.9756862999999996,-0.22041763,-0.7478387,-1.6660913
0.022629995,11.976602,-2.836995,-0.35084608,-0.8276875,-1.8593341
-0.081948735,11.694372999999999,-2.577109,-0.4328242,-0.9911201,-2.0323486
0.7744572,11.887862,-2.8867562,-0.5499358,-1.2237376,-2.1808586
2.3444597999999996,12.960724,-4.03264,-0.6909933000000001,-1.536745,-2.3575907000000003
3.7613962,14.216357,-4.4722347000000005,-0.78948224,-1.8976616000000002,-2.5859497000000005
3.3808617999999995,15.508460999999999,-3.6481602,-0.8411091,-2.1185853,-2.9117327
0.44716024,16.263189999999998,-0.7231255999999999,-0.5823989,-1.4899003999999998,-3.2822312999999994
-1.9588208999999999,14.024534,-1.4453125,-0.059655353,-1.3062568,-2.9894524
-1.7778001,11.244695,-1.5306706,0.029216811000000002,-1.9461118999999998,-2.1888349999999996
-2.3202112,10.556686000000001,2.2139664,-0.20338322,-2.0499066999999997,-1.7943904
-10.252432,6.153989,0.6162101,0.30976105,-0.7249574000000001,-1.289205
-5.8597608,3.4276252,-1.1356082,0.5855056,-1.1619879,0.45839328
-0.8687026,4.3505707000000005,3.162185,0.46572366,-1.6160527,1.6130159
0.49882716,3.3730182999999996,5.214935,0.70739937,-0.8356811,2.0995612
-0.10655155,3.1966329,3.7182622000000003,1.1300658000000001,0.35138714,2.6047293999999996
-2.037255,5.2966447,2.4003212000000005,1.212585,1.1174121000000001,3.0423009999999997
-3.5333053999999997,6.7127,2.2416527000000004,1.089609,1.3377948999999998,3.6475637
-4.1460295,6.5268809999999995,1.8196316000000003,0.9815556999999999,1.1834205,4.286354
-4.0662737,6.7244697,1.2709093,0.8447394,0.9848544,4.7489360000000005
-3.5551884,7.1060576,1.2952343000000002,0.7840543000000001,0.8693485000000001,5.0736547
-2.7922902,7.664299499999999,1.2203534,0.86762065,1.0088178,5.393591000000001
-2.3623013,9.052927,0.28858748,0.9948551,1.2978617000000001,5.6874347
-2.142887,10.940257,-0.67613214,1.1188956,1.6657073,5.840221
-2.6436584,13.5442,-2.6952295,1.0970616000000002,2.1469294999999997,5.606521
-3.038759,15.637345000000002,-3.2277668,0.7963064999999999,2.5493674,4.8862762
-5.621116000000001,15.763060999999999,-3.1029906000000005,0.6477963999999999,2.5754602,4.072359
-7.725696000000001,14.648588,-4.0930123,0.7388153000000001,2.16077,3.0497534
-10.303016,12.512653,-5.773043,0.61264545,1.1072892,1.4655528999999998
-8.118238999999999,10.097728,-5.3522763,0.17029178,-0.38425168,-0.6658430999999999
-6.755623,11.340213,-4.015392299999999,-0.08735373,-0.82396996,-2.0935574
-6.1598024,13.591854000000001,-4.3387337,-0.64468974,-1.6261756,-2.5305877
11.411465,13.927032999999998,4.8768353,-0.56855845,-3.8731297999999996,-0.9229649999999999
10.658852,17.679962,2.0081415000000002,-0.3620162,-1.1092788999999998,-2.7509706
-3.2100115000000002,11.463716,1.2818459999999998,-0.09320058,2.0665395,-3.2194168999999997
-4.327673,4.5083776,-1.1868919,0.6834534999999999,2.7292936,-2.5822146
-6.6225247000000005,7.413492,-3.2363381,0.5013982,2.3364375,-2.2441967000000003
-7.519402499999999,10.270245,-3.3305165999999997,0.27408649999999996,0.8086634,-1.5798546
-7.0498037,10.937834,-3.272711,0.107477374,-1.3887585,-1.0911798000000001
-2.4660661,9.583808,-0.68612075,0.12662363,-2.3091578,-0.77658427
1.4792718999999999,9.508543,-0.16366763,0.22671826,-1.6975073,-0.73506284
2.7625349999999997,10.205112,-1.7272729,0.23204152,-0.29377383,-0.8867669
0.31640809999999997,9.757273,-2.6616244,0.15112805,0.61754984,-1.0017492000000001
-1.9464860000000002,8.914925,-3.1712062000000003,0.097354464,0.52014303,-0.8825083
-2.6543462000000004,9.008844,-2.9445042999999997,0.077667154,-0.13086478,-0.7158817
-2.1238961,9.919666000000001,-0.6913688,0.087231554,-0.51680946,-0.62966245
-1.1907802,9.727996000000001,-1.3658633,0.098419115,-0.70312333,-0.62060416
-0.30314425,9.453439,-2.0081031000000005,0.0760789,-0.6083694000000001,-0.6823539000000001
0.20340179,9.354233,-2.6105034,0.033475414,-0.40182716,-0.7744375
-0.93386316,9.6070595,-2.6076113999999997,0.011117746999999999,-0.15908676,-0.81595886
-2.239182,10.230317999999999,-1.0201502,0.010594148000000001,-0.07604399,-0.7930775999999999
-2.7314583999999997,10.084301,-0.86437386,0.038798667,-0.27300440000000004,-0.7222696
-1.7836323,10.073805,-1.9314313000000003,0.017523106,-0.38159879999999996,-0.6924594000000001
-1.0440443000000001,9.722919000000001,-2.945481,-0.022392575,-0.34007740000000003,-0.73185146
-0.9697665999999999,9.659866000000001,-2.3490853,-0.029304077999999997,-0.35444146,-0.8537627
-0.22883779999999998,10.692724,-2.1464114,-0.094788834,-0.59932864,-1.0134603000000002
0.66706294,11.370935000000001,-1.8744875,-0.21615903,-0.68502426,-1.2950692
0.013828908999999999,11.519663000000001,-2.3315694,-0.35669294,-0.5540722,-1.5101286
-0.7662786,11.837661,-2.6634057,-0.4796514,-0.5114862,-1.6820611
-0.6653965999999999,11.652847,-2.6451523,-0.58081067,-0.67437774,-1.8188598999999999
0.22589771,11.857332000000001,-2.540928,-0.7245210999999999,-0.81969386,-1.9774929
1.6874908,13.113032999999998,-3.051908,-0.90446454,-0.94321084,-2.1861646
2.9071162,14.024448000000001,-3.3769351999999997,-1.0311405999999999,-1.1316366000000002,-2.4496569999999998
4.190581,15.308812,-4.3888206,-1.1418641999999999,-1.7257116999999997,-2.6641927000000005
4.608187,15.603214000000001,-1.5554075,-1.1658276,-1.4324092,-3.0735598
0.67596936,15.422356,-1.6585785,-0.9789901,-0.28525662,-3.3705974000000003
-2.8272647999999996,12.809104,-2.9870157,-0.5371600000000001,0.17997836,-3.1597965
-3.3920187999999993,9.949114,-1.4593903999999998,-0.3423114,-0.41140902,-2.4949133
-5.0479064000000005,7.815583999999999,0.67652476,-0.30878365,-0.41833797,-2.0046504
-9.226545,4.645412,-1.3422469,0.11705923,-0.16866861,-0.9692685999999999
-4.4220233,3.6191422999999996,-1.6210374,0.21340140000000002,-0.9543809000000001,0.6111794
-1.175802,3.2549171,0.22718102,0.24108233,-1.3797177,1.6486903000000002
-0.48156014,2.99008,1.551979,0.3731165,-0.8122413,2.2150846
-0.9824271000000001,3.4013082999999997,2.3577714,0.64832,0.16135569,2.6329512999999998
-2.6233554,5.0050597,1.9913917,0.84739226,0.93855083,3.1045916
-2.8212029999999997,5.8998685,0.9926743,0.9347110999999999,1.2558167,3.6949494
-3.1014392,6.64278,0.91808057,0.91128874,1.3484413999999998,4.1628547
-3.5182412000000003,7.7044353,0.75199956,0.90650654,1.4671587,4.487591
-3.3633937999999994,8.596055999999999,0.19786641,0.9038361999999999,1.4964278999999998,4.7441716
-3.2885892,9.140286,-0.114050195,0.95865697,1.3750577,4.991153
-3.3058467000000005,9.874962,-0.5580884,1.0406525,1.1983256000000002,5.2402809999999995
-2.8628907000000003,10.825412,-0.91667277,1.1582878,1.0434276,5.4297889999999995
-2.0260215,11.665096,-1.6793314,1.2567767,1.2334591000000001,5.3685803
-2.2966618999999997,13.71915,-2.1436822,1.145512,1.6231213,4.9342027
-3.8995512000000003,15.753359,-1.8780691999999999,0.87615526,1.8813078,4.22354
-4.862394,14.630162,-2.4366941000000004,0.68612385,1.8823724999999998,3.5331222999999996
-5.9324965,12.670594,-3.2051754,0.76862556,1.6502786,2.2762933
-8.229839,11.532516000000001,-5.0279098,0.47637016,0.8768011,0.65750045
-7.0129232,10.551428999999999,-4.6732135,0.12398819,-0.24265313,-1.1188433
-6.9638515,13.165973999999999,-3.8169227,-0.25661576,-0.36243507,-3.0336266
-0.82967705,15.209473000000001,-4.662181400000001,-0.9598089,-2.0642707,-1.7326232
17.952616,17.249360999999997,5.1116779999999995,-0.36147514,-2.69135,-2.1318674
1.0376949,13.718939,1.8389193,-0.53448963,1.1461576999999998,-3.7469425000000003
-5.587435,5.4200225,-0.8399626,0.24588199,2.5951476,-3.1534085
-5.9048004,5.2578297,-2.2418058,0.48651052,2.3486896,-2.6455526000000003
-7.7182937,9.373347,-2.5078497000000004,0.28687978,1.6002399999999999,-1.9822927
-9.130326,10.739804,-2.8498185,0.17509143,-0.5849470999999999,-1.3610601
-5.1834945999999995,10.284073,-0.83831537,0.20648989999999998,-2.4337046,-0.8670621
0.33856884,9.59598,-1.4164288,0.23630013,-2.4368985,-0.785084
2.4154432,9.85507,-2.0414494999999997,0.17987363,-0.79787725,-0.81117666
1.5226165,9.570285,-2.7719110000000002,0.1287704,0.50897294,-0.96980965
-1.5260833999999999,9.44662,-2.654212,0.059044488,0.85604906,-0.9431934000000001
-3.3386089999999995,9.443660000000001,-1.763569,0.09309586,0.14697418,-0.7930775999999999
-2.7061374,9.576606,-1.3547733999999998,0.14634585,-0.5870764,-0.6482675999999999
-1.0789996000000002,9.541103999999999,-1.8494251,0.13409364,-0.7174874,-0.6173928000000001
-0.5708446999999999,9.329706,-2.4922584999999997,0.093636915,-0.53012633,-0.6573259
-0.3020812,9.321547,-2.3438754,0.069673546,-0.30600858,-0.7318689
-1.0276488000000001,9.513255000000001,-2.3091692999999998,0.05318018,-0.04675737,-0.7749785
-2.3260722,9.554943,-2.1864328,0.056374136,0.009110618000000001,-0.76220274
-2.667648,9.998348,-1.5963292,0.08140215,-0.17132153,-0.68446577
-1.8944168999999997,10.895217,-1.5230953999999999,0.09843657,-0.41566762,-0.66425484
0.19941784,11.473637,-1.7635403000000003,0.08724901,-0.5785591999999999,-0.8202174999999999
1.3752678999999999,10.97209,-2.8877616,-0.03143338,-0.6477615,-1.1087378
1.4100698,10.635311999999999,-3.284385,-0.16664404,-0.75049156,-1.444644
0.33898064,11.217869,-3.1899865000000003,-0.31782445,-0.81969386,-1.7086773000000002
-0.14938861,12.029111,-2.6900961,-0.47858673,-0.82821107,-1.8843273
-0.047548845,12.191744,-2.521506,-0.61912066,-0.80958843,-2.0307255
0.24098119,12.1368885,-2.5398457000000003,-0.72665036,-0.8825083,-2.1547487000000003
1.5447485,12.822022,-3.0374854,-0.89699453,-1.1651643999999999,-2.3107285
3.9496762999999997,14.239525,-3.8614832999999997,-1.0753323000000001,-1.6213758999999999,-2.4997130000000003
6.401741,16.082714000000003,-3.8414582999999998,-1.2515233000000001,-2.1302790000000003,-2.7488236
4.5105515,16.684752,-1.5912343,-1.1871206,-1.173699,-3.2822312999999994
-0.37288254,14.963291,-1.5232294,-0.7798829,-0.020141099,-3.4344589999999995
-2.8758194,12.896023,-1.8822447,-0.5994333000000001,-0.2841745,-3.0852535
-4.1863284,10.086859,-0.42520064,-0.51584953,-0.50616294,-2.3953772
-7.750825999999999,6.4458804,0.038891412,-0.16292648,-0.49284607,-1.6650267
-5.7193456,5.1563349999999994,-1.8924631999999997,0.17189747,-1.0310358,-0.064315386
-0.8653603000000001,4.4926233,-0.2256583,0.16605063,-1.3062394,1.1403283000000002
-0.9253973,3.3721278,1.217873,0.23684117,-0.5141391,1.7359917
-1.687127,2.7800992,1.3067744,0.5370727,0.49832642,2.347625
-2.824727,4.467839,0.76432496,0.67067766,1.0657853000000002,2.927336
-3.7740567000000005,5.917959,0.34030226,0.6222448,1.1658624,3.5389866999999997
-4.233169,5.668694,0.35818216,0.61318654,0.96410245,4.0824823
-4.3144855,5.8199214999999995,0.43045829999999996,0.63341486,0.77726495,4.5780683
-3.6729543,6.4520955,0.62632316,0.65737826,0.79004073,4.935267400000001
-2.7954986,6.996891499999999,0.43018058,0.87456703,1.0588563999999998,5.2429514
-2.2527904999999997,8.206605999999999,-0.42578483,1.0832386,1.4746113,5.497944400000001
-2.3319522999999998,9.884136,-1.2415756000000002,1.2439833999999999,1.8344456999999998,5.6757235999999995
-2.6511092,11.710414,-2.5032048,1.319591,2.1666342999999997,5.705551
-3.0992174,14.362604999999999,-4.1409826,1.163611,2.32525,5.4234014
-3.574093,16.168303,-4.017892,0.8990540000000001,2.1421473,4.755882700000001
-5.5790834,16.196142000000002,-3.489214,0.8202698,2.0793328,3.8381536
-9.4352045,14.0518,-4.8444853,0.9091769000000001,1.6268563,2.4588897000000003
-9.41538,10.684145,-5.405810400000001,0.5807234,0.30721286,0.48822096
-7.271526,10.3175535,-4.63732,0.24270548,-0.77658427,-1.4238745000000002
-8.350822,14.057622,-2.1685052000000002,-0.2757795,-0.5375614000000001,-3.4488404000000004
1.3117927,17.146314999999998,-2.530767,-1.1998965,-2.831884,-1.4888181999999999
18.929106,17.06471,7.593957400000001,-0.47699848,-2.239938,-2.481073
-0.18234241,10.954191,1.9944273999999997,-0.29440212,2.2901337,-3.8480844
-7.495153999999999,6.497719999999999,-2.4322502999999998,0.8213345,3.7226129,-3.4296767999999997
-8.119054,7.340747,-2.5672355,0.4503124,2.9496762999999997,-2.6801624
-10.23143,8.529036999999999,-3.4570072,0.37576938,1.0854726000000001,-1.9162668
-10.161692,10.245584,-3.653973,0.17135642,-1.6746085,-1.144936
-3.6039248,10.3950405,-1.12199,0.1261175,-3.170984,-0.718011
1.5450357,9.90555,-0.30325916,0.22778292,-2.4193406000000004,-0.7116231
3.5751752999999997,9.952122,-1.9013792,0.23045327,-0.41512656,-0.8441634
0.889647,9.586374000000001,-2.7253582,0.14208725,0.86137235,-0.9953438
-2.6605902,9.008289,-3.3662763,0.11386528,0.9870011000000001,-0.89367837
-4.369648000000001,9.027137,-2.171062,0.09524262,0.06394886,-0.68711865
-2.568375,9.508514,-1.3551852,0.14634585,-0.8239525,-0.5034751000000001
-0.62648594,9.669156,-1.6361591999999998,0.13941689999999998,-0.86121523,-0.53489107
-0.34622073,9.38167,-2.4087009999999998,0.09950122,-0.5466022,-0.6024877
-0.51409256,9.185172999999999,-2.4412045,0.068626344,-0.20964895,-0.6679724
-2.0086203,9.681271,-1.7596138,0.06382669,-0.011100293999999998,-0.6536083
-1.9867948,10.335491000000001,-1.7972792000000002,0.092572264,-0.17612118,-0.6275156999999999
-0.9247173000000001,10.5594635,-2.13445,0.13782865,-0.41406190000000004,-0.672231
0.08411309,10.997555,-1.7579952,0.102695175,-0.6301859999999999,-0.8015774
1.5734598999999998,10.858652000000001,-2.2416812999999998,0.021781709,-0.77284926,-1.1305544
1.9039266,10.913317999999999,-3.5433612,-0.12564625,-0.6482851,-1.4659195
0.8701295,11.344915,-3.5136347000000003,-0.27523842,-0.6530673,-1.783709
0.45239878,11.808203,-3.3224718999999996,-0.4391772,-0.7845604,-2.0243201
0.13131717,12.531922,-2.7256742000000003,-0.550983,-0.77232563,-2.2085220000000003
0.48116753,12.989195,-1.9397153000000003,-0.64627796,-0.9607688,-2.3628964
2.0361536,13.472613,-2.2252095,-0.7974584,-1.2130911,-2.5263116
3.8526535,14.21021,-3.619468,-0.93745124,-1.4371914,-2.715296
5.306068,15.471896,-4.5646510000000005,-1.1019311,-1.9657818,-2.9000041000000003
3.3493733,15.769207999999999,-1.7001609,-1.0066535,-1.2652415000000001,-3.3375757000000004
-1.1711572000000001,14.975665,-0.68681985,-0.50200903,-0.58175313,-3.3572805
-2.6844938,12.379191,-2.5857377,-0.21135937,-0.8926136999999998,-2.8276079
-2.407839,10.325033,0.0976547,-0.30079004,-1.4329326999999998,-2.0392253
-6.50314,7.6831083,1.9005938999999998,-0.06709046,-0.8058534,-1.7704096
-8.993761,3.9701513999999998,-2.6707224999999997,0.33852407,-0.7286575,-0.15481070000000002
-2.4962711,3.7931337,-0.31826603,0.35875243,-1.4510318000000002,1.4645058000000002
-0.3809941,3.9898220999999996,2.5191022999999997,0.33000687,-0.9751329,2.1011843999999997
-0.5802586999999999,2.57754,2.985225,0.68825316,0.12250466,2.5414088
-1.3475716,3.5952672999999997,0.98605675,0.96293306,0.8533961999999999,3.1988220000000003
-2.2433958,6.240736,1.1005284,0.8846898999999999,1.0354515,3.7125247000000003
-4.2096004,6.09242,1.5418947,0.8804139000000001,0.9497384,4.238986
-4.7507377,5.493448,1.0126708,0.9347285,0.7394611,4.781957599999999
-3.3717735,5.9692526,1.0510738000000002,1.0108423,0.6095736999999999,5.1955833
-2.1365857000000004,7.0229691999999995,0.8093743,1.1843803999999998,0.8927883,5.536271599999999
-1.8098537000000001,8.999708,0.030894779,1.3440781000000002,1.3654933,5.8780246
-1.6077256000000002,11.538836,-0.9400689,1.445761,1.688606,6.0744615
-2.2313387000000002,14.604458,-3.2733142,1.3802762,2.0841327,6.010565
-2.2496972,17.597918,-3.8721616,0.9128944999999999,2.3023686000000003,5.368057
-5.601685,17.085281,-2.7222743,0.70157,2.4844239,4.2288804
-8.390509,14.56685,-3.6588,0.91875875,2.0159773999999997,3.275477
-10.521224,12.178596,-4.986729599999999,0.6494021,0.59468603,1.5981281999999999
-7.20105,9.558667999999999,-4.886297,0.19851375,-0.8468511999999999,-0.5796064000000001
-6.3713346,10.637678,-4.3204803,-0.21348867,-0.9362644,-2.291024
-6.792264,12.714705,-4.509843,-0.28321457,-0.83299327,-3.1986475
7.33638,15.590035999999998,-0.6308816999999999,-0.9805609000000001,-3.2050354,-0.86652106
14.102097,16.127937,6.472715,-0.67394143,-1.303569,-2.7136902999999997
0.025723303,11.359846000000001,1.9458827,-0.16823229,2.7580566,-3.4924736000000003
-5.442681299999999,7.181006,-3.8730428,0.7867420999999999,4.3033886,-3.3759031000000004
-7.4837284,6.926665,-2.6358917,0.47745228,3.7444468,-2.6338415
-10.849536,8.225731,-3.643994,0.38004544,1.9238939,-1.8731397
-10.661925,10.542618,-3.6873772000000002,0.103777274,-0.9474520000000001,-1.1018089
-4.374838400000001,10.826618,-2.9388537,-0.015446163999999998,-2.9718769,-0.63336253
0.8761821,9.845761,-0.60218966,0.0776846,-3.1076286,-0.6195221
3.8037927000000002,9.732095,-0.7417140999999999,0.15327482,-1.2391663,-0.7052177
3.2058169999999997,9.460727,-1.5786216999999998,0.17935003,0.66814697,-0.96607465
-1.1318350000000001,9.083803,-2.4702609,0.17296213,1.2350647,-0.97937405
-3.617275,9.221747,-2.361564,0.14955726,0.44989353,-0.8319112
-3.1536232999999996,9.673312,-1.2032013000000001,0.1969255,-0.67755425,-0.66156703
-0.5586821999999999,9.599034,-2.134316,0.17669713,-0.9857794,-0.6397503999999999
0.5284003,9.355899,-2.3921235,0.12239994,-0.65147907,-0.74460983
0.023386562000000003,9.416960000000001,-2.1760135,0.086725414,-0.17931512,-0.88516116
-1.6012133,9.985708,-1.5414063,0.09152506,-0.0094945915,-0.92081827
-3.0201898,10.091358999999999,-1.4237648,0.13357005,-0.15481070000000002,-0.83777547
-3.2823644,10.115828500000001,-1.6870503000000001,0.16072737,-0.39222783,-0.7323751000000001
-1.8689904,10.668275999999999,-1.9165968,0.14795156,-0.76059705,-0.70788807
0.5801055,11.167725,-2.3547835,0.073967054,-0.9351997999999999,-0.8532042
1.5360624,10.885976,-3.074471,-0.04579744,-0.8729264000000001,-1.165147
1.0851288000000001,11.281630999999999,-3.0558634,-0.187396,-0.7824310999999999,-1.4531437
0.58326584,11.489639,-3.1079323,-0.36412805,-0.7973361999999999,-1.7331468999999997
0.41774032,11.791874,-3.0172877000000002,-0.48815113,-0.84470445,-1.9466006
0.16987339999999998,12.125751,-2.3464327000000003,-0.60048056,-0.943717,-2.1308026
1.0230328000000002,12.526214,-2.2340009999999997,-0.7463377,-1.1374834999999999,-2.2958062000000004
3.2484912999999995,13.471254,-3.3416927000000003,-0.9225287,-1.2673708000000001,-2.5060833
4.326122,14.688878,-4.7570486,-1.0438988,-1.4664606000000002,-2.7312484
5.0533075,16.239708,-2.2670121,-1.1370646,-1.4563551000000001,-3.065025
0.9357689,16.027973,-1.3658633,-0.87833697,-0.6062227,-3.3950492999999997
-2.4548326,13.538723000000001,-2.2336943,-0.36147514,-0.29640928,-3.174143
-2.6289196,10.806642,-1.479406,-0.18472564,-0.85695666,-2.534829
-3.773482,9.562672000000001,1.5507915,-0.31834805,-1.0879858999999998,-1.9993095
-9.875154,4.8486605,-0.41006932,0.32255429999999996,-0.52211523,-1.2497953000000002
-5.367963,3.563185,-1.8656482,0.55145425,-1.5181048000000001,0.67774624
-1.147991,4.12248,0.9289790000000001,0.5035449000000001,-1.9844218,1.7519790000000002
-0.4741094,3.8399355,3.3827580999999998,0.5801998,-1.2381016000000002,2.2496946
-0.03424666,2.8886235,3.6947224000000003,1.0145948,-0.14097025,2.7841666000000003
-0.73941565,4.9200077,2.4019972999999997,1.1881155,0.774612,3.319145
-2.293329,6.187507599999999,1.8538303,1.1662813,1.1270114,3.8072786
-3.8602192000000004,5.9858970000000005,1.466142,1.1631049,1.0625913,4.390184
-4.0090046,6.267952999999999,0.9235106,1.1295596,0.8321031999999999,4.899087000000001
-3.1295759999999997,6.834632000000001,0.9771216,1.1423354,0.66441196,5.2759733
-2.3718207000000002,7.918659,0.64699954,1.2461476,0.8156098,5.6688294
-1.9503838,10.130652,0.09328768,1.3020331,1.1158238999999999,6.0121709999999995
-0.9897438000000001,12.450759,-1.0001346,1.4255326000000001,1.6268563,6.130347
-1.0343525,16.563833,-3.3979757000000004,1.259447,2.2598,5.873783599999999
-1.0620583000000001,18.382326000000003,-3.547594,0.8809724,2.8831444,4.806986
-6.1875367,16.241889999999998,-3.3627616999999996,0.75906116,3.2046688,3.499071
-10.596661,13.808060999999999,-4.4912257,0.75693184,2.469536,2.3811877
-9.939605,10.503411,-5.371506,0.33426547,0.5776515999999999,0.562764
-7.2500257,9.540979,-4.9066386,-0.007993608000000001,-0.7041705,-1.3913765
-6.5274177,12.301734,-3.1043699,-0.20336576,-0.361894,-3.0942943
-4.864635,13.613843,-6.576948599999999,-0.7324972,-1.6336107,-2.1872118
17.142178,15.727595999999998,5.969731299999999,-0.7010813,-3.618661,-1.3072691
4.5305862,14.077418,2.5833724,-0.44769440000000005,0.19863592,-3.1565849999999998
-5.007157,10.80441,-1.6688543999999998,0.45989427,3.0242193,-3.5648699
-5.7760787,7.3973265,-0.25360343,0.21289526,2.7910607000000005,-2.6599166000000003
-8.255495,6.4194580000000006,-0.7494905,0.48596948,2.0202534,-2.1286560000000003
-8.991932,9.356847,-4.1002812,0.33374184,-0.21123719,-1.4052343
-6.09604,11.160734,-2.390141,0.19053759,-2.075441,-0.8633271
-0.94066274,10.226353999999999,-1.0376756999999999,0.17243853,-2.3070111,-0.70469415
1.9322932000000002,9.608535,-1.2431653,0.20544271,-1.2679118999999999,-0.7004355
2.0311067,9.85394,-1.7807976000000003,0.16978563,0.037873644,-0.85426885
-0.6572658,9.545299,-1.9089831000000002,0.16498597,0.626102,-0.8808851000000001
-2.630452,9.013106,-2.679284,0.15435691,0.19970058,-0.75845027
-2.4216874,9.118049000000001,-2.3514892999999994,0.13730505,-0.50775117,-0.64400905
-1.051112,9.771550999999999,-1.7178683999999997,0.10962413,-0.7377158,-0.6173928000000001
-0.7945972,9.532246,-1.9065794999999999,0.07183775,-0.66051984,-0.65678483
-0.8899822000000001,9.420313,-1.8503444,0.05906194,-0.47952920000000004,-0.70308846
-0.88543326,9.672278,-2.1413548,0.015934857,-0.35070646,-0.7280989999999999
-1.4481760000000001,9.596152,-1.8815073,0.037245326,-0.18355627,-0.7419395000000001
-2.5149171000000003,10.003339,-1.2393346,0.039898228,-0.011623893,-0.69085366
-2.9085815,10.441467999999999,-0.9741431999999999,0.0707731,-0.18675023,-0.62323964
-1.8921089,10.627497,-2.0888453,0.041486476,-0.5705656,-0.5913001
0.89946324,10.182559,-2.8987844,-0.040997785,-0.85482734,-0.74460983
2.1194909,9.926064,-3.2594566,-0.1841846,-0.70629984,-1.1198905000000001
1.2192041,10.677919000000001,-3.3512025000000003,-0.34122932,-0.40287435,-1.4329153000000001
-0.34433407,11.526204,-2.7914476,-0.49932125,-0.42203808,-1.6612741999999998
-0.81256336,12.030614,-2.4267342,-0.58983403,-0.64722043,-1.8044784
-0.94823796,12.0632515,-2.0811933999999996,-0.67926466,-0.83777547,-1.9013441999999998
0.07458418,11.916152,-1.945107,-0.80541706,-0.92402965,-1.9881220000000002
2.0982497,12.769177,-3.0349188,-1.00983,-0.85587454,-2.1440847
4.115317,14.021834,-4.110385,-1.1823034,-0.7089526999999999,-2.4097237999999996
5.755795,15.151782,-4.7706865999999994,-1.3286841999999999,-0.8585449,-2.7732932999999997
4.200368,15.815617999999999,-1.5849903,-1.2765338,-0.30173249999999996,-3.2854078
-0.6536841,15.255451,-1.3503106000000002,-0.882072,0.58670986,-3.4450879999999997
-3.9143763,12.801883,-1.8454220000000001,-0.57225853,0.47705084,-3.2385457000000004
-4.8256955,9.845953,-0.6921541,-0.40669662,-0.17982127,-2.5475874
-7.271746,7.0034804,0.048228797000000004,-0.17247343,-0.6173928000000001,-1.7954202000000001
-7.034269999999999,5.017011,-2.3618321,0.15062192,-1.3008986,-0.31342623
-1.5622646,4.234136,-1.5106742,0.20013689999999998,-1.9327776,1.1084062
-0.14767437,3.853822,0.20381359999999998,0.16713274,-1.4904065,1.8201166000000002
-0.7120164000000001,3.4650992999999994,1.6281146,0.30819023,-0.34538320000000006,2.2789812
-1.25709,3.7708006000000003,1.5794356999999999,0.620674,0.6766641999999999,2.8315349
-1.4233912,5.187794,0.56488794,0.6973114,1.3255776000000001,3.4165692
-2.369197,6.107848000000001,0.23025517,0.6994406999999999,1.6257917,3.9180023999999998
-3.8443506000000003,6.6006894,-0.037416585,0.72872734,1.7514379,4.382731
-3.8639542999999996,6.9087276,-0.25888026,0.7282036999999999,1.6891471000000002,4.824561
-3.1061799999999997,7.595384599999999,-0.3982132,0.84955645,1.6236798000000001,5.200383
-2.770283,9.286706,-1.1958463,0.99489003,1.7141751,5.5341597
-2.6389081,11.155045,-1.9998958999999998,1.1157366000000002,1.7658019,5.77423
-2.26435,12.361158,-3.2131624,1.2498826,1.8493857,5.829068
-2.0674412,14.97895,-4.190418,1.1950444,1.7253453,5.6464715
-2.205309,16.49129,-3.5721872,0.9927607,1.6896881999999998,4.865558999999999
-5.9089375,15.583763000000001,-3.1101446,0.9730734000000001,1.8280928,3.895662
-8.853883,13.76689,-4.101928,0.9624269,1.4687643999999997,2.7021884999999997
-8.538997,11.061423,-4.614182,0.49982738,0.2939309,0.8257327
-5.9373903,9.745894,-4.1848730000000005,0.09845402,-0.72972214,-1.24339
-5.375634,13.123654,-2.3381293,-0.3156777,-0.37678167,-2.8925343
-5.2476115,14.4766655,-5.272884400000001,-0.8314923000000001,-0.89048445,-2.8526185
17.110394,17.075352,6.877086,-0.73940873,-2.7658582000000003,-1.6059123
4.8962765,15.14185,2.4944134,-0.6228382,0.89118254,-3.8283796000000003
-6.629937,7.915748,-1.7221302,0.23739968,3.3457440000000003,-3.7570307
-4.3509636,4.9463444,-2.459822,0.27679175,2.9502347,-2.9995403
-7.485030999999999,7.502298,-2.6791883,0.2091777,2.2507591000000002,-2.5933672999999997
-11.552099,9.364067,-3.760247,0.087807514,-0.07974409,-1.7522931000000002
-8.54392,10.274631,0.13238977,0.14690436,-2.3692843999999997,-1.0006496
-1.2268273,10.119736,-1.4161991000000003,0.10218903,-2.6077662,-0.77813756
2.3095044999999996,10.27282,-0.49043787,0.13730505,-1.0118546,-0.8154178000000001
1.4268867,10.032318,-1.657477,0.10058332,0.59894466,-0.99267346
-2.203403,9.212879,-2.8526242,0.0686438,0.9997944,-0.929318
-4.3742160000000005,8.963135000000001,-2.343703,0.08300786,0.20076522,-0.70947635
-2.8562347999999997,9.3551035,-1.5058761999999999,0.11815879,-0.6647784999999999,-0.54019684
-0.65655714,9.804151,-1.5410998,0.087807514,-0.72493994,-0.551908
-0.38801393,9.680705999999999,-1.5779610000000002,0.059602994000000006,-0.37784633,-0.6370800999999999
-0.9831263000000001,9.599484,-1.6605896,0.05906194,-0.17290977,-0.6961595
-1.7346758000000002,9.574067,-1.8162031000000003,0.07609635599999999,-0.14735815,-0.7147996
-2.036077,9.847754,-1.6776267,0.089936815,-0.23413591,-0.7084117
-2.0212903000000004,10.728782,-1.3180655000000001,0.10431833,-0.28682742,-0.6759311
-1.6103305,11.334361,-0.85854155,0.13039355,-0.47048840000000003,-0.70469415
-0.20402429,10.943676,-1.7853371,0.10058332,-0.7094938000000001,-0.8462927
1.1731013000000001,10.816955,-2.842741,0.0047647487,-0.7307868000000001,-1.1097851
1.2179303999999997,11.273396,-3.0312892999999996,-0.14426892,-0.6152809,-1.4110812
0.6632992,11.504397,-2.674218,-0.34335864,-0.5375614000000001,-1.6857612000000002
0.28479508,11.786721,-2.6877406,-0.5147674,-0.58492965,-1.8986913
0.5423154,11.856622999999999,-2.8637428,-0.64837235,-0.7526034,-2.1041689999999997
1.4380819999999999,12.336536,-3.0791156,-0.7814536999999999,-0.89526665,-2.3021939
2.9141264,13.355383999999999,-4.0736099999999995,-0.96192074,-1.0059903000000001,-2.509801
3.7446272000000005,14.591816,-5.229952,-1.0300584000000002,-1.3929996,-2.7264485
3.842914,15.443482000000001,-3.2996504,-0.9709616,-1.6921666000000002,-3.0788481
-0.029515719,15.393710999999998,-0.94312394,-0.7053399,-0.94211125,-3.4259242999999997
-3.5098517,13.750732999999999,-1.9512839,-0.15385078,-0.5652249,-3.1618907000000003
-3.2205557999999996,10.728131,-1.7864672,-0.014922565,-1.5196931,-2.4224997000000004
-4.7905583,9.332818,1.8499134999999998,-0.09155997,-1.8188598999999999,-2.0168676
-9.316155,4.959215,-0.7032440999999999,0.500351,-1.4153573999999998,-1.0187486
-3.7506702000000005,3.5057912000000004,-1.5372211999999998,0.76653117,-1.934907,0.6708347
0.21488439,3.9669528,1.6189784,0.6919881,-1.9460945,1.5858934
0.25709897,3.6164989999999997,3.841918,0.83465135,-0.8100946,2.0506222
-0.18955374,2.908189,3.8688095000000002,1.1684281,0.49727920000000003,2.4621009999999997
-1.0205045,4.450773000000001,2.447516,1.3579534,1.4245901,3.0301009999999997
-1.8131769,6.298762,1.4694843,1.3047035,1.7588905,3.6060772000000005
-3.4109044,6.593047,1.2373235,1.1971737,1.6715891,4.149049
-4.126828,6.5528917,1.0457873,1.0598338,1.3197132,4.6371827
-3.4806714,6.9227289999999995,1.4843571000000002,1.0470579,1.0013827,5.0827480000000005
-2.5654828999999997,8.152439,1.2172121999999999,1.1380768,0.99021256,5.4979615
-1.8544432000000002,10.101023,0.6214486,1.2440183,1.251052,5.8035164
-1.3171175,12.00493,-0.33732384,1.3504834,1.5464839,5.933404
-0.9433538,14.721045499999999,-2.451021,1.4021277,2.0186653000000003,5.789676
-0.6189778,17.521774,-3.4586926,1.0827323999999998,2.3854287,5.132786299999999
-2.6092869999999997,16.210910000000002,-2.7088667999999996,0.8474446,2.662238,4.010644399999999
-8.496303999999999,14.665357,-3.3966443999999996,0.8825606,2.504146,2.959293
-9.070642999999999,12.038822,-5.173381299999999,0.43594834,1.0035119000000001,1.3287715
-6.845607000000001,9.391380999999999,-4.6670847,0.0686438,-0.718011,-0.551367
-4.292909,11.645655999999999,-4.667074700000001,-0.24647539999999998,-0.8500277,-2.2457675999999998
-7.5611954,12.31562,-6.513368,-0.30503118,-0.60994023,-3.2571857000000004
7.206758,16.499641,-1.6819457999999998,-0.82723373,-2.9250321,-1.1603472
9.804591,16.892979999999998,4.3136044,-0.7250272,-1.7405993999999998,-2.9755769
-3.2929852,9.668064,1.3910791,-0.34868187,1.5086801,-3.3828146
-5.8891615999999996,5.349528,-0.3406949,0.3869744,2.440267,-3.0107105
-7.290258000000001,8.236581,0.15805562,0.3172485,2.2092378,-2.375114
-7.770295599999999,9.513973,-2.8674684,0.41891393,0.8789478000000001,-1.7288706999999999
-7.232481,10.07393,-3.2909163999999995,0.24431118,-1.2572653,-1.1294898000000002
-3.283389,9.843253,-1.5774723999999998,0.20437805,-2.0961928,-0.7866548000000001
0.014844051,9.8143215,-1.3503201999999999,0.20546016,-1.6623563000000001,-0.6881833
1.5317143999999998,10.010750999999999,-2.0931547,0.21930061,-0.6397503999999999,-0.7254461
0.53703856,9.653316,-2.1451854999999997,0.16446237,0.2790258,-0.8446870000000001
-1.6005813,9.046051,-2.6270907,0.16978563,0.4302062,-0.7754847
-2.9559486,9.097766,-3.1602695,0.13465215,-0.15959291,-0.6354744000000001
-1.8106293999999998,9.794210000000001,-1.4957153,0.15329227,-0.7206639,-0.5396558000000001
-0.72603685,9.722431,-1.7133482,0.12986995,-0.84309876,-0.56946605
-0.32986352,9.316279,-2.3687944,0.09580112,-0.72546357,-0.6413386999999999
-0.08013872,9.24589,-2.6441276,0.04096288,-0.4928286,-0.7280989999999999
-0.59444195,9.264928999999999,-2.4846833,0.04096288,-0.20804325,-0.7903898
-2.0581517,9.739842,-1.6467032,0.05532694,0.036285397000000004,-0.7823962
-2.9352913,10.190833,-0.88420737,0.11229448,-0.07389724,-0.70308846
-2.2200759999999997,10.634862,-1.4872878,0.121876344,-0.40819759999999994,-0.65517914
-0.10692505,10.692131,-2.5671206,0.046827182,-0.7100174,-0.75258595
1.3662657,10.388106,-3.5462341,-0.015446163999999998,-0.6232571,-1.0288541
1.1686098999999999,10.722116,-3.3711510000000002,-0.14107497,-0.5045398,-1.3360146000000002
1.1059678999999998,11.382159,-3.2235916000000002,-0.32258922,-0.6173928000000001,-1.6527569
0.7568359,11.8832855,-3.213737,-0.4562116,-0.7100174,-1.9327601000000003
-0.16143623,12.269288000000001,-2.7296102,-0.5216789000000001,-0.82074106,-2.1297203999999996
-0.05677131,12.339228,-1.8639914,-0.6292085999999999,-1.0155722,-2.2409678
1.639894,12.672547999999999,-2.3741095000000003,-0.80168205,-1.1816577,-2.3682024
3.8478557999999996,13.413264999999999,-3.5721489999999996,-0.94701564,-1.1534532,-2.58485
4.982554400000001,15.380045,-5.1324406,-1.0731680000000001,-1.29664,-2.8100324
3.0815767999999997,16.331263,-0.47702074,-0.9832138000000001,-0.8031831,-3.2076882999999996
-1.7393396,14.717885999999998,-0.7437731,-0.5041034000000001,-0.34112459999999994,-3.2710087000000003
-3.5085397000000005,12.690111,-2.5063365,-0.18898425,-0.67381924,-2.8643296
-3.4000347,10.9272995,-0.40534794,-0.29225537,-1.2418193000000002,-2.2244744
-6.2372303,8.445115,1.6341097,-0.16023868,-0.93891734,-1.8332065
-8.286495,4.7459492999999995,-2.1489685,0.33161256,-1.119908,-0.46247736
-2.0647116000000003,4.726096599999999,-0.9606399,0.4391423,-1.769886,1.1083888000000002
0.15834293,4.835148,1.5504563,0.35397023,-1.2865345,1.7679487
-0.59663504,3.7901745000000004,2.7299552000000005,0.5977753,-0.17503907,2.2486472
-1.6114031,4.0037373999999994,1.524867,0.89268357,0.65591216,2.8831792000000003
-2.6215452999999997,5.53641,1.0416213,0.8612851,0.9619905999999999,3.4916184
-3.9283580000000002,5.4922889999999995,1.3837911,0.8160286999999999,0.91088736,4.0617476
-4.338810400000001,5.065384,1.2274497,0.8687201999999999,0.69956285,4.6685987
-3.4535882000000004,5.647959999999999,0.880597,0.91078264,0.57819265,5.1482152999999995
-2.4423635,6.4993095,1.0402328,1.0294999,0.66123545,5.5192547
-1.8563968999999998,8.145572999999999,0.69729686,1.1929151000000002,0.9460208000000001,5.8642015
-1.4581549999999999,10.485713,0.0437277,1.3307786,1.3910448999999998,6.049451
-1.9245647000000001,13.737785999999998,-2.104532,1.3334489999999999,2.1155484,5.97599
-2.4779031000000002,17.230705,-3.1634683999999997,0.88894856,2.6766195,5.4090548
-4.169962,17.254054999999997,-3.1841060000000003,0.64781386,2.9715278,4.465774
-6.971408,15.797689000000002,-3.7643745,0.7228805,2.8261943,3.3851532999999994
-10.1686535,13.192673999999998,-5.371075599999999,0.69785243,1.8440626,1.7338798999999998
-9.437704,10.100304,-5.6375027,0.20224875,0.15552629999999998,-0.42999676
-6.8177004,11.481767999999999,-4.2621007,-0.19589576,-0.44491932,-2.3665967
-8.339292,11.999892,-7.402717999999999,-0.31461304,-0.7472802,-3.085236
10.858452,15.305642,0.18066646,-0.75324917,-3.608538,-0.7323576
9.769521000000001,17.490026,4.2574553,-0.6750060999999999,-1.5878308,-3.0176394
-3.731555,11.164344999999999,1.1995046,-0.035133477,2.1735632000000003,-3.5968093999999997
-5.349211,5.3719373,-2.0345447,0.42477822,2.8538752,-3.0288095
-6.055415,6.5572395000000006,-0.05122634,0.36887532,2.5791953,-2.4421868
-8.413848,9.332723,-3.481179,0.39762092,1.0189581,-1.8640815
-7.9018807,10.864792,-3.3941257000000005,0.20013689999999998,-1.3594544,-1.2465839
-3.2493625,10.220885,-1.6378926,0.1399754,-2.373002,-0.9192126
0.45993572,9.626156,-0.8889096,0.102712624,-1.8295065,-0.82552326
2.513385,9.854610000000001,-1.970064,0.10058332,-0.46781805,-0.9186715
0.8277521000000001,9.427705,-2.0768263,0.068120204,0.735761,-1.0725049
-2.4176745,9.07979,-1.3775375,0.098995075,0.8991761999999999,-0.98893845
-4.0211190000000006,9.26716,-1.6628017,0.10643018,0.18586011,-0.8228704
-2.7225137000000004,9.678867,-0.9619328000000001,0.14690436,-0.54766685,-0.69722414
-0.99195606,9.614472,-1.776603,0.116029486,-0.63390356,-0.6881833
-0.86417276,9.237021,-2.22248,0.08035496,-0.4188441,-0.73981017
-1.1924274,9.183832,-1.8268142,0.07983136,-0.15800466,-0.7861312
-2.0114549999999998,9.63444,-1.7394067,0.0665145,-0.00043633230000000004,-0.7866548000000001
-3.0204098,10.115003999999999,-1.1659954,0.07876671,-0.04515166599999999,-0.7217110999999999
-3.1537957000000003,10.347375999999999,-0.99915785,0.110182635,-0.21389009999999997,-0.593953
-2.4399214,10.694382000000001,-1.449603,0.112835534,-0.38955748,-0.5465673000000001
-0.7901153000000001,10.936033,-2.0947542,0.10379473,-0.54127896,-0.62428683
1.0068191999999998,10.9838505,-2.8125837000000002,-0.0090408055,-0.6328389,-0.8883201999999999
1.9902616000000002,11.064333999999999,-3.2823547999999994,-0.18898425,-0.58971184,-1.2567068000000001
1.1858577,11.194033000000001,-3.634829,-0.38433895,-0.5013458,-1.5915308000000001
0.13512874,11.6739645,-3.4743123,-0.55042446,-0.52902675,-1.8390708999999998
-0.37904045,12.340836,-2.6999795,-0.6824412,-0.7307868000000001,-2.0259085
0.7706456,12.813289,-2.1605182000000003,-0.8400095,-1.0278244,-2.1866705
3.4400367999999997,13.656919,-3.3061434999999997,-1.08275,-1.1577117000000001,-2.422482
4.7472043,14.769589999999999,-4.75951,-1.189756,-1.2215909,-2.7120845
5.6543193,15.905007000000001,-3.513127,-1.2195662,-1.2380841999999999,-3.0479732000000004
1.5584147,15.558385000000001,-1.4940298,-1.0886142,-0.20059069,-3.5595467000000003
-3.3773758000000003,14.180914000000001,-2.5906987,-0.6467841,0.5627465,-3.622361
-5.366651,10.554445,-1.4690918,-0.33910003,-0.11274827,-3.1043997
-7.1569199999999995,7.2619205000000004,-0.67583525,-0.029810224,-0.9453052,-2.1148154999999997
-7.249853599999999,5.0396605,-1.4230752,0.32096604,-1.6591623,-0.8244412
-2.4663725,5.1599835999999994,-1.3399676,0.4380951,-2.2894356,0.56011105
-0.38440344,4.6143928,1.4391450000000001,0.41786674,-1.8683575000000001,1.3266597
-0.59436536,3.7123725,2.9507387,0.65952504,-0.7749611,1.9771613000000001
-0.17835845,4.2322397,2.6939366000000002,0.8937482,0.43340015,2.5414262
-1.8496165,5.7662053,1.9698056000000002,0.9821141999999999,1.3255776000000001,3.0295598999999998
-3.3923924,6.363884,1.2049155,0.9267523999999999,1.607169,3.6342816
-3.9589464999999997,6.765028,1.421993,0.86234975,1.4756933,4.1943054
-4.4892144,7.0247693,1.0270934,0.8639379999999999,1.2100543,4.640918
-3.92696,7.1724725000000005,0.76302254,0.87938416,0.8794889000000001,5.055067
-3.1312232000000004,7.712364999999999,0.7152534,1.0268469999999998,0.7325670999999999,5.397361
-2.4465008,9.0449295,0.43945092,1.2179431,0.8912,5.684275599999999
-1.6863991000000003,10.634699000000001,-0.47528735,1.4303496999999998,1.2372116000000002,5.863678
-0.99832463,12.964487,-1.7852029999999999,1.5272155,1.8946246999999998,5.7108917
-3.0275447,15.888314999999999,-3.3616605,1.2158138,2.253953,5.184954
-3.357054,15.903035000000001,-3.3190627,0.79688245,2.031441,4.5850325
-4.6723704,14.5193,-3.206267,0.65474284,1.8179873,3.6438808
-8.401742,12.454809,-4.1677017,0.7436499,1.318125,2.1916971000000003
-7.917194,10.515439,-4.3494697,0.44767696,0.2939309,0.26254988
-6.3874907,10.115627,-4.736066,0.081437066,-0.36348227,-1.5457508999999998
-6.3677150000000005,11.499571000000001,-3.0846322,-0.30501375,-0.03876376,-2.7344247999999998
-3.5185665999999998,10.919064,-5.504883,-0.15489797,-0.46886525,-2.4932902
11.685055,13.327361999999999,-0.019325996,-0.72235686,-2.3778017000000005,-0.8627686
9.304768,14.847593,8.886519999999999,-0.59459877,-0.23570672,-2.4906197
0.23383690000000001,13.444984,3.0026257000000003,-0.039933134,2.0569928,-2.7999096000000003
-4.180161,11.518246000000001,-4.033981,0.9283581,3.45275,-3.1560266
-5.310693700000001,7.6306844,-3.8197286,0.6004456,2.9028490000000002,-2.5656865
-8.119897,6.1277294,-3.945721,0.5392369,1.6609426,-2.034949
-9.329877999999999,8.940733999999999,-4.5508986,0.14690436,-0.37943459999999996,-1.3913765
-5.5270915,11.418061999999999,-3.158919,-0.11285299,-2.0754235,-0.7850490999999999
-0.7921935,10.686481,0.08624872,0.012758356499999998,-2.4959605,-0.66154957
2.8258476000000003,9.526739,1.6528131999999998,0.39603266,-1.4132105,-0.7887841
3.5304512999999997,9.713142,-1.6039428,0.40934953,0.25773278,-0.9809449
-0.7552844,9.2422695,-3.2780452000000007,0.30073768,1.0136349,-1.000126
-3.8607845000000003,8.797771000000001,-3.3027724999999997,0.22410028,0.404131,-0.7887841
-3.2310612,8.852953,-2.6791308,0.23155282,-0.73982763,-0.58276546
-0.13414234,9.495700999999999,-1.9961703999999998,0.22729422,-1.1683408000000002,-0.57531285
0.60964996,9.801239,-1.8923483,0.19587829999999998,-0.8132885,-0.68656015
0.28234342,9.525907,-2.5222627999999996,0.16500343,-0.30490902,-0.83189374
-0.11668382,9.209565,-2.8878958,0.12135274,0.035220746000000004,-0.9208008
-1.6002748,9.739823,-2.6548345,0.05375614,0.1613906,-0.92132443
-3.001898,10.160896000000001,-1.6268026000000002,0.09475392,-0.14201744,-0.8632921999999998
-2.6300306,10.064525,-1.5792825000000001,0.1367989,-0.44917792,-0.77813756
-1.5081555,9.867989999999999,-2.6564433999999997,0.12082914,-0.63016856,-0.8058185
0.2870552,10.083295,-3.5758457000000003,-0.012234758,-0.7424805,-0.9122836
0.57308567,10.805233,-2.6620364,-0.026598819,-0.55723125,-1.1592652
0.26069024,11.307844000000001,-1.958074,-0.15170401,-0.5433908000000001,-1.4062642
-0.3397085,11.254213,-2.7125060000000003,-0.282115,-0.5716128,-1.6330347
-0.8368501,11.659293,-3.2222028,-0.33962363,-0.66104347,-1.7821033
-1.0063405,11.951184,-2.726536,-0.38912115,-0.7989069999999999,-1.9114497
0.051427454000000004,11.835525500000001,-2.2455506,-0.5152736,-1.070934,-2.0626302
1.811319,12.634298,-2.661318,-0.6957406,-1.2167912,-2.2925947
3.3180093999999998,14.070513,-3.5669582,-0.8799252000000001,-1.2801292,-2.5204298
4.8416122999999995,15.930558,-3.7796497000000002,-1.0002308000000002,-1.701731,-2.7445476
4.3210263,16.999407,-0.075896196,-1.0012954,-1.3328381999999999,-3.0863006
-0.7661158,15.481723,-1.395427,-0.5828876000000001,-0.5646838000000001,-3.2715322999999996
-2.6663077,12.93977,-2.3890686000000003,-0.29382620000000004,-0.77442,-2.8504717
-2.6983612,10.611858,-0.9202162,-0.11976449,-1.031542,-2.2894007999999997
-5.339041,8.805855000000001,1.6316676,-0.22942352,-0.8399048000000001,-1.8374477999999999
-10.892583,3.8430864999999996,-2.0154772000000003,0.39924407,-0.5865179,-0.720629
-4.517849,3.4444517999999995,-1.8435544999999998,0.5914048000000001,-1.7256943,1.2122184
0.064116724,4.323612000000001,0.69652116,0.5461659000000001,-1.8140603,1.9739848000000002
-0.023147142000000002,3.5369062000000007,2.1864617,0.65849525,-0.7967776999999999,2.3178669999999997
-1.518259,3.4735367,1.6294171,0.92305225,0.19439477,2.9497285
-2.2594562000000002,5.2200875,1.4374788,0.8655610999999999,0.68361056,3.519858
-3.274339,5.838404,1.5363976000000001,0.78836524,0.9018465,4.0378017
-3.5490305,5.9569077,0.8878562,0.77717763,1.1046711999999999,4.619101000000001
-3.1009797999999997,6.445651,0.5958498000000001,0.7889063000000001,1.3591228000000002,5.007175
-3.234691,7.2706732999999995,0.12999557,0.84587383,1.6024042,5.2983655999999995
-3.445467,8.4752245,-0.70137656,0.87620765,1.6928821,5.602315
-3.4819449999999996,10.433404,-1.6244273999999999,0.85278535,1.5779172,5.8605013
-2.9939682,12.143735000000001,-2.6656084,0.96244437,1.5592772,5.900958
-2.115718,14.402961999999999,-3.4929297,1.0944611000000002,1.6657422999999998,5.483597799999999
-4.4261317,15.880529000000001,-2.586207,1.0614569,1.604516,4.7080082999999995
-5.61334,15.665118,-2.6134052000000003,1.0007718,1.4879456,3.9148433
-5.888568,13.669426999999999,-4.7468977,0.8314923000000001,1.0407921999999998,2.6511028
-6.1587873,10.7047825,-5.251854,0.38646826,0.23911011,0.6458242
-5.5226955,9.385663000000001,-4.0579324,0.03460988,-0.30223867,-1.3306565000000001
-5.2615932999999995,12.3713,-3.4258344,-0.12508775,-0.087720245,-2.6391299
-3.727092,13.588617000000001,-5.025946,-0.73724455,-0.5998173000000001,-2.7168493
13.374145,14.802295999999998,4.323842,-0.8032529,-2.2154162,-1.4014645000000001
6.4959097,13.927119,3.6299352999999996,-0.687747,0.030438542000000002,-2.9957879000000003
-3.0021853,10.288699000000001,1.8663089,0.006387905,2.4818057999999996,-3.331153
-4.0122222999999995,7.609989,-5.541178700000001,0.71118677,3.4282804,-3.187425
-5.8702474,7.626892,-3.2071576,0.2443461,3.0167842,-2.6146429
-10.527956,7.893664,-2.819115,0.096359625,1.498592,-2.0445137
-10.465946,9.916582,-2.7217765,-0.01754056,-1.1709938,-1.2247324
-3.9242690000000002,10.518102,-1.9120095000000001,0.030874874,-2.8882756,-0.7227583000000001
1.5921154,9.946357,-0.12368446599999999,0.07771951,-2.4645445,-0.72860515
4.2246265,9.829051,-0.5213901,0.18685494,-0.44757223,-0.9090722
1.550667,9.522200999999999,-2.7594228,0.08571312,1.2164596,-1.1161381000000001
-3.1851694999999998,9.269449,-2.197293,0.05749114599999999,1.176544,-1.0304424
-4.585193,9.197556,-1.4924304,0.10487683,0.04960226,-0.8201651
-2.0662918,9.49911,-1.6700993999999998,0.15863298,-0.7829371999999999,-0.6721786
-0.47146618,9.724097,-1.5578496000000002,0.11711159,-0.6674139,-0.7110470999999999
-0.42022070000000006,9.504923,-1.8264215,0.05003859,-0.33046064,-0.8073893
-0.77237904,9.479142,-2.1048383999999998,0.0090582585,-0.11218976,-0.889891
-1.407848,9.776627000000001,-1.8692298999999999,0.015969763,-0.08026769,-0.93940604
-2.3191004,9.875909,-1.2932041,0.054838244,-0.10527826,-0.92291266
-3.0888362000000003,10.055082,-1.429664,0.09157742599999999,-0.23623031,-0.87978554
-2.1347277,10.588041,-1.4097058999999998,0.109135434,-0.56255454,-0.8792620000000001
-0.46263638,11.309778,-1.4068617,0.079325214,-0.70200634,-1.0155199000000001
0.043708544,11.937987,-2.0190208,-0.011152654,-0.68711865,-1.2348553
0.2818933,11.996771,-2.1040723,-0.1421047,-0.71425855,-1.5031299999999999
0.7239108,11.553115,-2.7664616,-0.35290557,-0.74993306,-1.775698
0.9557940999999999,11.762282,-3.1291833,-0.5088682,-0.72755796,-2.0642009
1.224366,12.512596,-3.0630555,-0.6446199,-0.8601156999999999,-2.3532624
2.1796622,13.807026,-3.5965314,-0.8006,-1.1965454,-2.6093197
3.734974,16.191143,-4.5681367,-0.8980068000000001,-1.5345633,-2.7934867999999997
4.3670907,17.100988,-3.7282221,-0.84316856,-2.1164036,-2.9659603
1.3531741000000002,15.406716000000001,-1.2233317,-0.73350954,-1.5494683999999999,-3.3497756
-3.5716699999999997,14.1865835,-2.0823617,-0.18840829,-0.7350105,-3.271515
-3.0118099999999997,11.53782,-2.0466497,0.04632104,-1.4286393,-2.6997974
-5.4250026,9.191312,1.3714275,0.05164429,-1.7299354,-2.1445909
-9.332732,4.334146499999999,-1.275621,0.67448246,-1.5947248,-1.1134677
-4.038166,3.1028757000000002,-2.1029804,1.1147069,-2.334116,0.7741408000000001
0.6252026999999999,4.255971,1.4219833999999998,1.0146122,-2.4049242000000004,1.6987813999999999
0.98807746,3.4261407999999998,3.9938157,1.1908207,-1.1230844,2.0389459999999997
0.41144836,2.8670852000000004,4.052953,1.5826296999999998,0.32908183,2.5100627
-1.1521857,4.677035,2.9444275,1.7391158,1.3005844,3.0407825
-2.3032029,6.1215525,2.0146728,1.6832304,1.4357951,3.6156937999999994
-3.112989,6.3079267,1.5616516000000003,1.5586662,1.2207357,4.194864
-3.2601845000000003,6.359316000000001,1.3741472,1.4208027,0.9492497,4.6478815
-2.5773487,6.717353999999999,1.4742537,1.4005743,0.8481078000000002,5.033285
-2.0205436000000003,8.137901,0.9198139999999999,1.4362315,0.9998119000000001,5.418130400000001
-1.5943181999999998,10.111031,0.2667045,1.4415547,1.2478755,5.7146444
-1.3822299999999998,11.849622,-0.7295994,1.4713649,1.5215082,5.8945875
-1.2045037,14.425879,-2.5162675,1.4085504999999998,1.8222633999999998,5.8003573
-0.96818644,16.934534,-3.6565397000000006,1.1077953999999999,1.9755731,5.161043
-2.9264135,15.947269,-3.310137,0.86983716,2.0080361,4.1288557
-6.388142,14.245030999999999,-3.1627116,0.9645911,1.7360266,2.9854205
-7.979155499999999,12.329162,-4.703716,0.618056,0.8646011999999998,1.5736934999999999
-6.134663,9.359882,-4.745116,0.15226252,-0.36025342,-0.47413614
-5.7070775000000005,10.782967999999999,-3.6959769999999996,-0.17776178,-0.58702403,-2.088147
-6.308204,12.86848,-3.7234623,-0.34012976,-0.2234545,-3.4030080000000003
4.5367155,17.673412,-2.176157,-1.2706171,-2.4272819,-1.3114928
16.534262,19.532423,7.579746000000001,-0.7947181999999999,-1.3610252,-2.9590487000000003
-4.0956845,10.064525,0.43941262,-0.38004544,2.5621958,-4.0428457
-5.9285984,3.7861907,-3.2659113,0.321542,3.1450832,-3.2390343999999995
-6.827382000000001,6.3344927,-1.5434364999999999,0.32314770000000004,2.6175575,-2.7796462
-9.977032000000001,9.286783,-4.047264,0.11021754,1.5891048,-1.9976515
-10.389207,10.548718,-3.0945632,-0.100042276,-0.81698865,-1.2689066999999998
-4.21481,10.171086,-1.1859916000000001,-0.034557517999999995,-2.8435602,-0.7892728
0.76002496,10.085488,-0.15665741,0.051120695,-2.364991,-0.7035771
3.3786016000000005,9.9638815,-0.8477294,0.15280357,-0.44488442,-0.8451757
0.56101894,9.580321000000001,-2.3265414,0.14535102,0.97373664,-1.0107201
-3.040665,8.994891,-2.9743838,0.12885766,0.99715894,-0.9021258
-3.8340075,8.958451,-2.5082805,0.14480996,-0.016371188999999998,-0.67057294
-1.38246,9.284599,-1.9789993000000001,0.17994344,-0.56946605,-0.5721015
0.017027562,9.383212,-2.0508924,0.17090264,-0.44488442,-0.6551268
-0.19258958,9.659952,-1.7723508999999997,0.12777555,-0.1723338,-0.7796909000000001
-0.7293217,9.740331,-1.8908831000000001,0.12140510000000002,-0.13507102,-0.88350314
-1.4820108,9.530455,-2.6299732000000002,0.14428636,-0.25911158,-0.9149016
-2.3017952,9.731415,-2.1808784,0.16770868,-0.2894454,-0.90373147
-2.8609847999999998,10.290202,-1.7687596,0.19964822,-0.37994072,-0.84357
-1.4188423000000001,11.359319000000001,-1.6546903000000002,0.19858356,-0.60938174,-0.8632573
0.7237097,11.684747999999999,-2.1529236000000003,0.14161602,-0.7531095999999999,-1.0964333
1.2549447,11.613985000000001,-3.3888297,0.029827677,-0.6232222,-1.4067702
0.61053103,11.618496,-3.6103125,-0.1261175,-0.6913598000000001,-1.6931613999999997
0.38946,11.499179,-3.547479,-0.3081728,-0.8563806999999999,-1.9524126
0.7973937,11.95037,-3.5516834000000004,-0.43380159999999995,-0.9756216000000001,-2.1903534
1.0271509,12.511025,-3.2754307000000003,-0.53122586,-1.1331898999999999,-2.4166002
2.0894293999999998,13.609591,-3.3030120000000003,-0.64886105,-1.5276344,-2.6257956
3.7549703,15.37405,-3.8651803,-0.74626786,-2.0147209999999998,-2.8057215
3.5748208,15.906885,-3.1550982000000003,-0.70581114,-2.7455950000000002,-2.9766066
0.8958241,15.560779,-0.66353863,-0.5242969,-2.1116040000000003,-3.3540167999999997
-2.0874276000000003,14.576120000000001,-2.7283842999999997,-0.02284636,-1.3237624,-3.1975130000000003
-1.779907,11.965655,-1.8662131000000002,0.041015237999999996,-1.9529710999999998,-2.5033607000000004
-4.9056525,9.3340435,2.2707853,0.09477138,-1.9401952,-2.1238213
-9.057639,4.052205600000001,-1.2830143999999999,0.8773072000000001,-1.6133473999999999,-0.9292657
-2.881805,3.3680098,-1.9840461999999999,1.2360944999999999,-2.212205,0.8561363999999999
1.0211748999999999,5.3606462,2.212252,0.97152007,-1.8858981,1.7238093999999997
0.9465716000000001,3.6873772000000002,4.9128733,1.2265127,-0.61735785,2.0714266
0.43886676,3.827371,4.249708,1.564007,0.62613684,2.5792650000000004
-1.3102891,6.767441000000001,3.842818,1.5576191000000001,1.1770848999999999,3.0919032000000004
-3.064339,7.526594,4.0396123,1.4272081,0.9077457,3.7434695
-3.7463894,6.723838000000001,3.939678,1.3516004,0.44940484,4.340739
-2.7589342999999995,7.1624555999999995,3.558732,1.3223313,0.29077184,4.832607299999999
-1.5057614,7.818409,3.0073855,1.3681113,0.5872684,5.1578493
-1.3283508999999998,8.618666000000001,2.1656127,1.4011154,1.0402860999999999,5.4846973
-1.8289498,10.085317,1.3746166000000002,1.4058976,1.262257,5.7785405999999995
-2.1014197,11.861775,0.26684815,1.3798224,1.4001379999999999,6.032469
-2.1399852999999998,14.70781,-1.569811,1.1418641999999999,1.6907877,5.903105
-2.7090871,17.604795000000003,-2.3031167999999997,0.5898515000000001,2.0607626,5.07163
-4.5025262999999995,16.687223,-1.9744598999999998,0.2837731,2.370576,3.866428
-8.828456,14.14277,-3.5538476,0.4456,2.3748171,2.6149395
-11.033381,12.080433,-4.066207,0.28269097,1.5710057,0.8635889000000001
-10.40408,9.868402,-6.1518345000000005,0.023998277000000002,0.31419417,-1.1310083
-10.942096000000001,11.246016000000001,-6.110625,-0.2043606,-0.49492303,-2.8754473
-6.5070667,13.749594,-9.714195,-0.7212573,-3.6180849999999998,-1.5962781000000001
17.876547,17.212605,4.8692794,-0.28366837,-5.839470400000001,-1.0373364999999999
4.923877,16.386797,-1.9166542000000002,-0.351806,-0.3458719,-3.4482296000000003
-4.5860167,9.803088,-2.6873765,-0.030281462000000002,2.1363528,-3.3678572
-5.9349003,4.639656,3.4550724,0.15334463,1.9143643,-2.6412241
-8.734508,6.7560735,-0.6452948000000001,0.51639056,1.3862976,-1.9130029999999998
-7.1495647,11.222802,-4.2140727,0.39608502,-0.055222217000000004,-1.2646306999999999
-3.7836528,11.560842999999998,-3.5190455999999997,0.17092009,-1.5606385,-0.9814335999999999
-0.6974884,9.308703999999999,-2.3101652,0.14002776,-1.9327427,-0.82760024
1.0596162,9.041644999999999,-2.50875,0.12246975,-1.1310432,-0.7823438
1.1099424,9.71139,-1.8025753,0.13365729999999998,-0.30380946,-0.88987356
-0.4443351,9.700577000000001,-1.8269291,0.16079718,-0.013177236,-0.9345889000000001
-1.544873,9.089309,-2.7890246,0.17783159,-0.23675391,-0.84782857
-2.0591667,9.006651,-2.624294,0.16079718,-0.59232986,-0.769568
-1.2164843,9.202383,-2.3795778999999997,0.14749777,-0.8153829,-0.7376285
-0.76281184,9.168777,-2.344661,0.12833406,-0.7424456,-0.7892553000000001
-0.48244122,9.58239,-2.2535665000000003,0.09637708,-0.51462775,-0.85154617
-1.6189975,9.946194,-1.7515596999999998,0.13418092,-0.3022212,-0.87549204
-2.5511944,9.987173,-1.3847201,0.18102555,-0.29103366,-0.8345117
-2.2790310000000003,10.303735000000001,-2.2296627,0.20179497,-0.37301177,-0.77328557
-0.7487626000000001,10.899737,-2.5297327000000003,0.13470452,-0.73021084,-0.8589986999999999
1.7838813000000002,10.786033,-3.2305919999999997,0.013875367,-0.9085310999999999,-1.1320728999999998
1.6113169,10.862896000000001,-3.9995906000000003,-0.097354464,-0.6886895000000001,-1.4498799
0.30729097,11.795139,-3.3250482000000003,-0.25544637,-0.6945363,-1.7277538000000001
-0.0048075570000000005,12.365209,-3.0043306,-0.37203437,-0.7850315999999999,-1.9108738
0.21342870000000003,12.672357,-2.9505662999999998,-0.50246286,-0.9069429,-2.078024
1.1183889999999999,11.8144,-2.7183192000000003,-0.67387164,-1.1315841999999998,-2.2669907000000005
2.4260542000000003,11.937643,-3.5921452000000005,-0.8756142,-1.2598658999999999,-2.4511929
4.927325,13.829675,-4.569506,-1.1487058,-1.2817,-2.6843512
6.6233580000000005,16.048037,-4.9330419999999995,-1.3280908,-1.3338678999999998,-3.0527031000000004
4.7382207,18.078272,-0.7961008,-1.1082492,-0.67643726,-3.540313
-0.636465,16.028568,-1.0563886999999998,-0.5146976,0.11671016,-3.4854922
-3.6767373,13.1419935,-1.1038226999999998,-0.21872467,-0.25111797,-3.132552
-5.6757903,10.657683,0.27014259,-0.196367,-0.89575535,-2.3047945
-10.125635,5.856907,-0.76329064,0.47221628,-1.4413801000000002,-1.3274276000000003
-5.055089,5.347392,-2.2560465,0.6979221999999999,-2.6976857000000005,0.51811844
0.06739199,5.129855,0.13484144,0.62233204,-3.0862832,1.6695296000000002
0.24442883,4.1906669999999995,2.2668397000000002,0.6398901,-2.0008628,2.219954
0.29102,3.3174345,3.2580776,1.0268993,-0.5263215,2.796471
-0.37157053,4.984344999999999,2.6911112999999998,1.1701037,0.69746846,3.3325142999999997
-1.7630422,6.012923000000001,1.9624599999999999,1.1322998,1.4895687,3.8866737000000002
-3.3919134,5.987257,1.6822331000000001,1.0476688,1.6843998,4.440292400000001
-4.4967227,6.3514919999999995,1.7454497,1.0040181000000001,1.5939219,4.9609065
-4.542921,7.037037400000001,1.1296419,0.9709965,1.2782443,5.3798379999999995
-3.6882962999999997,7.969541,0.6877488,0.95504415,0.86622435,5.770041
-2.7795053,9.863201,1.1353303999999997,0.9795311,0.7555006999999999,6.0830483
-2.6763630000000003,11.576664,0.3114665,1.0380869000000001,1.1754966999999998,6.0947595
-2.0570982,14.269662,-1.4859853,0.9156521000000001,1.6828115000000001,5.8961935
-1.8479023,16.400454,-2.427433,0.6883404000000001,2.398257,5.132315
-4.54477,17.003246,-2.670866,0.5999744,3.1600232000000004,3.9878156000000002
-9.260074000000001,15.449008,-4.458588,0.70165724,3.187163,2.5952523
-12.232397,12.637899,-6.9951105,0.39449677,1.5923163,0.94823736
-9.623111,9.309519,-6.273402,0.056478854,-0.579554,-1.0149614
-9.863153,11.571301,-4.269263700000001,-0.09094911,-0.80897754,-3.0574852999999997
-5.920861,15.559648499999998,-7.377522,-0.8644267,-2.396372,-2.1173985
19.657238,18.754173,8.393267,-0.44230133,-4.208425,-1.4024941999999998
2.1107187,17.295932999999998,-1.0750923000000001,-0.15856317,0.7847873000000001,-4.478794000000001
-5.6307025,5.6928945,-2.5839088,0.11555825,2.6165104,-3.5248845
-3.7746312999999994,2.6471922,1.7897041,0.40781364,2.088967,-2.9425204
-8.181523,7.3708754,-3.0864800999999997,0.515867,1.4933037,-2.3974017999999995
-11.154997,11.755022,-3.7850606,0.1783901,-0.24205971,-1.4860606
-6.5356727,10.672930000000001,0.18750429999999998,0.22736403,-2.0322614,-0.96864027
-0.16611929,9.635905000000001,-0.95774776,0.24706881,-2.044496,-0.7764621
1.6806721999999998,10.012504,-1.3848637,0.26036823,-0.7126354,-0.8180009
0.5433688,10.092211,-2.2763880000000003,0.19168949999999998,0.40203658,-0.9287245999999999
-2.3837056,9.439734,-2.0218842,0.18584266,0.59793234,-0.85419905
-3.8672678,9.092794999999999,-2.2360792000000003,0.18423696,-0.0993965,-0.6407278000000001
-2.2030485,9.065892999999999,-1.8311716,0.20820032,-0.5928534000000001,-0.53000414
-1.3173473,9.352623,-1.7900966,0.22682299,-0.60723495,-0.5071229
-1.3752582,9.343994,-1.5216492,0.22575834,-0.47734755,-0.5262866
-1.4429758999999998,9.674347000000001,-1.5170237,0.20498893,-0.2314132,-0.53160983
-1.9700543999999998,10.224984,-1.5010495000000001,0.22788765,-0.21118484,-0.5044525
-1.6840335,10.673475,-1.4814363000000002,0.22842869,-0.36927676,-0.5092346999999999
-0.17981412,10.921888000000001,-1.9682540000000002,0.23801056,-0.47628290000000006,-0.5795191
0.68830425,10.874282000000001,-2.5508304,0.16879079,-0.60562927,-0.7993608
2.1543028,10.323673,-3.2724043999999997,0.030403635,-0.7259348000000001,-1.1288790000000002
2.2502142999999997,10.619309,-3.9534016000000003,-0.123429686,-0.54494417,-1.4956424
0.77108616,11.7229595,-3.2038537999999996,-0.26024604,-0.537509,-1.7873743000000002
0.09524134,11.776006,-2.6353266,-0.45186573,-0.77225584,-2.0056102
0.011836933000000001,11.982471,-2.7357776,-0.57058305,-0.85210466,-2.131239
0.4923915,12.327189,-2.6943194999999998,-0.71216416,-1.0501121999999998,-2.2611263
2.4352193,12.826313,-3.5861216000000002,-0.9272411,-1.3418441,-2.4197592999999995
5.3260837,14.237148999999999,-4.799972,-1.1332598,-1.3482319,-2.6667582999999997
6.395152599999999,16.457819,-4.5699377,-1.3019981000000003,-1.4291455,-3.003729
3.3372202000000004,17.177698,-0.96092725,-1.0022902,-0.6758962,-3.5291254999999997
-2.041641,14.288319,-1.7424330000000001,-0.4002389,0.024626596,-3.4562056000000005
-3.8642607000000004,12.124448,-1.9193165,-0.21179570000000003,-0.6146875,-2.921751
-4.433142,10.11488,0.5905921,-0.2868623,-1.2832881999999999,-2.1711721
-9.009275,5.6213940000000004,-0.32772790000000007,0.26888543,-1.2023747999999999,-1.3540438
-4.1058072999999995,4.542528,-1.7604758000000003,0.4440292,-2.044496,0.4973665
0.10636959,4.317742,0.8788731,0.40249038,-2.0870995999999997,1.5455065000000001
-1.182726,4.071551,2.4362056,0.44668213,-0.9692162,2.160351
-0.59791833,2.7872049999999997,2.0884428,0.71923274,0.023561945,2.7544262
-0.08004295,4.7538599999999995,1.8295052,0.8938355,0.7560416999999999,3.2489479
-1.3298258,7.456607000000001,1.6351057,0.8086634,1.4246424,3.6966422
-2.9907026,7.114561999999999,1.4622825000000002,0.76607734,1.7461669999999998,4.1757349999999995
-3.825216,6.6301193,0.98156524,0.7655363000000001,1.8105696,4.638317
-3.4299907999999997,7.3206644,0.548866,0.8299564,1.6790939999999999,5.0652595
-3.2213602000000003,8.338554,0.27915433,0.94174474,1.4783986,5.4309582999999995
-3.2149916000000003,9.567221,0.046715665999999996,1.0684382,1.2851732,5.764735
-2.716442,11.1047,-0.46711832,1.2403879999999998,1.1691263,6.005346299999999
-1.4757955,13.267967,-2.4596113999999996,1.3825101999999998,1.3809917999999999,5.960630999999999
-1.5749729,16.55852,-3.2541416,1.0285050999999998,1.7685246,5.367079299999999
-2.9505854,16.6893,-2.5617576,0.79217005,2.233777,4.402506
-6.72605,14.898495,-3.407715,0.8006698,2.3668584999999998,3.1818923999999997
-11.008214,12.278539,-5.1452165,0.5414359999999999,1.3703452,1.6573122999999998
-9.312612,10.011439999999999,-4.147629,0.13686872,-0.45179594,-0.52841586
-8.400124,10.798739999999999,-3.8468597,-0.2628815,-0.84836966,-2.1040816
-8.292347,12.126114,-4.5088754,-0.13088223,-0.78768456,-3.1048534
4.182316,15.154626,-3.6341395,-0.8058709,-3.5605763999999995,-0.9382889999999999
15.845574,18.824986,5.277615,-0.49977502,-2.5986557,-2.47458
0.8146415,14.211551,1.160958,-0.29483846,1.8121754,-3.606304
-4.669335,7.011736,-3.1690419999999997,0.47116908,3.231896,-3.4439535000000006
-6.5404230000000005,5.542682,-0.7768227,0.36363935,2.7783546,-2.7476717999999996
-9.754505,7.9426494000000005,-2.5624087,0.39985493,1.6152323,-2.1099286
-9.664626,10.428818,-3.8985839999999996,0.16189674,-0.7003832,-1.3699961999999999
-4.6515699999999995,10.517508,-2.2113805,0.12676327,-2.5411644,-0.88399184
-0.20321026,9.829299,-0.1038892,0.20181242,-2.5518110000000003,-0.76581556
2.3573406,10.034166,-1.3251427,0.22736403,-1.0362892,-0.78923786
1.4050133,9.834864,-1.8833557,0.20287707,0.33923966,-0.92818356
-1.8813733,9.120663,-1.9588017,0.20128882,0.6634171,-0.8738689000000001
-3.1057775000000003,8.59821,-2.9783392,0.23961625,-0.023265239,-0.69661325
-1.6294266000000002,8.959437,-2.9008625,0.24441591,-0.68547803,-0.60877085
-0.16973932,9.69824,-2.6132424,0.14432128,-0.77543235,-0.6726673000000001
-0.19598936,9.70458,-2.1526267999999997,0.069272116,-0.6615147,-0.75516903
-0.20733786,9.628541,-2.0839324,0.022968533,-0.4139920999999999,-0.87015134
-0.94512546,9.889595,-2.2342596,-0.008953539,-0.24151866,-0.9334893
-2.1857912999999995,9.905818,-1.7815828000000002,0.025080381000000002,-0.19839157,-0.9148666999999999
-3.1818173,10.254777,-1.5413487,0.05808456,-0.16219345,-0.8291709999999999
-2.8402414,10.781262,-1.7023540000000001,0.09430013599999999,-0.58859485,-0.76208055
0.08762778,11.434611,-1.3843178999999999,0.052761300000000004,-0.96973985,-0.89092076
1.9289796000000001,10.903396,-2.3090255,-0.052604225,-0.89147925,-1.1906112
1.3429843000000001,11.394791,-2.9935088,-0.2080607,-0.5311037,-1.5084182
0.14496413,11.816889,-3.405857,-0.38479275,-0.51565754,-1.7660638
-0.40225459999999996,11.997556,-3.6779629999999996,-0.5460786,-0.72113514,-1.9348022
-0.31465557,11.994492,-3.1020138,-0.66957814,-1.0900453,-2.0561724
1.6346459,12.126315,-2.8246121,-0.8707971,-1.4573499,-2.2398333999999998
4.6161838,13.519070999999999,-4.2591795999999995,-1.1369598,-1.5989311000000002,-2.508108
6.3990407,15.580870999999998,-4.662918599999999,-1.2641768,-1.5973427,-2.8259149
6.27096,17.29694,-2.412589,-1.3621248,-1.4025117,-3.2879734
1.1647695,16.119001,-1.1609676000000002,-1.004402,-0.43102652,-3.6494136
-2.5667183,14.324192000000002,-3.2676353,-0.58866465,-0.25534168,-3.3188484
-2.8818145,11.378195,-0.8753776,-0.37999308,-0.68547803,-2.7077386000000003
-5.964895200000001,8.9003105,1.658655,-0.3666762,-0.7051654,-2.0583017
-9.650567,4.8138585,-1.9171426999999999,0.18957767,-0.81375974,-0.67797315
-3.0222293999999996,4.3482056,-1.1712052,0.3072303,-1.7006139,1.1601204
-0.0011492167999999998,4.012117,1.1841722,0.23748694,-1.3716367,1.8920765
0.8916582000000001,2.4219553,2.2948902,0.6149144,-0.37353536,2.4813520000000002
0.64878076,3.7163181000000005,1.0252641,0.855508,0.8385609,3.1185544
-1.9689148999999997,6.3162293,1.15186,0.75705403,1.647172,3.5752895
-3.8669998999999997,6.1265707,0.31485668,0.7543837,1.7376672,4.207692
-4.1175194,6.0737065999999995,-0.010208876,0.76503015,1.6072388000000002,4.7283063
-3.6702057999999997,6.7153434999999995,0.020906169,0.80602795,1.5566766,5.1083865
-3.108124,7.5554204,-0.41883206,0.9140638000000001,1.5827518999999999,5.469286
-2.9511409,9.287788,-0.8292556999999999,1.0482273000000002,1.6732471000000002,5.804145
-3.5474982,10.984712,-1.6909863,1.2185714,1.6285318000000002,6.074566
-2.461249,12.748712,-3.2693877000000002,1.4182021999999999,1.6727235,6.144833
-2.4130297,15.798447,-4.035092,1.2595518,1.7653482,5.7093906
-3.3341557999999996,17.101715,-3.228734,1.0237228999999999,1.9351512,4.671339
-7.4039636,15.963176999999998,-3.5561078,0.9044994000000001,1.8100634999999998,3.827088
-9.342195,13.314452,-3.6234903,0.87627745,1.2500396999999999,2.3349712000000005
-7.8261476,10.478061,-4.5287565999999995,0.4786391,0.25832617,0.12421508
-6.9515743,11.008788000000001,-3.8816714,-0.09731956,-0.10416125,-1.9699357
-7.4928360000000005,13.254979999999998,-1.8574983,-0.21282545,0.5479111999999999,-3.4588410000000005
-2.4748096,14.438578,-6.272761,-0.67169,-0.8675159,-2.3888671
17.359867,18.379166,6.2593913,-0.9165771,-2.3186524,-2.1828659
0.16473065,12.304032000000001,3.3223474000000004,-0.47792349999999995,1.2154473,-3.5227199999999996
-3.1159383999999997,6.834919,-0.075953655,0.3482281,2.796995,-3.2592103
-5.483200599999999,6.581967,-4.0384817,0.7272263000000001,3.298969,-3.0319161
-8.874414999999999,8.711839,-2.973407,0.42062435,2.7064996,-2.3909965
-11.171364,9.679001,-3.7970792999999996,0.21992894,0.30358258,-1.6915206999999999
-7.763285000000001,10.215503,-2.9274383,0.09058259,-2.1706486000000003,-0.99682736
-1.5502456,10.017111,-0.71747524,0.110269904,-2.844049,-0.77433276
2.1004715,10.272342,-0.58805424,0.16084954,-1.5143,-0.80412555
2.4420283,9.889279,-1.4829398,0.16297884,0.31209978,-0.97979295
-1.1486136,9.093722999999999,-1.7284987,0.16137314,1.1558268,-0.9994976999999999
-3.7855299,9.038361,-1.8792856,0.20343557,0.65118235,-0.82435393
-3.7244968000000003,9.454166,-1.8699290000000002,0.19598302,-0.38044688,-0.66093874
-1.3631339,9.663803,-1.7755113,0.18586011,-0.8606043999999999,-0.6103590999999999
-0.021940464,9.250927,-2.2590826,0.14646803,-0.7386931999999999,-0.71842986
0.12632766,9.3389,-2.5501792,0.07621853,-0.3564835,-0.84990555
-0.93864197,9.584661,-2.3681624,0.053319807999999996,-0.12971286,-0.93614227
-2.5281715,9.920164,-1.6694863999999998,0.051190507,-0.12705997,-0.9398773000000001
-2.7638185,10.32714,-1.1570601,0.06981317,-0.30698597,-0.86693996
-2.1160913,10.9082985,-1.3412222,0.09484119,-0.59229493,-0.8482997999999999
-0.31096852,11.125577,-2.0252073,0.06768387,-0.91329587,-0.9718167999999999
1.0989673,10.978593,-2.8464856,-0.09145525,-0.8329235,-1.2757659
0.49210423,11.614244,-3.3001006,-0.2192308,-0.58964205,-1.5264999
-0.6343581,12.393489,-3.0796232000000003,-0.3831696,-0.59283596,-1.7165313000000002
-0.49775454,12.334458,-2.9764907000000003,-0.5338264,-0.8196065999999999,-1.869841
0.398807,11.8918085,-2.4830935000000003,-0.692983,-1.1028037,-2.0625430000000002
2.1020324,12.549974,-3.231636,-0.89367837,-1.2763418,-2.2664322999999995
4.271025700000001,14.610443,-4.5440803,-1.1550415,-1.4424274,-2.5272717
6.550718,16.524117999999998,-5.3168516,-1.3243208999999998,-1.8555118999999998,-2.818445
6.3413305,17.183923999999998,-1.4336767,-1.3573251,-1.1129266000000002,-3.4173197999999996
0.59029526,16.243662,-1.1988534,-0.91495395,0.044348817,-3.6685597999999997
-2.879985,13.271491000000001,-2.8886619,-0.49654618,0.12152728,-3.2767684
-3.278256,10.342424000000001,-0.03565445,-0.45663050000000005,-0.6343574000000001,-2.5336595
-9.392875,6.830638400000001,1.0987854,0.07300712,-0.48691195,-1.9848233
-7.932861999999999,4.7382975,-2.9311635,0.45575783,-1.3545848999999999,0.060353484000000006
-1.1436814,4.0321994,-0.93565404,0.52602476,-2.267008,1.5114726
0.07043742,3.7445028,1.1705253,0.54838246,-1.7527816999999999,2.1300347
0.021729775,3.1623669,2.6327505,0.8374439,-0.61145866,2.6437376
-1.0245556,4.684869,2.8129953999999997,1.1350051,0.5138598,3.1441232999999995
-2.4574277,6.300360700000001,1.4875846000000001,1.2212418,1.1606265,3.7317932000000003
-3.448857,6.220998000000001,0.88871807,1.2356058,1.1579561,4.3130927
-3.7547402,6.2248864,1.123551,1.3186486000000002,1.0935535,4.759722
-3.4837358,6.544301,0.79617745,1.3862627,1.125493,5.124897499999999
-2.6946645,7.197037,0.64346564,1.519344,1.2356757,5.488467
-2.833423,8.784757,-0.41287529999999995,1.6039925,1.3692981000000002,5.852054
-2.6176,10.881598,-0.97079134,1.6625483,1.4294596000000002,6.1411157
-2.1839237000000002,13.077952999999999,-2.5909476000000002,1.7104401999999999,1.7552253,6.1288633
-2.0777073,16.99365,-3.6085982000000003,1.3282479,1.9553971,5.705132
-2.5711617,17.865753,-2.7205696,1.052486,2.3194902,4.7373650000000005
-6.098185,16.17625,-3.0269127,1.1893022,2.6117456000000003,3.395381
-11.735735,13.131431,-5.764615,0.9364564000000001,1.9319747999999999,1.8133098
-9.351081,8.848797,-5.507095,0.28115508,-0.1685639,-0.48366565
-6.749446400000001,10.836607,-4.0999746,-0.27031659999999996,-0.9883625,-2.2935722000000003
-6.094755999999999,13.217238,-2.2013824,-0.24902357,-0.36445966,-3.5216382000000004
3.9988723,14.805876999999999,-4.644847400000001,-0.77176714,-2.0742887999999997,-1.4902843000000001
18.538870000000003,17.195482000000002,9.513667,-1.0932916000000001,-1.6809092,-2.5134137
0.08265742,11.3252735,3.0199884999999997,-0.41030946,2.427561,-3.4753344
-6.5533805,9.4792385,-3.6763637000000005,0.8624719000000001,4.359379,-3.7233807999999997
-8.4785,7.7980776,-3.7042610000000002,0.38603193,3.595483,-2.9451384999999997
-10.301302,7.0293282999999995,-2.4586728,0.42753586,1.7940937,-2.2387512000000003
-11.227361,9.129617999999999,-4.1777573,0.10602875,-0.994733,-1.4077826
-5.8746529999999995,10.659235,-3.8900797,-0.026494099,-2.8924818,-0.8302008
-0.61950445,10.503813000000001,0.2980015,0.01605703,-3.159168,-0.67636746
2.8282511,9.976869,-0.36667678,0.17149605,-1.5015068,-0.73492324
2.9244790000000003,9.654666,-1.3955132,0.18107791,0.5511226,-0.94092447
-1.3099157,8.942677999999999,-2.3807270000000003,0.17097245,1.2218527,-0.9334719000000001
-4.165422400000001,8.928351,-3.0842874,0.14755014,0.43027600000000005,-0.73970544
-3.2920752,9.149307,-2.5834203,0.12412781,-0.66202086,-0.5656263000000001
-0.6205675,9.6805525,-1.4550041999999999,0.12199851,-0.96172875,-0.5736199000000001
-0.02785893,9.628321000000001,-1.8025753,0.09004153,-0.6918485,-0.66252697
-0.10458831,9.339178,-2.0086203,0.05066691,-0.25534168,-0.7514166
-0.9282031999999999,9.398036,-2.3927462000000004,0.054925512999999995,-0.0024783674,-0.82967716
-2.1447737,9.571272,-2.327279,0.08206538,-0.11800171,-0.82967716
-2.72328,10.328825,-1.5260833999999999,0.050125855999999996,-0.28035223,-0.76473343
-2.456834,10.58785,-1.7414561999999998,0.07674213,-0.5667433000000001,-0.7296
-0.60043705,10.628015,-2.3379858,0.037891097,-0.8584575999999999,-0.82913613
1.7936018,10.813623,-2.6954496,-0.056845374000000004,-0.8632573,-1.0835876
1.6535506000000002,11.233489,-2.8907877999999996,-0.23464206,-0.5603554000000001,-1.4721853
0.19339405,11.73292,-3.235687,-0.400204,-0.46507788,-1.7335657
-0.8005061,12.456199,-3.0701041,-0.49602258,-0.6221226,-1.9087095
-0.5244068000000001,12.658844,-2.3275087,-0.5806536,-1.0021855,-2.031668
1.0836443999999998,12.932309,-2.0689637999999997,-0.7589913,-1.2821886999999998,-2.2030768
3.135552,13.906873999999998,-3.2811577000000005,-0.95221674,-1.3684253999999998,-2.3957610000000003
4.058066999999999,14.837576,-4.726939700000001,-1.0474943,-1.5323817,-2.6198787999999995
5.386015,16.024314999999998,-3.52845,-1.2167736999999998,-1.9082033999999999,-2.8109748
1.8796878000000001,15.499189999999999,-1.4414531000000002,-1.0043845999999998,-0.97930425,-3.3177662000000003
-1.9742109,14.095767000000002,-1.9382787000000001,-0.49813443,-0.45601964,-3.1718915
-2.6423366,11.207708,-2.7006977,-0.24476497,-0.9478883,-2.5458944
-1.7800793999999998,9.478798,0.12839626,-0.32033774,-1.4631793,-1.8006213
-8.158089,6.2710557,2.5161145,0.10389945,-0.43153265,-1.6563698
-9.483749000000001,2.7370994,-3.2007604,0.5223072,-0.613588,0.20090485
-2.3687754,2.9076142000000003,-0.6780666999999999,0.6686880000000001,-1.7591523,1.814898
0.19277154,4.118161,2.0559392,0.6138672,-1.5781616000000003,2.361605
1.0739143999999998,3.2895849999999998,3.1109395,0.86406016,-0.42779765,2.7161338
-0.328111,4.242066,1.9207148999999997,1.1839964,0.8263436,3.0701389999999997
-1.9603723000000002,6.669096499999999,1.3226528,1.1504511999999998,1.5045087,3.611505
-3.5264196000000005,6.9865966,1.2368255,1.0344043,1.5870278999999998,4.1709876
-4.01387,6.0800276,0.61450535,0.9412386,1.376227,4.7299123
-2.9496853,6.4750032,0.9571635000000001,0.9875596999999999,1.2937253,5.141948999999999
-2.2163413,7.7923026,0.54870313,1.1217057,1.5859632,5.4938080000000005
-2.1265202000000003,9.765067,-0.41826704,1.2489401000000002,1.8553199,5.8211965999999995
-1.9855498,12.125233999999999,-1.7580911,1.331983,1.9729724999999998,6.03945
-2.0453954,14.891072,-3.6939564,1.32186,2.2641459,5.8222437000000005
-2.2615726,17.314512,-3.7687035000000004,0.9864950000000001,2.174715,5.2020935999999995
-3.7246212999999995,15.906223,-2.5871935,0.96148443,1.9378389999999999,4.295011
-7.469191,14.451976,-4.070593,1.0796431999999998,1.4299831,3.1574402000000004
-8.640195,11.585617999999998,-5.6379333,0.6186669,0.33819243,1.4885913
-5.6775910000000005,9.308359,-4.875265,0.123604216,-0.85685194,-0.73118824
-4.7440724,11.260094,-3.818129,-0.20374973,-0.7620979999999999,-2.2685266
-5.088358400000001,13.305135,-3.2780644999999997,-0.3405661,-0.11267845,-3.4268842000000004
5.75047,15.064288000000001,-0.6302688,-0.9931970999999999,-1.7192191000000003,-1.5083833999999998
12.44576,15.145222,7.914359599999999,-0.7430041000000001,-0.85898125,-2.6970572
-2.5866667999999997,10.740744,2.5348563,-0.21760765,2.5633128,-3.390686
-5.234577,8.697503,-3.73981,0.8763124,4.163483,-3.271445
-5.728214,7.920077,-4.737474,0.46748644,3.6615087999999996,-2.6661825
-10.140249,8.009208000000001,-1.7090483,0.31897637,2.1033835,-2.1061761000000003
-11.875824,9.6589575,-2.6386112999999995,0.19865337,-0.7504043,-1.2864124
-5.621289,10.392339,-3.2807648,0.14755014,-2.9308092999999995,-0.64653975
0.41661980000000004,10.23527,-0.9155139999999999,0.14011504,-3.1400043999999996,-0.5789257
3.8448102,9.829663,0.37035426,0.31789428,-1.6228770000000001,-0.75035197
4.107281700000001,9.854285,-2.5719569,0.28756043,0.38823104,-1.0266201
-1.0162811999999999,9.347194,-3.1910974999999997,0.16193165,1.1233811000000002,-1.0692061000000002
-4.167089,9.210819,-2.4253454,0.15341444,0.29028317,-0.8855626
-3.1711774,9.43847,-2.0797281,0.17844246,-0.8930501000000001,-0.6928434
-0.46656287,9.597771,-2.3103566000000004,0.13318607,-1.1192971,-0.6806085999999999
-0.1830032,9.330376,-2.0411623,0.10177015,-0.7147298000000001,-0.7588691999999999
-0.79034513,9.322619,-1.9668558999999997,0.07730063,-0.31281537,-0.81847215
-1.6123703999999999,9.549235000000001,-1.8272069,0.055466562999999997,-0.12917182,-0.81581926
-2.2359736,9.74646,-1.8578813000000003,0.07408923,-0.1557881,-0.7780329
-2.7753394,10.026266,-1.6147453999999999,0.106569804,-0.17708111,-0.7050956
-2.3828628,10.483587,-1.7964748,0.13742723,-0.34955454,-0.6406929
-0.38679764,10.849449,-2.1308491000000003,0.11082841,-0.71740013,-0.7540695
1.782531,10.964706,-2.8604867,0.033108898,-0.77593845,-1.0463248
1.8308171999999998,11.293565,-3.089018,-0.109536864,-0.6343399000000001,-1.4242758999999998
0.9117503,11.540522,-3.3003974,-0.29639181,-0.5534439,-1.7441947
-0.17363709,11.935286999999999,-3.5043547,-0.44490188,-0.5869717,-1.9566013999999998
-0.34640267,12.30524,-2.8781654999999997,-0.5455201,-0.88879144,-2.1051113999999997
1.0123834999999999,12.907706,-2.4075037999999997,-0.7014826999999999,-1.3577788999999998,-2.2983544
3.2403603,14.158313,-3.30419,-0.925583,-1.5989136,-2.5075495
4.4999595,15.300366,-4.4434949999999995,-1.0368476999999998,-1.8677466,-2.7263439
6.2956395,16.627031,-3.23449,-1.2391315,-2.2451564999999998,-2.9158342
2.069979,15.885145000000001,-0.96140605,-0.9729687,-1.0538124,-3.4311428
-2.2915287,14.163426000000001,-2.2472744,-0.39432225,-0.44802603,-3.2480227999999998
-2.6213062000000003,11.441813,-2.4816284,-0.17128661,-1.0266725,-2.546418
-1.879477,9.496208,-0.19378668,-0.20802579999999998,-1.4887309,-1.7660289
-8.503812,5.757835,1.9359132,0.15076154,-0.44217917,-1.54884
-8.989719000000001,2.7618169999999997,-2.6891866,0.4946263,-0.42036256,0.27223647
-3.0374662999999997,2.6713257,-0.46284708,0.6117554000000001,-1.4402806000000001,1.8101333
-0.5104917,3.418489,2.024422,0.5787512,-1.3577788999999998,2.4478592999999997
0.34385526,2.7893982000000004,3.4311687999999996,0.8566075999999999,-0.30538025,2.8603852
-0.72036743,3.7652366,1.9396291,1.2223239,0.7571413,3.2809398
-1.6691703999999998,5.697922,0.89083457,1.2712978000000001,1.270303,3.8505279999999997
-3.03195,6.482033,1.1183028,1.2084834999999998,1.3171476,4.3338795
-4.341558999999999,6.3738246,0.793697,1.1020184,1.1074114,4.8827157
-3.235601,6.9251995,1.0421289,1.1158588,0.8210203000000001,5.32294
-1.8347055,8.121037,0.7705499,1.2734271000000001,1.0009463,5.674275
-1.1831187,10.223566,0.37993109999999997,1.417155,1.496009,5.920209
-0.67363256,12.370619999999999,-0.952988,1.568859,2.1076422000000004,5.9643836
-1.8252531000000003,15.797776,-3.5020945,1.3761572,2.683077,5.6375356
-3.064425,17.895884,-3.6358442,0.84011424,2.855027,4.7757096
-4.742482,15.770999,-2.6781634999999997,0.7214144,2.5941875,3.8936550000000003
-7.895426,14.0240755,-3.8376467000000005,0.8997347,1.983078,2.6570544
-9.152593,11.301197,-5.5278955000000005,0.43874088,0.79492766,0.64432317
-7.105972,10.3168545,-4.3065367,0.008080875,-0.22766075,-1.4178879999999998
-7.854361,13.203629500000002,-3.09441,-0.24261822,0.061924282000000004,-3.3108199000000003
-3.3746848,14.740735999999998,-6.786767,-0.8276351000000001,-1.757023,-1.9885234
17.154329999999998,17.983232,4.94327,-0.53698546,-3.464182,-1.8687589
1.1589469,15.188969,2.431149,-0.6418623,0.14761995,-3.7755487000000003
-5.2729992999999995,5.9831486,-1.1457787,0.10337585,1.9628496,-3.3699167
-4.52778,4.1993339999999995,-0.4745978,0.29873055,1.9644554,-2.7455077
-7.2333717,8.452011,-1.406967,0.3056595,1.9836191000000003,-2.2680029999999998
-8.854600999999999,10.920088,-2.9421291000000003,0.2284636,0.4105887,-1.6121781000000002
-6.492941,10.383078999999999,-2.022842,0.19652407,-1.5696444999999999,-1.0878463
-1.4236209999999998,9.5738,-0.8826655000000001,0.17364279999999999,-2.0045455000000003,-0.8248774999999999
0.86606896,9.87771,-0.98395944,0.20877628,-1.0644588,-0.8030434000000001
0.90395474,10.144396,-2.1108333999999997,0.16245525,-0.039200094,-0.9111142
-1.7273207999999998,9.602942,-2.2534037000000002,0.13159783,0.43507567,-0.8754396999999999
-3.6622477,9.088448,-1.8921856,0.16299629,0.059253927000000005,-0.6784793
-3.3357646,9.326066,-1.6718519,0.20877628,-0.6561739999999999,-0.49110073
-0.9267284,9.763775,-1.8058218999999998,0.20771164,-0.9846275,-0.46609017
-0.22696073,9.706745,-2.4752023,0.13744467,-0.8057486999999999,-0.53049284
-0.80911565,9.221307000000001,-2.3995647,0.10124655,-0.5411916999999999,-0.59596014
-1.2169822,9.217101,-2.1278132999999997,0.08580039,-0.39426988,-0.63802254
-1.6479291,9.42714,-1.9933835,0.09060004,-0.27396435,-0.62098813
-1.6753186999999998,10.087078,-1.6028508999999997,0.075694926,-0.15472344,-0.6188588
-2.0017824,10.701296000000001,-1.3441527,0.122539565,-0.21380283,-0.60447735
-1.1969379999999998,11.251254,-1.580853,0.12733923,-0.57684875,-0.65505695
1.4472566,10.423884,-2.657449,0.019792033,-0.94308865,-0.93666583
2.8771695999999998,10.0841,-3.7322059999999997,-0.116448365,-0.75625116,-1.325246
1.1407222,11.537332000000001,-3.7379522000000005,-0.29424506,-0.38468802,-1.6595463
-0.54883724,12.4444,-2.8862486,-0.46725956,-0.46666613,-1.8671532
-0.35541445,12.316741,-2.856503,-0.57904786,-0.79616684,-2.0012991
0.5202026,12.181574000000001,-2.5488193,-0.7078532,-1.033584,-2.1460917
2.1242602,12.660250999999999,-2.9873697999999997,-0.9064193000000001,-1.1576245,-2.3372054
4.3113155,14.035864000000002,-4.2168593,-1.1220198000000001,-1.2007341,-2.5751459999999997
6.1922483,15.592429999999998,-5.4995294,-1.2875643,-1.5307758999999999,-2.8524964
6.1046305,16.735567,-1.3118215,-1.3966823,-1.0362369,-3.3118844
0.2006724,15.285120000000001,-0.8160876,-0.8478635,0.039025564,-3.5950816
-3.3725586000000005,12.7843,-2.5627055,-0.38208747,0.054471727000000005,-3.2384236
-2.3837821,10.206923,-1.0492636999999998,-0.24846508,-0.7775441999999999,-2.4058666
-4.8836923,9.000580000000001,2.132477,-0.37355283,-0.80094904,-1.9283793999999999
-10.05402,4.2923155,-1.9811157,0.2907544,-0.20263273,-0.7029663
-3.5526793,3.3382833,-1.7402877,0.5313654999999999,-1.0751053,1.1335389999999999
-0.54844457,4.124386,0.9270828000000001,0.524454,-1.1592128000000002,2.0123994
-0.57029885,3.8059763999999996,2.374579,0.68202233,-0.27235863,2.5425956000000003
-1.490812,3.7525473,1.4505223,1.0040705,0.70071477,3.1334944
-2.8369663,5.6924443,0.89201254,1.0120641,1.0520495,3.7605562000000003
-3.5369349999999997,6.5840735,1.4264367,0.90453434,0.8971515999999999,4.3365498
-4.497105599999999,5.9228144,1.0758488000000002,0.8805884,0.5724331,4.9631057
-3.908429,6.0616975,0.83790356,0.90931654,0.25621432,5.489567
-2.4168220000000002,6.8948507,1.2049347,1.0732902,0.24717353,5.860606
-1.1075959999999998,8.772105999999999,0.8899918,1.2904615,0.7081673,6.121969
-0.8242853000000001,11.382351,0.026642676,1.4416419,1.3677273,6.258768
-1.0784825,14.447121,-1.889389,1.5257493,2.1805793999999996,6.1459150000000005
-1.8504976999999998,17.813655999999998,-3.7510626000000005,1.1536627,2.6841592999999997,5.518853
-3.4829122999999997,17.325823,-3.5911207000000003,0.866748,2.9987724,4.270541000000001
-8.338678,15.197329500000002,-3.9688778,0.9401914000000001,2.9215765,3.000413
-11.4785795,12.306397,-5.6581306,0.56704,1.5322071000000002,1.27142
-9.883475,9.645683,-5.512027,0.17631316,-0.29312804,-0.9829694
-7.0649543,10.613602,-5.7627287,-0.07599164,-0.74878114,-2.6379604
-6.0880527,12.976755,-7.504003,-0.28359854,-1.0165495999999998,-3.3592699999999995
12.120627,17.004004000000002,-0.9610517,-1.0325891999999999,-3.5536125,-0.9169610999999999
11.9423065,16.858828,7.944717999999999,-0.8782148000000001,-0.765292,-3.581782
-3.9984221,8.258531,2.653034,-0.14945254,2.755491,-3.7020876000000005
-5.865191,3.934679,-1.4532995000000002,0.93273884,3.7775557,-3.4252784
-8.351416,8.515495,-2.2348917,0.5952445,3.4006693,-2.7433784
-11.079456,10.494475,-3.2873058,0.4770683,1.5173020000000002,-2.0231333
-10.503017999999999,10.0927,-4.1134396,0.23326325,-1.4961834999999999,-1.2145222
-3.8804646000000003,9.6917,-2.4687952999999996,0.12041026,-3.3114133000000003,-0.7476816
0.8812769,10.210302,-0.6742551,0.13318607,-2.4714036,-0.67367965
2.9793541,10.1427,-1.4372393,0.1624727,-0.5305451999999999,-0.7721686
0.23248656,9.380654,-1.5760934,0.1555612,0.9668775,-0.8956506
-3.4026587,9.139175,-2.1187343999999997,0.18109536,0.9269444,-0.77269214
-4.2883697,9.202411,-2.1455207,0.21251129,-0.22125539,-0.55709165
-1.8904712,9.582381,-1.6210468999999998,0.23858652,-0.942024,-0.43839179999999994
-0.29448682,9.573042999999998,-1.7919546000000002,0.20877628,-0.8547226000000001,-0.4985532999999999
-0.22263204,9.249317999999999,-1.9681294999999999,0.18216002,-0.48422414,-0.59063685
-0.8703976000000001,9.352566,-2.0793164,0.17366026,-0.15044738,-0.66835636
-2.2276130000000003,9.828945,-2.2263203,0.1709899,-0.15524703,-0.63641685
-1.806655,10.28552,-2.0104973000000004,0.18376571,-0.35859534,-0.5948955
-0.7129837,10.988629,-2.0718272,0.18163641,-0.51883405,-0.69019043
0.9294100000000001,11.27375,-2.006638,0.14276794,-0.7008893,-0.8903448
1.9746131000000002,11.050092999999999,-3.2048783,0.004886922,-0.8126777,-1.2422206
2.0421294999999997,11.146819,-3.7515419000000003,-0.1547758,-0.75464547,-1.6127017
1.2279669,11.385463,-3.5826354,-0.35067156,-0.695025,-1.9470020000000001
0.674686,12.022455,-3.3107405,-0.5156924,-0.7450635999999999,-2.2046474999999996
0.8028715999999999,12.629605,-2.6827989,-0.6237632,-0.9878040000000001,-2.4053430000000002
2.037255,13.380819,-2.4104342,-0.7690793,-1.2970937,-2.5996330000000003
4.2850657,14.841645999999999,-3.7847922,-0.9761451999999999,-1.503095,-2.8056343
6.0729594,16.385206,-5.481228,-1.0751752,-1.9199145,-2.9972887000000004
4.359266799999999,16.276989999999998,-0.36441666,-0.97349226,-1.2539666999999999,-3.4598708
-1.8662898999999997,14.574425,-0.47599605,-0.410292,-0.6007946999999999,-3.517903
-3.7426736000000003,12.701267999999999,-3.109005,-0.0073303827000000005,-1.1176913999999998,-2.8508906
-2.5306616,10.668265,-0.47336239999999996,-0.16383405,-1.9928343000000002,-1.9778769
-5.7614455,8.5247555,2.575577,-0.11379547,-1.5515279,-1.6989383999999998
-10.086848,3.4067477999999998,-2.6750224,0.5563935,-0.945759,-0.36280158
-2.2885885,3.4791486000000003,-0.9373683,0.7134208000000001,-1.7485057000000002,1.5844274
1.1390749,4.300053,2.257234,0.701186,-1.366296,2.2226767999999995
0.92834693,2.9411907000000004,2.7302232,0.86461866,-0.19783308,2.5591063
-0.84332407,3.4746474999999997,1.5564034,1.1978544,0.9296146999999999,2.9690144
-2.3177884,5.9708424,0.96949846,1.1328931999999998,1.3858088,3.5859709000000004
-3.8023179,6.565676700000001,1.3205937,1.0030059,1.2548568000000002,4.1603413
-4.4311886,5.7179856,0.76004416,0.9306270000000001,0.910992,4.750158
-3.0895544999999998,5.954466,0.93361413,1.0237752,0.7177492,5.1973286
-1.5006186000000001,7.2357183,0.789081,1.2563927,1.0605668,5.509254
-1.1739633,9.056719000000001,0.17665377,1.4656053999999998,1.6844522000000002,5.771699
-1.6033969,11.44438,-1.0699782,1.5576889999999999,2.0150175,5.9521489999999995
-2.4757195,14.652130999999999,-3.4143517,1.5033916999999999,2.3221781000000004,5.9223385
-2.7941387000000004,18.363306,-4.8317957,0.9662841000000001,2.273745,5.372996
-5.2572556,17.357397,-3.4949790000000003,0.637307,2.2700102,4.1560826
-8.599829,14.085289999999999,-3.806982,0.7996749,2.0075824,2.9567623
-11.080786999999999,11.625046000000001,-4.5779343,0.66818184,0.89661056,1.3544627
-7.8030100000000004,10.685045,-4.679103400000001,0.34719834,-0.3080157,-0.7194596
-7.515677,12.749833,-3.8814318,-0.26230553,-0.10414380000000001,-3.0324223
-6.4444346,15.188413,-7.2679634,-0.95539325,-1.3524382,-2.5682169999999998
20.565866,18.294191,9.475284,-0.7115882,-3.781448,-1.3806078000000002
3.5164597,15.639145999999998,1.2614281999999999,-0.5332679,1.026498,-4.1998034
-6.2198873,5.797981,-2.1832056,0.2705435,3.374053,-3.6020105000000004
-5.559508999999999,3.8593379999999997,-1.0497712,0.3487866,3.0168715,-2.923828
-9.653508,7.723896000000001,-2.0645106,0.33546972,2.1821677999999998,-2.280779
-11.564167,11.489372,-3.7239127,0.18589501,-0.44589671,-1.4380989
-6.2229996,10.715297999999999,-1.3906863999999999,0.19228293,-2.7636416,-0.88393945
0.29117325,9.584842,-0.76861537,0.20771164,-2.8945937,-0.78813833
2.8472707,9.912234,-1.7613088,0.19600047,-1.171465,-0.8397652
2.1960576,9.922549,-2.8485732000000006,0.111910515,0.33608059999999995,-1.0085210999999998
-1.2914994,9.0336485,-2.7780306,0.10337585,0.86573565,-1.0266201
-4.0921693,9.187375999999999,-2.6993952,0.06825983,0.14231415,-0.85519385
-2.84593,9.640483999999999,-1.5684607,0.11030481,-0.715777,-0.7008194999999999
-1.0863546,9.420475,-2.2047630000000003,0.07197738,-0.8547226000000001,-0.67687356
-0.46932098,9.063787,-2.3552625,0.07038913,-0.57897806,-0.7482052
-0.48880023,9.435606,-2.3160262,0.029391345,-0.22177899,-0.83870053
-1.8215278000000001,9.821283,-1.8314685000000002,0.04749041,-0.07592182,-0.86425215
-3.1934915,9.965501,-1.2510278000000001,0.07038913,-0.28459337,-0.8078255999999999
-2.4433498,9.910175,-1.5745993999999999,0.075694926,-0.50764644,-0.74661696
-1.2400815,10.378615,-2.0525107,0.09220574,-0.5523618,-0.7806858
-0.24553017,11.222007000000001,-1.992675,0.07784168400000001,-0.5587496999999999,-0.9323898000000002
0.06596504,11.619712,-2.1966035,-0.0014660766,-0.6284930999999999,-1.1330853
0.14067373,11.725458999999999,-2.3309088,-0.102607906,-0.71151835,-1.3758081
0.68063325,11.810894000000001,-2.6034646,-0.24846508,-0.7738092,-1.5935378999999998
1.184402,12.036303,-2.8361905,-0.43903756,-0.7418696,-1.8389487
1.1267208999999998,11.903865,-2.8095,-0.55667275,-0.8206538000000001,-2.0896652
1.3628467,12.10811,-2.7556303,-0.71743506,-1.072435,-2.2962074
3.1436347999999996,13.615920999999998,-3.8099601,-0.9511345999999999,-1.3891773,-2.4755924
5.3228087,15.719207999999998,-4.514507,-1.1454247,-1.7687167000000001,-2.6831994
5.3754044,16.563606,-0.7905270999999999,-1.1571532,-1.4828666000000001,-3.1697623999999998
0.7554281,16.074192,-0.24840320000000002,-0.6860366,-0.807878,-3.2724924
-2.109148,14.445339,-2.592633,-0.42093852,-0.8515287,-2.938192
-2.4595635,11.749957,-1.1995333000000001,-0.36983526,-1.3300805,-2.2743735000000003
-3.4962623,9.70118,0.9400115,-0.36824703,-1.238538,-1.6414473000000003
-9.383317,4.5113177,-1.2695014,0.30674163,-0.63379884,-0.8051553000000001
-4.387336299999999,3.7674870000000005,-1.6246191,0.52551866,-1.2475787,0.9387078999999999
-1.3775088,4.164752,0.650744,0.6745696999999999,-1.2374733999999998,1.8276913000000001
-1.388139,3.2786772000000006,1.6103783999999999,0.7996749,-0.45228463,2.3360708
-1.5245318,2.7586663,0.806664,1.219671,0.22961551,2.9689970000000003
-1.8088673,5.209994,-0.25215733,1.3037784,0.39036033,3.5476434
-3.1928115000000004,6.7808967,1.074805,1.1770848999999999,0.34779176,4.0272775
-4.648812,6.160463,1.6182889,1.1430161,0.09334021,4.573967
-3.6103125,6.0343366,0.9310476000000001,1.2723799,-0.12276646,5.1185446
-1.4217057,7.030850999999999,0.86735225,1.4517648,0.18702948,5.3809724
-0.70558083,8.433902,0.4841746,1.622109,0.90299845,5.5598335
-0.91683555,10.351293,-0.38818628,1.6812058999999997,1.4954853000000001,5.768505
-0.63462627,12.569033000000001,-1.4954375,1.6545895,2.176862,5.8313193
-1.8800324000000002,16.530296,-3.1556919,1.3202893,2.7384565,5.54334
-2.7330961,17.12493,-3.3122822999999997,0.9556376,3.0924616,4.770927400000001
-4.2295300000000005,15.705197,-3.2639862999999996,0.9481850000000001,3.0397527,3.8537218999999996
-7.8721065999999995,13.940104999999999,-4.0584690000000005,1.1669796000000001,2.646373,2.3669457
-8.657223,11.002419,-6.4540687000000005,0.7416428,1.3395053,0.50913
-6.7703238,9.875556,-5.9131703,0.09539969999999999,0.08588765599999999,-1.5589281000000001
-6.1106443,12.066557000000001,-2.7406907000000005,-0.22451915,0.29241246,-2.9216986
-6.043578,12.342541,-5.185755,-0.3714235,0.29295352,-3.3635113
11.104288,15.267957999999998,4.3942312999999995,-1.1826874,-1.9821879,-1.2539143999999998
7.988072,15.092951999999999,8.406321,-0.48907617,0.16786577,-3.1026719
-5.821578,14.551766,0.28634652,0.592068,3.2127671,-4.023594999999999
-5.971733,7.9688039999999996,-7.6525965,0.6612703000000001,3.3421135000000004,-3.3837397000000005
-5.0533648,5.070287,-0.24872883,0.531924,2.2998377999999997,-2.8279919999999996
-10.865768,6.403752,-3.9501263999999994,0.344528,0.6879390000000001,-2.2419102000000004
-11.0434,10.740858,-4.4363694,-0.011571533,-1.813432,-1.2352742
-3.4502265,11.461657,0.03635356,0.021956242999999997,-3.1133707000000004,-0.8881981
1.7346278000000002,10.233286999999999,0.12002613,0.064001225,-2.0258211999999998,-0.8855277
3.4621690000000003,9.568033999999999,-0.56850797,0.13959143,0.23600341,-1.0436370000000001
-0.097127974,9.048061,-1.9146718999999996,0.13746212,1.5726638000000002,-1.1469082
-4.081673,9.129655999999999,-2.6859016,0.14543828,1.291596,-0.97869337
-5.190131,9.250028,-1.7463595,0.12149237,0.16786577,-0.7316944000000001
-3.129394,9.553258,-0.3864146,0.22795746,-0.63379884,-0.5427276
-1.1450604,9.654330999999999,-0.71917987,0.256162,-0.6540272,-0.52143455
-0.7383335,9.488021,-1.7033308,0.26415557,-0.2861991,-0.59915406
-1.6457263,9.604158,-1.8742672999999999,0.27851963,-0.055710907999999996,-0.626835
-2.3371623,10.063951,-1.8416679,0.27108455,-0.19568631,-0.59541905
-1.5395003999999999,10.436564,-1.5379777000000001,0.28064895,-0.45973718,-0.62629396
-0.5010777,10.556772,-1.5670817,0.21889919,-0.59014815,-0.73223543
0.7424036,10.534057,-2.5480628,0.16566665,-0.6231524,-0.9036441999999999
1.100423,10.363149,-3.4437047999999995,0.05920157,-0.61624086,-1.2251688
0.36376545,11.338106,-3.6380373999999995,-0.091420345,-0.62102306,-1.5296589
-0.14911088,11.882921000000001,-3.2575986,-0.28253388,-0.75464547,-1.7675996999999999
-0.41155368,12.785822,-2.737511,-0.406557,-0.79243183,-1.9076098999999997
-0.030875625,13.122964000000001,-1.7907958,-0.5087635,-1.0543360000000002,-2.0513377
1.487393,12.604733999999999,-1.7545476000000002,-0.64983845,-1.387048,-2.2397810000000002
3.5782491999999997,13.617385999999998,-3.5615377,-0.86596256,-1.5659094,-2.4947736000000003
5.635663500000001,15.323877,-5.289261,-1.0783516000000002,-1.9800586,-2.7263265
6.885733999999999,16.7923,-2.922717,-1.3157688,-1.6989907,-3.0531743
2.0360484,16.788284,-0.92836607,-0.92078334,-0.49274135,-3.4987218
-2.4146577999999996,13.596375,-2.2692148999999997,-0.31764993,-0.11796680000000001,-3.297503
-2.6728389999999997,11.403362,-1.9288838,-0.19149752,-0.7519751,-2.5325599999999997
-2.9462376,10.220578999999999,0.4379378,-0.35971236,-1.0756290000000002,-1.8453191999999998
-10.308102,5.541581,0.11160811,0.17631316,-0.062081363,-1.3449333
-7.1399693,3.5115662000000003,-2.8292952000000002,0.35836846,-0.6843785,0.7263188
-1.586331,3.5323575,-0.17919163,0.35890952,-1.4594443000000001,1.9623784
-0.4240706,3.3892992,2.2372377,0.31737068,-0.9984504999999999,2.4015381000000002
-0.77520424,3.0580947,2.9752839,0.6527531,-0.03546509,2.827416
-1.3688129999999998,4.4508686,1.2543415,0.8869763,0.69273865,3.3709114000000002
-1.7371944,5.9542933,0.9683588,0.85823077,1.0073516,3.8654504000000003
-3.5097752,6.542482,1.3723851,0.8294851999999999,1.1478681999999998,4.329638500000001
-3.7290553999999996,6.545785400000001,0.8268136,0.84545493,1.1489328,4.80819
-2.455905,6.893739699999999,0.5247706999999999,0.9902474,1.1899306,5.145684200000001
-1.9603244,8.037077,0.014566323999999999,1.1701734,1.5018733,5.384707499999999
-2.3641975,9.785246,-1.0878487,1.3309357,1.7190621,5.6455470000000005
-2.5310542999999996,11.509617,-2.4158356,1.4193016999999999,1.7222560000000002,5.8595414
-2.8507472999999997,13.925462,-4.0346994,1.3187008999999998,1.8558784,5.705167299999999
-3.256938,16.789684,-3.4639597,0.8443728000000001,1.7967814999999998,5.195182
-3.6091057999999996,16.308670000000003,-2.0294785,0.7171558000000001,1.8888651,4.402017
-6.9473224,14.779503,-2.8217293999999997,0.84067273,2.127888,2.9966955
-10.955541,12.816918,-4.184337,0.701186,1.6147263,1.277808
-8.170041000000001,11.162381,-4.287747,0.24818581,0.47661450000000005,-0.8142136
-9.726386999999999,12.6220875,-2.924728,-0.19736183,0.30040607,-3.0297520000000002
-7.657538000000001,14.958772,-7.654665,-0.7786611999999999,-1.3689489,-2.483045
17.407867,17.215805,5.812145,-0.30276227,-4.2482885999999995,-1.4609976999999998
4.1349874,17.072899,0.21532492,-0.45020768,-0.11105530000000001,-3.9485457000000004
-6.4205309999999995,9.022539,-2.6211432999999995,0.050160762000000005,2.1156356,-3.7222986000000002
-3.9557383,3.3422672999999996,1.4989618,0.09435249999999999,1.5481768999999999,-2.8945412999999998
-7.2879114000000005,6.575234399999999,-0.34361579999999997,0.32590532,1.2277168999999999,-2.4990148999999997
-9.286102,10.8509245,-3.1782644,0.25670302,-0.19729201,-1.67871
-5.839343,10.992028999999999,-1.8398386000000002,0.13692108,-1.7623461,-1.2166516
-0.92854804,9.670209,-0.9894181999999999,0.13426818,-1.7681930000000001,-0.9999863999999999
1.0005082,9.832996000000001,-1.3210821000000001,0.12575097,-0.7429343,-0.9898809000000001
-0.23856784,10.158586999999999,-1.4922963,0.10978121,0.13166764,-1.0303377
-2.7395701,9.645664,-1.8252148999999998,0.14543828,0.28869492,-0.91109675
-3.9537942000000004,9.05037,-2.0018303,0.1704663,-0.19463912,-0.69071406
-2.9624702999999997,8.880659,-2.0604787,0.20027652,-0.71897095,-0.5240875
-1.3428121000000002,9.3174095,-1.8386033,0.19282398,-0.8493994,-0.4996005
-0.74683774,9.564366,-2.016981,0.13479178,-0.68170816,-0.552833
-0.86167324,9.8087,-1.5598415,0.11456341,-0.46027824,-0.60447735
-1.7101207999999999,9.825353999999999,-1.422539,0.10445795,-0.33410838,-0.6183178
-2.2503292999999998,9.768373,-1.5005229,0.12042772,-0.3117507,-0.5980894
-1.6675807,10.20246,-1.9325997,0.09752899999999999,-0.32772046,-0.57360244
-0.9967349,10.53218,-2.0376093,0.10498156,-0.37350047,-0.64332837
-0.3029527,10.311117999999999,-2.3924015,0.08583529,-0.59866536,-0.8072845999999999
0.7540873,10.20086,-3.2899203000000004,-0.041381758,-0.80946624,-1.0473721
2.0336540000000003,11.064813000000001,-3.6160202000000004,-0.20003219,-0.88027424,-1.4035065
1.6494997,11.814983,-3.1074247,-0.39912188,-0.7285702,-1.7553648999999998
0.39614463,12.314701,-2.7065206,-0.56360173,-0.6838375,-2.0188572
0.15128481,12.25521,-2.6703297999999998,-0.6860366,-0.9723578000000002,-2.1833546000000004
1.5683553,12.722509,-2.445926,-0.8499928,-1.3418092,-2.352634
4.474093,14.671687,-3.364514,-1.1592652,-1.6734391,-2.5650406
8.151175,16.8108,-4.094248,-1.4174517,-1.8496474999999999,-2.9190457000000003
8.252832000000001,17.887455,-2.6339664000000003,-1.5377398000000002,-0.9510648000000002,-3.3991860000000003
0.7595653,16.521122000000002,-1.3412030000000001,-0.9660397,0.504278,-3.7579732000000003
-3.255578,14.223186499999999,-3.0375142000000004,-0.607776,0.5245238,-3.4178260000000003
-3.6979883,10.551582000000002,-1.6295704,-0.38154644,-0.15364133,-2.6225142000000004
-6.0131907,8.083993,0.9185690000000001,-0.47577676,-0.2947163,-1.8203086
-9.85552,4.4458027,-2.4645433,0.12468632,-0.48103019999999996,-0.43146285
-3.2453692000000003,3.6893883,-2.0523863,0.26680848,-1.5707091,1.4577339
-0.87253326,3.6053135000000003,-0.56923586,0.08688249,-1.7005965,2.2663273999999998
-0.56231177,2.965774,1.5796944,0.15130259,-0.81852454,2.7496965
-0.8610985999999999,3.0228137999999998,1.8002481,0.53881806,0.22855087,3.374629
-1.0939875,5.093875,1.0526634,0.64156556,1.1468035,3.921336
-2.3274226000000002,6.3324914,0.7811227,0.68308693,1.7318203,4.3455905999999995
-3.7331733999999996,6.732342,-0.108371146,0.74590135,2.0906253,4.7890263
-3.5263430000000002,7.2063174,-0.6762853,0.7922049,2.2215597999999996,5.143555
-3.0786464,7.8117247,-0.8776856,0.9476614,2.2561695999999998,5.413976
-3.8330882000000006,9.244875,-2.0324857,1.1653738,2.1619568,5.67801
-4.5916576,10.602177000000001,-3.3291948,1.2957848,1.6977689999999999,5.90691
-4.930964,12.579728999999999,-4.648065,1.3298537,1.1191226,5.894133999999999
-4.0877930000000005,15.777253,-3.809625,1.0722256000000001,0.5314353,5.5758033
-4.554614,16.30208,-2.1252275000000003,0.88111204,0.48671997,4.652751
-5.816368,15.282438,-1.534645,0.9524436,0.9242915,3.546579
-8.708917999999999,12.758844,-2.497344,0.9050579,1.4640695,1.6472417000000001
-8.35764,10.908414,-3.5752327000000004,0.36315066,0.8668003000000001,-0.7066838000000001
-7.9602512999999995,13.018549,-2.7989845,-0.26975808,0.52024776,-2.737514
-7.655028999999999,13.602916,-6.746428999999999,-0.5210157,-0.22924899999999998,-2.9829072999999995
15.072132,17.10025,3.6337757000000006,-0.6243043,-3.2768207,-1.0372666
6.6018963,18.120073,1.8800133,-0.72542864,-0.2340312,-3.6562902999999998
-5.7368616999999995,9.228747,-0.68720293,-0.06321582,2.4675117,-3.7664902000000002
-3.8952224,2.7651594,-2.2769049999999997,0.19919443,2.3509235,-2.9829247000000003
-5.7095769999999995,6.2139014999999995,-0.90425164,0.2609442,2.0006535,-2.6725702
-10.70234,11.083142,-1.9702363999999997,0.11562806,0.5127952,-1.9890645
-8.992363000000001,10.878122,-1.0295163,0.20504127,-1.9177853,-1.234768
-1.9869383999999999,9.611197,-0.98302096,0.16779596,-2.6662347,-0.9696526
1.4550999,10.012321,-0.98856586,0.13905038,-1.3966299,-0.947836
1.5645149999999999,10.150869,-2.2265694,0.06824237,0.15880750000000002,-1.0617536
-1.6842539,9.528405000000001,-2.6701574,0.026197392000000003,0.71455526,-1.0239497
-3.9934230000000004,9.185172999999999,-2.0335104,0.051749012999999996,0.22907446,-0.82698935
-3.601789,9.272456,-1.3235434,0.0959233,-0.58271307,-0.61618847
-1.8355865000000002,9.577468,-1.3876889,0.107634455,-0.87175703,-0.5581738
-1.1682268,9.534085000000001,-1.8098154,0.08953539,-0.7945786,-0.5704259
-0.9403275,9.41267,-1.6830758999999997,0.07408923,-0.5832366999999999,-0.6199235
-1.3784758999999998,9.7218,-1.3609216999999998,0.07037167,-0.34901348,-0.62524676
-2.0351863000000003,10.231085,-1.2199129,0.062378067999999995,-0.31655037,-0.6326993000000001
-1.3973997999999999,10.432638,-1.4046589,0.06611307,-0.37510616,-0.6444105
-0.5757768,10.225732,-1.7328179,0.059184115,-0.30270990000000003,-0.7386408
-0.37676117,10.539506,-2.2768283,0.058660515,-0.39746383,-0.88980377
0.27189509999999995,10.804524,-2.522282,-0.030752702000000003,-0.6881135,-1.1325616000000003
0.8617115,11.123451,-3.0255144,-0.17554522,-0.7631627,-1.4104354
0.25859293,11.688157,-2.5607615000000004,-0.29000390000000004,-0.7115358,-1.6457233
-0.15022178,12.52994,-1.9619046000000002,-0.45821875,-0.74082243,-1.8080913
0.8757607,12.418859,-1.7392726000000003,-0.61631066,-0.9574701999999999,-2.0045106
2.2461634,12.112793,-2.379779,-0.7653618000000001,-1.1203618,-2.2674793999999996
3.4585872,13.155007000000001,-3.780387,-0.94209385,-1.234803,-2.5251074
5.936605,15.788841,-5.8904065999999995,-1.155565,-1.5760323,-2.7769237
6.925726400000001,16.739147,-3.6215080000000004,-1.3184391000000002,-1.4200523,-3.2059603
1.8963706000000002,16.64433,-1.5191976,-0.9921324,-0.19570377,-3.7036934
-3.3666977999999994,14.130176,-2.619764,-0.34482470000000004,0.30518827,-3.5322845000000003
-3.8612727999999996,11.210619,-1.5773959,-0.17128661,-0.71260047,-2.7577423999999997
-4.7765856,9.862119,0.8488306999999999,-0.27935740000000003,-1.2481198,-1.9709653999999999
-9.314719,5.504585700000001,-0.14715720000000002,0.21675244,-0.9611877000000001,-0.96754074
-5.3359190000000005,3.5896267999999996,-1.8927026000000002,0.51007247,-1.4189876000000001,0.69116783
-1.4696951,3.6451337,0.10069054,0.5819451,-1.6675923,1.8229091
-0.43494025,3.8125842000000003,2.3093417,0.52178365,-0.9191427,2.2924027000000002
0.58494174,2.9092903,3.8272845999999996,1.0088527,0.015603243000000001,2.847627
-0.5335622,4.3466252999999995,1.9877716,1.2606514,0.9823062,3.4113507000000003
-2.6223497000000004,6.1660943,1.721048,1.2100716999999999,1.4049726,4.0038203999999995
-3.6908727,6.5950774999999995,1.7997118000000003,1.2138066,1.4294596000000002,4.5803375
-3.0680065,7.0546107000000005,1.0494648000000002,1.18452,1.4140308000000001,5.005133
-2.160834,7.9025893,1.0306368000000001,1.1350225,1.4864097,5.267037
-2.6747541,9.086885,0.19941784,1.1259643,1.5992626,5.539047
-3.5220623,10.6724415,-0.43959457,1.1589684,1.5375128999999998,5.8733473
-3.6786718,11.883064,-1.5617857,1.2068777,1.256445,6.054878700000001
-2.6812856,13.945151999999998,-2.528641,1.0956304,1.2990485,5.7770047
-2.5036072999999996,16.374071,-2.1322662999999995,0.90397584,1.7621542000000001,4.905056
-5.7877145,16.572252,-2.33676,0.8225388000000001,2.1896202999999996,3.8574394999999995
-9.677468,14.364425,-2.194008,0.86406016,2.2731867,2.6921877999999997
-9.128344,12.027971,-5.1189947,0.59044486,1.3687744,0.7598291
-8.723417999999999,10.2348,-5.942121,0.01712168,0.066706486,-1.2581904
-7.295927000000001,12.464588000000001,-3.4021413000000003,-0.19418533,-0.099902645,-2.9344745
-2.4487127999999996,13.702553,-6.0342884,-0.82393503,-1.7378592000000002,-1.9555367
18.56735,15.991045999999999,5.683326999999999,-0.5364793000000001,-3.0979595,-1.5057303999999998
5.3672543,16.68727,3.466105,-0.6594378000000001,0.44305182,-3.4646707
-5.497164,9.5379925,-1.4176738000000002,0.25349160000000004,3.0541167000000002,-3.7058226999999997
-4.869739,4.1715517,-3.2992769999999996,0.5036670999999999,2.8832316000000002,-2.9557848
-7.6957207,7.2652339999999995,-1.2145593000000001,0.38974947,2.381781,-2.5283189999999998
-11.215025,10.061432,-2.9221041000000003,0.30246556,0.4590215999999999,-1.7756107
-8.447261,10.901777000000001,-2.3727975,0.18854792,-2.0407612,-1.021838
-1.3925922,9.984013000000001,-0.965888,0.19439477,-3.0063994,-0.7775093000000001
2.217098,9.858039,-0.85004693,0.20237093,-1.8374128,-0.79187334
3.1071374,10.014831,-1.9409984,0.18107791,0.050195668,-0.95902354
-0.53240347,9.291591,-2.540315,0.15020303,0.9556899,-1.0298315
-3.485929,9.023028,-2.1377732999999997,0.17097245,0.525571,-0.8514938
-3.3058275999999998,9.261816,-2.036757,0.15817920000000002,-0.3367962,-0.68968433
-1.2395453,9.817136999999999,-2.0127669999999998,0.10231119999999999,-0.67053807,-0.631111
-0.6583767,9.698001,-1.6034256000000002,0.11400491,-0.6072,-0.67902035
-0.76700646,9.60956,-1.5926517,0.09590584,-0.42727405,-0.7428994000000001
-0.8755883,9.6788,-1.8929325000000001,0.09749409,-0.21649064,-0.79241437
-1.7236335999999999,9.776972,-1.7504104,0.11294025,-0.13610077,-0.81477207
-2.449728,10.399703,-1.5553021,0.11932816,-0.19837412,-0.7609985
-2.3832266,10.873899,-1.3982999,0.11667526,-0.5784545,-0.7301236
0.27422228,10.976811,-1.9303874,0.058119465,-0.96226984,-0.8855626
1.9762508,10.607481,-3.3800285000000003,-0.106883965,-0.9154252,-1.2076107
2.066081,11.303774,-3.9430682999999997,-0.2767045,-0.71420616,-1.5717388
0.9101893,11.73676,-3.2390387,-0.46354198,-0.69397783,-1.9054981
0.16719189999999998,12.485628,-2.80135,-0.597688,-0.81693625,-2.095006
0.34542584,12.788112,-1.8674581000000001,-0.7238579,-1.0942866000000002,-2.260568
2.1007876,12.886619,-1.9912096999999997,-0.8803615,-1.3705546999999998,-2.4351707
4.4410815,14.639776999999999,-4.215289,-1.1049854,-1.4977891,-2.6651177
7.470407000000001,16.447573000000002,-5.6597877,-1.3014396000000001,-1.8789341,-2.9243865
5.933991000000001,16.354994,-1.5295883,-1.2833231999999999,-0.9521469000000001,-3.4529769999999997
-1.0140879999999999,15.037876,-1.1444476000000001,-0.7643146,0.29667106,-3.7468204
-4.38997,12.603969000000001,-3.0205439999999997,-0.22933626,0.12365658,-3.2325939999999997
-4.082066,10.325024,-0.43340796,-0.29532716,-0.87762135,-2.4234595000000003
-8.217446,7.410417999999999,1.2902162,-0.12765338,-0.82227695,-1.8086324
-8.6910095,3.9931357000000003,-2.8362575,0.33864623,-1.0809697,-0.18769270000000002
-1.6960046000000002,3.381245,-1.3132291999999999,0.45949283,-2.0290499,1.5130783
-0.77498394,4.535547,2.0330317,0.24069835,-1.8358071,2.086925
-0.46578714,2.6865048,3.7877707000000003,0.3615275,-0.8254709000000001,2.5447075
-0.046294283,2.595018,2.9038985,0.848614,0.24396212,3.1217482000000003
-0.36750996,5.654798,2.1039765,0.9316568000000001,1.3384231000000002,3.6120286
-2.2035277,6.8920639999999995,1.4217153999999999,0.9683785,2.0208645,4.0975094
-3.0838373,6.483776,0.006196194300000001,0.9044994000000001,2.2369885,4.631423000000001
-3.1018033,6.745251700000001,-0.17489165,0.8400968000000001,2.2119779999999998,5.078053
-2.9787027999999998,8.08046,-0.35613272,0.8848120999999999,2.1023014,5.461327
-3.1132092,9.990534,-1.3079428999999998,0.9785014000000001,1.8808715,5.8121386
-3.4515385999999997,11.874925,-2.447171,1.092419,1.491733,6.111305000000001
-3.3663146,13.337179,-4.1148953,1.2207181,1.1856545,6.053273
-2.6244283,15.705303,-4.3490863,1.1286171999999999,0.8827526,5.3873425
-4.924375,17.00316,-2.7733377999999997,0.873642,1.0483146,4.0618525000000005
-9.8148,15.043018,-3.2559228,0.8113511999999999,1.4166838,2.8609262
-11.36563,11.401409,-3.8656589999999995,0.63409555,0.9136274999999999,1.3757384
-9.2857485,9.937086,-2.9400702,0.32267648,0.025708699999999998,-0.6588094
-8.205724,11.328156,-3.3072832,0.13369222,-0.007819075,-2.1572967
-9.035832000000001,13.712598999999999,-4.876424,-0.59184116,-0.24575981,-3.1649802000000005
11.524682,17.554047,5.690529,-1.2423428,-3.2315642999999996,-0.59491295
11.44731,16.815273,4.1721644,-0.2532822,0.06190683,-3.3816452000000004
-5.397747,10.539698,-3.257206,0.27316147,3.7679565000000004,-4.032687999999999
-3.8829355000000003,4.5342827,-1.8133876,0.23802800000000002,3.3096154,-3.0393686
-8.818773,5.398742700000001,-2.320422,0.46001643,2.790607,-2.8024752
-13.656441000000001,10.220263000000001,-4.5739307,0.046408303,0.04860742,-1.7010851000000002
-9.635148,11.046502,-0.670319,0.051714107,-2.6928685000000003,-0.8552288
-0.81173015,10.025997,-0.3832638,0.13475688,-3.4029906000000003,-0.6502922
3.9248819999999998,10.18479,-0.7560698,0.19704767,-1.4972656000000002,-0.75195765
3.0291919999999997,9.639458,-1.9012835,0.18106046,0.73689544,-1.0197260000000001
-1.6130023999999998,9.131304,-2.43633,0.19065976,1.3836621,-1.0255729
-4.7100844,9.288115,-2.4666216,0.16776104,0.6144606,-0.8121191
-4.0363846,9.514251,-1.2433951,0.20343557,-0.5529203,-0.57309633
-0.96592635,9.596563,-1.34874,0.21088813,-0.8957379000000001,-0.528922
-0.34992695,9.49347,-1.8722752,0.18586011,-0.57260764,-0.6098355
-0.29660326,9.441889,-2.1067824,0.18427186,-0.23352505,-0.71630055
-1.5564418,9.630550999999999,-2.2762919999999998,0.20076522,-0.047734755999999996,-0.77059776
-2.6685867,10.061288000000001,-1.612131,0.19491836,-0.24363051,-0.72640604
-2.3248754000000003,10.775383,-1.5782194999999999,0.24708626,-0.60615283,-0.6689149
-0.36642779999999997,11.632037,-1.115765,0.22951079999999996,-0.8563458,-0.79560834
1.2627403,10.914045,-2.1317492000000002,0.14220943,-0.8840266999999999,-1.0761526000000001
1.6625816000000002,11.019993,-3.6121225,-0.009477138000000001,-0.72165877,-1.3886188
0.80842614,11.689249,-3.5420491999999997,-0.16331045,-0.7386931999999999,-1.7058848000000002
0.6130114000000001,12.146417,-2.8787785,-0.3432539,-0.8600634,-1.9321319
0.66304064,12.463946,-2.5530713,-0.50775117,-0.94897044,-2.1424090000000002
1.4882836000000002,12.706161999999999,-2.3246453,-0.64242077,-1.1736118,-2.3430869999999997
3.2926307,13.647398999999998,-3.7289788999999995,-0.86439174,-1.4067702,-2.5576055
5.4003615,15.073903,-5.278104,-1.0331477,-1.6016013999999998,-2.8157919999999996
6.649521400000001,16.96898,-4.16029,-1.1869809999999998,-1.8044087,-3.1303875
1.7698705000000001,16.653779999999998,-0.99931103,-0.80265945,-0.839835,-3.5924635
-2.8831456,14.118089999999999,-1.863005,-0.10742501,-0.48104766,-3.3459879999999997
-2.9729283,11.348774,-1.5730575,0.0075398222999999995,-1.4674553999999997,-2.5592113
-3.8936806000000006,10.127512,1.8438418,-0.1489464,-2.0588603,-1.8661234
-9.937574,5.3163724000000006,-0.009270349,0.5329363,-1.4392334,-1.1357731000000002
-4.687425599999999,3.7293138999999997,-1.6520088,0.83582073,-1.9731646,0.6767863000000001
0.35224453,4.8317765999999995,1.6473832,0.84753186,-2.279243,1.8069043999999999
0.93235004,4.176704,4.417532,0.9007644,-0.9580112,2.1944373
0.2893728,3.4363883,4.286291599999999,1.26861,0.48190287,2.692153
-1.4886476,5.208231400000001,2.5036645,1.3995621,1.259639,3.244183
-2.7103702999999997,6.426593,1.9133790000000002,1.2238772,1.4219896,3.8973377
-3.8125459999999998,6.2317142,1.7925388,1.0588738000000002,1.2511044,4.4759839999999995
-3.7487550000000005,6.0090346,1.3813393999999999,0.9614495000000001,1.026463,5.041837
-2.710428,6.275844,1.579474,1.0322575999999999,0.9524785,5.419265
-2.1407037,7.401636,1.0667126,1.205272,1.1691437,5.7791166
-1.9796122,9.444647,0.19205329,1.3378123,1.4549937,6.0766954
-2.4862156000000004,11.9241295,-1.3199329,1.4171201,1.7477726999999998,6.174626
-2.7644507999999997,15.817954,-3.9465062999999994,1.2249594,1.9867955000000002,5.8951635
-2.8089635,18.086279,-4.4347129999999995,0.7085861999999999,1.9548385,5.121145200000001
-4.8311353,16.600533,-2.8012257000000003,0.6851814,2.1033661,3.9724042
-10.189646,13.928815,-3.834745,0.89385295,2.0075476,2.3504174
-10.88677,11.799038000000001,-4.8994274,0.4057018,0.8321729999999999,0.23441517
-8.099105999999999,10.067839,-5.135879,0.038397245,-0.30112165,-1.806503
-7.6022606,12.567872999999999,-4.394644,-0.22455406,0.016109388,-3.4641645
0.84467435,14.922158999999999,-5.5668926,-0.96501,-2.434682,-1.4067178999999999
20.337172,18.23629,8.755863,-0.7680496,-2.8679947999999995,-2.3766322
0.7631757,14.197664000000001,3.6077747000000002,-0.46675340000000004,1.7360616000000002,-4.002354
-5.754971,6.752625500000001,-3.6675050000000002,0.5164255,3.4959295,-3.7319329
-5.7892660000000005,5.3313413,-0.50619173,0.35993925,2.8150939999999998,-3.0457566000000003
-9.915088,7.5980854,-2.2955222,0.39346704,1.9638968999999997,-2.4277356
-11.864256,10.124417999999999,-3.9226502999999995,0.15817920000000002,-0.5688901,-1.5094655000000001
-6.8300633,10.769991000000001,-0.9515898000000002,0.11931071,-2.7588767999999995,-0.88983864
-0.47983634,10.179523,-0.3347094,0.12198106,-2.7700644,-0.7211002
2.8764706,9.861191,-1.3246926,0.19278906,-1.0820518,-0.77592105
1.6208266000000002,9.575150500000001,-1.9875131000000001,0.17840755,0.69483304,-0.9558469999999999
-2.5691892999999997,9.406827999999999,-2.0100856,0.15817920000000002,1.177661,-0.89357364
-4.735568499999999,9.328144,-2.0030754,0.19544198,0.17369516,-0.6444279
-2.7558985000000003,9.434036,-1.5576389,0.22418754,-0.73178166,-0.47090727
-0.46808556,9.652721000000001,-1.9807805,0.19650662,-0.8542165,-0.48368308
-0.57733774,9.606514,-1.9199293999999998,0.1752136,-0.57314867,-0.54543287
-1.0806565000000001,9.621895,-1.4351419,0.18053685,-0.30750957,-0.6082298
-1.9116552,9.822414,-1.282842,0.18798941,-0.32243213,-0.5928011
-1.6452668000000001,10.172819,-1.5383129,0.18160151,-0.40119883,-0.59386575
-1.4469694,10.644927000000001,-1.8633401000000003,0.19757128,-0.42036256,-0.60664153
-0.64760286,10.969533,-2.0062740000000003,0.15817920000000002,-0.6157347,-0.7226885000000001
1.1195287,10.342798,-2.5714493,0.05597271,-0.9058608,-0.9601056
2.3998232,10.617988,-3.9285977,-0.10744247,-0.7658505,-1.3029232
1.6907371999999998,11.730095,-3.3353337999999995,-0.27885124,-0.5311037,-1.6633162000000001
0.7183371000000001,11.941463,-2.6681175,-0.45505969999999996,-0.56623715,-1.9401255000000002
0.49913362,12.26063,-2.5674076,-0.59557617,-0.726982,-2.1296332000000002
1.1853405000000001,12.271203,-2.64475,-0.71694636,-0.960158,-2.3324406000000004
2.9771707000000003,12.665509,-3.331637,-0.89900166,-1.246549,-2.5842392000000003
4.8936234,14.5359745,-4.15688,-1.102891,-1.4797076,-2.841361
6.35311,16.196535,-4.764289,-1.2801466000000001,-1.6596161,-3.0936658
3.4807956,16.394901,-0.49297570000000007,-1.1896514,-0.5231100999999999,-3.5488129
-1.8927697,14.706173000000001,-1.3648481000000001,-0.61208695,0.26843163,-3.5179379999999996
-3.735558,13.1205225,-2.6107428,-0.3475125,-0.37405896,-2.8237855
-2.2670790000000003,11.108338999999999,-0.8182424,-0.5375614000000001,-1.1352843000000001,-1.9789765
-5.504241,8.250046000000001,1.8363624,-0.36721727,-0.5901831,-1.5786678
-8.700577000000001,4.025563,-2.7437935,0.17680185,-0.09086184,-0.24572489999999997
-3.6916292,3.3933787000000004,-1.3878517,0.35938075,-0.8542165,1.4215008
-1.2828131999999999,3.6067116,0.69369596,0.28113765,-0.9974033000000001,2.2301118
-0.8022395,2.9657457000000003,2.70721,0.29391345,-0.44219659999999994,2.671401
-1.7939179,3.271016,2.6092587000000003,0.7085861999999999,0.37596136,3.0562633999999997
