accx,accy,accz,gyrx,gyry,gyrz
-5.6399446,2.4646008,-0.61813504,-0.9854652,0.92230177,3.4278092000000004
-4.973657,3.2872677,-0.35995385,-1.1084237,1.3582851,4.1469892999999995
-3.9185803,2.4627619,-0.9715191999999999,-1.2532163,1.5243706,4.800685400000001
-3.6507937999999993,2.2224896,-1.3374584999999999,-1.2734444999999999,1.5318232,5.476738500000001
-3.7610705,2.7917159,-0.80454755,-1.149945,1.4583621999999998,6.1368217000000005
-3.0016298,4.4945583,-0.5545066999999999,-0.9109396999999999,1.4998837,6.626037599999999
-3.2693303,7.257706599999999,-0.48850334,-0.69268626,1.7793458,6.929987
-2.3526957000000004,9.998664999999999,-1.7926633,-0.6831044,2.0817064999999997,6.656913
-1.5406784,13.063396000000001,-4.2705564,-0.909334,2.1753957,6.045803
-4.580931700000001,15.616938000000001,-6.2744465,-0.8023279000000001,1.8852871999999998,4.934849
-6.910489599999999,16.548885000000002,-4.493074,-0.48879692,1.8831578000000002,3.5172572
-9.058366,14.113942999999999,-3.3944705,0.065327674,2.074795,1.7462019
-4.595048,12.029303,-4.157838,0.49118802,2.6225492999999998,-0.543321
-4.665734,9.725717,-5.1906385,0.97295123,2.56347,-2.4341235
-9.111163000000001,8.625150999999999,-5.176216,1.0884571,1.3476385,-3.3779452000000005
-12.15858,10.872606,-6.043099,-0.51328385,-2.3328419,-0.9819396999999999
-3.6153882000000004,15.815388,-4.211803400000001,-0.28438395,-1.6748878,-1.0745643
17.272068,16.880291,14.023864000000001,2.2425387000000003,1.9960109000000001,-3.1320107000000004
5.154026999999999,11.877203999999999,0.47477020000000003,1.437139,2.9062874,-2.8328438
-4.0215216,10.104125,-8.751659,1.6388816000000002,2.4112245999999997,-2.5805216
-10.254385000000001,6.674383,-3.275852,1.4328803999999997,0.8153130999999999,-1.594114
-13.123414000000002,8.816715,-7.3366194,0.77812016,-1.125528,-0.868022
-8.134607,10.336621000000001,-8.311845,0.34215435,-2.4723113,-0.5917539
-4.812805,10.626052,-5.5678215,0.18510962,-2.8348162,-0.34581953
-1.1705157,10.818574,-1.8073541000000002,0.30541515,-1.8739773999999998,-0.44589671
2.8587055,10.445528,-0.6094297,0.39803979999999994,-0.24240878,-0.6407278000000001
4.820983999999999,9.274113,-1.6913311000000002,0.3629063,0.88505644,-0.7684859
2.5463772000000002,8.79375,-3.5891094,0.16594589999999998,0.52944565,-0.7604923000000001
-1.3685545000000001,9.435674,-4.617237,0.101525806,-0.86734134,-0.5427799
-3.3908792,8.812961,-3.5162299,0.19415042,-1.5604291000000001,-0.5225516
0.28083986,9.519375,-2.0687435,0.22237240000000003,-1.2788377,-0.77593845
4.116533,9.930335000000001,-1.6807679,0.26176447,-0.62887704,-1.1629478000000002
4.448992,9.32555,-1.5207107,0.35438909999999996,-0.28232446,-1.4732847
2.3029919999999997,9.129483,-1.7031585,0.46404815,-0.39091885,-1.5978489
0.14313495,9.683607,-2.1514487,0.45020768,-0.6192776999999999,-1.7138958999999998
-0.50689083,10.466175999999999,-2.0215970000000003,0.49598765,-0.5772326999999999,-1.9539659
1.2759658,9.744113,-1.1961335,0.49172905,-0.12849113,-2.2408981
2.4470656,10.439782000000001,-3.4900373999999994,0.48907617,-0.0821701,-2.5027847000000003
-0.9554396999999999,12.473102,-3.3732963,0.50715774,-0.72628385,-2.557623
-3.155376,14.149703,-1.0704093000000001,0.54124403,-1.1611850000000001,-2.603944
-1.0962379,14.042337,-0.98019576,0.5806187,-1.280967,-2.6571765
0.016242264,14.100795000000002,-1.4099549,0.69985956,-1.8058398,-2.567746
-0.041122805,15.062679000000001,-1.9600946,0.6487563000000001,-3.246836,-2.2552621
0.55304146,16.67708,-2.7539544,0.5912651999999999,-4.847006299999999,-2.00294
4.486217,15.612195999999999,-3.5818502999999997,0.5561491999999999,-3.9361887,-2.2483332000000003
5.0434337,13.876389999999999,-6.005376,0.096202545,-2.8641028,-2.0465906000000005
3.0221433999999996,18.21658,-5.6817374,0.26282912,-1.3139712,-2.2126759999999996
4.8297467,13.578570999999998,-0.78888947,0.6791076,1.0208082,-2.212135
-3.5378065000000003,9.033266000000001,-3.4280565000000003,0.4629835,1.8884985,-0.910067
-7.032144000000001,4.6724763,-9.046213999999999,-0.43928190000000006,1.1565424,0.96050704
-5.027115,3.8754462999999997,-3.1817217,-0.5585228,1.0197260000000001,2.1050067
-4.608110400000001,2.5778944,-0.20533632,-0.70917964,1.1357731000000002,2.7001464
-4.6081389999999995,3.4736898000000003,-0.7368682,-0.9742777,1.6947147,3.4618955000000002
-3.6707803999999995,3.4115171,-0.79953885,-1.04348,2.0833123,4.079393
-2.9446478,2.6110685,-1.1116469999999998,-1.1456865,2.1972299,4.707013
-3.3013453,2.992819,-1.499431,-1.2265999,2.2286458,5.370814299999999
-2.8090403,4.393657,-1.4944415,-1.1403632,2.3217939999999997,5.9260387
-2.8192396,6.395678500000001,-1.4860715,-0.99715894,2.4639337,6.430683
-3.5953822,9.520849,-2.6821764,-1.0221870000000002,2.3303113,6.631884599999999
-2.8734922000000003,12.020789,-4.5453152999999995,-1.1174645,1.8043737000000002,6.3338
-4.559986599999999,13.63539,-8.027548,-0.9897064,1.1219325,5.7312074
-7.8037667,14.936620000000001,-6.285631700000001,-0.4738918,0.5071054,4.600007
-7.697119,14.114575,-4.0747013,-0.093811445,0.4842067,3.0040956000000003
-7.4149575,13.268464999999999,-5.1905527000000005,0.32244956,1.1011806,0.79653335
-3.1793084,10.876781,-3.224166,0.81485933,2.0055928,-1.55631
-5.781451000000001,8.830975,-3.4974879999999997,1.0826102,2.023692,-3.5115502
-9.47717,10.9542,-3.2469876,-0.5462880999999999,-0.7236135,-2.6699347
-6.764032,17.291853,-6.5393023,-0.9205040999999999,-0.9509076999999999,-0.95904094
15.708041,16.88186,14.88909,3.0798952999999996,3.929417,-3.7569608999999997
6.031818,8.501828999999999,3.3710456,2.141938,3.4780050000000005,-3.3380120000000004
-5.9668007,8.100533,-16.62047,1.1821638,2.6225667,-2.7881112
-14.447254999999998,8.088417999999999,-6.929883,1.2359200000000001,-0.5218709,-1.4301576999999999
-17.128809,8.133937,-5.322904,0.7115882,-3.1680517000000004,-0.65455085
-8.803758,9.663238,-8.50431,0.36557665,-3.5928476000000003,-0.6183526999999999
-1.3606344,12.072771000000001,-3.5172546000000002,0.36344737,-2.2449996,-0.5017822000000001
4.004848,10.751757000000001,-2.2549164,0.30647979999999997,0.09189159,-0.8743924999999999
5.686823,8.754303,-1.5775586000000001,0.40709805,1.3726666,-1.0128145
1.5146965000000001,9.01641,-2.4548326,0.21279055,0.88240355,-0.90422016
-3.3554928,9.891386,-6.3570366,0.08716174,-0.7779107,-0.52626914
-6.162158,8.736939999999999,-4.383314,0.16116370000000002,-1.6615708999999999,-0.31066862
-2.3206325,8.869014,-2.5159228,0.19842649,-1.3938025,-0.4213923
1.9462752,10.262478,-2.0173256,0.18137461,-0.8130441999999999,-0.73600537
3.1858299999999997,9.737783,-2.3210156000000004,0.26124087,-0.6570640999999999,-0.94626516
2.0840185,8.741709,-2.3496982999999996,0.31660274,-0.7172255999999999,-1.1528075
0.34996524,9.222742,-2.4712853,0.39484584,-0.95890135,-1.3167636
0.24903528,10.02616,-2.1108238999999998,0.49598765,-1.0286273000000001,-1.520653
1.3076172,9.854466,-1.4708347,0.46671850000000004,-0.5346466999999999,-1.8916751
3.3037492999999993,10.44956,-1.1473205,0.45074874,0.030682888,-2.2983717999999995
2.0548284,11.939874,-2.7556397999999995,0.47788859999999994,-0.19980529,-2.544306
-1.3300462,13.212689000000001,-2.612486,0.5779658000000001,-1.0158514,-2.56347
-2.2166095,13.780432000000001,-2.0113018,0.6679375,-1.591304,-2.621502
-0.30144915,13.804488000000001,-1.1948024,0.7978249,-1.9250633000000001,-2.6672819
0.5284194999999999,14.174239000000002,-0.70081156,0.9846799,-3.0466816000000003,-2.4649807999999997
1.3858981000000001,16.442593,-2.4932835,0.7839844,-4.610654,-2.1439974
3.196652,18.317444000000002,-2.5277696,0.6839073,-4.600007,-2.1610317
5.162866,13.406888,-6.1741962,0.4539427,-3.4784062000000007,-2.2100058
3.5205202000000004,16.701464,-4.9788284,0.22556636,-2.2753334,-1.9321319
2.9759831,18.157875,-3.4296365,0.5966059,-0.55592227,-2.2797315
-0.5258337,12.946847,-3.5760467000000005,0.76960295,1.3348801000000001,-1.5398167
-7.425051700000001,5.9064955999999995,-6.5297730000000005,-0.07410668,1.2571607,0.18596484
-5.289395,3.5169961000000005,-6.351415,-0.50848424,1.1065038,1.7781589
-4.707987,2.2733328,-0.91213334,-0.7091622,1.1277968999999999,2.6564958
-5.26869,2.6267936,0.25164017,-0.9072046999999999,1.4376103,3.2968745000000004
-5.1060567,3.7615302,-0.13187264,-1.0589087,1.7644581000000001,4.0203137
-3.7393217000000005,2.8875127,-0.5699541,-1.0871133,1.8751818,4.6229057000000005
-3.3290896,2.2589486,-1.0414586,-1.0525208000000001,1.9017979999999999,5.2686253
-3.1839150000000003,3.0156312,-0.75950783,-0.99342394,2.054584,5.849384
-2.5656647999999995,4.7510734,-0.76377904,-0.80819213,2.2951952999999996,6.348705000000001
-3.1642632,7.858976400000001,-0.5922106,-0.7794466,2.282943,6.7373023000000005
-3.4792727999999995,10.87884,-2.448531,-0.85236645,1.9646298999999998,6.5951805
-3.7005165,13.248879,-4.207991000000001,-0.9966354,1.5430107,6.111811599999999
-5.5703115,15.295788,-6.578624700000001,-0.8891056,1.0857518999999998,5.103587
-5.703611,16.024717000000003,-4.9258017999999995,-0.40627775,1.1294024999999999,3.5720956
-6.3065763,14.090395000000001,-3.8172580000000003,0.036599554,1.6468227999999998,1.976725
-4.9164553,11.9399605,-4.1909160000000005,0.55349624,2.0481963,-0.30321604
-5.2512407,10.202727000000001,-3.8776681000000006,0.92186546,2.0737479,-2.3228588
-9.347807000000001,9.061747,-4.465262999999999,1.1081793,1.2225507,-3.6179976000000003
-11.393576,11.016134,-5.646533,-0.5111371,-2.0799787,-1.4301403
-3.963802,15.580076000000002,-3.89166,-0.39191368,-1.3847617,-0.9872455
16.653446,15.774025,14.697506,2.3612732999999997,2.0939763,-3.1942668
4.559661,11.072589,-0.87125,1.4834601,3.3960443,-2.9052227000000004
-4.038645,9.425081,-10.999049000000001,1.4557791000000002,3.019158,-2.6981568
-9.523531,7.089068400000001,-4.37662,1.3109866000000001,0.69341934,-1.8219317
-13.657351,9.672009,-6.079491,0.7467216999999999,-1.8787596000000002,-0.7695331
-11.521761,9.207066000000001,-8.222961999999999,0.38528144,-3.3362667999999998,-0.45120249999999995
-5.0093879999999995,10.9692545,-4.293273,0.39751620000000004,-2.92957,-0.239337
1.3394409999999999,11.038152,-2.4623888,0.2889218,-0.9535780999999999,-0.5890661
6.9182086,10.029387,-2.9737517999999996,0.27295205,0.97129315,-0.8286125
3.756215,8.553295,-2.7738838,0.11910127,1.2305443,-0.80147266
-1.4031363000000001,9.338297,-5.446148,-0.04003785,-0.23226842,-0.49272390000000005
-6.171745,9.744553999999999,-4.5587225,0.086638145,-1.6142026000000003,-0.21539108
-3.2481177000000003,9.059697,-1.3753157,0.1483879,-1.6652884,-0.2957635
2.2418635,10.117283,-2.0921203999999998,0.13828243,-0.9120566999999999,-0.6603977
5.1141586,9.607089,-2.2433574,0.2234545,-0.41273546,-1.0133382
4.0460286,8.734211,-1.8619706999999999,0.31979668,-0.36482617,-1.2672662000000001
1.8874642,8.956536,-2.0820935,0.40018654,-0.60596085,-1.4657973
0.8360552,9.889595,-1.7440131999999997,0.44277257,-0.7257428000000001,-1.668622
1.3163321000000001,10.028248,-1.5288414,0.48642325,-0.43987533,-2.0215626
3.2161217,9.890658,-1.6804901,0.48003536,-0.010279989,-2.363298
2.4727125,10.922224,-2.8797266,0.46565384,-0.24984388,-2.59328
-1.4041513,12.371682,-2.7683772999999996,0.5210157,-0.977524,-2.6390599999999997
-2.744023,13.866698999999999,-1.9183397,0.57531285,-1.4358475,-2.6954865000000003
-1.2703921999999999,13.884713,-1.0219698,0.67326075,-1.6950986000000001,-2.7007923
-0.43562022,14.328004,-1.0300813,0.8718269000000001,-2.5010392999999995,-2.5304482000000004
-0.20465636,15.732414000000002,-1.4760063,0.72277576,-3.8355879999999996,-2.2275636000000003
1.7881238000000002,16.652582000000002,-1.7122468000000002,0.78346086,-4.6707980000000004,-2.031668
5.1827765,13.874945,-4.5072,0.6594203000000001,-3.6412804,-2.1365447
4.6183004,14.454697,-6.121045,0.346954,-2.852374,-1.8064855
1.1579413,18.785845000000002,-5.1061234,0.33417818,-1.6455836,-1.9252028
4.090225,13.477162,-1.8563778000000002,0.6402566,0.5108404000000001,-1.9496898999999999
-3.5552553999999996,8.215196,-3.793986,0.61950463,1.8469772,-0.8302181999999999
-8.241111,4.178600299999999,-7.82745,-0.24551547,1.1091741000000002,1.0116103
-6.30446,3.1492085,-3.0532775,-0.42437682,0.8781450000000001,2.3062258
-4.7618084000000005,1.9913245,-0.049205635,-0.5478763000000001,0.8477937,3.0706450000000003
-4.2595816,3.036518,0.45059833,-0.6777637,1.3599082,3.7546918
-3.192639,3.6156945,0.21938549,-0.6841516,1.7815098999999999,4.373254
-2.611126,2.7671514,-0.6500161999999999,-0.7458839,1.7634108,5.0168443
-3.185428,3.0038614,-1.3747698,-0.8177566,1.5994546,5.696615
-3.2358689999999997,5.1867027000000006,-1.3031065,-0.8603426,1.4983128000000001,6.2188349999999994
-3.2912133000000003,7.559242,-1.4411178999999998,-0.79859287,1.503095,6.6638589999999995
-3.3978605,9.858967999999999,-1.6923558999999997,-0.76930624,1.6255298999999999,6.6926045
-1.8447131999999997,11.872712,-2.6890237,-0.6713758000000001,1.8288782,6.273656
-3.1030290000000003,13.611257,-5.1328716,-0.5446649,1.8416540000000001,5.4538746
-5.156804,15.934083,-5.849686,-0.19493583,1.7469001,3.9894388
-5.454279,15.045442000000001,-3.8201593999999996,0.033405602,1.7862921000000003,2.3339067000000004
-9.55906,13.060322,-5.7208877000000005,0.32459635,1.4535973999999998,0.34887385
-6.431161,10.977203999999999,-4.0129212999999995,0.7557799,1.5903964,-1.5935728999999998
-8.942228,8.912991,-4.3131733,1.0575997,1.1751826,-3.0313752
-10.951672,9.7552805,-5.0554147,-0.3179117,-1.0275626,-2.385132
-6.096825,14.727444,-4.0953875,-1.1350225,-1.382615,-0.02586578
11.047948,15.412367000000001,7.230881699999999,1.5718435,2.4996083,-2.8764596
15.049529999999999,14.423743,12.142433,2.164313,4.1029725,-3.186273
-1.4609323,10.054095,-10.975289,1.4728135,3.27148,-2.78757
-8.679594,8.592091,-6.4548062999999996,1.4738957000000001,1.0532887,-2.1615553
-14.600646,7.58622,-7.537483,0.92186546,-1.6572949000000001,-0.9175021000000001
-10.592177000000001,8.565074000000001,-9.729931,0.30756193,-3.4533608,-0.6518805
-4.8853498,10.5612545,-7.3321179999999995,0.0312763,-3.4762595000000003,-0.43149775
-0.6212474,11.840783,-1.8280879,0.23090705,-2.0874137999999998,-0.51773447
5.151058,10.295,0.21014388,0.36025342,0.35433674,-0.9047438
6.026378,8.773073,-0.7929979,0.38048178,1.70112,-1.0537775
1.8206468,8.645405,-4.0629315,0.11592477,1.1059803,-0.91697854
-3.38,9.521136,-5.876482,-0.0011693706,-0.7262664000000001,-0.58161354
-6.451722,8.864331,-4.26619,0.12604767,-1.9234575,-0.35377824
-1.9610714,9.317841,-1.7350683,0.13348278,-1.598739,-0.5049585999999999
3.0726802,10.699324,-1.7964461999999999,0.14840534,-0.63683575,-0.89514446
4.7609944,9.600672,-1.859835,0.21226694,-0.19394098,-1.1772770000000001
2.779199,8.693489999999999,-2.003602,0.2926568,-0.4036772,-1.3582675
0.32569763,9.303169,-1.994619,0.42308527,-0.75447094,-1.5504458
1.16883,9.742447,-1.5110284999999999,0.43744934,-0.48459068,-1.8714293000000002
3.0954347,9.72158,-1.4407636000000001,0.42573816,0.11746066,-2.250445
2.8822837000000003,10.016019,-3.2407722000000003,0.43212608,0.13343042,-2.472957
-0.8108778,11.081505,-3.861589,0.484835,-0.56763345,-2.501179
-3.5432653,12.669808,-3.0967371,0.5279446,-1.220788,-2.5304482000000004
-2.506806,13.991773,-1.1957792999999999,0.5433908000000001,-1.3815503,-2.616685
-0.9393698,13.971201,-0.98136413,0.67699575,-1.6349372,-2.632131
-0.9050178,14.105181,-0.8725046000000001,0.88725555,-2.7783723,-2.4293063
0.13562673,16.512234,-1.0275531,0.72064644,-4.2566485,-2.1902835
3.5335162,18.648514000000002,-2.7747072999999998,0.5412615,-4.7479762999999995,-2.1674022999999996
5.8642715999999995,13.885143,-5.4496720000000005,0.44703117,-3.306439,-2.237128
4.119071,13.746557000000001,-5.3990207,0.21600194,-2.1379759999999997,-1.9006984
2.0834823,17.302216,-3.877218,0.5370029000000001,-0.36267942,-2.171661
0.5419132,11.917541,-2.3162751,0.7371573,1.6564047,-1.7458005
-7.3166323,6.486467,-5.5438123,0.015306537,1.7639345000000002,-0.12594296
-6.967989,3.7668166,-7.916495299999999,-0.5201779000000001,1.1214263,1.5168133
-5.2573605,2.6025164000000003,-1.5348939,-0.55691713,0.9595995,2.5175676
-4.815736,2.156515,0.37373490000000004,-0.64954174,1.0782993,3.0930202
-4.536198000000001,3.9647021000000002,-0.30852640000000003,-0.7842288000000001,1.4615736000000001,3.776526
-3.2970457000000004,3.8916410000000003,-0.78033733,-0.8129569000000001,1.6250062,4.358349
-2.8732815,3.085714,-1.4548031000000001,-0.8209504999999999,1.5542156999999999,5.0136504
-3.0937683999999996,3.7248127,-0.9914293,-0.7905992,1.570168,5.6061195999999995
-2.5724259999999997,5.343619,-1.2947746999999998,-0.61440825,1.8198372999999999,6.0697837
-2.5519316,7.194661999999999,-1.011081,-0.54785883,1.9779468,6.5158724999999995
-2.5267925,10.300239999999999,-2.6822624,-0.6585825,1.9369488999999998,6.5169373
-1.9316514999999999,12.463899000000001,-4.250436,-0.8007221,1.8150551,6.2097940000000005
-3.732589,13.405078,-6.30242,-0.6676408,1.4306988,5.5097775
-5.2402945,15.000172000000001,-5.394902,-0.46322784,0.8467465000000001,4.091139
-7.8466516,15.862888,-5.2569776,-0.2540152,0.71792376,2.5069209999999997
-8.195362,13.348354,-4.5264106,0.37198200000000003,1.0724524,0.5500929
-3.8196616000000003,10.020175,-2.7158580000000003,0.85266316,2.1328447,-1.6254950000000001
-6.4893975,8.957877,-3.4763138,1.0320655,2.1206099999999997,-3.2762272
-9.921266000000001,10.674194,-4.9104023,-0.15873769,0.09669124,-2.9648256
-6.646457000000001,14.657034,-5.953853,-1.1802615,-0.8529424000000001,-0.31490976
10.955810000000001,15.927944,7.583576700000001,2.033902,3.0633494999999997,-3.219801
9.386841,11.955695,10.567594999999999,2.1297203999999996,3.577035,-3.135711
-3.4488760999999997,9.510429,-13.869304000000001,1.2125151,3.0654787999999997,-2.6890812000000004
-10.18999,8.843894,-6.189107,1.3243035,0.649245,-1.8458776000000001
-15.971039999999999,7.7428675,-5.8196435,0.90802497,-1.6860403999999998,-0.74183476
-10.018939,9.051624,-8.858249,0.44490188,-3.1004202000000003,-0.49429470000000003
-3.5849721,10.403247,-6.669547000000001,0.14786429999999998,-3.132901,-0.34471998
-0.40011898,11.460094999999999,-2.4857367999999997,0.3070383,-1.9053584,-0.44479716
4.029202,10.275195,-0.17115669,0.43799037,-0.018256145,-0.76417494
5.728683,8.794286,-1.7945787,0.3549476,1.1262261,-0.9089849
2.4023325,8.771838,-4.5750704,0.1510757,0.63648665,-0.8317889999999999
-2.4033284,9.390327000000001,-5.069234,0.077597335,-0.9274853999999999,-0.5565855
-4.7050467000000005,8.922423,-3.7867556,0.18886207,-1.7057452000000002,-0.46183157
-0.40307823,9.370599,-2.174912,0.19151498,-1.3304471000000002,-0.676891
3.3964529999999997,10.099413,-1.9128523000000002,0.20003219,-0.659717,-1.0346137
3.8039172,9.396523,-2.37727,0.28946286,-0.42975240000000003,-1.2651019
1.7913609000000001,9.027318,-2.1053078,0.37569958,-0.56335735,-1.4232113000000002
-0.09931148599999999,9.619299,-1.9918320999999999,0.46087164,-0.8588066999999999,-1.5179652
-0.3094841,9.988045,-1.7950383,0.5034751000000001,-0.7299665,-1.7660113999999998
1.7667197000000001,9.633933,-1.3881677,0.48003536,-0.12206833,-2.0981998
2.6041925,10.234082,-3.6910067000000004,0.47738245,0.028029988,-2.3004835
-0.93288636,11.633982000000001,-4.29582,0.48377037,-0.6991090999999999,-2.3206944
-4.1413655,13.172514999999999,-2.3413856,0.54072046,-1.3410935,-2.3164532
-2.1267214,13.688331,-1.481331,0.551908,-1.4071018999999998,-2.4074897999999996
-0.68023103,13.820117000000002,-1.2716275,0.6498559,-1.7174388999999999,-2.4165306
-0.89967394,13.908866,-0.8884978000000001,0.76323247,-2.7788958999999998,-2.2536389999999997
-0.09147766,15.168178,-1.7711729999999999,0.6621081,-4.5302463,-1.9501959999999998
2.5773007999999997,16.846626,-2.154791,0.6599788000000001,-4.943872,-1.9826766
5.523078400000001,14.335329999999999,-5.1581163,0.45341909999999996,-3.4107747,-2.2775847999999996
5.167942,16.140864999999998,-6.7018495,0.014800391999999999,-2.0112824000000002,-2.1460917
4.9265870000000005,18.077973999999998,-5.02994,0.392734,-0.22746876,-2.4798683999999995
1.579905,11.215236,-1.2138411,0.83349943,1.9065976000000002,-2.0327327
-6.9964889999999995,6.389521,-4.222663,0.11965977400000001,1.9422722,-0.3553665
-6.7132936,4.1178930000000005,-8.341063499999999,-0.4882384,1.1304847,1.4571929
-5.6690005999999995,3.2207567999999998,-1.3429652,-0.56702256,0.79990184,2.4297426
-5.5852227,2.5905838,-0.06871359,-0.7533365,0.71898836,3.0174298
-4.769757299999999,4.1487107000000005,-0.8939183,-0.91036373,1.0107027,3.7456686
-2.9055746,3.6095848,-0.87116385,-0.8805535,1.1704178,4.316845
-2.5522957,2.841113,-1.0985938,-0.8273384,1.1565598,4.9242196
-3.0480964,3.6615483999999996,-0.95262414,-0.74907786,1.2433376,5.542782
-2.6575159999999998,5.3150415,-0.9555642,-0.6058736,1.4791491,6.0474440000000005
-2.4673397999999995,6.8726997,-0.8866591,-0.54625314,1.7197776000000002,6.544094599999999
-2.5370302000000002,9.816687,-1.7099771000000001,-0.5531821,1.848583,6.574428599999999
-1.9822361000000002,12.558383000000001,-2.6907282,-0.6718994,2.0146685,6.3290176
-3.5924997000000003,14.115523000000001,-6.321803,-0.6516536,2.160002,5.6790743
-4.973743,15.616707,-5.8800344,-0.26146778,1.8773285,4.1049795
-5.3267446,15.744596,-4.583211,-0.05066691,2.0487373,2.4483829
-11.2779255,13.855552,-6.238198000000001,0.26764625,1.7043314999999999,0.6326295
-7.831098599999999,10.88135,-4.1711016,0.7233168000000001,1.8304839,-1.4077652
-9.55841,8.474622,-4.9975514,1.0576172,1.630347,-3.2251241000000004
-11.094337,10.366529,-4.809463,-0.56702256,-1.3485461,-2.1823072
-6.6767106,16.3537,-6.628903,-1.1440633999999998,-1.4118841,-0.15254177
16.023912,16.622970000000002,14.054461499999999,2.6529877,3.2651095000000003,-3.3938800000000002
8.218366,10.201723,4.4494133,1.8566463,3.4466412,-3.126635
-4.2906013,9.225539,-14.003504000000001,1.3834003000000001,2.8440316,-2.6188142000000005
-11.40137,7.9202012999999996,-5.9706697,1.3163273000000002,0.45336673,-1.5232885
-16.118704,8.419239,-6.444376999999999,0.802642,-1.9607203000000002,-0.6843435999999999
-7.993464,8.976044,-9.502884,0.3139673,-3.1483295,-0.46448448
-3.3403616,10.962283,-6.1864349999999995,0.17289232,-2.9226236,-0.3031986
0.11523772,11.365381,-0.7073908,0.3969926,-1.5337954,-0.47034878
4.473451,10.255707000000001,-0.6682792,0.45024258,0.2894105,-0.7231946
4.975266,8.817922,-2.7847726,0.29106855,1.0346661,-0.8264658000000001
1.7607726000000001,8.906134,-5.076253400000001,0.032882,0.075939275,-0.6710267
-3.6325881,9.144452000000001,-5.9201427,0.13510594,-1.3671688,-0.40751693
-2.8317083999999997,8.811563,-2.3921523,0.22453661,-1.5886161,-0.51878166
2.8304252999999995,9.627152,-2.3845005,0.20643754,-0.9908234,-0.9052498999999999
4.903986,9.618858,-2.2368836,0.33046064,-0.6256482,-1.3114055
4.070257700000001,9.017923,-1.1601535,0.45130724,-0.46647415,-1.5866263999999999
2.3704607,8.987173,-2.2278621,0.47844709999999996,-0.5612281,-1.7521883999999999
0.03718674,10.379458,-2.9832327000000003,0.49069932,-0.7789579000000001,-1.8666296000000002
-0.6755384,10.28776,-1.1429247999999999,0.5263564000000001,-0.5596398,-2.1114992999999997
1.7496251,10.116747,-2.1988060000000003,0.5098630000000001,-0.06777114,-2.4106662
1.2056625,11.407528,-3.3690154999999997,0.49602258,-0.17688912,-2.5863335
-2.0935857,13.329795,-2.5205486,0.58013,-0.97698295,-2.5448122000000004
-2.6277034,13.999989499999998,-2.2739553,0.6727546,-1.5343189,-2.5267131000000003
-0.8439561,13.761335,-1.8129085999999999,0.7552563,-1.8925827000000002,-2.5352304
0.16386874,13.254464000000002,-1.4190625,0.82074106,-2.6671072999999996,-2.3584982999999995
0.44483310000000004,14.706679999999999,-2.8541279999999998,0.72811645,-4.33648,-1.992782
1.4928135,15.461554000000001,-2.2833693,0.78028435,-4.8805165,-2.0465555
4.287067400000001,13.517222,-4.6202825999999995,0.5955587,-3.7397343999999997,-2.3206944
3.8254364,16.721325,-5.80772,0.27616346,-2.601099,-2.2009298999999998
4.1670313,19.319886999999998,-3.2334461,0.52050954,-1.1169758,-2.3755326
0.20213766,12.68427,-2.6395402000000003,0.9378527,0.52043974,-1.5946026000000002
-6.006487,6.0088334,-3.3303057999999996,0.5114512999999999,0.7860788000000001,0.11786208
-5.277021400000001,4.277155400000001,-5.367915,-0.0059515727,0.65671504,1.8298206000000001
-4.8371305,3.3566325,-1.0233488000000002,-0.19120082,0.72591734,2.7108103999999997
-4.633719,3.228361,0.35449508,-0.37484437,1.2784711000000002,3.3416247
-4.42278,3.899829,-0.23945849,-0.5531821,1.7719281000000002,4.1257315000000006
-3.4988193999999995,2.836679,-0.9245065999999998,-0.6617765,1.9454662,4.8395886
-3.2717626,2.7296388,-1.2827941,-0.78101736,1.8640290000000002,5.453892
-3.3702412000000006,4.2403607,-0.5545066999999999,-0.7751705,1.8342188999999998,6.0234804
-3.206832,6.212609,-1.0271891,-0.6532593000000001,1.7352063999999998,6.521196
-3.5446732000000005,7.8491125,-0.6245706,-0.6080029,1.6106421999999998,6.911399
-3.0285504,11.081122,-2.0366611,-0.7666359,1.4466858999999999,6.7453136
-2.6185193,13.73611,-4.59612,-0.8762949000000001,1.5483688,6.290707599999999
-4.72489,14.387542999999999,-5.768599,-0.6452656999999999,1.6239591,5.149943
-4.679994000000001,15.577691,-3.9835207,-0.269985,1.9119384,3.417756
-7.460974,14.760848000000001,-3.5461097,0.06749188,2.34471,1.6679936999999998
-6.1787453,12.266117999999999,-4.615839,0.5652249,2.5235715,-0.6497337
-6.789525,9.305361999999999,-5.18812,0.9873502000000001,1.7671458999999998,-2.6933222000000003
-11.423081,8.307746,-5.3471910000000005,0.94424057,0.08180358,-3.265581
-13.379153,11.413255,-6.417246,-0.8342499,-3.2335017,-0.5400746999999999
-1.8541656000000002,15.715367,-1.6485037,0.048328165,-0.8295200999999999,-0.9803165
21.59731,15.911453,16.459417000000002,2.0323138,2.4916494,-3.175609
6.1835337,13.429403,-3.6345417,1.1502593,3.4508997999999997,-2.9014528
-6.718034299999999,9.871599,-7.1864743,1.5005118999999998,2.3995485,-2.2722616
-10.361741,6.932325,-2.0072316999999997,1.6586213,0.87018627,-1.4466162
-11.337817999999999,8.775151,-9.945705,0.54925513,-0.991347,-0.9355838
-5.457831400000001,9.747532000000001,-10.448153,0.2058965,-2.504216,-0.5113291
-4.6699386,9.993551,-5.3810353,0.065903634,-2.900807,-0.33033848
-2.4455240000000003,11.57881,-0.54243994,0.37091738,-2.1539457000000004,-0.41338122
2.9765291,10.526185,-0.25078785,0.46673596,-0.5409997,-0.58424896
6.2839084000000005,9.03701,-2.492814,0.26286402,0.90797263,-0.8413709
4.024126,8.358685000000001,-4.9067245,0.02438225,0.33199653,-0.79292053
-2.6748786,8.924147999999999,-5.8661675,0.11859512,-1.1883073999999998,-0.5246284999999999
-3.8299277000000003,9.136762,-2.1376772,0.21334904,-1.6035211999999999,-0.5629734000000001
1.4911088,9.695300999999999,-2.2921798,0.2058965,-1.2117298,-0.82859504
3.9207735,9.791002,-2.3582218,0.30012682,-0.78002256,-1.1506432
4.052857,8.993712,-2.0556521,0.378911,-0.48457322,-1.4125473
2.0716836,8.974292,-2.649845,0.43320817,-0.7081499,-1.5190125
-0.32165623,9.863536,-2.4900846000000003,0.4800528,-0.99401736,-1.6521112
-0.24167071,9.818219000000001,-2.038452,0.49815187,-0.81834996,-1.8868580000000001
2.177469,9.855138,-1.3714083000000001,0.44917792,-0.12206833,-2.2727852000000004
2.8229265,11.238067,-2.5402002,0.44437829999999995,-0.05391322,-2.5384243
-0.8873773000000001,12.566791,-2.8263552000000005,0.55457836,-0.81833255,-2.5708873
-3.0344973,13.486011499999998,-1.8875598999999998,0.5977054,-1.4938622,-2.6001564999999998
-1.2708423,14.119364000000001,-0.8732228000000001,0.6695607,-1.8526496,-2.6432835999999997
0.33797508,14.61007,-1.3804106000000003,0.7526034,-2.7991242,-2.529366
0.7103118,16.244736,-1.65628,0.6173928000000001,-4.597843,-2.2158349999999998
2.4944327,18.67101,-2.052683,0.50506335,-4.7106959999999996,-2.2440395
7.2600145000000005,15.211167999999999,-5.214035,0.19259708,-3.204756,-2.4431293
5.6555349999999995,16.715933,-6.2756620000000005,-0.16776104,-1.8143221,-2.1759020000000002
5.3325768,16.97762,-4.328094,0.36613518,-0.06881833,-2.4447349999999997
1.0493976999999999,11.473704,-1.2901874,0.5412615,1.7219069,-1.9576485000000001
-6.277654,7.16167,-5.1149054000000005,0.045675267,2.2371979,-0.38941786
-6.761398,3.5747347,-9.1628685,-0.6383367,1.3210572,1.2916484
-4.813035,2.738143,-2.5653584,-0.92101026,1.0916337,2.3600168
-5.1284089999999996,2.2655562999999996,-1.7236625,-1.2601103,1.2007517,3.0419343
-5.0496682999999996,3.5728671999999997,-1.7314578,-1.5369195,1.6553575,3.7749376000000003
-3.9743748,3.2558173999999998,-2.067786,-1.7136514999999999,1.8624234,4.402017
-3.2172419999999997,2.6348286,-2.341989,-1.7344035,1.8858631999999997,5.01845
-3.323286,3.0770087000000004,-1.9896773,-1.6157037,1.9710352,5.6215835
-3.3787837,4.4241779999999995,-2.4560008,-1.3772218,1.9380136000000001,6.2396044999999996
-3.7361519999999997,7.020594,-2.2997265,-1.0136349,2.1951356,6.6548357000000005
-2.961618,9.199911,-3.381877,-0.8219976999999999,2.2962773,6.561146300000001
-2.2336560000000003,11.371356,-6.195753599999999,-0.8864178,1.7958914000000001,6.0602193
-4.359851,13.948216,-7.597338000000001,-0.5925741999999999,1.0085908000000001,5.0748763
-7.469114299999999,15.829217000000002,-5.530031,-0.5388006,0.52363366,3.7653732000000004
-11.124927,15.241297,-5.3872222999999995,0.007871435,0.47944194,2.0315807
-6.304182,11.2899065,-3.5823674,0.60994023,1.1310257,-0.19299851
-4.3985887,9.400996000000001,-3.7734056000000002,0.9527578000000001,1.9103501,-2.4617693
-8.406234,11.20903,-2.6282685000000003,0.5540548000000001,0.77862626,-3.8862547999999997
-9.971026,14.82347,-6.9915667,-1.2893795,-2.0847435,-0.30157545
3.9303790000000003,18.745623000000002,1.7056006000000001,1.8263125,2.1999352,-3.3049555
16.718636,12.644162,19.926672,2.91278,3.5360546000000004,-3.5924287000000006
0.41651450000000007,6.187728,-12.655128,1.1843106,4.001307,-3.0824609
-10.367449,7.089144999999999,-15.993967000000001,0.9884323,1.316275,-1.8783233
-17.386932,8.508906,-3.054082,0.9836326999999999,-2.2098312,-0.71040136
-14.755704000000001,9.351465,-7.3517504,0.58597684,-3.9713046999999997,-0.44158575
-4.365702,10.767013,-4.9273915,0.54393184,-3.4277917999999996,-0.32447416
2.1572332000000003,11.937536999999999,-1.6668433,0.36613518,-1.2245055,-0.6135181
8.262955,9.827316999999999,-3.85183,0.38955748,0.97078705,-1.0138443000000001
5.473222,8.287022,-2.614162,0.20802579999999998,1.3077577,-1.0952813999999997
-0.62171674,9.503639,-6.1290507000000005,0.022252947000000002,-0.011344640500000001,-0.75939274
-6.315741,9.353888000000001,-4.535681200000001,0.12712978,-1.348005,-0.46181409999999995
-4.3242636,8.934644,-2.040875,0.20591395,-1.5146142,-0.42081633
0.75061095,9.944949000000001,-1.9769976999999999,0.15533431,-0.91469216,-0.6901729999999999
3.1811757000000003,9.80054,-3.178207,0.19685568,-0.567616,-0.89992666
2.0890942,8.821686,-2.5800110000000003,0.24902357,-0.6416005,-1.0803763000000002
0.24876714,9.205438000000001,-2.3102036,0.33206636,-0.9588664000000001,-1.227298
-0.25275108,9.658717,-1.7801465,0.43746677,-1.1159111000000002,-1.3614441000000002
0.68161005,9.98363,-1.44107,0.43533748,-0.86039495,-1.6675223999999997
2.9320923999999997,10.16784,-0.9065405000000001,0.41243875,-0.10981612,-2.130663
3.6566834000000004,10.978669,-2.4798183,0.3975511,0.17975146,-2.4750688
0.13370179999999998,12.689489,-2.7089722000000003,0.47472957,-0.5388704000000001,-2.5953743
-2.41483,13.518189000000001,-1.9642893,0.53754395,-1.2394106000000003,-2.6651177
-0.8909495000000001,14.096131,-1.3576273,0.6195221,-1.5657174999999999,-2.7651775
0.91737187,14.593694000000001,-1.1485752,0.82232934,-2.1257238,-2.7529428
0.9318233,15.399917000000002,-1.1023096000000001,0.7547326999999999,-3.8344883999999997,-2.3776445
1.3100401000000002,18.816489999999998,-2.231032,0.6748839,-5.180207299999999,-2.1780312000000004
5.4159718,16.846339999999998,-4.258758,0.43640209999999996,-3.8765507000000006,-2.4058666
6.5606394,14.944243,-7.1233059999999995,0.034487706,-2.3375892999999994,-2.3292117
4.8912873,19.31414,-5.6197085,0.38423422,-0.60700804,-2.6896047999999997
3.008075,13.248660000000001,-0.81214195,0.6621081,1.2710186,-2.1338396
-6.7317386,7.854715,-3.8872737999999996,0.20430824,1.6244826,-0.4516912
-7.461730499999999,4.139163,-7.745653999999999,-0.3498338,0.9409768000000001,1.3379518999999997
-5.897656400000001,2.770963,-2.2759283,-0.50525534,0.80576617,2.4947037999999995
-5.312542,1.7733276999999998,-0.5346348000000001,-0.7054097,0.9947504,3.1755567000000005
-4.7096434,2.8536777,-0.45886314,-0.90237015,1.5696618999999998,3.894737
-4.2302384,3.1227574000000002,-1.045318,-1.0264107,1.8305012999999999,4.576096
-3.5092196,2.5395203,-1.5580889999999998,-1.0567445,1.8097318,5.223404
-3.4623892,2.4629342999999997,-1.360213,-0.98169535,1.8113376,5.8611298
-3.0534882999999997,3.760046,-1.284585,-0.8251917,1.8374128,6.3876085
-3.4512513,6.1560764,-1.5637968,-0.6628236999999999,1.6990081999999997,6.876283
-4.2628379999999995,9.225166,-2.1340668,-0.58670986,1.549957,6.8560550000000005
-3.1474652,11.664589,-3.5628402,-0.65111256,1.4238046,6.442429
-4.308452,14.985107000000001,-6.241406400000001,-0.6984982,1.3061521,5.629036
-5.4604273,16.232917999999998,-4.629974,-0.36632717,1.3886711999999999,3.9793682
-4.854675,16.291605,-2.3905241000000004,0.06323328,2.5502052,2.0651085
-5.8881273,13.593760000000001,-3.2026757999999997,0.5817357,3.1032827000000003,-0.092903875
-4.3270025,10.112035,-4.6884212,1.0107899999999999,2.8286027999999996,-2.3169593999999996
-8.72744,9.081696,-6.010164700000001,1.0975503,1.5366577,-3.3156019999999997
-16.543982,9.315791,-7.244002,-0.08473573599999999,-2.0863316000000003,-2.1114992999999997
-8.963967,13.911326999999998,-4.698075299999999,-0.8459610999999999,-2.7629259999999998,0.042812925
9.908787,14.072515,6.3311405,1.3445493,0.52204543,-2.5272367
14.498509,16.023445000000002,8.278201,1.7986141,3.2805383000000004,-2.9988770000000002
-0.5624267,9.456484,-9.748633,1.4866888999999999,3.4285421,-2.6251845
-7.761044500000001,8.150791,-4.7506322999999995,1.5138288,1.9609123,-2.0917945
-12.044989999999999,8.685455000000001,-6.935035000000001,0.9027191999999999,-0.2774899,-0.9999863999999999
-10.401139,9.332684500000001,-8.408389,0.5061455,-2.3439772,-0.6332229
-6.1240807,9.61905,-7.421671000000001,0.18568558,-3.175993,-0.3478965
-3.01746,11.335951,-2.8838255,0.336866,-2.6229157,-0.3361853
2.1316152,10.57969,-0.9640684000000002,0.3980747,-0.69483304,-0.5847726
5.960020500000001,9.581719,-2.0828406999999998,0.33419564,0.9207658999999999,-0.77747434
3.5177142999999997,8.563944000000001,-3.4866567,0.14947,0.7775616,-0.7657807
-1.5987809,9.420005999999999,-5.2549567,0.04728097,-0.8034274,-0.48150143
-5.0979447,8.966619999999999,-3.9259832,0.21495475,-1.7323439999999999,-0.39474112
-0.41480982,9.039088000000001,-1.9616078000000001,0.22134265,-1.4129486999999998,-0.6310935999999999
4.264849,9.857915,-2.363307,0.22453661,-0.6607642,-1.0633419
5.0515165,9.041558,-2.1206977000000005,0.35123006,-0.34508649999999996,-1.4125473
2.5091042999999997,8.899650999999999,-1.0681778,0.49656359999999994,-0.50426054,-1.6094903
0.9063298000000001,9.691805,-1.7773788000000001,0.52050954,-0.60753167,-1.7612118000000003
0.57927233,10.127157,-2.1588135,0.54871404,-0.50267226,-1.9906526999999998
1.3372669,9.76705,-1.8684254,0.5481905,-0.114057265,-2.260533
1.350981,10.209719,-3.4684417,0.5466022,-0.22586305,-2.4058666
-1.875091,11.783438,-3.6173322,0.5370204000000001,-0.7922573,-2.4324827
-3.4452562000000007,14.080846,-2.1724603,0.5481905,-1.3165891,-2.4766572
-1.4128758999999997,13.990020000000001,-1.50896,0.63922685,-1.569976,-2.553312
-0.47292188,14.181834,-1.0371491,0.81435317,-2.2162192000000003,-2.5283015
-0.13480313,15.129601999999998,-0.5917316999999999,0.86652106,-3.8674923999999997,-2.2892785
2.1583537999999995,18.17901,-1.8232229,0.7893425999999999,-5.4346585,-2.052926
5.26891,18.598629000000003,-2.960756,0.5386085999999999,-4.280577,-2.3148299999999997
7.442653699999999,14.850639000000001,-7.210885,0.18994418,-2.7980595,-2.3153713
4.3679914,19.482798000000003,-5.571547,0.25860542,-1.259639,-2.5964391
5.211439599999999,13.807888,-0.42853338,0.80105376,0.7722384,-2.3233473
-4.648601,9.350201,-3.3206522000000005,0.61367524,1.7416116999999998,-0.94036597
-8.742925999999999,4.7284527,-8.860892,-0.24815091,0.9628109,0.9493543999999999
-5.7870917,3.505839,-4.039717,-0.43711769999999994,0.7679798000000001,2.2264117999999997
-4.930418,1.9210116999999998,-0.70388573,-0.6766816,0.9042551,3.028635
-4.389051,2.4789467,-0.89201254,-0.9231396000000001,1.4387098999999999,3.7344985
-3.8295162000000005,3.2123196,-0.5786403,-1.0822961000000002,1.8187901999999998,4.429174400000001
-3.1037858,2.7622766,-0.9035813,-1.16588,1.8863868000000001,5.0450835
-3.676517,2.6754246,-1.1683226,-1.1743971000000002,1.7911092,5.7110314
-3.515818,3.4350185,-1.0416213,-1.0865548,1.6676096999999999,6.3285117
-3.1306007,5.1505019999999995,-0.6490968,-0.8858768,1.7027432,6.916739999999999
-3.5725415000000003,8.9038925,-0.801483,-0.78738785,1.8730873,7.020011
-2.2509804,11.990238,-1.9294106,-0.76930624,2.0189445,6.538771
-2.6479392,14.405145999999998,-5.009550599999999,-0.8337089,1.9050269,5.683333
-4.893662,17.671,-6.893903,-0.7762177,1.7389413,4.1385245
-7.7274394,17.079153,-4.9948406,-0.22631684,1.941225,2.4159194999999998
-8.515638000000001,11.534862,-4.5878267,0.48431140000000006,1.9300375,0.30206412
-6.5446844,10.24566,-4.746706,0.82767004,1.8113376,-1.8234851000000003
-9.893645,9.542368,-5.6659837,1.1353541999999999,1.1725471,-3.5546248
-11.448986,10.529124000000001,-5.939458999999999,-0.6074793,-1.9926423999999998,-1.8224379000000002
-5.485863,16.67306,-8.232769000000001,-0.79485786,-1.3384231000000002,-0.9286548000000001
18.89124,18.50444,17.519342,2.8520950000000003,3.1272461,-3.5743122000000005
4.512313400000001,8.833349,0.88296247,1.7400582999999998,3.4248073,-3.0994954
-6.573759599999999,9.180538,-13.323904999999998,1.3152801,2.7892106,-2.6672297
-12.085011,8.058021,-5.872335,1.201886,0.3474427,-1.3523858999999998
-15.602332999999998,8.327196,-4.984565,0.8202174999999999,-2.1012367999999997,-0.6507809
-7.982422,9.506456,-8.272541,0.3347367,-3.1355364,-0.5341929
-2.2987304,11.324066,-5.597701,0.30386183,-2.7996478,-0.38941786
1.7940136000000002,10.615258,-1.5236508,0.34271285,-1.0307391,-0.63481116
5.757327,9.872845,-1.8124106,0.37199947,0.7051654,-0.8759633
4.008995,8.871303,-2.2682955000000002,0.23998277,1.1549716,-0.9190729
-0.18145175,9.143476,-5.1502056,0.056862827000000005,0.096185096,-0.7050781
-4.5313907,9.286888000000001,-4.948853,0.117006876,-1.3410761,-0.45488515
-3.3927178,8.913661,-2.0731297,0.18940313,-1.5955276000000003,-0.5203525
1.0215963,10.266931,-1.4035673,0.22080160000000001,-1.1366631,-0.8046317
3.7201489999999997,10.199012,-1.9448484000000001,0.2655344,-0.64531803,-1.1442553
3.4787654999999997,8.965988000000001,-2.21614,0.34058356,-0.5335297,-1.3800668
1.531973,8.995006,-2.1165411,0.44226643,-0.6777986,-1.5605338
0.1446002,9.851508,-1.5505425,0.49389327,-0.7560416999999999,-1.7505653
0.795191,9.968239,-0.9861525,0.49656359999999994,-0.4095066,-2.065702
2.7577279,10.276392999999999,-1.7296863,0.46249480000000004,0.071174525,-2.4079783
1.2639949,11.754735,-3.1041017,0.49336967,-0.28759536,-2.5730166000000003
-2.4152036,12.891589,-2.3284377999999997,0.5540548000000001,-1.0844951999999999,-2.5804694
-2.4565945,13.416379000000001,-1.8809519000000001,0.63868576,-1.5327133,-2.6368783
-0.73467517,13.666084,-1.5558288,0.785084,-1.9553796,-2.6305080000000003
-0.5089307,14.391844,-1.2096944,0.7728318000000001,-3.1754694,-2.3973494
0.33876997,17.407515,-2.7647762000000005,0.6701017,-4.8922099999999995,-2.0965767
2.6872714,17.547918,-1.3235242,0.5716128,-4.7208014,-1.9815943999999999
6.4371467,13.608326000000002,-7.5426164,0.27776915,-3.2036740000000004,-2.1854663
5.915306,18.077429000000002,-6.240994000000001,-0.01712168,-1.5800988999999999,-2.1130877
6.4938316,17.299688,-3.6342354,0.5923822,0.49968776,-2.5527709
0.030329747,10.759025999999999,-2.1812327000000002,0.7355689999999999,2.1648016,-1.6834921999999999
-8.576213000000001,6.153222599999999,-5.881174,-0.035744343,1.9689058999999998,0.16046557
-8.086426,3.477444,-7.0722613,-0.42914155,1.115597,1.7441423999999999
-6.1765327,2.298788,-1.6154349,-0.66601765,0.7264584,2.7055047
-5.0804005,2.1601255,-0.5977268,-0.8496611999999999,0.8382466999999999,3.4348080000000003
-4.2476199999999995,3.0021853,-0.21952914,-0.9572084000000001,1.3540788000000001,4.15343
-2.726057,2.667648,-0.30859345,-0.94921476,1.6383406,4.721430000000001
-2.8906922,2.2235525000000003,-1.0117034,-0.9651844999999999,1.6548339,5.403871
-3.5078886,3.1594172,-1.0699591999999998,-0.9242041999999999,1.5292051000000002,6.03575
-3.0375810000000003,4.6902795,-0.8146032,-0.7006275,1.5531685,6.670805499999999
-3.3938862999999997,7.836126299999999,-0.62381405,-0.5717873,1.7879151999999998,6.982224499999999
-2.055949,11.010665,-1.8434396,-0.5670050999999999,2.0886880000000003,6.683058
-1.4931774,13.413103,-4.5251465,-0.7208559,2.0908172,6.0852474999999995
-3.9267397000000006,16.006416,-7.41218,-0.68731064,1.8081436000000002,4.8539699999999995
-5.941221,17.641273,-5.6352515,-0.35248670000000004,1.7006139,3.1430762000000003
-7.332309700000001,14.578581,-4.351031,0.18247417,1.9683648,1.4247296999999999
-6.39746,10.973583999999999,-3.7828864999999996,0.7339808000000001,2.217493,-0.91109675
-5.919788,9.312592,-4.7020683,1.0294126000000001,2.3127882,-2.744949
-9.509692,9.739372999999999,-4.803803,0.8713207000000001,0.9617462,-3.6978116
-9.68535,12.1501045,-7.5957775,-1.0269343,-2.614922,-0.26005405
2.6727145,17.038183,0.2000499,0.9666157,0.094055794,-2.601745
18.152607,15.557953,17.756731,2.4576504,2.6130197,-3.3608407999999996
1.2040823999999999,9.306797999999999,-8.048434,1.4041697,3.233711,-2.9573557
-8.186561,8.511281,-8.116382000000002,1.5037233,1.5531685,-2.4819803
-13.676753,7.186091,-5.847397,1.0821216,-0.7965159,-1.1144451000000002
-12.57586,9.516875,-7.5285287,0.5572486999999999,-2.4818408,-0.79822636
-5.1523699999999995,10.055705,-7.0821447,0.30812043,-2.603752,-0.626835
-1.0943992,10.966536,-3.13333,0.32302552,-1.6844346999999997,-0.56934386
2.7338529,10.261605,-1.7241220000000002,0.34964179999999995,-0.09916960400000001,-0.78599155
3.471401,9.514135000000001,-1.8108017,0.35123006,0.77862626,-0.8429591000000001
0.91736233,9.077050999999999,-3.6607056000000004,0.13564698,0.29421017,-0.71198964
-3.0783975,9.250199,-5.6614923,0.055798177000000004,-0.9636661,-0.43413320000000005
-4.7697959999999995,8.911544000000001,-4.076665,0.10744247,-1.633314,-0.30583405
-1.1478281000000001,9.284072,-2.425968,0.13777629,-1.2628155,-0.43200390000000005
2.3142066000000003,9.985421,-2.217002,0.13617058,-0.6884451,-0.7125307
2.8721035,9.422189999999999,-2.2760909,0.18833847,-0.5351354,-0.9345190999999999
1.6415604,8.770938000000001,-2.2323343999999996,0.287351,-0.68577474,-1.1426497
0.8947706,9.193782,-1.6261992,0.39276890000000003,-0.8571835999999999,-1.356627
0.98597056,9.850952000000001,-1.2684385,0.44066072,-0.71452034,-1.6249365
2.4749439,9.927749,-1.3923813999999999,0.4880464,-0.24288002,-2.003952
3.31165,9.691374,-2.457897,0.47366490000000006,0.16006415,-2.3009896
0.92287856,11.121747000000001,-3.6483707,0.49336967,-0.23064525,-2.4378061
-2.8132923,12.707694,-3.4435709,0.5210505999999999,-0.94289666,-2.4452412
-2.7648048,13.828535,-1.6739205000000001,0.5386085999999999,-1.2596216,-2.5277602999999997
-0.9236064,13.807113000000001,-0.8436113000000001,0.62219244,-1.4842629999999999,-2.5761933
-0.88290495,13.985116,-0.98745495,0.8234113999999999,-2.4573537999999995,-2.4415236
-0.76411426,15.159845,-1.0818153999999998,0.6706253000000001,-4.1666593999999995,-2.1428978
1.3011912,18.515694,-1.4060093,0.6163456,-5.2211870000000005,-2.0114047999999998
6.00168,15.591491,-4.487146,0.42097342,-3.7700682,-2.1993244
7.8733897,14.43445,-6.303694,0.060580377000000005,-2.143823,-2.1407685
3.6557927,19.110394,-5.541322,0.30333823,-0.5521698,-2.4702692
3.9928197999999995,13.145920000000002,-0.9690771,0.64774406,1.6548339,-2.2222056
-4.866416,8.272397,-5.196308,0.38158134,2.6779634999999997,-0.8983035
-9.589199,4.2954946,-9.262122,-0.52387804,1.570203,1.0057983
-7.3750990000000005,3.3313785000000005,-4.723147,-0.84329075,0.9063844000000001,2.2397287
-5.6921573,2.0598657,-1.3935977,-1.0301281999999998,0.7216762,3.0116005
-4.703754,2.195033,-0.748801,-1.2521167,1.1677648999999999,3.6908479
-3.9259063999999997,2.6805484,-1.0957974,-1.3654933,1.5446513000000002,4.3131447
-3.0625956000000003,2.3702403999999997,-1.0743549,-1.3309008,1.7112604,4.933295200000001
-3.2912227999999994,2.3173764,-1.2835698,-1.2164421,1.6958316999999998,5.5752974
-2.8792,3.632799,-1.2852648000000002,-1.0610031,1.810814,6.128898
-2.5830371,5.9865484,-1.604594,-0.7660948000000001,2.1307327999999996,6.5265365
-2.7334218,9.7360115,-2.4603775000000003,-0.753319,2.4171240000000003,6.668676400000001
-1.7959098000000002,11.612108000000001,-3.9876387,-0.72296774,2.2691374,6.3184059999999995
-2.6935917999999996,13.045833,-6.9518614,-0.7325496,1.4195461,5.6705747
-6.523903,15.952373999999999,-7.4974523,-0.34342843,0.46455428,4.5510855
-8.529908,15.3342495,-4.698362400000001,-0.16137314,0.0935322,3.000954
-9.531949000000001,13.696776999999999,-5.4902489999999995,0.31717870000000004,0.5135282,0.92542595
-2.4838405,10.281918,-1.5938008999999997,0.83777547,1.8730873,-1.4993076
-4.489856,9.170022,-2.797232,1.049641,2.2462387,-3.4023797999999994
-9.7254,11.189733,-3.2915102999999997,-0.15711454,0.09246755,-3.0983958
-8.942574,15.677932,-5.952732599999999,-0.97530746,-1.3181773,-0.37344809999999995
10.435310000000001,15.510549,7.708305,2.1893585,2.3548505,-3.3565824
11.950332000000001,11.962131,9.549934,2.1228092,3.722386,-3.210725
-2.0208306,8.215522,-13.474739000000001,1.2742997,3.5041325,-3.0355988
-9.481297,8.097334,-9.591124,1.1566471,0.5561316999999999,-2.0039346
-18.241298999999998,8.501197,-5.6558805,0.81969386,-2.3029794999999997,-0.6321408000000001
-12.7517,8.516166,-8.41741,0.41565016,-3.7227,-0.42772785
-3.790318,11.218683,-5.816042400000001,0.29482102,-3.0748512999999997,-0.2616423
1.1582382,11.546794,-1.0987662,0.37625808,-1.2548393999999998,-0.53099895
6.690634700000001,9.699064,-1.8414667000000002,0.3996804,0.74029887,-0.8126078
4.6288157,8.655403,-2.9122972000000003,0.2671401,1.2854,-0.8578468
-0.26742277,9.137346,-4.8777547,0.055798177000000004,0.071174525,-0.6033951999999999
-5.2037783,9.504177,-5.4922986,0.0856084,-1.6162796,-0.26005405
-4.60653,8.8562,-2.857298,0.16652186,-1.9590971000000001,-0.25418976
1.1354836000000001,9.624231,-2.2979164,0.1436406,-1.2830438999999998,-0.5762379
4.780043,9.959074000000001,-2.6064045,0.17238617,-0.6330833,-0.96804684
4.4334774,8.873582,-2.1432319,0.28630382,-0.44783404,-1.2597612
2.3919224999999997,8.895465,-1.9752835,0.40713295,-0.56813955,-1.4391462
0.6106651,9.561981,-1.6327018999999998,0.47314129999999993,-0.68471014,-1.5850033000000001
0.35211045,10.207353999999999,-2.1143866,0.49336967,-0.49946088,-1.8538363999999998
1.8344276999999998,9.519796000000001,-1.3123288999999998,0.5018869,-0.05071927,-2.143945
1.7321666,9.881598,-3.375968,0.51946235,-0.18273596,-2.321218
-1.4762647,11.541929,-3.8492154999999997,0.5098805000000001,-0.92373294,-2.3616574
-3.0942376,13.538185,-2.4903049999999998,0.53649676,-1.3543755,-2.4164956
-1.2045611,13.7462225,-2.0590806,0.5929232,-1.5050323,-2.5261548
-0.31716466,13.794595999999999,-1.4506755,0.73345715,-1.9399334,-2.539454
-0.7493850999999999,14.311781,-0.83419734,0.9937556000000001,-3.3820116999999996,-2.2754207
-0.35338420000000004,16.405462,-1.59133,0.84631014,-5.4229474,-1.8847113000000002
3.6317549,19.921846,-2.5847132,0.60515803,-4.819814,-1.9171743000000003
6.0320764,14.049128,-7.826195200000001,0.42044982,-3.5550089999999996,-2.1332984
5.123553299999999,18.488216,-5.560983,0.31929052,-1.9420627000000001,-2.2839553
6.453369599999999,15.969604,-2.9532957000000004,0.8840965000000001,-0.046460666,-2.4479115
-1.5261216,10.393852,-2.309744,0.98471475,1.4126346,-1.3103234
-9.584842,5.30535,-6.820391000000001,0.07124434,0.8217534,0.6028366999999999
-7.762825500000001,3.9452612,-5.8206873,-0.25719172,0.16325809,2.1268756
-5.5039635,2.3200676,-0.59865576,-0.33437017,0.13770647,2.8929007
-4.1297584,1.7410921999999998,0.08928457,-0.49886745,0.68547803,3.5205212
-2.8966583999999997,2.5209599999999996,0.61361474,-0.50099677,1.5611447,4.12629
-1.963255,2.2859073,0.434787,-0.5164255,2.1296856,4.7017426
-2.3251049999999998,2.5007436000000003,-0.88092256,-0.5893628000000001,2.3660207000000004,5.3628907
-2.629408,3.644128,-1.1547905,-0.70966834,2.4639685,5.965483
-1.9977122999999999,5.095139,-1.0194702,-0.6718645000000001,2.5704336,6.4919443
-2.8251772,8.337128,-0.9449052,-0.7219031,2.5475522999999995,6.920475
-3.3721087,11.846739999999999,-2.0736372,-0.77035344,2.3974366000000003,6.677192999999999
-2.962231,13.954988,-4.4486566,-0.95560265,1.803885,5.996881500000001
-5.251643,15.853685,-8.446456,-0.9939300999999999,1.1432779,4.78585
-7.4885936,17.428946,-5.509154,-0.31307715,1.3849536,3.1180656000000004
-7.546542999999999,13.098697,-3.1695495,0.35550612,2.0359964,1.0441432
-4.326485,10.984233999999999,-3.8904915,0.8500277,2.545423,-1.4045537000000001
-6.676624,9.666024,-4.798918700000001,1.1321602,2.0397138999999997,-3.1564278999999997
-10.497042,8.769176,-5.6231275,0.35070646,0.111090206,-3.1633568
-8.109219,12.716132,-6.437941599999999,-1.2419938,-1.8978709999999999,0.035918877
7.117109299999999,16.607992000000003,3.5799637000000004,1.0656282,1.3242686000000001,-2.638484
16.316744,15.047317999999999,16.976633,2.6136305,3.3087777999999997,-3.3406126000000005
-0.8316978,10.006566000000001,-10.058434,1.4904239,3.301325,-2.8641900000000002
-8.273107000000001,9.185555,-6.087191000000001,1.7358171999999998,1.6048127,-2.506991
-13.741722,7.1446333,-8.118661,0.9926908999999999,-0.8880584,-1.0729063
-12.886877,9.327522,-9.264612,0.47420597,-2.9428346000000003,-0.658216
-6.101508,9.757952000000001,-7.8380035999999995,0.14683455,-3.315986,-0.41069344
-1.9080830000000002,11.956116999999999,-2.5990496,0.26234043,-2.3423715,-0.41442844
3.4116894999999996,10.618447,-0.678603,0.36934659999999997,-0.30410618,-0.72530645
5.5429697,9.132567,-1.1375811000000002,0.36402333,1.2598658999999999,-0.9201200999999999
3.157387,8.587494,-3.9427616999999997,0.13245304,1.0448065,-0.8610406999999999
-1.9882983,9.525418,-5.372043,0.019600047,-0.5537581,-0.56878537
-6.204248000000001,9.227119,-4.001142,0.19100884,-1.7434967000000001,-0.35053194
-2.2695885,9.01553,-1.8499134999999998,0.19422024,-1.6178678,-0.5192878
3.3917602999999996,9.974158000000001,-2.5867338,0.16119862,-0.86622435,-0.9132085999999999
5.000262,9.121689,-2.6555720000000003,0.26820475,-0.39990729999999997,-1.2395154
3.4410808,8.48959,-1.6786324000000001,0.34166566,-0.34667474,-1.4870553999999998
0.606298,9.675467,-1.9111571,0.42203808,-0.7358134,-1.6190721000000001
-0.66664153,9.986761,-1.5738811000000001,0.4880464,-0.8348259,-1.8256143
1.3111415000000002,9.563523,-1.3997844,0.4699648,-0.26150268,-2.1524622000000004
2.7437646,10.3959875,-3.535125,0.43907250000000003,-0.07466519,-2.3850796
-0.64476806,11.963356,-3.6124,0.42631412,-0.69109803,-2.451088
-3.5194,13.741588,-1.8836718000000001,0.47155306,-1.276656,-2.4888917999999998
-1.7107146,14.118549,-1.3603951,0.499234,-1.425166,-2.5926867000000002
-0.11438538,14.237858,-0.95442456,0.61369264,-1.7812830000000002,-2.6070507000000003
-0.2812421,13.979131,-0.6234597,0.68287754,-2.9305997,-2.3840325
0.79001,16.125196,-2.2229686,0.5189387,-4.38596,-2.0651608
2.7822443999999997,16.468842000000002,-2.3990283,0.58227676,-4.3327274000000005,-2.0119283
4.8969374000000006,12.680286,-5.6490617,0.43161990000000006,-3.2968222999999997,-2.1338220000000003
3.2256122000000005,16.081135,-5.33091,0.113306776,-2.1065426,-1.7218022000000002
3.4277212999999995,18.354803,-4.04713,0.35283577,-0.2700199,-2.372304
1.8484865000000001,11.799804,-3.2117447999999995,0.7403860999999999,1.6388816000000002,-1.8804352
-7.041117,6.5040884000000005,-3.920984,0.3283488,1.8416888999999999,-0.36011377
-6.555947,4.0405120000000005,-7.124339999999999,-0.17786649999999998,0.9937031999999999,1.3150882
-5.245887799999999,2.8295348,-1.8959873999999999,-0.44083527,0.68547803,2.3903854
-5.4620934000000005,3.0266445,-0.5738327,-0.6149144,0.7972664,3.086667
-5.544291,4.643861,-0.7379791,-0.7714181,1.0612998,3.8675973
-3.730482,3.8853202000000007,-0.80511254,-0.77513564,1.1257025,4.497853299999999
-2.9398787,2.8642982999999997,-1.2887222,-0.7405257,1.0671641,5.167536
-3.0863845000000003,3.318019,-1.0676703,-0.63140774,1.1959695,5.730195
-2.560455,4.6079764,-0.81270695,-0.45521677,1.5228347,6.222064
-2.4096203,6.15555,-0.86982304,-0.33224088,1.8608526,6.724578999999999
-2.3444022999999996,9.231678,-1.5261407,-0.3620511,2.1701424,6.767164999999999
-1.6003227,12.492360000000001,-2.8623831,-0.46319294,2.4953845,6.37485
-3.1765885,14.630181,-5.754071,-0.44083527,2.4916669999999996,5.5369697
-4.95753,16.21001,-6.140141000000001,-0.24706881,1.899721,3.9213532999999994
-7.100838,16.577385,-5.693660700000001,-0.16722,1.8087021,2.3818857999999996
-9.756649000000001,13.138948000000001,-5.100224,0.53969073,1.8278484,0.15248941
-5.7600665,9.511818,-3.6925292,0.9314822,2.2223102999999997,-1.9224976000000003
-9.030153,8.938714,-4.5451717,1.0773393999999998,1.4807723,-3.388522
-11.954747,9.971112,-4.8654394,-0.5142962000000001,-1.0791545,-2.3669806
-6.3391470000000005,15.326472,-4.54341,-0.9348332,-0.7959574,-0.13920747
13.370295,16.640535,10.082529,2.5178119999999997,2.9973762,-3.3225135999999997
8.092478999999999,12.819916000000001,7.539887400000001,1.8886033,3.1773021,-3.0744498
-5.020746,10.078957,-14.659926,1.5330099,2.6902156,-2.728962
-11.162974,7.925411,-5.205952,1.2737588,0.29529226,-1.7297957999999998
-16.115582,8.167149,-8.068307,0.75049156,-2.1017604,-0.8307068999999999
-7.599962,8.911985000000001,-8.694563,0.26342255,-3.2595593999999997,-0.6214768
-2.8838925,11.019888,-6.2608084999999996,0.104248516,-2.787919,-0.5139471
0.46445596,11.443814,-0.9553535,0.35602972,-1.2702681,-0.6752504
4.945606,9.796997,-0.48117709999999997,0.3773402,0.71848226,-0.9334195
4.5724654000000005,8.688721000000001,-2.5377388,0.252235,1.4227575000000001,-1.0196737
0.42699152,8.910979,-4.915986,0.04782202,0.33733723,-0.79236203
-4.4122553,9.246838,-5.1134305,0.07337364,-1.1307988000000002,-0.5001241
-4.1283126,8.8257265,-2.7328759999999996,0.17505652,-1.4938447,-0.49000117
1.2338566999999998,9.714406,-2.4739093999999997,0.13512339,-0.9780127000000001,-0.7678751
3.5671209999999998,10.03703,-2.3982432,0.20006709,-0.6570292,-1.085682
2.7105906,9.225328,-1.8452495,0.31398472,-0.64105946,-1.3092587
1.5675412,9.264919,-1.9453368000000002,0.37147588,-0.75975925,-1.5173893
1.0873027,9.849535000000001,-2.0213191999999998,0.45717153,-0.81459755,-1.7771641
1.6756921000000002,9.488672,-1.1775258999999998,0.4832642,-0.31847024,-2.1354277
2.554728,9.900895,-2.6482072,0.43961352,-0.0065275314,-2.3701746
-0.14740620000000001,11.759208000000001,-3.4313986000000005,0.42896703,-0.42706463,-2.4862216
-3.1508365,12.643923,-2.3258327999999997,0.46888270000000004,-1.0094286,-2.5304132000000004
-1.79342,13.809582999999998,-1.8152646000000001,0.51094514,-1.2361993,-2.6603007
0.08472601,14.192962,-1.508146,0.62966245,-1.5529242,-2.714598
0.555359,14.358238,-1.4317422,0.9096655999999999,-2.5861766,-2.5862987
0.98209196,16.30074,-1.4205469,0.79201293,-4.3912835,-2.27755
3.7345620000000004,19.566526,-2.9751115,0.6115459,-4.8315253,-2.1604382999999996
6.199527,15.483993,-6.7512083,0.39861575,-3.6476333,-2.4308596000000002
6.1032796,16.59605,-6.103165,0.020664698000000002,-2.1981025,-2.2088888
5.045675,18.256773000000003,-2.9075282000000002,0.743039,-0.19071212,-2.5692642000000006
-0.20627484,12.177446,-1.108908,0.9133831,1.3051049,-1.7090265
-8.874578,6.0897765,-6.0598392,0.040910516,1.052259,0.29356438
-6.9476759999999995,3.8691735,-6.2002263,-0.31840040000000003,0.7254111999999999,1.9842298999999999
-5.6852903,2.4780467,-0.21212627,-0.4397706,0.8159065,2.8716077999999996
-4.5664419999999994,2.6587994,0.23095427,-0.60264474,1.3418441,3.5535426
-3.5387546999999997,3.1280532,0.42460686,-0.6638708999999999,1.906109,4.259389
-2.9598656,2.2088330000000003,-0.21035457,-0.69422215,2.0833647,4.9572587
-3.8733779999999998,2.1635923,-1.1593491000000002,-0.8299738999999999,1.8757577,5.668986299999999
-3.7291129,3.2565932,-1.0118759,-0.80281657,1.6798619,6.2593265
-3.2659786,4.598773,-0.61380625,-0.6495068,1.5292226,6.7852817
-3.6201480000000004,7.490528,-0.76786834,-0.55421185,1.4562852,7.1302285
-2.9648166000000002,10.776618,-1.2368063,-0.49033279999999996,1.6117243,6.910893
-2.7559655,13.676034,-4.357715,-0.6111794,1.7698337,6.232187000000001
-4.245724,15.766422,-6.5550175,-0.48502700000000004,1.8283894,4.9024377
-3.5455446000000004,17.633354,-4.351203,-0.27103218,2.1552372,2.9573207000000004
-8.797532,14.974179999999999,-4.599787999999999,0.16334537,2.4400227,1.0819296
-5.949447599999999,11.175166,-4.2745023,0.69886476,2.5443585,-1.4237
-8.116622,8.725017,-5.788174,1.1018263000000001,1.9651883999999997,-3.146846
-12.135931,9.769712,-5.0894504000000005,0.31824332,-0.7810523,-3.2208307
-8.421796,14.8607435,-8.889786,-1.2233536,-2.7080702999999997,0.06679375
10.527899,16.279749,4.667285400000001,2.2064103999999998,1.8230662,-3.5950464999999996
16.510529000000002,14.473475,13.956607,2.2229037,3.268321,-3.566301
-2.7009852000000003,7.517056,-11.584603,1.5500443000000002,3.165591,-3.2522290000000003
-11.720881,7.6931066999999995,-8.773025500000001,1.2593946000000003,0.8153655,-1.9240859000000001
-19.821892000000002,8.930553999999999,-4.943471,1.0092018,-2.1736157000000005,-0.83920664
-10.618563,8.936291,-7.730455999999999,0.49019316,-3.252107,-0.6885673000000001
-2.8703317999999998,10.768832000000002,-6.9464507,0.39969784,-2.7229755,-0.5219407
1.3013443999999998,10.745608,-2.6376154,0.31611404,-1.132387,-0.6954788000000001
5.298023000000001,9.809189,-2.334902,0.39170423,0.49597022,-0.90415037
3.3669467000000006,8.938053,-2.1262426,0.29855603,0.9122486999999999,-0.94780105
-0.29596165,9.123584,-5.13245,0.10372492,-0.030473447999999997,-0.73326516
-4.2873645,8.865594999999999,-5.3540387,0.12234758,-1.2825029,-0.45966735
-4.166447,8.766072,-3.2108257,0.19367918,-1.4906508,-0.42453387
0.050306965,9.674232,-2.1975036,0.1649336,-0.9668426,-0.64598125
2.50603,10.285424,-2.686706,0.2080607,-0.66765827,-0.87859875
1.9913150000000002,9.221086,-2.5640560000000003,0.28789207,-0.73155475,-1.1053693000000002
1.380784,8.968939,-2.3625982000000003,0.4177969,-0.8912524,-1.3028708999999998
0.9118844000000002,9.318425,-1.7604948,0.4949754,-0.96097827,-1.5062017
1.0452223,10.116067,-1.8480747,0.51733303,-0.7256904000000001,-1.7611941999999998
2.2153356,10.2077265,-2.3599646,0.49764574,-0.24607398,-2.125305
1.7630709999999998,11.538778,-2.4731433,0.49762827,-0.21678734,-2.4154310000000003
-0.8903653,12.7234,-2.1716557,0.55833083,-0.77572906,-2.492086
-1.6652056,13.297281,-2.440946,0.64934975,-1.3719335,-2.58204
-0.7239396,13.944730999999999,-1.8682914000000002,0.79253656,-1.9090585999999998,-2.6182382
-0.15725118,14.462098999999998,-1.5198871,1.0315593,-3.0099075,-2.4910212000000005
0.38959408,16.162317,-1.4649929,0.82342887,-4.7756224000000005,-2.1503330000000003
1.8478161,19.391320999999998,-0.9938523000000001,0.7797782,-5.6390543,-1.8948166000000002
4.8069725,15.344160999999998,-6.146184,0.40182716,-4.2656545999999995,-2.030551
7.0330825,16.40847,-6.511271,0.07976155,-2.4829054,-1.8820235
5.8685427,19.191431,-4.730205000000001,0.5620484,-0.48774973,-2.6049387000000004
2.855143,12.421271,-0.58566004,0.9336114999999999,1.6953081,-2.1199814999999997
-7.3593163,7.427446000000001,-5.0846334,0.227748,2.1610842,-0.35479054
-9.568944,4.2506275,-8.722086000000001,-0.43390632,1.1182673,1.5589106000000001
-6.8949084,3.0040622000000003,-2.396462,-0.6697352,0.63702774,2.5692467999999997
-5.7656784000000005,2.0329933000000002,-0.64318794,-0.8858593000000001,0.6434331,3.343789
-4.5435915,2.4033477000000003,0.2643103,-0.9981886999999999,1.2571956,4.0182366
-3.1258217999999998,2.3365492999999997,0.30301017,-1.0386454,1.7591871,4.616047
-2.7412746,2.1185523999999996,-0.6037219,-1.0593973,1.9449599999999998,5.309658
-3.1412215,2.6131275,-0.29929438,-1.0189407,2.054078,5.9862523
-2.4416358,3.8728415999999997,-0.67712814,-0.8805360999999999,2.0902936000000003,6.532942
-2.5433223,6.665601299999999,-0.669323,-0.74639004,2.2537088,6.9785070000000005
-2.5925849999999997,10.571157000000001,-1.5495082,-0.7469311,2.4235293999999996,6.853942999999999
-1.837071,13.497570000000001,-4.316324,-1.0083116,2.163737,6.3279877
-4.2096577,16.150988,-8.484774,-0.979025,1.5600975000000001,5.261225
-7.252401,17.702735999999998,-6.896814,-0.5180312,1.1507305,3.6062167
-7.876894999999999,14.045278,-4.676508,0.052080624000000006,1.3833654,1.9714541
-7.341858,11.621369,-4.213556,0.66051984,1.5765908000000002,-0.41334632
-4.747261,9.696775,-4.879479,1.0310184,2.057813,-2.4511056
-8.665842,8.991108,-4.3452462999999995,1.1135375,1.2108746000000001,-3.5540837999999995
-10.775182000000001,10.377858,-7.07297,-0.46692795,-1.4688341999999999,-1.4524629999999998
-4.1887326,13.582393,-1.4789176000000002,-0.47757444,-1.0876718,-0.27281243
13.45868,14.868998000000001,9.387185,1.8534698,2.2249632000000004,-2.7859293999999997
8.15151,15.255823999999999,4.8402330000000005,1.67035,3.6899227999999997,-2.8769484
-2.4945858,11.597561,-11.046914,1.6176409999999999,2.9675658,-2.7960347999999997
-8.799754,9.091042,-3.2832837,1.4899003999999998,1.0618409,-1.9533725
-15.076718,6.669882,-7.8955793000000005,0.9623571,-0.9545904000000001,-0.8525235000000001
-7.2148213000000005,8.972002999999999,-9.392146,0.36774087,-2.413703,-0.56560886
-3.7557553999999995,10.259633000000001,-7.644466,0.09786061,-2.9119596000000003,-0.31222194
-2.5265722000000004,11.2625065,-2.0528555,0.32941344,-2.5036572999999995,-0.38088320000000003
1.3849117,10.741232,1.0138774,0.5471433000000001,-1.0775663,-0.5219407
5.4120545,9.334791000000001,-1.9868618000000002,0.38583994,0.5199335999999999,-0.77267474
4.820112,8.139692,-4.4279227,0.23891813,0.62372833,-0.8493296
0.63508594,8.936903,-3.9953672999999994,0.16226326,-0.5883505,-0.67312115
-3.0471005,8.970403999999998,-4.229539,0.30227357,-1.4092138,-0.63906974
0.025541342999999998,9.224677,-2.455723,0.2724459,-1.2495161,-0.85573494
3.4777887,9.575562,-2.8502492999999998,0.30014428,-0.7209081999999999,-1.1729834
3.698582,9.300832000000002,-2.430335,0.41139156,-0.55641097,-1.4779972
1.4963856000000002,9.740427,-1.0484306,0.5146627,-0.7283608,-1.6201367
-0.28262115,9.869809,-1.5330743999999998,0.5891881999999999,-0.86357147,-1.7367073
0.7402776,9.580235499999999,-2.3045244,0.5923822,-0.55641097,-2.0066051
1.7411019,9.659541,-2.1890473,0.62858033,-0.2173284,-2.2615976000000004
1.0368234,10.655883,-3.263498,0.6387031999999999,-0.42599997,-2.4202132
-2.05547,12.349627499999999,-3.2506366,0.6732956999999999,-1.0115579,-2.4702517999999998
-2.9591472000000003,13.754612,-1.2126057,0.692983,-1.301684,-2.5213726000000003
-1.5375946000000003,13.920136999999999,-1.0764906,0.79040724,-1.5763638999999998,-2.5416007
-1.5110765,13.790784,-1.1249108,0.98310906,-2.5111275,-2.3856208
-1.438197,15.0367365,-1.0468217,0.89367837,-4.576009,-1.9767948
1.6999119999999999,19.177317000000002,-1.8918982,0.76220274,-5.459669,-1.8676769
5.611166000000001,16.580085999999998,-5.6503157999999996,0.5141391,-4.047942,-2.1136112000000002
8.330491,15.3048,-6.407363,0.055274576,-2.3823047,-2.1056175
5.587033,19.869307,-6.0680084,0.41404447,-0.5761156999999999,-2.6831994
3.8069437000000006,12.789778,0.5130583,0.8872905000000001,1.2864646999999998,-2.2807612
-5.758649,8.299989,-4.4356127,0.51733303,2.1664072999999995,-0.6859144
-10.899096,3.9178812999999995,-9.60208,-0.39507273,0.8978671999999999,1.3709736000000001
-7.565284700000001,2.7652360000000002,-3.0303605,-0.63887775,0.17655751,2.707634
-5.946555,1.4768584999999999,-0.3559412,-0.8118748,0.07595673,3.4502366
-4.483966400000001,1.7448941000000002,0.3186874,-0.8709716999999999,0.58805376,4.0794454
-3.5235754999999997,2.2186491000000004,0.5044582999999999,-0.9044994000000001,1.1081444,4.692143
-2.5895398,2.2811859,-0.4074261,-0.92579246,1.3407619,5.352768
-2.3936367,2.8941972000000002,-0.021519085,-0.8049633,1.5286641,5.884551999999999
-1.733718,4.4831424,0.24915978,-0.52921873,1.934296,6.236951400000001
-2.0563605,7.67175,-0.5879585,-0.69156927,2.0221384,6.728296799999999
-3.1575594,11.313791,-1.7559458,-0.73043776,2.2569027000000004,6.727773
-2.3308606,12.195825,-1.5512416,-0.7815409999999999,2.0242677,6.2662379999999995
-4.1094556,14.705523000000001,-6.950272,-1.0620677,1.5574270000000001,5.4906487
-6.9605570000000005,17.021395000000002,-8.074206,-0.6367484999999999,1.1294374,3.9144243999999997
-6.9668589999999995,14.305316,-3.7127937999999996,-0.09058259,1.6191593,2.1753085
-8.063738,11.705683,-4.555869,0.5886471999999999,1.9614532999999998,-0.21427408
-4.9922843,10.029511,-3.6741227999999997,0.8537453000000002,2.3628267999999997,-2.3105717
-7.462947,9.529852,-4.8707066,1.2141383,1.9997808000000001,-3.9581275000000002
-8.724825,10.148954,-6.23656,-0.8533961999999999,-1.7653482,-0.86638147
-1.6046227,17.275620999999997,-4.4366474,0.26286402,-0.056583576,-2.0710251
17.259923999999998,15.755926,20.536285,3.046926,2.3756025000000003,-3.4625237
0.49154878,9.0559435,-5.281082,1.4744366000000002,2.8477664000000003,-2.9536207
-8.308914,9.434716,-12.746681,1.3983054,1.3886711999999999,-2.4830625
-13.201944000000001,7.324332000000001,-4.384942,1.2029507,-0.93225014,-1.1085982
-14.503029999999999,9.549216,-5.559691,0.65252626,-2.6841418999999997,-0.7098778
-5.7684937000000005,10.71049,-7.233553999999999,0.32993704,-2.7469387000000003,-0.64812803
-0.16064136,10.743607,-4.9680066,0.2612758,-1.7302147,-0.54005724
2.9267392000000005,10.112160000000001,-2.2649436,0.25167647,-0.092240654,-0.78653264
3.4730387,9.653508,-2.0186566999999997,0.30066788,0.74190456,-0.849347
0.6694571,9.252498,-2.341491,0.16704546,0.3543542,-0.77855647
-2.225851,9.632697,-5.6203885,0.012147492,-0.93598515,-0.51344097
-4.40016,9.046673,-4.4180207000000005,0.07548549,-1.7781240000000003,-0.36973056
-1.8169308999999998,9.071898,-1.943814,0.15161675,-1.594463,-0.48576003
2.0065421999999997,10.110493,-1.5697919,0.14788175,-0.9386380999999999,-0.7955734
3.6019614,9.597224,-2.3462603,0.21443115,-0.60805523,-1.0702534
2.2746925,8.758094999999999,-2.4532043999999997,0.28576276,-0.68153363,-1.2177162
-0.09124782,9.141503,-2.1298914,0.36187658,-0.9200154,-1.3444097
-0.10003932,10.032231,-1.670243,0.44385470000000005,-0.8912698,-1.5073012
0.9550375,9.719435,-1.7648523,0.3911632,-0.37863174,-1.8788644
2.8474814999999998,10.671101,-1.0560726999999999,0.38423422,0.110008106,-2.1982596
1.399248,11.6567545,-2.261046,0.41617376,-0.11246902,-2.394679
-1.855602,12.814409,-2.2673092,0.46034804,-0.7533888000000001,-2.4319592
-2.0998967,13.2802725,-2.011819,0.4928286,-1.0738486999999999,-2.507532
-0.54413503,13.725872,-1.5628582,0.5673541999999999,-1.4209249,-2.5644996
0.2898133,14.034513,-1.1454915,0.71959925,-2.3588822,-2.4484525
0.46152547,15.081535999999998,-1.6472778000000001,0.6461383,-4.236403,-2.1173463
1.3502915,17.570328,-1.1171153999999999,0.68233645,-5.077477,-2.0028875
4.8729190000000004,14.841541000000001,-4.5450664000000005,0.36665878,-3.9233954,-2.222223
5.0756407,16.009520000000002,-6.117952,-0.026703538,-2.4552419999999997,-1.9470020000000001
3.4273477,18.855629999999998,-5.149602,0.24476497,-0.77894044,-2.3898968999999997
2.6849727999999997,12.620047999999999,-1.5087589,0.3874282,1.3444794,-1.9640365000000002
-4.6083016,8.037038,-5.158978,0.20483184,2.4980373,-0.78972656
-7.7616380000000005,4.4509739999999995,-8.380989,-0.53773594,1.7879151999999998,0.8141437
-6.31532,3.566987,-4.3188624,-0.9305921,1.3141281999999999,1.9267038
-5.384742,2.582405,-1.8049886000000002,-1.1504511999999998,1.1858464,2.694317
-4.956419,3.0316148,-1.1943907,-1.4575943,1.6367348,3.4214737
-4.053517299999999,3.6651974000000003,-1.8375211,-1.5981281999999999,1.9396193,4.020872
-2.9715873999999998,2.9857514,-2.008266,-1.5747058,2.0205328000000002,4.546286
-3.3661230000000004,2.651789,-2.0504231,-1.4501416999999999,2.1988529999999997,5.173365
-3.6047292,3.7755125,-2.6591153,-1.4166139,2.2723139999999997,5.714731700000001
-2.88123,5.857424,-3.1737537000000002,-1.1371343,2.4357467,6.2305636
-3.2765992,8.164725,-2.9539182,-0.8709716999999999,2.6390947999999996,6.553694
-3.2234862,10.097010000000001,-5.2445083,-0.7059508000000001,2.498561,6.3439403
-4.1346426,12.045286,-7.854676700000001,-0.5675462,1.7628872,5.651917
-7.756524000000001,14.865053,-7.861859299999999,-0.15500268,1.0346661,4.749093
-10.986838,14.112009,-5.6665583,-0.07035422,0.036023594,3.1595695
-10.262554,14.311954,-6.321315,0.21121974,0.24734806,1.0579488000000001
-4.5852027,11.052669,-2.388082,0.72651076,1.5999957,-1.0463248
-4.2161126,8.65162,-1.7502668000000001,1.0517528,2.5746748,-2.9440562999999997
-8.036769999999999,9.462277,-1.8543188999999998,0.03715806,0.9750456000000001,-3.108536
-7.472648599999999,14.224105999999999,-3.1895652,-0.8251917,-0.5473876,0.16631243
7.8716083,16.100872,6.5229163,2.0525422,2.4809856,-2.9147696
15.847605,15.675757,11.378798,2.2505672000000003,3.5674706,-3.2730334
-0.55613476,9.815911,-15.87101,1.1092615,3.3327236000000005,-2.8695307
-8.552472,7.869654700000001,-5.7567244,1.4254453,0.35807174,-2.0976589
-16.550972,7.235919,-4.873158,0.94528776,-1.9186578999999997,-0.7870736999999999
-12.0105505,8.973037,-9.266067999999999,0.48802897,-3.3942639999999997,-0.58958966
-3.7379714999999996,10.875394,-6.0296345,0.23890066,-3.0583754,-0.42029274
0.07199843,11.683359,-1.4447763,0.41669735,-1.5231488000000002,-0.56934386
4.302237,10.233431,-0.02912307,0.51038665,0.25214770000000003,-0.82594216
4.556788,8.727008999999999,-2.7117880000000003,0.346954,1.1315494,-0.90631455
1.4257662,8.689228,-4.5238633,0.17928022,0.47411868,-0.7812268
-2.7511005,9.208386,-5.0359063,0.14840534,-0.9253386999999998,-0.51504666
-3.881815,8.896806,-3.2352846,0.22399555,-1.3224534,-0.5230403
0.26567978,9.734948,-2.004263,0.22718951,-0.94504344,-0.7519402
2.3259573,10.340997999999999,-1.8783662,0.27242845,-0.6671696,-0.98403406
1.9753505,9.366097,-1.9518776999999998,0.33471924,-0.60754913,-1.1724771999999999
1.5274816,8.991808,-2.573872,0.37037632,-0.6112666999999999,-1.3444271
0.5552537,9.882489,-2.486704,0.44916049999999996,-0.7464773,-1.5195534
0.6836308000000001,10.032289500000001,-1.1545415,0.45821875,-0.39461893,-1.7947743999999999
2.117796,9.667403,-1.9963810000000002,0.3922104,0.075939275,-2.0630490000000004
0.47359225,10.787229,-3.708992,0.40392154,-0.22268656,-2.146109
-2.6657424,11.750685,-3.5878358,0.40976840000000003,-0.9498431,-2.1381156000000003
-3.0160236,13.186392000000001,-2.2760142999999995,0.4071155,-1.3102187,-2.2185054
-0.96908665,13.0810175,-1.8632157,0.45022514,-1.4534228999999999,-2.3350935
-0.306793,13.219210999999998,-1.4879198,0.5891708000000001,-1.9745607,-2.3584982999999995
-0.4355915,13.549113,-1.04663,0.79197806,-3.2564002999999997,-2.2381928
0.9854151,15.376244,-1.6750697,0.8548099,-4.845924,-2.0300622
4.2203455000000005,17.948238,-1.5124459,0.69563586,-4.333826999999999,-2.0609372
6.213403,14.762207,-7.7871027,0.5481729999999999,-3.1706872,-2.5410947999999998
6.215318700000001,18.146786,-5.09601,0.35653585,-1.8313564999999998,-2.4761509999999998
3.9713104,16.020789999999998,-3.4649942000000005,0.8718269000000001,-0.29400072,-2.5245838
-0.99886096,10.70913,-1.1895735,1.1592826,1.1432605,-1.5211591999999998
-9.448122999999999,6.371986,-4.2579536,0.30223867,0.61571723,0.30895817
-8.571615,4.5239400000000005,-6.995004700000001,-0.18961257,-0.25408503,1.8910293999999999
-5.4492607,2.7830489,-0.8124100999999999,-0.23006929999999998,-0.26686084,2.7411444
-3.469131,1.8098824,0.8807502,-0.29927159999999997,0.46293113,3.3389544
-2.3002915,2.8182437,1.0179955,-0.33121112,1.5206704,3.9101483999999997
-1.6765733,2.7850599999999996,0.7920498,-0.33546972,2.1780837,4.5090055
-2.4608276,3.0980778,-0.5207006,-0.510055,2.3436456000000003,5.2260566
-2.7756939999999997,4.6316120000000005,-0.6040188,-0.64261276,2.4799208999999998,5.8430133
-2.0114741,5.5276084,-0.1787894,-0.5797984,2.6385539000000002,6.334882
-2.8501343999999995,7.864598299999999,-0.28460354,-0.6793519,2.5118603999999998,6.7799059999999995
-3.3875082,11.167983,-1.4519875,-0.7671944,2.3665267999999995,6.6995163
-3.4571601999999997,13.421426,-3.8439197999999997,-1.0099173000000001,2.0450196,6.2390633
-5.293149,15.033806,-7.891634,-0.8842885,1.5227997,5.196246599999999
-5.394816400000001,16.556662,-5.554663,-0.32801718,1.4988364,3.3719587
-6.8853507,14.664437,-3.9758112,0.049916416,1.9289728,1.5615286
-7.067415,11.590579,-4.1336374,0.62482786,2.071095,-0.8557524
-5.5272445999999995,9.064428,-4.6295624,0.9314473,2.2004414,-2.811516
-9.421261,9.628713000000001,-4.648371,0.72916365,0.8180009,-3.6887882000000003
-9.026696000000001,12.627288,-8.246952,-1.233494,-2.471229,0.04918338
5.0147796,16.353413,1.2995822,1.7192889999999998,1.5206704,-2.9115932
17.227097,14.552159,17.205097,2.5758092,3.0415153999999998,-3.479052
0.88663036,9.423607,-13.209903,1.2838466999999998,3.5232787000000005,-3.0521271
-9.643758,8.201549,-8.383517,1.2907757,1.083099,-2.2530978
-17.964529000000002,7.8345270000000005,-4.791037,1.0592053999999997,-1.6594242,-0.7961319
-12.717463,9.401829,-7.6480570000000005,0.5279446,-3.2404306,-0.5347514
-3.3038836000000003,10.287175999999999,-7.830667500000001,0.16435766,-3.1249247,-0.40968114
0.17757314,11.525486,-3.0483646,0.25698227,-1.9500738000000002,-0.42085123
3.5963304,9.899325,-1.2511045,0.32885495,-0.0858702,-0.6934019
4.525999,9.019705,-1.8307791000000002,0.33152529999999997,0.9068905,-0.81051344
2.0221139999999997,8.904697,-3.3668318,0.15744615,0.58751273,-0.7455523000000001
-1.8856157999999998,9.535138,-4.704003,0.05311037,-0.7826929,-0.5118876
-4.67669,8.912263000000001,-4.061332,0.17448056,-1.6881697,-0.38465312
-1.0888924999999998,9.204939999999999,-2.2335029,0.17926277,-1.4922739,-0.57468456
2.8929427000000003,10.017838000000001,-2.1391044,0.19310322,-0.91842717,-0.89355624
3.9464777,9.297107,-2.1811848,0.2905275,-0.5159891,-1.1911174
3.1387793999999998,8.562757000000001,-2.09326,0.35707690000000003,-0.39036033,-1.4301403
0.85536206,9.730535,-1.9331933000000001,0.48429397,-0.6905919,-1.5669391000000001
0.46253103,10.188362,-1.0994173999999999,0.50026375,-0.46755624,-1.8740995999999999
2.7155037,9.505871,-1.9150741000000002,0.47577676,0.05729916,-2.2084
1.8130043999999998,10.1887455,-3.8415253,0.5247507,-0.19446458,-2.3249705
-2.2094650000000002,11.455661,-3.536801,0.51729816,-0.91790354,-2.3281646
-3.5574007000000005,13.729167000000002,-2.2391531000000002,0.5204920999999999,-1.2351695,-2.4011017999999997
-1.2886933999999999,14.104548000000001,-1.4316655,0.5497787,-1.245816,-2.5251248
-0.06010404,14.0339,-1.2363753,0.7371398,-1.7291675,-2.5363123
-0.5538841999999999,14.03935,-0.720377,0.9596518,-3.2079675,-2.3169944
0.71158546,16.882215,-1.4576091999999998,0.76110315,-5.0343847,-2.063084
4.444472,19.412369,-2.5011842,0.5598841999999999,-4.631387999999999,-1.999711
6.1778927,14.068253,-7.3171015,0.32991958,-3.4629426,-2.1817662999999996
5.0052223,18.348223,-5.8908949999999995,0.15053464,-1.9325159,-2.2334106
6.3993754,16.659945999999998,-2.5690072,0.67006683,0.070598565,-2.494791
-0.9150925999999999,11.179112,-3.2949483,0.7765319,1.7218895,-1.6079370000000002
-8.874080000000001,5.648257,-5.6968974999999995,-0.046949357000000004,1.3976946000000001,0.36538467
-7.089643,3.5654738,-6.7895923,-0.49890235,0.74399894,1.8510962
-4.741103599999999,2.1174607000000005,-1.2944586,-0.62611943,0.7349581999999999,2.7746720000000002
-4.005326999999999,1.7219769,0.27972895,-0.7650475999999999,1.347656,3.3682237
-4.137496499999999,2.677292,-0.42671376,-0.9838421,1.9699531000000003,4.0948567
-3.4849906,2.4787555,-1.1780621,-1.0977597,2.0769417000000003,4.754398999999999
-3.2583745,2.1840580000000003,-1.4350844999999999,-1.1403458,1.9220264,5.4384284
-3.225756,3.071914,-1.0009679,-1.0716845,1.8043911,6.0117517
-2.8730707000000004,4.7182627,-1.124614,-0.9188984,1.8427186000000002,6.592510000000001
-3.4453042000000003,7.387682400000001,-1.3429173,-0.7948753000000001,1.997093,6.94278
-2.7348585,10.306761,-2.40918,-0.746966,2.2244046,6.676635000000001
-2.0779946,13.048715,-4.9483747000000005,-0.83637923,2.0599074,5.977683
-4.7993974999999995,15.904319000000001,-7.680771400000001,-0.6351602,1.6840856,4.735234999999999
-7.4091735,17.54768,-5.0930222999999994,-0.27106708,1.4562503,2.9397104
-9.182702,14.087473999999998,-4.466891,0.27349308,1.5738856,1.0105456
-5.3840523000000005,10.454464,-3.6788442000000003,0.7871784000000001,2.1567907,-1.4359871000000002
-5.611405400000001,9.252286999999999,-4.659883,1.1103086000000002,2.3798437000000003,-3.3933562999999993
-9.230394,10.449273,-4.0067635,-0.12627457,-0.18490018,-3.0116878
-7.9887619999999995,15.780068,-8.072961,-1.1802788999999998,-1.6290903,-0.3782652
11.333787,16.492123,9.318923,2.5960202000000003,2.7801522999999997,-3.5487955
9.382014,11.372027000000001,9.2301655,2.1930585,3.4955977999999996,-3.2639925
-3.7522599999999997,8.425646,-13.991867999999998,1.3248271,3.1916312999999996,-2.9552438
-11.152928,7.766494000000001,-8.991157000000001,1.2274201999999999,0.38360593,-1.7303718000000001
-17.89663,8.4361515,-4.290409599999999,0.8808851000000001,-2.4201259999999998,-0.6401693
-11.433108,9.124149000000001,-8.69846,0.44703117,-3.5364037000000006,-0.500159
-2.946793,11.206358,-5.4346557,0.36770597,-2.8545034,-0.33887312
2.1283207,11.364241999999999,-1.5385619,0.36877063,-0.9157742,-0.6598566
5.982085,9.758372999999999,-1.5358708,0.44223154,0.8057486999999999,-0.88823295
3.8236167,8.659683,-2.5424411,0.29798007,1.0639353,-0.9111142
-0.6004275,9.431287,-5.189183,0.09889036,-0.084823005,-0.68488467
-4.895587,9.328241,-5.073409,0.13880603,-1.5008086,-0.40807542
-3.3652134,8.780236,-2.5276162999999996,0.2213252,-1.5923511000000001,-0.45279077
1.8342363000000002,9.848415,-2.0690596,0.18299778,-0.8247379000000001,-0.78389716
3.6909204,9.93633,-2.5570169999999997,0.25113544,-0.4734031,-1.0420837
2.3635848,8.849295,-1.8116542000000002,0.33843678,-0.45478043,-1.244891
1.2020808,9.080095,-2.250013,0.40071014,-0.5681745,-1.3934186000000002
-0.29747477,9.704436,-1.9959598000000003,0.49014083,-0.7198785,-1.5137066000000001
-0.061387334,10.108004,-1.7356718,0.5332679,-0.58253855,-1.7958565
2.2986252,9.60547,-1.0907311000000002,0.5045223,0.015777776,-2.1636846000000003
2.6087892000000004,10.863489,-3.2039685,0.5103692,-0.05766568,-2.3941903
-1.6546903000000002,12.107660000000001,-3.3867898000000003,0.590218,-1.0371443999999999,-2.3968432
-3.4026108,13.574385999999999,-2.6028132,0.6423859000000001,-1.5497651000000001,-2.479886
-0.9266230999999999,13.904575,-1.7112796000000001,0.7429866999999999,-1.7813354,-2.568252
0.013388377,14.251591000000001,-1.5008101,0.9798802,-2.7017347999999997,-2.486815
-0.31891724,15.774476000000002,-1.0969178999999998,0.8547925,-4.37856,-2.2201111
1.9854923,19.051668,-1.9142505,0.7637560999999999,-5.6742225,-1.9635303
5.201288,16.210048999999998,-4.311373000000001,0.5465673000000001,-4.3583317,-1.9922758000000003
7.0393550000000005,14.655301000000001,-5.94011,0.21174334,-2.6495495,-1.9252028
3.2140338,19.694014000000003,-5.6435260000000005,0.45074874,-0.8843757999999999,-2.5517585
4.351883,13.857496,-1.2546958000000001,0.7887841,1.3370094,-2.2834666
-5.66448,8.400172,-5.1978599999999995,0.37995818,2.116875,-0.7530223
-9.213989,4.0424370000000005,-8.092249,-0.32110570000000005,1.2864473,1.0935883999999998
-7.016227199999999,2.9231384,-3.2707857999999996,-0.54894096,0.79670787,2.2317002
-5.7657647,1.9575471999999998,-0.63187766,-0.7570715,0.6673441,3.0003781000000003
-4.5507550000000005,2.1318259999999998,0.008025364,-0.8917584999999999,1.1746415000000001,3.7105002000000002
-3.4349515,2.1855900000000004,0.058475982,-0.9034697,1.7383828000000001,4.304034
-2.612572,1.8494058999999998,-0.96687436,-0.9540318999999999,1.9550306,4.935912999999999
-3.1348717,2.120784,-0.99554735,-0.9795834999999999,1.9885758000000002,5.623154
-3.1174517,3.4074565999999997,-0.9609847,-0.91144586,1.8677292,6.1709085
-2.7784998,5.464986,-0.9641929,-0.70438,1.8043911,6.754878
-3.4730193999999996,9.023574,-1.1728524,-0.5963092,1.923632,6.9784546
-2.2799215,11.98862,-2.4493449000000003,-0.65486497,1.9646124,6.5744110000000004
-2.5338125,14.298785,-6.2271175,-0.81669194,1.5861378000000002,5.852054
-5.3884573,16.684492000000002,-7.7775545,-0.6756344,1.0766937,4.544121700000001
-6.490844,17.212711,-4.4873753,-0.24764477,1.5137415,2.696429
-8.243016,12.9533205,-3.1781015,0.46991244,1.8741171000000003,0.61023694
-3.7783184000000003,10.269544999999999,-3.2261580000000003,0.8276351000000001,2.6257606,-1.7357125
-6.678903,9.810519000000001,-4.3056846,1.1928104,2.2893310000000002,-3.3241541
-11.011086,10.083707,-5.276045,-0.028326694,-0.95516634,-2.7455251
-8.274754,14.438568,-6.6738753,-0.9119869,-2.6123042,-0.34686673
8.609588,14.311732999999998,5.0961637,1.331215,0.46186647,-2.800346
15.222612,15.002029,12.714456,2.2271273,3.3518524,-3.1777732000000003
1.1660815,8.829883,-9.902916000000001,1.5782139,3.5450952000000004,-3.1586096
-7.7563133,7.854121000000001,-8.903749000000001,1.2785233999999999,1.9017979999999999,-2.2600443
-15.749385,8.375875,-5.321142,1.0155548,-0.7491651,-1.0053444999999999
-12.540101,9.567853,-7.8852553,0.51729816,-2.764008,-0.6550744000000001
-5.360723,9.737649000000001,-7.8891053,0.20268509,-3.0844681,-0.41552799999999995
-1.6275879,11.433413999999999,-2.665484,0.32566097,-2.1683447,-0.42510983
2.9347453,10.313886,-1.4261781,0.34376004,-0.22588049999999998,-0.6934019
5.213614,9.153378,-2.1676815,0.36184165,1.0452951,-0.8323475
2.5805759999999998,8.797456,-3.2172612999999997,0.13295919,0.7562337,-0.7886968000000001
-1.9812019,9.6164255,-5.9296136,0.02008874,-0.81356776,-0.5235988
-5.025688,8.999738,-4.118323999999999,0.12709488,-1.7387494,-0.37987092
-1.3124343,8.806189999999999,-2.2238781000000003,0.17819811,-1.5231663,-0.5539326
2.820944,9.7399,-1.7962546000000001,0.19523253,-0.7576823,-0.91059065
4.450572,9.233507000000001,-2.1872566000000004,0.25324726,-0.21736329999999998,-1.2140336
2.5570266,8.75232,-2.3436265,0.32937855,-0.31798154,-1.3529618
-0.30877540000000003,9.584975,-2.3915393,0.39166933,-0.7427772,-1.4375927
-1.5949788999999999,10.090814,-1.7764019,0.46778315,-0.9120566999999999,-1.562698
0.38355112,9.669348,-1.3824024,0.46724209999999994,-0.35205036,-1.8373779
2.7658489,9.643892,-2.3718493,0.43743187,0.22710223,-2.1258984
0.72417897,10.984223,-3.413739,0.45287803,-0.10611602,-2.233428
-3.3311292999999997,12.462241,-3.5963017999999995,0.48642325,-0.89128727,-2.2057471
-3.2567751,13.793923999999999,-2.4591706,0.49014083,-1.1915188,-2.2430098
-1.4918653999999998,13.59193,-1.9249764999999999,0.49759337,-1.408184,-2.2781434
-0.98367214,13.756086999999999,-1.8036766,0.65996134,-2.1225647999999997,-2.2201111
-0.8652358,14.267028,-1.2298632,0.64825016,-3.7413576,-2.0167627
1.5885432,16.71059,-2.0460176,0.590218,-5.252097,-1.8740995999999999
5.226944400000001,16.525507,-2.249094,0.5087635,-4.319480400000001,-2.0433965
6.9829479999999995,13.526569,-6.4205785,0.23727751,-2.9343522,-2.3553393
5.5577846,19.084211,-5.5856247,0.102607906,-1.3469578000000002,-2.5448296000000004
4.974260299999999,15.825644500000001,-2.2425146000000002,0.5848946999999999,0.40596357,-2.657159
-1.7473172,11.228126,-2.4374792999999997,1.0001086,2.0029573,-1.6095426000000002
-9.053425,5.3411,-7.4767470000000005,-0.1795071,1.2294798,0.36058503
-6.360187000000001,4.138713,-6.30943,-0.47919759999999995,0.8089427,1.8298032
-5.3038172999999995,2.4298751,-0.18393214,-0.6405009,0.804143,2.5782528
-5.449471,2.6157613,-0.4387997,-0.86887723,1.2017988000000002,3.3410664
-4.928895,3.1884349999999997,-0.803609,-1.057844,1.5818791,4.137425
-3.1504917000000003,2.3370472999999996,-1.1697495,-1.1430161,1.6675749,4.771416
-3.0507014,2.2189653,-0.90880066,-1.1254581,1.7085726000000003,5.4165944999999995
-3.3803542,3.180582,-0.6662680000000001,-1.0386803,1.7697813999999998,6.028245
-3.073226,4.6676593,-0.78697413,-0.86088365,1.8203609,6.610608999999999
-3.5169002999999996,7.2359285,-1.1789048999999998,-0.7219554,1.8437833,7.0157
-3.2294717,10.585177,-1.9150167000000002,-0.68521625,1.9949636000000002,6.809698599999999
-2.619745,13.281451,-5.224292,-0.8427846,1.8900868999999998,6.228923
-4.3097453,15.244188000000001,-7.544407400000001,-0.63465405,1.6063662,5.070600499999999
-5.2394233,17.120325,-5.524879,-0.34293973,1.5493985000000001,3.3543657999999996
-7.545116,14.485064000000001,-4.8505855,0.16435766,1.7846863999999998,1.6211141000000002
-5.1963468,11.47765,-3.1115716,0.72223467,1.9821879,-0.602924
-4.9528375,9.318166,-4.733557,1.0847396,2.2100058,-2.4713862
-9.222283000000001,8.853489,-4.005863,0.93142986,0.7434579000000001,-3.5014272000000006
-10.970079,12.214604,-5.429982,-0.7757116,-2.4563415,-1.2001932
-1.9327816000000002,15.259924,0.30114270000000004,-0.32803464,-1.3022425,-0.9686228000000001
16.154320000000002,14.2824955,12.175321,2.5119127999999997,2.9776363,-3.3071370000000004
9.0831995,12.942413,1.5230953999999999,1.9971453000000001,4.409051,-3.4066732
-3.7308652,7.9193106,-11.356111,1.437139,3.1841612,-3.1383812
-13.303410999999999,7.917366,-8.411032,1.1645885,0.63858104,-1.5696268999999998
-19.564383,8.722661,-5.820199,0.7717321999999999,-2.4233372,-0.6614798000000001
-9.148253,8.770353,-8.872797,0.26017624,-3.4720185,-0.42619196
-2.8364107999999995,11.549016,-5.117290000000001,0.22610740000000001,-2.8805962000000003,-0.3165329
1.7466372,11.159058,-0.95463526,0.38526398,-1.1116873999999999,-0.58002526
5.9517365,9.483586,-0.8565783000000001,0.46245990000000003,0.8222421,-0.82063633
4.4167657,8.491342999999999,-2.1745577000000003,0.31127948,1.2710011,-0.8786511
0.054798488,9.126686999999999,-5.0434722999999995,0.11058406,0.12648399999999999,-0.68490213
-4.5415897,9.386257,-5.3123317000000005,0.13561209,-1.4097723,-0.41022217
-3.8517056000000003,8.768792,-2.7994060000000003,0.20746729,-1.6775407,-0.42512730000000004
1.0595204,9.964284,-2.0678047999999998,0.19043288,-1.0376855,-0.73652893
4.092639,9.976064,-2.167375,0.25272366,-0.4590565,-1.054877
3.3128089999999997,8.813822,-1.8636370999999998,0.3581241,-0.31850514,-1.2864124
1.4372871,9.130747999999999,-2.2128646,0.42039746,-0.52932346,-1.4056708
-0.61553967,9.989136,-2.19623,0.46883035,-0.910992,-1.5073535
-0.2991986,10.065463000000001,-1.8609171999999998,0.5087635,-0.76194096,-1.7926799999999998
2.3675973,9.333691,-1.6369348,0.48959976,-0.13007939,-2.1280277
2.2313959999999997,10.246311,-3.7650544999999997,0.49598765,-0.17957693,-2.3239232999999997
-1.7849061000000002,11.733178,-3.67441,0.4927937,-0.8976926,-2.3207294999999997
-3.6827513999999995,13.86396,-2.1944966,0.49652870000000005,-1.3725268999999998,-2.3739793
-1.4621103000000002,13.926276000000001,-1.7872907999999998,0.5492201999999999,-1.5151901,-2.4777741
-0.09916783,14.123234,-1.3934733,0.7131764,-2.030481,-2.5070607999999996
-0.32557312,14.645332000000002,-0.82172835,0.8776563000000001,-3.6290457000000003,-2.2499387000000004
0.71107787,17.327374,-1.9156103,0.83028805,-5.4171352,-1.948119
4.807557,19.399057,-2.2535088,0.5513494999999999,-4.3769717,-2.0103923999999997
7.12593,13.879283,-8.238841,0.311262,-3.063716,-2.2856132999999996
5.6000760000000005,19.055557,-4.9820175,0.37568212,-1.2974603,-2.6284134
4.697471599999999,14.462204000000002,-1.7088375,0.92610663,0.51614624,-2.5294185000000002
-4.362599400000001,9.681836,-3.0393814999999997,0.815924,1.4109938999999998,-1.1001159
-10.015578,4.9853888,-8.530617,-0.14226179,0.46397832,0.8348608000000001
-6.704732000000001,3.8571739999999997,-3.8058517,-0.29715976,0.07698647,2.1502457
-4.7436795,2.1777849999999996,-0.40282923,-0.43237042,0.25637139999999997,2.8401394
-3.259696,2.2627313,-0.29195854,-0.60271454,1.1581306,3.430497
-2.2041404,2.9525201,-0.11906844,-0.72143185,2.1461267000000004,3.987833
-1.8565406999999998,2.8218446,-0.86912394,-0.91305155,2.6012735,4.6590867
-2.4010968,3.0192895,-1.3635745000000001,-1.047215,2.822721,5.277648999999999
-2.2886748,3.9113882000000006,-1.3118789,-1.0663787,3.0697200000000002,5.8035865
-2.3883886000000003,5.397344599999999,-1.4796837999999999,-1.135581,3.0218107999999995,6.324200599999999
-3.3233724000000002,8.983457000000001,-2.8013597000000003,-1.0823485000000002,2.8578544,6.6505246
-3.7730992,11.261836,-2.6446352,-1.0349628,2.4644747000000002,6.494562
-3.7297544,12.705032000000001,-7.1602619999999995,-1.0690316,1.6234006,6.0404797
-6.599502,14.97599,-9.182157,-0.6224193,0.5640555,4.967312000000001
-8.178535,15.965523999999998,-5.241492,-0.19868828,0.21059142,3.3357254999999997
-10.031131,13.701863000000001,-5.40174,0.19736183,0.57684875,1.390626
-5.044765,11.504895,-2.6824443,0.71265286,1.5999608,-1.1437666000000002
-4.4686627,8.982441,-3.762239,0.9654986999999999,2.2749669999999997,-3.058009
-8.993158,10.169947,-3.665944,0.07810348,0.40542254,-3.3800745
-7.869261999999999,14.410537,-6.431247,-1.3708688,-1.4928324,0.06991789
8.449645,17.830587,5.01501,2.5390527,3.4002852,-3.539772
12.871689,12.893006,13.531732,2.3569972999999997,3.5999162000000005,-3.5072916
-1.9982006999999997,7.8213015,-17.45102,1.2066508999999999,3.4955803999999997,-2.9962590000000002
-11.717423,7.976886299999999,-7.5289693,1.1779051999999999,0.6140941,-1.8230138999999999
-20.096422,7.9837622999999995,-6.432195,0.7893077,-2.1624978,-0.56353194
-11.264308,9.168307,-8.744429,0.4044277,-3.3463894999999995,-0.37615335
-2.9201791,11.089281,-5.674191,0.21970205,-2.7906418,-0.23136084
0.6906505999999999,11.259413,-1.4202979,0.37994072,-1.5418065,-0.35273105
3.849388,9.993982,-0.39083904,0.5034402,0.062081363,-0.58056635
4.6108975,9.022329,-2.6254717999999997,0.33361968,0.83288854,-0.7061951
1.9599128000000001,8.884395,-4.9905696,0.09300859,-0.010297443,-0.5832366999999999
-2.628345,9.159201,-5.214341,0.106325455,-1.3858438,-0.3639186
-3.2564015,8.852388000000001,-2.7667490000000003,0.25218263,-1.8345854,-0.43629742
1.5241774,9.568274,-1.7156082,0.24685937,-1.2958721000000002,-0.74026394
5.336101,9.732275999999999,-2.6871467,0.23143066,-0.5223945,-1.2044517
5.1161695,8.568819,-2.7538204,0.34960690000000005,-0.27593654,-1.5025538999999999
2.1397076,8.84602,-1.2451861000000002,0.43477896,-0.48193777,-1.6249888000000001
-0.43078393,9.989098,-2.366151,0.5119574,-0.75183547,-1.7612641
0.5430337,9.98475,-1.6116617,0.52314496,-0.41753513,-2.0609546
2.4361097999999997,9.225664,-2.0491877,0.52473325,0.048764499999999995,-2.3617272000000002
1.2338183999999999,9.958653,-3.2859366000000003,0.57157785,-0.24186772,-2.4468992000000003
-2.709451,11.935307,-3.5818790000000003,0.5694486,-1.0302329,-2.437841
-3.924901,13.8386,-2.51395,0.607776,-1.4662162,-2.4985435000000003
-1.4847785,13.897958,-1.4125503000000001,0.6769783,-1.6030326000000001,-2.6108729999999998
-0.66048366,14.183241,-0.9630533000000001,0.8696801,-2.2434112999999996,-2.5842392000000003
-1.1442177,14.890259,-0.70098394,0.9266302,-3.9692104,-2.2728376
1.1592149999999999,18.691437,-1.8353088,0.8781973,-5.46131,-1.9710003
4.3199635,18.534855,-3.1489305,0.5806187,-4.255601400000001,-2.027968
7.965203,14.286862,-7.121687,0.34693655,-2.8534563,-2.2989127999999996
4.740203,19.139324,-5.5178400000000005,0.42252675,-1.3208826999999999,-2.5390002999999997
4.1506267,14.281882999999999,-0.882474,0.9782745,0.5470210999999999,-2.3399105
-5.193435,9.218835,-3.3159406000000002,0.8505164000000001,1.4210994,-0.7530398
-11.593414,4.268957599999999,-8.520398,-0.04483751,0.38679987,1.3469578000000002
-7.683758999999999,3.300522,-3.984124,-0.21305235,-0.06033603,2.6335971000000002
-4.985446499999999,1.6842731,0.0651989,-0.29876545,0.055693455,3.3447837999999996
-3.3635085,1.4865503,0.17648139999999998,-0.38711402,0.69129,3.9010727
-2.6080327000000003,2.2535182999999996,0.46146800000000004,-0.44940484,1.3231516,4.5201583
-2.004148,2.3057024,-0.26915616,-0.48879692,1.5914435,5.0923996
-2.2618406,2.684168,-0.3211295,-0.49679053,1.735695,5.7418365
-2.157511,4.078532,-0.4901697,-0.47921506,1.8432422,6.2214704
-1.687941,5.8541584,-0.1294497,-0.37913787,2.0620192999999998,6.6824639999999995
-2.2699903999999997,9.360515,-0.8447893,-0.40149555,2.3766322,6.84855
-1.7313334999999999,12.745455999999999,-1.3153169,-0.53777087,2.6262841,6.406196
-2.831086,14.926919,-6.4113655,-0.94872606,2.2850723,5.7306666
-6.0000706,16.54174,-8.488192999999999,-0.6639406999999999,1.7282598999999998,4.3333035
-7.1400647,16.314589,-3.9822852999999996,-0.15608479,1.7639169999999997,2.5521599999999998
-10.634574,12.761574000000001,-5.3315234,0.50289917,1.7421004,0.40847686
-6.2316856,10.686749,-3.567849,0.8361349,2.0976937,-1.7037729
-7.592713000000001,9.039625,-5.2237267,1.1821464,1.8847636000000003,-3.5796878
-10.345987,10.149203,-4.8374752999999995,-0.71504396,-1.3789148,-2.0237093
-5.9150279999999995,17.551117,-7.8198365999999995,-1.0589261,-1.2804258999999998,-0.70034826
18.672398,18.321428,17.088575,3.1746492,3.7979412000000004,-3.9219642
6.6240380000000005,8.825334,2.684312,1.9503006999999999,3.7053165,-3.2672215000000002
-6.667611999999999,7.6799764999999995,-13.922004999999999,1.4243633,2.8690245,-2.9137573
-13.893188,8.085535,-8.378528999999999,1.1299785,0.16322319,-1.3268865
-17.860945,8.829491,-6.0613236,0.7562861,-2.5383196,-0.5523618
-8.56135,8.924894,-8.913,0.29902726,-3.3304197999999996,-0.42247438
-2.1683328,11.489056,-5.238274,0.2681524,-2.8055470000000002,-0.28778735
1.6879313999999999,10.862119,-1.0247949,0.41666245,-1.1425624,-0.5560793
5.507813,9.642724000000001,-1.2472546,0.47628290000000006,0.66786766,-0.7940375
4.5065102999999995,8.610746,-2.712803,0.32777283,1.0718938999999998,-0.8398174999999999
0.034352005,9.203991,-5.2026577000000005,0.102607906,-0.14072590000000001,-0.61463517
-4.707192,9.528203999999999,-5.4842925000000005,0.13346533,-1.6802111000000002,-0.3207915
-4.1290402,8.769961,-3.0886447,0.20268509,-1.9655373999999999,-0.33143803
0.99498236,9.799123,-2.3302286,0.17765707,-1.3427167,-0.6199584
4.1637177,9.819541000000001,-2.8996177000000003,0.17924531,-0.70286155,-0.9313775
3.7887475,8.721905,-2.7544239,0.26228809999999997,-0.536776,-1.1906112
1.5324903,9.025527,-2.3064206,0.35810664,-0.77419317,-1.3236926000000002
-0.11359051,9.640608,-1.8672571,0.42039746,-0.97754145,-1.5286466
0.96557194,9.652167,-1.308211,0.45233697,-0.5953318,-1.8283371
3.0930595000000003,9.523292,-2.0236654,0.47788859999999994,-0.019355701,-2.2063055
2.0432405,10.285528999999999,-3.2527432000000003,0.49651125,-0.17160077,-2.4000547
-1.6094398,11.893379,-3.650315,0.5151514,-0.8481777,-2.4378583
-3.1151917,13.921288,-2.3280258,0.5518731,-1.3783736999999998,-2.4836384999999996
-1.6356037,13.900917000000002,-1.3916728,0.6386509,-1.6413598999999999,-2.5751984
-0.8859983,14.252194,-0.5749628000000001,0.8137772,-2.2290473,-2.5469939999999998
-0.6922116,14.730507999999999,-0.2472157,0.87713265,-3.7887432999999997,-2.2808137000000004
0.94163954,17.916971,-1.3188028,0.79089594,-5.435758,-1.9795175999999999
4.5162015,19.40307,-2.588017,0.5561316999999999,-4.3072457,-2.0167978
6.631479,14.795869,-7.193063,0.23460716,-3.2479181,-2.0939763
4.7230134,19.624935,-5.6895904999999996,0.19575612,-1.8047751,-2.2893310000000002
6.188465,15.198747000000001,-1.8845241000000001,0.91439545,0.22869049,-2.3058417
-2.192677,10.1108675,-3.5673318,0.81431824,1.6835271,-1.1453723
-9.058213,5.9831004,-6.533499,0.0009250244999999999,1.2385031000000002,0.7534063
-8.030823,3.6407669,-5.736411599999999,-0.39139009999999996,0.56299084,2.1576982000000005
-5.4578123,2.2281972999999997,-1.6001598999999997,-0.6793694,0.48474774,3.0264533
-4.326849,1.8263161,-0.76308954,-0.91039866,0.95958203,3.7025065
-3.7835282999999995,2.4256136,-0.17669210000000002,-1.0115404000000001,1.6377646000000001,4.328521299999999
-2.7196982000000003,2.2341349999999998,-0.4408683,-1.086066,2.0407262,4.908215
-2.44584,2.0971963,-0.77636296,-1.0536028999999998,2.2478096,5.514542
-2.588582,2.8586099999999997,-0.9972042,-0.99611175,2.3888671,6.041003
-2.212587,4.378861,-1.5613643,-0.8736769,2.5192955,6.584516499999999
-2.7328951,8.179005,-2.2019856,-0.7251494,2.772665,6.8985710000000005
-2.3384361,11.691097000000001,-3.3336097999999996,-0.71610856,2.9323626,6.5674644
-2.040741,13.471569,-7.2710567,-0.89442885,2.2664322999999995,5.809450599999999
-4.9221816,15.964891,-9.586623,-0.7421838000000001,0.8765218000000001,4.529199
-9.295843,17.072687,-6.3677150000000005,-0.45472807,0.53956854,3.2244782
-10.548422,13.177494,-4.5083485,0.43423793,0.7280116999999999,1.1350924
-3.5391855000000003,9.735896,-3.1038813999999997,0.9931796,2.2696261000000004,-1.5696444999999999
-4.1452155,9.297892,-3.0987673,1.2886115,2.6592884,-3.2954432999999996
-9.549369,9.804036,-5.1487110000000005,0.11217231,0.620482,-3.2060127
-6.7429533,14.317910000000001,-5.57849,-1.2356582,-1.0419440999999998,-0.071663216
8.680552,16.944204,5.8567443,2.058895,3.0941894,-3.39765
14.768901999999999,13.845324,15.732184,2.8456547000000003,4.183326999999999,-3.6206856
-2.0201029999999998,9.229657000000001,-12.236180000000001,1.7442819999999999,3.7585316,-3.4636583
-10.658421,8.589955,-11.593711,1.253478,1.3077054,-2.1844716
-21.416939000000003,6.753957000000001,-5.7551246,1.1576594,-2.0182290000000003,-0.57578415
-14.063694,8.439561,-8.087833,0.5577373999999999,-3.6269164,-0.28087583
-4.3867617,11.001749,-8.609196,0.17179276,-3.4645657999999995,-0.15098843
0.5232192,11.877137,-3.2922285000000002,0.2809282,-2.0230286,-0.20902063
3.745058,10.171459,0.33052433,0.50235814,0.16374679,-0.56567866
5.5939665000000005,8.97659,-0.7186819000000001,0.54654986,1.2986646000000002,-0.68544316
2.6888224999999997,8.739248,-3.7426448,0.28464574,0.87866855,-0.6465747
-1.8526334,9.670516000000001,-5.631105000000001,0.095137894,-0.8939751,-0.39159954
-5.029078,8.959515,-5.134375,0.18830357,-2.1023537999999995,-0.23509584
-1.4172908000000002,9.01572,-2.5422877999999995,0.23034856,-1.8106395,-0.40385175
3.5786612,10.14452,-1.8216428,0.22821926,-0.762482,-0.8126777
6.105473,9.126467,-2.3515083999999997,0.26548204,-0.05503023,-1.1815704
3.4803263999999996,8.607787,-2.5840428,0.37833503,-0.28019515,-1.3748133
0.10055647,9.440424,-1.679293,0.4651128,-0.7752578,-1.4338927
-0.6905644000000001,9.731999,-1.8480651000000001,0.5438970000000001,-0.83009607,-1.6670512
2.4256806,9.70552,-1.2589478,0.5577373999999999,-0.19022344,-2.0897175999999997
4.1233325,9.543901,-2.4637008,0.5598666999999999,0.1291369,-2.3984662999999995
0.3619171,10.255438999999999,-3.9624227999999997,0.62374574,-0.4372399,-2.4282765
-4.022977,12.448145,-3.8311057,0.6280044,-1.2666028999999999,-2.3628092
-3.7390822999999997,14.027895999999998,-2.207435,0.65674996,-1.5157312,-2.4261472
-1.2579902,13.789979999999998,-1.1178241000000002,0.76906186,-1.6882046000000002,-2.5352826
-1.1211663,14.064231,-0.2512188,1.0011557,-2.577188,-2.4618217999999996
-0.8115769,15.77188,-0.16620548,0.94898784,-4.217815,-2.1961827
2.4682112000000003,19.770761,-1.8952788,0.7679971999999999,-5.099345700000001,-1.9768646
4.536466000000001,16.591225,-5.1010860000000005,0.6232047,-4.0054083,-2.0205151999999997
8.610688,14.738725,-5.2875752,0.22343706,-2.7821245,-2.0450022
3.0798723999999997,18.752815,-4.970803299999999,0.39856339,-1.2256051000000001,-2.3233998
2.4827103999999998,12.862945,0.37565982,0.88191485,0.85364056,-1.996552
-6.312667,8.442472,-5.2263126,0.5215393,1.7724342,-0.48315948
-10.4998,3.734428,-7.954227400000001,-0.16036086,0.8371296999999999,1.3293823999999999
-7.2229524000000005,2.018427,-3.7468681000000004,-0.36370915,0.31012756,2.5824764
-4.689417400000001,1.3205651000000003,-0.6289951,-0.54735273,0.33356732,3.3607535000000004
-3.6391002999999995,1.562753,-0.19623834,-0.72356117,0.8696103000000001,4.0250783
-2.7807312,2.380459,-0.062009823,-0.7927635000000001,1.2965353000000002,4.5542097
-1.8901168999999998,2.5236707000000003,-0.15160085,-0.7874401999999999,1.4982953,5.0977225
-2.6452002999999995,2.9838266,-0.7630608,-0.821509,1.4487803,5.6917976999999995
-2.4848267999999996,4.617217500000001,-0.97057104,-0.7975456999999999,1.449845,6.212953
-1.8587528000000002,6.690558,-0.8807119000000001,-0.65010023,1.7293246,6.621238000000001
-1.5648886,9.829261,-0.9920614,-0.60644954,2.2728200000000003,6.625497
-0.66824085,12.4839325,-2.1317779999999997,-0.6751283,2.628937,6.154921
-2.165651,14.810148000000002,-6.430797,-0.8646360999999999,2.4202654,5.325017
-5.141021299999999,16.454266,-8.49526,-0.44036403,1.8677118000000001,3.8696394
-6.098013,14.893935999999998,-4.3429,0.029129544,1.7128136999999999,2.1299999
-10.790753,12.613717999999999,-6.3338223,0.5050285,1.2576668,0.15880750000000002
-6.924740299999999,10.367382000000001,-4.2908883,0.9032079,1.5605687,-1.8826518
-7.1601667,9.356779,-4.6256166,1.0565176,1.6776803,-3.8165812000000003
-7.6855884,11.0518265,-4.110404,-1.0312451999999999,-0.91898566,-1.7383828000000001
-2.7388039,18.480335,-2.9450212000000002,-0.24766222,0.7280116999999999,-1.7575465000000001
19.866634,16.103373,23.300235999999998,3.3636160000000004,4.2227190000000006,-3.6355906000000004
1.323352,6.531966000000001,-2.267788,1.8959861,3.6467433,-3.1730087000000005
-7.267015,10.290576,-17.467367000000003,1.1959868999999999,2.5544113999999998,-2.4714036
-15.000735999999998,7.8077216,-6.439349,1.1534008,-0.48886672,-1.0980041
-17.715999999999998,8.0367985,-6.228889,0.62374574,-3.1313299999999997,-0.36765359999999997
-7.883685000000001,9.887468,-8.316413,0.25270623,-3.723817,-0.28726375
-1.1624329,12.256752,-3.417062,0.30539772,-2.7256982000000005,-0.28248155
4.2270303,10.719827,-1.0712329,0.37140608,-0.42605233,-0.6678851
6.9861083,9.062369,-1.3449188,0.4326322,1.3849013000000001,-0.9100845
3.6315345999999997,8.524038000000001,-3.3163332999999997,0.24205971,1.3050525,-0.8706924000000001
-1.5850285,9.39365,-5.628222,0.05681047,-0.25305527,-0.610394
-5.5657144,9.311577,-4.805556,0.14304718,-1.6951162,-0.35168386
-3.0647027000000002,8.917978999999999,-2.0053833,0.21490239,-1.7031096999999997,-0.46293113
2.1222205,10.303007000000001,-1.5102528,0.21544345,-0.879611,-0.8094836999999999
4.519707,10.162869,-1.6592871,0.26494098,-0.35632643,-1.1416547
2.9643185,9.020317,-2.1311364,0.32936108,-0.34567990000000004,-1.3061346
0.9553056000000001,8.812712,-2.7938417999999996,0.38524652,-0.6240774,-1.4275048000000001
-0.46781746,9.860930999999999,-1.9483631000000001,0.44860196,-0.766217,-1.6095774999999999
1.1020032,9.958855,-0.54651964,0.44753733,-0.19715239,-1.9960282999999999
3.62146,10.04744,-2.818349,0.40175733,0.15149458,-2.2664497000000003
0.46911988,11.43125,-3.911618,0.4161214,-0.53784066,-2.3665267999999995
-3.3987608,12.679061,-3.082851,0.47895324,-1.3022599,-2.4139125
-2.1144152000000003,13.757591,-1.5005898000000002,0.50982815,-1.3826323999999999,-2.5602932000000003
0.13566504,13.668153,-1.0321977,0.6061703,-1.567358,-2.6529179
-0.014460978000000001,13.784434,-1.1622701000000002,0.77279687,-2.6394615000000003,-2.509731
-0.22299594,15.522452,-1.7451432,0.6775019,-4.0847335,-2.2914777
2.6628408,17.131681,-0.8443487,0.64823276,-4.501536,-2.159461
5.6253400000000005,14.140893,-5.1198760000000005,0.5305801,-3.1025846,-2.378779
7.2862167,14.760484,-4.872986,0.1728574,-2.0315459,-2.308512
1.8875791000000002,18.350128,-4.9818739999999995,0.508746,-0.7422536,-2.4570222000000004
0.50081915,13.20364,-1.0789231000000001,0.7616093,1.2044343000000002,-2.0934527
-7.449185000000001,8.275099,-4.7782807,0.15528195,1.5248941,-0.48370054
-7.995379,3.8358176,-8.842582,-0.4989198,0.7045894,1.4134898
-5.724287,2.719995,-1.9826959,-0.7070678,0.5001764,2.5244617000000003
-5.156009,2.0437288000000002,-0.17268898,-0.8939053,0.5581911999999999,3.1510000000000002
-4.3197145,3.117375,0.16155115,-1.0152755,1.0612475000000001,3.7567863
-2.8339877,2.9291047999999997,-0.4073495,-1.0759604999999999,1.4482393,4.3327622
-2.5111057999999997,2.5671107999999996,-0.60255355,-1.1004475,1.5185063,4.878928
-2.5932459999999997,3.5874238,-0.31602505,-0.9950471,1.6643633999999998,5.437869999999999
-2.2585845,5.383994599999999,-0.14035769,-0.82576764,2.0710599999999997,5.888758
-2.0027976,7.2246666,-0.19812499,-0.704921,2.5485647,6.349752
-2.1973984,10.201502,-1.9484301,-0.7640179,2.6182907,6.499850299999999
-2.039429,12.785143,-3.4218218,-0.8529075,2.4660456,6.2635155
-4.199095,13.719982,-6.5645757,-0.7858345,2.0087867,5.6928625
-6.257782499999999,15.228885,-5.9777184000000005,-0.39245474,1.2491496000000002,4.353532
-7.5537925,15.615654000000001,-5.2805557,-0.35093334,1.1389669,2.861415
-10.439102,14.051905999999999,-6.148912999999999,0.20266764,1.2959943,0.8380546999999998
-5.493352,10.069113,-2.4592378,0.7110297,1.9060390999999999,-1.2986995000000001
-6.805413199999999,8.873275999999999,-4.16118,1.0075437,2.1003466,-3.2863849999999997
-9.113251,10.604867,-3.8658314,-0.19655898,-0.25837854,-2.60822
-5.9114466,14.614572,-8.379294,-0.9945235,-1.0967823,-0.30803317
13.707925,18.850317,12.261808,2.994182,2.99783,-3.37051
5.815851,9.972483,4.5098715,1.7384351000000002,2.7077212000000004,-3.0058583999999997
-4.5862565,9.618350999999999,-15.619398,1.1906636,2.6129672999999998,-2.5134487
-10.985306,7.213586,-4.603705000000001,1.1965104,0.19462167,-1.4392159
-15.366264000000001,8.728063,-3.4455817000000004,0.91278976,-1.725991,-0.7046069
-7.7045699999999995,10.265169,-7.444119000000001,0.48160616,-2.6266856,-0.58803636
-1.5403143999999998,10.282494,-5.7370915,0.27452284,-2.3434885,-0.42779765
0.844636,10.797821,-2.1812037999999996,0.32032028,-1.3400463,-0.5459739
2.9522614,10.352911,-1.4647248,0.33042574,-0.16734217,-0.7344170999999999
3.4990873,9.145275999999999,-2.619295,0.29955086,0.36336009999999996,-0.77328557
1.574427,8.876589,-3.2621572,0.15102334,-0.02628466,-0.73761106
-1.1110821000000002,9.202009,-4.20984,0.13878858,-0.8572359,-0.61784655
-1.8319759999999998,8.832134,-2.7231457000000003,0.22767820000000003,-1.0116103,-0.6779906
1.3706614,9.446064,-1.8602182,0.21490239,-0.5868146,-0.92978925
2.9349849999999997,9.614500999999999,-2.3024560000000003,0.25164157,-0.40051815,-1.1560363
2.0451462,9.442271,-1.9899262999999998,0.32562608,-0.44788638,-1.3098696
0.27040115,9.368234,-2.1250074,0.36449456,-0.6512346999999999,-1.4280458999999999
-0.27241227,10.036349000000001,-1.8542996999999999,0.42570326,-0.88226396,-1.5834848999999998
0.7612316,9.9594965,-1.2281106000000002,0.44966662,-0.5516810999999999,-1.9444015
3.0869114,9.424957000000001,-1.9314599,0.41666245,-0.012444196999999999,-2.2765725
2.2997360000000002,10.603201,-3.741917,0.4326322,-0.15830137,-2.4788563
-1.6261322,12.314873,-3.5910822999999996,0.45498988,-0.94294906,-2.5469939999999998
-2.8860185,13.795668,-1.6253948,0.5321858,-1.3751973,-2.6140668
-1.2322574,13.764773000000002,-0.66483146,0.62001073,-1.5183841,-2.7253141
-0.47037446,13.970607999999999,-0.21032584,0.7946135,-2.2114717999999995,-2.6571765
-0.75215286,15.870953,-0.96911544,0.64076275,-3.6955949999999995,-2.4144360000000002
1.0686951,18.863838,-1.6916854,0.5742308,-4.9816933,-2.1589375
5.458732,15.804356,-3.0047998,0.45338420000000007,-3.6807074999999996,-2.1514847
5.665476,12.827711,-5.7133985,0.22982496,-2.254058,-2.077483
1.7222258999999998,17.293377,-4.8652287,0.35065409999999997,-0.9722357,-2.1834242
2.2015738,13.847804,-1.2595703999999999,0.5843362,1.2150807,-2.1759543
-6.1626463,8.357277,-4.853640599999999,0.3421369,2.1189694,-0.77328557
-9.044681,3.0167707999999998,-9.139597,-0.48614399999999997,1.1219325,1.2410164
-5.724670400000001,1.888259,-3.1860409,-0.51755995,0.8355415,2.4648411
-4.553063,1.0952803,0.44138545,-0.5585403,0.89729124,2.9918435000000003
-4.691122,2.3991625,-0.47430092,-0.83269656,1.0830641,3.610929
-4.0719724,3.3201163,-1.3960208,-0.9364913,1.1682361,4.3029523
-2.6357098,2.591982,-0.9851085999999999,-0.82789695,1.1293851000000001,4.8485947
-2.9250345,2.9161568,-0.8527283999999999,-0.76349425,1.1128743,5.414971400000001
-2.8703606,5.113919,-1.4860331,-0.6666111,1.2576668,5.9174866999999995
-2.1120882,6.572131,-0.97656614,-0.38180822,1.7037555,6.3720922
-2.2464986000000002,8.814177,-1.0964486999999998,-0.38500217,1.9337201000000002,6.6552896
-1.52186,12.166394,-3.2210822,-0.5095662999999999,1.8921987,6.3795447
-1.9034574,14.194417000000001,-5.596552,-0.6277425999999999,1.6073959,5.866383
-4.9163785,14.778431,-6.5016940000000005,-0.45526913,0.9616939,4.82409
-5.95256,15.707907999999998,-4.470932,-0.20827013,0.754628,3.0892503
-8.212763,14.423408499999999,-4.0480494,0.2777168,1.2353091,1.1755316
-3.5422502000000002,10.695617,-2.4497185,0.8387878000000001,2.1642257999999996,-1.150172
-4.725244,8.596524,-3.2924870999999998,1.2135448,2.431453,-2.9765718
-10.267227,9.123287,-4.5760474,0.3969577,0.48792425,-3.3401587
-7.962664599999999,12.901252000000001,-5.734477,-1.0551912,-1.5189252,-0.57897806
4.7845535,14.491097,4.3435225,-0.07998844,0.9845925999999999,-1.7399886000000002
21.372377,15.536626,15.84043,2.4171414,4.8508635,-3.6068451
1.9905297,11.500912,-1.9964863999999998,1.8273249,4.134353,-3.2736094
-8.175692,9.628828,-10.428061,1.4887658000000001,2.2994362999999995,-2.5725455000000004
-16.19391,6.5013494000000005,-7.3188257,1.2060924,-0.3834663,-1.1033274
-14.58995,8.20242,-8.215588,0.5486791999999999,-2.5920932,-0.58590704
-5.42347,9.018249,-9.7248745,0.024870941,-3.5028932,-0.33571407
-1.8917642,11.794144000000001,-6.0072913,-0.20668189,-3.190427,-0.34423128
1.1701325,11.428118,-1.36458,0.21917845,-1.4518521,-0.55929077
4.9531145,9.673217,1.94481,0.4134685,0.67158526,-0.84887576
6.116065,8.52128,-1.3066882,0.2878397,1.6249714,-1.0149614
1.9492824,8.83741,-4.637377,0.06106907,0.80625486,-0.93565357
-3.1031725,9.78856,-4.417484,0.0137008345,-0.98659974,-0.673732
-5.176944000000001,8.750338000000001,-3.8311634,0.10311405,-1.8867532999999999,-0.5832541
-0.6413779000000001,9.694994,-1.884687,0.097267196,-1.4076604,-0.78977895
3.2827377,10.391765,-1.8399248,0.105243355,-0.5064422000000001,-1.1560188999999998
4.7329826,9.265772,-1.7692192999999998,0.15847589,0.14084807,-1.4200697
2.4791672,8.924885,-2.716739,0.22608995,-0.012967796,-1.5749676000000001
-0.9855971,9.618207,-1.5028691,0.33468434,-0.5298645000000001,-1.6830209999999999
-0.47052768,9.566235,-0.10740388,0.4012163,-0.3249105,-1.9875112000000001
2.4336295,9.988284,-2.0496569,0.32510248,0.11210250000000001,-2.3202232999999994
1.1853501,10.815413000000001,-4.170642,0.32084388,-0.25199065,-2.4240353
-2.5165547999999998,11.8843,-3.6269282999999994,0.35437164,-0.99618155,-2.4634101000000004
-3.0293164,13.60711,-1.8406238999999998,0.38898152,-1.2559563999999999,-2.5565757999999996
-1.2233508999999998,14.283453,-0.24535778,0.3921755,-1.2197583,-2.7130794999999996
-0.43016145,14.427766,-0.20935857,0.49597022,-1.7110859,-2.7051032000000004
-1.1074332,14.809392,-0.63458794,0.6216165,-3.2484417000000003,-2.434141
0.4660457,17.499144,-1.601855,0.50555205,-4.6910434,-2.1434912999999995
5.357792400000001,17.056820000000002,-3.3914058,0.2942276,-3.9388763999999994,-1.9997633999999997
7.167282000000001,13.519148000000001,-7.658046000000001,0.32136747,-2.2961202000000003,-2.4745977000000003
4.434991,17.015743,-4.6845813,0.23886576,-0.6581461999999999,-2.4479813999999998
2.7647476,14.703779,-1.994619,0.6029763000000001,1.3880953,-2.3585507999999997
-5.687943499999999,8.269141000000001,-4.8011885,0.5114164000000001,2.0742540000000003,-1.0080498
-10.054219999999999,3.8636574999999995,-7.816762,-0.31579986,1.1581306,0.9045867
-7.544302,2.9779751,-4.0013046,-0.5180835,0.79721403,2.263081
-5.9007206,1.9780798,-0.07144298,-0.59847337,0.8690691999999999,2.8608740000000004
-4.2955523,2.3429275,0.24384464,-0.7134557,1.3034468000000001,3.4655955
-2.8743732000000004,2.433189,-0.043938387,-0.7171732,1.6585165000000002,4.0831102999999995
-2.5764964,1.8557074,-0.6728473,-0.6884276999999999,1.6590401999999997,4.686226400000001
-3.1104703,2.3545152999999996,-0.82494617,-0.6681993,1.598355,5.2717843
-3.2349975,4.3615937,-1.0297459999999998,-0.68949234,1.4929546,5.800375
-2.4155387999999998,6.4131089999999995,-0.8272541999999999,-0.54098225,1.6872622,6.297584
-2.5530138,8.816083,-0.6904399,-0.5686631999999999,1.858671,6.611656
-1.7002662,11.633609,-2.2983186,-0.6394536999999999,1.8831403999999998,6.4306483
-1.8145751,13.73316,-4.434196,-0.79063416,1.6702101999999999,6.0404625
-4.1946797,14.38649,-6.483651,-0.53085935,1.3002528,5.1429615
-4.6507945,15.150145000000002,-5.215930999999999,-0.07998844,0.9499827,3.6119937999999996
-5.2876425000000005,13.580295000000001,-4.185764,0.06319837,1.0372841,1.8883240000000001
-6.637589,12.4103155,-4.9344114999999995,0.5997824,1.0085385,-0.2856755
-5.4509654,9.522219,-2.9965347999999996,0.9654812,1.1985698999999999,-2.1339095
-8.633041,9.140725999999999,-4.1968346,1.1336961,0.72481775,-3.4200074999999996
-9.676950999999999,9.962810000000001,-5.4578414,-0.77998763,-1.6402953999999998,-1.6952732
-2.6984662999999998,14.853531,-3.3969126000000003,-1.0743549,-0.29670596,-0.28780478
16.34533,15.693579999999999,9.236706,1.8539411,4.0795326,-3.6552954
15.211963,15.818596,9.982949000000001,2.2057995999999997,5.1441836,-3.7819888999999995
-3.9358760000000004,7.1407929999999995,-10.119686999999999,1.9311196,3.6004221,-3.3103485
-14.428082,7.314746,-8.885026,1.2795531999999998,1.4136468,-1.8757403000000001
-20.906685,8.1577635,-9.981905000000001,0.8393288000000001,-1.8915528999999998,-0.7338935000000001
-9.135421000000001,7.973917500000001,-10.0015955,0.21596704,-3.4246502,-0.40385175
-3.8604777,10.872672999999999,-7.7648273,-0.075188786,-3.54335,-0.2510656
-1.165392,11.954153,-1.5447389,0.3016627,-2.4340012000000004,-0.29899237
2.3449578,10.367611,2.3215616000000003,0.56623715,-0.3334277,-0.59761816
6.842073399999999,8.967751,-0.7198694,0.4741536,1.4727261999999999,-0.8930501000000001
4.2858315000000005,7.976062299999999,-5.137765,0.20425588,1.26299,-0.8701688
-1.3965187,9.56656,-5.500314,0.057334065,-0.54209924,-0.61624086
-5.89621,9.262066,-4.9364989999999995,0.20160298,-1.9873716000000001,-0.43792057
-1.8949148999999998,9.211615,-2.238368,0.23247786,-1.930404,-0.6306224
3.2087474,10.251272,-1.8325698000000001,0.26974064,-1.1234161,-1.0431833000000001
6.1294627,9.40472,-1.7938892,0.38737583,-0.29457667,-1.4424274
4.539550299999999,8.548248,-2.2022060000000003,0.45231953,-0.20833996,-1.7048550999999998
0.41806590000000005,9.645482000000001,-1.9989861,0.56623715,-0.7321482,-1.7964151000000002
-0.9089348,9.777585,-1.0262698000000001,0.650362,-0.66720444,-2.1030345
2.2559892999999995,9.437953,-1.591694,0.5981767,-0.015097098,-2.4506516
2.2374389999999997,10.726272999999999,-4.604739,0.63863343,-0.23069762,-2.6241898999999997
-2.2588334,11.923267999999998,-4.0912023,0.72487015,-1.1361743999999998,-2.604485
-3.931375,13.992299,-1.3988171999999999,0.77384406,-1.6009033000000001,-2.6396184
-1.737884,14.564713500000002,-1.0789803999999998,0.95431113,-1.9069816000000002,-2.6843338
-0.8680131,15.615491,-0.755792,1.0389421,-2.9615270000000002,-2.5257007999999996
-0.58216447,18.709460999999997,-1.8398098999999999,0.8100421999999999,-4.972111,-2.1360384999999997
1.8546444,19.602345,-1.9907211999999999,0.5880711999999999,-5.717908,-1.5930666999999998
4.375911,14.507167,-6.542999,0.40229840000000006,-4.108156,-1.8086498
6.425961,16.064692,-6.257782499999999,0.06852163,-2.0267637,-1.7687341
6.6076616999999995,18.755009,-4.840788400000001,0.6045646,0.55126226,-2.6460063
1.1055848999999998,10.477447999999999,-2.4907262,0.7530920999999999,2.3707504,-1.9353607
-8.778158,5.457602,-5.2819443,0.01155408,2.3718326000000003,0.09279916
-9.867233,2.3790991000000004,-7.131551299999999,-0.45846307,1.2331798,1.8462791
-6.9800076,2.2603657000000004,-1.0637821,-0.6745871999999999,0.5400921,2.7788958999999998
-5.319332,1.9407014999999999,0.37426159999999997,-0.7810523,0.48418924,3.4150332999999997
-3.5811322,1.9212703000000002,0.7611167,-0.78372264,0.9563706,3.9202190000000003
-2.3754310000000003,1.6243604,0.038450878,-0.7443306,1.379037,4.4695787000000005
-2.9252644,1.9275334,-0.9802341,-0.8609011000000001,1.2991881,5.2212224
-3.0566294,3.4448733,-0.57908076,-0.871024,1.2044343000000002,5.792939700000001
-2.1985571,5.089795,-0.06795702,-0.7496538,1.226792,6.249134
-2.0124128,7.8032207,-0.06902005,-0.6937509,1.5041421999999998,6.669671000000001
-1.5711517,11.117858,-0.7773207,-0.71291465,2.1109931,6.5131674
-0.23395180000000002,13.273464,-1.3780736999999998,-0.92903876,2.4878795,5.9904237
-2.3120422,14.412317999999999,-5.0258703,-0.95939004,2.5187545,5.121145200000001
-5.0279098,16.983969000000002,-5.0092254,-0.7209081999999999,2.4016428,3.5103282999999994
-7.1376610000000005,16.380861,-3.8957589,-0.20029399,2.6342604,1.9186578999999997
-8.113211999999999,11.607157,-4.6367064000000004,0.37779397,2.2653675,-0.27342328
-5.448226,9.155571,-6.139135400000001,0.63224554,1.8836814999999998,-2.1823597
-9.262371,8.948367,-7.932632000000001,1.2311203000000002,0.95956457,-3.9273224
-11.163492,9.525006,-7.5565885999999995,-1.0536028999999998,-3.4219800000000005,-0.58590704
-3.3447572999999995,19.41552,-9.991789,0.6418274,-0.74970615,-2.458628
26.570736,19.040531,28.628829999999997,2.8978226,2.4117484,-4.0492163
-0.27749756,5.69911,-7.4151397,1.4062466999999998,2.879671,-3.3231243999999998
-13.522653,7.2619586,-13.196457,1.0895218,2.3111474999999997,-1.9667592
-16.353394,8.017472,-2.9412386,1.2721007,-0.21685717,-1.0176315999999999
-10.631806,10.86256,-4.630453,0.6232047,-1.613679,-0.6252991
-5.679353,10.014907000000001,-7.5273699999999995,0.36501816,-2.3136783,-0.45389032
-1.9153997,10.491076,-4.2393456,0.30913273,-2.0230286,-0.29738665
0.78855425,10.216585,-2.6244855,0.31285027,-0.7225663,-0.48689449999999995
3.891775,9.769684,-2.1158135,0.35330700000000004,0.4384267,-0.6226461999999999
2.8703317999999998,9.107265,-2.4620152,0.21650809,0.49857074,-0.64126885
-0.7625531999999999,9.55477,-4.739102,0.09885545,-0.5958729,-0.5209633
-3.1223647999999997,9.209114999999999,-4.344011,0.1664695,-1.4608928999999997,-0.42249185
-1.2899767,9.202862,-1.6403729,0.24471262,-1.5077375,-0.571543
1.9452121999999998,10.05513,-1.4358792999999999,0.27399924,-0.9631774,-0.8909382
4.209304,9.535885,-1.8869851999999998,0.30965632,-0.43565163,-1.2023399
3.1326406,8.764502,-2.5640080000000003,0.33307862,-0.39997712,-1.3923888
0.39199787,9.593288000000001,-3.071914,0.40549234,-0.81625557,-1.5084182
-0.95339984,9.9204035,-1.4384938,0.48799405,-0.9887290000000001,-1.6723918999999998
1.5702227,9.780333,-0.79237545,0.41027454,-0.32597515,-2.0987758999999997
3.5423748,11.253083,-2.7540693,0.41931534,0.031189033999999997,-2.4085894
0.37226006,12.251187,-2.5874712000000004,0.46296602,-0.4622679,-2.565093
-2.695239,13.549458,-1.4817523000000001,0.508746,-1.1420386999999999,-2.6108729999999998
-1.4178367,13.947470000000001,-1.6027168999999999,0.5689075,-1.4364233999999998,-2.68114
0.14980999,13.951569000000001,-1.8694118000000002,0.7062475,-1.9756603,-2.6199138
-0.07704541,15.141095000000002,-1.7495868000000003,0.6716376000000001,-3.4895937000000004,-2.2989302000000005
0.3003574,17.808752,-1.8113476000000002,0.5950002,-5.1589665,-1.9779292000000002
