accx,accy,accz,gyrx,gyry,gyrz
2.6068738,21.95208,-4.463539,2.296539,1.4826921,6.8367686
7.1827393,33.60967,-3.4494317000000003,2.384905,2.797536,5.186019
-0.8515314,26.726456,-7.4052086,1.59654,2.8880312000000004,2.1741216
-18.247177,16.59132,2.6417623,1.4831633999999998,3.7360344,1.4187607
-21.733164000000002,13.269863,-4.601675,1.0658201999999999,2.3360186,1.4357951
-16.64542,10.19972,-0.5536734999999999,0.13103932,0.69752085,-0.25378832
-12.634403,14.376798,0.9354815999999999,-0.18034486,-0.6194348000000001,-2.044531
-5.851994,11.652408,-3.1610357999999996,-0.6834011,0.278572,-2.8020215
-3.3395953,15.85811,-7.596533999999999,-1.3519843999999999,-0.24841271,-1.0804809
26.825861,22.639110000000002,10.363091,-1.5899426,-1.6766331,-2.1760068
8.377455,12.07507,3.1660060000000003,-0.0030892328,-0.43205625,-4.8275285000000006
-5.55178,9.049776,-4.278553,0.40945423,1.0499203000000001,-4.7285156
-14.731064000000002,5.6204557,-2.2682476,-0.3639884,-0.5438446,-2.8754823
-7.527360400000001,6.760038000000001,-1.6195722,-0.31182054,-0.7535808,-1.5723497
-5.5498075,9.897639,0.04866933,-0.24209462,-1.3364685,-1.0139315
-2.1892676,10.204864,-1.5581752,-0.17395696,-0.8728216999999999,-0.56040776
0.08484094,10.246167999999999,-0.658032,-0.030229102999999997,-0.77328557,-0.4752357
0.8192671,9.660374000000001,-1.6175514,0.086323984,-0.47837728,-0.5247507
-1.3030491000000002,9.744095,-3.0099044,-0.008936086,-0.5060582,-0.46033058
-1.8764029999999998,9.584392,-2.6537618999999997,-0.06855653,-0.7887143,-0.16861627
0.530172,9.788866,-1.8356153000000002,-0.055780724000000004,-0.86910415,-0.12974778
2.7042317000000002,9.858048,-1.2215216999999998,-0.023300145,-0.7466693,-0.44223154
1.5556756,9.727919,-2.1721156,0.0032986724,-0.52522194,-0.67591363
-0.3565062,10.102210000000001,-3.0289523999999997,-0.06962118,-0.76422733,-0.70891786
0.12888466,10.296033999999999,-2.399038,-0.19790289,-0.874951,-0.8505164000000001
2.2415857000000003,10.08228,-2.1943815,-0.30969122,-0.85898125,-1.0804809
2.9252644,10.729308,-1.8353853999999998,-0.47258279999999997,-0.42992696,-1.4754665
2.7483616,10.953750999999999,-2.1032393,-0.6227159999999999,-0.22605504,-1.8512881999999997
1.8248606,11.442971,-2.0451941000000002,-0.7978424,-0.033353243,-2.1307678
1.2372469,12.582449,-3.6787677000000003,-0.96338683,0.05927138,-2.2931182
2.04257,13.636463000000001,-3.9986615,-1.1912221,-0.15470599,-2.4874084
2.1485567000000003,15.02645,-4.7237697,-1.451538,-0.11798426,-2.7333426
3.2563345,16.817926,-6.2610865,-1.5063587,-0.40598103,-2.9068982999999995
3.8649406,18.459047,-6.5564350000000005,-1.5894015,-1.4647676,-2.9984407
5.2609515,19.756254000000002,-9.466942,-1.4749603,-3.0590909,-2.1680305
10.836300999999999,24.30764,-10.602981,-2.6269126,-3.5860754999999997,-2.2542497999999997
13.630095,23.98996,-0.50031155,-2.4863787,-1.5547392,-3.0948005000000003
4.6180606,6.7264333,-1.1419193,-1.6484984,-0.9356360999999999,-3.159744
-5.3179145,-0.38990054,-0.55129844,-1.0496236,-0.490071,-1.8278657999999999
-7.549435000000001,-3.3542287,-0.48299667,0.48239154,-0.71897095,-0.9298242
-10.705625,3.8757434,-0.28113675,0.8688598,-0.66149724,-0.40603340000000004
-5.0628652999999995,3.093232,-4.9018407,0.7251319,-2.0646896,2.398257
5.2688336,-1.4155574,-0.07142383,0.93806213,-2.0215799999999997,3.3937053999999995
7.009217,-1.5818299,4.5616155,1.6529664000000002,0.009756391,3.3287443999999997
4.390314599999999,0.51522267,3.0322373,2.618081,2.6181509999999997,3.8924856
2.6613562,2.5254805,-0.5036826,2.977392,3.807907,4.1980405
0.23365493,5.010576,-2.554077,2.9145777,3.9053137,4.7479415000000005
0.25759694,7.1615553,-3.3841657999999994,2.7016475,3.5869832,5.334023
0.513652,9.317879,-3.4648885999999997,2.649497,3.2441657000000004,5.837079
0.43175119999999995,11.852649000000001,-4.0360208,2.6430917000000003,2.9205117,6.248017
0.32155088,17.137972,-5.8286552,2.420056,2.4669703999999997,6.737232700000001
1.6477950000000001,28.87772,-5.837848999999999,2.5467496,2.0480392,6.0574617
0.75602186,30.128671999999998,-10.865653,2.051687,1.3192768999999998,3.8158307000000002
-10.053531,19.72897,-7.6992164,0.9082519,1.7983698000000001,1.9473685
-22.285926999999997,13.839846,3.3411756,1.7078046999999998,2.4967806,2.3955865000000003
-17.616,10.842410000000001,-3.283983,0.8092394,0.0853466,0.5638635000000001
-10.497387,10.988074000000001,2.1447067000000004,0.18216002,-1.2246801,-1.2087626
-7.6116652,14.222179999999998,1.3457329,-0.55189055,-0.38147659999999994,-2.6396534
-5.998069,12.7583275,-1.0672393999999998,-0.43106142,0.4574508,-2.2249806
5.276629,16.631256,-5.938482,-1.5494858,-0.5858896,-0.10206685
32.670605,17.462954,11.73698,-1.7166185,-0.9441533000000001,-3.1884897
6.1329875,17.226933,1.9396961,0.121474914,0.6799628000000001,-5.11179
-7.626327000000001,7.737523599999999,-7.9757085000000005,0.48610909999999996,1.7568485,-4.8030415
-15.049473,3.2186209999999997,-1.622876,-0.5598841999999999,0.5229180999999999,-1.9864814
-8.018842999999999,8.213184,-1.9412474999999998,-0.3538655,0.29030059999999996,-1.7038254000000002
-11.108426,9.983122,-1.9286636000000001,-0.24155357,-1.566433,-0.91439545
-3.2870378,9.37128,0.19247466,-0.2037672,-1.2571607,-0.02008874
3.2345665,10.39662,-0.66454417,0.006492625,-0.9313775,-0.25218263
2.4226449,9.77157,0.13505213,0.32217032,-0.20367992,-0.5305801
0.24910232,9.599571000000001,-4.2684975,0.2577502,-0.20261528,-0.5928534000000001
-2.6377973999999997,9.201339,-4.581075,0.03843215,-0.78923786,-0.31499702
-0.44175893,9.533577000000001,-2.1381562,0.018744836,-1.0846871999999999,-0.0946143
3.8781087,9.46177,-1.1697781999999999,0.042167153,-0.9984504999999999,-0.42624432
3.0531914,9.615067,-2.1507783,0.03790855,-0.6034649999999999,-0.92183053
0.7178391,10.259527,-4.005633400000001,-0.101543255,-0.6087883000000001,-1.1278492
0.63897413,9.723848,-3.6691239999999996,-0.25752333,-0.85844016,-1.2721181000000001
1.589836,9.673397999999999,-2.3858604,-0.34854224,-0.9425476,-1.4978241
1.8881919999999999,10.501562,-1.3745303999999998,-0.42413247,-0.7008719,-1.7740923
2.6383815,11.3508625,-2.2433,-0.5204920999999999,-0.64285713,-2.05516
1.4532709,12.056472,-2.9215007,-0.7184997,-0.24893631,-2.2542497999999997
1.3395271,13.223454,-4.018543,-0.7994306,-0.18664551,-2.4315054
1.0483444,13.762006,-3.4060104,-1.0235308,-0.26542968,-2.6875627
1.3519291000000002,14.713173999999999,-5.9080377,-1.1630001,-0.23455479999999998,-2.7455950000000002
2.7571626,17.32698,-6.9395747000000005,-1.3237624,-0.7647509,-2.9457318999999997
3.518193,19.762066,-7.538450699999999,-1.401482,-1.8970158,-3.0569966
6.2121677,21.67625,-9.730285,-1.4004173,-3.7138337999999997,-2.228157
9.7620325,23.422342,-7.122836599999999,-2.3016355,-4.246159,-2.58855
9.581366000000001,23.202536,1.4050708,-1.9960982,-2.0508492,-2.677981
4.469045599999999,7.925861,-3.3603292000000002,-1.5414921999999998,-1.6590576000000001,-2.460251
-4.0721064,-3.1750658,1.6682893,-0.7083941999999999,-2.0247738,-1.3301328000000001
-6.8911257,-4.698937,2.1678157000000002,0.9838421,-2.0327501,-1.1001683
-9.088131,3.2521492999999997,-1.9493398999999998,1.5784583,-1.7591348000000002,0.2785371
-0.711461,1.5143325,-3.6215748999999997,1.3266771000000002,-2.8514667,2.8422337000000004
10.039721,-1.9254075000000002,2.0021846,1.6247619,-2.4580867000000004,3.4528022000000003
10.279264999999999,-0.6605314999999999,6.883655,2.59787,-0.28033477,3.2286847
3.8788940000000003,0.8523358,3.885071,3.4799247,2.4158673,3.7599454
2.069816,2.3478787,-0.24210167,3.6156763999999995,2.939152,4.368402
1.6920206999999998,5.545651,-1.6720433999999997,3.255807,2.5798235000000003,5.1892476
2.2317982000000005,8.030363000000001,-0.96251696,3.0253189,2.22903,5.805680799999999
2.0357897,10.569069,-1.1702763,3.0349007,1.9239986,6.139981
1.0025861999999999,14.468226999999999,-3.2139572999999997,2.8794615,1.6439953999999999,6.612145
1.9807422,21.367943,-4.370998,2.5776242999999996,1.5561705,6.7106166
3.8234732000000005,33.6914,-4.0248637,2.4402845,1.9953302,4.927326
-2.6231925,30.172562,-4.568404699999999,1.7413499,1.67967,2.221525
-18.542451999999997,15.979199,2.7897525,1.8568558000000002,2.657543,1.8318627
-20.064262,12.297136,-5.1627703,0.76454145,2.2327647,0.6836455
-16.148516,10.036014999999999,3.9951756,-0.14093533,0.20671679,-1.3429087
-12.56748,16.63315,0.84642696,-0.49439943,-0.76742125,-2.2739372
-5.6270256,11.004307,-5.1210154999999995,-0.6727196999999999,0.35205036,-2.2228339
11.862397,23.33365,-4.779679,-2.1297029999999997,-0.22390829,-0.33360222
27.484802000000002,15.028232000000001,8.408053,-1.3839065000000002,-1.859753,-4.084908
1.8850892,12.662730999999999,2.744282,0.20238838,0.956772,-5.27147
-11.176689,5.9514203000000006,-4.237555,0.026738444,0.63844144,-4.2046730000000005
-15.268197,5.8508925000000005,0.3000222,-0.37568212,0.47874382,-1.8257191000000002
-9.784949000000001,10.137395,-1.8467436000000002,-0.35599482,-0.6220876999999999,-1.4317983
-4.8267393,8.741489,-1.6597563000000002,-0.28199285,-1.4125823,-0.44858453
0.2804855,10.08863,-0.83877504,-0.25005332,-0.9345540000000001,-0.19680333
2.5019505,10.2052555,-1.0550289,-0.06375687599999999,-0.72270596,-0.4092099
1.5304503,9.503612,-2.73323,-0.047769662000000004,-0.32984978,-0.61362284
-1.4547266,9.731166,-3.1374385,-0.1723338,-0.6268699000000001,-0.5002287999999999
-0.54842544,9.372753999999999,-2.78189,-0.29689795,-0.84672904,-0.34904840000000004
1.609459,9.473175999999999,-2.0325048,-0.3623827,-0.8270243,-0.43741440000000004
3.7148913999999995,10.0152235,-1.6781151,-0.32777283,-0.5438446,-0.8286823
1.4408591999999998,9.941836,-2.0190303,-0.29476866,-0.4815538,-1.1587241000000001
-1.4326998,9.852169,-1.9327241000000002,-0.27349308,-0.8121366,-1.0714226999999998
0.36053807,9.858183,-2.2316257999999998,-0.26921704,-1.1448313,-1.0905690000000001
1.2456456,10.220685000000001,-1.1419097,-0.3458719,-1.209775,-1.3333268
2.139813,10.638176,-1.8507657,-0.58222437,-0.86215776,-1.612248
2.9475496,11.961671,-2.1148367,-0.90322536,-0.45706683,-1.9124968999999998
2.3056355,13.725843,-2.1234078,-1.0038261,-0.22123794,-2.2366743
2.2549262000000003,14.57296,-2.0159081999999997,-1.1044444,0.01829105,-2.4011543
1.8254255000000001,15.216242999999999,-3.7911131,-1.3269563999999998,0.13379695,-2.5800153999999997
2.567542,17.043718,-5.6207332999999995,-1.4594966,-0.098820545,-2.774323
3.5820417,18.823664,-6.400275700000001,-1.5090116000000002,-0.9984504999999999,-2.8994281
5.5368023,20.316938,-9.53236,-1.5377573,-2.642795,-2.2451916
11.2002,21.578672,-11.696508,-2.3942602,-3.8234928,-2.2356097999999998
12.913758999999999,23.599464,-2.7057637999999997,-2.516695,-1.5030775,-3.167179
4.729755,8.398773,-1.9653044999999998,-1.7639868000000003,-0.69820154,-3.2172177000000004
-5.336762,0.92306054,-0.44497675,-0.99584997,-0.017366026,-2.1924827000000002
-7.514202,-3.8926082,-1.1879455,0.3301465,-0.20474458,-0.8925614
-10.715958,3.3406487,0.17648139999999998,0.85236645,-0.6971369000000001,-0.48745299999999997
-5.570790000000001,1.8600839,-5.460532,0.9258448,-2.3143415000000003,2.0128708
4.029135,-1.9717974999999999,-1.4530219,1.0370921,-2.8727596,3.3607187000000005
7.653573,-1.3663614,4.5506496,1.7828712,-1.1826351000000002,3.3495312000000004
4.749080999999999,0.28166345,4.3304596,2.9252417,1.4720631000000002,3.5033819999999998
2.2898529,1.4545158,-0.53046894,3.5257223,2.9529924,3.8775980000000003
1.04256,3.8224292,-2.5981972,3.4943062999999994,3.0993904999999997,4.587179
1.4162948,6.632369500000001,-2.4031081000000003,3.2739234,2.9811968999999996,5.1892476
1.7773979,9.360055000000001,-1.8770830000000003,3.2004626,2.9982488,5.6353364
2.2006161,11.838637,-1.6664792000000002,3.167982,2.9977076,6.0415095999999995
2.0361154,16.433062,-3.9161286,2.9933794,3.1776338,6.4316955
4.8993793,27.08185,-5.7077865999999995,2.7852487999999997,3.8568809999999996,5.6699459999999995
2.665321,32.612235999999996,-10.160982,2.4301965,2.8518505000000003,3.5661964
-8.945265,21.092619,-12.814027000000001,1.1116177,1.6216552,1.6428957999999998
-26.809715,14.173109,8.398849499999999,1.582717,2.7736075000000002,2.1991847
-15.648176999999999,12.140125,-3.9707449999999995,0.82362086,0.31107002,0.54684657
-11.644296,11.051692,1.2944394,-0.08344419,-0.9755518,-1.3178806
-10.209872,18.23807,-0.7103404999999999,-0.46991244,-0.84034115,-2.1243625
-4.9179873,13.525879999999999,-5.594205400000001,-0.86596256,0.9583777,-2.424053
13.788283999999999,22.810297,2.0813468,-2.157384,0.7864279000000001,-1.0480005
22.59431,13.782135999999998,10.245650999999999,-0.8851088,-1.8192788,-4.3712992999999996
-1.4647056,11.454684,0.05670427,0.34772193,0.4569272,-5.01009
-11.073557000000001,5.510926,-7.4080625,-0.04829326,1.1526678,-3.6957695
-10.780928,8.111536,0.37553534,-0.51995105,0.011362093500000002,-2.3665617
-8.425914,9.108884,-2.4533577,-0.46191883,-1.4583621999999998,-1.6835793999999997
-5.505917,8.610536999999999,1.0280032,-0.23940681,-1.3039878999999999,-0.7781026999999999
-0.32829294,10.144884,-1.1433367,-0.12335987400000001,-0.9420065000000001,-0.530039
1.2336938,10.578694,-0.1931163,0.12203342,-0.602924,-0.66205573
-0.0060046576,9.670554,-2.5402386000000003,0.18324211,-0.5071054,-0.73604023
-3.6688553999999995,9.303436,-2.9963436000000003,0.117774814,-0.77965605,-0.4012163
-2.8820634,9.424583,-3.2085176,0.029391345,-0.9909805,0.0012042772
1.1805233999999998,10.26331,-1.8176396000000001,-0.009442232,-1.0570062,-0.015289084
1.4578485,9.627583,-1.7807403000000002,0.042708207000000005,-0.90422016,-0.30698597
0.5745414000000001,9.472008,-2.0734074000000002,0.019285886999999998,-0.4213923,-0.38683477
-0.14887147,9.826244,-3.3866462999999998,-0.06906268,-0.6705206,-0.46561894
1.223619,10.061058000000001,-2.8210973999999998,-0.1579523,-0.83980006,-0.6476742
2.0588794,9.038551,-1.9465818,-0.22769566,-0.7801796,-1.0165845
2.0861158,9.438489,-2.3749425,-0.39432225,-0.528922,-1.3663136
2.0111773,11.150219,-2.8981044,-0.55028486,-0.3122743,-1.6628275000000001
1.9117892,11.709954,-2.708685,-0.76108575,-0.2558478,-1.9912636000000001
1.1357039,12.396362,-3.7146422999999995,-0.90800756,0.04436627,-2.1600194
1.7184621,13.799891,-3.3458010000000002,-1.0900629,-0.10625564,-2.3665617
1.7526226999999999,14.632748000000001,-4.277289,-1.2199502,-0.014695672,-2.544882
2.360702,15.874965,-5.813246299999999,-1.3940294,-0.42406264,-2.780711
3.2511919,17.133615,-5.580874400000001,-1.4211693,-1.3093112,-2.9430614
3.4513087,18.563759,-8.122416000000001,-1.4765311,-2.423477,-2.5225244
8.475617,20.934555,-11.534641,-2.0093975,-3.7069050000000003,-1.9188848000000003
14.947078,29.230675,-2.3964236,-2.5720568,-1.9422548,-2.9015400000000002
8.105139,13.307395000000001,0.0443885,-1.8725811999999997,-1.3045288000000002,-3.1219227000000003
-0.8528242,4.8685803,-4.023312000000001,-1.7634633000000002,-0.9638405999999999,-2.6604054
-9.333718,-2.736812,0.93207234,-0.2197195,-0.46664867,-1.0426772
-8.219811,0.22369505,-0.2683517,0.8704655000000001,-0.63751644,-1.0943040000000002
-7.9424577,3.8798230000000005,-4.4292445,0.9508554,-1.6766156000000003,1.1158937
1.5492688000000001,-0.41636127,-3.3522847000000002,0.7384488,-2.5879567000000003,3.40224
9.069063,-2.6527084999999997,1.8549796000000003,1.2148888,-1.8443068,3.6503038
6.0595045,-0.3853611,5.4396644,2.278475,1.0797478999999999,3.6678617
2.364121,1.253422,1.0284437,3.055129,3.0770327999999996,4.0564594
1.1418043,3.6907097999999996,-2.1411824,3.0391767000000005,3.2628057,4.6372349999999996
0.7401052,6.3289766,-2.4394426,2.875744,3.0557399,5.2195992
0.96988153,7.934135400000001,-2.901265,2.8549747,2.896566,5.6795279999999995
1.1378587,10.289782,-3.7484865,2.8491277999999998,2.745909,6.0505505
0.9931819,14.389392,-4.9271235,2.6968827,2.526591,6.475346
2.6591535,23.681204,-4.7052,2.5723186,2.8539798,6.3757925
3.1179018,33.130108,-7.5641837,2.431261,2.0288754,4.510018
-7.1182585000000005,27.060090999999996,-9.773313499999999,1.6141329,0.95038414,2.532944
-21.389920999999998,15.361035000000001,3.1193957,1.4081142,2.6767242,2.445119
-17.878892999999998,12.28439,-1.8966866999999998,1.3256124,1.1787604,1.5582649
-13.102404,11.229859,1.9612439,0.23860396,-0.8190481,-0.8579515
-8.008805,13.124784,0.0042329486,-0.53166217,-0.35805428,-2.3575034
-7.3711343,15.1689625,-1.6722542,-0.6402566,0.28658307,-2.5927912999999996
0.07416279,14.2910185,-7.7059107000000004,-0.9830566999999999,0.7986800999999999,-1.0905690000000001
27.911210999999998,19.535211999999998,10.8338,-1.8560704,-0.48846530000000005,-2.0466254
11.597819,13.048256,5.8781004,-0.5529552,-0.46610764,-4.7481856
-2.8963904,11.182751,-2.9952805000000002,0.588333,1.1798251,-4.9664392
-14.038162,5.950779,-4.528891000000001,-0.34215435,0.67570424,-3.3614693
-12.840506,7.5616455,0.45466850000000003,-0.21172589,-0.16002923,-1.9151498
-7.309546000000001,9.236198,-2.3118507999999998,-0.27347565,-1.8570827,-1.0607587
-2.3730657,9.124609,-0.50857633,-0.26282912,-1.16026,-0.53907984
1.1642141000000001,10.280166,-1.4347589,-0.12974778,-0.648704,-0.5571789
0.6004179000000001,10.248839,0.013876793,0.06771877400000001,-0.2957635,-0.6886720000000001
-1.0848799,9.229935000000001,-1.7142006,0.15502015,-0.1829105,-0.5928534000000001
-1.8083692999999998,9.5627575,-3.1315009999999996,0.06880088,-0.46664867,-0.37618828
-1.5691311000000001,9.308233999999999,-3.3664966,-0.062674776,-0.7109773,-0.17549285
0.84949154,9.932336,-1.6513575,-0.053092916,-0.87015134,-0.21382028
2.874038,9.515677,-1.1006815,-0.009442232,-0.55182076,-0.5284333000000001
1.2386355,9.851087,-2.8790276,-0.0312763,-0.46664867,-0.8185594
-0.37915537,10.218511,-2.6701286,-0.04405211,-0.6976779000000001,-0.8233415999999999
1.1962581,9.737745,-2.0657363,-0.07705629,-0.99152154,-1.0171081
1.6329412,9.558553999999999,-2.0749972,-0.1574287,-1.0612475000000001,-1.2428141000000001
1.1691366,10.595483,-3.0297568,-0.41561526,-0.8733453000000001,-1.4616084999999999
2.6225414000000002,11.8023615,-3.045348,-0.7232993000000001,-0.6130469,-1.8337127
1.6502466,12.659246000000001,-3.2918072,-0.92556554,-0.18345156,-2.0695240000000004
2.2798548,13.735956,-3.057635,-1.0921922,-0.13287191,-2.3298224999999997
1.7311515,14.396144,-4.2628093,-1.3322797,0.12102113,-2.572563
1.9468020000000001,15.451622,-5.9185815,-1.4174517,0.07524114,-2.8105211
2.1863563,17.041775,-6.10034,-1.501018,-0.74239326,-3.0053522999999998
2.226282,18.844254,-7.532015299999999,-1.5393455,-1.8624058999999997,-2.8568246
6.5451440000000005,20.024137,-11.850858,-1.6399462,-3.6558015,-1.8943803
13.098524000000001,28.072952,-7.9759574,-2.8078856,-3.1155,-2.4394815
10.986943,18.786879000000003,2.0217596999999996,-2.132356,-1.5493985000000001,-3.0324922
1.8434396,4.1383395,-4.0438066,-1.6756208,-1.139508,-2.7429069999999998
-6.7678145999999995,-1.4491146000000001,2.522617,-0.9979793,-0.7833736,-1.030425
-5.2536736,-2.1388168,1.324482,0.7400545000000001,-0.98300433,-0.8212123
-11.338757000000001,2.1742225,-0.136594,1.4586938999999999,-0.5576675999999999,-0.09086184
-3.9341235,1.4478312,-5.4407086,1.2457637,-1.8954101000000003,2.5723536
6.460629,-1.8511297999999998,0.28429708,1.4070495,-1.788404,3.5704547999999994
10.656803,-1.2218186000000002,4.8233013,2.3412892999999997,-0.12276646,3.2233787
3.4116225,0.8074589,3.1120791000000003,3.1775813,2.2130601000000003,3.5289335
1.7725328000000002,2.6638272,-0.8019522,3.4463968,2.957792,4.167724
1.1311071000000001,5.77356,-2.6879318,3.1578765,2.4297252,4.876258
1.0642132,8.523693,-2.0264811999999996,2.9358880000000003,1.9261453000000002,5.490544
1.1774014,10.389351,-1.7573057,2.8688152000000002,1.4816448999999998,5.998906
1.0097690000000001,12.262286999999999,-2.6556964,2.8304877,1.1760901000000001,6.626003
4.4670440000000005,20.358778,-3.0793169,2.8193175999999998,1.7643185000000001,7.0507984
6.8580856,29.522795000000002,-3.1415662999999996,2.9364293,2.887525,5.737543
2.8084848,30.169815000000003,-5.9646173,2.3056324,2.7949004,2.911436
-13.452693,20.978924,0.42536345,1.8456857,2.7225041,1.456582
-22.731672,13.607349,-3.5011466,1.4102609,3.055199,1.6620595
-20.369226,10.353725,-0.046399627,0.08316494,1.4960263999999999,-0.44539058
-13.712339000000002,11.679146000000001,1.6746386999999998,-0.5242095999999999,-0.5912128000000001,-2.633248
-7.048444,14.386135999999999,-3.5865142,-0.86222756,-0.30747464,-2.6433709
0.56039643,16.739732999999998,-12.794202,-1.4243633,-0.60718256,-0.70144784
31.531291999999997,17.827263000000002,8.488643,-2.2318919999999998,-1.8043737000000002,-2.4511929
9.8966055,13.561017000000001,5.276361,-0.66952574,-0.44374996,-5.106973
-4.5379796,8.324562,-0.4349977,0.39191368,1.5567116,-4.992514
-17.056524,7.8583446,0.8087996000000001,-0.11697197,-0.41022217,-3.546736
-11.957294000000001,7.2659807,-2.94279,-0.012095132,-0.4336445,-1.5531685
-4.91634,8.969905,-1.4081545,-0.1638166,-1.3849013000000001,-0.7206115
-1.4185357,9.549868,-1.8063676,-0.23460716,-0.90422016,-0.39800490000000005
0.76731294,10.266155,-2.2899773,-0.1590344,-0.7855203000000001,-0.33414328
2.1330707,10.025298,-1.5374318,-0.04935791,-0.49752355,-0.54920274
0.6859963000000001,9.921926,-2.2361459999999997,-0.066392325,-0.42938590000000004,-0.7152708000000001
-1.4059806000000001,9.453217500000001,-2.707325,-0.10793116,-0.6306049,-0.6072175
-0.8330290000000001,9.568791000000001,-2.5547569,-0.1483879,-0.8914443999999999,-0.4581664000000001
0.7132518,9.657051,-1.2739452,-0.15901695,-0.9744870999999999,-0.5380151999999999
2.2110642999999994,9.429908,-1.5996523,-0.1031315,-0.56672585,-0.76372117
0.06384857,9.900435,-2.3841653,-0.13294172,-0.5134933,-0.9314124
-1.2392101,10.30519,-1.8059462,-0.04829326,-0.7604923000000001,-0.7972664
0.0064739212,10.028592999999999,-1.8036191000000004,-0.08503244,-1.0596591999999998,-0.8414406999999999
1.8342075,10.127032,-1.3672616000000002,-0.35597736,-0.89357364,-1.1379371999999999
3.4331989999999997,10.483902,-2.3515372,-0.53485614,-0.34047884,-1.5584917
2.702527,11.597255,-2.7597291,-0.76482075,0.04543092,-2.0157506
0.57746226,12.679644999999999,-3.9981828,-0.963893,0.31319934,-2.2292218
0.59024733,13.372345000000001,-4.333371,-1.2167562,-0.13980088,-2.3905077
0.99173576,14.011970000000002,-4.211659,-1.4068052,-0.12116075,-2.5214597999999997
2.1405982999999997,16.431875,-5.9729013,-1.4940891,-0.2494599,-2.603438
3.7289977,18.510244,-6.120757,-1.6165413999999998,-1.3034643,-2.844049
3.1142817000000003,19.760189999999998,-7.728013499999999,-1.610136,-2.4325178,-2.3250403
10.077138,21.050291,-13.047768,-2.171207,-3.965615,-1.6468403000000003
16.914547,28.65823,-4.204984,-2.8355490000000003,-1.4418688999999998,-2.875465
8.133457,10.316309,0.5483009,-1.8747106,-0.8222421,-3.3146245000000003
-2.7411695,2.0041192,-3.6128216,-1.5835198,-0.37189475,-2.523589
-7.8720490000000005,-1.9294584,1.0229466,-0.14519393,-0.10519099,-0.8606043999999999
-7.996586,1.5732586000000002,0.6120729,1.0983008,-0.6550919,-1.3013698
-9.746575,3.8388727,-4.8005657,1.2090243999999999,-1.6228595,1.0163575
0.5581555,-0.6134232,-3.3045537000000005,0.9742777,-3.1543683999999996,3.4102163
7.8800740000000005,-2.3067558,2.35328,1.3506405000000001,-2.6161787999999997,3.5757782
8.009830000000001,-0.6258443,5.511529,2.4717004,-0.079639375,3.6013297999999994
4.766731,1.0126036,2.4572074,3.3814532999999996,2.5809057,3.8201067
2.1139748,3.4085099999999997,-1.0902427,3.5848013999999995,3.4469903,4.3258160000000005
1.0474728000000002,6.305513400000001,-2.1881661,3.4000932999999995,3.3815231,4.9811172
1.2052795,8.424497,-2.384261,3.2153678,3.0631923999999997,5.5688047
1.829036,10.299089,-2.3756897,3.1839519,2.7182455,6.119753
2.172786,13.651373999999999,-3.8937190000000004,3.029054,2.5356492999999998,6.659007000000001
5.93242,24.837229,-4.265682,2.9023604,3.4549839999999996,6.624938
7.715190400000001,34.802124,-7.377723,2.518545,4.161371,4.387042
-3.4717648000000003,27.606955,-11.209518,1.0791371,2.1300173,1.3927029
-28.440252,14.380246,2.0164923999999997,1.4363362,2.6112394,1.7993994999999998
-21.45497,11.139051,-2.0909426,0.7624122,1.5141255,1.4459355
-14.649306,10.212429,2.2752578,0.028344147000000004,-1.1698419,-1.3120163999999999
-11.05697,17.928413,-2.4608276,-0.6924245,-0.55820864,-1.9380485
-7.0313873,14.475563000000001,-6.0647235,-1.0480005,0.20193459,-2.3575034
9.803930000000001,22.702368,-5.3025055,-2.2798013999999998,-0.16374679,-0.78394955
25.764682999999998,15.308075,11.17351,-1.055994,-1.8671881000000001,-4.2222480000000004
0.39918044,10.5379925,0.92685294,0.19921188,0.8364665000000001,-5.126660299999999
-9.024206,7.170719999999999,-4.5324826,0.23062779999999997,0.7150963,-4.319655
-15.128569,5.5221496,-0.29270554,-0.2681524,-0.5204048,-2.4511929
-5.930744,9.2872715,-2.2338476000000003,-0.45926595,-1.3444445,-1.6111833
-3.3359659,9.328433,-0.55201674,-0.30808553,-1.0798875,-1.0586295000000001
-1.2464405,10.297998,-0.6399414000000001,-0.16114625,-0.64709824,-0.80098397
-0.004721365999999999,10.060885,-1.404477,-0.09089675,-0.5033704000000001,-0.7999193
-1.6760753000000002,9.412488,-1.0607942,-0.015830137,-0.26382396,-0.69771284
-2.9841714,9.58034,-1.9715006000000002,0.010227629,-0.4842067,-0.37566468
-1.9686084,9.4979515,-2.0450025000000003,0.0033161256,-0.70352477,-0.08075638
0.40982029999999997,9.987614,-1.3256408000000002,0.051225413,-0.71842986,-0.071174525
1.7046142,9.880506500000001,-0.96951765,0.09541715,-0.62580526,-0.30433306
0.6219465999999999,9.79942,-2.6141236,0.11988667,-0.5140169,-0.5034228000000001
-0.84863913,10.223299,-1.7919258999999998,0.10711086,-0.71897095,-0.46722463
0.6661818,10.039050999999999,-2.2434529999999997,0.06133087,-1.0202671,-0.5651725000000001
2.8027387000000004,9.52309,-1.2698844999999999,-0.10845476,-0.8344768,-0.9904917999999999
2.0497718000000003,9.968738,-2.7281353,-0.31660274,-0.4858124,-1.3790893999999998
1.9758580000000001,10.92389,-3.0217794999999996,-0.54550266,-0.45067890000000005,-1.7336181
1.0856076000000001,11.636643,-3.3965485,-0.7568271,-0.32505012,-1.9401604
1.0279074000000001,13.020942999999999,-4.1208906,-0.9761451999999999,-0.16109389,-2.0812353999999997
1.875474,13.852707,-3.2643886,-1.2385903999999999,-0.21380283,-2.289907
2.0524917,15.009413,-4.5568075,-1.3381264,-0.10946705,-2.5289297000000004
2.7967627,16.649517000000003,-5.4863706,-1.4866540000000001,-0.54117423,-2.7386484
3.733796,17.59496,-6.324121,-1.5547917,-1.3944832,-2.8387256
4.878176,18.606098,-9.083658999999999,-1.52924,-2.812598,-2.2931008
11.1129265,23.830582,-12.035661,-2.4890141,-3.4183843,-1.9045032
15.566946,25.101912,-0.64268035,-2.479432,-1.3151754,-3.2779027999999997
5.237929299999999,9.108452999999999,-1.5313122,-1.6106771,-1.0399544,-3.5525827000000003
-5.0462875,2.1181216,-1.6325582,-1.2327261,-0.6971369000000001,-2.3606974999999997
-5.8621645,-2.7245060000000003,-0.48246035,0.31258845,-0.6114411999999999,-0.90851367
-9.731616,2.6366482,0.44105986,1.0078055000000001,-0.8302181999999999,-0.9798453000000001
-6.681805000000001,3.5097177000000004,-5.213087000000001,0.9641548000000001,-2.1290922,1.7051866999999998
3.9744036,-1.1119535,-1.1112064,1.0115404000000001,-2.6385365000000003,3.2691588
8.359364999999999,-1.9372922,4.3959839999999994,1.6806648000000002,-1.0122735999999999,3.164823
4.389357,-0.34881604,4.2357830000000005,2.7522447,1.5359421,3.5017762
2.4434934,1.6966176,-0.28592515,3.2387900000000003,2.9710915,4.0090737
1.0694995,3.8705144000000002,-2.0948113999999998,3.1972687,2.9817379,4.599431
1.0255324000000001,6.937477,-2.0278026999999996,3.0498059,2.718769,5.3116827
1.5951034,9.021333,-1.8486685,3.0785513,2.700129,5.6688643
1.2631233999999998,10.719071000000001,-2.728442,3.076422,2.8113937,6.0436387
1.8220831999999998,14.414798999999999,-4.47596,2.9215240000000002,2.7549672000000003,6.42159
3.1415756,23.828255,-5.071522,2.7272165,2.9844084,6.3640985
4.752203,33.503547999999995,-7.3414554999999995,2.3785522,2.8247106,4.4796667
-4.8608522,27.00693,-8.109813,1.5188378999999999,1.6163319,2.3562119999999998
-22.907808,14.709888000000001,1.3285905,1.6428784,2.3669107000000005,2.3594060000000003
-20.39336,12.386863,-2.3133543,0.8742004999999999,1.2277344,1.227682
-13.618402,10.608315,2.3398054,-0.039252456,-1.1581306,-1.2912643999999998
-10.933457,17.05663,-0.016606182,-0.5992588000000001,-1.203387,-2.2856307
-5.6210685,13.895956,-5.630214,-0.8696801,0.28443632,-2.5049662999999995
11.661639,22.207770999999997,-4.367742,-2.3287928,0.63524747,-0.95270544
29.568240000000003,15.909804999999999,11.639517,-1.2071918,-1.8022618000000001,-4.317543
-0.324874,12.499342,2.3663907,0.11243411,0.66825163,-5.747893
-12.626283,6.74823,-6.5425587,0.0006457718,0.91685635,-4.3063555000000004
-13.231736999999999,5.311182,0.48627195,-0.36025342,-0.34527847,-2.0950758
-5.4851832,8.391438,-3.1475708,-0.45287803,-1.1581482,-1.8512707
-5.600948000000001,8.484687,0.5964914000000001,-0.31925562,-1.3141108,-1.0421360999999998
-1.6061838,9.934989,-0.6871550000000001,-0.22982496,-0.77220345,-0.68121946
-0.3583545,10.556256,-0.9852331,-0.08929104,-0.61037654,-0.6476742
-1.0815663,9.364528,-0.88501185,0.07730063,-0.42458624,-0.57953656
-1.9531227,9.650797,-2.9943612,0.052290063,-0.5624673000000001,-0.3767293
-1.8355196,9.67678,-3.1519186,-0.0009424778,-0.82011276,-0.13718288
-0.12603077,9.697072,-1.8462743000000001,-0.010506882,-0.8137249,-0.08449139
1.7968292000000001,9.841874,-1.357522,0.02300344,-0.8275653000000001,-0.30965632
0.8976245,9.812396000000001,-2.0079978,0.0996583,-0.49113566,-0.5284333000000001
-0.9589448,9.984472,-2.4763610000000003,0.07625344,-0.7652745,-0.505011
-0.34045547,10.079963000000001,-2.6524978,-0.025953045,-0.9994976999999999,-0.5811423000000001
2.3703172,9.362143,-2.0211947,-0.17074557,-0.96864027,-0.8664687
2.6366482,9.370608,-1.9011878,-0.36610025,-0.6572212,-1.3365208
2.1696925,11.072875999999999,-2.959013,-0.5385736999999999,-0.2978928,-1.7325535
1.0988524,11.872281,-3.3554642,-0.76801467,-0.21697932,-1.9747702
0.81321454,12.808356,-3.9073565,-0.8904495000000001,-0.045588,-2.0897523999999996
1.4672531,14.080779000000001,-2.9396966,-1.1087029,-0.22657864,-2.269155
1.8793142,15.047538000000001,-4.109657,-1.3093808999999998,-0.042376593,-2.4362876
2.7102747000000003,16.478514,-5.699091,-1.4642963,-0.41448078,-2.6673169999999997
3.1813385,17.183004,-5.9948797,-1.5659617000000001,-1.2470378,-2.8419369999999997
3.518538,17.910477,-8.744429,-1.6340994,-2.5421767,-2.4394815
9.132902,19.685173000000002,-12.109155,-2.301653,-3.7596138,-1.7554522000000001
17.12724,28.366386,-0.603109,-2.5619514,-1.3481796,-2.9808652
8.502049000000001,12.126516,-1.333896,-1.7554696,-0.69022536,-3.5605763999999995
-2.5742552000000005,4.3621682999999996,-3.5191698,-1.7054310000000001,-0.37934732,-2.9063396
-7.952292999999999,-0.42949107,1.0578158000000002,-0.212808,-0.056758105999999996,-0.9399296
-7.4065394,1.5117851,0.9634555,0.85875434,-0.44481462,-1.4110288999999998
-10.559205,3.5778567999999997,-4.5015206,1.0807427,-1.1884819,0.76403534
-0.6383515999999999,-0.3000605,-3.187937,0.8284205,-2.6880515,3.1483119999999998
7.303828200000001,-2.4619767999999995,2.2197793,1.1834729,-2.1833894,3.5070994
7.8200563999999995,-0.8480071,5.5023065,2.128883,0.22216296,3.5587263
3.6651589999999996,0.9728790999999999,1.9966971999999998,2.9539871,2.6719246,3.8227596
1.3724521,3.0689737999999998,-1.3117161,3.0663166,3.1786982999999998,4.4051237
0.976116,6.488995,-1.8909979,2.8278347999999998,2.9423459,5.1392093
1.0204087,8.347882,-1.8488791,2.6851716,2.6809827999999998,5.7087975
1.3508948,9.808988000000001,-2.5111917999999998,2.688889,2.413738,6.1080413
1.4539316999999998,12.36585,-3.5802221,2.6330037,2.2359588,6.472693
2.3013067000000005,20.29581,-5.12023,2.375882,2.3003614,6.7164807
5.094718,32.264959999999995,-4.9953389999999995,2.4530778,2.6383967,5.1839247
-4.0319886,30.002306,-8.015366,1.7573371,1.5599053999999999,2.9093068
-22.668654999999998,18.395704000000002,3.0397357999999994,1.4916805,2.2322237,2.6628312999999997
-18.01516,13.619665,-3.7456709999999998,1.3932091,1.682864,2.3806990000000003
-14.487823,11.457835000000001,0.61553967,0.16301376,-0.25958282,-0.5976531
-11.239198,13.650944,0.6262561,-0.5417851,-0.6156998,-2.2462560000000003
-6.5672855,15.436366,-1.7691522000000002,-0.96391046,0.13114405,-2.8610832999999998
2.8974724,15.774992999999998,-6.113699400000001,-1.8981328000000002,0.66240484,-0.9596169
27.752867,16.721785,9.937891,-1.5143349,-1.3657551,-3.1991362999999997
6.4337277,13.398048000000001,1.9225823,-0.12974778,-0.07698647,-4.912142
-5.575483,8.215646000000001,-3.539358,0.58407444,1.7158681,-4.4783053
-15.341125,7.6912484,-2.702757,-0.49546406,0.03637266,-3.2065713
-9.607644,8.136550999999999,-1.4575613,-0.3714235,-0.7413286,-1.7320297999999998
-4.078915,8.823542999999999,-1.1569166000000002,-0.42572072,-1.5840085,-0.9814510000000001
-2.0795844,9.816514999999999,0.7490498999999999,-0.36451203,-0.7753974,-0.57848936
1.8861330000000003,10.542925,-0.65489084,-0.11377801,-0.76955056,-0.6258576
1.7993863,10.105523,-0.81441164,0.07623598,-0.28513443,-0.8978845999999999
-1.1810118,9.687619999999999,-2.9929627999999995,-0.00040142572999999997,-0.30534536,-0.86114544
-3.0580084,9.188533999999999,-3.0341144,-0.11857767,-0.6433807,-0.50289917
-1.1334629999999999,9.581394,-1.6016155,-0.13454743,-0.85898125,-0.27719320000000003
2.7280588,10.130413,-0.67543304,-0.05735152,-0.96490526,-0.54546773
1.6819171000000002,9.821849,-1.6682701000000002,-0.01743584,-0.5156225999999999,-0.8499578999999999
-1.033596,9.786778,-2.8090403,-0.06534512,-0.6614798000000001,-0.81271255
-1.437565,9.97209,-1.8473277,-0.06373943,-0.9462825999999999,-0.7424456
-0.20954053,10.180414,-1.6526217,-0.14412929,-1.0186789,-0.79780746
2.5075145,10.553526,-1.3332161,-0.31340876,-0.9356360999999999,-1.0660994
3.3495457,10.4928665,-2.1742702,-0.57157785,-0.54649746,-1.5595564
2.4204613999999998,11.667271000000001,-2.7837,-0.80473644,-0.09030333,-1.9694470000000002
1.3180655000000001,13.042672,-3.7479693999999997,-0.93781775,0.03052581,-2.1967587
1.4785823999999999,13.937156,-2.9897737999999996,-1.1459656999999999,-0.1802576,-2.4043655
1.6194955,14.714879000000002,-4.750326,-1.4083934,0.016685348,-2.5432937
2.968858,17.251757,-5.537328700000001,-1.5191344999999998,-0.3080157,-2.7929630000000003
3.4267635000000003,19.34674,-6.6718454,-1.6197354,-1.3023996,-2.9654365
4.527723,20.290658999999998,-10.074255,-1.6138711000000001,-2.6326895,-2.2441267999999996
12.799344999999999,24.922242999999998,-12.564694,-2.5688803,-3.7202218,-1.930596
15.550081,24.45881,-0.80513173,-2.595479,-1.3934360000000001,-3.168244
5.549999,7.103826,-0.23423912,-1.6005716,-0.8084015999999999,-3.4024669999999997
-4.996747,1.1858673,-2.231281,-1.3285446,-0.43737950000000003,-2.0461018
-6.970718400000001,-1.5602151000000002,0.08674672,0.3503923,-0.41022217,-0.75841534
-10.228748,2.6447979999999998,1.1146542,1.0402685,-0.74026394,-1.0389421
-8.060195,3.3212461,-5.1545153,1.099889,-2.0567133,1.8329273000000001
2.5128967999999996,-1.345053,-1.5927283,1.1856022,-2.6694112000000003,3.3804061
8.66612,-2.3307362,4.0262237,1.7541256999999997,-1.1528249,3.3495312000000004
5.525425,-0.6241300999999999,4.2320194,2.9534461,1.5151727,3.3101392
2.7238066,1.2729588,0.17252617,3.4501144999999998,3.1440884999999996,3.8445937999999993
1.8742863999999997,3.9991498,-2.3681912,3.3489726,3.0887265,4.448251
1.0823228,7.046575999999999,-1.9498665000000002,3.1935337,2.8955011,5.0508432
0.8372715000000001,8.799841,-2.3025804,3.0753574,2.6272092000000002,5.5890154999999995
1.3836954,10.287195,-2.5423452999999996,3.0029612,2.357329,6.0596084999999995
1.308843,14.466973000000001,-4.18676,2.8752031000000002,2.426514,6.483863400000001
4.8767495,26.003452,-5.318068,2.6974063,3.017395,6.17405
2.2049353,30.801615,-7.8850255,2.2741990000000003,2.216254,4.0548534
-10.136533,25.908327,-6.849102499999999,1.5965573999999998,1.6408014,2.494599
-22.69301,15.842481,3.1177006,1.9574740000000002,2.3594408,2.9588044
-16.735872,13.269096,-2.1541588,0.8795063,0.67729247,1.1015122
-12.733236,10.716054,2.745335,-0.08450884,-0.69448394,-1.2603896
-8.077250999999999,16.79342,-0.6207111999999999,-0.6099053000000001,-0.45067890000000005,-2.5960028
-5.0516315,16.20299,-8.929233,-1.3759303,1.4097723,-2.414471
18.08646,21.696733,2.5779326,-2.2414916000000003,-0.062081363,-1.2625188
18.29553,16.104742,9.807991000000001,-1.1432954,-1.8703995999999998,-4.518221
-4.310855999999999,10.278519000000001,1.48814,0.32855824,0.5064247000000001,-4.9691095
-13.002947,6.5431045999999995,-4.8144617,-0.10580186,0.70071477,-3.623932
-9.493307000000001,6.4560512999999995,-0.28567615,-0.25485298,-0.5438446,-2.0583541000000003
-4.27524,8.836127000000001,-2.0308194,-0.410292,-1.5116121999999999,-1.5510392
-5.090484,9.365466,-0.9586191999999999,-0.30330333,-0.6199584,-0.8899084999999999
-2.2245293,10.032941000000001,-1.2820568,-0.20748474,-0.7716799,-0.48375290000000004
0.08515697,10.042785,-0.5041422999999999,-0.017976891000000002,-0.49539426,-0.4155978
0.075254545,9.808152999999999,-2.3331976,0.018203784,-0.40650463,-0.45870742
-1.5607799999999998,9.948607,-3.19081,-0.04298746,-0.58695424,-0.31925562
-0.8527093000000001,9.645205,-2.9169517000000003,-0.08984955,-0.71525335,-0.13878858
1.4446325,9.8597145,-1.819373,-0.08025024,-0.7871085999999999,-0.23034856
2.504986,9.6900425,-2.1189644,-0.071733035,-0.6976779000000001,-0.55028486
0.6192651,9.285806,-2.1479151,-0.044069562,-0.51775193,-0.6972067
-0.65169215,9.621597,-2.5363886000000004,-0.10847221,-0.75251615,-0.70891786
0.7289865,9.869761,-2.1487386,-0.1606401,-0.9638405999999999,-0.81803584
1.0036589,9.994203,-1.7451048999999998,-0.22984241,-0.86536914,-1.0187312
0.91897124,10.262103,-0.9783569999999999,-0.2926568,-0.69874257,-1.2646656
1.4166204,10.45546,-2.071042,-0.45980698,-0.6050533,-1.4499148000000002
2.3598877999999996,11.4517355,-2.9947060000000003,-0.6695432,-0.33995524,-1.7597281999999999
1.9034287,12.643147,-4.4447589999999995,-0.8941844999999999,0.06085963,-2.0445137
2.0033817,13.679155999999999,-4.231589,-1.1651294,-0.19463912,-2.3042884
1.9840175,14.060610999999998,-3.8797941,-1.3472022,-0.024818582000000002,-2.5842915
2.7241322999999995,15.576275,-6.187575,-1.4611199,-0.32292083,-2.7775345000000002
3.2109022,17.55895,-6.3072467,-1.6213411,-1.3918302,-3.0170807999999996
3.4459746,19.206066,-7.4399147,-1.6272053999999998,-2.3670504,-2.6726575
8.631126,20.127546,-11.499705,-1.9588354,-3.6361141000000003,-1.9747877
15.126653,27.875,-2.8701594,-2.4959605,-1.6265945,-3.0341153
8.090697,13.026459,-1.4250385,-1.8475881,-0.83821183,-3.254498
-1.6764967,4.677619,-3.3972763999999995,-1.7586810000000002,-0.7557100999999999,-2.6093197
-8.636249000000001,-0.61480224,2.360252,-0.23516566,-0.45334926,-0.9761451999999999
-8.146262,-0.21978772,-0.15686809,1.0982833,-0.9611877000000001,-1.2316614
-9.658593,4.084708999999999,-3.787924,1.0972186000000002,-1.5733620000000001,0.70652676
0.30406362,0.09543288,-3.3630297,0.8646011999999998,-3.076649,3.2047212000000003
8.175719,-2.5791395,1.4021403000000001,1.2515931,-2.5475175,3.446938
8.9526005,-0.81392324,5.3493557,2.319979,-0.045588,3.3947701
3.9940263999999996,1.4387811000000001,2.383897,3.12112,2.4403542999999996,3.6784909
1.2274209999999999,3.6510712999999995,-1.0606889,3.2760352999999998,2.9897141,4.173553500000001
0.16683756,6.560735,-1.8079575,3.0194544999999997,2.484546,4.9688478
0.70658636,8.190526,-1.4263217,2.8725326,1.8830183,5.5544057
1.258651,9.207746,-1.2449179,2.9145777,1.605668,5.9935827
1.9477596000000001,11.5363455,-1.8179173,2.9145777,1.6908401000000002,6.30392
2.6314192000000003,18.205357,-3.3801723,2.7969425,2.2540405,6.525908
5.7071733,29.984446000000002,-3.0700178,3.0125256,3.8973377,5.566658
2.1453102000000004,31.613996999999998,-7.974837,2.1001372000000003,3.3053917999999998,3.0216012
-14.659985,21.09442,-1.0360669,1.5619475,2.9939728,1.7301798
-22.701694,13.2627945,-4.7123733,1.3154721,2.9183824,1.8233453999999998
-19.004034,11.098916000000001,1.4198476999999998,0.25562093,0.6948679,-0.31232667
-12.071843,12.115762,-0.11241256,-0.42999676,-0.84194684,-2.1823945
-7.8059306,16.168505,-2.5820124,-0.96073395,-0.35859534,-2.5395937
1.1197681000000002,15.587249,-9.346647,-1.6969311999999999,0.30892327,-0.75576246
27.537533000000003,17.234488,8.489255,-1.8773983,-1.1171503,-2.0328023
12.879436,14.145202,4.4938397000000005,-0.5865179,-0.70940655,-4.883955
-4.4596029999999995,10.742994,-1.293951,0.5441413,1.8122102999999998,-5.1293483
-13.642448000000002,6.574803999999999,-3.6281254,-0.122853726,0.39674824,-3.437618
-10.958960000000001,7.389387599999999,-1.6082715,-0.23729496,-0.13288938,-2.037061
-4.695422,9.408800999999999,-2.3325077999999997,-0.49174652,-1.3327508999999997,-1.2817
-3.4048707,9.088944999999999,-0.060965955,-0.5210157,-0.8866622,-0.6972067
0.29995516,10.10244,-0.37101507,-0.31766737,-0.54703856,-0.49492303
2.1947455000000002,10.275319999999999,-0.08127836,-0.10314896,-0.35698965,-0.74405134
0.8524507,9.702905,-1.2460575,-0.0025481808,-0.14353588,-0.8845851999999998
-1.1692322,9.66613,-2.5093915,-0.097825706,-0.3868173,-0.82177085
-1.9573653000000002,9.176046000000001,-2.6742754,-0.23996532,-0.6215641,-0.5896769000000001
1.1869878,9.712951,-0.8497405000000001,-0.22506021,-0.712583,-0.6082996
2.5387638,10.116872,-0.5710746,-0.17128661,-0.48157126,-0.99211496
-0.5911284000000001,9.969695,-2.445265,-0.17715092,-0.45867252,-1.0410889
-1.8519534,10.25972,-1.257339,-0.13243559,-0.70727724,-0.8531867
-0.5019875,10.169181,-1.9690584999999998,-0.06855653,-0.90954345,-0.7435276999999999
0.42219356,10.601132000000002,-1.208976,-0.15957545,-1.2214861000000001,-0.9037489
1.8361133,10.94383,-0.9871485000000001,-0.5045223,-0.8094836999999999,-1.1991982
3.2702400000000003,11.5290575,-2.6100535,-0.77654934,-0.36604790000000004,-1.6106771
1.941487,13.063435,-3.048336,-1.0256777,-0.0008726646000000001,-1.9785053
1.3863003,13.490312,-3.1532307,-1.2380668,-0.073809974,-2.1962349999999997
1.4524951000000001,14.148229,-3.6576796000000003,-1.5484211,-0.013107423,-2.3777492000000002
2.4669855,16.600111,-5.794494599999999,-1.6857612000000002,-0.051452305,-2.4980724
4.536792,19.266533,-6.761742599999999,-1.7459227,-0.8408822,-2.8078856
4.682014499999999,20.25851,-9.422457000000001,-1.6708386000000002,-2.3202057000000003,-2.3809432999999998
12.964008,25.170952,-14.950382000000001,-2.485314,-3.4551237,-1.7128835999999998
16.13869,23.789564000000002,-4.229156,-2.930879,-1.2928351999999999,-3.2598212
3.238359,6.5069137,2.6870124,-1.5031648000000002,-0.874951,-3.5483415000000003
-5.6936507,0.19296308,-1.8734819999999999,-0.9282708000000001,-0.5289395,-2.3495448
-6.867902000000001,-2.8385557999999995,-1.4282563,0.5675462,-0.7365464,-0.9388824
-9.833149,3.3307752999999996,1.1538807,1.1584448999999999,-1.3385978,-0.9766688
-6.723292,3.094496,-5.1876698,1.3410236999999998,-2.32607,1.5523831
3.0836554,-0.67594063,-1.1855416,1.3868037,-3.094748,3.0727046000000002
8.079243,-1.347744,5.232011,2.0314586,-1.2715421999999998,2.976886
6.6467156,-0.36299929999999997,4.5079845999999995,3.312757,1.1638378999999999,2.998179
3.2812057,1.4823844,0.28253496,3.7849209999999998,2.9934316,3.4879184000000003
1.8497218999999998,3.7927315000000004,-1.8914768,3.8078196,3.3602126000000005,4.1128683
0.97927636,6.617497,-1.6765541000000002,3.5602970000000003,3.105761,4.843742400000001
0.97027415,8.609597,-1.5980722,3.362272,2.7022583,5.386191
1.1742601000000001,10.305612,-1.6474596999999997,3.3234036,2.3258955,5.963755
3.0328692999999998,16.018589000000002,-2.8738081,3.2020333,2.5175327999999997,6.558895
5.5882583,24.984575,-4.3826529999999995,2.9635515,3.4890354,6.153804
4.6127267,30.991457,-7.13813,2.4126036,3.0370998,4.307175599999999
-5.4102825999999995,25.294271,-8.825467999999999,1.7535846000000002,1.9772311000000002,2.2023437
-22.503466,15.576820000000001,2.3883405,1.7871125,2.2923677000000002,2.2875159
-18.282095,12.903243,-2.0265098000000004,1.0003355,1.1515857,0.99770004
-13.104826,11.684327,2.3155856,-0.020106193,-0.9186017,-1.2981933
-8.038217,15.757504999999998,1.1117139999999999,-0.6652846,-0.46399578,-2.4517512000000004
-5.5008984000000005,15.179067000000002,-4.805919599999999,-0.7919955,0.501084,-2.6274187999999996
10.133689,20.369867000000003,-3.6816502,-2.136632,0.7310485999999999,-1.172582
24.8748,14.043535,12.625085,-1.5697142,-1.5957196000000002,-4.3042435999999995
-2.6622470000000003,13.197817,2.4793396,-0.01425934,0.3499036,-4.9941373
-8.510094,6.445019,-5.7108893,0.36793286,1.2191998,-3.7857587
-10.537639,7.112206,-1.6346459,-0.5433908000000001,-0.16004670000000001,-2.6173131
-3.7882974000000003,8.440577000000001,-4.218191,-0.6258925,-0.988345,-2.1036105
-7.394558999999999,8.425367999999999,1.529215,-0.45502478,-1.0942690000000002,-1.2343316999999998
-3.3477928999999995,10.298716,-0.8310849,-0.28520426,-0.8238478000000001,-0.6902776999999999
0.4778635,10.273539,-1.0919762,-0.16702801,-0.75091046,-0.65088564
-0.5873934000000001,9.609722999999999,-0.069518045,0.038955748,-0.37508872,-0.69773024
-1.7654938999999998,9.585991,-2.2845855,0.10602875,-0.38679987,-0.533774
-3.0900047,9.469364,-2.7820241,0.054925512999999995,-0.73548174,-0.22610740000000001
-1.333101,9.459883999999999,-2.3146951000000002,0.017139133,-0.8296946,0.010768682
1.8199381000000001,10.018709,-1.4229794,0.057054814,-0.91807806,-0.17552777
1.6077926000000002,9.926715,-2.1913362000000003,0.07675958,-0.49008846,-0.46352455
-0.46658203,9.954238,-2.8361235000000002,0.02617994,-0.67638487,-0.5689075
-0.50908387,9.920528,-2.553282,-0.043528512000000005,-0.81159556,-0.5933944999999999
0.99163043,9.606591,-2.8574797999999997,-0.12870058,-0.9212546,-0.7834434
1.8300128,9.773745,-2.6155505,-0.32194343,-0.76742125,-1.1134851000000001
2.310213,10.614022,-2.7497884999999997,-0.49441686,-0.66362655,-1.4792014
2.012451,11.576138,-1.8611183,-0.689789,-0.5747194999999999,-1.8592818
1.6953436999999998,12.700407,-3.1736963,-0.81220645,-0.28406978,-2.0775352
1.9582080000000002,13.718832999999998,-3.2880050000000005,-0.99054414,-0.27981117,-2.3223875
2.0679866999999996,14.437745000000001,-3.7053335,-1.2252909,-0.16324064,-2.5731215
2.8070962,16.264215,-5.432012599999999,-1.3125923000000002,-0.28674015,-2.7993683999999996
3.655333,17.811253,-6.3791018,-1.4510143999999998,-1.0192199,-3.0735072999999997
3.7066936000000004,19.601444,-8.164381,-1.5601323999999999,-2.2882838,-2.8392842000000003
8.102908,20.141203,-11.868019,-1.9418009999999999,-3.7846417000000003,-2.0578303
14.234448,27.705463,-2.0358377,-2.4363224999999997,-2.198312,-2.9995053
7.5249186,12.7426405,0.15677233,-1.603783,-1.2539666999999999,-3.29389
-1.7986773999999999,3.9826205000000003,-3.8869576,-1.5510741000000001,-1.3210396999999998,-2.6582935
-8.014801,-0.8861802,2.2846813,-0.30862656,-1.1081096000000001,-0.787702
-6.3769754999999995,-0.65154845,1.1374661,1.191449,-1.7612641,-1.0400243
-10.078938,3.3144273999999996,-2.5148599999999997,1.4427066000000002,-1.5158708,0.54415876
-1.1347846000000001,1.0523187,-3.2067842,1.2313646999999999,-2.676864,2.8145354
7.3422313,-1.9580643,2.0002022,1.5981456,-1.7830982,3.4719486000000006
9.800234,-0.7561272,5.2987127,2.6840894,0.29773572,3.2052447999999996
2.931882,1.507782,2.1839522999999996,3.2999814,2.5005157000000002,3.6784909
1.7364761999999998,3.6231167,-1.2521388999999998,3.4261510000000004,3.0487936,4.338574400000001
1.3976008999999998,6.836097200000001,-1.6851637,3.1051676,2.6692543,5.075854
1.1839423,8.6231,-1.4478792,2.931612,2.2210362,5.6645885
1.2634873,9.925163000000001,-1.7077363,2.9161835,1.8537316000000001,6.0888605
1.8128896,12.208763000000001,-2.7405279,2.828341,1.7302321,6.517391
3.4968178,20.180506,-3.9080842000000002,2.6606672000000002,2.1901612,6.597222299999999
3.9576633,29.849909999999998,-4.585442,2.5786717,2.851833,5.400030999999999
-0.3217041,30.113752,-5.183733999999999,2.0346525,2.060274,3.4810068999999997
-13.423935,18.0337,0.8358445,1.9617151999999998,2.304079,2.4253967
-18.078829000000002,14.1425495,-4.782169000000001,1.3910623,2.0964720000000003,1.5092733999999999
-20.501137,12.208916,0.7680312,0.17097245,0.49949577,-0.37887606
-10.371719,12.119382,1.1092336,-0.45608944,-0.76796234,-2.162166
-6.0191383,15.472395,-3.6895415999999996,-0.7217110999999999,-0.19570377,-2.796698
0.024708163,16.113571,-9.434333,-1.4334215,1.0440735,-1.3013873
28.406906,18.873291000000002,8.908288,-1.9449949,-0.7732681,-2.3229284
8.840255,13.076611999999999,6.2048707,-0.5103692,-0.6407278000000001,-4.6646194
-4.8956256,8.373902000000001,-1.1655453000000002,0.4770683,0.730525,-4.421355200000001
-12.181152,8.031005,-4.8049903,-0.13880603,0.6911329,-3.4221718
-10.654160000000001,7.5731473,-0.74375397,-0.20057324,-0.47570693,-1.7054310000000001
-6.5940337,9.560210000000001,-1.5887636,-0.33311355,-1.2683308,-1.0868688999999998
-4.8556610000000004,9.165033,-0.6164590999999999,-0.24900612,-0.8818799999999999,-0.30702087
0.13965857,10.125902,-1.2820757999999999,-0.10156071,-0.77115625,-0.060021874
0.89578575,9.975116,0.06628108,0.10869910599999999,-0.46451938,-0.12229522
1.0221134,9.756649000000001,-2.0048854,0.2785022,-0.20528562,-0.17606881
-0.30021375,10.069139999999999,-4.409889700000001,0.12945107,-0.43737950000000003,-0.14732324
-0.16065094,9.033132,-4.518692,-0.15905185,-0.75516903,-0.025411992999999997
2.7733953,9.50614,-2.2869797000000003,-0.19257963,-0.91060805,-0.20853193
4.660553500000001,9.653192,-0.9196128,-0.11698942,-0.64231604,-0.7424456
2.5156837000000003,9.8894415,-2.8762502999999997,-0.10156071,-0.45015532,-1.0677052
0.23488078,9.550136,-2.8857312000000004,-0.11805407,-0.62528163,-1.123067
0.6674171999999999,9.410783,-2.5980343999999995,-0.19416788,-0.8520523000000001,-1.1975926000000001
1.1252748,10.045419,-1.6483983,-0.17660987,-1.0575473,-1.3477083
0.89798844,9.37284,-2.1239154,-0.25274113,-1.234262,-1.5020826999999999
1.6241018999999999,10.712731,-2.8016853,-0.5902354999999999,-0.7865850000000001,-1.7155539
2.6476903,12.589315,-2.8945804,-0.89844316,-0.44430846,-1.9551004
2.1234846000000003,13.583714,-3.9434416,-1.0070375,-0.025883233,-2.2217693
2.2951107000000004,14.223204999999998,-2.523996,-1.1353366000000003,-0.069533914,-2.4703739
1.8734819999999999,14.611316,-3.7509574999999997,-1.2103858,0.13644984,-2.6726575
2.4155292999999998,15.802631,-5.6626797,-1.3376204,-0.34794885,-2.879741
2.6167283,17.034678,-5.477157599999999,-1.4195985,-1.4439981000000002,-2.9787533
3.1539202,17.93415,-7.0273175000000005,-1.5633264,-2.5869095,-2.548111
8.057782000000001,18.707066,-10.278172999999999,-2.0983047000000004,-4.015671,-1.8081611000000002
15.698503,28.884809999999998,0.40634390000000004,-2.2590668,-1.8043911,-2.7754052000000002
9.428768,13.508028,-3.0840094,-1.7634807000000001,-0.8265181,-3.2284229
-0.85896295,4.883482,-4.424734,-1.9519238,-0.70832443,-2.805739
-7.1752887,0.3000222,1.7017889,-0.7280989999999999,-0.33730233,-0.84997535
-5.7335577,0.08592311,0.27724856,0.78794634,-0.8989144,-1.1438363999999999
-10.877375,3.4406879999999997,-2.9257815,1.1004126,-0.6316695999999999,0.23647466
-2.8907017999999995,1.5914832,-4.985685299999999,0.66018826,-2.1168575,2.674525
4.994496,-1.5892136000000001,-0.008916007,0.8177566,-2.2467623,3.4362739999999996
7.144097,-0.6904399,4.9734370000000006,1.6332791000000002,-0.35273105,3.6039653
4.217501,0.8795530999999999,2.8377037,2.599982,2.1800558999999997,3.9606233
1.8355196,2.9440827,-0.83700335,2.941194,3.087662,4.355608999999999
0.4021876,5.136147,-2.4103866000000003,2.8879613999999996,2.9040183999999996,4.9869466
0.45413217,6.925812700000001,-3.2295485,2.8906317,2.4808109,5.529395
0.9941204,8.815709,-3.2265892000000003,2.9145777,2.1347994999999997,5.991976999999999
1.5478034999999999,11.396305,-3.1414034,3.078534,1.9782958,6.329471599999999
1.9564555000000001,16.845814,-5.5924816,3.178611,2.2598872,6.502468599999999
1.611633,27.485703000000004,-5.9714932,2.568566,2.5005157000000002,6.153263
2.3368556000000003,35.092953,-4.7191052,1.9271227,1.7419433999999998,4.300788
-9.000513,22.419275,-1.5345109,1.8270456000000002,1.6450601000000002,2.1619043
-21.118622,13.160657999999998,-5.117099,1.5672708,2.2694864,1.4235604
-21.479973,11.844728,2.8516474,0.5004906,1.3528222,-0.5252568
-13.5485,13.028183,0.58556426,-0.18193312,-0.71738267,-2.138203
-6.510217,15.756423999999999,-1.7663175,-0.6754074999999999,-0.052499502999999996,-2.8765468999999997
-0.7644495,15.667838,-7.907818300000001,-1.2327435,0.864671,-1.3141806
28.933046,19.41916,10.265082000000001,-1.7874265999999999,-0.493806,-2.0540955000000003
11.050774,13.279314999999999,5.3104059999999995,-0.4768414000000001,-0.72216487,-4.7950478
-3.924068,10.5276785,-1.3723372,0.5776690999999999,1.1878011999999998,-4.940364
-13.460507999999999,6.510725,-6.620570699999999,-0.18566813,0.8785115,-3.3519223
-10.444255,6.4864,-0.7337079000000001,-0.3363075,-0.10414380000000001,-1.6053538
-7.486285700000001,10.220367999999999,-1.0480762,-0.4582013,-1.2449085,-1.2502841
-4.326878,9.124341000000001,-0.24424689,-0.26977554,-1.2411908999999999,-0.48321185
1.5329978000000002,10.103454,-0.77097124,-0.09622,-0.71897095,-0.37035885
2.0111198,10.421089,-0.047405194000000005,0.11934561,-0.4118279,-0.6466270000000001
0.33639494,9.59642,-2.2648575,0.20823523,-0.25904176,-0.71370006
-2.3746266,9.76727,-4.4764676,0.022462387,-0.5826956,-0.47095963
-2.3645327000000003,9.285202,-3.1206217,-0.12924163,-0.9382889999999999,-0.09993755
1.845125,9.950398,-1.2013338,-0.061627574000000004,-1.0612648999999998,-0.14358823
4.265347,9.50498,-0.50786763,0.017662732,-0.8275653000000001,-0.6721786
1.0998771,9.552922,-3.0308580000000003,-0.013177236,-0.51616365,-0.96282834
-0.7953825,9.9916935,-2.710016,-0.0935671,-0.85898125,-0.9559168
0.24851814,9.781367,-3.6295620000000004,-0.21706660000000003,-1.1496309,-1.0006322
1.1621168,10.338652,-2.0391893,-0.36133552,-0.9350951,-1.2071744
1.8966004,11.026859,-1.7949426,-0.47204176,-0.64976865,-1.4429858999999998
2.449728,11.207488,-0.73513484,-0.56094885,-0.46558404,-1.7879328
1.7415231,11.323521000000001,-2.1902444,-0.7371573,0.014014994,-2.0381432
1.7123043999999998,12.843637,-4.566509,-0.89577276,0.09386381,-2.2553144
1.8157720000000002,14.244342000000001,-3.7138186,-1.1747288,-0.225514,-2.5060484
2.0299956999999997,15.323685999999999,-4.894160299999999,-1.3062044,-0.15044738,-2.6918213
3.6590202000000005,17.215584,-5.1700583,-1.416928,-0.67214376,-2.9313853
4.056276,19.553225,-6.5975485,-1.5095527,-1.6931438,-2.979818
6.149334400000001,19.596485,-10.7553,-1.5729082,-3.0058583999999997,-2.1073453
13.491413,26.867146,-10.213588,-2.6231775,-3.4040377,-2.1062807999999995
13.347635,21.083897,1.2068212999999999,-2.103628,-1.0830815,-3.17252
2.9767492,4.612956,-3.2495062000000003,-1.4642963,-1.2640722,-3.2081769
-6.352593,0.18477492,0.58113974,-1.2316788,-1.058612,-1.5340222
-4.270949400000001,-1.5354495000000001,0.46657246,0.6399599,-1.5856142,-0.8329584000000001
-10.959392,2.7884982000000003,0.12764926,1.3021726999999998,-1.2124454,-0.66687286
-6.677668,2.6926916000000003,-7.482148599999999,1.2590456,-2.0599074,2.2369535
5.135601,-0.24961947,-0.0866318,1.1169235,-2.6103318,3.3878412000000004
8.168106,-0.7688356,5.415876,1.8451446,-1.0623295,3.391035
6.2219844,0.39535929999999997,4.9849195,2.877856,1.6030151000000001,3.8600225
3.9587646,2.1619162999999997,0.58112067,3.383024,3.106302,4.159713
1.2490454,4.6503252999999996,-1.9943892,3.3393733999999995,3.2840989,4.7553763
1.1134187,7.368424,-2.589741,2.9864504000000003,2.8417277000000003,5.483615
1.707918,9.924377999999999,-1.0492158,2.8166472999999996,2.1885731,6.0553327
2.4707778,11.344896,-1.1814427,2.9928381,1.9735136000000002,6.4391303
3.3667550000000004,16.182755,-3.3387527,3.0210428,2.4925222000000002,6.6557784
6.285124,29.136745,-5.0323343000000005,2.7666087000000004,3.7977839999999996,5.95632
2.8053532000000003,32.422077,-7.590519400000001,1.9239287,2.8183053,3.4596962999999996
-12.48173,23.975191,-1.1197393999999998,1.4549588,2.2311592,1.8462266999999999
-23.636536,14.049807999999999,-5.685894,1.5055209999999999,2.7113166,1.9580151000000001
-22.97929,10.843521,1.1814427,0.21142918,1.4017961,-0.26761132
-14.149522,12.029427,1.7972313999999998,-0.39219293,-0.868022,-2.2366917
-10.188822,17.451335999999998,-0.90431875,-0.81007713,-0.6465747,-2.6401944
-4.7239227,12.967532,-9.933447,-0.56787777,-0.85259336,-0.9532465
22.876589000000003,21.134586,-0.07850108,-1.9992921000000001,-1.1283379,-0.73712236
21.544828,13.157173,5.128878,-1.0373714,-1.0378425999999998,-4.3899393
0.18990809,11.239780999999999,3.902635,0.3700796,1.7084154999999999,-5.276269999999999
-10.182616000000001,7.4705699999999995,-3.371601,0.23965116,-0.00991347,-4.4564886
-20.591991,5.083436,-0.9007370000000001,-0.06588618,-0.28991663,-1.9311369999999999
-9.724979,10.036369,-1.1707838,-0.13456489,-0.90741414,-0.8877792
-2.4264946,9.421854,-1.902787,-0.19470893,-1.2635486,-0.27028167
1.0546937,10.031725,-1.5323466000000001,-0.0850499,-0.6801199,-0.18723892
1.7936497999999998,10.244176,-1.5967698000000001,-0.036599554,-0.53159237,-0.3421369
1.0838742000000001,9.7803135,-2.533458,-0.0052010813,-0.24467771,-0.4693714
-0.30722398,10.070013000000001,-3.1485092999999997,-0.10634291,-0.49326494,-0.4741536
-0.37711552,9.301311,-2.9893332000000004,-0.22560126,-0.77967346,-0.3538655
1.9414965,9.679681,-2.085273,-0.22451915,-0.94095933,-0.49331729999999996
3.3596108,9.427197999999999,-0.83979976,-0.124441974,-0.5715255,-0.8627686
1.2198361999999998,9.447472,-1.6452668000000001,-0.121789075,-0.33995524,-1.1012329
-0.33773565,9.800952,-2.3842037,-0.0940907,-0.48528879999999996,-1.0810046
-1.0313263000000001,10.078104,-1.4991246,-0.08079129,-0.76368624,-1.0144726
-0.45910254,9.889432000000001,-2.3386085,-0.12922418,-1.0612648999999998,-1.0485414
1.6349812,10.222169000000001,-1.9695086,-0.38580504,-1.0468833,-1.2470901
3.6226187000000007,11.266193,-1.5415020000000001,-0.60618776,-0.43577382,-1.6958491999999998
2.8814313,12.568313999999999,-3.3185550000000004,-0.82869977,0.21577506,-2.0652657
2.1202188,13.456801,-4.0871129999999996,-1.0102315,0.084823005,-2.4288526000000004
1.1382035,13.885268,-4.4886017,-1.2508426000000001,0.12367403,-2.5997376
1.2836177,15.468620999999999,-5.690807,-1.3578486,0.00710349,-2.6598818
2.8222659,17.305243,-5.2019296,-1.4621844,-0.7046069,-2.842478
3.085877,19.379960999999998,-6.509748,-1.5947248,-1.5770795,-2.7317544999999996
6.6829925,18.475824,-11.347328,-1.7352587,-3.0750432,-1.864064
13.841781,25.182845999999998,-9.237798,-2.7408127999999996,-3.1229525000000002,-2.1126513
13.651298,20.88785,1.5422969,-1.974264,-1.0692409999999999,-3.186343
3.5333822,5.897206,-5.130592299999999,-1.6644682000000002,-1.0623295,-3.1948776000000003
-5.8339419999999995,1.2603269,1.8921856,-1.2045215,-0.57204914,-1.7432173
-5.446502,-1.8660408,-0.26945302,0.6202551,-0.82863,-1.0762223999999998
-12.293527000000001,3.2206802000000003,-0.35859397,1.1722853000000002,-0.88505644,-0.8441285
-5.9448695,2.6048722,-5.5834794,0.8076511,-2.4847029999999997,2.3386364
4.9581904,-1.7640382,-0.5125986,1.0152581,-2.8823414,3.5363686000000003
9.576625,-1.4974486,4.07406,1.7083457999999998,-1.2837768999999999,3.4943062999999994
6.004811,0.5251155,4.3806133,2.8283584,1.630155,3.5443623
2.5377197,2.5602348,-0.087943815,3.3596190999999997,3.2026442999999998,3.9228370000000004
0.8467238000000001,5.241788400000001,-2.3788407000000005,3.2089624,3.1691165,4.569603400000001
0.60625976,7.4633303,-2.749779,2.9987025000000003,2.8795314,5.259515
1.0959411000000001,8.934059,-2.1230632999999997,2.9427996,2.6639310000000003,5.7481894
1.1809831,10.183421000000001,-3.2259759999999997,2.9821918,2.6335971000000002,6.2219415
1.8548646,14.493079999999999,-5.4775599999999995,2.8102593,2.5521426,6.565824
2.8469453,23.614843,-5.74641,2.5989174999999998,2.6458318,6.1825495
3.1008072,35.5705,-6.6106114,2.2422595000000003,2.5548130000000002,3.9270954
-9.426451,26.266768,-3.6361988,1.4145021,1.5992801,1.8904183999999997
-24.261116,13.81666,-2.059023,1.7126043000000002,2.5654595000000002,2.3152142
-19.82871,12.08414,-0.115094066,0.5649107,1.1436095,0.2742785
-14.236604000000002,11.879291,2.5159707,-0.102607906,-0.96809924,-1.8560704
-8.916189,18.841553,-2.3146951000000002,-0.85905105,-0.17015214,-2.2217693
-0.84208864,15.229584,-7.424755,-1.8161721000000002,1.2191998,-1.0730283999999999
27.919075,18.610964000000003,8.493067,-1.882163,-1.4046061,-2.092423
13.838294,16.385859,4.745815299999999,-0.39112827,-0.77593845,-4.9100127
-3.4219751000000005,8.401005,-2.2081914,0.70383894,1.7488723000000002,-4.765761
-12.111059,6.4693727,-4.981338,-0.31820843,0.5346291999999999,-3.6276492999999994
-11.367975999999999,6.280997,-1.2342684,-0.34747759,0.03530801,-1.627694
-8.704464999999999,10.259461,-0.93262774,-0.47469464,-0.96012306,-1.3200100000000001
-5.053451,9.560103999999999,-0.107423045,-0.28998646,-0.9963211999999999,-0.3767293
1.3797306,10.069055,-0.28634652,-0.09995501,-0.83662355,-0.23460716
2.5065186,10.044969,-0.4678749,0.12095132,-0.44961426,-0.48692942
1.3193967,9.611523,-2.1297,0.21996385,-0.20209168,-0.6487563000000001
-1.3403316,9.733924,-4.639819,-0.013177236,-0.53852135,-0.53803265
-1.6798389999999999,9.386611,-2.793047,-0.13880603,-0.8137249,-0.25802946
2.0207734,9.819875999999999,-1.1881465,-0.110601515,-0.9744870999999999,-0.30380946
4.546053,9.609923,-0.9385079,-0.040317107000000005,-0.6156998,-0.81962407
0.39633614,9.942314999999999,-2.8315935000000003,-0.09622,-0.5624673000000001,-1.1022975
-1.2637553,9.949,-2.5475072999999995,-0.12070697,-0.9287071,-0.97825706
-0.28436413,9.963068,-2.5639315,-0.17287487,-1.1421784,-0.9415353000000001
0.47035527,10.616092,-1.5585679,-0.24207717,-0.8483347,-1.030425
2.0284824,10.5320835,-2.0925515,-0.38528144,-0.75251615,-1.2896762
2.5834490000000003,10.6670685,-1.208459,-0.5801125,-0.60240036,-1.6436638
2.3551285,12.572077,-3.068926,-0.7956956000000001,-0.15151203,-1.9156734
2.28177,14.131028,-3.4249916,-0.9452703000000001,-0.15257668,-2.1871767
2.2589486,13.764064999999999,-3.32229,-1.2045215,-0.088697635,-2.4682271
2.185638,14.499698,-5.8417087,-1.3743246,-0.07539822,-2.6428472999999997
2.967546,16.723106,-6.0702586,-1.585143,-0.7349406999999999,-2.8941049999999997
3.5756924,18.847107,-6.467677,-1.6591275,-1.6686394,-2.9238977000000004
5.901774400000001,19.361881,-9.688186,-1.6905259,-2.9408972,-2.0902936000000003
13.25635,25.164038,-8.25175,-2.6391299,-2.8834062,-2.2664845000000002
12.767771,20.828167,-0.09813353400000001,-1.9172965,-1.0117498999999999,-3.2145474
4.174137,7.121581599999999,-5.263892,-1.5420158000000002,-1.0591356,-3.2470279
-6.185315,1.0909611000000001,2.739321,-0.77599084,-1.1810294,-1.7527993000000002
-5.9257254999999995,-2.723912,-0.5190246000000001,0.88217664,-1.5265173,-1.1709589
-12.307174,3.0410192000000005,-0.8936693000000001,1.2596041,-1.2874944,-0.4725479
-4.765084,2.1128542,-5.752730400000001,1.0812663999999998,-2.6034029,2.4919636
6.4660397000000005,-1.9612342,-0.2978004,1.3016491000000001,-3.0159464,3.4421557999999997
10.172791499999999,-1.1926093999999998,5.2919426,1.9835666,-1.2379969,3.3356907
5.359756,0.36075830000000003,4.6956425,3.131784,1.700963,3.3851883000000003
2.2320855,2.1820564,0.08607634,3.558168,3.0317764,3.902085
1.7297342,5.3295699999999995,-1.9890357,3.3346086,2.8364043,4.673957
1.6723689999999998,7.7390656,-1.7141621999999999,3.0742927000000004,2.4526063999999996,5.2834606
1.9562064,9.277024,-1.1591958,3.0301185,2.0320694,5.783323
2.7476528,11.219268,-1.9666165,3.0758984000000003,1.9154813999999998,6.172985
3.3731906000000005,17.451135999999998,-3.7698907999999998,2.8826556,2.3450767999999997,6.3811160000000005
5.147457,28.406368,-4.6451054,2.6473677,3.296351,5.706668
2.6012044,33.972008,-6.323067,2.243865,2.8092644,3.6864843
-10.924905,21.75323,-2.0837312,1.6476606,3.0812914,1.9378041000000001
-20.051706,14.826315,-2.244181,1.7551903999999998,2.8289692000000004,1.7775828999999999
-22.40201,13.067256,-1.3306398000000002,0.44675192,1.5577762,-0.047211155
-15.402014999999999,12.353717,1.7070371,-0.1675516,-0.12489576,-1.8065554
-5.764261,17.922735,-2.4355257000000003,-0.91174257,0.43350488,-2.6737048999999997
2.1502135,15.664247,-5.8558917,-2.284601,1.9532851999999998,-1.1422132
28.44189,16.42769,12.28327,-1.2934111000000001,-1.7969210999999998,-3.5153199999999996
3.6552851000000004,14.828048,1.2605758999999999,0.024609142999999997,0.023596851000000002,-5.4838595
-12.372774,10.399464,-5.428431,0.5111545999999999,1.051526,-4.338295
-11.403037,5.570953,0.031986535,-0.34747759,-0.54117423,-2.4655742999999997
-4.570962000000001,8.385289,-3.5099475,-0.45340163,-0.867481,-1.7059370999999999
-3.8266814,8.741756,0.41279867,-0.44169047,-1.0665708,-1.1635063
-2.5541725,10.462892,0.21981645,-0.22504276,-0.47623053,-0.67961377
0.3275651,10.420744000000001,0.072994426,-0.027017696,-0.5427799,-0.5907241
1.1712626,9.814082,-0.40120116,0.16355479999999997,-0.32025045,-0.69612455
-0.8124771,9.830592,-4.0605087,0.0368439,-0.57683134,-0.6503445999999999
-1.9281464,9.429018,-3.238991,-0.13133602,-0.82489496,-0.35863024
2.0329835,9.951450999999999,-0.48869488,-0.06960373,-0.8994205,-0.4619014
2.7187982,9.698433,-1.3223846000000001,-0.031799898,-0.68968433,-0.8286648999999999
0.010936713,9.910961,-1.6046418,-0.027541295,-0.5656611999999999,-0.9228951999999999
-1.5686044,9.721589,-2.31888,-0.049898963,-0.93935364,-0.8456993
-0.29685229999999996,10.572172,-2.1433372000000004,-0.15423475,-1.1065038,-0.77384406
1.3267803999999999,11.702666,-1.1881848999999998,-0.2920983,-0.8626988000000001,-0.8669923
1.9650075,11.097374,-1.5078586,-0.29263934,-0.45971972,-1.1810642
2.82421,9.712442999999999,-1.6376339,-0.45659557,-0.4895474,-1.5377398000000002
2.3340402,10.961719,-2.5833627999999997,-0.77757907,-0.03333579,-1.9407014
1.9914107,13.548414000000001,-3.6728968999999996,-0.9032079,0.049165923,-2.1648016
1.8980273,13.851079,-3.0623276,-1.1890754,-0.054087754,-2.4293587000000003
1.9142026,14.876276,-5.6775720000000005,-1.3934883,0.10772172,-2.533712
3.683211,17.527002,-6.5604863,-1.5414748,-0.34899604,-2.697127
4.8120199999999995,19.039189999999998,-6.2155104,-1.6261233,-1.5334288,-2.9425377999999998
5.7356358,18.6298,-9.784653,-1.5968367,-3.038304,-2.13925
13.545723,25.166508,-11.748328,-2.8121269,-3.3502467000000005,-1.9577183999999996
16.485687,22.4572,2.1109197,-2.2515970000000003,-1.2294623,-3.147998
4.8402715,6.994258,-4.0900626,-1.5627678999999999,-1.0926633999999997,-3.5839812999999996
-6.293523,2.0870063,-0.3846716,-0.9112014999999999,-0.620482,-2.2286806
-5.5120654,-1.3655952,-0.8270818000000001,0.7065093000000001,-1.2864299,-1.2380319
-13.075253,3.7852330000000003,-0.39290765,0.9492497,-1.001627,-0.80737185
-5.7520123,2.3646667000000003,-5.1831307,0.8774119,-2.4394467,2.2236717
4.5687213,-1.7940615000000002,-1.2271912,1.0110168,-2.7503247,3.40224
8.557241000000001,-1.6151189,5.3090269999999995,1.7498846000000001,-0.8334121999999999,3.3761474999999996
5.7325807,0.19945616,4.557526,2.9353645,2.2519286,3.6050475
2.9186945,1.8035138,-0.18889295,3.4671663999999995,3.7770321000000004,3.97024
1.2914802,4.1969304,-2.7325692000000004,3.3809297,3.8382582999999997,4.5909314000000006
0.9569431999999999,6.645346000000001,-3.0456448,3.1956804,3.6455564,5.1871184999999995
1.1936915000000001,8.485319,-2.4336387999999998,3.1301956000000004,3.4714773,5.689110299999999
1.4091889,10.5411625,-2.786037,3.0881507000000004,3.2564178,6.179914
2.2209764,15.519329999999998,-3.771174,2.8571215,3.148888,6.4918569999999995
3.3336672999999997,26.872059999999998,-6.3401523,2.447772,3.1696575,6.251246
2.3041031000000003,35.213764000000005,-8.403131,1.9596206999999999,2.2977084999999997,4.04796
-11.183058,23.999363,-8.802425,1.2819618,1.5668169,2.0378814
-27.579576,13.231535999999998,2.3740137000000003,1.5188553,2.4046972,2.5175152
-18.106976,12.588386999999999,0.93393975,0.62880725,0.16840681,0.41109484
-14.967812,13.671926000000001,1.1939405,-0.35971236,-1.2055163,-1.4791665
-6.757194,17.7036,-2.7758088,-0.9420764000000001,-0.37934732,-2.2510383
1.2029523000000002,15.812486999999999,-8.991626,-2.2766075,0.74651223,-1.2028809
29.288038,15.407779999999999,9.924723,-1.7895383999999999,-2.04872,-3.0756018
7.9812245,17.960017999999998,3.5252415999999998,-0.5726425,-0.355925,-5.2767763
-7.0814743,9.282875,-1.8441482,0.56119317,1.3262058,-4.7513795
-14.762044,5.8036118,0.8643930000000001,-0.2202431,-0.44748497,-2.7157671000000003
-5.054734,7.111851700000001,-4.9990644,-0.15636405,-0.8759982,-1.8230487000000002
-5.327041599999999,8.281094,-0.05190629,-0.30754447,-1.3258219,-1.2779475
-3.7910078,10.127435,-0.44990882,-0.23940681,-0.67584383,-0.67374945
-0.51217717,10.226688000000001,-0.9614443000000001,-0.046163958,-0.89409727,-0.44432592
0.6834009,9.959228,-1.7816501,0.05921902,-0.49326494,-0.4922352
-1.1551831,9.733503,-2.886526,0.01982694,-0.61889374,-0.40280452
-1.2538913,9.7417,-3.5695057,-0.081297435,-0.8472526,-0.18613936
-0.13467863,10.025231,-2.8740474999999996,-0.11271336,-0.9755518,-0.094055794
1.8443205000000003,9.805003,-1.8843038,-0.12974778,-1.0905341,-0.25907668
2.4885526000000002,9.2649765,-1.035205,-0.120148465,-0.59014815,-0.57314867
0.85456717,9.680715,-2.565186,-0.11697197,-0.59014815,-0.7520100000000001
0.22713314,10.095925999999999,-2.1672599999999997,-0.16805775,-0.73652893,-0.794596
0.70019865,10.316309,-2.261429,-0.23727751,-0.76740384,-0.92874205
1.6362741000000003,9.9623785,-1.2176718999999998,-0.27612853,-0.6050533,-1.1406076
2.1783595,9.965242,-1.2944204,-0.42943826,-0.46984264,-1.4711729
2.3503877999999996,10.905206,-2.0716357,-0.586483,-0.19090411,-1.807079
2.0260692,12.257949,-3.5267165,-0.7424456,0.10505137,-2.0769594
2.152598,12.913338000000001,-3.5214972,-0.8861735000000001,0.04543092,-2.328758
2.1838759999999997,13.393403,-3.7438800000000003,-1.1337135,0.1625425,-2.5922503
2.4489045,15.290501999999998,-5.725619,-1.2987169,0.17214182,-2.739172
3.3563163,17.103642,-6.1451400000000005,-1.4270161,-0.47729520000000003,-3.0686902999999996
3.2286862999999997,18.642702,-8.172349,-1.5414573,-1.6292299,-3.0447268
5.5708666,19.954197,-11.063892999999998,-1.6452695,-3.1564803,-2.170125
12.939885,26.552215999999998,-8.589639,-2.8078682,-3.4662937999999994,-2.1919415
11.930603999999999,19.498034,2.8541852999999997,-2.0844293,-1.3018584999999998,-3.2033598
3.0250068,6.073831,-4.0812807,-1.5446688,-1.1549367,-3.2539394
-6.2807665,0.628861,1.0515335,-0.7515039000000001,-0.9739460999999999,-1.8544471999999999
-5.381121599999999,-1.7342831000000003,-1.0079780999999999,0.7975456999999999,-1.5296938,-1.1006744
-11.769312,4.0850735,-0.5419419,0.934362,-1.2395851999999998,-0.33360222
-4.2249904,2.0563416,-4.8080644999999995,0.83589053,-2.5011964,2.5026102000000003
5.4228864,-1.7386502000000001,0.40575972,1.1158937,-2.3824792,3.3213440999999997
8.951834,-0.9068757,5.4861693,1.8797720000000002,-0.28776988,3.327732
4.681124,0.8436401,4.235237000000001,2.8991662999999996,2.5569422000000004,3.4735718
1.3611037,2.3444214,-0.41124722,3.2222967000000002,3.5470676,4.0346427
0.47468403,4.705296,-2.2040255,3.0487585,3.3069975,4.798538
0.73015493,6.980199300000001,-2.4886866000000003,2.8352873,2.926376,5.4511695
1.0824665,8.257659,-2.1520617000000004,2.734163,2.591011,5.951014
1.6566056,10.438174,-2.4558953999999997,2.6936888999999997,2.4467597000000003,6.381674299999999
2.3351702999999997,15.485467000000002,-3.8374553,2.5835060000000003,2.6107158999999998,6.675517999999999
5.098692,28.403708,-5.0514019999999995,2.4200735,3.2596118,6.1767199999999995
2.0063313999999997,32.007393,-7.900569,1.8057874,2.481893,4.299217
-9.616263,23.305120000000002,-3.4175794,1.5316311000000002,1.8904883000000001,2.787954
-20.172298,13.122189,-3.1238394,1.7844944,2.0208993000000004,2.7517384999999996
-18.50238,13.569866000000001,-1.7400962,0.64371234,0.52771777,0.6788633000000001
-12.277035,11.647255,0.18034086,-0.20586158,-1.0766761,-1.464244
-8.075566,15.458776,0.20842004,-0.8409171,-0.58534855,-2.7349136
-5.5480356,17.11429,-5.4924803,-0.8031307,0.113568574,-1.8965096000000001
16.315517,15.926478,0.096342675,-1.9534773,0.6474996999999999,-1.1720059999999999
24.42555,13.23509,12.745494,-1.3966649,-1.3327334,-4.305797
0.98378706,12.316281,0.5221275,0.23755677,0.6517583,-5.0611752999999995
-6.587598299999999,7.6446190000000005,-6.3746675999999995,0.7033328000000001,1.1846248,-4.555466
-17.90701,7.390604,-0.71377856,-0.5848773,0.061941735,-2.8019865000000004
-6.535596400000001,9.047611,-2.3286578999999996,-0.23834217,-0.574702,-1.7389413
-6.610247,8.785542,0.092080995,-0.25696483,-1.3726491000000003,-0.91861916
-1.4713136,9.916975,-0.34797326,-0.19947368,-0.88931507,-0.4666835999999999
1.4399016000000002,10.449647,-1.2448891000000002,-0.0344528,-0.6816906999999999,-0.49860567
1.1336546,9.8467865,-0.80372393,0.14067353,-0.22762585,-0.6710791
-1.1541201,9.602865,-3.3167355000000005,0.06773623,-0.30002209999999996,-0.5630258
-2.300148,9.451054,-3.4088356,-0.06318091599999999,-0.6279346,-0.26331782
-0.10322839999999998,9.502998,-1.8030733,-0.10365511,-0.7631452,-0.12226032
3.0522814,9.962417,-0.5179520000000001,-0.012618731000000001,-0.72694707,-0.42940336
1.90317,9.51132,-1.5814468000000002,0.028885199,-0.42778019999999994,-0.7530571999999999
-0.31421503,9.937891,-2.6559646,-0.026459191,-0.5928011,-0.8132187
-0.47876373,9.9671955,-2.1484416,-0.008901179,-0.9478534,-0.79564327
0.66295445,10.011325,-2.3257562999999997,-0.06798057,-1.1096803,-0.9116902
1.212261,10.346504,-1.7366869999999999,-0.17390461,-0.9095260000000001,-1.1033274
2.482136,10.595961,-2.4108846,-0.36342990000000003,-0.6891607,-1.4014469999999999
2.8009765,11.217907,-1.9401461,-0.5518731,-0.46237263,-1.845389
1.8754643,12.094435,-3.0739827,-0.7174176,-0.090826936,-2.1094397999999996
1.6825875,13.040757000000001,-3.585815,-0.9032079,-0.08016297,-2.3542922
0.9932394,13.8780575,-3.8681011,-1.1113383999999997,0.05235988,-2.4820502
2.0560255,15.109778,-4.9905124,-1.2140685,0.05448918,-2.6492004000000002
2.6404502,16.242561,-5.433076,-1.3306565000000001,-0.5757667,-2.9159040000000003
2.8641355,18.54994,-7.522132000000001,-1.478643,-1.4599503999999999,-2.9371796000000003
5.5965037,19.824326,-10.846213,-1.5931016000000002,-3.2964907,-2.1408384
11.410842,23.759483,-8.750607,-2.5635220000000003,-4.1854568,-2.165849
12.186256,20.910135,2.7630715,-1.9146261999999998,-1.6856563999999998,-3.1032827000000003
3.4968178,6.27142,-3.5506105000000003,-1.4158286,-1.1581306,-3.3396351
-6.256412999999999,2.5605700000000002,0.5538841999999999,-0.9958325000000001,-0.8568344999999999,-1.9252378
-5.275614,-1.7609737,-0.8325693000000001,0.71984357,-1.2608608000000001,-0.97024596
-11.7734585,3.008554,-0.17903840000000001,1.0695727,-1.7122727999999998,-0.78819066
-5.861274,2.5989633,-4.7358365,1.1073765,-2.7311435,2.1677861000000003
4.637856,-1.647747,0.16659813,1.2968843,-2.984007,3.2303252000000002
8.278364,-1.7769476999999998,5.115039299999999,1.9622911,-1.3242162,3.2175493
6.2730955999999995,-0.00020111294,4.6990037000000004,3.008843,1.4145893999999999,3.3697769999999996
3.0702286,1.2719915000000002,0.34063745,3.5225456,2.995596,3.8121480000000005
1.7529196,4.023130399999999,-1.8532174,3.4320502,3.1249423,4.479161
1.3235626,6.9459815,-1.7387077000000002,3.239331,2.9615270000000002,5.1573257
1.3250662,8.76023,-1.2987203999999999,3.1030731,2.6234917999999996,5.6582527
1.5952088,10.49506,-1.349621,3.0950797000000003,2.3647816,6.082525
2.2113805,14.903063000000001,-3.541666,2.889061,2.2806740000000003,6.5956693
3.429694,23.636795000000003,-5.7894573,2.4765174,2.7267627999999995,6.6387963
5.6918983,35.23515,-6.711694199999999,2.2300596,2.748597,4.84753
-2.8990240000000003,25.025059,-7.8460865,1.5662584,1.9053933999999997,2.5010392999999995
-19.808945,15.3080845,1.7893211,1.8930888,2.2136009999999997,2.1784327
-21.249372,13.210717,-2.6597857000000005,0.83269656,1.2676675,0.8337787
-13.241793,11.531568,2.2382052000000003,-0.10204939999999998,-0.72001815,-1.2688718
-7.730417299999999,15.592497,1.8446941000000003,-0.6279869,-0.24198989999999998,-2.6736872000000003
-6.1160264,16.813051,-6.6946383,-0.9282184000000001,0.7108551,-1.9678238999999997
14.161914000000001,16.91515,-3.64296,-1.9763585,-0.004049164,-1.1581482
22.653793,13.148448000000002,11.859783,-1.6516398999999997,-2.1014112999999996,-4.0886083
-0.024938006000000002,14.417873,2.2504635,-0.057857665999999995,0.47237337,-5.045188400000001
-9.6405115,8.748336,-5.3019404,0.32431707,0.88652253,-4.0694447
-10.429583000000001,6.8071465,-0.010170569,-0.3192382,-0.3021514,-2.2632732000000004
-3.8588497999999998,8.144107,-4.0020226999999995,-0.31869712,-0.7860265000000001,-1.8405893
-4.980811,8.56156,-0.41609309999999994,-0.4336794,-1.0814758999999998,-1.234803
-2.4355062999999997,10.118481,-0.76960176,-0.3123092,-0.6987251,-0.7360228
0.64585984,10.043867,-0.8562335999999999,-0.15154694,-0.7136302,-0.6524564
0.21192515,9.95578,-0.5137095,0.0012042772,-0.2957635,-0.72750556
-1.2143104,9.619874000000001,-2.8434591,0.009197885,-0.43523276,-0.59920645
-1.9604682,9.340681,-3.5982265,-0.14676474,-0.641775,-0.36020106
-0.46886130000000004,9.548421000000001,-2.6704828999999997,-0.22500785,-0.71788883,-0.20528562
2.8008425,9.854295,-1.3670892,-0.20106193,-0.63910466,-0.42992696
1.9497803,9.843069999999999,-1.4836676000000002,-0.13451253,-0.4240452,-0.81320125
-0.67662054,9.508324,-2.0723922,-0.15102334,-0.54169786,-0.8483521999999999
-0.29999346,9.886722,-1.9697672,-0.13505358,-0.839259,-0.8446171999999998
0.10081505,10.209968,-1.8428171000000002,-0.17283995,-0.90367913,-0.9313775
0.7585406,10.563467,-2.0278313000000003,-0.26972318,-0.6566801,-1.0681938999999998
1.8613386000000003,10.530168,-1.5338501,-0.39322270000000004,-0.5235988,-1.3354211999999999
2.3101077,10.620075,-1.0668083000000002,-0.56409043,-0.34793139,-1.6819563000000002
1.8124968000000001,12.075961,-3.0341047999999997,-0.7626565,0.05555383,-1.9582418999999998
1.568499,12.851366,-4.255244,-0.92874205,0.06567674,-2.2307924999999997
1.2191083,13.625162,-3.6533794000000004,-1.1869286000000001,0.009773844,-2.4948259999999998
1.5252501,14.997663000000001,-4.9760800000000005,-1.3194689,-0.0077667153,-2.5906446
2.8493204,17.486607,-5.3328447,-1.4557443,-0.6444279,-2.8573307999999997
3.3292716,20.270115,-7.3102064,-1.623418,-1.4455688999999998,-2.872236
7.312294500000001,20.749119,-11.758087,-1.8161198,-3.460953,-2.0103923999999997
14.223760999999998,27.217084999999997,-9.2949705,-2.7897517999999994,-3.1548746,-2.2270575
12.096867999999999,18.187525,3.5842445,-1.7778098999999998,-0.8823861,-3.3348355000000005
2.3627803,3.9046175,-4.237584,-1.3093635000000001,-0.8823861,-3.369969
-7.181053599999999,-0.18306068,1.5409944,-0.76372117,-0.8169013,-1.5792263000000002
-5.744733999999999,-1.8468585,0.030387208,0.9397027,-1.4152352,-1.0032501
-13.081133,3.5129452000000003,-0.7426814,1.0839542,-1.2720483999999999,-0.6284930999999999
-5.560983,2.0733596999999997,-4.7371006,1.0168986,-2.6241548,2.4882636000000002
5.5676203,-1.9511786,0.30150659999999996,1.2894318,-2.8408027000000002,3.5231042
10.592887,-1.2922943,5.729458999999999,1.9681554,-0.6939429,3.494882
5.016312,0.8501331,3.9514287000000006,3.1823986,2.0523152,3.3974754999999996
1.6156264999999999,2.7611084,-0.78758705,3.47516,3.1270716,4.136343
1.0843532,5.4558973,-2.1599817000000003,3.210603,2.6644895,4.792168
0.55972606,7.2721100000000005,-1.1061404,3.0498407000000003,2.1571746,5.3825083
0.8759714,8.374391000000001,-0.92965895,2.9992785,1.6983099999999998,5.885023
1.7776756,10.096454,-1.4821258,3.0322652000000003,1.5263777,6.323136
2.8781654999999997,15.199598000000002,-2.7895226,2.9950025,1.817551,6.554689
6.180603,28.131037,-3.0521283,2.9380523999999997,3.4895937000000004,6.2193413
4.9651337,32.438255,-6.4708185,2.2268654999999997,3.2021382000000003,4.106008999999999
-6.709674000000001,24.667269,-3.2049072,1.7467080000000001,2.671401,1.8617078
-20.816387,13.966872,-3.8328008999999996,1.576905,3.0946083,1.5215604999999999
-24.856373,12.767560000000001,0.09702263,0.33285174,1.7371786,-0.23137829999999998
-15.878241000000001,12.116519,1.6864276999999999,-0.30592132,-0.88610363,-2.155726
-6.8760033,17.754011,-3.3272605000000004,-0.9500351,-0.37135372,-2.113681
4.549462,14.572969,-7.9957332999999995,-1.9380311000000001,0.49792498,-1.0357133
28.82413,14.833870000000001,7.2936,-1.8267838,-1.915621,-2.7604477000000003
9.410066,14.801013000000001,3.477262,-0.48265335,-0.4565083,-4.81203
-6.2349706,11.119506,-1.9643947,0.47177994,1.4082014999999999,-4.8136353
-16.820349,6.6237506999999995,-0.6337069000000001,-0.32028538,-0.29522243,-2.746607
-7.3407564,7.769816400000001,-2.3694072,-0.21861994,-0.46450192,-1.5520690000000001
-3.3427172,9.226229,-0.84580445,-0.30485666,-1.2092339,-1.0703231000000002
-1.479406,9.472716,-0.6885724,-0.29846877,-0.82808894,-0.7397404000000001
-0.13824122,10.289838,-0.7118153,-0.091402896,-0.69127256,-0.5529029000000001
0.7734133000000001,9.873046,-1.0687238000000001,0.05550147,-0.44587925,-0.59920645
-0.07802225,9.800425,-2.9425983,-0.045081854000000005,-0.33461452,-0.58058375
-1.6050824,9.632602,-2.6972023999999997,-0.11428416,-0.50230575,-0.37882373
-0.31052795,9.416357000000001,-2.5448735,-0.20265017,-0.6699795000000001,-0.2425484
1.8295531999999999,9.909218,-1.4807563999999998,-0.19252726,-0.7205417,-0.35486034
2.4430914,9.7261095,-1.2322286,-0.14674728,-0.59651864,-0.66627944
0.5975064999999999,9.766236,-2.3554444,-0.1616524,-0.58267814,-0.8036194000000001
-0.023348255,10.013672,-1.804845,-0.18507472,-0.7375936,-0.79564327
0.28961220000000004,9.974138,-1.9292668000000002,-0.20690878,-0.9584999,-0.87547463
0.64947987,10.213233,-1.0459118,-0.3373198,-0.9281661,-1.0330603999999999
2.2518232000000005,9.94492,-2.2188697,-0.44165558,-0.588525,-1.2837768999999999
3.4705007000000005,10.895351,-2.3451494999999998,-0.6412863,-0.29735175,-1.6505578999999997
1.6691129,11.523762,-2.4024088,-0.8212123,0.19024089,-1.9736706999999998
1.0016286,12.668641000000001,-2.9784252999999996,-0.9787806,0.24347343,-2.1259158
0.92855763,13.607033,-2.9651612999999997,-1.2098098999999998,0.09548696,-2.2813547
1.4487122,14.782481,-4.091480000000001,-1.3913242000000001,0.05715953,-2.3739793
2.5892717999999997,16.59495,-4.7125072,-1.5254875,-0.18236946,-2.579457
3.1789732,18.28496,-5.554385,-1.6404523999999998,-0.9606292,-2.6614351000000003
4.8037167,19.018176999999998,-8.654034,-1.764493,-2.1040642000000003,-2.2350338
10.899239999999999,19.419771,-12.805168,-2.5230479999999997,-3.351835,-1.746359
18.497267,28.24977,-0.31555578,-2.55127,-0.6087534000000001,-2.7828052000000003
10.750387,11.563113000000001,-2.6302027999999997,-1.612248,-0.13020156,-3.6414375
-2.3493536,3.0419959999999997,-4.251307,-1.5009831,-0.00083775807,-3.0574852999999997
-8.737955,-1.0582850000000001,0.014652515,-0.07382743,0.06461209,-1.3141281999999999
-8.234982,1.6460328000000002,0.24567384,0.7534063,-0.4197866,-1.4189876000000001
-10.649486,4.4311504,-4.551195,0.79758054,-1.0489953,1.0206511
-0.5208537999999999,-0.49128062,-4.054504,0.62404245,-2.7497838,3.3910875
7.4574976,-2.072469,1.8023646,0.9796184000000001,-2.2041414,3.7179352999999997
7.094220599999999,-0.2657947,5.5656667,2.091655,0.6714631,3.5864596
3.5186722,1.3225954,1.44333,2.9652097,3.052546,4.0043263
1.6910534,3.6507459000000004,-2.0171628,3.0392115,3.4193267999999994,4.5089707
0.54021806,6.111315,-2.4401226,2.9018542999999997,3.071727,5.1317916
0.7909196999999999,7.637427000000001,-2.4348167999999997,2.8858845,2.7246509,5.618878
0.96640515,9.36922,-3.2313774,2.9295352,2.6304207,6.091042
1.6425564,13.011911999999999,-4.3772519999999995,2.8422337000000004,2.6101923,6.4551525000000005
1.9509008999999997,20.98106,-5.9350057000000005,2.6553962,2.6282914,6.4253426
3.0641088,32.796444,-7.070441199999999,2.5404139999999997,2.7161338,4.9768934
-4.871549,30.732481,-6.749341,1.6833701,1.8617427,3.1611228
-20.352228,18.535603,1.0088879000000002,1.7855766,2.4052558,2.6767068
-21.102695,12.895305,-3.7286723,1.1313399,1.4497229,1.5609527
-16.774084,11.382896,3.033875,0.20935224,-0.7242767,-0.8462054
-12.470678,15.349773,0.31652305,-0.6125408,-1.012256,-2.2265165000000002
-5.5365343000000005,18.30963,-2.9998869999999997,-0.9862332,0.18917623,-1.8469772
10.281449,14.006998999999999,-4.2483,-1.7282948,-0.051940999999999994,-0.8557872999999999
32.197903000000004,12.717329,12.182473,-1.4291279,-1.8746232,-3.5498773999999997
5.1772795,16.111473,3.4693515,0.03635521,0.73853606,-5.19211
-8.027711,9.711437,-5.420635,0.6751457,1.0291858,-4.390951599999999
-14.544182000000001,5.7923307,-2.1047523,-0.28834584,0.24773203,-2.3202057000000003
-5.3337164,7.785139599999999,-3.7196220999999996,-0.33999014,-0.553409,-1.6771741000000002
-5.481065,9.083936999999999,-1.6341385,-0.4922352,-1.3060996999999999,-1.1065038
-2.2341349999999998,9.789048,0.42173386,-0.33997267,-0.549674,-0.5443682
2.2566597,10.266950999999999,-0.98544383,-0.15898204,-0.60503584,-0.6119821999999999
1.1472726999999998,9.782478,-0.47043192,0.034749504,-0.19088666,-0.75783944
-0.05599559,9.811093,-1.9914395,0.060318578,-0.12007865,-0.7413286
-0.97846234,9.267839,-4.0985955999999995,-0.11107276,-0.3766595,-0.6045121999999999
-0.8230594999999999,9.226315,-2.4201547999999997,-0.23139575,-0.5911954,-0.41821578
1.9112624,9.979674000000001,-0.48373409999999994,-0.15474088,-0.74556977,-0.53798026
3.030207,9.765796,-0.95809245,-0.037088245,-0.33300883,-0.9319011
-0.12090719,10.030536999999999,-2.6924522,-0.049340457000000004,-0.5384864,-1.0479479999999999
-1.9500389,9.654858,-1.8393886000000002,-0.014730578999999999,-0.7961319,-0.80946624
0.6026876,10.169229,-1.9736171000000002,-0.0051487214,-1.0165146999999999,-0.89624405
0.9312486999999999,10.022329,-1.2672126,-0.03176499,-1.1442728000000002,-1.1171503
1.5565088,10.134848,-2.1912787000000002,-0.26546457,-0.7524812,-1.3343391000000002
2.2340872000000003,11.012561999999999,-3.3189477999999997,-0.53160983,-0.6188763,-1.7208073
1.758273,12.447388,-4.0092343999999995,-0.7679798000000001,-0.45704937,-1.9741943
1.8297830000000002,13.58291,-2.3022259999999997,-0.9149016,-0.5060233000000001,-2.2424862
1.3650206,14.055363,-3.070985,-1.1523013,-0.05035275,-2.392602
2.1535077,15.4546,-5.235046400000001,-1.3082813,-0.057264253,-2.544306
3.18244,17.33222,-5.402267,-1.4759551000000002,-0.5113466,-2.804081
3.9313172999999995,19.514027,-7.72222,-1.574444,-1.3694551000000001,-2.9845479
6.2359089999999995,19.666535999999997,-11.026161,-1.7511761000000001,-3.4417894,-2.1546613999999997
12.383175,24.966562,-9.071516,-2.6901982,-3.7659843,-2.1227042999999997
12.094415,20.316975,2.1198356,-1.9933754000000001,-1.3859485,-3.228353
3.8098644999999998,5.9335594,-4.103594999999999,-1.5015242,-1.1815354999999998,-3.2033424
-5.217013400000001,0.55560803,1.3934445,-0.9372418,-1.0729412,-1.658534
-4.2642169999999995,-1.9469743999999998,0.019239806,0.76937604,-1.2182747,-0.91273737
-10.2740555,2.5568159,0.6991739,1.2245055,-1.2124104,-0.95958203
-6.5693636,2.6507645,-5.0018897,1.171273,-2.0955470000000003,1.9751193999999999
4.115451,-1.5178856,0.09119993,1.3368349,-2.2914429,3.2713229999999998
11.004182,-1.7674285,5.2402086,1.9953128,-0.32929125,3.5060873
6.100867,0.8833072,4.348262999999999,3.119584,1.9394622,3.137177
1.1786941999999998,3.0368629,0.45190078,3.2925985,3.0637336,3.9585638
1.0091082,5.210252,-1.7625060000000001,3.1025496,2.8630555,4.719772
1.0083516,7.344692,-1.4050325000000001,2.8449042,2.3264716,5.411271
1.4153466000000001,8.833609,-1.2936063,2.719799,1.8777125,5.899405000000001
1.9571067,10.441410000000001,-1.6632997999999999,2.7458916,1.5130783,6.346575700000001
3.660878,15.918453,-2.7688847,2.6974587000000003,1.7398490000000002,6.7692246
6.083991999999999,25.444973,-3.667419,2.7693138,2.8023705000000003,6.283744
4.3642087,30.176586,-6.4909487,2.30832,2.6660953,4.229508999999999
-6.4613085,25.45521,-3.3758627999999997,1.5614762,2.0464683,2.1156356
-20.71015,14.608595000000001,-0.80876136,1.8100634999999998,2.288144,2.2604282
-20.777110999999998,13.04999,-4.4997582000000005,0.5883854000000001,1.5114726,0.5782974
-14.208965,11.289859,3.7758765,-0.12119567,-0.549674,-1.7474236
-10.036983,18.25892,-3.2051847,-0.67374945,-0.52890456,-2.462869
-2.4318385,15.776439000000002,-9.486181,-1.6383231000000003,1.1793015,-1.6532108
23.77993,18.240732,5.039402,-2.160543,-0.78070325,-1.8677292
16.025713,16.188482,8.027174,-0.8504815,-1.5200945,-4.9978027
-5.3326154,11.3878,-1.0006901,0.48722609999999994,1.2389219999999999,-5.5945480000000005
-16.441760000000002,5.5625253,-3.9771712,-0.23298400000000002,0.42074654,-3.246452
-8.173038499999999,6.252467,-1.7907671000000003,-0.14514159,-0.18289305,-1.7836218000000001
-5.4348282999999995,9.310188,-1.4672816999999998,-0.42727405,-1.5179652,-1.5754913000000001
-4.517083,9.619375999999999,-0.15265429,-0.24521875,-0.8286125,-0.86749846
-0.40087554,10.355564,-1.3775758,-0.09936159,-0.83606505,-0.6502922
0.7010414,9.985785,-0.320258,0.07681194,-0.4847303,-0.7179063
-0.74454886,9.656687,-2.9049423,0.071488686,-0.5235813,-0.687555
-2.8713757999999996,9.682784,-2.8361810000000003,0.020385446,-0.7381171999999999,-0.33463198
-1.7669209,9.597321,-2.2159486,-0.023247786,-0.85255843,-0.05942846
1.1319115,9.763238000000001,-1.1552502,-0.0035430184000000003,-0.7205417,-0.16641714
1.51892,9.867731,-1.6433609,0.058189277000000005,-0.5789432,-0.41873938
0.10353486,9.982692,-2.1302555,0.045937065,-0.6396283,-0.51296973
0.09006987,10.525571000000001,-2.4200112999999996,-0.013124876,-0.74556977,-0.5299866999999999
1.8523363999999998,9.896566,-1.1658422,-0.028029988,-0.7492873000000001,-0.7812443
2.1050012000000002,8.912033000000001,-1.1261271000000002,-0.14461797,-0.7056366,-1.153872
1.7227526000000002,10.222628,-2.6010416000000003,-0.32400292,-0.41498694,-1.4620971999999999
2.0117423999999997,11.296973,-3.0228042999999998,-0.5161811,-0.4309567,-1.8065205000000002
1.3141965,11.695828,-3.1565826,-0.69078386,-0.2819056,-2.0471315
1.1535169,13.043265,-3.4928529999999998,-0.8483521999999999,-0.12594296,-2.1770015
2.049561,13.943245999999998,-3.5604843999999995,-1.111321,-0.09985029,-2.3771734
2.4468741,15.123234,-5.1771164,-1.2342794,-0.08974483,-2.5895624
3.5090760000000003,16.353193,-5.9492273,-1.3801366000000002,-0.680085,-2.8977702
3.3991248999999994,18.165815,-6.564029700000001,-1.5265348,-1.6797921999999998,-2.9526083
5.431361,18.369013,-10.074839,-1.7038078,-3.2496285,-2.2089586
13.098189,25.058529,-7.5133686,-2.6806164,-3.4524357000000006,-2.1168575
13.4723835,21.779332999999998,1.9548656999999998,-1.8853221000000002,-0.97392863,-3.3071370000000004
3.5908043,7.447586,-4.8293824,-1.5866789,-0.7562161999999999,-3.5897932
-6.547643700000001,3.4806904999999997,-0.38651994,-1.2806004,-0.5565855,-2.0774653
-3.5101297,-0.22922087,-0.83589244,0.38449603,-1.0803937,-0.8036194000000001
-10.2553625,2.6157804000000002,0.51166004,0.96686006,-1.1245854,-1.1730533
-8.267380000000001,3.3190722000000004,-4.955126,0.8758236999999999,-1.7979683999999998,1.6243081
1.4666209,-1.2408956,-1.4369999,0.9519549,-2.7332728,3.2383187
5.851285,-2.2788682000000002,2.787636,1.4661813,-1.9028453,3.5545201
6.7302065,-0.5612295999999999,4.4546614,2.321096,0.28286552,3.7424397000000003
3.8155627,1.0098455,1.5322412,2.9865026,2.1955194,3.9117017
1.8356153000000002,3.1996017000000005,-1.3039875,3.1243837,2.6650305,4.4408507
1.8194400000000002,6.2292914,-1.4888104,3.1110667999999997,2.6501252999999996,5.008292
1.7593935,8.190794,-1.6289096,3.120125,2.611798,5.492708
2.1708512000000004,9.81232,-1.3676447,3.231896,2.6868472000000003,5.9404025
2.7670076,12.275053,-2.8945708,3.1605644,2.8417625,6.365198
6.772908999999999,24.95939,-4.1471887,3.0030136,3.7712027999999997,6.345511
5.3753753,31.750658,-8.048387,2.4866405,3.9505877000000003,4.573391
-5.1560283,28.230990000000002,-7.324265,1.2122533000000002,2.678871,2.547884
-23.1336,17.257301000000002,-0.18243816,1.6807171000000003,3.0270118999999998,2.432378
-23.027527,12.170111,-3.8751209,0.75232416,1.6301899,1.3347231000000002
-15.205738,11.741653,4.2382545,0.095452055,-0.80890775,-1.0681764
-12.825461,21.256939000000003,-2.4987707,-0.81588906,-0.32716197,-1.7362535
-6.8061886,14.401295999999999,-7.174005,-1.3801366000000002,0.4079707,-1.7703049
14.337121,15.695467,-0.031632192,-2.1440322,-1.4860257,-1.3162401000000001
21.119329999999998,15.028969,7.7823625,-1.0096555,-2.024739,-4.490505000000001
-1.3699143,13.754564000000002,0.46895707,0.13697344,1.3922317,-5.0696754
-11.262689,6.9442770000000005,-2.6672173,0.08319984400000001,0.61716586,-3.6909351000000004
-10.17417,6.193023999999999,-0.0067229187,-0.06318091599999999,-0.38571775,-1.9555717000000001
-4.3775010000000005,9.513292999999999,-0.86812794,-0.27131143,-1.086258,-1.4370867
-2.2414707999999997,9.199278999999999,-1.9857988000000002,-0.26598817,-0.84617054,-0.97661644
-1.5334287,10.280903,-0.6378153,-0.20477948,-0.49857074,-0.63753384
0.21927057,9.989988,-0.68394685,-0.07967428,-0.5432861,-0.5337217
0.66187227,9.669366,-1.3034896,0.008674286,-0.38517672,-0.53159237
-0.23949678,10.126037,-2.8704085,-0.034958944,-0.56138515,-0.50604075
-0.2454344,9.727143,-2.4522276,-0.13023646,-0.73705256,-0.41074579999999994
1.118638,9.749888,-1.5196763999999998,-0.10681415,-0.8472351999999999,-0.45813146
2.6193044,9.581289,-1.1026448,-0.058922317,-0.7322529000000001,-0.73387605
0.80164576,9.699542999999998,-2.0516968,-0.1052259,-0.6215291999999999,-0.90795517
-0.5555505000000001,9.950752,-1.7544806,-0.100967295,-0.7562161999999999,-0.8999616
-0.28686368,10.044203,-2.2628174,-0.09616764,-1.0250318999999999,-0.90687305
0.7577265000000001,10.674700999999999,-1.4213132,-0.19678587,-0.9313425999999999,-1.0064267
2.1108623,10.639555,-0.8683482,-0.2899341,-0.65240407,-1.25929
2.5061066000000003,10.387752,-1.1182263000000001,-0.48530626,-0.30586895,-1.6234006
2.1251605,11.491699,-3.186213,-0.7264584,-0.029583331,-1.9571598999999997
1.5101379,13.08413,-3.9343631,-0.8552636999999998,-0.088139124,-2.17009
1.7254725,13.66506,-3.1766843999999996,-1.0958921999999998,-0.09452703,-2.3872788
2.5603306,14.797057,-4.816473,-1.3194515,0.085905105,-2.5528232999999996
3.5713732000000005,17.046104,-5.006553599999999,-1.4461623,-0.16692328,-2.8253912999999997
3.7848019999999996,19.28246,-6.8224883,-1.5520863999999999,-0.9611528,-3.0218107999999995
5.4373949999999995,20.08986,-10.301972,-1.6473813999999998,-2.6379778,-2.2978482000000002
12.296831,23.908134,-12.694134,-2.6241898999999997,-3.619586,-1.8560181
15.220370999999998,23.352287,1.5139208,-2.382514,-1.0239673,-3.2587042
5.1644273,7.8220963,-2.0824192,-1.4387098999999999,-0.7322529000000001,-3.6941464
-5.784382,2.0009973000000003,-0.25976133,-1.0149788,-0.49909434,-2.3883433
-5.981482,-1.1845456,-1.3155564,0.36904988,-0.80199623,-0.92231923
-11.157555,2.8469644,0.8374438,0.8018392,-1.0761352,-1.0665882
-7.087756,2.5620543999999996,-4.974002,0.8220675,-1.9241381999999998,1.6764759999999999
3.0040145000000003,-1.3584796000000001,-0.69360024,0.9540841999999998,-2.458593,3.042423
7.7379546,-2.0722294,4.2077327,1.5236725,-1.0931696000000002,3.0525284
5.2583947,-0.42670420000000003,4.404584,2.5329613999999996,1.6977865,3.3405254
3.0946112,1.1812608,0.28621244,2.975315,3.1776512,3.8164241000000003
1.3883113999999999,3.4933699999999996,-1.6179249,2.9843732999999997,3.5066282999999996,4.4067644999999995
0.6746286,6.293906,-2.1245666,2.8528802000000004,3.4895937000000004,5.0444903
0.38585913,8.202621,-2.6254435000000003,2.687877,3.198944,5.5869384
0.77510846,9.633319,-3.0225935,2.6170687999999998,2.8933895,6.0612316
1.3176728000000002,12.208207000000002,-3.6303853999999998,2.5521252,2.5457895,6.494021
3.5853457000000004,22.499538,-5.7944856,2.4376838,2.6623602,6.5903807
3.3955717000000005,30.424422999999997,-7.3399425,2.2343182999999995,2.431331,5.215898999999999
-3.8276004999999995,29.850206,-6.586631,1.6455662,1.5769573000000001,3.569949
-16.993603,18.064165,0.12764926,1.8632959999999998,2.0943778,3.0344292999999998
-17.6237,13.626407999999998,-3.9404538000000002,1.3889854,1.3363463,2.0991423
-14.851626000000001,11.5021,0.9979894,0.27644270000000004,-0.15149458,-0.49699995
-10.469825,12.325064,0.19305885,-0.5390623999999999,-0.7338585999999999,-2.4964142000000002
-8.438508,16.734426000000003,-3.062481,-0.66896725,-0.18502235,-2.6390773999999997
3.3582031999999997,15.889531,-10.348161,-1.4871427,0.90516263,-1.1464368999999999
32.226307,14.573113000000001,11.109038,-1.9172616000000002,-1.0079974,-2.7386136000000003
10.981197,15.234228,5.989967299999999,-0.46029568,-0.29522243,-5.241084
-5.1258135000000005,11.243917999999999,-3.5694482000000005,0.606467,1.3193119,-5.493930000000001
-18.446136,5.8304367,-3.2066310000000002,-0.36819467,0.74173003,-3.1240172000000004
-8.86683,6.6505466,-1.7237198,-0.048275806,0.22856832,-1.4828666000000001
-7.917519599999999,9.512432,-2.1948223,-0.23617795,-1.357744,-1.1517601999999998
-5.0098095,9.230423,-0.31785423,-0.22553144,-0.8600110000000001,-0.26010639999999996
1.2704017,10.229753500000001,-1.3687076999999999,-0.09138544,-0.796673,-0.114790305
1.8669314,9.779758000000001,0.63919437,0.18327703,-0.33248523,-0.29365164
0.7234033000000001,9.710164,-2.8042805,0.24342106,-0.17917550000000002,-0.36072466
-1.1976755,9.864571,-4.3199635,0.056583576,-0.4437325,-0.22392574
-0.6526976999999999,9.131131,-3.0516112,-0.08660324,-0.5853311,-0.005654866999999999
2.5916562,9.864474000000001,-1.2568313999999998,-0.04668756,-0.6620034,-0.14140658
3.6535230000000003,9.655000999999999,-0.9791136,0.057648227,-0.46450192,-0.58217204
1.4760925,9.940965,-2.4488467999999997,0.059236474000000004,-0.46130797,-0.8445997
0.90208733,9.8634405,-3.0840383,-0.0051487214,-0.7524812,-0.9537351999999999
2.0543497,9.476528,-3.1193957,-0.12226032,-1.0324844000000002,-1.1874173000000001
1.7733853,9.729682,-1.8866691999999998,-0.18507472,-1.1043571,-1.4487978000000001
1.3216472,9.972097999999999,-2.3170794999999997,-0.20584413,-1.3215458,-1.6862148999999997
1.8207426,10.8188715,-2.2344987,-0.4906295,-1.1751477,-1.8853046999999998
2.9150270000000003,12.886695,-2.748668,-0.85741043,-0.5624498,-2.1711547
2.6086072999999996,13.405192000000001,-3.3598025000000002,-0.94204146,-0.27551767,-2.4479813999999998
1.8665005000000001,13.887939999999999,-2.4822604999999998,-1.1139913000000001,0.26263714,-2.6390773999999997
1.5532335,14.119987,-5.8184657,-1.2193743000000001,0.41116467,-2.770553
1.7250127,15.441203,-6.506032,-1.37696,-0.28244662,-2.9190807
2.4988952,17.356987,-6.86297,-1.4733022,-1.3215458,-3.0526855
3.1520145,19.115776,-8.758411,-1.5691208,-2.8913648,-2.49055
9.050466,20.666681,-10.293439999999999,-2.36815,-4.4872765999999995,-1.8826343
14.931323999999998,27.038515000000004,2.3480895,-2.1099634,-1.6840506999999998,-2.9531495999999997
7.9029818,10.753575999999999,-5.193119,-1.7320124,-1.156525,-3.225159
-3.5881996,3.5189881,-0.3448321,-1.5909548999999998,-1.0239673,-2.3606625
-4.3935328,-0.071251445,1.1758212,0.13110913,-0.9308190000000001,-0.7785914
-6.9945545,1.35666,1.4718882,1.3655629999999999,-1.0032152,-1.4951013000000002
-10.088582,3.4977275999999997,-4.4450655,1.0850363,-1.3731726,1.0275626
0.68070984,-0.09644802,-0.64690375,1.0520321000000001,-2.4809506000000003,2.9348933999999995
6.957147999999999,-1.9996372,3.0632372,1.506097,-1.7378243000000002,3.1403708
6.9481839999999995,-0.9604292,5.346932,2.3200312000000003,0.45588,3.3442428
3.7156765,1.0518303,1.8381243999999999,2.9385934,2.480846,3.7951312000000006
1.9355875,2.8753214,-0.5285823000000001,3.0588990000000003,3.0823736,4.3822775
1.5424308999999998,5.5284033,-1.5214290000000001,2.9279467999999995,3.0264707000000004,5.1594725
1.8595573,7.6141644,-1.8430852,2.7671845,2.7688252999999996,5.773776
2.0436714,8.865489,-1.9971473000000002,2.7485445,2.5468542999999997,6.2023067
2.0909904999999998,11.829349,-3.0225263,2.713952,2.4579473,6.606874
5.1074934,22.91275,-5.669575,2.619198,2.9082944,6.706950999999999
5.9438642999999995,36.361843,-8.02524,2.3088436000000003,3.129742,5.278713
-4.459804,26.054182,-9.356856,1.3868561000000001,2.40365,3.239366
-22.292517,17.67869,2.0050385,1.7403376,2.735821,2.6516962000000004
-23.523779,13.171098,-6.524678700000001,1.1212343999999999,1.0866768,1.9181517
-13.122169,10.831254,2.00976,0.1385617,-0.9478534,-0.88505644
-12.664015,15.015475,-0.1284154,-0.54546773,-0.6641326999999999,-2.2765725
-4.734639,18.578402,-4.395122,-1.1150559,0.82531387,-2.1136633999999996
10.90263,14.787672,-2.9725832999999997,-1.9678413000000001,0.11677998,-1.3790544
24.933744,13.602504000000001,10.458217999999999,-1.3876066,-2.2935722000000003,-4.344107
0.9869953000000001,17.150616,2.4404673999999997,-0.029094638,0.34780923,-5.317721400000001
-11.041033,6.856007000000001,-6.4025644999999995,0.359468,0.97062993,-4.072621
-9.483241,5.915651,1.2576934,-0.44539058,-0.3335499,-2.4437053
-4.6563773,8.524554,-2.7668066000000002,-0.32135,-0.8302008,-1.9076623
-6.457353599999999,8.817317999999998,0.14701356,-0.38577009999999995,-1.0053444999999999,-1.1927406
-2.5886874,10.262085,-0.81735176,-0.2558827,-0.61355305,-0.61250585
0.25098896,10.383604,-0.3534895,-0.09192649,-0.57787853,-0.5422389
0.037215468,9.717538000000001,-0.26852408,0.091176,-0.32929125,-0.5512971
-0.75925887,9.809695,-3.177843,0.06881833,-0.49483573,-0.44003242
-1.2432323,9.811983999999999,-3.321476,-0.07274532,-0.71469486,-0.26330036
-0.12197979,9.610757000000001,-2.1303799999999997,-0.09403834,-0.7727096,-0.172264
2.2318845,9.651478,-1.1228423,-0.024836035,-0.78335613,-0.39957568
1.7687691000000003,9.836539,-1.4916260000000001,-0.007278023000000001,-0.525187,-0.70300114
-0.443636,9.949738,-2.2737255000000003,-0.017400933,-0.5938483,-0.6976779000000001
-0.38610813,9.922262,-2.3150687000000003,-0.045605455,-0.8658753,-0.7147123000000001
0.67116183,9.947803,-1.7445111,-0.08553859,-0.9377305,-0.8275653000000001
1.2834644,10.211642999999999,-1.6747824,-0.22394319,-0.8600110000000001,-1.0165495999999998
2.5076103,9.948435,-1.5991831,-0.34264305,-0.7822915,-1.3742722
2.2594082,11.052717,-2.1401386000000002,-0.5907066999999999,-0.44214424,-1.7575291000000002
2.0803123,12.708986999999999,-3.9333190000000005,-0.79885465,-0.277647,-2.054043
1.9131682,13.121279000000001,-3.2441623,-0.99208003,-0.19353956,-2.2941306
1.8094801999999999,14.297847,-4.649942,-1.235344,0.15777776,-2.462869
2.6637983,16.246660000000002,-5.0407805,-1.3860008999999998,-0.23666665,-2.682187
3.3955428999999997,17.562151,-4.8437953,-1.5520863999999999,-0.88023937,-3.0015824
3.6558599999999997,19.584167,-7.9132295,-1.7218895,-1.8320372,-2.7726824
7.5892553,19.561068,-11.781934,-2.0152094,-3.7138164,-1.8975394
17.852394,28.953033,-5.4950665999999995,-2.8829,-2.3947138999999997,-2.4948083999999997
11.066144,15.513851999999998,1.2356763000000002,-1.8906453999999997,-0.56138515,-3.6542307999999997
1.0620009,4.847023,-5.2411084,-1.6766505,-0.41659263,-3.4210547999999994
-8.024138,0.5278066,1.8623729,-0.6157347,0.043860123,-1.4839313
-4.9731593,-0.17721881,-0.49827167,0.7448891,-0.82754785,-1.0314373
-12.971114,3.6060602999999993,-1.0624797,0.7432834,-0.6172706,-0.119572505
-4.351031,1.3608258999999998,-4.436857700000001,0.58093286,-1.8240610000000002,2.603787
4.431821,-2.1301115000000004,0.7216507,0.88062334,-1.7915804,3.2782345
6.701064,-1.5671008999999998,4.4353065,1.5896808,0.0012740904,3.402275
4.3593910000000005,0.33437422,2.7275798,2.3524945,2.1758146000000003,3.8329175
2.1932897999999996,2.148432,-0.041323923,2.664978,3.1946855,4.224709
0.8687983,4.8615127000000005,-1.6395589,2.6122692,3.1489055,4.893851000000001
1.3252576999999999,7.543114,-1.9314886000000002,2.452589,2.8273811,5.558193
1.6279231,9.212142,-1.7380849999999999,2.4083972,2.5819876,5.9893765
1.8335179,10.971314,-1.8508615000000002,2.5212502,2.580382,6.301319
2.1003182000000002,14.905601,-3.25576,2.5952523,2.9391694,6.491892
4.2868276,26.07525,-5.256805,2.4866579,3.9468699999999997,6.3689160000000005
2.5272715,32.621696,-7.794831299999999,1.8606256999999997,3.1499702999999997,4.8895919999999995
-3.0952337000000005,27.605891999999997,-6.014321,1.4597933,2.3259304,2.8582384999999997
-19.840395,14.634031,-3.368728,1.510373,2.7688252999999996,2.0576209999999997
-23.740904,12.445846000000001,-2.2211008,0.58039176,2.3908741,0.5724331
-18.206276000000003,11.134867,1.2580764,-0.14940019,-0.9414655000000001,-1.8863693
-13.020866,17.740574,-1.3975146999999999,-0.8951968000000001,-1.1267147,-2.4090955000000003
-6.3250117,17.015743,-6.172328500000001,-0.9601405000000001,-0.89462084,-1.0644588
19.225803,13.991973999999999,0.57640886,-1.9885932000000002,-1.8064855,-0.48474774
25.293697,11.533319,5.818791,-1.1283553999999998,-2.2451217,-4.1173363
5.370319,15.182120999999999,1.4514513,0.35948548,2.4670055,-5.6504335
-11.910981,10.607626,-2.4580502999999996,0.43985787,1.0249271,-4.5591664000000005
-18.187676999999997,4.6368217000000005,1.6991266,0.35948548,-0.48153633,-1.92255
-8.304806,9.065836000000001,-3.5436485,-0.12651892,-0.8435176,-0.9611877000000001
-2.0831182,9.472822,-1.9226589,-0.24949482,-1.1671715,-0.39159954
0.44445002,10.06282,-1.3147997999999999,-0.26970574,-0.76473343,-0.22336724
1.9909703,9.998321,-0.56360465,-0.09032079,-0.6364343000000001,-0.27394688
2.4045637,9.336736,-0.49193183,0.10875147,-0.1855634,-0.42619196
1.3929465,10.251684,-3.260127,-0.036023594,-0.3378085,-0.58749527
0.050067547999999996,9.541258000000001,-2.8724577,-0.20530307,-0.5390275,-0.52466345
1.332718,9.640819,-1.8751866999999998,-0.2761111,-0.6534687,-0.56459653
3.5155501000000005,10.161931,-1.0455383,-0.20371483,-0.5576675999999999,-0.8792095999999999
1.9993979,9.917176,-0.7568646,-0.14620623,-0.37559485,-1.1682535
0.043593623,9.966238,-1.7507647000000002,-0.14568263,-0.5773549,-1.1863526000000002
0.46835372,9.780342999999998,-2.43859,-0.14887658,-0.8270068000000002,-1.1347083999999998
1.1424172,10.10422,-1.6967803,-0.16910495,-1.085717,-1.227333
0.83382386,10.046271,-1.6286222,-0.32347932,-1.4157587,-1.3487031
2.3174915,10.844000000000001,-1.3504926000000002,-0.6875899000000001,-0.7588691999999999,-1.6569283
3.3543722999999996,12.916421000000001,-1.8662515,-0.9324595999999999,-0.3048043,-1.9316081999999999
3.1287236000000003,13.84044,-2.5113163,-1.1304847,0.10986847400000001,-2.2504625
2.8081400000000003,13.743292000000002,-3.5795805,-1.3891948,0.40477675,-2.511843
2.727666,15.117660500000001,-5.3136529999999995,-1.5888081,0.29085913,-2.773206
3.0247195,17.456411,-4.8498383,-1.7277538000000001,-0.34206709999999996,-3.0383215
2.6816014999999997,20.730999999999998,-7.255905599999999,-1.8294366999999998,-1.1378848999999998,-2.7609713
7.738050500000001,19.72666,-12.603183,-1.9768821,-3.1846848,-1.8352661
18.519092999999998,28.211388,-9.916428999999999,-3.1027417,-1.9773706999999998,-2.1775427000000005
13.120312,14.648817000000001,3.7633116,-2.1025110000000002,-0.11475539999999998,-3.5253906
1.5527068000000002,3.5315816,-4.7835,-1.5904138,0.2110103,-3.5594593999999997
-8.502902,1.6884964,0.39033148,-0.89147925,0.76249945,-1.8618823
-6.674575,1.445552,-1.9049801,0.31742302,-0.02586578,-1.0112089
-13.325964,4.7064547999999995,-0.8194778,0.09332275400000001,0.056635935,-0.12915437
-4.5669303,1.5203468,-4.0823917000000005,0.008674286,-1.4737909,2.5862287999999998
3.6634733999999995,-2.495534,0.06355169,0.15294321,-1.4056532,3.2590882999999997
5.259707,-2.0088215,4.2275376,0.9088453000000002,0.42872268,3.2878163000000002
2.0892282,-0.26816973,1.8528248,1.735538,2.6942997,3.7003772000000006
0.7787476,1.3687076999999999,-1.7856721999999998,1.9884012999999998,3.2963684,4.1336904
0.078376584,3.6519046000000004,-2.1014004,2.0001123,3.187774,4.664951
0.23307075,6.28001,-2.2321142999999997,2.0533276000000003,3.0818326000000003,5.2020583
0.47308469999999997,8.01482,-2.875283,2.1459696,3.0344644,5.688604
1.2538052,9.231975,-3.3495263999999993,2.333348,3.089826,6.027704
1.6038566,12.155142,-4.7880106,2.4951751,3.1228304000000002,6.3832974
6.190371,25.446476,-6.565868400000001,2.9114535,3.7786553,6.225188
3.1217995,28.61686,-10.966545,2.4115912999999995,3.065339,4.5686088
-8.0498905,29.029885999999998,-9.665249000000001,1.1968246999999999,1.5652462,2.6916118
-25.961584,18.948,3.491972,1.5103556,2.0816019,2.9205117
-19.768713,11.554905999999999,-8.827239,1.1590382,0.44416884,1.9958713
-13.129716,10.802083,5.0400434,0.33871606,-1.1277793999999999,-0.86376345
-14.9270525,15.6061535,0.12073479999999999,-0.41610396,-1.1501371,-2.0918295
-5.5050930000000005,18.490353,-1.6014049,-1.0229549999999998,0.29405308,-1.6111483999999998
11.921352,13.842258,0.7736719,-1.6606808000000002,-0.40594614,-0.5150816
33.11091,12.270677000000001,10.987097,-1.1523013,-2.1418507,-3.313525
6.496149,13.50549,2.2587857000000002,0.2743134,1.0643193000000002,-5.4667726
-6.156153,9.657224000000001,-5.806169000000001,0.8896815999999999,2.0821254000000002,-5.2565126
-18.339594,5.745749,-1.6304322,-0.32135,-0.17811085,-3.0031881
-8.324716,7.8691187000000005,-3.504058,-0.3298672,-0.3548429,-1.4242933999999998
-7.083379700000001,9.205428,-0.5956678000000001,-0.3522249,-1.4184291,-0.7375936
-1.1651622,10.261041,1.1675659999999999,-0.31176817,-0.64336324,-0.22443189
2.6783360000000003,10.276029,0.18517713,0.020385446,-0.6449515,-0.42140976
1.1696346000000002,10.016842,-0.79476005,0.17688912,-0.085486226,-0.5928011
-0.73396647,9.844756,-2.5401425,0.10768682,-0.32716197,-0.50230575
-1.6248298,9.424937,-3.6624582,-0.07595673,-0.5821371,-0.27501154
0.7177051,9.57425,-1.747614,-0.12119567,-0.72267103,-0.20474458
4.9740496,9.882537,-0.3371132,-0.022706734,-0.47300169999999997,-0.6651973000000001
2.09575,9.867252,-2.0058333999999998,0.004415683,-0.25103070000000005,-1.0687
-1.3652408,9.722547,-2.329654,-0.061034165,-0.58958966,-0.98352796
0.5013363000000001,9.767758,-2.4421623,-0.124913216,-0.9435948000000001,-1.0106852
1.3491901000000002,10.465544,-2.0900613999999997,-0.13077752,-0.90526736,-1.1969992
-0.23058078,10.386928,-1.2419299,-0.089779735,-1.0298315,-1.2300034
1.4482621999999998,9.933514,-1.0238373,-0.38948768,-1.1469431,-1.4572976
2.6638656000000003,11.722528,-2.1652012000000003,-0.67587876,-0.5906543000000001,-1.7734988999999999
2.9903579,13.083086999999999,-2.8978653,-0.8744274,-0.26700047,-2.1466677000000005
2.8948772000000003,13.943477,-3.037878,-1.0655409,-0.069516465,-2.4506342
1.9729755,14.762351,-4.2662949999999995,-1.2481198,0.39093629999999996,-2.6193726
2.6238153,15.980042000000001,-4.9412875,-1.4094232,0.06195919,-2.7987576
2.9794788,17.609842,-5.483804,-1.4291105,-0.4309567,-2.9360976
3.8816426,19.387487,-8.3224745,-1.5632565,-1.8229964,-2.6257606
9.146875,20.787888,-12.885527,-2.1056874,-3.5147266000000004,-1.8831578000000002
16.50915,27.404934,-2.5407462000000005,-2.583192,-1.460474,-2.9414208
7.0794725000000005,10.770327,-0.16207787,-1.5813556,-0.8046491,-3.6009808
-3.0871506,3.3974202000000004,-3.8071062999999996,-1.5494161,-0.63378143,-2.7338139999999997
-6.612546000000001,0.9591651,0.62273186,-0.12171926,-0.52571064,-1.0213318
-6.1059136,1.1775833,0.27543855,0.97537726,-1.5328703000000001,-1.4237698
-10.412623,4.094535,-3.4868483999999995,0.89233446,-1.357744,0.6309889
0.025838224,0.086181685,-2.3802578,0.7858694,-2.8024752,3.0663865
7.253895,-2.415826,2.3750193,1.1973656000000001,-2.1876307,3.3245553999999995
8.309986,-1.2345078,6.0067167,2.3072555,0.43404594,3.3064562999999993
3.2445743,0.8608399999999999,1.9164435000000002,3.0370824,2.7800127999999997,3.6652438999999997
1.3467575,3.1541502,-1.4937806999999999,3.1520646,3.3639824000000003,4.322150700000001
1.1307815,5.8924084,-2.044265,2.9396582,3.0429816,5.072188400000001
1.7475948000000001,7.949133,-1.8129085999999999,2.802859,2.6810002,5.6603994
1.9752451000000002,9.623101,-1.8050173999999999,2.78476,2.424943,6.120328400000001
2.4411566000000002,12.345817,-2.6445203,2.6681721,2.3408356,6.5099907
4.9230339999999995,22.10032,-4.3228273,2.6990469,2.9636563999999996,6.414172
3.7672190000000003,31.195778000000004,-7.648009299999999,2.3269603,2.9082944,5.2585025000000005
-2.7077081,27.615076000000002,-8.263702,1.5801163999999999,2.4387833999999997,3.0844855
-21.4357,18.035666,3.1768856,1.7201092,2.4632704,2.6729891
-22.208376,12.985422,-5.402027599999999,1.1712904,1.2506331,1.9330568
-14.806212,11.836052,1.9594817,0.18807667,-0.29202849999999997,-0.61250585
-13.221309,15.893247,0.583036,-0.45176099999999997,-0.5853311,-2.0130627
-4.481591000000001,17.586779999999997,-4.2220407,-1.086293,0.7044847,-2.2669558999999997
9.635110000000001,14.191717,-2.209877,-1.9928519,0.085905105,-1.4413278
24.706131,14.295731,10.159105,-1.196493,-2.1466502999999997,-4.1497993
0.9796786,16.085673999999997,0.8602940999999998,0.11674507,0.5878966999999999,-5.156959
-11.375092,7.5989949999999995,-5.280785,0.40153044,1.0510198,-3.9762614000000003
-12.03728,6.2160945,1.9304161,-0.22605504,-0.26700047,-1.9811058000000001
-5.384799,9.86548,-2.4486362999999995,-0.30538025,-1.1165918,-1.4706143999999999
-4.3226547,8.683598,-0.7336887,-0.23457225,-1.2246451,-0.8137074000000001
-1.0699878999999999,10.233009,-1.0527688,-0.1557881,-0.7253239,-0.41126940000000006
1.068063,10.22101,0.26132232,0.07415904,-0.64549255,-0.38041195
1.271982,9.848405,-2.4747715,0.13377948,-0.31225684,-0.50762904
-1.9891794999999999,9.988102,-3.7816322,-0.014730578999999999,-0.5720316999999999,-0.32717943
-0.6913305000000001,9.696755,-2.7171125,-0.12758356,-0.83765334,-0.07379252
2.5628588,9.979674000000001,-1.5186805,-0.11107276,-0.8307418,-0.21964969
3.10278,9.626184,-1.0173345999999999,-0.013124876,-0.5800078000000001,-0.6034476
0.8650059000000001,9.334945,-2.2300646,-0.006213371999999999,-0.48312458,-0.75091046
0.13010092,9.794277000000001,-2.588161,-0.07061602,-0.74822265,-0.78072065
1.1434898,9.723619,-2.2701054,-0.1637817,-0.9127199,-0.92231923
1.9908075,9.767567999999999,-2.1993232000000003,-0.18613936,-0.9648878000000001,-1.160801
1.1120205,10.641958,-1.2104318,-0.31389746,-0.8350004000000001,-1.3716019
1.6465116999999998,10.053185000000001,-1.6735278000000002,-0.43100905,-0.7375761,-1.5754738000000001
2.132343,11.232532,-2.3633835,-0.65456825,-0.5645791,-1.8517593999999997
2.0276494,12.822396000000001,-3.705161,-0.88933253,-0.26434755,-2.0865061000000003
2.9342473,13.530965,-3.3191678999999996,-1.0517005,-0.1291369,-2.331917
3.1722887,14.075838000000001,-3.5100434000000003,-1.2912469,0.34302699999999997,-2.6300192000000004
3.2201343,15.382698000000001,-5.6502300000000005,-1.422199,0.11306243,-2.9052227000000004
3.5489347,17.073501999999998,-5.284606500000001,-1.5403578000000002,-0.6981841,-3.2129068
3.3523517,19.500975,-7.606446000000001,-1.6186184,-1.7261131999999997,-2.9015052000000003
7.33502,19.879179999999998,-11.824828,-1.9460073,-3.418908,-2.077989
15.340081,27.815384,-4.22749,-2.5576402999999996,-1.7830633000000002,-2.9520674
8.23545,13.150431,-0.36782598,-1.732536,-0.7056366,-3.5759528
-0.882474,4.6531982,-3.9784067000000003,-1.6170126,-0.82967716,-2.9760307999999998
-7.295372,0.5714672,0.7325012,-0.28354618,-0.72321206,-1.2544903
-5.792771,0.7153396,-1.0987280000000001,0.7757639000000001,-1.4785731000000002,-1.3487031
-9.674711,4.710075,-3.2068512000000005,0.6320361,-1.3231341,0.47237337
-0.7088561,0.5288983,-4.1521873,0.5303532,-2.3824617999999997,2.8646264
7.359287700000001,-2.1742225,1.7529866000000003,0.8508131,-1.8868754,3.4086629999999998
7.05894,-0.2976663,6.468559,1.8436086999999999,1.0627309999999999,3.3825877
2.0730817,1.2774024,2.349344,2.687877,3.4635186,3.7807671999999997
0.5390114,3.0879743,-2.1902733,2.7645316,3.6615436000000003,4.470660700000001
0.5714481,5.5006213,-2.7505164,2.5808706000000003,3.1302828999999996,5.171725
1.1532487,7.544407400000001,-2.5135,2.5713062,2.9083118,5.668393
1.7774936000000001,8.903461,-2.4218214,2.6777713,2.7752306,5.9718184
1.9071061999999999,11.31515,-2.9794595,2.744827,2.7502027,6.250216
2.201392,17.539270000000002,-5.5465803,2.6069633999999997,2.8194048,6.457299
4.391129,30.300863,-7.027633,2.403074,2.8577322999999994,5.523583
-1.8828481,30.43398,-6.7999925999999995,1.6386546999999998,2.0022767,3.9005315
-14.83681,22.04717,-0.03659298,1.5109141000000001,2.1002245,2.703864
-21.571566,12.913117,-5.156201,1.4917504,1.7345256999999998,2.5745177000000004
-15.964709,11.520745,1.7529578999999997,0.50960124,0.053441983,0.33288664
-13.077714,12.140153999999999,0.34700602,-0.2984513,-0.994157,-1.8357897
-10.748749,20.220163,-2.0351863000000003,-0.83877033,-0.6396283,-1.8592118999999998
-0.33278444,15.10249,-10.304998,-1.7804452000000002,0.42978734,-1.0628531
26.023489,15.375075,6.8181696,-2.124851,-1.7750871,-2.208941
15.326501,16.66893,6.3815436,-0.6992835999999999,-1.0447191999999998,-4.9238005
-3.6464074,11.802706,0.23765804,0.6267128000000001,2.0422099,-5.179317
-14.169661499999998,6.064982,-3.2261007,-0.0056723203,0.71459013,-3.4503415
-8.890274,5.736976599999999,-2.593658,0.0006981317,0.34889132,-1.6723571
-7.7050295,10.141091000000001,-1.8267471999999998,-0.37990582,-1.2054989,-1.3721254999999999
-4.403885400000001,9.561981,-1.2663507,-0.34316665,-1.1155271999999998,-0.5299866999999999
1.7604566000000001,9.96053,-0.22703736,-0.19252726,-1.0053444999999999,-0.45706683
3.2802860000000003,10.247835,-0.41152495,0.04754277,-0.3463257,-0.7839146
0.5657403,10.022387,-2.5551397999999996,0.08906415,-0.27284732,-0.95530593
-2.9612540000000003,9.399119,-3.2535765,-0.025900686000000003,-0.5603205,-0.6034476
-2.0426849999999996,9.27032,-2.3244154,-0.10840239999999998,-0.8227482,-0.26063000000000003
2.0161284999999998,9.832163000000001,-0.34073323,-0.049323004000000004,-0.93027794,-0.36229545
2.5535982,9.843943,-1.3247885,0.0076270886,-0.51560515,-0.7439815
-0.5425548000000001,9.971706,-1.9725828,0.019861847,-0.4847303,-0.8089251999999999
-1.3483762,9.975049,-1.9337583999999999,0.029967302,-0.7322529000000001,-0.69129
0.48040137,10.132788,-1.9537547999999998,-0.024836035,-0.8807804,-0.7439815
1.793554,10.327484,-1.3549266000000002,-0.11426671,-0.8286125,-0.9388126
2.8374834,9.714789,-1.6877206999999999,-0.23670155,-0.680085,-1.3598733
2.5824912,10.691279,-2.1092246,-0.45495498,-0.32396802,-1.813432
1.4075416,11.727288,-3.9018783999999997,-0.64659214,-0.14669493,-2.0556313999999998
1.0312593,12.427688999999999,-3.8977318,-0.78977895,-0.28775242,-2.2344928
1.2100104,13.619071,-3.0561123,-1.0351896,-0.20258036,-2.3776796
2.271264,15.418591500000002,-4.2285433,-1.1805233,-0.022130774,-2.4953322
3.3616984,16.782522,-4.619076000000001,-1.2917706,-0.43947390000000003,-2.7716177
3.6175525,17.87126,-6.274465599999999,-1.4594443000000001,-1.2507378,-2.9717546
5.000855400000001,19.190619,-9.4486685,-1.5989136,-2.8333325,-2.3249880000000003
10.804343,21.133523999999998,-11.267152000000001,-2.4841794999999998,-4.0518339999999995,-1.8879400000000002
15.239707000000001,24.922757999999998,2.7461016,-2.1355150000000003,-1.3247398000000001,-3.1224115
6.984709700000001,9.024723,-3.0847757000000002,-1.4626556999999998,-0.6651799,-3.7942061000000002
-4.962212999999999,3.5851638,-1.9925408,-1.3955653000000001,-0.5358161,-2.5954094
-6.371143,0.42478886,-0.27198133,0.15613715,-0.6864729,-0.81159556
-7.6215963,2.0742023,0.42113048,0.9530370000000001,-1.4168234,-1.4280110000000001
-10.68561,3.6437929,-3.904148,0.9540841999999998,-1.6691456000000002,1.1132758
-0.043181825,-0.5254698,-2.023991,0.9727244,-2.7045097,3.0105009999999996
6.123468,-2.3421037,3.0190692,1.4044316000000001,-1.9672478,3.2628057
