accx,accy,accz,gyrx,gyry,gyrz
-13.021574000000001,16.54039,-0.15217546,-0.24877924,0.1505172,-0.9887814
-11.185701,13.233279000000001,-0.7556579999999999,-0.090669855,-0.08848819,-0.6246708000000001
-9.014591000000001,14.756959,-0.54111826,0.03918264,-0.47122145,-0.30792844
0.19127756,10.664253,-2.6413026,0.13980088,-0.41746530000000004,-0.22010347
21.370338,23.623291000000002,-2.1365569,0.013631022,-0.13959143,-0.23554963
0.27237397,16.513634,1.6819457999999998,-0.012426743999999998,0.08929104,-0.34306192
-3.9015815000000003,-1.5352867000000001,-4.3300858,-0.09813987,-0.079970986,-0.36063740000000005
-13.3466215,9.129980999999999,-0.0873309,-0.109851025,-0.52553606,-0.34733796
-9.663314999999999,9.103387,-0.26876350000000004,-0.19980529,-0.83213806,-0.34199727
-3.2072439999999998,9.607281,-0.69891536,-0.27913052,-0.93008596,-0.4340983
-2.5565574,9.889614,-0.54719,-0.306794,-0.6511474,-0.6124185999999999
-3.254448,10.287014,0.14019486,-0.32810444,-0.4653746,-0.7519053000000001
-5.0332346,9.855674,-0.5571403,-0.4111472,-0.55213493,-0.87699306
-3.5438015,10.153005,-0.53904974,-0.55115753,-0.36264452,-1.1229448
-1.7790834,10.240489,-1.2011806,-0.7560941,-0.21678734,-1.4944905000000002
-0.8907867,10.1649,-1.4520546,-0.9205739,-0.26947883,-1.776623
-1.3816556,9.536842,-2.2591019,-1.0701661,-0.30941197,-1.9549607
-2.5350096,9.028362,-2.7462162999999995,-1.1856719,-0.44992843,-2.1833196
-2.3240993,8.492205,-2.689723,-1.3081068,-0.8885646,-2.3403468
-2.1240113,9.041147,-3.0892003,-1.3262234,-1.664695,-2.4622580000000003
-0.42399395,8.685273,-2.1085258,-1.2740555,-2.7139173,-2.1929014
0.30356562,8.694419,-1.3147997999999999,-1.4364059999999998,-3.1073142999999996,-1.6328951
-0.71338594,9.54597,-0.9386899,-2.1268234,-1.7828712,-2.8444679
-0.24779989,10.040764999999999,-0.87508076,-2.1608922,-0.47495645,-3.9863144999999998
1.6130693999999999,10.514078999999999,-2.3621483,-0.8694881,0.37620570000000003,-3.2793862999999996
2.443101,10.553229,-4.2926793,-0.3808134,-0.2833193,-1.6520588
0.7560698,11.758939999999999,-2.6084924,-0.5772326999999999,-1.5970985,-0.8178962
0.90422297,13.343269,-2.9898502999999996,0.13020156,-0.82789695,0.033265974
1.0237797,13.888323000000002,-3.4194562000000004,0.6955486,-0.34772193,1.8453017
0.71436274,13.986678,-4.420692400000001,1.4897606,0.35065409999999997,2.1913133
1.04233,13.787154000000001,-4.8647594000000005,1.8613238,1.4131756000000002,2.5761757000000003
1.5239764,15.990653,-5.802204,2.303154,1.7059547,3.1777036
6.447307599999999,17.787703,-6.9039583,2.791305,1.4009409,3.9085949999999996
8.147008999999999,20.16933,-7.495824300000001,3.0335045,0.74351025,4.5457797
-2.259226,19.546684,-1.5657313,3.1671270000000002,0.63226295,4.791173000000001
-9.330826,12.268627,0.7391571,3.2970142,0.93940604,4.716124
-4.871032,4.926549,-4.543448000000001,2.812598,1.2252735000000001,5.142525
-3.7019627,-0.4006553,-0.8479975000000001,3.053209,1.4701431999999999,5.5263233
-10.118825,-0.02567542,2.8499236,3.1485043,2.1328971,5.4592675999999996
-2.7369366000000004,-0.6349806,1.8323305,2.4373174,2.3138876,4.808225
1.9436896000000001,-1.2901681999999999,2.285888,1.5126594,2.1387438999999997,3.9192413999999998
-0.86216164,0.13789643,1.1107468999999999,1.3710608,2.0418606,2.7502549
-2.9973487999999997,0.34589509999999996,1.3526378000000001,1.2209451,1.1720409,1.1186688
-3.338858,1.0785495,0.042540178,0.44854963,0.5859594,-0.35904914
-1.6374806999999998,3.7159063999999997,-0.58266246,-0.8875871999999999,0.7887666,-2.2301817
0.8595089,5.916657,2.6167860000000003,-1.3065186000000002,0.92930055,-2.930181
0.5148204000000001,7.001019,-1.3641587,-0.9716946,0.14039429,-0.36011377
-3.4848564,10.5302925,-3.1554623,-1.111705,-0.5633225000000001,-2.9504092
-3.3931584000000004,12.800562,0.4730751,-1.0632546,0.6013881,-4.7390227
-0.39571366,14.975454000000001,-0.87434334,-0.46225044,1.8598052999999999,-2.4808981
-0.54890424,17.156237,-4.2656054,-1.4172423,0.11590732,-2.8753425999999997
-2.7407386000000002,19.327816000000002,-3.0233022999999997,-0.62727135,-0.70759135,-1.871918
-5.2870099999999995,15.533609,0.24374889,-0.5639333000000001,-1.1243935,-1.4242411
-9.481594,13.550904000000001,-0.33087867,-0.4452335,-0.09489355,-1.2613493999999998
-8.869157000000001,17.302013,0.4666491,-0.30363494,0.26921704,-1.0595894
-7.1408787,13.806835000000001,-0.76058996,-0.21046926,-0.20507619,-0.71783644
-7.0491714000000005,14.134476999999999,0.48219222,0.006178465699999999,-0.6884276999999999,-0.47136107
2.6923277000000003,11.332139999999999,-2.0123458,-0.016702801,-0.45420447,-0.42612213
22.118172,24.135506,-1.7458901000000002,0.099326685,-0.029932396,-0.47616073
-1.9648926,15.062966000000001,0.58855224,0.009354965,-0.056548666,-0.40962878
-7.433114999999999,-1.6460807000000002,-3.5794945,0.034382987999999996,-0.38765508,-0.30688125
-9.869177,9.52581,-4.9050965,-0.033196162,-0.71769685,-0.3356268
-9.440424,9.711762,3.3460596,-0.12636183,-0.82203263,-0.42027527
-1.789206,9.382838000000001,-0.8382291999999999,-0.21259856,-0.8028689,-0.51448816
-1.8527961,9.789363999999999,-0.8355476999999999,-0.25731388,-0.56279886,-0.6539574
-3.0276597,9.836414999999999,-0.8823112,-0.24507913,-0.36636207,-0.73167694
-5.115365,9.659695,-1.0634469,-0.3196047,-0.44195226,-0.7833211999999999
-2.6418195,9.946069999999999,-0.61500335,-0.4633151,-0.48082075,-0.93767816
-0.9638576999999999,10.378788,-0.22152112,-0.65442866,-0.26895523,-1.2395154
-0.897251,9.680859,-0.6369821999999999,-0.83116066,-0.27799603,-1.5663632
-2.569831,9.839872,-2.3798175,-1.0259918,-0.60644954,-1.8005863000000002
-2.8571446,9.75507,-2.4696574,-1.2085881,-0.704921,-2.0555790000000003
-1.7744769,9.272016,-2.875398,-1.3224883,-0.8853880999999999,-2.3978555
-1.1710902,9.164477,-2.0407889999999997,-1.3113183000000002,-1.4278364,-2.5879044999999996
-0.2652584,9.369602,-1.4866173,-1.2767258,-2.2550526,-2.5942924
-0.118752405,9.334284,-0.6718991999999999,-1.3347405,-3.1440360000000003,-1.8878877
-1.0283191999999999,10.193017,-0.6252218,-1.9676667,-2.0160471999999996,-2.2903256
-1.3845956,10.094769,-1.7480832,-2.2375646000000002,-0.4605924,-3.9149830000000003
0.6762949,10.082529,-2.3102899,-1.2213638999999998,0.33522537,-3.8031945
1.9920237,10.380789,-3.8520982000000004,-0.38987166,0.12866567,-2.1066822999999997
1.2438548999999999,10.736721000000001,-4.414994200000001,-0.52827626,-1.5987041000000002,-0.7519053000000001
0.7114897,11.66525,-3.2645513999999998,-0.10667452,-1.3458583,-0.30051079999999997
2.2174044,12.845754,-3.554336,0.44800857,-0.81245077,1.5940267
2.2658150000000004,13.4433365,-3.7293425000000004,1.220404,0.02167699,2.1322165
1.2001559,14.357107999999998,-3.4268495999999997,1.6079370000000002,1.2188855,2.3866680000000002
1.4889444,15.531061,-4.717947000000001,1.9523602,1.9705291,3.0100298
3.9771233,19.078417,-5.8760986,2.3169944,1.9992572,3.657861
9.7064,20.473959,-8.192077000000001,2.6752408,1.6681682,4.372242
1.6641903999999998,19.591158,-4.0918345,2.8280267999999995,1.2332497,4.8348236
-8.93494,14.529041000000001,2.3263404,2.9781425,1.1789525,4.652245
-7.6005273,6.735416000000001,-3.8888252,2.3787441000000005,1.3333268,4.9428945
-3.1163312999999997,0.9948962,-4.426706299999999,2.409078,1.52177,5.5183295999999995
-9.34275,-0.1455579,3.2216377,2.7598891,1.5627503,5.5657153
-4.530547599999999,-0.40238870000000004,1.2339716,2.8104513,2.092423,5.1627364
1.8294861,-1.3914908000000001,2.3865592,1.9459548,2.0642009,4.419069
0.90819734,0.03041594,1.2217516000000002,1.3550736,1.8534175,3.4635534
-1.943182,1.0055169,1.3768288,1.4514333000000001,0.9117251000000001,1.9490964
-3.463232,1.1925136,0.7495958,0.67050314,0.4757593,0.41493458
-2.98624,2.4299998,-0.48056418,0.009354965,-0.22211060000000002,-1.2735842
0.33386663,5.171667,1.5148688999999997,-1.2245579,0.40549234,-2.6464602999999998
1.745057,7.127040400000001,0.28228596,-1.0451555000000001,1.3162923999999998,-2.6241026
-4.370902500000001,9.748796,-4.579629,-0.6459289,0.7126354,0.1397136
-5.050415,11.650644999999999,-0.09422620400000001,-1.2591504,0.85210466,-4.073616
-2.2871810000000004,12.650530999999999,-0.030808587999999998,-0.8710938,1.0267074,-4.3584190000000005
-0.33254504,14.815454500000001,-1.8932868000000003,-0.15458381,1.8342538000000002,-2.5053852
-1.5341086000000002,17.701826,-4.871415,-1.3187708,0.18243927,-2.9099526
-3.1985770000000002,18.221762,-0.517703,-0.49473104,-0.98918283,-1.6542056
-5.9760423,13.505338,-2.4658554,-0.43991023,-1.1983953999999999,-1.3225582
-14.406046,13.091035,1.7573631999999997,-0.31586970000000003,-0.32590532,-1.1809596000000002
-7.404634,14.856682999999999,-1.6295415000000002,-0.18011798,0.3373547,-1.0697123
-3.839026,15.748925,-2.7283842999999997,-0.141808,0.106308006,-0.7444702
-3.97652,10.365112,-0.8165856,0.017348573,-0.5665164,-0.46764353
12.6252575,11.611198,-0.1282526,-0.029478611000000002,-0.46858599999999995,-0.39524725
17.001457000000002,26.42039,-0.62420666,0.037035886000000004,-0.040055305,-0.5086413
-6.8680644,12.809841,4.9986239999999995,-0.02628466,-0.050160762000000005,-0.46286133
-5.6012926,-1.0691834999999998,-9.058175,0.06154031,-0.30728266,-0.36011377
-13.216654,11.0602255,2.0636008,0.019477874,-0.6538178000000001,-0.35159656
-8.752838,9.185288,-0.41987595,-0.0795172,-0.7123735999999999,-0.44954446
-2.8996465,9.112149,-0.63180107,-0.15723671,-0.70759135,-0.6300115
-0.8443487,9.750941000000001,0.32440475,-0.21313961,-0.50265485,-0.7870562
-0.8938799999999999,10.605136,-0.8799745000000001,-0.22643901,-0.6011263000000001,-0.8945685
-5.060892,9.679202,-2.7992337000000003,-0.30841714,-0.7938281,-0.930243
-3.7743919999999997,9.069897000000001,-1.0099890999999999,-0.4713087,-0.7320784,-1.2160931000000001
-1.0687333,9.968451,-0.7313233,-0.67198664,-0.35997415,-1.5674278999999998
-0.13699621,10.131285,-0.5289366,-0.8476715,-0.45792204,-1.8793706000000001
-2.240561,10.222925,-1.5543828000000002,-1.0126923,-0.43451717,-2.1215873
-2.3743682,9.909533999999999,-1.7493379,-1.1447091,-0.4254589,-2.4995383999999996
-1.8899158,9.616033999999999,-2.2989889999999997,-1.2021828,-1.0903246000000002,-2.7247033
-0.90888685,9.620391,-2.261448,-1.171849,-2.1246417,-2.7028866000000003
0.2390371,9.103808,-1.9016761999999998,-1.1026467,-3.132325,-2.1646970000000003
-0.061435215,9.579498,-1.5197914,-1.4273826,-2.9870088,-1.9901117
-1.5481194999999999,9.953672000000001,-1.3207757,-1.9756603,-2.0612862,-3.6312623
-0.5016523,10.0340805,-2.3512687999999997,-0.9078156,-1.1595443,-3.452401
1.9380296000000001,9.976657000000001,-2.6815536,0.19779816,-1.4491295,-2.11307
2.5793595000000002,10.967149000000001,-3.2267900000000003,0.08281587,-2.8784144,-0.8509178
1.1668382,11.352979,-2.6933715,0.41713370000000005,-2.6921005,-0.5474923
2.0950990000000003,12.381748,-2.7239022,1.0990338,-1.7041045,1.3810965
2.4424975,13.788360999999998,-4.3752116999999995,1.7314363999999998,-0.44249332,1.9086397000000002
0.9037440999999999,14.321320000000002,-5.1711693,2.2366219,1.3439733,1.8644479999999999
1.1553364,15.027169,-5.9175763,2.583157,2.6886272,2.5096263999999997
1.0985842,18.601337,-7.113863,2.8487787,2.8765468999999997,3.3256900000000003
8.066573,21.034000000000002,-6.7772765,2.9344919,2.449081,4.234902
0.56253207,17.93915,-4.5828085,2.9398150000000003,1.7735686000000002,4.746457599999999
-8.936328999999999,14.605089999999999,4.4017878,2.998371,1.5329576,4.7794620000000005
-6.242507499999999,7.389196000000001,-2.3766953999999996,2.4974439999999998,0.91278976,5.0307198
-1.6509744999999998,1.3881582000000001,-4.6134925,2.1620965,0.8984257,5.7791690000000004
-6.555266400000001,0.15025052,4.1885023,2.5006554,1.1390368,5.7541585
-3.5569887000000002,0.78864044,1.7812095000000001,2.3398757000000003,1.7166011000000003,4.975357499999999
5.174253,-0.31964508,3.0334442000000004,1.8309726000000002,2.2675667,3.8021126000000005
3.4596312000000005,0.456603,2.8792287999999995,1.561616,2.4842142999999997,2.6166150000000004
-1.213324,1.0689918999999999,2.2708526,1.0085385,1.0421536,1.1303798999999999
-3.5451135999999996,1.3316742,0.8980363000000001,0.6715678,0.70837677,-0.287735
-2.5680112999999998,2.7372238999999996,-0.80814844,-0.5591510999999999,0.65088564,-2.0183163
-0.06241205,5.286311,0.60145223,-1.1526853000000001,1.5835198,-3.2069902000000003
0.16123512,7.10465,1.5843677999999999,-1.1367155,1.7607929,-0.9573828999999999
-4.2393746,10.162543,-5.3598995,-1.2820491000000003,0.46883035,-2.4505644
-5.646064,13.657359,-1.5316473999999998,-0.8929103999999999,0.6088232,-5.651446
-0.4943356,14.757485,-0.18106867,-0.17107718,2.099352,-2.3563342
2.0033913,14.886802,-2.1578557000000003,-1.4443996000000001,0.36397097,-3.194738
0.9540415000000001,17.025370000000002,-1.3128749,-0.6485818,-0.71026176,-1.9752066000000001
-3.7711455999999997,15.930252,-1.7888134999999998,-0.34674457,-1.0466914,-1.4753443000000002
-9.585637,13.146456,-1.8436598000000002,-0.19875810000000002,-0.36370915,-1.2320628
-11.390041,16.32541,2.3442203999999998,-0.10241592,0.53803265,-1.0569365
-6.5323877,14.533608,-2.4413579,-0.017767452,0.07810348,-0.6917438
-5.337164,14.719935000000001,1.4807371999999999,0.13020156,-0.5031784,-0.4005705
-1.2102498,11.336592999999999,-2.5982547,0.079639375,-0.3040887,-0.27707103
24.726347,23.869694,0.4718301,0.12061971,0.10471976,-0.35585517
-2.1357908,19.16479,2.789561,0.16481145,0.019024088999999998,-0.23661429
-8.626424,-3.5035502999999997,-6.2561064,0.20418607,-0.4754975,-0.09236282
-10.91641,7.5306745,-3.9382029999999997,0.1940806,-0.75763,-0.08117526
-10.842669,9.653431,2.1923225,0.09080948,-0.8837824000000001,-0.31700414
-4.2537494,9.62469,0.25437912,-0.05131268,-0.754436,-0.50757664
-2.1822956000000002,9.509606,0.9014648000000001,-0.1375494,-0.5058313,-0.7210304
-2.233886,9.909333,-0.44898945,-0.16095427,-0.48933795,-0.8631700000000001
-5.663599,9.805874000000001,-2.1686007999999997,-0.2115339,-0.7725350999999999,-0.87221086
-3.9153721,9.781042,-1.0840658,-0.31480503,-0.9386206,-1.0228677
-1.4292618000000001,10.203617999999999,-0.49338752,-0.50855404,-0.54202944,-1.3619503000000002
-1.2494382,10.147029,-0.8016745,-0.695409,-0.39032543,-1.7351191000000004
-2.8820157,9.969839,-1.2559695,-0.84660685,-0.66552895,-1.9730598000000001
-3.6688650000000003,9.701689,-2.183761,-0.9887290000000001,-0.6139021,-2.2338994
-1.6504477,9.80756,-2.6096032000000005,-1.0872005,-0.8385434000000002,-2.497409
0.06184702,9.329869,-2.5200505,-1.1047759,-1.4938273000000002,-2.6102622
0.5879871999999999,9.050399,-2.1545229999999997,-1.1031703000000002,-2.4072976,-2.5650058
0.37600458,9.067196000000001,-1.8923291000000002,-1.2043121,-3.5235752999999996,-1.6909273999999999
-0.79793954,9.650404,-1.3566791999999999,-1.6876636000000003,-2.385481,-2.6608243
-2.5559254,9.9933405,-2.0634186000000003,-2.0384748,-1.6689711,-3.5136095999999997
0.9725822000000001,10.105341000000001,-2.907279,-1.1606615,-0.8869763,-2.8348857999999995
2.818234,10.501774000000001,-3.6127162000000004,-0.22430971,-1.068508,-1.6845394
1.4355632999999999,11.143391000000001,-3.3898544000000004,-0.11943288,-1.9079765,-1.0340377
0.86207545,11.684671,-1.7673327,0.24572489999999997,-1.2622745000000002,-0.33829716
2.1056812000000003,13.579519,-3.479321,0.76368624,-0.9242391,1.6611171000000002
1.3127886999999998,14.183155,-4.501386599999999,1.407259,-0.10925761,2.2243173
0.9509578000000002,14.244839,-5.2121005,1.6893740000000002,1.1502069,2.5522125
0.8788540000000001,15.158294,-5.7553835,2.1019349999999997,1.9327252000000001,3.0579389999999997
2.7186925,18.932292999999998,-7.035361999999999,2.4027076000000003,1.9455011000000002,3.7063115
8.789133999999999,21.876694,-5.469975,2.5916742999999998,1.3546198999999999,4.480295
-1.6467702000000002,19.436426,-4.9620120000000005,2.7524366000000002,0.87074476,5.012638
-5.9963164,12.254194,2.2557402,2.9195867,1.2619951999999999,5.0488186
-3.2357826000000003,6.1176353,-1.5845018999999998,2.7444603,1.5478626,5.2394085
-2.4836109,0.10604399,-2.1776892999999995,2.6832342000000002,2.0769942,5.6540813
-9.404119,0.61795306,3.0393624,2.7316847,2.3394217,5.721154
-4.637818,0.33505416,1.0785878999999998,2.3968432,2.782334,5.1473074
2.8547025,-0.5113249,2.0808008,1.4903017,2.5544987,4.024642
1.9373306000000001,0.7781826000000001,1.4962132,1.2736366000000001,2.7461185,2.843403
-0.739454,1.5067668,2.5393765,0.9015498,0.918113,1.1564726
-3.356393,2.0054407,1.5678287,0.26275933,0.19682078,-0.46019095
-2.911742,3.2366349999999997,0.5784199999999999,-0.87107635,-0.6394536999999999,-1.9975468
-0.24550144,4.6933727,1.4258142,-1.3597511,-0.31632346,-2.9983187
1.0429143,6.59956,1.408844,-1.1899481,0.09780825,-0.16315338
-1.4197425,9.939156,-1.7090098999999999,-0.57405627,-0.7629531999999999,-1.4870553999999998
-3.8312879,13.60462,-0.8609645,-0.70499086,1.1704351999999998,-5.1057863
-2.172173,15.918885000000001,-0.716642,-0.46225044,2.1147804,-3.3805282
-1.1617911,17.45149,-3.5114417,-0.9786060999999999,0.5172806999999999,-2.4830099999999997
-1.5274816,19.971407,-3.0359626,-0.5639159,-0.7363195,-1.8575363999999999
-4.271303700000001,16.260507999999998,-1.4922101,-0.4713087,-1.5928398000000001,-1.1495436
-10.966334,12.935336,-3.9242404000000004,-0.289777,-0.64849454,-1.1043047
-16.394459,13.733017000000002,2.3186982000000005,-0.15508996,0.48427650000000005,-1.1154747999999999
-8.469565,14.864391,-4.237555,-0.12953834,0.36184165,-0.85463536
-6.7316139999999995,12.619129,0.99306697,-0.04171337,-0.33655185,-0.47614327
0.5387145000000001,9.750444,-0.57159173,0.03918264,-0.6713758000000001,-0.30527553
27.591068,18.291836,0.29062736,0.06260496,-0.42385322,-0.30899309999999997
6.8545229999999995,21.74458,-1.465941,-0.004974188300000001,-0.11510447,-0.39844123
-11.275541,3.5216982000000003,-0.2860209,0.04982915,-0.26574382,-0.35531414
-8.059447,4.885388,-8.196185,-0.02893756,-0.56918675,-0.38086575
-14.046312,10.783044,4.514094999999999,-0.07204719,-0.7640004,-0.51874673
-4.272357,8.983217,-1.0121057,-0.20141099999999998,-0.6080378000000001,-0.746041
1.3246161,9.50184,-1.0515813,-0.28284806,-0.29609509999999994,-0.8860513000000001
-0.12379938,10.470448,0.41102698,-0.30574676,-0.36475635,-0.9350078000000002
-3.7097485,10.17373,-3.1475804,-0.37016687,-0.6341305,-1.0020982
-5.0956564,9.129847999999999,-1.4984926,-0.48193777,-0.5297772,-1.2549441000000001
-2.3902273,9.588328,-1.1634575,-0.73640674,-0.11616912,-1.6217251
-0.07971734,10.285615,-0.29640216,-0.8593652,-0.19282398,-1.8479546000000002
-0.31933862,10.302374,-0.92523444,-0.96956533,-0.5563935,-2.0156457
-1.5677903,9.827355,-1.9839313000000003,-1.1697022,-0.46483353,-2.246134
-1.1880125,10.208197,-2.0955393,-1.2580857,-0.6602057,-2.616109
0.063800685,9.817136999999999,-2.2981656000000004,-1.2367927,-1.3665928,-2.7624897999999996
1.1033822,9.646334,-1.8932006000000001,-1.2133703000000002,-2.6058638,-2.447894
-0.09483912,10.107534,-1.0639927,-1.4007488000000001,-3.3165095,-1.8357198000000001
-1.5137962,10.494466000000001,-0.6429389,-1.9596732,-2.1129131,-2.8311683999999997
-0.34353920000000004,9.984309,-1.4927368,-2.1960256,-1.2723799,-3.3677523000000003
2.3113240000000004,10.008863999999999,-3.130974,-1.0903945,-0.41905355,-2.691158
2.0322464,10.657214,-4.0056047,-0.31852257,-0.82203263,-1.4716091999999998
0.3549069,11.073413,-3.493533,-0.36217326,-1.9473685,-0.9733527
0.60504353,11.582324,-2.1942093,0.28991663,-0.8699418999999999,-0.011431906
2.454708,13.139819000000001,-3.221839,0.8738689000000001,-0.5106135,1.8458253
2.1016588,13.331547,-4.49249,1.5030775,0.29796259999999997,2.1407335
0.60242903,13.892423,-5.1314254,1.8038327,1.7304416,2.2583861
0.8369363000000001,15.688993,-5.916972599999999,2.218523,2.543311,2.9141936
4.050654,19.518309,-6.023035500000001,2.4894853,2.3740318,3.6264625
6.591476400000001,21.919998,-7.0657105,2.7119798999999998,1.6644506000000001,4.312621
-2.1530576,19.814949,-3.6252525,2.8083394,0.94420564,4.8747745
-5.441915,11.797209,1.6205682,2.9595199,0.8936434999999999,5.118037999999999
-2.9335961,5.3294163,-2.5117762000000003,2.9850714,0.7871784000000001,5.2463202
-3.5505053999999996,0.17934486,-0.24946624,2.8136628,1.0783516000000002,5.7344713
-10.789308,0.4086902,2.557448,2.9057638999999997,1.7922088,5.567321
-3.1025023,-0.6297708000000001,1.2369595,2.7827877999999995,2.905816,4.870498
3.7210205000000003,-0.80031455,1.5447485,1.5238295,3.0649900000000003,3.8745263
1.3219823999999998,0.89572835,1.8281261999999998,1.2598135,3.3242413999999996,2.6682767999999997
-2.5967702999999998,1.2239256,1.4039598999999998,1.1065038,1.751752,0.9941046
-3.8816620000000004,1.5851146999999999,0.26354417,0.017366026,0.6450388000000001,-0.45645595
-3.4992886,2.7925298,-0.76978374,-0.37601373,-0.70438,-1.5770097
-1.8241613999999997,4.817057,-0.049770664000000006,-1.3389817,-0.19015363,-3.1058310000000002
-0.19589359,6.261345400000001,2.445227,-0.9764768,0.57157785,-0.8567646999999999
-1.5426416,8.528194000000001,-1.4670614,-0.7193549,-1.37511,-0.28398252
-2.8112142,12.620967,-1.5859575000000001,-1.2900076999999999,0.61789894,-4.3695889999999995
-0.45070368,17.032503,1.548742,-0.5910732,1.2987343999999998,-3.6392384
0.8203014000000001,17.824938,-1.0739048,-0.47129124,1.6915904999999998,-2.3361058
-0.6727899,18.957022,-3.6519239999999997,-0.95146626,0.24685937,-2.6368607999999996
-3.1705262999999997,16.778145000000002,1.5148401000000002,-0.49364892,-0.7182204000000001,-1.6185136
-9.579632,13.522164000000002,-5.239845,-0.35630897,-0.94020885,-1.1756363
-18.831670000000003,14.156312,1.7625825000000002,-0.23176228,-0.10552260000000001,-1.0308439
-9.867923,16.909595,-3.7731852999999997,-0.05609488,0.33681363,-0.8567646999999999
-5.120259,12.602244,-0.5483009,0.022671826000000003,-0.051225413,-0.58156115
-4.246299,9.511627,-3.797721,0.088697635,-0.2817136,-0.39364156
24.335537,15.875243,-0.36577654,0.046111599999999996,-0.40414843,-0.29623473
8.697579,23.39245,0.27741137,0.034924038,-0.37274995,-0.27600637
-7.388966,7.1504273000000005,3.5121404999999997,0.063669614,-0.51487213,-0.36329028
-3.5967805,1.0037738,-7.1138725,-0.050771628,-0.6240076,-0.40109409999999995
-10.020424,12.298171,0.69358104,-0.09442231,-0.7485717,-0.6023130999999999
-7.8972454,9.057389,-1.0119333000000001,-0.23654447,-0.7054621,-0.80087924
-3.6769576,9.117014999999999,-0.55939084,-0.31691688,-0.48453832,-1.0372143
-1.4864641,9.678915,1.3249608,-0.37388444,-0.45685738,-1.1671191
-1.8086758,10.226162,-0.38199008,-0.43296382,-0.6841516,-1.2219399
-3.652211,10.093025,-2.4661427000000002,-0.55115753,-0.50476664,-1.4567041
-3.026568,9.538375,-1.8828193,-0.70924944,-0.2748021,-1.66377
-1.6614227,9.793022,-1.7181653000000001,-0.7816456999999999,-0.50370204,-1.8378491000000001
-0.7534553,10.377189,-1.2092443000000002,-0.98019433,-0.65540606,-1.974648
-0.7366096999999999,10.384572,-1.9028444,-1.1425624,-0.45312238,-2.220059
-0.12736195,10.666235,-1.9951074,-1.2293401000000002,-0.68416905,-2.532525
0.086909525,10.363905,-2.2521298,-1.186213,-1.4027909,-2.6123738
0.95821697,9.335633999999999,-2.0175745,-1.1446916,-2.7250872000000004,-2.3451467
1.010717,9.278413,-1.5719275,-1.2458334999999998,-3.3005397000000003,-1.9592193
-0.6198300999999999,10.262458,-1.5409082,-1.8042341,-2.3721468,-2.9088705000000004
-0.22781308,9.529497000000001,-1.8150538,-2.0294166000000002,-1.8856188000000003,-3.2367828
1.5148591999999999,10.587361,-2.4399405,-0.81306165,-1.0051526,-2.6150444
0.51479167,11.352528999999999,-2.5344252999999997,-0.0837758,-1.0802191,-1.6286365
-0.16229814,11.145535,-2.1605277000000003,-0.23495622,-1.9622737000000001,-1.014333
0.9677363000000001,11.821323,-1.7089333999999998,0.54169786,-1.0301632,0.14451326
2.9632747000000004,12.818643,-3.5467991999999997,1.1086156,-0.6894749,1.8921463
1.1647503000000001,12.852697000000001,-4.8014755,1.7686992,0.08981464,2.091236
0.30150659999999996,13.378205,-5.374178400000001,2.1274865000000003,1.5829961000000001,2.3302414000000002
1.5510309,15.310967000000002,-5.96206,2.5938036,2.3394217,2.8615022
5.288169,18.803638,-5.1145034,2.7950227,2.2606377999999996,3.5609777
4.711837,22.606274,-6.392729,2.8982937,1.6484634999999999,4.277487799999999
-3.2532412999999996,20.098078,-3.0801117000000002,2.977619,1.1896163999999998,4.854546
-4.378612,11.405086,2.0768166,2.9914593999999997,1.1613944999999999,5.2239623
-2.6584353,5.764989,-2.4498236,3.1181528999999997,1.1310432,5.5449634
-4.0676627,0.49586788,-0.058226988,3.1064417,0.9026843000000001,5.827619599999999
-10.478742,0.687021,3.2811863,2.9201278999999998,1.7554696,5.5928726
-2.1978388,-0.25714687,1.6504573,2.3446752999999996,2.3426158,4.8348413
4.0608535,-0.5590460999999999,2.2489407000000003,1.2981235,1.9130379000000002,3.6349796999999997
2.1141088,1.0789135,2.467014,1.1772943999999999,1.8789691000000002,2.1732142000000003
-0.8739315000000001,1.4823844,1.911952,0.9052848,1.0788927,0.9568418
-2.6618063,2.0684563999999996,0.7580809000000001,0.36550686,0.6578146,-0.36383134
-2.245445,3.5173697,0.07873092599999999,-0.5133537,-0.09539969999999999,-2.1764080000000003
-0.7071418,5.026205,-0.04390008,-1.2676675,0.25483552,-2.9818077
-0.20190783,6.576086999999999,0.744501,-1.0776186,0.63493335,-0.08009316
-1.1388163999999998,9.153244,0.22734381,-0.7481179,-0.36796775,-1.7899398999999998
-0.34133655,13.362681,-1.5942415,-1.0419616,0.32138494,-5.2255683
-0.5947197,19.637826999999998,-1.986086,-0.20938715,2.3069587000000005,-3.0653915
-1.6640085,19.930092000000002,-4.289672,-1.231452,0.36025342,-2.9408274
-3.187554,17.237803,-1.8431236,-0.72415453,-0.48986155,-2.2019598
-6.697271300000001,15.171548999999999,0.7360255,-0.43989277,-1.6929169999999998,-1.483844
-12.266357000000001,12.426903,-4.485623,-0.3339513,-0.8310734000000001,-1.2421683000000001
-13.069411,16.829811,4.215107,-0.124756135,0.26335272,-1.0718416000000002
-9.763143,13.574309,-3.0653825,-0.059812434000000005,0.16009904,-0.7066489
-6.85278,14.326395000000002,1.5659707,0.18024015,-0.5638635000000001,-0.27227136
-0.35115278,10.783724000000001,-2.1627781,0.15842354,-0.7315373000000001,-0.071593404
31.095001,23.532906,1.0412383,0.21165608,-0.2955715,-0.071593404
3.5095358,18.910479000000002,-0.5025238000000001,0.21591468,-0.21464059,-0.05401794
-8.57447,-2.3435214,-3.7564067999999997,0.27447048,-0.6240076,-0.11576769
-7.402709,8.053405,-8.896450999999999,0.1115789,-1.0184695,-0.1860521
-13.0847435,10.373732,5.268747,-0.28338912,-1.4193016999999999,-0.20254546
-4.1522255,8.674097,-1.6986956999999998,-0.35206783,-1.2952787000000001,-0.52565825
-1.9733585,9.815864,0.15336299,-0.47450265,-0.6101671,-0.83281875
-1.184785,10.617891,1.3920273,-0.4633151,-0.28864256,-1.0686476
-5.657901,9.695952,-1.9274856,-0.45375070000000006,-0.44195226,-1.1516904
-5.142822,9.349424,-0.81792635,-0.6006551,-0.38446113,-1.3736614
-2.9010637000000004,9.883409,-1.0560154,-0.79229224,-0.08796459400000001,-1.7053088
-1.1404253,9.9948435,-0.8035131999999999,-0.9711709999999999,-0.18058921,-1.9645426
-1.6343875,9.906086,-2.1422741000000003,-1.0680542,-0.38819614,-2.131169
-1.8358356,10.01145,-2.6869454,-1.2261461,-0.33815753,-2.4436355
-2.116618,9.558065,-4.7429137,-1.3336758999999998,-0.6814986999999999,-2.7710068
0.0012737153,9.061805,-4.7284527,-1.3155768,-1.5497302,-2.863649
2.728844,8.2702055,-2.5651095,-1.242657,-2.8475397,-2.5836457999999998
2.6519327,9.218797,-1.8466287000000001,-1.3799795,-3.8376648,-1.7414895000000001
-0.17170258,9.941118,-1.0518493999999998,-2.245017,-1.8414445,-3.2096605
-0.09878476,10.374162,-0.96572524,-2.0730671999999997,-0.78902847,-3.6887534
1.7051696,10.924072,-2.6358533,-0.9860761,-0.19123572,-2.6826583999999998
2.544797,11.52426,-3.6823685,-0.3760312,-0.8433255999999999,-1.2427093
0.8743815999999999,12.082645,-2.8556027000000004,-0.26317820000000003,-1.4879805,-0.73380625
1.4437037,12.721629,-1.4549085,0.22334978,-0.88591164,0.78223914
3.5625913000000002,13.683082999999998,-4.1181803,0.94253016,-0.57770395,2.2860496
2.687453,14.234342999999999,-5.702433,1.5813206,0.1707281,2.6341906
1.4531081,14.516226999999999,-6.221295,1.9475605,1.2566719,2.9658206000000003
1.0842956,16.238003,-7.025296000000001,2.4447525000000003,1.9710526000000002,3.3741229
6.2364354,17.366723999999998,-7.382300999999999,2.8099277000000003,2.113175,4.0331415999999995
5.4701285,21.987179,-5.965536599999999,3.052668,1.6080067,4.754975
-3.6716328000000003,21.114264000000002,-1.4805552,3.1410341,1.1938576,5.172859
-6.37551,10.043006,-0.59902924,3.1479456000000003,1.3200275,5.5555925
-2.4879298,2.8462365000000003,-3.2234382999999998,3.2086308,1.5403926000000001,5.937261
-7.131628,-0.44590572,1.2057773999999999,3.1447517999999994,2.153108,6.268384999999999
-9.127444,0.4332356,1.1180252,2.6081676,2.4991195,6.0006166
-1.277048,-1.6295128,2.3380914,1.8091560000000002,2.5406408,4.691637
2.9823709,-1.9548081999999998,1.2104701,1.9028276999999998,3.0149340000000002,3.0866497
1.9158306,0.41774032,2.2996209999999997,0.8168839,0.7057064000000001,1.0813886000000001
-0.87433374,1.2592638999999999,2.2167435,0.06897541,0.09672615,-0.9877341999999999
-2.8378665,1.5485889,0.8653603000000001,-0.9450783000000001,-0.52607715,-2.3712566
-1.906043,3.0583723,-0.006885724,-1.3581803,0.3447898,-3.1292880000000003
-0.085722,5.3718129999999995,0.03224511,-0.45268604,0.36182420000000004,0.34252086
-0.63029754,7.6775727,1.1629498999999999,-0.8508655,-0.9716248,-2.1977186
-1.2763585,11.327399,-0.06941269,-1.242116,0.76373863,-4.034224
-2.0723252,16.066252,-2.9307327,-0.5825735,0.6141465,-3.4044917000000003
-0.9318136999999999,20.691907999999998,-3.9021943,-0.64912283,0.45977208,-2.4457822
0.7486573000000001,21.829613000000002,-2.097177,-0.502201,-0.33656928,-2.1173286
-4.0125,17.832501999999998,0.63182986,-0.42606977,-0.9918531999999999,-1.4716268
-12.073327,15.789558999999999,-6.0373917,-0.32066935,-0.65542346,-1.180436
-18.928942000000003,14.106282,6.232969000000001,-0.22432716,-0.23862141,-0.930243
-9.6374,17.591034,-5.534772,-0.043860123,-0.17261307,-0.72689474
-7.1615458,11.652072,0.9604388,0.055134952,-0.5234068000000001,-0.4516912
1.943182,6.801706299999999,-2.0647788,0.10622074,-0.6788633000000001,-0.22120303
21.282509,18.797787,-3.3299800999999998,0.04394739,-0.5590813,-0.22917919
2.2810612,21.407707000000002,0.02180639,0.02851868,-0.50743705,-0.2547308
-8.345842,8.017952000000001,2.2442002,0.03223623,-0.43929937,-0.3569373
-5.201738400000001,4.649128,-4.4988775,0.031712633,-0.6852337,-0.43411574
-9.669711,10.497894,2.413001,-0.28340656,-1.0035644000000001,-0.47244316
-4.920247,8.832641,-2.0488524,-0.43458697,-1.0536028999999998,-0.5842315
-2.3593037,9.269535000000001,-1.7950383,-0.48888418,-0.6112491999999999,-0.8349655
-1.9388533,10.123288,0.20603542,-0.48251373,-0.31527627,-1.0228851
-2.7606199,10.61159,-1.3396133,-0.5117829,-0.35627407,-1.0979341999999999
-3.6821672999999997,10.173805,-1.8766422999999999,-0.59269637,-0.26310837,-1.2906361000000002
-2.2837810000000003,9.594485,-2.3021493,-0.8034972,-0.016109388,-1.5631866
-0.99874604,10.058722,-1.1293448999999998,-0.9440311,-0.1561197,-1.6691281999999998
-0.70965093,10.414385000000001,-1.6016827,-1.027615,-0.7049385,-1.7377894
-0.8403552,10.346858000000001,-1.0498766000000002,-1.2038058999999999,-0.5314004,-1.9688186999999997
-1.0334619,9.475369,-2.4641889999999997,-1.4114128000000001,-0.1390853,-2.471875
-1.4095813999999998,9.836329,-4.0667434,-1.4699687,-0.5873033000000001,-2.7848822999999996
1.1289907,8.684813499999999,-3.069836,-1.3560685,-1.8915006,-2.751878
1.7167863,8.580714,-1.7010995,-1.3773440000000001,-3.2553183999999997,-2.0683721999999998
-0.3583545,9.413867,-1.4214759,-1.7542304,-2.2066371,-2.2679856
-0.31375533,9.518293,-1.5490581,-2.3376591,-0.65118235,-3.8042767
1.4301428999999999,10.299405,-2.352782,-1.7686118999999998,0.052010812000000003,-3.5695300000000003
0.7854035,11.287818,-2.9122303,-0.69224995,0.08395033,-1.7686642
-1.1045123,12.051482,-2.4349797000000004,-0.53681093,-1.0796956,-0.6172531
0.044273578,12.390396,-0.82399803,-0.27916542,-0.47390926,-0.44317399999999996
3.8077097,12.909823,-1.6281625,0.22492059,-0.14599679999999998,1.3086828000000001
5.478489,13.676791,-4.8319874,0.9866870000000001,0.40015164,2.140175
1.7877311999999999,14.067236999999999,-5.417839,1.273619,1.0554355,2.5628414
0.53269076,15.119967,-6.6428947,1.5392407,1.6564397000000002,3.0669625
3.3412616,16.879935999999997,-7.2923265,1.9422199,1.9194083999999998,3.6104580000000004
8.702607,19.242985,-7.2405740000000005,2.3233473,1.8113376,4.3184510000000005
1.1507778,23.502057999999998,-5.437126999999999,2.489974,1.4216753999999998,4.884844999999999
-8.639678,16.002968,0.44391373,2.5735579,1.3200100000000001,5.291018
-6.4586945,6.324542500000001,-1.1579126,2.8088455000000003,1.6835793999999997,5.668969000000001
-1.8082447,0.08269572,-3.9205916,2.9541616000000004,1.8869278000000003,5.8904166
-7.67855,0.17835845,1.0252354,2.9440562999999997,2.539559,6.228434
-5.516068499999999,-0.28920999999999997,0.2530288,2.6975808,2.932415,5.83399
0.39185423,-1.6314282,1.2598481000000001,1.7681407,2.228157,4.795938
0.6367619000000001,0.07615477,0.13931382,1.6952034,2.0758946,3.292651
-1.0801871,1.2907238,1.4085089,0.7939852,-0.72038466,1.4981906
-2.7233662999999995,1.2344886,0.6836595,0.06789331,-0.871024,-0.78494436
-3.3212845,1.9734255,-0.11475887,-0.7465470999999999,-1.0882303,-2.0657194
-1.7737108,3.8945425000000005,-0.6956114000000001,-1.539712,0.3841819,-3.3922567000000003
-1.1920538,5.760994999999999,0.66724485,-0.42449898,1.4855545,-0.68858474
-0.8122569000000001,7.4213166,1.7585987,-0.5714033000000001,-0.6767340000000001,-1.7175610000000001
-1.2125579,11.644679,-0.5116409000000001,-1.5311948,0.4107807,-4.9924445
-1.9456335999999999,16.550857999999998,-2.0766826000000003,-0.39892990000000006,1.9018328999999998,-3.1133182
-2.7387083,20.02044,-4.6814113,-0.9616239999999999,0.7621155,-2.8993409
-1.8265365000000002,22.090513,-3.4375086,-0.45802677,-0.4153709,-2.097118
-4.8534875,18.332507999999997,-1.2516121,-0.2924823,-1.4842629999999999,-1.3886014
-12.078269,13.274833,-6.2427472999999996,-0.25467846,-0.6112491999999999,-1.2634961999999998
-16.175772,13.169191,9.240775,-0.21795672,0.06689847,-1.0761176000000001
-6.0078278,16.393932,-7.372446000000001,-0.09019861,-0.14388494,-0.6816732
-5.0411544,11.672624,2.5762281000000002,0.11686724400000001,-0.5979498000000001,-0.4128402
-1.6112593000000002,6.985792,-0.6455917,0.07641052,-0.40685370000000004,-0.38037705
21.219072,19.271065,-6.2818294,0.05297074,-0.093305305,-0.42615703
6.2952757,25.984318,-0.8835083,0.024766222,-0.04379031,-0.40592867
-9.017665,1.4893372,7.610228500000001,0.098750725,-0.19870573,-0.33459708
-6.738806200000001,6.4858637,-9.164382000000002,0.09025098,-0.5936912,-0.40699333
-14.758424,9.937392,5.882803,-0.077422805,-0.89978707,-0.42880994
-3.8271601000000004,8.71884,-1.9979613,-0.2578724,-0.88914055,-0.5145231
-0.43148303,10.017522,-2.4686517999999995,-0.31058133,-0.5271593000000001,-0.69710195
-2.478286,10.622565,-0.6617191,-0.31696925,-0.44889867,-0.8376359
-4.8041573,9.963087,-0.51875645,-0.3744604,-0.59423226,-0.9153554
-2.9231,10.04089,-0.9848501000000001,-0.47506118,-0.6437298,-1.1048632
-1.0440443000000001,10.195066,-1.0068097,-0.7066140000000001,-0.38927823,-1.4199998
-1.0634948999999998,9.735821000000001,-1.2371607,-0.83599526,-0.19605283,-1.6733868000000003
-1.96269,9.778619,-1.2744621999999999,-0.9275378000000001,-0.71825534,-1.7596235
-2.752154,9.829251,-1.6140079999999999,-1.119175,-0.76777035,-1.9549956000000002
-2.1346988999999996,9.654637,-2.461,-1.2953659,-0.4829675,-2.3749917000000003
-1.7525556,9.466166000000001,-3.3525720000000003,-1.3704325000000002,-0.8476191999999999,-2.6534066000000003
0.25272235,8.919742999999999,-2.5232875,-1.3134823999999998,-2.0256467000000002,-2.6283786
0.36950192,8.525513,-1.8569811999999999,-1.2719611000000002,-3.6013297999999994,-1.9518017
-0.8672373,9.3296,-1.2330043,-1.7430603999999998,-2.627698,-1.9821355
-1.2036322,9.542407,-1.6256821000000001,-2.3509759999999997,-0.93598515,-3.7686195
0.968943,9.924942999999999,-3.2291555,-1.5972207,-0.22958061,-3.6706717
2.1334157000000005,10.686079,-3.9725266,-0.6539225000000001,-0.29771826,-2.024198
0.3121656,11.590148,-3.646235,-0.46017352,-1.6929519,-0.7657807
-0.85888636,11.894413,-1.535459,-0.15994197,-1.4257245,-0.6491927
2.6743999,12.81414,-1.7024593000000001,0.19776326,-1.0030582000000001,0.9860936
4.4358716,14.024610999999998,-4.431351,0.9707171999999998,-0.2737549,1.9783481
1.5849615,14.952354000000001,-5.5623817,1.4716268,0.684937,2.2785797000000003
0.6130114000000001,15.081335000000001,-6.239021299999999,1.9347497999999999,1.785245,2.650143
2.7480743,16.125657999999998,-7.634937,2.2461689,2.191418,3.2548645
9.138294,19.168928,-7.167857000000001,2.5389478,2.0317203999999998,3.9415642999999996
2.3769443,23.149872,-4.587539700000001,2.828533,1.5520863999999999,4.686279
-8.384217,16.570642000000003,1.172661,3.1149065,1.5856316000000001,5.186141
-7.382798700000001,7.047984,-1.6730394,3.1633568,1.9092854,5.331457
-2.2224896,0.7989930000000001,-3.270853,2.7864704,1.7618226000000003,5.518836
-8.096749,1.2808788,2.287516,2.3398583,2.526783,6.035732299999999
-6.3118916,0.42015365,1.3970071000000002,2.0215275000000004,2.3181114,6.088424
0.8250514000000001,-1.2110638999999999,2.944552,1.7463066999999999,2.0029746999999998,5.284089
3.1862322999999995,-0.083433144,2.1153922,1.2421857,1.690491,3.9825447
0.96618485,1.45329,3.0574049999999997,1.2794485,1.3146693,2.5676236
-1.7303853999999999,1.8800133,2.2245677,0.37344809999999995,-0.54949945,0.67043334
-2.9792487999999997,2.0096354,2.0880408,-0.10190977,-1.1329455,-0.9776461999999999
-1.7765933,2.8955762000000003,1.3829867,-1.4609278,-0.53354716,-2.8232098
0.22548592,4.9061885,2.1662066,-0.7497411,1.1949048,-1.9725536
1.9082363000000002,7.5108023,2.5313225,-0.20624556,-1.1095233,0.6198537
-1.6739875,12.075013,-2.1020997,-1.098964,0.30272737,-3.4220846
-5.859234,16.240139000000003,-1.7209713,-1.0702184,0.033370696,-4.023612
-4.0777660000000004,17.478573,-1.1488433,-0.19985765,0.86166906,-2.72315
-3.2479644,19.482893,-1.6201946000000003,-1.0292207,1.044789,-3.0318813
-3.7343224999999998,19.860947,-1.9511786,-0.4873134,0.012077678,-2.1705787
-6.912739999999999,15.344332999999999,-1.9638679,-0.42875758,-1.0956827,-1.4945254
-15.95974,13.103629,0.85226876,-0.32548645,-0.8848819,-1.1958996000000002
-10.654916,16.26546,-1.4834378000000001,-0.13065535,-0.29239499999999996,-0.96858793
-2.275746,14.647037,-1.7241028999999999,-0.06784095,-0.043266714000000005,-0.7476816
-6.4481025,8.770631,-2.993978,0.06841691,-0.26949629999999997,-0.46713737
17.862497,9.097267,-2.1014676,0.03488913,-0.31581733,-0.3079808
11.445472,21.476238000000002,-5.63008,0.10995574,-0.33604568,-0.23024383
-0.9439858,18.162941,4.263623,0.04605924,-0.19764109,-0.2499486
-3.5217940000000003,4.1090918,3.7828195,0.061505403,-0.31953487,-0.34363788
-3.5670059999999997,8.101672,-8.925516,-0.00715585,-0.5894326,-0.48417178
-11.699103,9.589343,4.555572,-0.27757716,-0.6974859,-0.44797367
-5.6952887,8.458992,-3.4670050000000003,-0.34199727,-0.7773522,-0.59063685
-3.1352742,9.345460000000001,-0.9886234,-0.3494498,-0.5090602,-0.7578045
-1.1071075000000001,10.673294,1.3842028,-0.35582027,-0.45848054,-0.89619166
-2.8295348,10.605011,-1.6243893,-0.47293186,-0.53620005,-1.0154326
-3.1455405,9.532342,-1.721862,-0.6054896,-0.3461686,-1.3305691000000002
-2.9872357999999997,9.741881,-0.4384741,-0.78009236,0.0397586,-1.6856389999999999
-1.2971498,9.923248,-1.1552885,-0.88655746,-0.14442599,-1.8527892
-0.7313233,10.503171,-1.4717445,-1.03135,-0.42228240000000006,-1.9411378000000001
-0.6227796999999999,9.741049,-2.022612,-1.222987,-0.17900097,-2.185484
-1.1342961999999999,9.364298,-2.6546237,-1.3885491,-0.274837,-2.5102024
-1.2781493999999998,9.467641,-3.8224002999999995,-1.4119713,-1.1372042,-2.657124
0.5789276,8.865001,-2.0065134,-1.3629799999999999,-2.454701,-2.5213900000000002
0.28434497,9.076246000000001,-1.125045,-1.3981135,-3.6401807999999996,-1.7644057
-0.49144343,9.650328,-0.5680961999999999,-2.0023115000000002,-2.1821504000000003,-2.56717
0.60573304,9.972242999999999,-2.080159,-2.3903854,-0.91734505,-3.79843
2.9540617,10.15766,-3.1101732,-1.3672385,-0.100234255,-3.3140137000000003
2.030829,11.039961,-3.129394,-0.5309640999999999,-0.47605600000000003,-1.6941562
-0.21741268,11.98206,-2.0907125,-0.48570767,-1.8717958,-0.7977201999999999
0.5321832,12.555137,-0.58059394,0.03541273,-0.96525437,-0.22546163
3.3136902000000004,13.148984,-3.4644866000000003,0.61777675,-0.31688198,1.7324138
2.2743,13.615184,-5.619191000000001,1.2688195,0.3767293,2.0555265
0.55591446,14.259224,-6.338447599999999,1.590344,1.4605438999999998,2.2567456000000004
0.6131838000000001,14.774494,-7.1430144,2.0071461,2.2536912,2.7725777999999996
5.1372290000000005,16.175179,-8.012837,2.453776,2.3383397999999995,3.6392035000000003
8.648872,20.145914,-6.483843,2.7204794999999997,1.9268609,4.5324454
-0.26564148,22.386963,-3.4162576000000002,2.8311857999999996,1.7682278999999999,4.8773922999999995
-8.758746,14.896598999999998,1.3704315,3.0435925,1.7612990000000002,4.840653400000001
-5.745614499999999,5.9831386,-1.5658653999999999,2.352093,1.3572553,5.484767
-3.3316464,-0.011597513,-1.7446356,2.636896,1.4232811,6.0277389999999995
-8.870460000000001,0.042061336,2.3005693,2.8785715,1.8943803,6.288055
-2.6065962000000003,-0.51389146,1.2285893,2.2680029999999998,1.6346055,5.7477529999999994
3.6100635999999997,-0.7889278000000001,1.8659929,1.6483587,1.1475365,4.642628
1.2933095,0.65635604,2.3677888,1.4109591000000001,0.91170764,3.5572255
-1.9318621999999999,0.97816545,3.0864422,1.1911,-1.0525556999999999,1.9852596999999998
-3.0225263,0.8440806000000001,1.5034629,0.35374334,-1.0456268,-0.20842722
-0.73863035,2.3953319,-0.64110976,-0.54213417,-0.36746162,-2.0103574
1.1616093,5.5835175999999995,2.9882126,-1.3688443000000001,0.42783254,-2.929151
0.35024297,6.8622227,-0.010477027,-0.40959388,0.99103284,-0.18661061
-5.710860299999999,10.443211,-3.9048855000000002,-0.6124010999999999,0.36767107,-2.205712
-5.9269896,12.916259,2.5784979999999997,-1.4316586000000002,0.9133133,-3.1261115000000004
-3.8308854,13.777175,-2.6604943,-0.5719444,0.13344787,-3.1942317000000005
-0.5089307,16.099531,-3.5770428,-0.32759829999999995,0.9431236,-2.4697456
-3.8758008000000004,20.875973000000002,-2.587519,-1.1069227,0.96387553,-2.8514142000000002
-7.4961977,18.129747000000002,-0.740699,-0.62943554,-0.17367771,-1.8352137
-11.117475500000001,12.848005,-0.9320148000000001,-0.47345546,-1.2889082,-1.2831834999999998
-10.673494999999999,14.756337,3.5087599999999997,-0.33185690000000007,-1.0701138000000001,-0.97017616
-4.4527745,18.536089999999998,-3.233331,-0.19399334,-0.07733554,-0.9260019
-2.0834439,13.651796,0.28814697,-0.13330825,-0.08798204,-0.62097067
3.1322477,6.416949,-1.4650983,-0.015132004,-0.5713335,-0.39580578
19.622772,16.662283,-1.0364786,-0.031625368,-0.84014916,-0.28614673
-1.0134368,17.649557,-1.8645755000000002,-0.040683622999999995,-0.46167448,-0.34203216
-3.1371129,14.299102,3.260462,-0.03481932,-0.23277456,-0.42294565
0.038039077000000004,4.465319999999999,-4.039095,-0.055047683,-0.33072245,-0.3713188
-5.005797,10.815672,-2.8130336,-0.00075049157,-0.6314776,-0.39632937
-10.915185000000001,8.850559,0.74792945,-0.22380356,-0.83801985,-0.41123447
-6.1499767,8.600615,-1.3705177,-0.43299875,-0.8747590000000001,-0.63268185
-1.225429,9.450536,-0.99090266,-0.4654793,-0.34030429999999995,-0.98881626
-0.32787156,10.587802,-0.15259683,-0.54532814,-0.032079153,-1.2480674999999999
-3.290993,9.859916,-2.479914,-0.6517932,-0.2088112,-1.4258467
-3.7248704,9.395622999999999,-1.8336903000000002,-0.77901024,-0.048048913,-1.6105723
-1.4741674999999999,9.789881,-1.4698771000000002,-0.85407686,-0.024626596,-1.7356601000000003
0.31692526,10.13591,-0.98179513,-0.9765117,-0.18325958,-1.8399959
-1.115564,9.881225,-1.4375936000000002,-1.1463146999999998,0.054140113,-2.0928419
-1.7292168999999997,9.946069999999999,-1.8398193999999999,-1.3049476999999998,-0.0070685832999999995,-2.4314182
-1.5832665000000001,9.73015,-2.6463876,-1.3491395,-0.91095716,-2.5298896
-0.5799810000000001,9.77339,-3.251393,-1.2964306,-2.0314933999999996,-2.5394714
2.1937493999999997,8.936702,-3.0283108,-1.2575796000000001,-3.164823,-2.0699606
3.1184477999999998,9.246435,-1.4854681,-1.5753691,-2.935923,-1.6206778
0.9109363000000001,9.865758,-1.8809421999999998,-2.2860322,-1.5359071000000002,-3.3198605000000003
0.5610381,10.16465,-2.5939066000000004,-1.9905830000000002,-0.8135329000000001,-3.6988763999999996
0.61792433,11.627163000000001,-2.4882459999999997,-0.87908745,-0.29558897,-2.3105717
-0.22048682,11.849604,-1.646866,-0.5634272,-1.1669969999999998,-0.9472949
0.68243366,11.918824,0.003974375,-0.42128757,-1.4720281000000002,-0.81154317
2.9923307999999995,12.791004,-3.0956836,0.18448131,-0.52768284,0.5235115
1.4253448,13.677126000000001,-5.9156895,0.8637285,0.08766789,1.8229091
-0.39008248,13.750886999999999,-6.3485227,1.4397046999999998,0.8691216,2.1950133
1.267701,13.5711775,-5.8684373,1.6382707,1.7181894,2.5149496
3.0708797000000003,16.040222,-6.974482000000001,2.091271,2.43257,3.068027
8.561368,18.781996,-7.211527,2.2988779999999998,2.5390349999999997,3.8037007000000007
5.570206,22.223851999999997,-5.8483834,2.4356767999999995,2.0897523999999996,4.605383
-5.3598514,18.363,1.0508822,2.4617693,1.6415346000000002,5.1941347
-8.025478999999999,9.651679,-1.0347452,2.5692992,1.5127118,5.748818
-2.089573,3.173907,-3.3545160000000003,2.7609362999999996,1.6106596000000002,6.241751
-4.582818,-0.11504618,2.1820082999999997,3.0137822999999995,1.7213832999999998,6.5116315
-7.4735103,-0.3917297,1.8182429,3.2107425,2.4288352000000004,6.437647
-0.53215444,-0.9308655999999998,2.680778,2.0486848,2.4187295,5.485849
2.5423834,-0.42046009999999995,1.5840038,1.4971958,2.1025283,3.8574742999999994
1.8789023999999999,1.0631788,2.4714482,1.3412157,-0.22319270000000002,1.875077
-0.8933724000000001,1.6166703000000002,2.0239336,-0.50591856,-1.4193192,-0.60765386
-2.5066717,2.275746,1.1384524999999999,0.30052823,-1.8675370999999998,-1.7452419999999997
-2.5097842,3.1389804,0.13485101,-1.9069991000000002,-1.2787852,-2.7715654
-2.1491408,4.734716000000001,0.37580347,-1.288437,0.222896,-0.9068207
-1.8775616999999998,6.2353535,0.9771023999999999,-0.37711328,0.35702455,0.24989624
-0.5378526,8.64845,-0.3544855,-0.64273494,2.6918213,-3.8234402999999997
-0.38259345,14.065839000000002,-1.7690085,-0.57513833,1.6447284,-4.600112
-0.7259219,21.273239999999998,-4.391167,-0.32227504,1.6260883999999998,-2.6826757999999997
-1.4760063,23.632494,-9.219918,-1.0169685,-0.35999159999999997,-2.4452586
-3.1547822999999995,22.18701,3.4332662000000003,-0.46280897,-1.4384829,-1.5488051
-8.74395,13.209912,-8.851795,-0.49101347,-1.3714098999999997,-1.2155695
-25.27262,12.120330000000001,4.461135400000001,-0.33292156,0.15582299,-1.3523858999999998
-9.34207,17.68027,-0.01682645,-0.20888099999999998,0.332014,-1.0068979
-4.607114299999999,15.597266000000001,-4.3724732,-0.04759513,-0.5377883000000001,-0.52461106
-1.8634549999999999,8.614471,4.8009295,0.14988887,-1.0174048,-0.34255576
22.830868,10.068873,5.4141617,0.016790068000000002,-0.49042007,-0.3649309
13.666018,21.039095,-3.5741792,0.03117158,-0.12150982,-0.549098
-1.8547784,17.032265,-3.699731,-0.13116150000000001,-0.14971434,-0.46127307
-12.835813499999999,1.635891,-3.234643,-0.07847001,-0.44994587,-0.47776642
-9.16873,8.470972999999999,-4.947321,-0.18652333,-0.73794264,-0.56187385
-9.306214,10.222513000000001,3.8957398000000003,-0.34463271,-0.8944463,-0.55655056
0.12369404,8.67765,-2.032189,-0.42874014,-0.82576764,-0.73221797
0.7604272,10.1227045,0.5667746,-0.45855036,-0.5441762,-0.86903435
-4.128743,10.407067999999999,-1.4633361,-0.4974014,-0.556952,-0.9914691999999999
-5.323364,9.696871,-1.2807543,-0.57566196,-0.48881435,-1.2272806
-1.9150549,10.242424,-1.5620059,-0.75398225,-0.15397294,-1.5573223999999999
0.81230474,10.251924,-2.134421,-0.9024923,-0.12842132,-1.7718581999999998
0.33282274,10.147211,-1.5876718,-1.013757,-0.6399948000000001,-1.9320794
-1.5069393,10.127730999999999,-1.9274089,-1.2000709999999999,-0.6160314,-2.1253222999999997
-1.397553,10.0303545,-1.9511116000000002,-1.3932964,-0.37754962,-2.5160491
-1.4894425,9.872643,-3.0907516,-1.4449406999999999,-0.74007195,-2.9328513
-0.6048424,9.58173,-2.6983802000000003,-1.3587038999999999,-1.9186405,-2.7763476000000002
0.8501426999999999,9.334878,-1.5939637,-1.3225232,-3.6082413,-1.9858531000000004
0.062239666,9.811908,-0.7029664000000001,-1.8867706999999998,-2.6697428,-2.5719347000000004
0.0383168,9.793097999999999,-0.9606015999999999,-2.421749,-1.6498073,-3.6914062000000007
2.2517946,9.820412,-2.627694,-1.3571156,-0.6341305,-3.2708867
2.2104418,10.731061,-3.3189766000000005,-0.36644933,-0.941291,-1.7478949000000001
0.18030253,11.49891,-3.2932436000000003,-0.40210640000000003,-2.3482184,-0.83335984
0.49737146,11.358409,-2.3592176,0.15681784,-1.5162023999999998,-0.2451315
2.7864678,12.169019,-1.8431427,0.7370350999999999,-0.76827645,1.586033
5.0558643,13.62069,-4.227461,1.5200945,0.38098790000000005,2.0299923
2.6209517000000004,14.109882,-5.7920527,1.9810883000000001,1.8113549999999998,2.08696
0.43906787,15.1785965,-7.034605,2.409078,2.8110619999999997,2.6570892
2.9837978,16.72213,-8.553600999999999,2.6475596,2.84459,3.4874995
7.290056699999999,20.41913,-6.808257000000001,2.811516,2.3309047,4.2407484
-0.44758165,22.599674,-4.586437999999999,2.921175,1.7645104,4.892315
-8.38866,14.776793,1.5955918,3.0010237999999996,1.7607754,5.274524700000001
-5.493706700000001,6.112445,-1.8686839,3.071832,1.7645104,5.6322474
-3.2817898000000003,0.26255774,-2.4786692,2.839738,1.5121882,6.053849
-9.281257,0.74999803,2.8001337000000004,2.8210979,2.0200267,6.3902790000000005
-3.606836,-0.42597637,1.8370422,2.6981394,2.2521205,5.9676123
3.9921684,-1.5413774,2.4559722,1.7883865,1.8736283999999999,4.504782
2.6648709999999998,-0.06074568599999999,2.4591422,1.7937098000000002,2.4336347999999997,2.9200406
-1.1052306,1.0216440999999998,2.2917009999999998,0.6795439,-0.32857567,0.86952305
-2.9181487999999995,1.606088,1.0849468999999998,-0.13383184,-0.31367058,-1.1964058000000002
-2.6394925,2.3600318,0.1989007,-0.6858446,-0.37702602,-2.4053254
-1.3276709999999998,3.7083120000000003,-0.002777274,-1.4066132,0.19362682,-3.0787084
-0.9395230999999999,5.5069222,1.4475726,-0.76249945,0.9287595,-0.35533157
-0.55989844,7.9632683,0.3826988,-0.7225663,0.3511777,-1.9427259999999997
-2.4174062999999997,12.795802,-2.103402,-1.122875,1.5680736000000002,-4.283893
-2.6851833,17.294304,-1.4198095,-0.6751981,1.6287587,-3.7212338
-1.4184879,19.9693,-3.035972,-0.7140491,0.74829245,-2.6352727000000002
1.4239945,21.500391,-3.243827,-0.6720041,-0.46430993,-2.0545144
-3.829449,17.23487,-0.36161065,-0.43884557,-1.297408,-1.3385453
-11.644630000000001,14.180845999999999,-4.382193599999999,-0.31854004,-0.5266006999999999,-1.155949
-13.811851999999998,13.475937,4.674947,-0.07367035,0.28996900000000003,-1.0031629000000002
-8.21668,17.257942,-5.4133569999999995,-0.063023835,0.041905355,-0.6635393
-4.0435004,12.156367,0.24145046,0.17064084,-0.51223665,-0.32180380000000003
1.8644797999999998,7.0679039999999995,-0.58986425,0.189822,-0.6490355999999999,-0.23500858
22.843836,16.249782999999997,-0.3208422,0.089203775,-0.30462977,-0.30316368
4.694005000000001,22.510916,-1.9453464,0.13178982,-0.18751818,-0.37929496
-9.742984,10.202277,4.0158233999999995,0.09133308,-0.31579986,-0.36438984
-6.1307364,5.080017,-8.795138,0.117425755,-0.71982616,-0.44315654
-13.252739000000002,9.013059,4.706311,-0.06887069,-0.8816530999999999,-0.5576151999999999
-5.1110935,8.843463,-1.8653034,-0.24347343,-0.7203672,-0.81259036
-0.53223103,9.380578,-1.3900831,-0.34248596,-0.31208232,-1.0377728000000002
-0.96078354,10.543643,0.7458608,-0.35047957,-0.32964033,-1.1303973999999999
-4.383113,10.377553,-1.6713634999999998,-0.38241908,-0.53724724,-1.1570136999999998
-3.9649322,9.810021,-1.812516,-0.5202826,-0.5718397,-1.3044591
-1.1810021000000002,9.686356,-0.8968488000000001,-0.63578856,-0.49359655,-1.4854497
0.08689036,10.344847999999999,-0.8735004999999999,-0.7433357,-0.61336106,-1.6195958000000001
-0.26312277,10.30836,-1.8003823,-0.88706356,-0.7123735999999999,-1.8149679
-1.4103955,9.9575615,-1.9858179,-1.0675132,-0.3983016,-2.137557
-1.1586691,9.580857,-2.422549,-1.2218876,-0.48347366,-2.5059264
0.50967765,9.829099000000001,-2.861866,-1.2229522,-1.3234831,-2.5990746
2.15346,9.237480999999999,-2.6787095,-1.2389219999999999,-2.4498837000000004,-2.5586178
0.59368545,9.438001,-1.7384874,-1.2256225,-3.5885365,-1.9288855999999999
-1.5022944999999999,9.3145075,-1.4638628,-1.5508647,-3.2451779999999997,-1.6387595000000001
-0.8985822,9.393373500000001,-2.6687016,-2.347747,-1.7285916000000001,-3.5599306000000004
0.45410344,10.312488,-3.5809309999999996,-1.7664651999999998,-0.86409503,-3.6371089999999997
-0.020053834,10.732401,-2.5881798,-0.67572165,-0.77199405,-2.0156457
0.2626918,11.576463,-2.450293,-0.45055676,-1.5912516,-0.96431184
1.6840526999999998,11.912121,-1.4753933000000001,-0.13966125,-1.3421233,-0.89350384
3.7932105000000003,12.557817,-3.5543456,0.28192303,-0.6527531,0.8003382
1.8369944,13.182322000000001,-5.111429,1.1187387,0.11271336,1.9097043000000002
0.11837891,13.702897,-5.1243004999999995,1.7479471999999998,1.3439733,2.2812674
1.8453357,14.013406,-5.8776116,1.9534247999999999,2.3293164,2.7449317000000004
2.9127762,16.162643,-7.468837,2.2419453,2.6609637999999998,3.3523061000000003
8.576251,20.575338000000002,-6.4970303,2.4719097999999997,2.6566877,4.053911
4.4582239999999995,24.519115,-6.0848827000000005,2.7295554,2.1887825,4.7581690000000005
-6.585501,17.324589000000003,0.7507736999999999,2.8062103,1.6330347,5.3272333
-6.0125585,7.779068,-1.2425429,2.9701664,1.3604841,5.761611
-1.0557281,1.9407303,-2.624361,3.2554752999999996,1.2694478,6.153403
-7.428030000000001,2.2658532000000005,2.882724,3.267204,1.4914361999999999,6.1864066
-7.2647357,0.18200722,0.7541161,2.6167022999999996,2.3282517999999994,5.941537
0.30732933,-1.8463604,3.0970150000000003,1.7314363999999998,2.0093975,5.0323253
2.3965766,-0.6618052,1.5809872,1.5909026000000002,2.0743240000000003,3.372011
0.5786306999999999,1.1488530000000001,2.0735033,1.340186,1.3823007,1.7452071
-2.0457878000000003,1.4513459,1.482164,0.14564772,-0.061348322999999996,-0.35957274
-3.1371322,1.3989608,0.78027034,-0.12582079,-0.8049982,-1.5067427
-2.456834,2.1859925,-0.33723766,-1.5418239,-0.3562566,-3.2037961
-1.671124,4.114618,-0.8614146,-0.23547982,0.8765915999999999,-0.36756635
-1.6908618000000002,6.3574386,0.81683457,-0.7023205,-2.067133,-0.44793874
-0.15234783,9.891739999999999,0.82635397,-1.6802111000000002,0.62426937,-4.231708
-1.0240383,16.498579,-3.3573508000000003,-0.7305425,1.1592652,-3.9990904
-2.481073,21.083263,-6.4312949999999995,-0.51228905,1.0405478000000001,-2.6741238
-2.1773827,21.848995000000002,-2.733326,-0.9642245999999999,0.48162362,-2.7007399
-4.3035296999999995,18.452543,2.4856029,-0.4420221,-1.0791371,-1.6621816999999999
-7.6409125,13.642037,-5.5157620000000005,-0.3898542,-1.1403632,-1.2586792
-19.442220000000002,14.032023,4.0763583,-0.24027948,-0.6208136,-1.0063568
-11.298936999999999,16.830585,-3.225622,-0.0800408,-0.16249016,-0.79182094
-6.0840015,13.823095,0.19649692,0.032794736,-0.26947883,-0.5315226
-4.5077167000000005,7.754982000000001,-4.291606400000001,0.027471482999999998,-0.5218010999999999,-0.39950585
29.224515999999998,17.642592999999998,-4.7675257,0.12753119999999998,-0.48560295,-0.29890507
9.308657,24.23256,-3.378592,0.13446017,-0.3562566,-0.25045475
-5.8586597000000005,10.01189,7.2863793,0.30002209999999996,-0.38659042,-0.2563016
-3.4320307,0.8923764000000001,-7.393869400000001,0.14830063,-0.8417374,-0.3776718
-12.849326,10.55367,2.9296124,0.0067195175,-0.8656833,-0.4623028
-7.710114999999999,9.163797,-2.7376356,-0.27965412,-1.1195939,-0.5315226
-3.6531591,9.053444,-1.6518651000000002,-0.35100317,-0.77677625,-0.79768527
-1.6620834999999998,9.890437,0.35136345,-0.36695546,-0.39084902,-0.9557771999999999
-1.6667283,10.7197695,-0.7660009,-0.42392302,-0.528189,-1.0308439
-3.2249322,10.016076,-2.1749885,-0.5447522,-0.69373345,-1.0867293
-3.2959727999999995,9.647609,-1.6375669,-0.70286155,-0.56438714,-1.3619503000000002
-2.1236472,9.563523,-1.1817013,-0.8194321,-0.29928905,-1.6153371
-1.1180826000000001,9.960989999999999,-1.5587498,-0.9530545,-0.588333,-1.8522133
-1.3523983,9.955551,-1.5974306,-1.1164696000000003,-0.6729815,-2.0332038
-0.8688654,9.891798,-3.0215973999999997,-1.316624,-0.38392007,-2.4601287999999997
-1.2863567,9.92432,-3.3479080000000003,-1.4507700000000001,-0.52712435,-2.835427
0.758282,8.901633,-3.7719307,-1.373068,-1.8190868999999998,-2.8439443
1.6304226000000002,8.905778999999999,-1.3304483999999999,-1.2447689,-3.0838747000000004,-2.438295
0.004309563,9.510727000000001,-1.8166148999999998,-1.4720631000000002,-3.4927006,-1.6930566000000002
-1.4112861,9.83947,-2.5043827999999997,-2.5239382000000004,-1.3953383999999998,-3.496575
0.20514478,10.1463,-3.9637446000000005,-1.9708607,-0.5164778,-4.028883
1.6394726000000002,10.3847065,-3.4274817000000004,-0.76195836,0.11217231,-2.5831048
1.1528656000000002,11.0783825,-2.7334313,-0.37494907,-1.0024822,-1.1410265
1.1527411,12.590772,-2.0048087,-0.30042353,-1.2750329,-0.85782933
2.9478464,13.175857999999998,-0.9853002000000001,0.28192303,-0.9135926,1.2326039
5.578901999999999,13.413859,-4.440526,0.9979094000000001,-0.5888741,2.320136
2.824995,13.851079,-5.794475599999999,1.382231,0.30700340000000004,2.5224022999999995
1.2784367,14.688685000000001,-6.401339,1.7314539,1.4009409,3.0228055
2.3345667999999997,16.358614000000003,-7.90055,2.218523,1.9135790000000001,3.5961287000000004
6.893567599999999,17.702995,-8.431182000000002,2.5645344,2.0216324,4.2737703
6.216966,24.621157,-5.1406956,2.7875874,1.8087021,4.908843
-5.2000527000000005,21.123160000000002,0.7944919,2.9824011,1.9364603,5.4081470000000005
-8.52582,8.6849375,-0.7961391,3.1740557999999996,2.19997,5.6551633
-2.4103386,1.7607247,-3.7221312999999996,2.9121516,1.6623213,5.7126546
-9.426039,-0.18600075,1.8853955000000002,2.345234,2.3777668,6.292365599999999
-8.369163,-0.1974929,1.4592372,2.2376866,2.276625,6.369544
0.62747234,-1.5703665,2.3264554,1.9108387999999998,1.7102307,5.2798653
2.7371090000000002,-0.93932194,1.4438568,1.6680984,1.6830734,3.6727836000000003
0.37101507,0.6113929,3.112989,1.3604318000000002,0.6370626,2.1545916000000003
-1.4427268999999998,0.47647485,2.2991135,0.064734265,-1.0919128999999999,-0.23020893
-2.1148942,0.59707564,0.46403462,0.041311942000000004,-1.4554999,-1.6366127000000001
-1.2553183,2.2721837000000003,-0.23531172,-1.7094802,-1.0413507,-2.818375
-0.47576618,4.44655,0.56013787,-1.0877415000000001,1.2502841,-1.6440827
1.0843052,6.8934526,2.164751,-0.45958009999999994,0.08611455,-0.0018325957
-0.75143456,11.951021,-4.021234,-1.0600432,1.6601921000000002,-4.1012793
-6.402325,17.093431,-4.5385447,-0.8109149,1.0272484,-4.775744400000001
-4.5346660000000005,18.842548,-3.1204875,-0.35897929999999995,1.1699116000000003,-2.8226337000000004
-0.9091549999999999,19.59815,-3.6890817000000005,-1.1106228,0.015830137,-2.9014354
-2.6181169,18.932755,-0.97908485,-0.5245238,-1.2611923,-1.8367671000000003
-8.578463000000001,14.662761999999999,-6.2035875,-0.54581684,-1.0322924999999998,-1.4226178999999999
-20.058142,13.479949,4.2259574,-0.39516,-0.30832985,-1.1910475
-10.135671,17.243864000000002,-0.5703755,-0.18757053,0.12548918,-0.90839154
-1.7055144,15.924726500000002,-2.7701776000000002,-0.03000221,-0.23860396,-0.5027595
-2.4137766,8.605450999999999,1.082409,0.11690215,-0.6154904,-0.32550392
23.312725,11.438835000000001,0.9307315999999999,0.07592182,-0.40201914,-0.28185323
11.278203,23.19989,-3.7741144,0.21273819,-0.0017104226999999999,-0.36648422
-3.6578996,16.203,0.119441934,0.15842354,-0.028867746,-0.34732053
-9.076427,1.1970721000000002,-2.6682517999999997,0.09773844,-0.49731413,-0.38671259999999996
-11.953836,8.177664,-0.44921926,-0.052342422,-0.72886693,-0.4947834
-8.556245,9.236121,-0.6409564999999999,-0.19554669,-0.9694780000000001,-0.6076364000000001
-3.2878230000000004,8.734736999999999,-1.2914706,-0.34992105,-0.7453603,-0.71940726
-1.7718912,9.935362,0.32217336,-0.36643186,-0.44992843,-0.80724967
-2.8758287,10.719301,0.04975151,-0.3382099,-0.45205772,-0.8221548000000001
-4.6087620000000005,10.122627,-1.6710857,-0.36269686,-0.7001214,-0.83386594
-3.211247,9.464547999999999,-0.8648718000000001,-0.5266531,-0.66818184,-1.0659598
-0.9347347,10.350546000000001,-0.12671073,-0.6730339,-0.37753215,-1.4353936999999999
0.016740259,10.716217,-0.9578626,-0.83061963,-0.39776054,-1.6909098999999999
-1.168696,10.225032,-2.2937505000000002,-0.9498431,-0.73577845,-1.8474134999999998
-1.1040238000000002,9.713027,-3.0347939999999998,-1.1691612,-0.51700145,-2.1343457999999997
-1.5932071,9.675257,-3.1815013999999997,-1.3096951000000001,-0.50474924,-2.5149496
-0.33636618,8.9596,-2.9672205000000003,-1.3954082,-1.3165542,-2.6783647999999998
0.06351338,8.921916,-1.9827436999999999,-1.3645333,-2.5787065,-2.5522125
-1.0622691,9.555288000000001,-0.2760323,-1.422548,-3.9893515,-1.6547116999999998
-2.4516242000000004,9.693538,-0.36348769999999997,-1.9633907,-2.3860047000000004,-2.5825636000000003
-0.8675055,9.235471,-1.7224845000000002,-2.485593,-1.1238523999999999,-3.8777027000000004
1.9469648999999998,9.770871000000001,-3.9379062999999994,-1.5088021999999999,-0.2726728,-3.3464419999999997
2.252618,10.490587,-4.265998000000001,-0.53571135,-0.48240900000000003,-1.6563174999999999
0.24624842,11.805962,-3.3626275000000003,-0.67038095,-1.7211215,-1.0212444999999999
1.2525505,12.273128,-0.90782386,-0.2099282,-0.838526,-0.35105553
4.0330997,13.585381,-2.425671,0.24574235,-0.5563935,1.4865319
3.6837187000000005,14.869429,-5.2805457,1.0325193000000001,0.12870058,2.2541451
1.4716103999999999,14.93842,-6.213968799999999,1.4461274,1.260407,2.3946614
0.87604797,14.964642000000001,-6.604444,1.881046,2.2851422,2.8705604
5.023648000000001,16.189516,-8.228133999999999,2.2680377999999997,2.7418772999999996,3.5716417000000003
8.894986,21.359278,-6.128361,2.600209,2.7024852999999998,4.2301197
-0.08477389999999999,23.519527,-4.4348183,2.7828052000000003,2.4123766,4.901914
-8.595127,14.416148999999999,0.7164216999999999,2.7934517999999997,2.162166,5.384201
-4.906667700000001,5.54839,-1.7189316000000003,2.9249275000000003,2.1584487,5.790915
-3.7778108,0.6755384,-1.7068743000000002,3.0383215,1.8619522000000002,6.1608725
-10.878103,2.078933,1.4276433000000002,2.6805987,1.6122828000000002,6.394031
-5.1349974000000005,-0.47477020000000003,1.4887625,2.137086,1.0964507,6.103905
1.679657,-2.1082287,2.1874,1.8858457,0.44064328,4.805572
2.4721759999999997,-0.21200177,2.4541047000000002,1.8656173999999999,1.1140261999999999,3.2117897999999996
-0.89943457,0.77125853,2.826939,0.994733,-0.02300344,1.4753443000000002
-2.0941126,0.6039709,1.762774,0.46612507,-0.073565625,-0.5863259
-2.142571,1.05523,0.41556638,-0.6373593000000001,-0.10869910599999999,-2.2200412999999997
-1.3484622,2.755343,-0.87488914,-1.651989,0.72755796,-2.95198
-0.675366,4.809367,-0.64778477,-1.0967649,1.0751752,-0.11948524
-1.7456794999999998,7.2136245,0.9141636999999999,-0.65013516,0.31288517,-2.9477215
-1.6974506,11.955666,-0.6904591,-0.94719017,0.84201664,-5.510877
-3.7137518,16.602045,-7.102198,-0.23652703,1.9588354,-2.5761583
-5.3748198,19.69752,-5.9436917000000005,-1.3767681,0.1654223,-2.863614
-2.7803671000000003,20.50604,-0.7867826,-0.7166845000000001,-0.51326644,-2.058738
-5.291358,16.602037,-0.48334143,-0.48619637,-1.064232,-1.5136368
-7.907569400000001,14.673814000000002,-3.3836582,-0.30572933,-0.46322784,-1.1878536
-13.4212055,16.69608,5.6981044,-0.12791517,0.08824385,-1.0845824
-6.966006299999999,15.902373999999998,-1.9275240000000002,-0.07204719,-0.16140805,-0.6943967
-4.4872417,15.080847,0.72655404,0.013107423,-0.54681164,-0.42397538
3.8498955,9.992727,0.22172223,0.023753932000000002,-0.3700796,-0.39470622
24.586344,22.357391,0.7495861999999999,0.009930924,0.04618141,-0.40587629999999997
-1.0631788,19.681133,-3.7559757000000005,0.07220427,-0.03417355,-0.39255947
-10.372266,-2.1127682,-2.3770877999999995,0.03494149,-0.4813269,-0.3159046
-8.655413000000001,6.453992400000001,-7.2488575,0.004590215999999999,-0.6841516,-0.33295646
-10.034837,10.807541,2.7305488999999996,-0.09332275400000001,-0.84384924,-0.4399277
-3.8182154,9.144883,0.39063793,-0.18914133,-0.7384488,-0.58473766
-2.0467935,9.880669000000001,0.44373178,-0.25729644,-0.5484173000000001,-0.7114311
-1.6105603000000002,10.517546000000001,-0.7684525999999999,-0.29773572,-0.53881806,-0.8375834999999999
-4.7806370000000005,9.982529,-2.39831,-0.4212352,-0.74803066,-0.96907663
-3.3473910000000004,10.131313,-1.3641108,-0.5772153,-0.8214915999999999,-1.2645084999999998
-0.74562144,10.387838,-0.09990525,-0.7651174,-0.55159384,-1.6142551
-0.41936840000000003,10.623858,-0.89259666,-0.89926344,-0.7416428,-1.8585837
-1.9897156999999999,9.571060000000001,-1.7978348999999998,-1.0477735000000001,-1.0019412,-2.0038998
-2.6215646,9.440625,-2.5457162999999996,-1.2436867,-0.6452831,-2.2615627999999997
-2.3636613,9.565956,-2.3498322999999997,-1.3906085,-0.633572,-2.7214918
-0.6133849,9.18251,-2.1008162,-1.3959143,-1.6077275,-2.8577497000000003
0.08752244,8.693682,-1.2270093,-1.3229945,-3.24729,-2.210983
-0.14544296,9.403495,-0.76577103,-1.6029977,-3.3564252999999997,-1.7042093
-0.8805395,9.942076,-2.0253316999999997,-2.371152,-1.2111537,-3.4049977999999994
0.19882408,9.537695,-3.4273572,-2.0725086,-0.5931152,-3.9777799
2.1994765,9.917205000000001,-4.263833999999999,-0.98923516,-0.07995354,-2.5750937
2.1707845,11.152096,-4.2383595000000005,-0.48884928,-0.8576896999999999,-1.0622249
0.68934816,12.186103999999998,-2.7957284,-0.20830505,-1.3394355,-1.0079277
1.7585125,12.591346000000001,-1.0868239,0.25319493,-1.0408096,0.85358816
4.892311599999999,13.873335999999998,-2.890376,0.9564055,-0.8124333,2.0672900000000003
3.5071510999999997,14.628677,-5.1322203,1.5483513999999998,0.22610740000000001,2.285561
1.3607014,14.998122,-5.5284510000000004,1.9310846000000002,1.4696196000000001,2.6943696
2.689445,15.129545000000002,-8.153138,2.4719447999999997,2.015262,3.1830616000000003
7.7185807,18.327507,-7.160856,2.85946,2.2292566000000003,3.7595612999999997
5.5813537,24.389167999999998,-5.3865419999999995,2.9872183999999997,2.2755777999999998,4.428162
-4.8631983,21.217712,-1.0558238000000002,3.018634,2.2335152999999996,5.0669527
-8.347585,9.136753,-1.1753423,3.018093,1.8811159,5.548175
-2.582338,1.6623133,-3.5572572,3.3002257000000004,1.3690188,5.8207254
-8.34862,1.0800339,2.1062748,3.0319335,1.3232213,6.0559959999999995
-9.097794,-0.06262274,0.015581464,2.4634101000000004,1.6719032999999999,6.246586
-0.47457868,-2.1657472,1.7925674999999999,2.060972,1.1970688999999999,5.7046785
2.9449544,-1.0854353,1.7084448,1.5882671,1.0379124,4.0379762999999995
0.85578346,0.5929958000000001,2.5590662999999996,1.9438604,2.2942004000000003,2.4702692
-0.37733576,0.8192862,2.424493,0.57206655,0.3554712,0.2717652
-1.422807,1.4450157,1.093633,0.038676497000000004,0.07440338,-1.4870205
-1.833633,3.0095787,-0.9976254999999999,-1.4156191,0.011588986,-3.0201178
-2.3592367000000003,4.854493,-0.8075355,-1.1840663,0.44116688,-2.3866506000000003
-2.0079116999999997,6.764050999999999,0.7999985,-0.4904375,-0.69532174,0.63107616
-0.8374726,9.419996000000001,1.0858184,-1.4055136000000001,0.55189055,-3.8638623
-3.2135358,14.79654,-5.1040263,-1.00147,0.46832418,-4.622941
-4.367723000000001,19.149113,-3.9809062000000006,-0.37917277,1.4818718000000002,-2.912588
-2.4074272999999997,20.347296,-2.8464088,-1.1297691,0.040858157,-2.9248402000000002
1.2027991000000002,18.770751999999998,-0.09920614,-0.45158648,-1.1126648000000001,-1.8671008000000002
-4.6251764,15.199082,0.008226477,-0.4499808,-1.2324468000000002,-1.3837494
-11.520726,15.117076,-0.97739935,-0.38449603,-0.5441413,-1.2038058999999999
-13.0314865,16.750035999999998,1.7317836,-0.19659388,-0.08155923,-0.89294535
-7.0957527,16.119097,-2.1698077000000002,-0.056059975,-0.37753215,-0.60177207
-6.574746,10.526404,-1.3896329,0.090826936,-0.59259164,-0.30419344
16.057192,10.573733,-1.7267653000000003,0.06796312,-0.64261276,-0.18015288
14.626647,24.346485,-3.6523068,0.09564404,-0.39828414,-0.15140732
-1.6846753,15.744472,3.6232123,0.16697565,-0.28808406,-0.16472417
-7.524315,-0.8881627000000001,-1.9783863999999998,0.33677873,-0.36421529999999996,-0.19612265
-11.074226,9.549206,-1.6569599999999998,0.1776047,-0.8768534,-0.33826226
-8.925373,9.484506,0.1911435,-0.0874759,-0.9274155999999999,-0.47080258
-3.6097379000000003,9.031475,-1.2955409,-0.26953119999999997,-0.85236645,-0.6970496
-1.3818278,9.556446000000001,-1.2620987,-0.37386698,-0.43448228,-0.86739373
-2.6461675,10.463111,-0.2621651,-0.35735616,-0.30246556,-0.98556995
-4.0543127,10.408073,-1.9380104999999999,-0.43029347,-0.44619343,-1.0553133
-3.5725703,9.7570715,-1.7841494999999998,-0.6240599,-0.60589105,-1.2171228
-2.8183682,9.593624,-1.0289705,-0.80717987,-0.41797146,-1.5280008
-1.2308303,10.158999999999999,-0.25804704,-0.8524188,-0.38070866,-1.7499893
-0.976231,10.396897000000001,-1.4900361999999998,-1.0344741,-0.7017095999999999,-1.8974346999999998
-1.345685,9.934422999999999,-1.6996342,-1.2080122,-0.47441540000000004,-2.210983
-0.45026314,9.082069,-3.7199190000000004,-1.4060546999999999,-0.3860494,-2.6288674
0.4283227,9.705969,-3.6056199999999996,-1.4433,-1.0988243999999998,-2.817293
1.2847286,9.033217,-2.30372,-1.4134898,-2.3295607999999994,-2.7241447
0.7315148,9.165942,-1.1874571000000003,-1.3458931,-3.7993026,-1.8559133
-0.62262654,9.687438,-1.1855321,-1.9740198,-2.5579197,-2.025734
-1.4629816999999998,9.871782000000001,-3.0683417,-2.56066,-0.82362086,-3.9298705999999997
1.4553298000000001,10.579374000000001,-4.2842516999999996,-1.5838339,-0.04960226,-3.7270458
1.5848562,10.495251,-3.6548733999999996,-0.51438344,-0.096446894,-1.7670237000000002
0.47087243,11.940764,-2.7758182999999996,-0.5612281,-1.5502363000000001,-0.81362015
1.3364147,12.6485195,-1.2265879,-0.19446458,-0.8795063,-0.41757002
4.20373,13.055112,-2.4756044999999998,0.3085742,-0.6585825,1.6531584
3.7830877,13.779589000000001,-5.336618,1.1581482,-0.019268433999999997,2.4713337
1.3812628,14.494047,-5.8492169999999994,1.4637203,0.8351050999999999,2.822145
0.85938436,15.000354000000002,-6.595364599999999,1.9066151000000002,1.5425569,3.3283951000000003
3.1702774,16.80905,-7.9390583,2.326611,1.9077321,3.9219294000000002
10.148532000000001,20.743412,-7.6122108,2.6949804,1.9348720000000001,4.59903
2.3573406,23.839306,-3.750421,2.911628,1.4611024,5.136696
-7.9656142999999995,15.264654,1.5164969,2.9824362,1.1390542,5.415617
-5.3880363,5.4969625,-2.6440987999999996,3.1708794,1.381271,5.638669999999999
-2.0360675,-0.41425437,-3.7082447999999997,3.2799973,1.5691732,5.9101562
-10.422898,1.259082,1.6082809999999998,3.2837322,2.146214,6.046431500000001
-5.717459,-0.01853112,1.0096253000000002,2.9973412,2.762123,5.3624019999999994
0.96772677,-1.5835346000000001,1.7376158,1.7032668999999998,2.0999103,4.4702244
1.3105861,-0.41627505,1.0107648,1.8560529,2.4044006,3.094172
-0.8058404,0.7847331999999999,2.1439886,0.9899508,0.27084020000000003,1.0058506999999999
-2.6182797000000004,1.1602781,1.3205746,0.30377457,0.3405661,-0.7838099000000001
-3.3799328999999996,1.6466266,0.24185267,-0.6703635,-0.6958453,-2.3429997000000005
-1.6294266000000002,3.1068215,-1.3231986,-1.7366025,-0.47813293,-2.7986703
-0.22098482,5.1886849999999995,-0.40649712,-1.1153876,0.070668384,0.5166349
-0.64684623,7.8807925999999995,1.0498383,-0.6794043000000001,0.52687997,-2.8502972
-1.7018561,11.668755,-1.0415159999999999,-0.9147095999999999,1.8321418999999999,-5.076499500000001
-1.4158541999999998,16.246727,-2.7270916,-0.27909559999999994,2.0115442,-3.717464
-1.9458634999999997,19.912979999999997,-5.287192299999999,-0.9860238000000001,0.31449088,-2.7741833
-3.6022870000000005,20.92973,-3.3112001,-0.7954513000000001,-0.693716,-2.3222303
-4.1421604,18.211897,0.8458331,-0.6703635,-1.5608828000000001,-1.7489245999999998
-9.163366,13.093888,-9.180902,-0.5191831,-0.69478065,-1.5104429
-17.932217,16.410902,10.1583,-0.3499036,0.32087877,-1.2623792
-8.359767,15.562159,-5.876922,-0.15613715,0.23516566,-0.9312728000000001
-6.8621172999999995,15.392025,0.22310129,0.007801621700000001,-0.47120398,-0.47293186
2.7887087000000004,10.53534,0.6103778,0.14035937,-0.8379849,-0.26958355
28.878967,19.68685,1.8765273999999998,0.115872405,-0.4398055,-0.23764403
3.8686564,19.576162,-2.4553688,0.1749518,0.06801548,-0.29674090000000003
-9.832412,3.5139601000000003,-0.43837833,0.33997267,-0.061313417,-0.18069394
-6.915431,2.8583226,-11.903741,0.35116026,-0.51963687,-0.17854719
-12.424969,10.742122,6.2392607,0.13981833,-1.0088701,-0.20996311
-3.971157,9.010483,-1.0019351,-0.042219516,-1.2505285,-0.33878586
-0.8036665,9.493623,-1.2835698,-0.28389525,-0.92900383,-0.61133647
-2.0889025,10.240107,2.1200848,-0.35787976,-0.24230406,-0.8663291
-5.0616392999999995,10.225578,-1.8049504,-0.42069417,-0.3391873,-1.0409144000000001
-6.0377555,9.513581,-0.94502974,-0.5234417,-0.7922049,-1.0563605
-2.9590417999999996,9.95331,-0.21812135,-0.67621034,-0.8055044,-1.341687
-0.23889345,10.651822,0.31281679999999995,-0.8588066999999999,-0.42809436,-1.719638
-1.0268443999999999,10.60752,-1.0417745999999999,-1.016916,-0.50794315,-2.0284042
-2.9002306,9.646937,-1.6712773,-1.1952188999999998,-0.47492155,-2.2668686
-2.6084254000000002,9.316854,-3.1200662,-1.3698217,-0.56702256,-2.5745525000000002
-2.2442386,10.002189999999999,-3.3171186,-1.4092312,-1.2505285,-2.7555432
0.5636429000000001,9.081245,-2.3991816000000004,-1.4177485,-2.3854463,-2.6517484000000002
2.5345116,8.32735,-2.4728942000000003,-1.3953732,-3.8365652999999997,-1.71325
1.4151552,9.425742,-2.431829,-2.042681,-2.5765424,-1.9458674999999999
-1.1456639,9.439561999999999,-2.360386,-2.6341207000000004,-0.8086983,-3.9016485
-1.2097327,9.857034,-2.9036016,-1.6402605,0.04300491,-3.847875
2.3318567000000003,10.571033,-3.6022582,-0.59849083,0.21069615,-2.0816193
3.218439,11.984942,-3.8295448,-0.5117130999999999,-1.2590456,-1.0153627
1.8817277,12.483004,-1.6235273000000001,-0.12419763,-0.8587369,-0.37552503
2.9731867000000003,13.833363,-2.2484043,0.31442106,-0.7820819999999999,1.5482816000000001
2.9015427000000003,14.413898000000001,-4.709778,1.0176315999999999,-0.20717058,2.2387164
1.7257885,14.589614000000001,-5.367408,1.4701083000000001,0.9192126,2.48678
1.3712933,15.273149499999999,-6.055664,1.9178026999999997,1.935413,2.9946184
3.000308,17.149553,-7.4471645,2.308512,2.23458,3.587629
10.739939,20.520836,-7.2784405,2.5576402999999996,2.1004338,4.3403373
3.3382547,23.979902,-3.5743036,2.7200083999999998,1.6905433999999997,5.01852
-7.6857038,15.765521,1.724802,2.845637,1.4238571000000002,5.4661965
-6.6070199999999994,5.969338400000001,-2.089956,3.0303454,1.3621073000000001,5.8638525
-3.5670922,-0.021844696,-3.4771468999999997,3.2938552000000003,1.4030876,6.215187
-11.183488,1.1426662,1.5363784,3.4088376000000005,1.8433293999999998,6.4036303
-5.393035,-0.57627475,0.91335917,2.7104266,2.3245516,5.9437013
1.7855189999999999,-2.0078924,1.9918320999999999,1.5089593000000001,1.2822585,4.763003299999999
2.1151240000000002,-0.765637,1.4672433999999999,1.8432596999999997,1.2103858,3.2969792
-0.5724249,0.43873265,1.9642796999999999,1.287512,-0.08473573599999999,1.4423575000000002
-2.8081303,0.705916,1.1324382,-0.05071927,0.16917476,-0.8322428
-3.1474557,1.1286745,-0.33501586,-0.12630948,-0.06928957,-2.323295
-1.7694683,2.6238822999999996,-0.6859867,-1.8537142,0.49602258,-3.1361472999999997
-0.7777708000000001,4.304047,-0.76828015,-0.31262338,1.2327609,-0.5027421
-1.2056913,6.4480257000000005,0.58190596,-0.8023802,-0.6010914,-1.8479371
-0.85057366,10.700405,0.15285541,-1.7328675999999998,0.82871723,-4.237537400000001
-0.8910453000000002,16.586454,-3.1502426,-0.68631583,1.768804,-3.8004894
-1.9311056,21.879604,-7.8633533,-0.8816879999999999,0.8856848,-2.9003357999999997
-3.2976968,23.019472,-3.6053326,-0.6266954,0.10210176,-2.3642755
-5.962884,17.369934,3.9563704,-0.40472440000000004,-1.1738735,-1.4146068
-9.425742,12.662281,-6.091596,-0.27590165,-1.0487684,-0.96106553
-15.852670000000002,14.913367000000001,9.948971,-0.15187855,-0.40838959999999996,-0.7236659000000001
-7.2937536,18.236423000000002,-3.5652057999999998,0.018989183,-0.1725607,-0.44896850000000005
-4.3366847,14.202260999999998,-1.7407666000000002,0.19518016,-0.32162929999999995,-0.15140732
0.023625983,6.165405000000001,-0.2500217,0.21649064,-0.54785883,0.05511749999999999
24.304134,18.250225,-5.513578,0.26385888,-0.67614055,0.11634365
5.067777599999999,23.040083,0.06106172,0.29686305,-0.5526585,-0.017261306
-6.431286,8.545259,6.807759299999999,0.35274848,-0.5068785,-0.27384216
-4.2296734,4.372722,-9.362756,0.036023594,-0.8342499,-0.4521799
-15.880070000000002,9.058022,6.48482,-0.17369516,-0.9412386,-0.63156486
-7.9785813999999995,8.902016,-2.9029217000000003,-0.48722609999999994,-0.78101736,-0.77422804
-3.752643,9.188716000000001,-1.1305708,-0.5255535,-0.4238183,-0.99248147
-1.6745621,10.324296,0.42692447,-0.5058662,-0.35037485,-1.1106577
-2.2626642999999995,10.669827,-0.95112056,-0.5005430000000001,-0.33067009999999997,-1.1782544
-3.4531763,10.304127000000001,-2.1983464,-0.5505816,-0.37271506,-1.3336934
-3.3900843000000003,9.992641,-1.6364464,-0.73689544,-0.42648867,-1.4438933999999999
-0.7904888000000001,9.886932,-1.0759542,-0.84709555,-0.3477045,-1.6642761000000001
1.1654592,10.344005000000001,-1.7800314,-1.0280862,-0.47439793,-1.9006287
0.87495625,9.645702,-2.2930036,-1.1590208,-0.29660127,-2.1396341
0.5419898,9.676817,-3.5945873,-1.3187358,-0.042690754000000004,-2.5271845
0.81714106,8.956383,-4.033483,-1.4044316000000001,-0.6197140999999999,-2.7299917000000002
1.4082886000000001,8.655959,-4.419735,-1.3991083,-1.7242979999999999,-2.7305152
1.1038898000000001,9.148216,-1.0115119000000001,-1.3314941999999999,-3.096633,-2.2987907
-0.44002554,9.473482,-1.2826984,-1.5944804,-3.2355785,-1.6019853000000002
-0.1682645,10.198025999999999,-1.9157444,-2.4749467000000003,-1.2611748999999999,-3.5636132000000007
0.14739664,11.063194000000001,-2.5036259999999997,-1.8276216,-0.56169933,-3.9793506
0.59427917,10.885219000000001,-3.0421207000000003,-0.76244706,-0.2263343,-2.3876977000000004
1.4684117,11.277436,-2.826805,-0.46382123,-1.4948745,-0.9834407
1.5091611,11.728639,-0.99985695,-0.32700488,-1.8094700000000001,-0.8966629
3.278974,12.260525999999999,-1.5149454,0.21169098,-1.0764493,0.6912550999999999
3.8040607000000004,13.651729000000001,-5.0995636,0.92500705,-0.38762018,1.9629892
1.3817511999999998,14.097911999999999,-5.9390855,1.447227,0.5008047999999999,2.2488394
1.3390673,14.600905,-6.8228807,1.7714044999999998,1.5026412,2.6869345
1.8493772000000002,16.163629999999998,-7.977786500000001,2.1829007000000002,2.0530658,3.2847445
7.5764512999999996,17.855947,-8.276296,2.4676862,2.1659186000000004,4.0566163
5.302965,22.408148,-4.836134400000001,2.7301314,1.8949738,4.6640086
-5.944736,19.128178,1.3696653,2.9153805,1.6783086,5.112209
-8.061928,8.425597,-1.4549947,2.9989470000000003,1.8300127,5.472061
-2.2632675,2.3009619999999997,-3.6142964,3.092636,1.7538988999999998,5.7446117
-6.880169400000001,0.86656696,1.8536196,2.8802470000000002,1.9162493999999999,6.076258999999999
-7.721789,0.47148535,0.89601564,2.7849696,2.5204475,6.2391505
0.12498691,-1.0189914,2.2269142000000004,2.210058,2.0860698,5.6408167
2.2592453999999997,-0.73654264,1.3110361000000001,1.8762813000000003,1.7342113999999997,4.043317
0.26715459999999996,0.99625605,2.3934164,1.6287413,1.5867486000000002,2.4271595
-2.0813083999999997,1.4960121000000002,1.8161265,0.08180358,-0.45575783,0.114214346
-2.8052766,1.5771277,0.9559856,0.124930665,-0.5207015,-1.6717287
-1.6436387,2.375364,-0.1684656,-1.4587113,-0.48556805,-2.7789479999999998
-0.5676365,4.289921,-0.06988196,-1.2106651000000002,-0.17097245,-1.9953825
-0.31375533,6.603111999999999,1.3212736999999999,-0.6181781999999999,-0.76398295,0.5347514
-0.4266276,9.890122,-0.64118636,-1.0919478,0.91282463,-3.3166142
-3.0695677000000003,14.769812,-3.5902011,-0.8092917,1.1528947,-4.306739299999999
-3.5169193999999995,18.701397,-3.6412072,-0.48881435,1.8204482,-3.2878513
-1.6309493999999998,19.964367000000003,-3.7746312999999994,-1.2282231000000001,0.45821875,-2.6863234
0.559161,20.43414,1.4500626,-0.7124085,-0.7123387,-2.0736256
-4.630855599999999,15.548789000000001,-6.343006,-0.6943094,-1.3601874,-1.5205483
-15.551681,14.5848255,1.3224421999999998,-0.5606869999999999,-0.4232947,-1.4002428
-12.028326,14.419166,1.813263,-0.31527627,0.40392154,-1.2288165
-6.8954830000000005,17.418468,-7.089921,-0.22319270000000002,0.10316641,-0.823202
-6.265616400000001,10.039616,1.0425982,-0.01452114,-0.4775919,-0.48677233
13.755348999999999,9.0982065,0.6687006,0.0030194195,-0.51750755,-0.42502257
16.993298,22.042667,-0.66712034,0.008342674,-0.066636674,-0.40798816
1.4024371,16.733612,1.0521653999999998,0.0035604715999999997,0.014800391999999999,-0.37177259999999995
-8.382771,4.275144,-4.367522,0.10098475,-0.045867253,-0.23975588
-6.636085499999999,6.8069067,-6.3262279999999995,0.17975146,-0.44299948,-0.23232077
-10.637792999999999,10.482907,3.6665094,0.1068316,-0.78953457,-0.29140016
-2.9377334,8.753729,-2.292745,-0.093305305,-0.9806306999999999,-0.44099236
-0.26152343,9.357019000000001,-0.58057475,-0.24502677,-0.65432394,-0.72045445
-1.821997,10.452012,0.9579296999999999,-0.32220525,-0.27689648,-0.8881281999999999
-4.6538687,10.2431135,-1.4423723999999998,-0.39620718,-0.42648867,-0.9983283000000002
-4.2580113,9.544639,-1.7201574,-0.5175774000000001,-0.5707401,-1.1724075
-1.8736161,9.820766,-0.5964818000000001,-0.69005084,-0.34025192,-1.4603868
-0.8835849,10.137203,0.29144138,-0.83323765,-0.24708626,-1.719638
-1.8172661,10.343172000000001,-0.81759113,-0.96099573,-0.59044486,-1.8772063
-2.5429103,10.134129,-1.4017285,-1.1664733999999999,-0.45575783,-2.1124766
-2.267826,9.73377,-2.1450419999999997,-1.3485286,-0.25773278,-2.5575182
-0.8810662,9.338776,-2.8446276000000004,-1.4187956,-0.76503015,-2.7768188
0.7538191999999999,9.64327,-2.4483106,-1.368757,-1.9686266,-2.694317
1.8671708999999999,8.761659,-1.7050356,-1.3149833999999998,-3.6768677000000003,-1.9426737
0.3949475,9.428107,-0.88431275,-1.813781,-3.039142,-2.243446
-1.1914601,10.015549,-1.7935922999999998,-2.4429896,-1.477299,-3.6562377999999995
1.2966229999999999,9.913729,-2.9290087000000002,-1.4092138,-0.35835100000000003,-3.5183568
2.1073188999999997,10.490549,-3.8653907999999997,-0.47712067,-0.3567453,-2.0124169999999997
0.9189042,12.097959,-3.3772895,-0.6320186,-1.7184337,-0.9355139000000001
0.57397634,12.177446,-1.0094625,-0.16783085,-1.0226932,-0.6065368
3.5388598,12.990775,-2.3151932,0.31337386,-0.15819664,1.2949121000000001
3.9181495,13.255123999999999,-4.882745,0.91223127,0.6621081,1.7356776000000003
1.3514885,14.063272,-6.5225334,1.1805233,1.8177778999999998,2.0710425
0.14038642,14.855169,-7.0896907,1.4583972,2.583803,2.609756
3.1403209999999997,16.496012,-7.938483,1.7873743000000002,2.6875975,3.3379772000000005
7.950474000000001,19.94321,-6.427598000000001,2.0349143,2.1462314,4.228025
0.6956114000000001,21.815544,-4.1503677,2.2164285,1.5883543,4.7997427
-8.398984,15.820473000000002,2.6758652,2.4735503,1.8002199,4.890238
-6.547921,6.4681177000000005,-1.9923685000000002,2.2813897,1.6298757,5.002043700000001
-2.4117463,0.65592504,-4.0970059999999995,1.8832103,1.6942958,5.694049400000001
-8.652569,0.68554616,3.3069095999999996,2.36815,2.0009153000000004,6.0081387
-4.123687,0.2894494,1.3941915,2.6194077,2.3128405,5.8175488
3.0063992,-0.9263261999999999,2.2265117,2.2638142000000006,2.202658,5.019584
1.737252,0.6768025,1.9237986,1.4855545,1.4989237,4.021483
-1.3733811000000002,1.6492794999999998,3.0260794,0.99103284,0.44917792,2.6938633999999997
-3.7505074,1.4958205,2.0602393,0.5385388000000001,-0.25507987,0.8690518
-3.1128356,2.1391234,0.7809119999999999,0.20425588,-0.22207569,-0.70181435
-0.8433335999999999,3.6894742999999997,1.6132514,-0.6602406,0.33471924,-2.527708
1.1141083,5.672094,4.119243,-0.9759008,0.4976108,-3.5566843
-1.271053,8.030737,-2.4104822,-1.1952188999999998,-1.3000258999999998,-1.9613136999999998
-4.257082,10.726627,-0.995873,-1.2340872999999999,-0.8129569000000001,0.06736971
-3.4590085,13.344189000000002,1.156476,0.13611823,1.491471,-2.2822797
-0.70627034,15.698339,-2.9030557,-0.21680479999999996,2.8638060000000003,-4.231673000000001
-1.5397302,19.084478,-4.293196,0.03176499,2.1600718,-2.535684
-3.7179462999999995,21.647932,-3.5101964,-0.123115525,0.086132,-1.8095921999999998
-7.4717193,15.629683499999999,-3.6264492999999995,-0.22851595,-1.5507425,-1.3139886
-13.059901,12.053311,0.041869800000000006,-0.09756391,-1.1243584999999998,-1.03505
-7.0671854000000005,13.014507,0.21183898,-0.05284857,-0.55957,-0.9355139000000001
-4.2853723,15.810954,-2.6890810000000003,0.0977908,0.06112143,-0.8498008
-8.662289,15.142109,-1.695545,0.09831439999999998,-0.45842817,-0.59269637
-7.643307000000001,11.057572,-1.0724586999999999,0.16379915,-0.9263334999999999,-0.34248596
4.8815093,6.144843,2.8109365,0.14302973,-1.0221521,-0.28820622
23.85122,15.708712,8.992957,0.0999201,-0.76557124,-0.27808330000000003
1.7955076,19.281271,-9.070472,0.14782938,-0.78899354,-0.29298842
-13.253495999999998,5.664691,2.375163,0.16910495,-0.93378603,-0.43938664
-7.608208,7.732753999999999,-6.6517916,0.14196508,-0.92474526,-0.49687780000000004
-5.615131,9.596975,-1.7133386000000002,-0.030490901,-1.159492,-0.6203773
-2.9035537000000002,9.389781,-1.5681924999999999,-0.3376514,-0.6665587,-0.79976225
-0.11596555,9.664186,-0.009394848,-0.3424336,-0.32054716,-0.9663888
-1.6815436000000001,10.240537,-0.23290795,-0.38234928,-0.44671702,-1.0004575999999998
-3.6641245000000002,9.847505,-4.108556,-0.42812926,-0.90237015,-1.0723128
-3.1104127999999998,9.953645,-3.0771909,-0.57346284,-0.8672367,-1.3065361
-0.9328001,10.343708,-3.0381652999999997,-0.76616466,-0.51431364,-1.6562825
-0.39121255,10.790782,-2.0125468,-0.90083426,-0.73204345,-1.8756006
-0.7627831,10.426298,-1.4740621,-1.0775663,-0.6042679,-2.1082182
-0.87431455,10.400910000000001,-2.169118,-1.2724148000000002,-0.4408527,-2.4382772
-0.32509428,10.140459,-2.2963266,-1.3538344,-0.9971241,-2.6069982000000005
0.78080666,9.031628,-3.3989046000000003,-1.3751274,-1.8765256000000001,-2.6192505
1.5011549,9.206318,-2.3626747000000003,-1.3187008999999998,-2.5270273999999997,-2.4111025
-0.041793186,10.003366999999999,-0.8959485999999999,-1.4294246000000002,-2.4338791,-1.9112577000000002
-2.3242621,10.278098,-1.7210383000000002,-2.0873964,-0.7985753999999999,-3.7350046999999997
-0.38152084,9.296925,-2.915898,-1.9564443,-0.6096086,-4.494642
2.2711685,10.228479,-4.4194283,-0.6144606,0.13723524,-2.7310562000000003
2.165651,11.859008,-3.3137572,-0.28228956,-1.2984377,-1.0297443000000002
1.3370851000000001,11.865778,-1.6969144,-0.31367058,-1.7775131000000002,-1.0872178999999997
2.9872837000000003,12.716822,-1.6442611,0.30592132,-1.5150854999999999,0.8546703000000001
3.19172,14.096916,-3.1542459,0.96600485,-1.16588,2.210512
1.7377787,13.993457999999999,-4.218420500000001,1.3476909,-0.11986921,2.2280874
3.2049072,13.631943,-5.4439645,1.6612218999999997,1.5521562,2.4905150000000003
4.513846,14.747314999999999,-6.7830414999999995,2.1515023999999996,2.3607671000000003,3.2118247
6.964733,18.945807000000002,-7.0567565000000005,2.4320464,2.4443335999999998,4.0002074
6.5421467,24.751852,-5.9444485,2.6513472,2.3123169999999997,4.707118
-4.975132,21.013496,-2.594424,2.8264735,2.132391,5.3166394
-10.01755,8.963125,-0.9274180000000001,2.9931,2.2564316000000004,5.6844673
-2.3926501,1.7657523999999998,-5.2793775,3.3646631,1.6341343000000002,5.923473
-7.744151,0.42532513,0.914767,2.7375839,0.9900206,6.215728299999999
-9.063566,-0.07363607,1.38178,2.191418,1.299834,6.727825
0.09867942,-1.6356995,0.90967214,1.9598651000000002,0.41777948,6.03102
4.797425,-0.52576673,1.2526655,1.7602518,0.36561158,4.3057623
0.7479486,0.6895684,2.7380953,1.3881476000000001,2.1659362,2.1674022999999996
-2.2714942000000002,0.39397067,1.9865650000000001,0.28942794,0.46408305,-0.45003316
-2.8534193,0.51025224,0.42751822,-0.5303357,0.6259100000000001,-2.2327824
-1.6200508999999998,1.4839836000000002,-0.39781097,-1.4959915000000001,0.17556266,-3.0477812
-0.8929319,3.0907516,-1.348424,-0.26310837,-0.95294976,0.520911
-1.0357028,5.645001000000001,1.6296374,-1.3059251,-1.7594140999999999,-2.562824
-0.17881814,9.279676,-0.18403749,-2.1885207,0.23411846,-4.9912925
-6.337806,16.525642,-6.152016000000001,-0.560146,2.0424366000000003,-2.7400796
-7.4404035,20.447508,-3.4246947999999997,-0.820968,0.6834186,-3.1590285
-2.9416504,21.082575,-1.0239521999999999,-0.7044149000000001,0.10636036,-2.3727925
0.42779595,21.360224,0.7113364999999999,-0.5399176,-1.089225,-1.4220594
-5.352104,14.931267000000002,-0.22200954,-0.40098938,-1.1552334,-1.0435673
-12.434909,16.434364000000002,4.1623963999999996,-0.19390608,-0.53932416,-0.94294906
-11.872501,16.424136999999998,-0.48559198,-0.10341076,-0.14008012,-0.8173201999999999
-8.579928,14.431223000000001,-3.355263,-0.050178215,-0.20929988,-0.49794245
-0.31985578,8.003979,-5.888692400000001,-0.05496042,-0.6452656999999999,-0.35419709999999993
26.681292,24.573118,-6.768178,0.01155408,-0.6351602,-0.28127727
3.3925742999999997,20.122747,-0.46033794,0.030194197000000002,-0.39133772,-0.30522317
-6.095301999999999,-3.6766224000000003,6.5749854999999995,0.13772394,-0.32480577,-0.26689574
-3.36076,6.7342863,-7.501034,0.27239352,-0.5973564,-0.4101
-13.979639,10.685984,4.7665777,0.05572836,-0.9013055,-0.47610837
-7.518569,8.653936999999999,-2.2720304000000002,-0.23223351,-1.000859,-0.5357288
-2.866865,9.224648,-1.1475217,-0.45261624,-0.92101026,-0.660834
0.006023811,10.263425999999999,0.41070136,-0.5116956,-0.54625314,-0.8764171000000001
-1.5849518999999999,10.645837,-2.0314035,-0.644777,-0.39400807,-1.0595370000000002
-3.4964633000000003,9.948463,-1.9531323,-0.7565828,-0.4999321,-1.3459281
-3.7496455,9.918986,-1.6279806,-0.9295798000000001,-0.39081413,-1.5120136999999998
-1.5972294,9.809849,-0.17534176,-1.0738313,-0.54838246,-1.7105622
-0.8017128000000001,10.332417,-1.0406063,-1.2133180000000001,-0.80868083,-1.8351438999999998
-1.7062519,10.808767,-0.9532083,-1.3788625,-0.43446480000000004,-2.1193880000000003
-1.0998676,9.8211775,-2.2713697,-1.5332369,-0.14327408,-2.484581
-0.8809416999999999,9.389828999999999,-3.9022424,-1.5438833,-0.8725599,-2.6181857999999996
-0.52249146,9.363856,-3.1638129,-1.5002327,-1.9835318,-2.5761235
1.0611295,9.103186,-2.2230546,-1.4512588,-2.760727,-1.9144516
0.83089334,9.30857,-1.1758212,-2.1358292000000003,-1.3234483,-2.7012286
1.008409,9.639975999999999,-2.7857494,-2.3253372000000003,-0.68305206,-4.323756700000001
1.3738695,10.059842,-4.4178767,-1.3453346000000002,-0.0421497,-3.4667125
0.44394246,11.268636,-4.479158999999999,-0.42120029999999997,-0.5457121,-1.6269958999999998
0.4694934,11.933591999999999,-3.3786783,-0.6490355999999999,-1.9712796000000001,-1.0632546
1.4216195,12.153083,0.2749118,-0.11885692,-0.9433679,-0.16416568
4.401807,13.420907999999999,-2.1760897999999997,0.45497242,-0.42223006,1.6260185
3.7576324999999997,14.426062,-4.6038966,1.1358428,0.49656359999999994,1.9922758000000003
1.3955132,14.130866000000001,-5.582732,1.4733196000000002,1.9519414000000002,2.5283189999999998
2.350273,14.153820999999999,-7.9252577,1.9268609,2.7887568,3.1170707
4.8744316,15.184773999999999,-9.159039,2.2169871,2.9601657,3.8362510000000003
8.8233795,21.642876,-7.051661500000001,2.3830552000000003,2.3474505,4.7481160000000004
0.1407599,24.117905,-4.0320177,2.4080832,1.7799915000000002,5.259148000000001
-10.483137,13.948322000000001,0.052921433,2.7418424999999997,1.9008381,5.3448614999999995
-4.870237400000001,5.6896379999999995,-3.3079536,2.569369,1.5548091,5.749411
-2.1097705,0.33554256,-2.9559292999999998,2.5023134,1.8119310000000002,6.1955175
-9.329647999999999,1.886066,1.6934189,3.0080225,2.08874,6.4047127
-2.6941283,0.49809929999999997,1.0159843000000002,2.8472602000000005,1.8997735,6.0230440000000005
2.3050609,-0.4660936,1.5908225,1.8874688000000002,0.8249996999999999,4.871092
1.1618678999999998,0.54024684,1.2976956,1.3971883999999999,0.27776915,3.3864273999999996
-1.4395378,1.2590053999999997,1.6083288999999998,1.1326314,-1.3479352,1.9949288
-3.9355025,1.7616249,0.17306247,0.6040409999999999,-1.2020781,-0.22485077
-3.0108235,2.4494696,-1.6593828999999998,-0.38341394,-0.66336477,-2.001753
-0.7953634,4.8785405,0.26363993,-1.6844172,0.25169393,-3.3064913999999996
-0.22721931,5.5124483,2.0283964,-0.44834018,1.1928451999999998,-0.6485818
-3.6143730000000005,8.157993,-5.037247,-1.2202295,-0.51431364,-1.3161178999999998
-5.697118,12.280818,-1.5314846000000002,-1.5646528,1.028348,-4.5004888
-4.697788,14.203028,-1.1206013000000001,-0.7523066999999999,2.1664597999999997,-3.7876961000000002
-2.5745234,17.106495000000002,-4.830197,-0.97268945,1.3110216000000001,-2.784795
-2.5658371,21.765276,-5.644704,-1.0344392,0.13564698,-2.552701
-7.3020179999999995,19.434223,-2.0404537,-0.63465405,-1.5108093,-1.5609701
-12.710051,12.935939,-0.5767344,-0.46218064,-1.310655,-1.2527624
-11.9142475,13.952229500000001,6.0557117,-0.2955715,-0.49035025,-1.0462201999999998
-5.7293057,19.65156,-3.6510427000000005,-0.15610225,0.015882496,-0.759288
-2.6904122999999998,14.541806,3.0512759999999997,-0.023020892999999997,-0.39666098,-0.36325538
-2.5248772999999995,6.528567,-1.8319378000000002,-0.053895768,-0.93804467,-0.28660053
26.283632,20.429848,-1.3661889999999999,-0.005986479,-0.74321353,-0.29138273
6.848183000000001,23.570187,-0.2650573,-0.078906335,-0.3657861,-0.40582395
-7.4867644,7.4225807,3.6295333,0.00143117,-0.24122195,-0.4681322
-3.6684818,3.4592959999999997,-9.8312435,0.06691592,-0.51270795,-0.48089057
-15.617215,9.702043,4.657364,0.06426302,-0.8321031999999999,-0.50272465
-7.182816000000001,8.688404,-1.7613854,-0.3035651,-1.0349278,-0.48675486
-2.699405,9.257143,-1.4153850000000001,-0.37168533,-0.9822189,-0.65442866
-0.7019512,10.147096000000001,1.1776408,-0.53724724,-0.37323865,-0.8694881
-2.7900397999999997,10.533712,-1.8307791000000002,-0.5526934,-0.14114478,-1.1314096000000002
-4.848373400000001,9.297394,-2.4160943,-0.68203974,-0.34342843,-1.2873723999999998
-3.2170696,9.982347,-1.3172514,-0.8247030000000001,-0.37962657,-1.5673754
-0.3090723,10.16332,-0.56811535,-1.029657,-0.27742007,-1.8335381999999998
0.14238797,10.251656,-1.5698302,-1.1339928,-0.49727920000000003,-1.9943005
-1.3161885,9.783551,-1.6415893,-1.3485112,-0.39666098,-2.2577927000000004
-1.8060421000000002,9.290882,-2.634072,-1.5012974,-0.25773278,-2.6868472000000003
-1.8677933,9.672699,-3.0026162,-1.5949866000000001,-0.9167516,-2.9088356
-1.2013147,9.351215,-3.6692002,-1.4741399,-2.5552492,-2.702817
1.4591031,8.905903,-1.999982,-1.541754,-4.0670532999999995,-1.645095
1.8550561999999997,9.88539,-1.2843934,-2.4270023999999997,-2.4099157000000004,-2.5542892999999998
0.6159611,9.925279,-1.2618878999999998,-2.4914227,-1.0152231,-3.8888555
0.44076297,10.189588,-2.9764714,-1.3469229999999999,0.2096315,-3.3054092000000006
1.7243136000000003,11.026726,-4.4534163,-0.58941513,-0.052255157,-1.5844098
1.2177101000000001,12.520862,-3.9891806000000005,-0.8321555,-1.2797976,-1.1952713
1.2854277,12.725365,-1.024297,-0.20827013,-0.3402345,0.02693043
4.2617364,13.576598,-2.8542810000000003,0.4134685,-0.02989749,1.9512781000000003
4.2190337,14.238413000000001,-5.7778597000000005,1.2832881999999999,0.68607146,2.296225
1.2953781,14.563804999999999,-6.868256,1.6292997999999999,1.7874439999999998,2.5916742999999998
0.14104721,15.359779999999999,-8.518991,1.9790288,2.3352156,3.250152
4.2579823,15.915082,-9.311605,2.3090706,2.39803,3.8479447
8.846910000000001,22.377052,-5.998471299999999,2.5965437999999996,2.1707357999999997,4.565013400000001
0.2605466,25.242682000000002,-2.6843982000000004,2.7998745,1.7315585999999998,5.208586
-6.927871700000001,14.044378,-0.5455331999999999,2.9233742,1.3913938999999997,5.6408343
-3.4289660000000004,4.862202,-3.6166523,3.2480927000000004,1.5510916000000001,6.0656123
-4.318441,1.710954,0.22796631,3.3763919999999996,1.0262361999999998,6.223739
-12.643999,0.92189217,1.5301726,2.9925764,1.706007,6.5612164
-3.5326638,-1.8424243999999999,1.8278101999999998,2.365497,1.7145241000000002,6.2652434999999995
2.165699,-2.1703918,2.5811791,1.4323393,0.7478212,4.9599986
0.8447030999999999,-0.17000748,1.6625048999999998,2.0189619999999997,2.0019798,3.1846848
-1.2315582,0.26189694,2.0077393,1.0602527,0.34805354,0.980334
-2.3201349,0.38219118,1.1453956,-0.17474237,-0.27157325,-1.4981731000000003
-2.6520188,0.8375492,-0.09879434,-0.8768709000000001,-0.76874775,-2.5708
-1.5781428999999998,2.1780915000000003,-0.7660679,-1.464017,0.051539574000000005,-2.3701048
-1.2809075,4.2537017,0.031929072,-0.24712117,-0.5984036,0.6481629
-0.8403169,6.628817,2.6805387,-1.5284371,0.79627156,-3.5577313999999998
-0.42382159999999997,11.6335125,-2.0764433999999996,-1.6423548,0.6094166,-4.4813247
-3.8470894999999996,17.895557,-4.611654,-0.41961205,1.211468,-3.6615436000000003
-3.849273,23.146010999999998,-6.016121,-1.0158166,0.58332396,-2.8545384
-1.4922581,22.700289,-2.1930602,-0.94235563,0.06538004,-2.4904277
-4.4615279999999995,17.3897,3.7786057,-0.6969449000000001,-0.9076934000000001,-1.5961211000000002
-8.375913,13.809928,-7.638806,-0.5835508,-0.89331186,-1.1782368
-18.143682000000002,15.027753,9.841691,-0.36157987,-0.31255355,-0.9802118000000001
-8.541113000000001,17.74093,-8.020653,-0.14599679999999998,0.064315386,-0.7896393
-5.8216834,11.856776,0.15053783,0.0009250244999999999,-0.21725859,-0.48567277
13.192013000000001,8.305860000000001,-1.5607035,0.011030481000000002,-0.4259476,-0.37761945
19.249123,21.321526000000002,-3.3799233,-0.0043982295,-0.3657861,-0.35899678
-0.058198255,19.355158,1.315202,0.024870941,-0.11665781,-0.33129840000000005
-7.160042,3.9949169999999996,1.356976,0.107390106,-0.14220943,-0.2695661
-2.7018467999999998,4.4025445,-7.515102000000001,0.19149752,-0.44882888,-0.37868407
-13.638513,10.546391499999999,4.6486588,0.1010022,-0.6255609000000001,-0.44362777
-7.8119836,8.822136,-2.8909123,-0.15025539999999998,-0.96466094,-0.56286865
-3.337565,9.338201,-0.55615395,-0.29928905,-0.6755995,-0.8923694
-1.3107201000000002,10.037681,0.9681673000000001,-0.42065924,-0.13847442,-1.1888834
-1.9948488000000002,10.874494,-0.38755423,-0.47122145,-0.29604274,-1.3038483
-3.3840222,10.087644000000001,-1.8975581000000001,-0.6080378000000001,-0.5233544,-1.4108543
-3.4053402000000004,9.707837,-1.4012784,-0.76508254,-0.45202282,-1.5721576000000002
-1.6403058999999998,9.768352499999999,-0.5120432,-0.8965755999999999,-0.6415307,-1.7632712
-1.2613709,10.085488,-0.9263358,-1.0759604999999999,-0.6814638000000001,-1.955973
-1.6940701,10.422602000000001,-0.9183870000000001,-1.269727,-0.47705084,-2.2764330000000004
-1.4906012,10.043436,-2.2870564,-1.3591577,-0.9300510000000001,-2.4579473
-1.6080128999999999,10.067847,-3.2817225,-1.3788625,-2.028247,-2.4968157000000004
0.73961675,8.600404,-2.6575735000000003,-1.3607633999999997,-3.2009513,-2.2476873
2.8430378,8.271517,-1.1571368,-1.5465362,-3.403235,-1.665847
1.1187817,10.032250999999999,-1.4545063,-2.2247187999999998,-1.6103629,-3.160093
-1.4864353000000001,10.309097,-2.1852262000000002,-2.2082080000000004,-1.0482273000000002,-3.916519
0.058619633,10.529632000000001,-3.3060765,-0.8939053,-0.2752908,-2.811935
0.5752884,11.642744,-3.4061828000000003,-0.24233897,-1.0711086,-1.2234758
0.56537634,12.26245,-2.2515647,-0.11138691,-1.5704298,-1.1776958999999998
2.1410099999999996,12.689614,-1.6436865,0.6295926,-0.9774367,0.59226
3.0339134,13.735507,-4.8466496,1.2864822,-0.682511,2.0907648
1.0485646,14.797277,-5.2008285999999995,1.796991,0.24797638,2.3356345000000003
1.6387736000000002,14.301535000000001,-5.8963056,2.1728127,1.5324688999999998,2.7061330000000003
3.8479226000000004,14.941687,-7.4022875,2.6875627,2.355985,3.3087254
8.373769,18.206526,-7.009121,2.9244387,2.5343053,3.9996662000000005
7.103376,24.752167,-6.060558,3.0703134999999997,2.2074575000000003,4.7683615999999995
-2.0742023,22.293407000000002,-2.0161095,3.0830889999999997,1.8039547999999999,5.3448614999999995
-7.213758500000001,10.231621,0.23870191,3.1496212000000003,1.8502758999999998,5.7025843
-2.2493813,2.8179657000000002,-3.6221495000000004,3.2544806,1.8348296999999998,6.1332264
-5.986347,0.47912765,1.3900831,3.0405033,1.6863197,6.4451865999999995
-9.493134,-0.14917792,0.929975,2.6982093,1.8257715,6.4142942000000005
-0.7858153,-1.1986235,0.9481516999999999,2.049296,1.8742218000000002,5.2314672
3.0830517000000004,-0.79366827,1.0339886,2.0280201,2.4028296,3.3140311000000002
1.1852256,0.5664873,2.203202,1.4983478000000001,1.462202,1.4791142
-1.2566111,0.7452001,1.7394067,-0.28227209999999997,0.781349,-1.0861533
-2.6373856,1.5205383,0.011884816999999999,-0.13267992,-0.08204792400000001,-2.1619742000000004
-1.9310961,2.8913243,-0.7645451999999999,-1.6402255000000001,-0.26410323,-3.2947627999999995
-0.7264008000000001,4.725158,-1.0491105,-0.93542665,-0.23961625,-0.9046216
-0.6734794,6.615208,1.3780066999999998,-0.9072046999999999,-1.4559885000000001,-0.42125267
-0.8448754999999999,9.973824,-0.27098534,-1.5321546999999998,0.45078364,-3.5428263999999996
-1.2215695,15.72775,-3.7628806000000004,-0.7629531999999999,1.1444124,-4.643134
-1.9779842,21.290249,-4.2845483,-0.5335297,1.0672165,-2.6799357
0.7673608000000001,23.503984,-2.4590366,-0.8795412,-0.07674213,-2.7123988
-0.075034276,19.270039,3.7442057,-0.60644954,-1.3101314,-1.7547365000000001
-7.0713034,15.306017,-5.463998999999999,-0.56119317,-0.81081015,-1.4135247
-20.286884,15.275007,5.9710817,-0.47443286,-0.283808,-1.1819544
-12.891867,17.286203,-2.0299,-0.21359339999999996,-0.16830209999999998,-0.78592175
-7.4989367,15.718392999999999,-3.052636,0.00038397242,-0.44989353,-0.46917942
-5.491025,8.656888,-1.247494,0.03764675,-0.5366538000000001,-0.29457667
20.281368,13.341315,-3.0599623,0.028064894,-0.5755223,-0.23495622
11.10224,21.418547,0.3003478,0.10311405,-0.4009196,-0.22750367
-2.266198,15.087838,2.7362467999999995,0.08874999,-0.27689648,-0.30576423
-7.391417999999999,2.4123116000000002,-1.7739884999999997,0.177116,-0.38814378,-0.33609805
-12.469778,8.776923,-0.050517655999999994,0.2665467,-0.80068725,-0.37974873
-6.789726299999999,8.82542,-3.072364,-0.034191,-1.046098,-0.5389053
-2.7769196,8.942842,-0.8842841,-0.31740558,-0.87362456,-0.7715401999999999
-2.3792619999999998,9.657242,-0.54354125,-0.37116173,-0.32213542,-0.98288214
-3.5745432,10.622987,0.50690997,-0.37274995,-0.33862877,-1.0983881000000002
-3.570358,10.369833,-1.4764563,-0.56279886,-0.5350656,-1.1372391000000002
-3.3485112,9.940917,-1.604278,-0.76454145,-0.42966515,-1.4566343000000002
-1.9314313000000003,9.90057,-0.36574784,-0.89975214,-0.23535764,-1.7313143
-0.81993747,10.22938,-0.91715163,-1.0887364,-0.49408525,-1.9202985000000001
-0.6985993,10.258121000000001,-1.1477899999999999,-1.2015893,-0.52496016,-2.0917072
-2.0079978,9.34454,-2.1467562,-1.3990733999999998,-0.22045253,-2.436654
-1.401805,9.544533,-2.237573,-1.4757283,-0.54091245,-2.6740713
0.43412623,9.015587,-3.9529994,-1.4565645,-1.8924953999999998,-2.6549075
1.7493953000000002,8.651391,-2.4506857,-1.3293475000000001,-3.7029254000000003,-2.0336752000000002
0.68194526,9.201414999999999,-0.8916773000000001,-1.7168803,-3.0779753,-1.4811212999999999
-1.0263176,9.700884,-1.4783908000000001,-2.357259,-1.2308062,-3.5556019999999995
0.4930044,10.881847,-3.2034993,-1.7818241000000001,-0.76981235,-3.8654156000000004
1.9018486000000001,11.013557,-3.7719883999999997,-0.67245793,-0.18957767,-2.3392298
1.7570662000000001,11.992796,-3.7600076000000002,-0.38980183,-1.3622993,-1.0909355
0.49570509999999995,12.435464999999999,-1.6721773999999998,-0.1603434,-1.1647978,-0.8535009
2.8027005000000003,13.42609,-1.6750218999999997,0.39058724,-0.77354735,1.3582851
3.8696427000000004,13.998389000000001,-4.380642,1.0629056000000001,-0.13475688,2.126963
1.4140633,13.907975,-6.3637023,1.5617032,1.169964,2.2770786
0.14319241,15.041936999999999,-6.6651506,1.9614707999999998,2.3192458,2.9297097
2.4825191,16.117813,-8.90734,2.3112173,2.6615398,3.5147266000000004
9.380836500000001,19.47392,-8.087738,2.5039017000000006,2.6876152,4.12903
5.918457,25.227798,-4.1283793,2.630089,2.264425,4.921130000000001
-5.1969404,18.290197,0.7286991999999999,2.7163084,1.7672331000000001,5.4726195
-6.9276037,7.832085,-1.6558298999999999,2.9068808999999995,1.7842675,5.74517
-1.6247915000000002,1.08284,-3.8150741999999997,3.0330505000000003,1.3088923000000001,5.976198999999999
-8.976360000000001,1.240953,2.0351863000000003,2.8563185,1.9796221999999999,6.194994
-6.2141695,-0.33096486,0.56482095,2.7035325,2.4155881,6.138026
1.9055068,-1.1637735,2.0970619999999998,2.0482485,2.0083851999999998,5.222444
2.198356,-0.24478320000000003,1.6922218,1.7309827000000002,1.9200192999999999,3.3545053
-0.28786924,0.43203850000000005,1.4133930000000001,1.3578138000000002,0.53969073,1.7207898999999998
-1.1492552,0.9748232,0.6003126,0.2920983,-0.19277161,-0.22324507
-2.771231,1.8096333999999998,-0.307042,-0.14917329,-1.0705850000000001,-1.7802881999999998
-2.291864,2.7502673,-1.4283712,-1.6886583999999998,-0.07620107400000001,-3.4113333
-1.1901864,4.693526,-0.9319957,-0.6639406999999999,1.3791592,-0.49792498
-0.87577987,6.8883386,2.1217031000000004,-0.86781263,-1.8738552,-0.7678052
-1.0793636999999998,10.18684,-2.5918384,-1.5380191,0.70629984,-4.5845785
-3.31233,16.726132999999997,-3.1964989,-0.93701494,1.5042643999999998,-4.4759839999999995
-3.8869767,19.720636,-4.0796529999999995,-0.94020885,0.739304,-2.7320860000000002
-1.2613229,21.844372,-3.5383042999999996,-0.8087331999999999,0.049951322,-2.5926167999999996
-1.8809997999999999,20.431992,-0.9749285,-0.553217,-1.2840562,-1.5279833999999999
-9.867884,14.718565,-5.8680353,-0.41585959999999994,-1.0215935999999999,-1.1792841
-22.597776,13.383798,7.3331046,-0.22530456,-0.24654521,-0.9360200999999999
-10.305659,18.129593,-3.4106072999999997,-0.078906335,-0.25932103,-0.57138586
-4.776576,15.122333,2.5752509999999997,0.07705629,-0.6356664000000001,-0.26155505
-3.889553,8.201625,-2.6167476,0.055222217000000004,-0.73309064,-0.17053612
31.051914,17.787529,-2.4245026000000003,0.1031315,-0.39877284,-0.2253569
7.4128504,22.524908,-2.1041298,0.17818066,-0.23643975,-0.34941490000000003
-6.713878,9.993513,1.8225716,0.20001473,-0.38760272,-0.3296927
-5.711378,2.3486542999999998,-7.0777965,0.11697197,-0.8060105,-0.3941128
-15.687327,9.242528,5.5655518,-0.110845864,-0.9832835999999999,-0.41486475
-6.9727387,9.388451,-2.4304403999999997,-0.24127431,-1.0593973,-0.5958729
-2.1566202999999997,9.275482,-1.350301,-0.32164672,-0.6750584,-0.7811220999999999
-1.9480948,10.55819,0.6530233,-0.33709288,-0.39346704,-0.9674360000000001
-3.3625317000000003,10.595406,-1.4277678999999999,-0.52925366,-0.39824924,-1.1196636
-3.7321966,10.142585,-1.7747834999999998,-0.6799105,-0.46212828,-1.3054538999999998
-1.9935942999999998,10.422669,-0.2745,-0.83589053,-0.33971090000000004,-1.5801513
0.030013712,10.254519,-0.78776896,-0.95565504,-0.36259216,-1.8771714
-0.23779212,9.864466,-1.7991849999999998,-1.1488805,-0.45095816,-2.0517743000000004
-1.4327382,8.865834,-2.390802,-1.2713152,-0.32265902,-2.3179369999999997
-1.5928049,8.939969,-3.5939841,-1.4485883999999998,-0.49832642,-2.608063
-0.89996123,9.5741825,-3.1535082,-1.5310901000000001,-1.4575768999999998,-2.6740713
0.886343,8.759732000000001,-1.8801858,-1.4512413,-2.640945,-2.5218089
1.095443,8.8562765,-0.9769971,-1.3809743,-3.3654309999999996,-1.7882818
0.73075825,9.778763,-1.7133003,-2.1602987999999996,-2.0292943,-2.1907197999999997
-0.050134584,9.936071,-3.8957589,-2.445625,-0.7831292,-4.284347
0.85771793,10.061709,-4.0716660000000005,-1.3490348,-0.16563174,-3.8893616
2.0113592000000002,10.6995535,-4.1783223,-0.49944340000000004,-0.12304571,-1.7632538
1.665397,11.976410000000001,-2.5554943,-0.49944340000000004,-1.8089116000000003,-0.9716946
1.4510683000000002,12.893685000000001,-0.3404459,-0.045378562000000004,-1.1711857,-0.21898647
3.4320019999999998,13.942098000000001,-3.1305337000000004,0.46671850000000004,-1.0072296,1.7617877
2.2268279,14.577489000000002,-4.9643006,1.2204739,-0.21619393,2.1892364
1.0630639,14.355901999999999,-5.6614633,1.6394227,1.1204491,2.5059786
2.2519669999999996,14.554275500000001,-6.2658653,2.034949,1.9413122999999999,2.9909357999999995
4.148395,16.567196,-8.750376,2.4421694,2.3416035,3.5535949999999996
11.316836,21.416764999999998,-7.820889500000001,2.6721340000000002,2.3613082999999997,4.2935276
3.0753424,24.722095,-2.7164037,2.7764697,1.9844218,4.9365764
-9.115991000000001,15.093564,0.5691208999999999,2.7376187,1.7895908,5.365107
-6.336255,5.684553,-3.004273,2.976083,1.8241831999999998,5.8447237
-3.3258525999999997,0.34588552,-2.7571529999999997,3.0463674,1.6628973000000002,6.213093
-10.684355,1.051246,1.0743166000000002,3.0868067999999997,1.822595,6.468068
-3.6886892,-0.6195428000000001,0.7209324,2.8259673,2.46245,6.0746884
2.6186244,-1.1494658000000002,2.0616663,1.72353,1.7203884999999999,4.8391695
2.0125563000000004,0.16263333,1.5623986,2.0610244,2.0152967,3.1570039
-0.09715671,0.8933437,2.004713,1.2188855,0.37306413,1.2331798
-2.0684848000000002,1.0784825,0.9506800999999999,-0.015550883500000001,0.39383355,-0.95624846
-2.1442182,1.8355386999999999,-0.5934364000000001,-0.29077184,-0.4871563,-2.4664642999999997
-1.1698165,3.5712104,-1.3381767,-1.7807418999999998,-0.39238492,-2.9982488
-1.0894575,5.0387699999999995,-0.71816474,-0.57077503,0.24745278,-0.16360717
-1.3889818,6.5927887,0.77626723,-1.2180828000000001,-0.79590505,-1.6142026000000003
-1.1015052,10.478674,-1.9916215,-1.3964031000000001,1.0565875,-4.1965046
-0.79926115,16.72259,-2.430421,-0.7970046,1.4856417,-4.324804
-2.4555414,21.429733,-6.099094999999999,-0.90453434,1.1646408000000001,-2.6330736
-1.7105613999999998,22.906208,-4.142888,-1.2037013,0.22987731,-2.7102695
-4.1982040000000005,19.292917000000003,2.861368,-0.6208136,-1.2175068000000002,-1.6583942999999999
-9.478031,14.182186999999999,-7.994737,-0.5500056,-0.9491973,-1.3421756
-20.46509,14.182561999999999,9.278260000000001,-0.34667474,-0.19170697,-1.0893298
-11.155198,18.624868,-3.1949472,-0.1731192,-0.029356438999999998,-0.7757814000000001
-5.8409615,15.079142000000001,0.39708313,-0.058677968,-0.5414535,-0.38187805
0.6295505,7.2467217,-0.5473719,0.0009250244999999999,-0.8858593000000001,-0.26316074
28.869543,18.859863,-2.528229,0.03499385,-0.57923985,-0.34726816
5.4260845,20.747911,-0.0893133,0.0344528,-0.09430013599999999,-0.45799184
-5.1954082999999995,11.437859,-0.15146679,0.10845476,-0.014974925,-0.42818162
-6.3178005,2.0855603,-6.2010403,0.17339846,-0.53400093,-0.38933059999999997
-13.635304000000001,10.428453,4.3879395,0.015289084,-0.8262389000000001,-0.38507199999999997
-6.545326,8.951374000000001,-1.4268676000000002,-0.09115855,-1.1504338,-0.42818162
-2.3481085,9.430646000000001,-0.6780666999999999,-0.4675039000000001,-1.0950545,-0.71403164
-1.6414741999999998,10.2124,1.4261492,-0.49038514,-0.13953908,-1.0861359
-3.0021374,10.831128999999999,-1.6403443,-0.53724724,0.2841745,-1.3560336000000002
-4.963831400000001,10.189771,-1.257588,-0.7134381999999999,-0.12411036,-1.4598283
-2.3169167,10.010828,-0.4633738,-0.85823077,-0.26357964,-1.6413598999999999
0.16261418,10.137825999999999,-0.27868509999999996,-1.0083466,-0.2944545,-1.8798243000000001
0.014595054,10.120319,-0.6670149999999999,-1.1978544,-0.47757444,-2.0821080000000003
-2.1281962000000005,9.343219,-1.8392448000000001,-1.3852328999999999,-0.36843899999999996,-2.4233372
-2.0474639999999997,8.74077,-2.4810631,-1.5443895,-0.59041,-2.7107930000000002
-2.8343613,9.982739,-2.5328355,-1.6072038,-1.6657248,-2.7746720000000002
-0.13218866,9.272648,-2.884975,-1.4741399,-3.2328908,-2.3206072
2.9497332999999997,8.190047,-2.9009007999999996,-1.6838761999999998,-3.2366083,-1.3107772
3.4695622999999998,9.045256,-0.5207579999999999,-2.5840473,-1.4054263999999999,-2.9290637999999998
0.33825279999999996,10.072962,-1.8029296000000001,-2.3194728,-0.35194564,-4.527628400000001
-0.39037937,10.458668,-2.8219306,-0.86887723,0.59131753,-3.3224437000000004
0.68162924,11.521847,-3.6071904000000004,-0.4680275,-0.20128882,-1.1622496999999998
1.1753997999999999,12.8326435,-3.239652,-0.79915136,-1.3574996000000001,-1.0531317
2.1181883999999997,12.893715,-0.75190383,-0.17366026,-0.83423245,0.9345540000000001
4.0403686,14.168426,-2.96723,0.6466270000000001,-0.038938295,2.1934948
2.411124,15.600157999999999,-5.1255455,1.1997218,1.2109443000000002,2.3164709
1.0471281,15.675882000000001,-5.7873697,1.4818718000000002,2.2330265,2.8786240000000003
2.6246579,16.975399,-7.950119,1.7975321,2.2149273999999997,3.6126919
8.435386,17.662592,-9.5729475,2.1818535,1.7704271,4.4537487
10.450231,23.549866,-6.3798965999999995,2.4666563999999997,1.2444896,5.070199
-0.4429369000000001,22.950461999999998,0.22396322,2.6396534,0.9368055000000001,5.5034943
-10.027175,10.794737,-0.8195351999999999,2.9883354,1.5596261999999999,5.7505107
-3.914194,2.4076667,-6.317206400000001,3.2720735,1.8960558999999997,5.659998000000001
-6.740904,1.1364031,0.9101318000000002,3.0170807999999996,2.9154503,5.8782516
-8.631844000000001,0.11677958,0.84934783,3.1538972999999997,3.566493,5.899562
0.72716695,-1.4495934,1.7980072,2.6801276,3.2337985000000002,5.211797
2.2222693,-0.5084135000000001,0.22120509,1.7879502,2.0467126,3.9555094
-1.3600023,0.20871693,0.58048856,1.7224654,1.0698868000000001,2.4436880000000003
-4.1940284,0.45250413,0.5460311999999999,0.48427650000000005,-0.80388117,0.58908355
-4.442058,0.76332897,-0.16579369,0.6125581999999999,-0.8182626999999999,-1.0802889999999998
-2.0726988,2.159455,-1.7974134999999998,-0.7688001,-0.33330554,-2.6069807999999997
-0.73366004,4.5625824999999995,-0.60524464,-1.2420461,0.16652186,-2.5175676
0.9834231999999999,5.1977353,2.7839012000000003,-1.0275277,0.5359556999999999,0.8994030999999999
1.3762637,9.227903999999999,-2.1747494,-0.6692465,1.2146794,-2.9130766
-2.9012458,15.467405,-4.9300156,-0.6564707,2.6892207000000004,-3.9686692000000003
-3.1034314999999997,17.688189,-1.4100986999999998,-0.4169417,1.2567244,-4.290211
-3.8347928999999996,20.013285,-5.9888754,-1.3495758999999998,0.49604002,-2.8619735
-5.236828,22.635597,-2.4281611,-0.63358945,-0.615438,-1.8452319
-8.236025999999999,17.128674,-6.4521723,-0.55532885,-1.5768178,-1.3469753
-18.978472,14.163819,-1.7688936999999998,-0.37274995,-0.8459436,-1.1627907
-11.454033,13.909776,2.44674,-0.15343189,0.12234758,-1.1005174
-7.7408466,19.161495000000002,-5.054284,-0.25031513,0.09998991,-0.58842033
-5.2502065,12.963549,4.92245,-0.04590216,-0.81772166,-0.27380726
8.149662,9.642772,0.21629217,-0.043231804000000006,-1.0428866,-0.21364576
30.478915999999998,18.178886,7.817557300000001,-0.08848819,-0.4099604,-0.35578537
1.0882413,13.168109,-4.015909,-0.08049458,-0.16135569,-0.47928485
-5.1824317,13.211808,-9.454108,-0.037384953,-0.25825638,-0.46225044
-13.993179000000001,7.4938607,-1.7382671000000003,-0.13905038,-0.48661524,-0.49577823
-10.753633500000001,7.239586999999999,1.6192273000000001,-0.25405014,-0.6803816999999999,-0.6363295999999999
-4.911283,9.748136,1.5089983,-0.35093334,-0.8289091999999999,-0.7103141
0.08616253,9.463111,-0.44663355,-0.44568726,-0.85498446,-0.91846204
0.36186925,10.595185,-1.0058136999999998,-0.55641097,-0.51216686,-1.2021828
-5.004235700000001,10.306579,-4.058756,-0.6884276999999999,0.012147492,-1.5263777
-3.9922163,9.576778,-2.4089593999999996,-0.8316145,0.050474923,-1.7403724999999999
-0.27052563,10.268252,-1.3305726999999998,-0.9556376,-0.18266615,-1.8707836
2.2611606,10.746509,-0.3928119,-1.0514736,-0.5653994000000001,-1.945309
-0.47806459999999995,10.597484,-0.26833254,-1.2718563,-0.46638688,-2.107136
-1.1070883999999999,9.818611,-1.005354,-1.4517648,-0.32904693,-2.445695
-0.90723,9.331477,-2.002491,-1.6125271,-0.7559719,-2.6820473999999996
-0.008504204,9.351445,-3.1109009999999997,-1.6306436000000002,-1.9648917000000001,-2.5516365000000003
-0.15077725,10.064917999999999,-1.9067613999999997,-1.6998459,-2.8884849999999997,-1.8819711
2.034765,9.917568,-1.0552683,-2.0261526,-2.024512,-2.1023537999999995
3.3657877,9.729997000000001,-0.8258368,-2.5691247,-0.8246505999999999,-3.7642736000000006
2.7533033,10.280892999999999,-1.8303672,-1.7983348000000001,-0.13156292,-3.9788096
0.63223207,10.236256,-3.2833793,-0.5351354,0.16652186,-2.2434287
-0.44079170000000006,11.499436,-3.2272115,-0.8821940999999999,-1.1605393,-1.1910126
0.521256,12.0022,-1.3460777,-0.23808037,-0.5371949,-0.41594687
2.9450595,12.67136,-0.83109444,0.4134685,-0.22631684,1.5717388
4.538046400000001,13.517825,-3.6787959999999997,1.0469358,0.37519342,1.9119035
1.8268142,14.289064999999999,-5.380614,1.4845072,1.569208,2.3515867999999998
1.6375285,14.269384,-6.9931470000000004,1.9497596000000001,2.3176577000000003,3.0888662
4.14919,15.088747,-9.089414,2.3101351,2.447004,3.6541957999999997
9.725802,20.582635999999997,-6.9484330000000005,2.5640633,2.1936169999999997,4.498464
4.765141000000001,26.619846000000003,-6.5946274,2.6630757000000003,1.7815971000000002,5.051558999999999
-5.628059400000001,19.007797,0.80206716,2.821185,1.9082906000000002,5.3075985999999995
-6.4436398,6.915671000000001,-2.4659607000000006,2.8536308,1.8933855,5.716948
-2.9930873,0.72166985,-4.4355173,2.721108,1.8832799999999998,6.200317
-10.199606,2.300464,2.0486703,2.7993509999999997,2.5034304,6.3509564
-3.7607448,-0.6789573,0.30476272,2.9031458,2.831343,5.951171400000001
2.0777457,-1.2235904,1.3725002,2.271808,2.4097412,4.7412043
0.21026838,0.09719501400000001,1.1411818,1.743741,2.3996183999999996,3.0313752
-1.5369817,0.20453186,1.4339161,1.1571183999999999,-0.14594443,1.3178108999999998
-2.9842,0.6579458,0.28495790000000004,0.37301177,-0.047996555,-0.44629815
-2.2918735,1.4307846000000002,-1.2039771000000001,-0.23064525,-0.66762334,-1.9224453000000001
-0.23127031,3.5822237,-0.43635765,-1.5257843,0.03450516,-3.4587190000000003
-0.5583949,5.4163065,1.3994396,-0.80236274,1.3834176999999999,-0.9152855999999999
-1.2718669,7.7915177,-1.6522481,-1.1547621000000001,-1.4804754999999998,-0.43512803
-1.6839665000000001,12.806422,-1.7574111000000001,-1.2473694,0.4012861,-4.18694
-2.265432,16.125265,-1.8104665,-0.78372264,1.4089694,-4.803373000000001
-2.0942369999999997,18.478018,-1.5488952,-0.61177284,1.7166535,-2.8199284
0.17465222,22.018774,-5.424332,-0.91413367,0.6227159999999999,-2.5601537
-3.7825512999999997,20.647854000000002,-2.2555582999999997,-0.6048613,-1.1983606000000002,-1.7201616000000002
-11.194138,15.020062,-5.289127,-0.45315728,-1.4570707,-1.2559738
-22.794064000000002,12.908797999999999,4.701398,-0.24926792,-0.6186494,-1.0654013
-8.852628,18.541529999999998,-2.2219724999999997,-0.09489355,-0.16776104,-0.78805107
-4.2994018,15.328579000000001,0.36127546,0.02432989,-0.48610909999999996,-0.43299875
-7.3126869999999995,7.475119,-3.2783325,0.04668756,-0.75386006,-0.2892534
26.276305999999998,15.907526,1.8905671000000002,0.016877335,-0.5361477,-0.27010715
8.954879,22.420261,2.7494628,0.13077752,0.068032935,-0.40212387
