accx,accy,accz,gyrx,gyry,gyrz
-2.1109962,4.5143824,0.06313031,1.0306518,1.128495,6.394415
-6.7923789999999995,2.841381,-3.0269508,1.1504338,0.86817914,6.8255987000000005
5.0044847,3.5026019999999995,-0.15343003,1.3862453000000001,0.5573011,7.2344246
4.843307,1.5003216000000001,2.394604,1.7083108,0.62863266,7.245071
-2.6890714,1.5264568,0.33554256,1.8339396000000001,1.6342041,6.4955745
-4.1453495,2.8291802,-1.4848264,1.7892243000000003,3.0379376000000002,4.670222
-3.2039014999999997,4.080984,-0.7005243,1.2164421,2.225609,2.0756676
-2.2642732000000003,4.852826599999999,0.5089307,0.5691344,1.6342041,0.80608034
-1.0822846000000002,5.646025,0.95174307,0.32000609999999996,0.7478736,-0.23993040000000002
-0.57165873,7.088666,0.44501504,-0.17238617,-0.49188614,-1.7086076000000001
-0.61671764,8.877623,-0.1385285,-0.55831337,-0.9315869000000001,-2.520395
-1.0251206,10.2447605,-0.7338803,-1.427592,-3.1955583,0.30250046
-0.6543161999999999,12.695283,-1.2749698,-0.60569906,-0.57121134,-4.2169422999999995
0.3948709,17.796885999999997,-1.7766125,-0.052080624000000006,1.8694918999999999,-3.2374635
-0.015677232,21.96344,-0.88602704,0.18373081,1.2924513000000002,-2.6162312
-1.2550788999999998,23.071562,-2.4732678,0.5281541000000001,0.7074343000000001,-1.9343134999999998
-6.840167,17.743773,-6.1156816,0.52441907,0.7952593000000001,-1.8305186999999998
-20.267225,12.7775955,-5.6736927,0.31681216,0.40399137,-1.334915
-15.800965,11.962792,-4.014023,0.16350244,-0.60208625,-0.7360576999999999
-13.546671,12.513113,-6.239912,-0.058451075,-1.4543304,-0.36980036
-11.106213,14.695467,-5.6748133,-0.15746361,-1.7508271,-0.42676792
16.645726999999997,21.795605,-4.9345455000000005,-0.010559242,-1.2653637,-0.38311723
12.3525095,13.783439000000001,9.8608265,0.18427186,-0.7186568,-0.5316273
-3.4330459,6.1807275,1.3376021,0.21619393,-0.16557938,-0.76213294
-7.811342,7.000750999999999,-2.0439587,0.16723745,-0.044732787,-0.81908303
-4.7233577,10.345067,-1.4471128999999998,-0.027593656,-0.65957737,-0.7802319999999999
-2.214081,12.685744999999999,-3.5820705999999998,-0.106901415,-1.1988143,-0.7669326
-3.9388449999999997,9.626922,-3.1677299999999997,-0.096778505,-1.1801916000000001,-0.8973436
-4.4825587,8.721282,-4.375604599999999,-0.054733526,-0.7564605999999999,-1.1603298
-0.88283795,9.422792999999999,-4.088837,-0.05899213,-0.4391772,-1.4775783000000002
0.5211603,9.626682,-2.7799077000000003,-0.13138838,-0.43226570000000003,-1.6846616
0.7824920999999999,9.597809,-0.73194575,-0.18887953,-0.5956983,-1.8305186999999998
3.1829286,9.608294500000001,-1.1040716999999998,-0.2783102,-0.7782772,-2.0556836
2.5745041,9.291160000000001,-2.444413,-0.42575562,-0.5834461,-2.3484452
0.47834235,9.276555,-3.5276742,-0.4970872,-0.5131792000000001,-2.5161363999999997
-0.9184158000000001,9.131304,-4.689552,-0.59344685,-0.59674555,-2.7615297
-0.08900684,9.206203,-3.5270805,-0.6951123,-0.7681543000000001,-2.9734127999999997
1.9747089,9.780113,-2.0663588,-0.8638681999999999,-0.74792594,-3.3737214
2.9598367000000003,9.860663,-1.7967813999999998,-0.9953438,-0.90177673,-3.7506077000000007
2.1665707000000003,9.464959,-2.7126305,-1.1651643999999999,-1.5512137,-4.005583000000001
0.6755958000000001,9.604158,-3.198979,-1.2838641000000002,-2.5972245,-3.7639072000000002
0.09552865,10.211586,-3.067777,-1.2487306999999999,-2.2006507,-3.4450529999999997
0.69759375,10.920183,-3.18425,-0.90751886,0.61213934,-3.6420135
0.7438880999999999,11.739479,-2.4508292999999997,-0.27883379999999997,1.2243136000000001,-2.21217
0.2294124,13.000697,-2.005575,-0.05206317,-0.23795820000000004,-1.1565773000000001
-0.072458126,14.027579999999999,-2.0486226000000003,-0.07548549,-1.2004025,0.71026176
1.5032427,14.648233,-3.2560662999999996,-0.14203489,-0.9587443000000001,1.809505
3.9456062000000007,16.072573000000002,-4.2886185999999995,0.16776104,0.16924457,2.1752212
6.3432746,18.882992,-5.7160892,0.44404668,0.9986075999999999,2.9928732000000005
6.7425604,21.271563,-6.017682,0.46373397,0.68399453,4.0223904
6.6367270000000005,21.941633,-7.0554924,0.5414535,-0.1751438,4.9395957
4.4420004,13.639479999999999,-4.293885700000001,0.85020226,-0.5823815,5.587445
-0.18062817,9.627659,1.1555663,1.229759,-0.24062854,5.9382386
-5.5128407,8.439618,-2.348827,1.6124922,0.3869744,6.1884312999999995
-4.0850919999999995,1.4335426000000002,0.3394978,1.8887778999999998,0.38430405,6.5536065
-5.712441,2.3976683999999997,-3.5907663999999997,2.2347894,0.23260003,6.917734599999999
3.0467749,3.8759348,-1.6216216,2.729311,0.8873603000000001,6.9113293
0.8395219999999999,2.1473212000000004,0.7407756,2.7186644,1.8231883999999998,5.9888005
-3.6772544000000003,1.9582464,-0.24680389999999996,2.144294,2.5551271,4.936401999999999
-4.421314700000001,2.9045400000000003,-1.5336777,1.2531813,2.4470737000000002,3.2249844
-3.241998,4.0761666,-0.52704996,0.81719804,1.7135293000000003,1.3320178
-0.5633461,4.6261434999999995,0.38648164,0.49036769999999996,1.735887,-0.47678906
1.0008337,5.5024120000000005,0.5584236,-0.15481070000000002,1.0241592,-2.0838883000000004
0.28711268,7.5414386,-0.22281398,-0.5758714,-0.05057964,-2.514007
-0.6351051,9.392214,-1.6776842,-0.8202174999999999,-2.9847574,0.8646360999999999
-0.2716461,11.7186985,-1.5952661,-1.0927681,-1.0385756,-3.6010156
1.6440791000000001,16.738256,-0.9429803,-0.039287362,2.9096558,-3.665942
-0.89560384,20.506404999999997,-1.0669999,0.07887143,1.5517024,-2.7860167000000002
-4.3962902999999995,23.575571,-3.5603025,0.2981895,0.016999507,-1.5829613
-9.790427000000001,20.577177,-4.0424657,0.60267967,0.17776178,-1.4163346
-12.454522,13.876698000000001,-2.8469548,0.43765876,0.32841859999999995,-1.2933762
-15.250585999999998,12.023833999999999,-1.2039291,0.31576496,-0.22465879,-0.9122138000000001
-13.335474,13.639479999999999,-3.6405559999999997,0.09749409,-1.00983,-0.55398494
-14.153448000000001,13.941876999999998,-3.168927,-0.019600047,-1.0769031,-0.5768661999999999
4.1654800000000005,16.071682,-9.825479,0.029356438999999998,-0.7985055999999999,-0.567808
26.475801,22.297325,8.866342,0.21994638,-0.63507295,-0.6045297
-2.1692712000000003,7.9077225,-0.47841895,0.27263787,-0.42214277,-0.8025547
-11.2435255,7.577188499999999,-1.1827165000000002,0.20715313,-0.23263493,-0.8781624
-7.662346,8.576346000000001,0.7314765000000001,0.06981317,-0.49879766,-0.8419643
-0.079583265,11.690638,-1.6600533,-0.055798177000000004,-1.0114357,-0.7914021
-0.7376727,10.309652,-3.9597892999999997,-0.098907806,-1.0737091,-0.8424879000000001
-3.2616591,8.522476,-4.5230107,-0.058451075,-0.76708966,-0.9787806
-0.4617553,9.196224,-4.4135290000000005,-0.045675267,-0.51104987,-1.2236503
1.3332064,9.509377,-3.1203246,-0.07494444,-0.40884337,-1.4567914
0.35459086,9.632773,-1.3193488000000002,-0.13458234,-0.4642052,-1.7218895
1.7941477,9.566952,-0.87942857,-0.27724555,-0.53766614,-1.9875286
2.3791661,9.298533,-2.3976495,-0.3916868,-0.6276204000000001,-2.2584734
0.8696411000000001,9.282052,-3.5332574999999995,-0.44971898,-0.5962219,-2.4400053
-0.61864257,9.153894000000001,-4.0354652,-0.5481905,-0.6010041,-2.706674
-0.43423158,9.136963,-3.8403857000000006,-0.66156703,-0.7638957,-3.0484445
0.79167634,9.506283,-2.7412555,-0.7893425999999999,-0.8804837,-3.4205487
1.9058324,9.906181,-1.7656375,-0.9532814000000001,-0.88845986,-3.781448
2.028837,9.835515,-2.2982707,-1.0613521000000001,-1.4766881,-3.9608502
1.6078405,9.569979,-3.0549917,-1.2854524999999999,-2.2049092999999997,-3.9038827000000005
1.3821248,9.671502,-3.4457733999999998,-1.2173148,-2.076069,-3.5568066
1.1062743999999998,11.124275,-3.391942,-0.9634043,0.61906826,-3.6600949999999997
0.6419142,11.481767999999999,-3.2744155,-0.06538004,1.912078,-3.4381065000000004
0.2735902,13.029398,-2.7189322,-0.060039327,0.07983136,-1.2076457
0.60403794,14.126978,-2.1829565,-0.057386424000000005,-1.7582796000000003,-0.179734
1.8719497,14.216444000000001,-2.5163157000000003,-0.37517598,-2.5498562000000002,1.7807944
3.5655985,15.237848000000001,-3.4987714,-0.13030629,-2.2070212000000002,2.395098
4.637597599999999,17.946312,-3.8690300000000004,0.29286626,-1.0721034,3.06691
5.834162,20.074366,-4.766195,0.60535,-0.43970078,3.7525277000000004
7.041069500000001,21.557716,-5.0921607,0.8720363000000001,-0.42373103,4.499389
6.3447495,15.466571,-4.2359943,1.1195763,-0.69415236,5.182354
2.037887,10.150447999999999,1.1375715,1.4091613,-0.58664006,5.599697
-6.9583070000000005,9.127684,-0.3394978,1.7258862000000001,-0.13042845,5.8962107
-5.295246,4.7559857,-2.5707502,2.0442169,0.28157398,6.229987599999999
-8.146396000000001,2.8407874,-6.033292299999999,2.3880992,0.74576175,6.518491
-1.0168175,4.3594102999999995,-2.8948004000000003,2.7564683,1.4862351,6.696305000000001
1.5399027,2.7483137,1.0389973,2.977392,2.0771163,6.3380410000000005
0.02353979,1.3150296000000001,1.0358943999999999,2.6707726000000003,2.681838,5.6199427
-1.6008399,2.1028657,1.0028736999999999,2.2092378,3.5138540000000003,4.0415893
-2.687319,3.2073490000000002,0.52637964,1.5156264,3.3706671999999998,1.6232434999999998
-1.3334938,3.7663379,-0.025981877,0.7618537,2.522664,0.061924282000000004
0.33833903,4.492164,0.09418789999999999,0.47120398,1.4851705,-0.9084788
0.27278575,5.897444999999999,-0.16916472,0.08580039,0.40720278,-2.159461
0.22734381,7.8501277,-0.45445779999999997,-0.31981415,0.021275562999999997,-2.4671276
1.0204567,10.23978,-0.12119449,-1.2066683,-1.3531712,0.620866
1.5761222,13.772119,-0.3377644,-0.39912188,0.79634136,-4.8242645
1.2295375,19.080513,-2.262578,0.28169614,2.1889048,-3.0920777000000004
-3.0461139999999998,22.790329999999997,-4.2613535,0.8917411,1.3675178,-2.8195271
-2.9246035,22.647683999999998,-4.0784845,0.7464075,0.45884705,-1.9571773000000001
-7.760536699999999,16.712235999999997,-6.828005,0.3839026,0.30021408,-1.5957196000000002
-18.13605,12.861728999999999,-5.443868599999999,0.12306316,-0.11126474,-1.0575298999999998
-16.296642000000002,12.153045,-3.2363765,-0.05045747,-0.9273109,-0.45867252
-12.788313,12.310908,-3.7092025,-0.22612485,-1.6885363000000002,-0.27288222
-7.865766499999999,12.377697,-4.0579324,-0.19259708,-1.7156936,-0.40755183
21.550928,22.753994,-3.086011,0.10548769999999999,-0.98108447,-0.60559434
8.021523,14.7291,11.491565,0.38177332,0.035116023999999996,-0.8807804
-6.506138,5.6528730000000005,0.8661934000000001,0.38336158,0.38910370000000005,-1.1331201000000002
-8.6317005,7.3215075,-3.8919377,0.14329153,-0.109135434,-1.0761526000000001
-6.1875944,13.015627,-3.8796601,-0.056845374000000004,-0.8197810999999999,-0.90900236
-3.5160959000000003,11.192089,-3.6959293,-0.065903634,-1.149823,-0.9723578000000002
-3.4374318,8.742188,-2.7396178,-0.044610616,-0.95179784,-1.1666653
-3.378506,8.789488,-3.8961802000000003,-0.0041538836,-0.5552241,-1.4120586000000002
-0.23813687,9.615774,-3.3523707000000003,-0.022235493999999998,-0.43011895,-1.6590401999999997
1.9180142,10.016861,-1.0035631999999999,-0.1537286,-0.42320743,-1.7921388999999999
3.0707266,9.987719,0.28061002,-0.23144811,-0.72289795,-1.8528241
4.2926407,9.266728,-0.38629007,-0.34588936,-0.71279246,-2.0465732
2.3406192999999997,9.042823,-2.8347156000000004,-0.4225442,-0.5451012,-2.2392924
-1.1288468999999999,9.24835,-4.613540599999999,-0.5460437,-0.5142264,-2.45594
-1.4764563,9.235566,-4.358558,-0.69190085,-0.56426495,-2.7481953999999997
0.7496916,9.201185,-3.2165717999999996,-0.88140875,-0.56745887,-3.1383812
1.9756091,9.881819,-0.6048328000000001,-1.0496236,-0.53019613,-3.5147266000000004
2.108315,10.090995,-1.3130378,-1.2370021,-1.1349177,-3.8607553999999995
1.3076458999999998,9.725506,-2.8958251,-1.429704,-1.7918074000000002,-3.9091885000000004
-0.6663159000000001,10.020347000000001,-3.44449,-1.3855296,-2.460408,-3.5647826
-0.8012723,10.628446,-2.848468,-1.2146443999999998,-0.14639822,-3.5727587
0.45794377,11.6123,-2.6791596,-0.18299778,1.7433570999999999,-3.5519893
0.41709867,13.423494,-2.5868678,-0.0052010813,0.3151192,-1.4594268999999997
0.054894257,14.18984,-1.5516246999999999,0.28169614,-1.5751597,-0.5896070999999999
1.8038682000000001,14.327323999999999,-2.232392,0.004886922,-2.8037492999999998,1.6147437
3.4813704,15.018463,-3.5052550000000005,0.15341444,-2.3278677000000005,2.2636397
5.1645327000000005,17.477729999999998,-4.759271,0.6660351,-0.83042765,2.7539027000000003
6.275375,19.488745,-5.272147,1.0466565,0.33374184,3.4257147000000003
6.904964,21.621998,-6.4929986,1.2010309,0.66645396,4.1933107000000005
6.3122168,17.793842,-6.551551,1.3687046999999999,0.6590014,4.848612
2.3800950000000003,10.657817999999999,0.8153981,1.5512836,0.8176344,5.378808
-4.218689,8.774078999999999,0.6129826999999999,1.6790591000000001,1.0119244,5.9010105
-4.6047106,4.566882,-1.9655247,1.7817892,1.1450058,6.3731919999999995
-8.969503,2.5089607000000003,-5.402085,1.9287109,1.2424301000000002,6.824080499999999
-1.1379161,4.2513266,-2.8686557,2.115566,1.2839513999999999,7.230236
2.6959572,3.2646666,1.0426748,2.0900142,1.2929921999999998,6.83258
0.9667116,1.8703504000000002,2.2419113999999998,1.9622562,1.6879952,6.035715
-0.7130411,2.3574078,1.2616103,1.6386023999999997,2.1042562,4.3264093
-0.92444915,3.8698727999999996,0.7386687,1.3474116000000003,2.4241924,2.1550627
-0.7028419,4.5891485,0.76715964,0.852349,2.4811425,0.37707838
-0.67653435,5.2421045,0.603291,0.25668558,1.7577211,-1.2502316999999998
-0.5673395999999999,6.564719,-0.08496543,-0.20163789999999998,0.5722411000000001,-2.3702269
-0.18391299,8.185908999999999,-0.61632496,-0.24954717,-1.0428343,-1.9710003
-0.19567332,10.651832,-0.8984481,-1.2540365,-2.1958509999999998,0.39943606
-0.3942963,14.217594,-1.5108945,-0.5008047999999999,0.86395544,-4.675196
0.10004891,18.274483,-1.4428416000000002,0.17896606,2.5099056,-3.3103137
-4.0195966,23.297039,-3.0697975,0.47600365,1.0960319,-2.6954865000000003
-4.9433755999999995,23.707634,-4.765055,0.7049036,0.31831315,-1.8937868999999998
-9.99199,16.315286999999998,-2.6550357000000004,0.5462706,0.34651768,-1.6537168999999998
-16.051361,11.801260000000001,-3.1292408,0.23006929999999998,0.16659167,-1.1724948
-14.518362,13.845792999999999,-3.9950797999999996,0.03630285,-0.7559021,-0.59226
-15.724236,12.333739,-3.4526591,-0.16596335,-1.5549313,-0.27073547
-10.334025,12.027913999999999,-6.022969,-0.19099139,-1.6459502000000001,-0.35377824
23.412209,21.859598000000002,-5.6127367,0.08792969,-1.1109544,-0.48153633
11.342885,15.521082999999999,12.196849,0.34238124,-0.46525243,-0.71947706
-6.130966,6.221132,-0.5921244000000001,0.32482323,0.11070623,-0.9244311
-10.405813,7.307917599999999,-2.375613,0.20080014,-0.035133477,-0.9339955
-6.2727319999999995,12.1235,-2.2491515,0.04321435,-0.78464764,-0.7913496999999999
-1.9076711,11.943925,-2.709135,-0.04087561,-1.2222191,-0.7679274
-3.2406955,8.652932,-3.6225803,-0.0036128315,-1.0508103000000002,-0.87971574
-4.267396499999999,8.751802,-4.19016,0.042690754000000004,-0.5568124,-1.1160682
-0.44127053,9.530321,-3.5650141000000004,0.034697145,-0.4854808,-1.4136468
1.4562588,9.837132,-1.4794346999999999,-0.10369001,-0.44875905,-1.6622341
2.2829766,9.816476,0.27973852,-0.17554522,-0.61803854,-1.855477
3.6944544,9.404376,-0.864642,-0.30330333,-0.66008353,-2.1333507999999997
2.2735338,9.285423,-2.6076113999999997,-0.42573816,-0.60152775,-2.3824617999999997
-0.57615983,9.222503,-3.9656407999999996,-0.5295504,-0.5796937,-2.5948682
-1.5255948000000001,8.963192,-4.2351127,-0.6243043,-0.6675361,-2.8077984000000002
-0.20190783,9.415284,-2.9877434,-0.76483816,-0.8810073,-3.1197412
1.8706377,10.036752,-1.5584817,-1.0006496,-0.9486039,-3.5136619
2.3391445,10.029321000000001,-1.4815893999999998,-1.1704701000000002,-1.0822263,-3.9858434000000003
2.2073581,9.454444,-3.169425,-1.3834003000000001,-1.29568,-4.213661
1.0496756,9.703699,-3.2137082,-1.1970865,-1.7800962,-3.8586087
0.64775604,10.637889,-3.1115427,-0.9527403,-0.64996064,-3.3316065999999998
1.0595204,11.180731,-2.730654,-0.44544294,1.0992433000000001,-3.0052824
0.64283353,12.11355,-3.1297580000000003,0.010210176,0.71064574,-1.4801788
0.1941506,13.644430999999999,-2.4303637000000005,0.36102134,-0.5078384,-0.9505063
0.47069049999999996,14.212489000000001,-2.1395833,0.25455627,-1.5852652,0.9658303
2.0729573,15.080578,-2.7329142,0.020856684,-1.9248887,2.1502630000000003
5.212665599999999,17.693476,-4.237354,0.27691394,-1.3393308000000002,2.7422264
7.937602,20.076645000000003,-4.8502407,0.7581361,-0.42744857,3.3043447
8.43438,22.24447,-5.83761,0.98864174,-0.055361845,4.1305312999999995
5.89599,17.013369,-6.2446720000000004,1.1078826000000002,-0.19589576,4.814037
-0.056694694000000004,8.472802,-1.2552226,1.3830862,-0.21399482,5.3255930000000005
-3.8452697,8.955148,1.4109606000000001,1.6716064999999998,0.16022122,5.804145
-5.255321,8.841787,-2.962231,1.9175408999999999,0.57543504,6.18529
-4.4683948,0.46754929999999995,-1.6894061999999999,2.173057,0.8735373,6.554741
-5.987774,2.1687157000000004,-4.459632,2.511075,1.386158,6.884765
0.9115396000000001,4.494357,-1.8748418999999998,2.5621958,1.9802331000000002,6.647889
1.4323072000000001,2.927189,0.971931,2.2188369999999997,2.8282363,5.908498000000001
-0.026115952,1.9695851999999998,0.459658,1.5566243,3.6991205000000003,4.2992697
-1.6037128999999999,3.1857822000000002,-0.6164303000000001,1.1328931999999998,3.5335586,1.9448028999999998
-1.163831,4.294738300000001,0.15974113,0.7059681999999999,2.6051831,0.30311134
-0.56067413,4.7180333,0.5790329000000001,0.5004906,1.3701881999999999,-0.74822265
0.27248890000000003,6.0239453,0.10703997,-0.17289232,0.19694296,-2.1583614
0.5655392,7.71928,-0.83751094,-0.41722095,-0.80327034,-1.5344585
0.5617468000000001,9.915442,-0.91066813,-1.6884141,-3.3153226000000005,-1.1565075
1.2291257,13.250422,-0.48139733,-0.29211575,0.373675,-4.173728
2.025983,17.78276,-0.79265314,0.09060004,1.6986417,-3.0771377
0.5371630999999999,23.373692000000002,-2.044246,0.39189622,0.8985478000000001,-2.4064076
-1.1994472,25.12886,-4.654376,0.67135835,0.48068112,-1.7655052
-8.483815,17.638628,-5.315549400000001,0.4834562,0.5099503,-1.4604566
-20.296298999999998,10.793597,-5.5269856,0.24975662,0.05375614,-0.9600882
-17.307531,11.676464,-2.6619498999999998,0.10018189999999999,-0.9092118,-0.47832492
-13.159911,15.168953,-7.1138916,-0.08984955,-1.3787228,-0.40966368
-14.763604999999998,14.053685999999999,-10.9171,-0.13028882,-1.2467061000000002,-0.44799110000000003
28.756739000000003,25.642236999999998,2.1453006,0.10444049999999999,-0.871949,-0.5363571
5.328094999999999,11.065961999999999,7.136981,0.3061831,-0.46205845,-0.7945437
-5.4486669999999995,5.220365,-0.05218402,0.2928837,0.034051374,-0.9611528
-9.347423,7.3605137,-1.1536413,0.13690363,-0.29223794,-1.0037389
-4.6581683,12.866919000000001,-1.8851753,-0.039793506,-0.9235759,-0.947836
-2.6552653,11.100908,-3.540402,-0.071733035,-1.2323246,-0.9611528
-3.4139112999999996,8.692972,-3.4664114,0.00010471976000000001,-0.9943839,-1.1197858
-2.4499865,8.856266999999999,-3.9617717000000003,0.018744836,-0.51209706,-1.4413103
0.66427606,9.779739,-3.7965527000000003,-0.037664205,-0.39605013,-1.6717985
0.89038444,9.620707000000001,-1.9389682000000001,-0.14306463,-0.64517844,-1.7915804
2.1406941,9.580589999999999,-0.27230692,-0.24527112,-0.7825184000000001,-1.9635129
3.4152138,9.191724,-1.258852,-0.3538655,-0.8857895,-2.2089236
2.1676623999999998,9.317917,-2.7935545,-0.42945573,-0.73460907,-2.4463407999999998
-0.09139147,9.140708,-4.568491000000001,-0.5327268000000001,-0.7537728,-2.740167
-0.95402235,8.974598,-4.2370470000000005,-0.65196776,-0.8075289000000001,-3.1144004
0.32061234,9.452767,-2.7128315,-0.8542514000000001,-0.8112639,-3.5344138
2.1975898999999997,10.021525,-1.2637842,-0.95061105,-0.93954563,-3.9134295
2.643687,10.036714,-2.1085541,-1.1390542,-1.6326333,-4.174269000000001
0.43651086,9.635647,-2.9053063,-1.127343,-2.3624601000000003,-3.9592097
-0.12912409,9.842813,-3.9641182,-1.1310606,-1.2429712,-3.4220846
0.08412267,11.4115505,-3.1246343,-0.5561491999999999,1.1141484,-3.596146
0.67534685,12.230703,-2.8545876,0.016615533999999998,0.9225111999999999,-1.7899748
1.0517823999999998,14.320563,-2.7593174,0.41318923,-1.2025143999999999,-0.8690518
1.1460181,15.024104000000001,-2.1715793999999997,-0.18832102,-3.1923467999999997,1.8165038
2.9629682999999996,14.851845999999998,-2.2440853,-0.12709488,-3.017744,2.4584882
5.0119066,16.390331,-3.7335947,0.54042375,-1.3334663999999998,2.9551566000000005
7.6297174,19.593275,-5.7151318,1.0008765,0.057473693,3.685507
8.610488,22.153385,-6.3793793,1.219671,0.32789502,4.442474
7.5353575,21.478987,-7.175633400000001,1.4192843000000002,0.059079394,5.1046867
3.5062794999999998,12.61842,-4.5949235,1.6577661,0.11444124,5.6029434
-0.9308943999999999,9.119457,2.477175,1.8829484,0.5530774,6.005904699999999
-7.156403,5.4077353,-3.6859502999999996,2.063939,1.0747563,6.3721623
-7.9190807,0.5939823000000001,-4.9828987,2.264617,1.5655603,6.7394490000000005
-2.3584417999999996,4.410292,-4.3648214,2.4951227000000005,2.1383424,6.9971122999999995
4.083378,3.1597047000000003,0.7999411,2.3343604,2.6046596,6.354586599999999
1.2067448,1.2897181999999998,2.4263318,1.9622562,3.3696023999999998,5.363938
-0.70986164,1.8516947,1.1028651000000003,1.5874991000000003,3.9163094,3.4219972999999997
-1.54562,3.5178006,0.5752404999999999,1.1813436000000002,3.62086,1.0680717
-0.9229839,4.558158000000001,0.36521152,0.5872684,2.9192553,-0.27710593
-0.0034859576000000002,5.297956500000001,0.5412811,0.13053317,0.9890431999999999,-1.7335483
0.6204046999999999,7.0142255,0.45360547,-0.26656413,-0.43010148,-2.434071
1.093815,9.188533999999999,0.100068055,-0.48429397,-1.9546815,-0.11367329
0.9764033000000001,11.753921499999999,0.22521776,-1.3956351,-2.2410900000000002,-2.3909613999999997
0.9394655999999999,15.983192,-0.41557595,0.17631316,1.8253351000000002,-3.7978888
-0.027705701,20.09122,-1.6364943,0.38763762,1.5549138999999998,-2.7300615
-3.7410742999999993,24.730772,-3.5791593,0.58620375,0.26827455,-1.8693
-6.1870866,22.333899,-4.9334345,0.9859713999999999,0.35983452,-1.7612292
-13.405202,13.716592000000002,-6.3103495,0.51272535,0.8341451999999999,-1.619107
-20.70948,11.686663000000001,-6.339492,0.20080014,0.2778564,-1.1650247999999999
-16.987762,12.185883500000001,-5.560361,-0.081855945,-1.1269242,-0.5443333
-13.669867499999999,13.631205,-5.4690943,-0.31714377,-1.8056478999999999,-0.3271445
-6.7851195,15.449563000000001,-10.424689,-0.2197195,-1.7060943,-0.30478686
38.356644,23.667393,9.655576,0.123604216,-1.1242713,-0.5155877000000001
-2.3743873,8.284101,3.8810870000000004,0.4094717,-0.13999286,-0.9174846999999999
-8.781222999999999,6.357716,-0.017372327,0.35943309999999995,0.49398053,-1.2102636
-6.763936,8.81456,-0.4780263,0.13905038,0.02448697,-1.0596068
-0.84929997,12.3662815,-3.8714912000000004,-0.017976891000000002,-1.0933964,-0.78812087
-1.2968625,11.382227,-5.6742487,-0.05630432,-1.6305040000000002,-0.82859504
-4.1822870000000005,8.548488,-4.754061,0.018744836,-1.2419065,-1.0686651000000003
-4.030897,8.9418545,-4.385507,0.030979594,-0.42584288,-1.4545923
-0.69987303,9.829443,-3.0884150000000004,-0.025429446,-0.12508775,-1.7292721999999998
0.7493755,9.732075,-0.5266956,-0.13400638,-0.41573742,-1.8187029
3.7241904999999997,9.857647,0.61712945,-0.23675391,-0.6824412,-1.9555192
5.263241000000001,9.176582000000002,-0.28725633,-0.346954,-0.6558248999999999,-2.1439624
2.15029,9.215023,-3.433017,-0.40231586,-0.5876698,-2.2802377000000003
-2.396414,9.318261999999999,-4.3281517,-0.5204920999999999,-0.5195496000000001,-2.459099
-2.2568702999999997,8.997094,-4.174568,-0.64451516,-0.64676666,-2.7614598
0.11414596,9.499875999999999,-2.1411632999999997,-0.8803440999999999,-0.6712536,-3.1356759999999997
3.3547843,10.248016,-1.4160840000000001,-1.048559,-0.79848814,-3.5407843999999997
3.5064422999999993,9.882681,-1.5937914,-1.2444546,-1.372335,-3.8548562999999993
0.622866,9.487072,-2.7966576,-1.3658248,-1.7566738999999998,-3.898507
-0.9475005,10.22983,-3.207895,-1.2204913,-1.337725,-3.7957593999999997
-0.11028650400000001,11.118893,-2.9491873,-0.9037664000000001,1.0673038000000001,-3.8298457000000004
0.09303868,11.700263,-3.1862707,-0.020629792,1.7018356,-3.056368
-0.07476613,13.522843,-2.1193953,0.14011504,-0.09475392,-1.4482218
0.0016376339000000002,14.399764000000001,-1.7858349999999998,0.04907866,-2.0718104999999998,0.2972645
1.6080703,14.258745000000001,-2.4509727999999997,-0.27028167,-2.777133,1.8223855
3.6849157999999997,15.364023000000001,-3.7811053,-0.09889036,-1.8519514,2.3025255000000002
6.295677700000001,18.270039,-4.651905,0.36210346,-0.29595548,2.9807255
7.3291783,20.465359,-4.7558136,0.58780944,0.32311282,3.8409636
8.492617,21.4565,-5.206421400000001,0.68734556,0.20919517,4.569167
6.1141014,15.187760999999998,-4.5643444,0.9529671999999999,0.015969763,5.198917
0.19586486,10.135431,0.9950973,1.2441579,0.16980308,5.7259192
-5.89802,8.725265499999999,-1.2916813999999999,1.530549,0.48761007,6.1065407
-4.9047136,2.382068,-0.8030344,1.8121405,0.71544534,6.452552
-7.6396679999999995,2.9998292999999996,-5.594474,2.1443114,0.9933018,6.8161216
1.3359933000000002,4.369112,-2.8551047,2.5872238,1.4223735,6.8714832999999995
2.1326400000000003,2.6832008,1.3041025,2.6425680000000003,1.7342987,6.368968
-0.82172835,1.9863830000000002,1.4244639,2.2704812999999997,2.222991,5.4507155
-2.0330987,2.8456907000000005,-0.32975817,1.6929169999999998,2.875622,3.4678120000000003
-1.634579,4.233983,-0.29557854,1.1328931999999998,2.7920382000000004,1.4502814
-1.1244895000000001,4.7883267,-0.014307749,0.6117554000000001,2.2815292,-0.01891937
-0.017008409,5.464075599999999,-0.10370724,0.32588790000000006,1.0156769,-1.2805306
0.018128894,7.228612400000001,-0.56443787,-0.35332444,0.34494686,-2.7321732000000005
-0.0026527754999999997,9.109995,-0.9234244,-0.74939203,-1.4809294,0.72045445
0.30685046,11.266461999999999,-0.7905175,-1.0581408,-1.4197031,-4.213103
0.9182720999999999,14.962956,-1.0546075000000001,0.022462387,1.9115718999999998,-3.646726
-0.83236814,19.178724,-2.6446927000000002,0.32429963,1.5842005,-2.977043
-4.263767,22.866943,-3.9226696000000003,0.80285144,0.8596968,-2.5059438
-5.7700834,22.094498,-3.3555312000000006,0.5218010999999999,0.45141196,-2.0460145
-11.5144825,15.171635,-4.896468,0.17257816,0.23155282,-1.5062366000000003
-19.477327,11.654179,-4.0588517,0.026197392000000003,-0.5791526,-0.83870053
-16.93232,12.240471000000001,-3.1685631,-0.17980382,-1.4867761,-0.42722170000000004
-11.875959,14.950573,-2.9186945,-0.27933994,-1.7726262,-0.43891540000000007
-3.3402654999999997,19.724545000000003,-11.449273,-0.14041173,-1.4569659,-0.48417178
33.044235,22.39613,13.002469,0.15023795,-0.7984707,-0.6571688
-3.491378,6.3300776,3.4238807999999996,0.29503044,-0.11550589,-0.94514817
-6.7355695,4.6069325999999995,-2.0893528000000003,0.22474605,0.14264576,-1.0420488
-7.728703,10.482513,-3.3639588,0.041626103,-0.5205968,-0.89884454
-3.3372202000000004,14.749210999999999,-4.0328894,-0.10580186,-1.2802339,-0.81208426
-4.689839,8.952907000000002,-3.762287,-0.090355694,-1.4644184999999998,-0.83390087
-4.461451,8.264497,-3.4432547,-0.028605945,-0.9257052,-0.9387777
-1.1573668,9.308838,-3.4551203,0.009704031,-0.38805652,-1.11071
0.65085894,9.959582000000001,-2.0711186,-0.057892572,-0.3172485,-1.2672136999999999
1.3806307,9.855903999999999,-0.43558192,-0.14252359,-0.5014331,-1.360903
3.0793936,9.693261,0.14767437,-0.26602307,-0.66432464,-1.6132252
3.2763212000000004,9.278383999999999,-1.4799421999999998,-0.39858085,-0.5850169,-1.971489
0.13101071,9.428338,-3.075103,-0.52473325,-0.47694612,-2.217947
-1.8308748,9.224169999999999,-4.3774242,-0.63493335,-0.56265926,-2.3962672
-1.4683735,9.094203,-3.2636225,-0.7813141,-0.65315455,-2.7012985
0.3153738,9.6969385,-1.8653321,-1.0155548,-0.52965504,-3.1521869
1.6413785,10.312822,-0.7159717,-1.1928104,-0.5386959,-3.6493788
1.5630785,10.007648,-1.8483907,-1.3652838,-0.92090553,-4.135383
-0.0874554,9.462805,-3.038625,-1.4121284,-1.3185613,-4.2732470000000005
-0.14580688,9.890371,-3.3244637999999997,-1.3088573000000001,-1.4356729,-4.1577406
1.1689353999999998,10.806028,-2.9006617,-1.0693108999999998,-0.5637239,-3.7079345999999997
1.4616601,11.337963,-2.734705,-0.42785,0.10114183,-2.592704
0.504736,12.612644,-3.1014009,0.0070336769999999995,0.09101892,-0.88498664
-0.16248010000000002,14.315458999999999,-2.1160243,0.36049774,-0.24007004,-0.7492524
1.9806273,14.4622135,-1.7577846000000001,0.15608479,-0.71649253,1.3241290000000001
3.7568855,15.263304000000002,-2.8061194,0.20718804,-1.5762068,2.6863585
6.1346917,18.131777,-5.455676599999999,0.75122464,-1.1844153,3.1888735
7.998319,20.561949,-6.1610374000000006,1.1084237,0.29862583,3.4896288
7.668015,21.760514999999998,-7.5205708,1.2947376,1.362753,4.0613637
5.0218186,16.17425,-6.3166704000000005,1.4858336,1.255747,4.751780999999999
-1.1876388999999998,8.999594,-1.3362519,1.6327555,0.48387507,5.5752797
-4.1448803,8.173728,0.31306583,1.8025761000000002,-0.07291985,6.158185
-0.11477803,7.163317,-1.3518813,1.985696,-0.03672173,6.525489299999999
-6.311154,-0.43619484,-0.04667736,2.2433414000000003,0.22783528,6.836367599999999
-7.929347,1.6210852,-1.2583445,2.5265386000000003,0.5057092000000001,7.034916
-1.2601354,3.0857238999999996,-0.22337902,2.4961874,0.7016049,6.637801
2.6923562999999997,3.016311,0.59185624,2.1097189999999997,1.4910347,5.8020678
2.5549006000000003,2.8079197,-0.30868920000000005,1.5380015,2.7483873,4.09168
0.024056937999999996,3.7846007000000004,0.43203850000000005,1.1515334,2.5705907000000003,1.900105
-2.2187354999999997,5.1646667,0.217518,0.6671172,1.8317231,0.12906710000000002
-2.869307,6.235488,-0.22240219,0.39563122,1.9025310000000002,-1.1777831
-1.0778983,7.163049000000001,-0.46743435,-0.20055579,1.0683684,-2.4356593999999996
0.6870976,8.273585,-0.8496254999999999,-0.29850367,-0.03885103,-2.3158773999999998
0.65615493,10.970595,-0.9924828000000001,-1.7187478999999999,-2.9980392000000005,-0.7407352
0.50785804,14.75557,-1.548311,-0.5694486,0.45725882,-4.3483133
0.30597898,18.880905,-1.5494603,-0.06054547,2.0590348,-3.18465
-0.41305724,23.788673,-1.8191526999999998,0.08901179,0.85065603,-2.4106487999999997
-1.8452016,22.214792000000003,-1.9251585,0.56438714,0.60630995,-1.9118511999999999
-9.54935,15.197989999999999,-3.0031047,0.49890235,0.70266956,-1.628654
-15.056109,11.534489,-1.7854999,0.2854486,0.5174202999999999,-1.1671191
-13.208897,12.634385,-1.7298107,0.10232865,-0.5179439,-0.6204470999999999
-12.677844,13.531414999999999,-5.737877,-0.13932963,-1.3936104999999999,-0.2717652
-11.860109,13.525631,-8.941366,-0.27454029999999996,-1.4489723,-0.28667033
22.524296,23.461835999999998,-3.4465396,-0.08822639,-1.1508701000000001,-0.32606240000000003
7.204038000000001,13.221414000000001,10.359346,0.16566665,-0.6542191999999999,-0.54803336
-5.928254,6.261412,0.9171229,0.24179791,-0.06492624400000001,-0.7923795
-8.871877,7.318998,-0.90902096,0.16727236,0.005323254,-0.90097386
-4.736095,11.704218,-1.5008676,-0.013177236,-0.59512234,-0.82911867
-2.2195877999999998,12.307232,-2.9137627999999998,-0.14945254,-1.2685227,-0.74553484
-3.3986459000000004,8.953586999999999,-3.7721699999999996,-0.14199999,-1.3568888000000001,-0.81313145
-4.0768757,8.639572,-4.1876693,-0.07918559,-0.92622876,-1.0633243000000001
-0.62790334,9.604168,-4.4459176,-0.06373943,-0.39709732,-1.4258293
0.81594396,9.643797,-2.5979388,-0.17926277,-0.35292304,-1.7154318
1.4435121000000002,9.524737,-0.66020596,-0.26869345,-0.5812819,-1.872459
3.5484462,9.378165,-0.7283162,-0.39591047,-0.6611307,-2.079525
3.0340857999999997,9.326038,-1.9082171,-0.5066342,-0.5967281,-2.2775673999999997
0.6067961,9.444973,-3.5851447999999997,-0.5997998999999999,-0.59512234,-2.3829502999999996
-1.1581712,9.085411,-4.5404024000000005,-0.6588792,-0.5919284,-2.5117905
-1.1060733,9.163548,-3.2187933999999996,-0.7371398,-0.9150587,-2.7268326000000003
1.4028299,9.8770685,-1.9772754000000001,-0.9841388000000001,-0.8985478000000001,-3.0472924999999997
3.4014137000000004,10.036292,-1.5341566,-1.0969918,-0.8346688,-3.4997692000000002
3.2734674999999998,9.334427999999999,-2.6524593999999997,-1.3014047,-1.0034246,-3.7148285000000003
0.8338716999999999,9.275473,-3.0841912999999996,-1.3833829,-1.3217553,-3.8095999
0.27367643,10.364633,-3.1426196,-1.2753121,-1.5756658000000001,-3.6451027000000003
0.41487685,11.170799,-2.8218252999999995,-1.1805582000000001,0.049497537,-3.5269265
-0.09484869,11.406906,-2.8586482999999996,-0.44062582,1.167922,-3.3762696000000005
-0.82849914,12.224162,-2.523929,-0.25591764,0.25871015,-1.3800492
-0.99217635,13.76053,-2.2980316000000003,0.10604621,-0.8612851,-0.9808051999999999
0.6350571999999999,14.2674885,-2.4045637,-0.12709488,-1.648062,1.1404854
2.4729517000000003,15.366532000000001,-3.2205844,-0.14039429,-1.3701881999999999,1.7989631999999998
5.182891000000001,17.303135,-4.519467400000001,0.23647466,-0.1288053,2.2674096
5.1074066,19.256172,-4.644799,0.55267596,0.6558248999999999,3.0957253
6.100014,20.396233,-4.8028355000000005,0.5936563,0.67018896,3.9847087999999995
5.2080400000000004,16.51168,-4.8822846,0.6926688,0.43596579999999996,4.6298699999999995
-0.075561,10.92796,-0.8896183000000001,0.9359503,0.43703043,5.161671599999999
-4.9389505,8.985027,0.39139453,1.1696323999999998,0.5967281,5.6684456
-3.9066572,7.156316800000001,-3.0785892,1.4134548999999998,0.70745176,6.110293
-6.191779,2.1109774,-3.4980054,1.6524602,0.65050167,6.4280824999999995
-2.6752138,3.387786,-2.916061,1.9984718999999997,0.6355966,6.7719646
2.1566682,3.1794903,-0.05540183,2.5952172000000004,0.8549146000000001,6.837973
-0.068407126,1.8181566999999998,1.5343864,2.864033,1.0721034,6.3120356
-2.7008033,2.1423794999999997,0.07689218,2.4195325,1.4095978,5.5066185
-2.5953338,3.1606047000000004,-0.9653325,1.7179276,1.4532483999999999,3.5444843999999995
-1.7185197,3.9950224999999997,-0.54523635,0.97747165,0.9645736999999999,1.8410256
-1.2955887,4.5821285000000005,-0.36586276,0.48719120000000005,0.42373103,0.7055842
-0.86415356,5.7000003,-0.71486074,0.11988667,-0.45458844,-0.88976884
-0.48701890000000003,7.7541776,-1.4380628999999998,-0.6013881,-0.92676985,-2.2099533
-0.26722166,9.464863000000001,-1.9516096,-1.0586643,-1.8423696,-1.1027163999999998
-0.34651762,11.624854,-1.8602374,-1.313116,-2.6962194,-0.49160690000000007
0.22979549,16.253996,-1.6743131000000002,-0.49918163,2.2634478,-4.3344555
-1.8290647,19.741974,-4.283265,-0.12603022,3.2418617999999997,-3.273016
-4.640786599999999,21.230804,-4.1078854,0.18217747,1.6044288,-2.4532173
-3.7934306,19.711126,-3.7367839999999997,0.43182936,0.55042446,-1.8804352
-13.27333,16.429548,-4.0152583,0.08955284,0.073984504,-1.5317707
-15.286679999999999,12.750618,-1.0397252000000001,-0.15371114,-0.60576886,-0.93769556
-12.224928,11.901902,0.0047022122999999996,-0.28785715,-1.4340671999999999,-0.39472365
-10.955895,12.713747,-0.45227429999999996,-0.29850367,-1.4979463,-0.40697587
-5.74573,14.562129,-3.7051995000000004,-0.16968091,-0.8075289000000001,-0.51874673
31.958628000000004,21.459719,2.0486896,0.040578905,-0.080372415,-0.67312115
9.925996000000001,13.775623999999999,4.910182,0.17313667,0.03248058,-0.8471828000000001
-5.851132,6.113498,-2.5740733,0.08262388400000001,-0.22568853,-0.8812690999999999
-10.218453,7.2666607,-1.6110775,-0.12603022,-0.6472901999999999,-0.77586865
-5.201460400000001,11.640847,-3.1896033,-0.25750586,-1.2184841999999998,-0.74179983
-2.9550674,11.750981,-4.716836,-0.24685937,-1.2908803999999998,-0.8711462
-4.809883999999999,8.7193,-4.3054447,-0.22130775,-0.7686604,-1.0564129
-1.8577377,8.679757,-3.2379375,-0.23568927,-0.36250487,-1.2666727
1.7318506,9.601371,-2.1937113,-0.26230553,-0.5967281,-1.4609628000000001
2.3228353999999998,9.852781,-1.1453286,-0.36184165,-0.6403613,-1.6547116999999998
2.5424795,9.644208,-0.91767836,-0.4134685,-0.6659129,-1.776623
2.0150845,9.104612,-2.0692225,-0.46565384,-0.6116332,-1.9443142
0.5376228,9.281017,-3.8117702000000007,-0.5385736999999999,-0.5626418000000001,-2.0986886
-0.93811524,9.181974,-4.4047565,-0.6157696,-0.6691243,-2.1955720000000003
-0.23881683,9.108491,-3.5854607000000005,-0.7531095999999999,-0.596187,-2.3499463
1.7492805,9.424871000000001,-2.0740874,-0.8611629000000001,-0.6957406,-2.665083
2.73029,9.849746000000001,-2.0678625,-0.99850285,-0.71862185,-3.0472924999999997
1.5251831,9.778265,-2.1272577999999998,-1.1411661,-0.6983935,-3.513086
1.2704017,9.419058,-3.3181529999999997,-1.2055862,-0.77611303,-4.098103
0.33497754,9.400765,-2.7946846,-1.1432954,-1.4266146,-4.012931
0.04298071,10.061699,-2.9537937999999997,-0.99372065,-1.5415969999999999,-3.9059421999999997
0.013790601999999999,10.931034,-2.2098386000000003,-0.8153829,-1.1934562,-3.3384833
-0.68960667,11.20812,-2.1646075000000002,-0.1638166,-0.78569484,-2.761966
-0.78315294,12.312536,-2.5358427000000003,-0.25804693,-2.2272322,-1.0547898
-0.15713625,13.930394,-2.3132107000000004,0.22689279999999998,-2.3097339,-0.7545582
1.5413582000000001,14.480035999999998,-2.683929,0.32377604,-2.0126963,1.3294697
2.6829329,15.541204,-3.1218953,0.5835508,-0.9033475000000001,1.7893988
5.203318599999999,17.706787,-4.8873034,1.1462275,0.66805965,2.1748022999999996
6.141012,19.460014,-6.0558457,1.4576292,1.3345486,3.0451632
5.805364599999999,20.474235999999998,-8.535425,1.5018034,1.527774,3.7962656000000004
1.6267163999999998,16.844913000000002,-6.6147100000000005,1.5939045,1.5932412,4.384494
-2.7943876,9.868343,-1.0801296999999999,1.7355031000000003,1.6565967000000001,4.904043700000001
-6.417495,7.2608666,-1.6677433999999998,1.8068346999999998,1.4649595,5.348544
-1.4086238000000002,6.3319545,-2.6125624,1.8361038,1.2168959,5.789292
-6.659912599999999,2.0192506000000003,0.03611414,1.8254573,0.87247264,6.187471400000001
-1.3526378000000001,2.2141290000000002,-0.8818132,1.8382505,0.25605726,6.5962973
4.2940583,1.4300088,2.2941816000000004,1.9851723999999997,0.06494370000000001,6.8145679999999995
0.13983096,0.24920768,2.4136236,2.0815146,0.55574775,6.249221299999999
-2.2911553,2.0082755,0.606298,1.9383278000000002,1.1865621000000002,5.2734776
-1.1394676000000001,3.4608855000000003,0.36697367,1.4294246000000002,1.2302128,3.656273
-0.5632311,4.4779425,1.1391611000000001,0.87474155,0.31087804,1.7622589
-0.46459964,5.6769110000000005,0.8944929,0.5462880999999999,0.7979645000000001,0.62947047
-0.6650901,7.367342,0.316207,-0.06161012,0.5344547,-1.1160159
-0.9144414000000001,9.161451,0.16374424,-0.41720352,0.085172065,-1.9256741000000002
-0.6985323,10.17371,-0.49650955,-0.79141957,-0.8091172,-1.7084854
-0.7926819,12.004307,-1.7971548,-1.390818,-2.5104291,-0.6566103
0.07093541,15.744385999999999,-1.7748599999999999,-0.5848773,1.7183465,-4.0853269999999995
-0.16646405,19.175142,-0.27252719999999997,-0.19840904,2.4471087000000002,-3.1228652
-1.4290607,21.467754,-1.7225229,0.19814722,0.8815309000000001,-2.3360882000000003
-4.899207,18.834936,-4.319637999999999,0.3983016,0.19376646,-1.7414895000000001
-9.238430000000001,14.327036999999999,-1.9917938999999998,0.15714945,0.33749429999999997,-1.5189774999999999
-12.019169999999999,13.111951000000001,-0.5240716,-0.01956514,0.021293016,-1.1309209999999998
-8.957321,13.278817000000002,-2.5668523,-0.08183849,-0.726598,-0.6028366999999999
-11.84175,13.130989000000001,-3.3227975,-0.25483552,-1.2626585,-0.35850808
-9.225731,14.647438000000001,-6.2191496,-0.2942276,-1.1513937,-0.4473977
26.505976,20.793879999999998,-0.61459154,-0.12761848,-0.6297148,-0.495307
7.728751700000001,11.908213,4.8025484,0.055484015,-0.16020377,-0.6246708000000001
-6.17162,6.7591285999999995,-0.11800542,0.18591247,-0.010629055,-0.7806334
-9.320253999999998,7.2053213000000005,-1.6923271,0.09274679400000001,-0.16819738,-0.8258898000000001
-4.198146299999999,11.791194,-3.4462235,-0.09941395,-0.7479085,-0.7524289000000001
-1.35915,10.950982000000002,-3.558339,-0.19895008,-1.3733821000000002,-0.6880088000000001
-3.2017946,8.908346,-3.4406402000000003,-0.16913986,-1.443649,-0.7071725
-3.1185818,8.856842,-3.833912,-0.091420345,-1.0806031,-0.883922
0.047558422999999996,9.476519,-3.9164448,-0.07225663,-0.5573185,-1.1346211000000002
1.4193115,9.593786,-2.2574737000000002,-0.1707281,-0.3390651,-1.370991
1.5508585,9.655298,-1.1544361,-0.24314182,-0.47588146,-1.5344236999999998
2.1565533,9.256568,-1.4224527,-0.35545376,-0.6387729999999999,-1.7750348000000002
1.8398578,9.121927000000001,-2.1958375,-0.5279272,-0.44607124,-2.0853717
0.23987985,9.32307,-4.1716475,-0.6067113000000001,-0.48279297,-2.2658389
-1.0615317,9.115366999999999,-4.284261,-0.6689847,-0.56157714,-2.331306
-1.099609,9.119475,-3.5535412,-0.7562861,-0.6637835999999999,-2.5410423
0.48308286,9.683558999999999,-1.9517244999999999,-0.91439545,-0.7505614,-2.8593903
2.388034,9.900684,-1.7341776999999998,-1.0682287,-0.82773983,-3.3043968999999995
2.2461154,9.438699,-2.3674345000000003,-1.2034395,-1.0183123,-3.8090415
1.0846978,9.339714,-3.63956,-1.1699116000000003,-1.1466115,-4.19551
0.43596497,9.853146,-3.5059924,-0.9154601000000001,-1.7901843000000002,-4.070928
1.0822462,10.509233,-3.3072065999999998,-0.7461806,-1.7619797,-3.4561010000000003
1.1103733,11.160303,-3.643257,-0.19415042,-0.7835656,-3.209102
-0.69272876,11.462489,-2.9396775,0.3546509,-1.2190077,-1.5865741000000002
-0.8322724,13.669589000000002,-2.0123648999999997,0.83747876,-1.9887503,-0.90785044
0.23849122,14.258467000000001,-2.4189672000000004,0.6852337,-2.4747548,1.3646206
2.1187727,15.0452585,-3.5505724,0.6799105,-1.669355,2.1183933999999995
4.802625,17.012613,-4.876098000000001,1.2143651000000002,0.2555162,2.2248585
6.894467999999999,18.594242,-5.778185400000001,1.5332193,1.4830586000000001,2.9019763
6.3762856,20.627848,-6.377837,1.5545124,1.6124225,3.8058650000000003
3.7785769,17.857326999999998,-7.1556273,1.4347478999999999,1.2185016000000002,4.559097
-0.7854323000000001,10.575218,-2.682502,1.4368773000000001,1.0284528,5.1659474
-3.6066062000000003,8.014351,1.2858108,1.4608232,1.0460280999999998,5.5976725
-6.053873,7.656255000000001,-2.6377783,1.4544351999999998,1.0108947,6.023515
-4.5613375,1.9973866999999998,-1.5369433000000001,1.4901098,0.63133794,6.4829206
-3.063793,1.727723,-2.6775507999999997,1.7051691999999998,0.081454515,6.8816414
5.376745,2.4693124,1.0232913000000001,1.9670733,-0.11815879,6.926357
2.8398678,1.2995152,3.32659,2.0905728,0.20388936,6.1507497
-1.8519053,2.4319534,1.8788831999999998,2.0346699,0.8815309000000001,4.9631405
-2.6169677000000005,3.933089,0.5285153,1.3527697,0.9879959999999999,2.9647734
-1.605408,4.7144322,0.41611224,0.64210665,0.96244437,1.3422629
-0.7908430999999999,5.759568,0.5228841,0.168337,0.921464,-0.23500858
-0.50522447,7.120336999999999,0.03595133,-0.38472292,1.1178833000000001,-2.0230808000000002
-0.91191316,8.821541999999999,-0.10353486,-0.30541515,0.7622899999999999,-2.7215095000000002
-1.037647,10.087576,-0.62220514,-0.6721786,-2.092545,0.33189179999999996
-0.7523827,12.066509,-1.0824856,-1.6873319,-0.9624269,-3.1798327
0.6872315999999999,16.24369,-2.0510647,-0.49118802,1.4580481,-3.230395
-1.0069534,20.519909,-0.93606585,-0.18456857,0.9848020000000001,-2.4686286
-2.6751182,22.130373000000002,-0.94275045,0.11671016,0.16343263,-1.8011099
-6.024156,17.77939,-2.5023048,0.41374776,0.47643998,-1.6999681
-13.462279999999998,13.850351000000002,-0.7064619000000001,0.27747244,0.84107417,-1.5466583999999999
-9.44278,13.733179999999999,-0.16019125,0.11671016,0.47005206,-1.1431556999999999
-8.531996000000001,12.871468,-0.6861686,-0.07438593,-0.79792964,-0.6092246
-9.167378999999999,12.986550999999999,-3.4518449999999996,-0.27293459999999997,-1.2903394,-0.36754888
0.95041186,15.723889999999999,-13.985853,-0.23834217,-1.0981611999999998,-0.37871900000000003
19.558626,20.55105,3.8787599999999998,0.0336674,-0.71010464,-0.48944268
-1.4569579,7.9663710000000005,3.964597,0.19762363,-0.27838,-0.68533844
-7.272943499999999,8.112695,-0.5672246999999999,0.16088445,0.019704766999999998,-0.8147022
-4.7780128,8.569958999999999,-0.6998539,-0.015830137,-0.3545113,-0.7023903
-0.9191531999999999,12.069965,-2.140876,-0.14039429,-1.1364886,-0.5767614999999999
-0.79346716,9.964006,-3.5308633,-0.15369369,-1.4244853000000002,-0.63051766
-3.4247042999999997,8.717911,-3.7523557999999997,-0.15156439,-1.1136073,-0.8695405
-3.5782206,9.083602,-4.503704,-0.18137461,-0.57009435,-1.2315216999999998
-0.13878708,9.740867999999999,-3.6682332000000004,-0.2681524,-0.3869744,-1.5988089
0.9698241,9.516339,-1.397802,-0.39749873,-0.55838317,-1.751595
2.1260226,9.440107000000001,-0.6542108,-0.47363,-0.77717763,-1.9187452
2.7436689999999997,9.201291000000001,-1.8287678,-0.55667275,-0.71010464,-2.1247463
1.0596736999999998,9.291782000000001,-3.7107542000000002,-0.6280044,-0.6302558000000001,-2.348864
-1.5981201,9.189741,-4.209476,-0.72221726,-0.63664377,-2.4260426
-1.2798828000000002,9.125357000000001,-3.9895252999999995,-0.8153829,-0.75214964,-2.605986
0.84194493,9.568456,-2.6069120999999997,-1.0022204,-0.9496511000000001,-2.9471979999999998
2.9674501,9.873141,-2.2512583999999998,-1.2002455,-0.86713195,-3.3794459999999997
3.6102934,9.511704,-2.6815252,-1.3716542999999999,-0.888966,-3.8361813999999996
2.0129203999999996,9.177539999999999,-3.4722915000000003,-1.4328803999999997,-1.1173248,-4.100215
0.23421997,9.719186,-4.1726722999999994,-1.2886115,-2.0217544999999997,-3.8526921
0.33189383,10.794488000000001,-3.1205547,-1.0815456,-1.337184,-3.4806053999999995
0.3563913,11.05108,-2.7979502999999997,-0.5002462999999999,0.5850344,-3.3900926
-0.047644615,11.505069,-2.6138935,0.16887806,0.40137336,-1.7116793000000001
-0.55530155,13.63314,-2.0624514,0.5824862,-0.70636964,-0.93659604
0.12734279,14.690458,-2.2688987000000003,0.35519195,-1.9903386000000003,1.4045362
2.3468444,15.620873000000001,-2.8376749,0.33122858,-1.9339119999999999,2.2881966
5.4221106,17.606817000000003,-4.083014,0.7762526,-0.7452380999999999,2.5761933
7.29882,19.188856,-4.7891984,1.1872078000000001,0.26138049999999996,3.262352
7.185161999999999,21.26979,-5.927392,1.3000608999999999,0.5600063,4.0933209999999995
5.1487110000000005,18.627032999999997,-7.5212316999999995,1.3761921,0.540319,4.7033830000000005
0.3399958,9.823361,-2.1570417999999996,1.5731525,0.603657,5.252743
-2.8897154,7.9093413,1.1149127,1.7333738,0.71438074,5.7435293
-5.7383942999999995,7.3459473,-2.4390402,1.8440973999999999,0.8203222,6.168866
-6.115011,0.81804127,-1.8230505000000001,1.9537565,0.93423986,6.5063605
-5.1244629999999995,1.8967345000000002,-2.8433826,2.1469994,1.0816853000000002,6.899723
2.5920872999999998,2.5468848,-0.28760108,2.2135312999999996,1.1838918,6.7895575
1.5796463,1.2951386999999999,2.26435,2.1257062,1.6486206,5.988398999999999
-1.6585208999999999,2.1775935,0.9859131,1.9255519,2.4497616,4.5756073
-1.5650322,3.4424884,-0.10090124,1.452847,2.6589742000000003,2.292455
-0.68073857,4.2866073,0.7487722,0.83587307,2.4316626,0.39365903
-0.38535157,5.089843,0.7452767,0.25776768,1.8477103,-0.9605594000000001
0.008868123,6.462429,0.12944013,-0.1531701,0.6409198,-2.090154
0.41500133,8.364221,-0.29016766,-0.44647267,-0.85702646,-1.8809413000000001
0.63817924,10.574739,-0.25032815,-1.4584321000000002,-2.7744627,0.23556710000000003
0.30102777,13.843677,-0.43262267,-0.55506706,0.16449729,-4.075728
1.3324115,18.0163,-1.3789643,0.0017278759,1.9488521,-2.9152584
-1.3004824,21.529552,-1.2595032,0.24233897,0.95179784,-2.2259057
-2.242285,23.189892,-3.9876292,0.662335,0.653172,-1.8735061999999998
-6.980658999999999,18.126291000000002,-3.8707057999999996,0.524995,0.92359334,-1.7712823
-15.848772,12.32015,-3.769479,0.25511476,0.5898166,-1.3150882
-15.067764000000002,13.158724,-3.836057,0.06613053,-0.7010464,-0.7295476
-15.352416,12.860636999999999,-4.9147696,-0.16168729999999998,-1.5245626,-0.37287214
-12.415764999999999,13.507760999999999,-7.576805599999999,-0.2287603,-1.464401,-0.40428805
22.761244,21.589848,-3.2272307999999996,-0.024870941,-0.88842493,-0.48411942
9.930861,13.077148,11.997565,0.23540999999999998,-0.28796187,-0.70024353
-5.346061,6.484801,0.2425422,0.34773940000000003,0.055902895,-0.9153030000000001
-6.761628,7.652683000000001,-2.0458167,0.20453514,-0.09632472,-0.943525
-2.0376573000000002,10.494984,-1.7066636000000002,-0.016353736,-0.76705474,-0.81522584
-1.4392216,12.240309,-4.228073999999999,-0.14624114,-1.3206732,-0.75827575
-3.5605992999999994,9.138094,-3.7824461000000005,-0.14624114,-1.315891,-0.8540943000000001
-4.4360919999999995,8.755241,-4.358194,-0.056286868,-0.7750484000000001,-1.0856471
-0.6863793,9.540338,-3.934746,-0.041381758,-0.41891393,-1.3763143
1.1887115,9.732822,-1.9545592,-0.12016592,-0.35609952,-1.5647575
2.159369,9.824607,-0.45757025,-0.18776251,-0.5541246,-1.6504531000000002
3.345102,9.209469,-0.7452861999999999,-0.29103366,-0.77131337,-1.8506075000000002
2.4449682,9.230767,-2.1804762,-0.41772709999999996,-0.70211107,-2.1119707
-0.08350976,9.350919000000001,-4.2724724,-0.48427650000000005,-0.49450412,-2.3147952999999997
-1.3272496,9.018412,-4.7306266,-0.5880711999999999,-0.5370902,-2.5266607000000003
-0.44736138,9.072694,-3.8176122,-0.7003832,-0.68134165,-2.7960000000000003
1.8053046000000001,9.72902,-2.0307906000000004,-0.91066045,-0.6637835999999999,-3.1654513
2.8464088,9.971006,-1.1719713,-1.0543883,-0.85009754,-3.6269686
2.3141203,9.509041,-2.5188534,-1.211433,-1.5218922,-3.962875
0.49013140000000005,9.533491,-3.6319656000000005,-1.3540963,-1.8162769,-4.1012793
-0.41242516,10.165915,-3.469093,-1.1369075000000002,-1.7151351000000001,-3.922418
0.45618162,11.131257000000002,-2.5747247000000004,-0.89097315,0.5083795,-3.5774712999999996
1.3550704,11.429947,-3.3957824999999997,0.027279496,1.4878583,-3.2357183
0.44345403,13.000956,-2.5309775,0.12683308,-0.10538298,-1.115981
-0.16891572,14.040939000000002,-1.6079842,0.23595107,-1.9328473999999998,-0.14875442
1.7885453000000002,14.079725,-2.3177116,-0.07649778,-2.5247933999999996,1.7005265999999999
3.5132995000000005,15.5036335,-3.9126712999999995,0.13161528,-1.5367973,2.0784776000000003
5.838586299999999,17.751607999999997,-5.082315400000001,0.67565185,0.3332357,2.5948333999999997
7.11596,19.602278,-5.601139,0.9460732,1.3473244,3.4103557999999996
8.716148,23.126715,-5.9423322999999995,0.95884895,1.2062494,4.284975
5.3062309999999995,14.715367,-4.9987197,1.0067582,0.74792594,5.002008999999999
-1.0624701,8.000914999999999,1.3809948,1.1371692,0.63720226,5.5859613
-6.7825246,7.4441957,1.7894168000000001,1.244699,0.60791564,6.0805
-6.4696407,4.6751765999999995,-2.181587,1.3474466,0.49879766,6.518612999999999
-7.482522,2.3752875,-5.297564,1.5459952,0.32951817,6.914645
0.8916869000000001,3.9291341,-2.6592302000000005,1.9122525000000001,0.26457447,7.285161500000001
4.2730083,3.2246068,1.9845921000000002,1.8446384999999998,0.16715018,6.790081
0.77080846,1.9252924999999999,2.5690169999999997,1.6971756000000002,1.0747738000000002,5.860117400000001
-1.8815935000000001,2.4677997000000005,0.6615274999999999,1.3218948999999998,2.275159,3.8601623
-2.2124243,4.0693674,-0.12603077,0.95087284,2.3901587,1.1751301
-1.7778096999999997,4.799168,-0.09442732,0.54415876,2.3251975,-0.41226423
-1.1801115,5.1426015,-0.059155937,0.24392721,1.7385749,-1.3480923
-0.74301654,6.494847,-0.5887054,-0.19415042,1.0497457000000001,-2.8902304
-0.5975928,8.585751,-0.8905472,-0.70678854,-1.6347452,0.46127307
-0.73336315,10.499483999999999,-0.68161964,-1.2295146000000001,-1.4393905,-3.4848292
-0.11263282599999999,13.999865,-0.7811897,-0.011571533,1.4644358999999998,-3.4720707
-0.36070085,18.90117,-1.8618078000000002,0.25511476,1.0806206,-2.8465972
-3.0937683999999996,24.250582,-1.0655921999999998,0.59632665,0.2549926,-1.9671779999999999
-3.290974,21.951134,-1.9776202,0.5872858,0.15917403,-1.5833801
-8.415858,13.224795,-2.9927523,0.33656928,0.44076544,-1.274614
-18.942608,11.429363,-3.6724946000000003,0.15929620000000003,-0.026598819,-0.85302967
-14.894414999999999,13.388693,-4.214053599999999,-0.03499385,-1.0726095,-0.42664573
-11.392446000000001,13.172831,-4.7694125,-0.22982496,-1.4745238999999999,-0.38936550000000003
-1.3724905,18.053745000000003,-11.773027,-0.15210545,-1.3068327,-0.4106585
24.999067,20.546913,9.261385,0.112992615,-0.7888888000000001,-0.54373986
-2.4256902,7.065912,3.2439612999999996,0.29609509999999994,-0.1373225,-0.84929466
-8.073181,7.1457057,-1.1615326000000001,0.26630235,0.1857903,-1.0851061000000002
-8.483365,10.332407,-2.4328727999999997,0.07944739,-0.27305678,-1.0041925999999999
-2.0487087,12.417345,-2.4827585,-0.054681167,-1.1088076999999998,-0.84555966
-1.7178683999999997,9.474459,-3.7279253,-0.09885545,-1.5580903,-0.8620705
-3.239106,8.803958,-3.737435,-0.052010812000000003,-1.315891,-1.0712656
-1.9235687,9.199672,-4.123725,-0.05735152,-0.6211976,-1.4119713
0.44349235,9.890350999999999,-3.0322757,-0.12334242,-0.19853120000000002,-1.7153793999999998
0.8445306999999999,9.68468,-0.94123733,-0.18617427,-0.2629513,-1.7936400000000001
2.713071,9.580753,-0.38630924,-0.25216517,-0.6813591,-1.8213209
3.9837217000000003,9.191848,-1.2337416,-0.37885863,-0.61374503,-1.9650488000000002
1.6769085,9.256884,-3.0677673999999997,-0.4571192,-0.60896283,-2.1247463
-1.4886476,9.254595,-4.3303547,-0.61894614,-0.5610535,-2.4388185
-1.9307703999999999,9.054076,-3.8082078,-0.7477689000000001,-0.67443013,-2.8359332000000004
-0.039456442,9.580082,-2.3443067,-0.9905093,-0.73724455,-3.2255952000000003
2.6085787,10.111775999999999,-1.4409455,-1.1411486000000002,-1.0172477,-3.6988239999999997
3.3106160000000004,9.821351,-2.254342,-1.3567492,-1.5926827,-3.9931912000000005
1.4302578000000001,9.362181,-3.3888583,-1.4025291000000002,-1.9690455000000002,-4.027818700000001
-1.48203,10.121766000000001,-2.6050925,-1.204504,-1.5985471000000002,-3.6966946000000003
-1.3183241,10.807829,-2.6067302000000003,-0.83294094,0.93476343,-3.6604965
-0.07634631,11.751547,-2.8477688,0.053895768,1.4905286,-2.7768363999999996
0.20250158,13.469645000000002,-2.6003425,0.14013249,-0.12135274,-1.2346983
0.93435156,14.526770999999998,-2.1239824,0.024085544,-1.6885013999999998,0.19991001
2.5529277,14.777463000000001,-2.8261635,-0.21012019,-2.2703416,1.7793108
3.8352525,16.767725,-3.8839123,-0.011571533,-1.2839513999999999,2.2365696
6.895444400000001,19.28289,-5.0627217,0.37542033,0.26618016,2.8029813999999997
8.415944,21.195341,-6.1211696,0.6053849,0.88633054,3.6339326
7.759502400000001,21.015966,-5.939411,0.66448176,0.63507295,4.511746
3.8252639999999998,11.843245,-3.3270116,0.8396081,0.34601152,5.115403
-1.8006026000000002,8.2645645,1.3287245,1.1281284,0.52700216,5.532205
-7.0990663,8.658966,-0.9132443000000001,1.406526,0.811805,5.9942636
-4.835262999999999,2.7515316000000003,-1.604278,1.6625831999999998,0.8916538,6.4227943
-7.8784084000000005,2.4618812,-5.116026000000001,2.0596978999999997,0.9933367000000001,6.7842345
0.47694412,3.6458426,-2.7388133999999997,2.647909,1.2099844,6.992906
2.5228374,2.3146472,0.66787696,2.6867774,1.1104308,6.4302470000000005
-0.75084084,1.6281625,1.0783293,2.2960505,1.5645131,5.657833999999999
-2.8622967999999998,2.4852102000000005,-0.41752964,1.6322493999999999,2.0483881999999998,3.7909772000000004
-2.530748,3.5207791,-0.7942716,1.0520147,1.5698364,1.3566444
-0.9820344999999999,4.0713305,-0.22147323,0.6261543,1.8210939999999998,-0.106150925
-0.31287426,4.440708,-0.028366500000000003,0.18484782,0.84587383,-1.5844274
-0.38136762,6.091376,-0.7171113,-0.40388665,0.44397685,-2.8848896
-0.107700765,8.511818,-1.4635083999999998,-0.7392517,-1.7438806,0.8594525
-0.32764173,10.787372999999999,-0.7294845,-1.3013873,-1.2839513999999999,-3.5114453
-0.08369171,14.973394,-1.1507491,-0.10578441,2.0468,-3.5396674
-0.9113193000000002,19.537354999999998,-3.1040537,0.24340361,1.4692357,-2.7794893
-4.2263980000000005,23.318022,-2.8610232000000004,0.61550784,0.5701293000000001,-2.1769142
-4.6185017,22.55854,-3.8647394,0.51755995,0.3715806,-1.8420728
-10.67654,14.945898999999999,-3.4484262,0.18378317,0.53232545,-1.5572875
-19.235085,11.96531,-1.8952214,0.013439035,-0.35238197,-1.0265503
-14.329278,13.407415,-2.3585665000000002,-0.17446311,-1.4553603000000002,-0.5144707000000001
-11.259969,14.857813,-2.6470392000000005,-0.31817353,-1.7108765,-0.5298994
-1.3505596000000002,18.278187,-10.363379,-0.15847589,-1.2626585,-0.6656337
31.693254,20.46305,10.506848,0.15610225,-0.49183378,-0.8918806999999999
-3.302035,6.763457000000001,2.766299,0.25724408,-0.036180675,-1.1745542
-7.5711455,7.0752397,-2.011953,0.08957029999999999,-0.04256858,-1.2112758999999997
-6.956305,10.474288,-2.914366,-0.03551745,-0.72021013,-0.99249893
-1.0154576,12.156033,-3.2275562,-0.13772394,-1.4766531999999999,-0.8748463
-2.0815287000000002,9.037469999999999,-4.059254,-0.080232784,-1.5250861999999998,-0.91849697
-4.697682,8.676682000000001,-3.91814,-0.072239175,-0.8831017,-1.1420736
-2.0871212,9.236571000000001,-4.2186794,-0.10204939999999998,-0.122940995,-1.4705096000000002
1.1888169,9.722278999999999,-2.445744,-0.18350391,-0.102712624,-1.6403302
2.0211372,9.879760000000001,-0.37786248,-0.25270623,-0.45830600000000005,-1.6573646
3.2263496,9.514577000000001,-0.49444094,-0.32510248,-0.70158744,-1.8303616999999999
2.8113387000000003,9.150275,-2.302906,-0.44966662,-0.620674,-2.0949361
-0.6025151999999999,9.165693,-4.120393,-0.5555906,-0.5126032,-2.415396
-2.6225033,9.028678999999999,-3.7755413,-0.67430794,-0.7036993,-2.6746297
-1.8510627,9.194894,-2.939869,-0.8318763000000001,-0.8676555,-3.0488633999999997
0.51347965,9.819224,-1.5413487,-1.0969744,-0.84158033,-3.4981459999999998
2.8986409,10.384103,-1.6267643,-1.2683831,-0.7989943,-3.9649866
2.2142150000000003,9.688884,-2.5271470000000003,-1.299258,-1.0481225,-4.1332016000000005
-0.7949036999999999,9.562911,-3.1203917999999997,-1.1262435,-1.9387118000000003,-3.823929
-1.4336576,10.31358,-3.2546394,-1.0160608,-1.2307013999999998,-3.3724997
0.033346443999999996,11.01398,-2.75858,-0.5481381,0.7830594,-3.4310555
0.8537053,12.15744,-3.1410873,0.040055305,0.7457965999999999,-2.0230634
0.42607215,13.4261465,-2.9178615000000003,0.49146727,-0.60203385,-1.1899829
0.35340333,14.609075,-2.231808,-0.005707226700000001,-2.2730122,1.3875191999999998
2.2527428,15.459495,-2.3049362,-0.02539454,-2.0377243000000003,2.1434214
4.9616194,17.121357,-3.9734839999999996,0.46432740000000006,-0.17830284,2.3627569999999998
7.481372400000001,19.938702,-5.3600525999999995,0.8252440000000001,1.3962983,3.090437
6.5508614000000005,21.90119,-6.0633254,0.89870495,1.7252754000000001,3.9528043
4.7557845,18.059347,-6.399988,0.88486445,1.4500719,4.661862
0.94115114,10.985411000000001,-2.9706490000000003,0.9029635,1.1849738,5.2538075
-2.791639,9.468359,1.2397176,0.9545904000000001,0.97630227,5.81329
-6.346952,8.185316,-2.7990133999999998,1.0275277,0.65584236,6.360521
-7.6242589999999995,1.7501422999999998,-2.97379,1.1728438,0.33536503,6.8640833
-4.0764346,3.8117224999999997,-2.9925222000000002,1.3836447,0.010646508,7.267061999999999
4.1781597,3.5225699999999995,1.5396249,1.6136092,-0.0063529983,7.4778804999999995
2.0128534,1.4514991000000002,3.6009462,1.6561953,0.4407829000000001,6.853453999999999
-1.4270495,2.0867765,2.384692,1.4666874,1.4543304,5.483231
-2.061963,3.5979009,0.88492566,1.2574923,1.9786624,3.3438239999999997
-1.8534281000000004,4.034096,0.25859293,1.0035644000000001,1.4069448999999998,0.7465995
-1.7249265,4.3427854,-0.2306574,0.47336819999999996,1.6565967000000001,-0.33559190000000005
-1.3284851,5.2511163,-0.65562814,-0.11376056,0.96937335,-1.9070165000000001
-1.1930978,7.293868499999999,-0.99034715,-0.32510248,0.95075065,-2.0965244999999997
-0.84707814,9.261289,-1.0624031,-1.4679965,-1.6853248,-1.2176639
-0.56139237,10.802811,-0.75330204,-0.27132890000000004,0.9023003,-4.648492299999999
0.35958993,16.286423000000003,-1.0576913000000001,0.12522738,1.1583576,-3.158505
-0.7363798,21.129213,-1.9889974999999998,0.602191,0.3130248,-2.7204099
-3.2385982999999996,24.603468,-3.350532,0.45846307,0.25871015,-2.168397
-5.3930163,19.151123000000002,-2.9632842999999998,0.07466519,0.28853783,-1.7718058999999997
-12.288872,12.184936,-3.8700259,-0.10578441,-0.32255429999999996,-1.091494
-19.086786,12.742756,-2.1837897,-0.23832470000000003,-1.1343591999999998,-0.7167369
-11.197691,15.2616,-5.0334544,-0.35650095,-1.6288809,-0.77262235
-11.304214,14.427642,-8.08452,-0.18296286,-1.4446963,-0.88601637
30.332715999999998,23.469584,1.8690383000000002,0.04379031,-0.62704444,-0.92647314
1.7709814,11.645847,8.487272,0.13161528,0.04632104,-1.0393261
-6.5459104,5.802616,-0.20836258,0.13374458,0.18472564,-1.1239572
-7.235345,6.4595947,-3.8059092000000003,0.03260275,-0.29860840000000005,-1.0228153
-4.574908,13.218838,-4.1000896000000004,-0.089273594,-0.89694214,-0.8551415000000001
-3.7832696000000006,11.190833999999999,-2.9430387000000002,-0.104178704,-1.0662216,-0.8327839
-4.0098953,8.409307499999999,-2.7455363,-0.045099307000000005,-0.7446971,-0.9445722
-1.1790389,8.842084,-3.9270177000000004,-0.020612339,-0.35077628,-1.0893646000000001
1.1703625,9.886579,-1.9771317,-0.07065093,-0.5280319,-1.2442627
1.2492082,9.952112,-0.3318172,-0.15901695,-0.67497116,-1.4327233
1.7330095,9.691661,-0.24247517,-0.28091073,-0.596187,-1.7260258999999998
2.087064,9.323683,-1.0579404,-0.40866885,-0.53122586,-2.0432918
0.23795493,9.299559,-2.1295083,-0.5114164000000001,-0.37365752,-2.2700624
-1.557342,9.244415,-3.9434705,-0.6311809,-0.5818055,-2.4244368
-1.9845538,9.167973,-2.8468782999999998,-0.7818377,-0.6706951,-2.7778834999999997
-0.22638614,9.737774,-1.7395599,-0.9665459000000001,-0.5567774999999999,-3.2830691
1.1301781000000002,10.259652,-0.9677459,-1.1353017,-0.5924520000000001,-3.9074955
0.5106162000000001,10.113846,-1.622426,-1.2082217,-0.744156,-4.5350985999999995
0.17735289,9.919427,-3.0867102,-1.2151506,-1.2887336999999999,-4.302480999999999
0.7341675999999999,9.722862,-3.1588043999999997,-1.1006919,-1.0230945,-4.754434
1.1535838999999999,10.7777,-2.7925298,-0.6365041,-0.42689008,-4.379658999999999
1.0450499,11.583733,-2.4935803,-0.5135457,-1.8774856,-1.6568236
-0.23937228,12.808375999999999,-2.9705912999999997,-0.47467719999999997,-3.0597715,-1.3113357
-0.338588,14.146360999999999,-2.330468,-0.23619539999999997,-1.9999203999999997,0.8823511999999999
2.2302852000000004,14.068960999999998,-2.6081857999999998,-0.03764675,-0.4503124,1.6776453000000002
3.9852924,15.443396,-3.9912970000000003,0.4169417,0.62868506,2.1897423
6.4994435,19.233610000000002,-6.2465677,0.67565185,0.6127153000000001,2.9967651
6.362601000000001,21.156727,-7.204219999999999,0.8928405999999999,0.44450045,3.8255873
7.274447,22.288014999999998,-9.0299425,1.2069126000000001,0.41788417,4.553808
5.005040599999999,18.486204,-4.200081,1.5172671,0.7591135,5.0589767
-7.3332676999999995,8.947974,-1.9228599999999998,1.7578782,1.2264953,5.408723
-6.574841999999999,7.162694999999999,-5.8111777,1.944192,1.641168,5.784545
0.023989901,4.6953263,2.2512773999999998,2.0921786,1.9392703000000002,6.15822
-1.8617599999999999,2.9395242,-0.22709481,2.233777,2.044147,6.489866999999999
4.2471795,2.4069580000000004,1.569112,2.3929336,2.1436832000000003,6.8907169999999995
-0.1621545,1.1743655000000002,1.4556267,2.4962049,2.4763954,6.696427000000001
-3.2421130000000002,2.3278822999999997,0.7262188,2.1320941,2.5950952000000003,6.002798
-3.5057339999999995,3.0343826000000003,1.6312461999999999,1.2649448,2.1852044999999998,4.6751785
-1.8612906999999999,3.7597585,1.9596446,0.7783994000000001,0.53979546,2.5405362
-0.2533161,4.688326,1.9868331000000001,0.66287607,-0.0712967,1.3816725
0.10056604400000001,5.7060056,1.5678861000000002,0.24500932,-0.5131268,-0.622524
-0.0367079,7.023917699999999,1.3336086,-0.5566553000000001,-0.6302384,-2.2226767999999995
0.20254947,8.369133,0.2450226,-0.6258576,-1.6480446,-2.2397112999999997
0.17902882,10.238029,-0.95873415,-0.82442373,-2.5391574,0.7689746000000001
-0.10853395,13.755904999999998,-1.6986189999999999,-0.8968200000000001,0.14587462,-3.9351763999999996
0.006435614,19.123514,-1.8278964,0.038990654,3.938161,-4.077298600000001
-2.1221917,23.87924,-3.701886,0.2998301,2.101097,-3.1505287
-5.626393,22.661386,-7.218681299999999,0.7661472,0.41736057,-2.06085
-10.857388499999999,16.107029999999998,-5.0504245999999995,0.6256133,-0.0776846,-1.6238195
-17.081873,11.762474000000001,-1.5399889,0.22903955,0.11606439,-1.3800143999999999
-10.126094,12.061729,-3.2280830000000003,-0.03338815,-0.5690297,-0.8498008
-11.300498,12.930183,-3.8373692000000004,-0.23087215,-1.4329851,-0.35102059999999996
-11.626683,14.488560000000001,-3.7423095999999996,-0.33574899999999996,-1.6544325,-0.34410912
5.8188105000000006,16.70605,-6.933273,-0.13611823,-1.3211968,-0.41861722
34.944244,19.99168,8.762894000000001,0.17793632,-0.5232497,-0.56236255
-2.755793,8.232807000000001,0.61970556,0.30621803,0.10967649,-0.88973397
-10.255371,7.6167316,-2.0060058,0.21574014,0.22998203,-1.0307914
-9.553651,8.746143,-2.1507115000000003,-0.029129544,-0.40666172,-0.88174033
-2.2166,12.733399,-4.815275700000001,-0.18030997,-1.2892573,-0.7689048
-1.9039650000000001,9.921371,-4.878502,-0.19999728,-1.5820363000000002,-0.82957244
-4.1409826,8.37825,-4.182163,-0.13344787,-1.1386178999999998,-1.0366383
-1.7541932,8.994949,-4.158307,-0.06478662,-0.47853437,-1.3427341
0.9885563,9.902495,-2.4995849999999997,-0.12707742,-0.35129988,-1.5860156
1.5229135,9.772317,-0.33934456,-0.13770647,-0.5780705,-1.6104851
3.3389153,9.527774,-0.16437632,-0.24364796,-0.7984532,-1.7387843
3.8212895,9.176373,-1.9257426,-0.3426605,-0.58552307,-1.9873889999999999
0.736217,9.181477000000001,-4.1195498,-0.41931534,-0.5977753,-2.1316403999999998
-1.726478,9.160034,-4.9095497,-0.5284508000000001,-0.6424906,-2.2876205
-1.3109883,8.921073,-4.0351300000000005,-0.6631204,-0.50567424,-2.542072
0.7649187,9.513561,-2.1669728999999998,-0.83294094,-0.5440017,-2.8465621
3.0785793999999997,10.004449000000001,-1.7096133000000002,-1.0437243,-0.56635934,-3.21172
2.978224,9.654149,-1.7226377,-1.2444197,-0.7665137,-3.7350220000000003
0.7356041,9.264632,-3.4811212999999994,-1.4349922,-0.8266752,-4.1177554
-1.2192041,9.428414,-2.8473952000000002,-1.2737063999999998,-1.1481998,-4.26733
0.47140875,10.731367,-3.5281531999999998,-1.218327,-0.9081123,-4.020331
0.27390626,11.176449,-2.5582142000000005,-0.7935488,0.6627539000000001,-3.7855842000000006
-0.7904696,11.749746,-2.9205046,-0.29581586,0.27469736,-2.036363
-0.035194762000000004,13.496267999999999,-1.9049610000000001,0.20081758,-0.6361026999999999,-1.5588583
0.78805625,14.119939000000002,-2.1377634999999997,-0.059463367,-1.4665303,0.6822143
1.6200222,14.692353,-2.9540043,-0.28571040000000003,-1.4755711999999999,1.8043387999999998
4.355569999999999,16.940002,-4.9336834000000005,0.089029245,-0.23738223,2.2818433999999996
7.253588000000001,18.635767,-5.083187000000001,0.51223665,0.91561717,3.0287046
8.895178,20.595316,-6.0402260000000005,0.66926396,0.8437445,3.9725089999999996
7.410791400000001,21.616741,-7.605229400000001,0.69268626,0.13416345,4.8407407
2.7174764,13.9427,-4.238656,0.8976403000000001,-0.6180036,5.621653
-2.5807482999999998,9.40045,0.84207904,1.2111713,-0.9517629000000001,6.152914
-6.051757,9.0411,-3.2795199999999998,1.5779521,-0.7574729,6.4568806
-3.873282,2.934573,-0.17587805,1.9388688000000003,-0.58339375,6.672986999999999
-6.015374700000001,3.1503002999999996,-3.929,2.322143,-0.8021881999999999,6.884328999999999
2.162347,3.044266,-0.3520051,2.8416927000000003,-0.35129988,6.9189215
1.1307815,0.8562048000000001,2.586389,3.1200902000000004,1.7252754000000001,6.043255
-2.504785,1.0451934,0.94863063,2.6463206,3.8295665,4.6842194
-3.9663782,2.8035717,-0.69681805,1.5566591,4.3560276,2.7444255
-3.851581,3.0575200000000002,-0.6726941,0.7730760999999999,3.028408,0.6492101
-2.7800032999999997,3.3616984,-0.28923872,0.47443286,2.3438375,-0.3068289
-0.30857429999999997,4.2245975,-0.02681506,0.11938052,0.8586495999999999,-1.472639
0.60783035,6.3231152999999996,0.16268120000000003,-0.30007446,0.3263242,-2.861991
0.46763545,8.439225,-0.41763500000000003,-0.79672533,-2.311322,0.613012
0.10402328,10.711907,-0.9122196,-1.2433551999999999,-2.0371832999999997,-3.2639053
1.8860755,15.319932000000001,-0.06225882,-0.10737266,1.415462,-3.4981284
3.4648218,20.4309,0.94343996,0.109275065,1.080638,-2.7762952000000003
1.1026448,23.859722,-1.1630648000000001,0.47657959999999994,0.32047737,-2.0273046000000003
-4.197237,22.373089,-3.587874,0.57505107,0.08571312,-1.5492765
-12.26786,14.966892000000001,-5.149353,0.4307996,0.33484143,-1.3682858
-23.390573999999997,11.379572999999999,-2.9539087000000004,0.22265165,0.055902895,-0.9855351000000001
-14.452148000000001,12.901041000000001,-4.7088294,0.019303342,-0.79260635,-0.5825735
-13.277467000000001,14.016797,-4.929776,-0.19680333,-1.2434771999999998,-0.45642105
-2.4628002999999996,18.922726,-12.600999999999999,-0.2255489,-1.2216606,-0.41648793
26.155082999999998,20.439529999999998,8.188342,0.022497293999999998,-0.91875875,-0.4681322
-0.09727163,7.4632053,1.8829439,0.20933479,-0.36939892,-0.70342004
-7.366135000000001,6.00664,-0.7670735,0.27642524,0.11658800000000001,-0.93443185
-8.334839,9.880804,-1.1621742,0.1587726,-0.07236135,-0.9647831
-2.1951191000000003,13.099788,-1.8881058000000002,-0.008360127,-0.86020297,-0.8407600000000001
-0.91227704,9.834174,-3.6021242,-0.057334065,-1.4989934999999999,-0.76089376
-2.5283248,8.511109,-4.06545,-0.032847095,-1.4441727,-0.86629415
-2.0577302,9.137596,-4.1786866,-0.003036873,-0.9959546999999999,-1.1431209
-0.0069623385,9.754543,-3.7246597,-0.06798057,-0.46362928,-1.4816624
0.21183898,9.565324,-1.7163266,-0.1776396,-0.15966272,-1.7473014999999998
1.6476609,9.6465645,-0.40832633,-0.26494098,-0.4609589,-1.870801
3.2562196,9.420361,-0.9193925999999999,-0.39056978,-0.58126444,-2.0315807
2.4014993,9.299099,-2.3695798,-0.4895823,-0.6951821,-2.191802
-0.40406463,9.312975999999999,-4.066254600000001,-0.6402391,-0.5754176,-2.5069385
-1.9169798999999998,9.086264,-3.8049803,-0.7802319999999999,-0.528573,-2.8982064999999997
-1.0183977,9.259355000000001,-3.0701612999999996,-0.99155647,-0.5301611999999999,-3.3006269999999995
1.2016307,9.995361,-1.6500549999999998,-1.1342371999999998,-0.6339734,-3.716382
2.974719,9.984183999999999,-1.9061197,-1.3226628,-0.9043947,-4.08421
2.8745935,9.240805,-3.3386089999999995,-1.4200871000000002,-1.0385407,-4.3418555
0.5412906999999999,9.704916,-3.4414735,-1.277424,-1.2019559,-4.0198073
-0.42972088,10.855512,-2.9493885,-1.09111,0.3114191,-3.5311152999999997
-0.20824766,11.563151,-2.910535,-0.41079813,1.2749281000000001,-3.2862456
-0.14626656,12.759524,-3.1546001,-0.24471262,0.1857903,-1.2836548
1.2572815,14.288576,-1.979727,0.08904669999999999,-1.0805857,-0.5910907
2.4779317,14.572538,-2.3518722000000003,-0.24364796,-1.9046254,1.6313592
3.1947843999999996,15.900008999999999,-3.5055422999999997,-0.15901695,-1.4883468999999998,2.1972125
5.737992,18.87765,-4.605285,0.30410618,-0.20385446,2.780641
8.021581,20.053402,-4.942638,0.64053583,0.5467069,3.6462023
8.296551,20.9797,-5.6381440000000005,0.72303754,0.60313344,4.450537000000001
5.2464333,16.673460000000002,-5.795922,0.8949874,0.42320743,5.0898685
-1.0042049000000002,9.624672,-0.5500056,1.1334692,0.49347440000000004,5.614742
-5.3772044,8.532580000000001,0.46263638,1.3144598,0.6648831999999999,6.0246319999999995
-3.756014,5.1486545,-1.7559746999999999,1.4842629999999999,0.8299040999999999,6.404189
-7.700634,1.8130906999999998,-4.8374653,1.6226676000000002,0.878878,6.7273016000000005
-1.0444752,3.4157214,-2.6445777,1.8052639,0.98269016,7.0919360000000005
2.0993128,2.5738626,1.2781876,1.8073932000000001,1.2083962,6.851325
-0.92045563,1.6236901000000001,1.9357504,1.5859457000000001,1.8503807,6.029414
-2.6387357999999996,2.1712344,0.44768697,1.4060198,2.858064,4.259982
-2.0424838,3.7494156000000003,0.19419849,1.0275277,2.2107563,1.7931686999999998
-1.3448806,4.4658565999999995,0.40361452,0.5218185000000001,1.8376047999999998,0.30000463
-0.16848476,5.072307599999999,0.47087243,0.1433439,1.0630625,-1.0046988000000001
-0.025129542,6.88581,-0.057508725999999996,-0.22448425,-0.2528284,-2.011335
0.035166036,9.123603999999998,-0.27932670000000004,-0.28729865,-1.3201321000000001,-1.6339073999999998
0.029084763,10.7942295,-0.28354052,-1.4679965,-2.5812197,-0.10559242
0.18803102,13.811738,-0.5260923000000001,-0.32136747,0.8075464,-4.310981
0.9699581,18.809807,-1.8323497,0.16887806,2.2006507,-3.140406
-1.4658165,22.611520000000002,-2.282833,0.26843163,0.7830594,-2.1955369
-3.5488486000000004,21.993845,-2.9500968,0.7778758000000001,0.3300592,-1.514684
-7.946451,15.551910000000001,-4.49746,0.5920854999999999,0.39819688,-1.3746737
-19.343195,11.687813,-4.537271,0.39247218,0.3721042,-1.0872178999999997
-15.427076999999999,11.836644999999999,-4.1717052,0.21200514,-0.52644366,-0.6294181
-15.1622305,12.688618,-5.8864417,-0.034435347000000005,-1.263182,-0.42074654
-13.27989,12.741482000000001,-9.045859,-0.14144148,-1.4079746000000002,-0.41383502
25.813564000000003,24.159122,-4.5065102999999995,0.059236474000000004,-1.1833333000000001,-0.38508946
8.012876,13.564848000000001,9.935295,0.31740558,-0.77770126,-0.6166423000000001
-5.8466983,6.2442794,0.9521069999999999,0.34136894,-0.10697123,-0.879611
-11.111423,6.9184675,-0.48995900000000003,0.23170991,-0.011676253000000001,-0.93071425
-4.377482,11.559091,-1.3997363999999999,0.05550147,-0.6201329000000001,-0.7822041999999999
-0.42371625,12.566121,-3.5215737999999996,-0.048275806,-1.2189903,-0.66774553
-2.1795375,8.9413185,-3.6850882000000005,-0.027000242999999997,-1.3190674999999998,-0.7151312
-2.734887,8.504923,-4.1335315999999995,0.07360053,-0.8857546000000001,-0.928585
0.19739714,9.752436,-4.183743,0.07840019,-0.4854459,-1.2250816
0.23680569,9.628186,-2.0160232,-0.01314233,-0.35768777,-1.5226601
1.2088898000000001,9.682813000000001,-0.081345394,-0.11534881,-0.54293704,-1.7079093
3.9123650000000003,9.386621,-0.7754532,-0.23565435,-0.72553337,-1.9751368000000002
2.9984982000000002,9.342127,-2.3422282,-0.39428732,-0.5924520000000001,-2.2854737999999997
0.18436311,9.31332,-3.7706282,-0.5401444999999999,-0.6062925,-2.5154383
-1.896993,9.099039,-4.241510400000001,-0.65779716,-0.4247608,-2.863579
-1.0082845999999999,9.398372,-3.406518,-0.8068482,-0.4130496,-3.1797805
1.0596067,9.961986999999999,-1.6281722,-0.97612774,-0.50248027,-3.4539367999999997
2.7659828999999996,10.046108,-1.327805,-1.1720235,-1.1301007,-3.8010129999999998
2.7427783,9.4482565,-2.1609106,-1.4573499,-1.9541403999999998,-3.8872497000000004
1.5242636,9.382264,-3.3230178,-1.5334637,-1.9386941999999998,-4.001691
0.81222814,10.464960000000001,-3.4990683,-1.3269215,-0.45511204,-4.0048847
1.3731226,11.037883,-3.3874698,-0.84463465,1.849316,-4.1534123
1.2105085,12.11717,-3.0384717,-0.01314233,1.7109113999999999,-2.4579473
1.3960493999999999,13.5228815,-2.263909,0.25300294,-0.18893189999999999,-1.4204363000000002
1.8598830000000002,14.026257500000002,-1.9934316000000003,-0.110025555,-2.1303315,0.8573581
2.0397928,15.01288,-2.3039212000000004,-0.22074924,-2.6365817000000003,1.9901291
3.3347495000000005,16.980013,-4.194335,0.17580701,-1.6597557,2.4404938
5.9577602999999995,18.823432999999998,-4.7592516,0.6565055999999999,-0.5706179,3.1676505
8.763257000000001,20.007089999999998,-6.1593137,0.8619832000000001,-0.45670029999999995,4.1061316
9.343669,20.755861,-5.2722335,1.0461679,-0.6872059,4.876939
5.254306,13.848187,-3.844025,1.4001553999999998,-0.58074087,5.368807299999999
-1.4353143,9.092,0.23295583,1.7898177,0.052708942,5.790932700000001
-6.8697023,8.040792,-2.5718899,2.044793,0.61803854,6.1545195999999995
-5.840789,1.7659631000000002,-2.6156845,2.306697,0.9981189,6.470703599999999
-6.569344500000001,2.8162708,-4.8589077000000005,2.670284,1.4495482,6.8353724
1.8041937,2.9721715,-1.7752047999999998,2.935923,1.8136414,6.7496595
0.90497947,1.2215216999999998,1.0905205,2.5909762,1.9871794999999999,6.1955175
-1.8824267,1.484022,0.23036051,2.1166656,2.601483,5.046218
-2.707411,2.817621,-1.3803436000000002,1.6035038000000001,2.641416,2.7402017000000005
-0.9014648000000001,3.8434312000000004,-0.69929844,0.87688833,2.3262796000000003,0.8035845
0.45267650000000004,4.5114517,0.011559206,0.56121063,1.8391931000000001,-0.43032837
0.84235674,5.8738103,-0.10908941,-0.0136833815,1.1232241000000003,-2.110871
0.5550813,7.9305825,-0.8801948,-0.3032684,0.28747317,-2.5963693
0.61382544,10.161681,-0.94463706,-0.5571789,-1.9216598000000003,1.3002528
0.8114045,13.136257,-0.7706552,-1.2944584,-0.5392195,-4.0432296
0.89559424,18.076176,-2.3647244,-0.019530235,2.3619366000000004,-3.7291402999999996
-2.2300646,20.953861,-3.1729397999999995,0.19816469,1.1407821000000002,-2.8587968
-4.178801,24.203224,-2.5105886,0.7012209,0.25553367,-2.0922484
-6.746237799999999,19.987946,-3.8341703000000003,0.6043377,0.5429894000000001,-1.8564194
-17.004597,13.557215,-4.498178,0.2104169,0.7122689,-1.4790094999999999
-16.968445000000003,11.965836999999999,-0.8251568000000001,0.0060039326,-0.29115582,-0.83329
-13.995498000000001,12.557167,-3.139354,-0.25003588,-1.5442499,-0.20994565
-12.494888000000001,12.993084,-3.2592075,-0.3926991,-1.8567162,-0.21898647
1.2287523,17.4207,-11.858289,-0.1776396,-1.3664532,-0.40264747
33.089733,22.355503,12.272582,0.16196655,-0.4375366,-0.68158597
-4.099419,7.429064299999999,2.1536419999999996,0.3259228,0.15652113,-1.0111040999999998
-10.052516,6.4916477,-1.5094675,0.23968607,0.22092378,-1.1436445
-6.956152,9.490414,-2.0749397000000003,-0.031241393,-0.4529653,-0.99084085
-1.1730151000000002,13.56005,-4.181521,-0.14995869,-1.1992855,-0.8705528
-3.0390558,9.175338,-4.363758,-0.19200367,-1.4516252,-0.9333671999999998
-5.6312485,8.339445,-4.0654883,-0.073303826,-1.0544931,-1.1281983
-2.5653392999999998,9.466061,-4.332049400000001,-0.018483037,-0.49982738,-1.4284472
1.1803701000000002,9.968183,-2.392363,-0.08288568,-0.27518606,-1.645095
2.680778,9.904076,0.08444828,-0.21116738,-0.49715704,-1.6983275000000002
4.395266,9.523808500000001,0.058102485,-0.30592132,-0.7510675,-1.8079691000000002
3.6856915999999997,8.953807000000001,-1.5327393,-0.4336794,-0.6249151,-2.0533798
0.81631744,9.254719999999999,-3.7042227,-0.51246357,-0.45563567,-2.2301118
-1.8237592,9.185450999999999,-5.035322,-0.63702774,-0.49076912,-2.381816
-1.3338768,8.948539,-3.7656195,-0.77543235,-0.5519778000000001,-2.6772652000000003
0.8069896,9.736711,-1.8582165000000002,-0.9904917999999999,-0.47212902,-3.0488284
2.8494737,10.238688,-0.8807502,-1.1486011999999999,-0.5924520000000001,-3.4890702000000005
2.6088946,9.819099000000001,-1.5764095,-1.3748482,-1.2014323,-3.9309003
0.2991986,9.384839999999999,-3.131252,-1.5073885,-1.4729183000000001,-4.1353135000000005
-1.1902056,10.177599,-3.073379,-1.3258568000000002,-1.216861,-4.12732
-0.051092267000000004,10.942134,-2.7865634,-1.1773467,0.5669353,-3.9388763999999994
0.91877013,11.86304,-3.4384375,-0.35011303,1.461783,-3.3091269
-0.26936686,13.397244,-2.079211,-0.14835298,0.3593284,-1.5072139999999998
-0.071634516,14.284756,-1.8423191000000003,-0.006754424,-0.90758866,-0.3387684
2.0172873,14.432870000000001,-2.3779017999999996,-0.32189107,-1.9365648999999998,1.7266542
3.5490305,15.143545999999999,-3.5758263999999995,-0.18722147,-1.4984698,2.2190466
5.9331,17.472604999999998,-5.153519,0.39992476,-0.21821852,2.7987576
7.124608,18.585997,-4.881145,0.65596455,0.3071605,3.7031523999999996
8.562528,21.384214,-5.447786,0.8151210999999999,0.043127085999999995,4.4287205
7.148923399999999,18.404486,-5.9269037,1.0876892,-0.3119078,5.040895
0.13095327,10.626846,-1.1966411,1.3985671999999998,-0.2618692,5.5375633
-5.3582807,8.333116,-0.41191759999999994,1.6918699000000001,0.12884021,5.934137000000001
-3.326111,5.0594554,-1.2747496,1.9005414,0.38807395,6.2859955
-8.985373,2.4561830000000002,-4.7748237,2.1219888,0.4599465999999999,6.618725
-0.8680896999999999,3.3839360000000003,-3.0563803,2.4200909999999998,0.83150977,6.8460193
1.8175535,2.2703450000000003,1.3500328000000001,2.539332,1.4729706,6.5037427
-1.4407348999999998,0.8378844000000001,1.6477853999999998,2.3461065,2.1830752,5.8846393
-2.5708745,1.6390418000000002,-0.065754354,1.8664726000000003,3.1593776,4.3148203
-1.9851476000000003,3.4212568,0.24174733,1.3666277,2.7052953,1.8416365000000001
-1.3507702,4.4189110000000005,0.49344498,0.68471014,2.2677237999999997,0.37187729999999997
-0.23220883,5.360502200000001,0.63777703,0.33550465,1.0130415000000002,-0.5809677
0.0089543145,6.947312400000001,0.23512976,-0.13770647,-0.21183062,-1.7941460999999999
0.36536476,8.463139,-0.35020468,-0.2601413,-0.5259026,-2.3626697
0.42531556,10.342645,-0.32501766,-0.99155647,-1.8231883999999998,1.2587315000000001
1.125476,13.530084,0.08163269599999999,-0.6833488,0.09157742599999999,-4.5319047
1.1935862,17.44651,-0.5647826,0.08637635,2.369389,-3.3091443
-1.0421768,22.402918,-2.5219946,0.33231068,0.8740958000000001,-2.6953642
-2.9876955,23.248676,-3.177326,0.8002335,0.16184439,-1.8766478
-7.837055,17.276567,-5.239845,0.5228832,0.24115214,-1.6546768
-20.623967999999998,12.718459,-4.547288,0.15931365,0.18472564,-1.2447863000000001
-16.655647000000002,12.384909,-3.6085696000000005,0.011850785,-0.6105335999999999,-0.71137875
-14.696204000000002,12.110246,-3.5582721,-0.16805775,-1.4777004999999999,-0.38987166
-10.145228,12.567817,-4.259457,-0.19573867,-1.5910771000000001,-0.40475932
15.912497,23.142948,-8.630503,0.051242866,-1.1689517,-0.4686558
16.827072,16.73029,12.829722,0.31314698,-0.49131018,-0.7374714
-4.9078550000000005,5.6613197,0.8351742,0.31688198,0.07347836,-0.9924639999999999
-10.4905205,6.563789999999999,-1.1227177,0.16463691,-0.06277949,-1.0169336
-6.6410365,11.499139999999999,-2.7798979999999998,-0.029653143,-0.7707723000000001,-0.8854579
-0.8442146999999999,12.732001,-4.1769433,-0.11747811,-1.3105503,-0.8620356
-2.6420397999999996,8.592522,-4.016915,-0.06105162,-1.1556349,-0.9956405
-3.9951277000000003,8.420053,-3.7953748999999997,-0.007819075,-0.5434606,-1.2463745000000002
-0.74326557,9.601678,-3.4852874,-0.024312437000000003,-0.3161664,-1.4683455
0.72126764,9.930143,-1.6734608,-0.06743952,-0.4439245,-1.5540587
1.8848113999999998,9.770996,-0.11534306400000001,-0.1648638,-0.6653719,-1.6743642
4.0094547,9.3733,-0.8271584000000001,-0.27398178,-0.7388328000000001,-1.9394797
2.8538117,9.194663,-2.575165,-0.37247070000000004,-0.6371498999999999,-2.1875257
-0.29467833,9.17145,-4.23971,-0.46881288,-0.55943036,-2.482434
-1.5523717,8.962675,-4.665839,-0.6295752,-0.54239595,-2.7746720000000002
-0.2179011,9.312171000000001,-3.1507597,-0.77916735,-0.5269673,-3.2106552
2.0743268,9.918277999999999,-1.3801328000000002,-0.9936858000000001,-0.5865876999999999,-3.6381214
2.6218903,10.080987,-1.3125972,-1.1411486000000002,-1.0443876,-4.0687637
0.8515314,9.678695,-2.8621724,-1.4009234,-1.4101039,-4.314698
-0.51478213,9.711313,-3.0876582000000004,-1.2790122,-1.6405919999999998,-4.161371
0.20409133,10.430521,-3.3833709,-1.2486783000000001,-0.77770126,-3.5859535000000005
1.166139,11.293565,-3.004091,-0.83772314,1.1705923,-2.791183
0.8533988000000001,12.439304,-2.9855218,-0.04082325,2.3757943999999998,-1.9671432
0.9573742000000001,13.866747,-1.8747749,0.3903429,0.9752376,-1.0680542
1.9182057000000001,14.177532999999999,-1.6947405,-0.34637803,-1.3100266,1.5573573
3.2649825,14.615701000000001,-2.6516933,-0.45870742,-1.6581501,2.1743312
5.028015,17.098871,-4.5490403,-0.028588492000000004,-0.53441983,2.7268847999999997
7.8756595,20.084766000000002,-4.833089,0.28865999999999997,0.28427923,3.5110089999999996
9.479966000000001,23.169455,-5.4632044,0.3946015,-0.05852089,4.54105
7.7105937,19.179642,-5.184242,0.51916564,-0.7095636,5.337932599999999
0.5828349,9.242941,-2.1439886,0.8188561,-0.9043947,5.87984
-1.2853032,10.391735,1.5130302,1.1728611999999998,-0.46841148,6.247685400000001
-4.973226,7.171180199999999,-1.8734915,1.5050323,0.052185345,6.549505
-9.2110405,0.43770796,-4.850873,1.8946946,0.30928978,6.9077687
-3.3247129999999996,3.6769480000000003,-6.020699,2.3359834999999998,0.5355368,7.1915070000000005
2.600898,4.3162384000000005,-1.1275158,2.5169742000000004,0.9613972,6.739012700000001
0.27462453,2.2264926,0.76631695,2.2545464,1.8663504000000002,5.9783287000000005
-2.8687708,1.6334872,0.13615346,1.6413076000000002,2.5030115,4.337701999999999
-4.100358,2.9148831000000004,-0.13567463,1.2559040000000001,1.9435463,2.023692
-2.838709,3.844906,-0.17207606,0.74220127,1.6986592,0.7067013000000001
-0.633726,4.1503773,0.062306705999999996,0.5069134,1.306344,-0.84021896
0.6131646,5.387567,-0.17220056,-0.079150684,1.0311405999999999,-2.4079087
0.5249048000000001,7.415044,-0.7949516,-0.014748032,-0.22780037,-2.1790087000000002
-0.30346027,9.794306,-0.9783378,-1.2965876,-2.5146704,0.88449794
0.23364535,13.176173,-1.014634,-0.60828215,0.055920347999999995,-4.43181
0.90332276,17.890615,-0.8202248,0.07040658,2.1681702,-3.4480724
-0.8244577,23.555632,-2.3315599999999996,0.2780135,1.0369874,-2.6772652000000003
-2.5758834,23.517103,-4.479293,0.74167764,0.22731169,-1.8942233
-9.46313,16.203976,-5.542098,0.6330833,0.83629197,-1.8452493000000003
-19.513481,11.85487,-2.8356159,0.20987584,0.8426973,-1.4395999
-11.797707,12.888035,-1.7898573,-0.006754424,-0.5450663,-0.8290314000000001
-13.163129999999999,12.399724,-3.2024074000000002,-0.23619539999999997,-1.661344,-0.32545155
-11.340615,12.412958999999999,-6.6189814,-0.30911526,-1.7050120999999998,-0.34409165
19.495497,23.199776,-8.618514,-0.048275806,-1.0965555,-0.44310418
14.188001000000002,16.911453,14.935193,0.28494245,-0.28049186,-0.72628385
-4.6988792,6.3198404,1.0862302,0.39727184,0.32899457,-1.0312976
-9.119342,7.259478,-1.6143432,0.22691025,0.08892453,-1.0025694
-4.423968,9.85779,-1.0966208999999998,0.0060039326,-0.7148694,-0.76515234
-0.45303085,12.680056,-6.3074574,-0.16858135,-1.386664,-0.7156373
-3.3383693999999995,9.1123705,-4.6337667,-0.121213116,-1.4175563999999998,-0.8034972
-5.3955345,8.356894,-4.0518417,-0.023788838,-0.8373216999999998,-1.0590135
-1.1473016000000003,9.636144999999999,-3.9916417999999996,-0.01633628,-0.27570966,-1.3895788
1.1740208,9.911458999999999,-1.5642468999999999,-0.09459685,-0.37950438,-1.5684227
2.639205,9.874062,0.23770592,-0.18668042,-0.70954615,-1.6945925
4.451348,9.278824,-0.09772173,-0.2968805,-0.9006597,-1.9650139
2.919911,9.172158,-2.0084288,-0.462425,-0.73192126,-2.3472235
-0.83819085,9.304279,-4.5721974,-0.5688901,-0.5754001999999999,-2.5569596000000003
-1.9877812,9.004458999999999,-4.882955,-0.6412863,-0.6094864000000001,-2.6959054
-0.8452298,9.071611,-3.6584839999999996,-0.7546804,-0.9687974,-2.9077535
1.746187,9.770315,-1.6543168000000001,-1.0181726999999998,-1.005519,-3.2500473999999997
3.5103211,10.054316499999999,-1.0783962999999999,-1.2609131000000002,-1.1455294,-3.6764314
2.6464642999999994,9.486957,-2.3260531,-1.6143771,-1.6799841,-3.8254824
0.3643209,9.378183,-3.7260961999999997,-1.7075429,-1.9131426999999999,-3.8994843999999995
0.24895866,10.269497,-3.482625,-1.4307337,-0.97624993,-3.970275
1.3375639,10.9655485,-2.958065,-1.0570412,1.693877,-3.9575167
1.9179375,11.435694,-3.3611047,-0.16538739,2.4258332,-3.0786211
0.14054921,12.568755,-2.3885033,0.12098622,0.8538674,-1.4427938
-0.77819216,14.096264999999999,-2.0879352,0.07840019,-0.8101644,0.07110471
0.8409394,14.809067,-2.2739074,-0.20903808,-2.0057673,1.9688536
3.500093,16.981947,-3.4397879000000002,-0.080215335,-1.7374753,2.493744
6.146299,18.907759,-3.9150464999999994,0.36053267,-0.49980995,3.1069652999999997
7.530578599999999,20.803679000000002,-5.3290809999999995,0.6022084,-0.03190462,3.8926775
9.789689,22.69415,-5.996125,0.7390073,-0.2592163,4.69436
7.307726,13.584432999999999,-4.572456,1.0152929,-0.56848866,5.312380999999999
0.24021505,8.624891,0.79278725,1.4187956,-0.4897045,5.8191546999999995
-5.149056,7.9956665,-0.19392076,1.7578782,-0.16285667,6.182218
-4.53027,3.2486444,-0.8072195,2.0905902,0.19963075,6.4845614000000005
-10.310736,2.7539642000000004,-5.642061,2.4504422999999997,0.6260321999999999,6.7927865999999995
-1.3561238000000002,3.778826,-2.7370226000000004,2.8438220000000003,1.1397348999999999,6.9120274
1.2453775,1.8495591,0.53096694,2.7251222,1.6108341,6.387696
-1.3287245,1.118571,0.61443835,2.19812,2.3566307999999996,5.513617
-3.0368437999999998,1.9617131,-0.7857004,1.6013745000000001,3.032684,3.7095578000000002
-2.2816549999999998,3.1809842999999995,-0.58898324,1.1829667,2.6659029999999997,1.3598733
-1.113141,3.6137697999999996,0.013666103999999998,0.6378655,2.4226391,-0.05715953
-0.13672808,4.303146400000001,0.1449354,0.34723327,1.426126,-1.5162548
0.5499003,6.0406666,-0.39830896,-0.30325097,0.5270196,-2.7618964
0.8131092,8.338803,-0.8239789000000001,-0.72272336,-1.8652334,0.14458308
0.9512068000000001,11.121038,-0.68343925,-1.4461623,-2.2101803,-3.0472403
1.2697697000000001,15.203822,-1.2674425,-0.19786797,1.5016987,-3.8137887000000004
0.9620668,19.5572,-2.0815474999999997,0.07468264,1.5443022,-2.8177817000000003
-1.7216320999999999,24.13496,-2.6835937999999997,0.5377883000000001,0.81393427,-2.1598449
-3.2020437999999998,22.941814,-3.2856873999999996,0.6517059000000001,0.5956809000000001,-1.8133098
-9.723466,15.19866,-5.104160299999999,0.31688198,0.5823815,-1.4614340000000001
-19.826155,11.262334,-2.5146012000000004,0.15559610000000001,-0.2618692,-0.90673345
-13.804670000000002,12.561428,-3.4502459,-0.027523842000000003,-1.3962459999999999,-0.37281978
-11.9914255,14.891973000000002,-5.373163,-0.20212658,-1.7076651000000003,-0.37390187
-7.225021000000001,17.252974,-11.669952,-0.061575215,-1.1934386000000001,-0.4680973
34.53699,22.102207,8.844057000000001,0.25087363,-0.45722390000000007,-0.70499086
-0.7854993,8.986723,3.9024148000000003,0.43771112,0.10861184,-0.9738239
-7.0850463,6.0228634,-1.058649,0.43132323,0.23584634,-1.1021056
-6.985514599999999,8.671981,-1.5621208,-0.015812684,-0.2512227,-1.0451555000000001
-2.8275043999999996,13.300892000000001,-3.4090176,-0.3453134,-0.8900132,-0.9541366
-2.8490522,10.142031,-3.8741057,-0.26600564,-1.0183123,-1.1436445
-4.1912127,8.587638,-3.1405222000000004,-0.2846283,-1.0662042,-1.341652
-2.1140323,9.072405999999999,-4.199401,-0.16858135,-0.47319368,-1.6243254999999999
0.9900503,9.8802,-2.7219298,-0.23726006,-0.040421825,-1.9234924
2.1256297,10.092862,-0.30921593,-0.31976178,-0.53122586,-1.8425790000000002
3.8376178999999997,9.654398,-0.04786488,-0.37192968,-0.9043773,-1.8505552
3.3297122000000003,8.944211,-0.8479591999999999,-0.45603707,-0.7755545,-2.0842547
1.5878056999999999,9.1455345,-3.9875238,-0.5529203,-0.5844583999999999,-2.3349888
-0.88073105,9.15221,-6.7753797,-0.70303607,-0.6281091,-2.6288150000000003
-0.49816632,9.224983,-4.7880297,-0.8584751,-0.63290876,-2.9610035
2.0634186000000003,8.506302,-4.0662646,-1.044789,-0.6871885,-3.3761997000000004
2.0824287,10.270014999999999,2.239795,-1.2374908000000002,-0.7819424,-3.763209
3.6822247999999997,10.228538,-2.2476766,-1.3870829,-1.0433229,-4.1230435
-0.0894761,9.469163,-2.1023292999999996,-1.3945355,-1.5862949,-4.035218700000001
-2.5003512000000003,9.835600999999999,-3.7670467000000003,-1.185864,-1.6650790000000002,-3.8318703000000003
-0.70091695,10.883294,-2.5437243,-0.93087137,0.51583207,-3.4432902000000003
0.812956,11.752035000000001,-1.7913417,-0.027523842000000003,1.5219445,-2.7496614
0.5154046,13.048055,-2.3729699,0.25778514,-0.20757201,-1.2511567
0.50097233,14.427325,-1.6117861,0.34030429999999995,-1.6155815,0.2441192
2.126233,15.033872,-2.447372,0.033684853,-2.448121,2.1035407000000004
3.4732203,16.240292,-3.4609432,0.29504790000000003,-1.7795377000000001,2.5559998
6.294011599999999,19.03078,-4.6113377,0.8997696,-0.44872415,3.2091717999999996
7.850434299999999,21.569008,-5.113124,1.1467686000000001,0.20071286,4.008201000000001
7.591142,21.759693,-7.403828999999999,1.3623691,0.4274835,4.5756597999999995
6.037995,15.1878,-6.4210577,1.6785703999999997,0.5946336999999999,5.107985500000001
-0.94524044,9.269248,-0.095078535,1.9037353,0.86824894,5.5934663
-5.2185073,7.444578599999999,0.2472157,2.0463986000000003,1.1131011,5.986846
-4.477377400000001,1.542881,-0.5624458999999999,2.1571221,1.3356306999999998,6.364797
-9.848089,1.7609928,-5.601005000000001,2.2987208,1.486811,6.828984700000001
-0.52007806,3.793967,-2.6066442000000003,2.3918865,1.6262629,7.0477614
1.2367584999999999,1.7017026999999998,1.9845825000000001,2.1353056,1.6465087,6.5947614
-1.4454561000000001,0.56847924,1.2471493,1.7882295,2.4119924999999998,5.488607
-1.1368531000000002,1.9914777,-0.010237606,1.4299657,2.55785,3.0585325
-0.27564922,3.6947322,0.96111876,0.761365,1.6049873,0.7312057
-0.17347427,4.5450954,0.88152593,0.29930650000000003,1.7785254000000001,-0.19343483
0.31538340000000004,5.7522902,0.29548278,-0.26918212,0.20603612,-1.9719254000000002
0.29937097,7.8230059999999995,0.07190266,-0.4331558,-0.9081123,-2.4350482999999996
0.40452433,9.70755,-0.21239443,-1.2215209999999999,-3.9375675,1.1299261999999999
0.32377267,12.084397000000001,-0.18524417,-1.227909,-1.484612,-3.7435042999999997
0.9142976999999999,16.271273,-0.9726396,-0.22394319,1.8397341,-3.528986
0.20424455,21.506493,-2.1057672999999997,0.023561945,1.1801916000000001,-2.4297252
-1.8694406000000003,24.722755,-1.3251524,0.39779544,0.31250120000000003,-1.5125198
-4.4350575999999995,19.883865,-3.7939572,0.58410937,0.46579346,-1.5817395
-16.339842,13.659562,-3.1698560000000002,0.38927823,0.58185786,-1.4928324
-19.343445000000003,12.267123,-2.2920842,0.12524483,-0.26771605,-1.0579313
-15.119076999999999,12.813365,-4.565436,-0.17390461,-1.2040852,-0.60013145
-14.844012,14.4847765,-6.4820137,-0.35330700000000004,-1.3872051,-0.50750685
11.003884,20.914156,-10.364384,-0.13505358,-1.188639,-0.49312532
17.944426999999997,17.91133,9.938168,0.17367771,-0.8846898999999999,-0.6853035
-2.0395534,7.9776335000000005,1.4049653999999998,0.26684338,-0.13730505,-0.8976926
-11.22011,5.7399163,-0.11815864599999999,0.19870573,0.13735741,-0.9972462
-4.920793,8.569567,0.4247218,0.044331364000000005,-0.43434262,-0.8465894
0.44386584,13.320065,-3.128264,-0.11163126,-1.375494,-0.8002858
-0.6982736999999999,9.89017,-4.382203,-0.14037684,-1.6022646,-0.9993755
-3.5340714,8.0721855,-4.8694234000000005,-0.14302973,-1.0507754999999999,-1.3789148
-1.7528333999999999,9.431153,-5.0315010000000004,-0.20957914,-0.35023522,-1.8079691000000002
-0.08781932,9.675677,-2.700468,-0.28942794,-0.21928316,-2.0272872
0.82462054,9.725878999999999,0.061320294000000004,-0.36767107,-0.4593532,-2.1145885
2.986441,9.370063,-0.350061,-0.44964918,-0.57009435,-2.1864612
2.8055925,9.2195635,-1.8748515,-0.50235814,-0.677083,-2.2657689999999997
0.5099362000000001,9.443555,-3.5703964,-0.6093468000000001,-0.56262434,-2.4994512
-1.9234153999999999,9.131160000000001,-4.291367,-0.7365813,-0.53600806,-2.7901008
-0.88734865,9.121382,-4.016723000000001,-0.9165073,-0.6541843,-3.1371944
2.1081905,9.841969500000001,-2.4082987,-1.1565773000000001,-0.789936,-3.4991581
4.1729403,9.87725,-2.3049552,-1.3503438,-1.1417944,-3.949523
2.8669127999999997,9.339953,-2.4838312,-1.4738433000000002,-1.3116149,-4.1262550000000005
0.30495426,9.5605545,-3.4284296000000003,-1.3641843,-1.9732866999999998,-3.8451872000000002
-0.89489514,10.826187,-2.8796787,-1.2784886,-0.17137387,-3.5582726000000005
-1.2125386999999999,11.4378,-2.8420994,-0.4336794,1.7588206999999998,-3.592865
-0.79611033,12.327505,-2.8000380000000002,-0.2718525,0.7053574,-1.4875093000000001
0.12106041599999999,13.612348999999998,-1.7293128,0.045919612,-0.8490154000000001,-0.8428544
1.1957408999999999,14.351429000000001,-2.5627728,-0.3170914,-1.8045483,1.435481
1.9048556,15.293078,-3.403233,-0.2633353,-1.4170153,2.1306806000000003
4.7710214,18.110295999999998,-5.1271544,0.11725122,-0.26345745,2.6411892999999997
7.1173677,20.72832,-4.986519,0.38927823,0.47804567,3.3433352
7.268758,22.850193,-5.4649186,0.49361402,0.37583920000000004,4.2349714999999994
6.89985,18.218754,-6.1794157,0.6937684000000001,0.050056044,4.9179363
1.5994416,10.645578,-0.57428277,1.0083814,0.187396,5.4247274
-4.919557599999999,7.833359,1.1788281999999999,1.2995546999999998,0.59302795,5.8473763
-5.058546,5.8475980000000005,-3.2749424,1.5252607,0.8804837,6.205099
-7.9822397,1.7969921000000002,-4.728261,1.7296736000000001,1.0034596,6.5532403
-3.0215209,3.3166876000000003,-2.795489,2.0171294,1.1354764,6.9748589999999995
1.7880856,2.5439255000000003,0.5764471,2.1741567,1.2190427,7.029139
-0.11255621,1.6886592,1.5188816,2.075144,1.419738,6.564951400000001
-2.66761,2.1759942000000003,0.14243585,1.7988758999999999,1.8349519,5.3549843
-2.9111865000000003,3.3331597,-0.25395778,1.4251835,1.7913013,3.255493
-1.4947671999999999,4.1456847,0.5790712,0.96951294,1.5102334,1.2928003000000001
-0.30470526,4.615465,0.87684286,0.5606869999999999,1.3803459999999999,-0.23760912
0.013053186999999999,5.9978584999999995,0.28168259999999995,0.054436818,0.9198758,-1.7526072
-0.005018247,7.906344,-0.35033876,-0.18083356,0.41257837,-2.7342153
-0.06306327,9.383183,-0.48106217,-1.0261489,-2.2367966,1.1400316000000001
-0.27223990000000003,11.743895,-0.48308286,-0.67483157,-0.5269673,-4.59896
0.27727729999999995,16.263458,-1.5141506,0.12576842,1.5347203999999999,-3.3799348
-1.7939561999999998,20.595821,-1.8305875,0.4137652,0.6787411,-2.6666187999999997
-3.0776696,23.887009,-4.3750205,0.74539524,0.31248376,-2.0320868
-7.629009,19.642471,-5.4154067,0.44996333,0.43333036,-1.8356501
-15.966826000000001,13.364107999999998,-4.3774147,0.16624261,0.34124678,-1.390085
-13.839176,12.239073,-2.4280652999999996,0.04166101,-0.6105335999999999,-0.81306165
-14.664102999999999,12.878871,-4.6675825,-0.17549285,-1.6304691,-0.43989277
-13.751012,13.852248000000001,-5.150062,-0.26759390000000005,-1.8476578999999997,-0.48619637
16.190397,23.111143,-6.854494,-0.011013027,-1.3589832,-0.5538104
14.492810999999998,16.438608,12.824867,0.19764109,-0.5908463,-0.77845174
-5.0574636,5.9117537,1.7297053,0.19977039,0.19591321,-1.0387676
-8.596189500000001,6.368366,-2.9624127999999996,0.094911,0.028239427,-1.066431
-4.433898999999999,11.224314999999999,-3.2401402000000004,-0.06637487,-0.77023125,-0.8806582000000001
-0.8780304,12.225455,-3.9516587,-0.12599532,-1.2818047,-0.8726821
-3.4041815000000004,9.072175999999999,-3.3612964,-0.089273594,-1.0874972,-1.0611253
-4.3078775,8.561176,-4.04577,-0.05572836,-0.4550946,-1.3395226999999998
-0.5602049,9.461819,-4.007319,-0.06424557,-0.33213615,-1.5716166
0.9000475,9.836702,-1.8936316000000002,-0.14090043,-0.44444808,-1.6881871
1.8356535,9.795444999999999,-0.14582604,-0.21223204,-0.75319684,-1.7941287000000001
4.0661879999999995,9.446178,-0.91298574,-0.34477234,-0.7393564,-2.0879722
3.0396113,9.227608,-2.3302479,-0.48211229999999994,-0.50780356,-2.3520057
-0.5959168,9.243132000000001,-4.1113234,-0.5651550999999999,-0.5237733,-2.5851642999999997
-1.81401,9.016822,-4.2268767,-0.7104885999999999,-0.58552307,-2.8422687
0.017046716,9.373654,-2.8035815,-0.9122486999999999,-0.5961696,-3.2558942
2.5317247000000003,9.915977999999999,-1.498732,-1.1432779,-0.64194953,-3.6907954
2.6559646,9.957742999999999,-1.6367625,-1.3498201,-1.0843033000000002,-4.1571126000000005
1.0453371999999999,9.5027685,-3.1088803,-1.5297462,-1.5261333000000001,-4.3274565
-0.5147151,9.698605,-2.9282906000000004,-1.3764365,-1.6267515,-4.1124144
-0.16382086,10.187634,-3.2294044,-1.0559591,0.8661196,-4.574996499999999
1.4596681999999999,11.219257,-2.8796597000000004,-0.23565435,1.9036131999999997,-3.8238943
0.95451075,12.791367999999999,-2.9083900000000003,-0.13290682,-0.3294658,-1.6014268
-0.07117483,14.020464000000002,-1.744377,-0.37405896,-2.6328466,-0.023073252000000002
1.4118704,14.224728,-1.6394726000000002,-0.48904127,-3.1843357000000005,1.8501537000000001
3.109982,15.187399,-3.302782,-0.2223375,-2.1037152000000003,2.2887897
5.4916472,18.208948,-5.347076,0.29187140000000006,-0.25706956,2.7913224999999997
7.9957814,21.156374,-5.8863845,0.6921801,0.7218507,3.5099443999999997
8.882966999999999,23.889948,-6.4656377,0.8864702,0.7830769000000001,4.334525
7.622889,18.277382,-6.744561999999999,1.0286098,0.7106806,4.935529
1.9429330000000002,9.729318,0.29586586,1.2793263000000001,0.8629256999999999,5.469443
-10.37623,7.176524000000001,-0.70441246,1.5124848999999998,1.0151708000000002,5.9522533
-5.9574537,4.900739,-1.62256,1.6924108,1.0886316,6.405794599999999
-9.283469,3.5237667999999998,-4.3588643,1.8563671000000002,1.1285473,6.6879272
0.1613692,2.667648,-1.3834273000000001,2.0549333,1.1620926,7.044061699999999
3.1052606,0.8592694,2.3851805,2.054392,1.1519697,6.963671700000001
0.7403542,0.43473914,2.7766995,1.9005414,1.4873347,6.393018700000001
-1.655102,2.3331207999999997,1.411449,1.6945401000000002,2.2262022,4.961604599999999
-2.0735033,3.2580678,-0.10027875,1.4363536,2.6164057,2.8078157999999998
-1.1670105,3.7391300000000003,0.20694523,0.8577246,1.8509216,0.51241124
-0.59267026,4.5908430000000005,0.5098309,0.25087363,1.5985994,-0.67676884
-0.24366269,6.2592573,-0.006349423000000001,-0.12866567,0.39180896,-1.9447855
0.3187353,8.534658,-0.5177413,-0.13929473,-0.68080056,-2.2710922000000004
0.6942802,10.16578,-0.30670682,-1.4413801000000002,-3.0246382,0.868022
0.23719835,13.272219,-0.46500185,-0.6242519,-0.27410397,-4.3567433
0.02629791,18.076271,-1.8429893,0.059777527999999996,1.891902,-3.2947452000000004
-2.9253123,21.41672,-2.6641814999999998,0.22160445,0.9475566999999999,-2.4786818
-3.258882,23.883043,-3.7992150000000002,0.7299665,0.47698104,-1.8404323
-7.323336599999999,17.765293,-3.9652769999999995,0.57026887,0.60528016,-1.7350318
-13.954212,12.330513,-4.722582,0.2854835,0.49455649999999995,-1.4002079
-17.039639,12.937548,-3.5561748,0.06881833,-0.50780356,-0.87798786
-16.037052,12.523255,-4.631727,-0.20106193,-1.3563303,-0.5500929
-14.019860999999999,13.104633,-7.6585436,-0.3123092,-1.5335858999999998,-0.5117654
20.868208,24.018593,-7.3559356,-0.14248867,-1.28074,-0.4893903
13.477622,15.326789000000002,13.150938,0.1518611,-0.7356388,-0.6698574
-4.569228599999999,5.6417923,0.8158482,0.24822073,-0.0058119465,-0.956772
-8.797887,6.33026,-0.9957868000000001,0.14706144,0.1719673,-1.0467438
-4.1151156,10.418847999999999,-0.92604846,-0.012077678,-0.4550946,-0.9152332000000001
-0.7148799,13.201293,-4.514823000000001,-0.16538739,-1.2067381000000001,-0.86308277
-2.6388605,9.3600645,-3.8649502,-0.16645205,-1.396787,-0.95146626
-3.587472,8.354108,-4.077344999999999,-0.111090206,-0.8255931000000001,-1.1750254999999998
-0.71016806,9.6458845,-3.9770565,-0.11588986,-0.34330627,-1.4545051000000002
0.337343,9.789852,-2.0271703999999997,-0.15154694,-0.35608208,-1.6142026000000003
1.1150084999999998,9.733196000000001,-0.04684974,-0.21596704,-0.48651052,-1.6621119999999998
3.5769565,9.606619,-0.17412551,-0.27131143,-0.673348,-1.7424843
3.1670117,9.3811245,-1.6703004000000001,-0.35328954,-0.6712187,-1.9346626
0.18404707,9.4491,-3.2536721,-0.46348962,-0.606275,-2.0922134
-1.300856,9.180931,-4.2730274,-0.56250215,-0.45882959999999995,-2.292909
-0.8361223,9.163932,-3.3513462999999994,-0.6652496999999999,-0.54293704,-2.515421
1.4092271,9.725363,-1.8805208999999998,-0.83238244,-0.6398203,-2.9040183999999996
2.7533321,10.152718,-1.0697484,-1.0495712,-0.5296202,-3.3527775
1.8277718999999997,9.6815195,-1.8473468999999998,-1.154448,-0.6547254,-3.8297410000000003
0.13847105,9.2531395,-3.0214922000000004,-1.2790122,-0.9448340000000001,-4.0448008
-1.0518878,9.856124000000001,-2.6350296,-1.2539841999999999,-1.5075107,-3.9931562000000005
-0.48359042,10.687793,-2.5859294,-1.1709589,-1.0438465000000001,-3.5987117
0.034055125,11.329678999999999,-2.377787,-0.70781827,0.49562114,-3.2574825
-0.020187909,12.166605,-2.4886386000000003,-0.21436134,0.037821285,-1.9756429
-0.30512664,13.616016,-1.5012219,0.18540633,-1.1066610000000001,-1.4534403999999999
0.68166757,14.343604000000001,-1.5741493,-0.033370696,-1.7843199,0.71150094
2.4738805,14.777395,-2.6416185000000003,-0.25055948,-1.7587683,1.7825571
4.806647,16.913204,-4.6541657,0.18114772,-0.5839174,2.2456803
6.4646606,18.846256,-5.556243,0.7086735,0.6829997,2.9179986
6.0674624,20.431131,-7.000128299999999,0.8779530000000001,1.1865796,3.7281977999999993
6.4030623,19.160345,-7.447030000000001,1.0110344,1.0604097,4.471865
0.6095733,11.387599,-3.7342362000000002,1.2191823,0.8554731,5.174535
-3.9543017999999996,9.180921000000001,1.7370029999999999,1.4416768999999998,0.8538674,5.6088949999999995
-5.7032375,8.441266,-2.8958923999999997,1.6631242,0.9890780999999998,6.038490299999999
-4.2537684,2.3166487,-0.6552547,1.8366798,0.9837548,6.451575
-5.7332606,3.101899,-3.9398887000000005,2.0330991999999997,0.9241344000000001,6.871588
2.164387,3.5579753,-0.6537128000000001,2.3524945,1.1125776,7.117522200000001
1.3019286,1.5818393999999998,2.6796193,2.353559,1.1871032,6.8332605
-1.4770212999999999,1.7033788,1.0381833,2.066627,1.6161573999999999,6.1273800000000005
-2.111868,2.8623927000000005,-0.44761997,1.7227621,2.3646069,4.042811
-2.0856276,3.7991385,0.23172042,1.2580333000000001,1.8658267,1.7085726000000003
-1.0687238000000001,4.2939050000000005,0.18286912,0.6958977,1.6986766,0.58430135
-0.21478862,5.195158999999999,-0.00956723,0.3695909,0.6904523,-0.9615716999999999
-0.53383994,7.1174445,-0.57402426,-0.32614967,-0.17189747,-2.6309443
-0.23576182,9.211423,-1.0323030999999998,-0.47465974,-1.1167839,-2.2742862999999995
-0.0031986535,11.177168,-1.1845648000000002,-1.1906462,-2.2692597,0.6998072
0.6235555,15.429931,-1.3747506,-0.83611745,0.24701644,-4.2135563
0.09254069,20.363913,-3.3610568,-0.034435347000000005,3.3605967000000003,-3.3729885000000004
-1.5790621999999999,23.669777,-3.2315593,0.29825932,1.8668914,-2.5665240000000002
-1.6010027,21.724249,-4.14579,0.6107256,0.5169142,-1.9953476000000003
-8.887122999999999,15.482823000000002,-5.1788015,0.65118235,0.6531895000000001,-1.8713071
-18.816616,12.453842999999999,-2.2703545,0.23225096,0.38755035,-1.4119016000000002
-12.474116,12.013874000000001,-3.1892970000000003,0.028902652,-0.7478736,-0.8077209
-12.310344,12.650406,-3.0449648,-0.20638518,-1.5783011999999998,-0.34939745
-8.829394,14.828651,-4.3207393,-0.25481808,-1.594271,-0.3509857
13.676829000000001,19.00975,-5.370185,0.0054803337,-1.0209652,-0.41647047
21.508139,16.574483999999998,12.629902000000001,0.3003886,-0.22619466,-0.6416354000000001
-5.445812999999999,6.829891,0.5283045999999999,0.39566615,0.24755749999999999,-0.8992809000000002
-7.902178,7.9978595,-1.2649812,0.22745131,0.026633725,-0.88277006
-4.2762837,9.545509,-1.4151168,-0.020594886,-0.7776838,-0.68741536
-2.125649,11.970558,-5.2089495999999995,-0.1573938,-1.3919873,-0.60809016
-3.6550171000000002,10.304108,-4.404488,-0.110025555,-1.2695524999999999,-0.69595003
-4.995808,8.731396,-4.4334197,-0.00036651915,-0.7201927,-0.93921405
-1.3275848999999997,9.235538,-3.797769,0.0070685832999999995,-0.26293385,-1.2319930000000001
0.94911903,9.864101,-1.601903,-0.044017203,-0.42315507,-1.387432
2.18695,9.940074000000001,0.0049320552,-0.15687019,-0.5354845,-1.5167783000000001
3.7804157999999997,9.356617,-0.36768234,-0.22607249,-0.7606494,-1.6243081
2.7143447,9.2935915,-2.2384446,-0.37671188,-0.83891,-1.9804251
-0.54663455,9.386056,-4.3973246,-0.5433384,-0.6046868000000001,-2.3349712000000005
-1.634464,9.118949,-4.9332814,-0.6439391999999999,-0.5658183000000001,-2.5324552000000002
-0.7334972,9.159152,-3.4280467000000003,-0.7504043,-0.5317495,-2.7443209
2.079479,9.746191,-1.7506881,-0.9415179,-0.5567774999999999,-3.0328412
3.5497105,9.821944,-1.3902458,-1.153907,-0.56316537,-3.3671415000000002
1.9510541000000001,9.404079,-2.3816752,-1.4163522,-0.8575325999999999,-3.8920144999999997
0.7944536,9.2911215,-3.4959369,-1.5776379999999999,-1.2509298,-4.1927695
-0.14359464,10.109009,-3.124711,-1.3710958,-1.6517621,-4.229508999999999
0.50939035,10.558679,-3.7010910000000004,-1.3247921,-0.9091769000000001,-4.2332263
2.0656023,10.82749,-3.3535678,-0.8989318000000001,0.91561717,-3.8957319999999998
1.7115574,11.765414,-3.320461,-0.09245009,1.0162354,-2.3408182
0.27703786,13.276203,-1.9848986000000002,0.30197686,-0.09791297,-1.3570806999999998
0.50307924,13.97374,-1.9841611000000001,0.03954916,-1.6746609000000001,0.83182395
1.7699758,14.722875,-2.5822997,-0.086062185,-2.3278155,1.9853817999999999
4.461135400000001,17.097157,-5.2242055,0.3291342,-1.4191446,2.2733612
7.1577915999999995,18.17138,-5.539071599999999,0.76989967,-0.22513002,2.8796885
7.8353796,19.699558,-6.0244913,1.0062521999999998,0.09637708,3.7239392
7.4687410000000005,23.329552,-6.2840419999999995,1.1340101999999999,-0.10056587,4.5277505
4.0647993,13.424107999999999,-4.055537999999999,1.3639573999999999,-0.35342917,5.2868466
-2.805018,8.114063999999999,0.99520266,1.6413076000000002,-0.26984537,5.815472
-6.415024,7.495757000000001,-1.4320389999999998,1.9112053,0.046862092,6.1423025
-5.3315806,2.5969043,-0.9964284999999999,2.156075,0.42003092,6.477667299999999
-7.6967936,3.3784099999999997,-3.9398985,2.4791877,0.7213271,6.7949333
1.3426875,3.5690174,-0.9837392,2.8092296,0.9065764000000001,7.0291567
1.6143718999999999,1.8099878,1.7986008999999998,2.7214046,1.468712,6.4302816
-1.4575708,1.3790315,0.9182434000000002,2.3727229,2.7047717999999996,5.5375805
-2.7067885,2.7097192000000003,0.13419979999999998,1.576905,3.319075,3.585011
-2.5889556000000002,3.2288202999999998,0.12508267,1.0930125,2.7478812,0.7775441999999999
-1.7642394000000001,3.2845767,0.13515747,0.59423226,2.5642378,-0.381337
0.05286397,3.9964013,-0.07459375,0.32646385,1.1982906999999998,-1.5652287
0.8601313,5.630032,-0.33003592,-0.27982864,0.9800373,-3.030712
0.82239866,7.9680089999999995,-0.64776564,-0.9553583000000001,-1.4462845,0.7754149
0.61416066,10.589353,-0.36992332,-1.0596940000000001,-1.1167839,-4.0559707000000005
0.42644560000000004,15.292647,-1.4757763000000002,-0.020594886,1.5671834999999998,-3.3192322
-0.03019567,20.109724,-1.7811711,0.23170991,0.9613972,-2.6240153
-2.4876617999999997,25.619298999999998,-1.9429330000000002,0.6852512,0.4966858,-2.0544271000000003
-1.9018772000000002,23.166592,-3.7802913,0.5473876,0.53447217,-1.8431026000000001
-11.163435,14.742498000000001,-4.920946,0.22851595,0.6345494,-1.4417292
-22.73917,10.857906,-3.4786599999999996,0.048066366,-0.28209758,-0.84444267
-14.027867,13.154596,-3.2296631000000002,-0.20530307,-1.4367027,-0.31798154
-9.598460000000001,14.350203500000001,-3.8488898000000002,-0.35063663,-1.6538914,-0.3153112
1.223619,19.551855,-8.997879,-0.19945623,-1.2301604,-0.39730674
23.807922,19.812448999999997,13.263330999999999,0.12365658,-0.44073054,-0.6038315
-4.8678145,6.3851824,2.6103982999999995,0.3046472,0.21455333,-0.87105894
-7.498514999999999,6.463415599999999,-2.1457314,0.28228956,0.23584634,-0.98710585
-5.2577815,10.886061999999999,-2.738057,0.05338962,-0.4380602,-0.89821625
-1.0006998,12.774262,-3.4124748999999994,-0.17442821,-0.9703856,-0.80878556
-3.3075322999999996,9.191483999999999,-3.6826269999999997,-0.20638518,-1.2365483,-0.85456556
-4.6858163,8.725371,-3.938098,-0.110025555,-0.9682563,-1.0073341999999998
-1.9498282999999998,9.34184,-4.172854,-0.036023594,-0.59191096,-1.2671264
0.79728836,9.828121000000001,-2.4857657000000004,-0.13664183,-0.46893507,-1.5811985
1.8786247999999999,9.928707000000001,-0.26378357,-0.2223375,-0.59456384,-1.7675123
3.5407178,9.63467,0.10718363,-0.34211943,-0.7611904,-2.0049121
3.2602036,9.248639,-1.1351103,-0.46933648,-0.7127401,-2.2716157000000003
0.8656091999999999,9.253062,-3.0522432,-0.54972637,-0.5871113,-2.4275784
-0.8745061,9.177406,-4.89077,-0.65406215,-0.5535835,-2.5670652
-1.0985651,9.174629,-4.0816636,-0.7855378000000001,-0.6323677,-2.8214992999999997
0.70899975,9.537293,-2.7171412,-1.0005972,-0.5780705,-3.1755044
1.8217671999999998,10.030402,-0.6652146,-1.1688120000000002,-0.77396625,-3.6955949999999995
2.8299081000000004,9.718736,-1.5143708,-1.3668371000000001,-1.0252238999999999,-4.1539187
1.6578313999999998,9.47556,-3.3363297,-1.2492020000000001,-1.6629497,-4.1975694
0.44044694,10.022185,-3.352955,-1.2177861,-1.3121386,-4.208757
0.84907013,10.910186,-2.8644323,-0.9042551,-0.012199851999999999,-4.0410657
0.80124354,11.229333,-2.7520201,-0.10735519999999998,-0.25813420000000004,-2.6346617
-0.111933716,12.777299000000001,-2.1772583,0.16304865,-1.7012771,-1.4108368999999998
-0.534223,13.88456,-1.4354293,0.26951376,-2.3752012000000002,0.27820548
1.5033575000000001,14.358026999999998,-1.8550754,0.24076816,-2.4859247000000004,1.8475183000000002
3.2000612999999998,16.072123,-4.0329657,0.69324476,-0.8442332,2.017304
5.896239,18.455944,-5.778434799999999,1.1553031999999999,0.7931823,2.5033257
7.4779444,20.05635,-6.617027799999999,1.4337007,1.2696223,3.292232
7.5249186,22.708889000000003,-8.121889,1.5039676000000002,1.0566921,4.155664
3.9713008000000003,16.78278,-5.552096400000001,1.5534827,0.7825358,5.0079255
-2.7207038,8.467343,0.67522234,1.7025337,0.8868716,5.4976650000000005
-8.207697,6.840062,-2.531246,1.8334858,1.0529572,5.9192667000000005
-2.6772635,4.8869777,0.49414408,1.9442095000000001,1.1732627,6.2759247
-7.3124094,2.7631388,-2.4481957000000003,2.003289,0.98110193,6.710825999999999
2.7715662,2.3867798,-0.13305058,2.1252002999999995,0.71174526,7.1483974
4.399269,0.5743307,3.1762054,2.116683,0.5829225,6.964230000000001
-0.27150247,0.46452302,1.8918023000000002,2.0373578,1.0119768,6.3312864
-2.7586663,2.8716342,0.41759664,1.9165286,2.0414941000000004,4.644880000000001
-3.1077122999999998,3.4154053,-0.16877207,1.4209249,2.194804,2.2861369
-1.2358487,3.7878663999999995,0.15937722,0.74221873,2.1985214,0.28246409999999994
0.41752005,4.9847470000000005,0.62732875,0.31529373,2.1607351,-1.1388273000000002
0.45351925,7.032441,0.09192777,-0.086062185,1.2062669,-2.555354
0.05249048,9.004823,-0.36090198,-0.24097762,0.024504422999999997,-2.1890967
-0.5508771,10.88137,-0.80061144,-1.5079122,-1.8088069,-0.57510346
-0.34522474,14.589891,-1.6943191000000002,-0.5944417,0.44345325,-4.3673725
-0.1640507,18.661339,-2.8326566000000004,-0.033894293,1.3696995,-2.9764147000000003
-1.7535133,22.3427,-1.8307023999999998,0.21628119999999998,0.434395,-2.2183832999999997
-1.4802104,22.918295,-2.6726186000000003,0.6229778,0.58185786,-2.1060712
-7.2031089999999995,16.220678,-3.6674094,0.38076103,1.0620154,-1.9389037
-14.933957999999999,12.403238,-2.3319237,0.20457004,0.5887694,-1.3826323999999999
-13.072035000000001,13.308705999999999,-3.0580275,0.06403613,-0.61001,-0.80717987
-13.358707,12.431548,-4.371985,-0.17922786,-1.5133575000000001,-0.38666025
-9.535024,13.887807,-8.427715,-0.20210913,-1.6049175,-0.38505453
24.177597,22.56765,-3.0259547,0.057648227,-1.0906912,-0.45478043
5.6754837,13.263073,11.952986,0.25513223,-0.41783180000000003,-0.67676884
-7.731222,7.1340985,0.53225017,0.26738444,0.12512265,-0.90886277
-5.886691000000001,7.3587804000000006,-2.210777,0.13217378,-0.05000368,-0.88172287
-0.8484572,10.720766000000001,-3.0757256,-0.06424557,-0.9160884,-0.7012384
-1.9717305,11.613659,-4.1191087,-0.15207054,-1.3318433,-0.6762278
-4.3825765,9.124341000000001,-3.0022142000000005,-0.08340929,-1.1726693000000001,-0.8215614
-4.778683,8.971141000000001,-4.230544999999999,-0.020594886,-0.5706179,-1.1164696000000003
-0.98828816,9.566425,-3.7536867,-0.03656465,-0.35023522,-1.4230891
0.61093324,9.659215,-1.314206,-0.14302973,-0.49235737,-1.5817046000000001
2.0368528,9.715067,-0.40572140000000007,-0.20797344,-0.6430142,-1.7057452000000002
3.7421756,9.387522,-1.3293566,-0.2910162,-0.7425503000000001,-1.8910118000000002
2.1413740000000003,9.412842999999999,-2.572589,-0.39961058,-0.6632425999999999,-2.1156533
-0.8937841999999999,9.302594000000001,-4.321112599999999,-0.48850020000000005,-0.5929755999999999,-2.2859974
-1.6835068,8.942314,-4.515244,-0.61093503,-0.4375366,-2.5185974
-0.23464134,9.337847,-3.3028873999999995,-0.72272336,-0.4822519,-2.7837129000000003
2.5266201,9.961057,-1.3960493999999999,-0.9244834000000001,-0.47745228,-3.0658453
3.1490552000000003,9.829395,-1.7522779999999998,-1.101739,-0.70315826,-3.5268393
1.7989648999999999,9.246578999999999,-2.8762982000000004,-1.309346,-1.0640749,-3.9521585
0.44697829999999994,9.487226,-3.4801924,-1.3136046000000001,-1.5330622999999999,-4.1741467000000005
-0.06504567,10.247738,-3.3456001000000004,-1.1368725,-1.658691,-4.0623584
0.41805634,10.967111000000001,-3.0437486000000002,-1.0522416,0.21668263,-3.8845617999999993
0.45586556,11.439007,-2.8400595,-0.21169098,1.0316641,-3.3341373999999995
0.40753144,12.868145,-2.1968142999999998,0.045396015,-0.019652408,-1.3847617
0.26834214,13.633657000000001,-1.4251629,0.2556733,-1.4867413,-0.29934140000000004
1.2268465,13.914372,-2.1373422000000004,-0.02591814,-2.615271,1.6798096000000002
2.5976992,15.244273999999999,-3.7906915999999997,0.10662217,-2.1644002999999996,2.1434738999999996
5.7730713,17.342726000000003,-5.187919,0.60274947,-0.57965875,2.5767868
7.283276600000001,19.215889999999998,-5.309880000000001,0.9657954,0.46368159999999997,3.3566345999999996
7.3543744,22.2777,-5.4727044000000005,1.0770427,0.4988151,4.189192
6.0992093,17.41638,-5.702251,1.1095233,0.13576916,4.992479299999999
-0.39014953,10.309749,-0.62112296,1.2910374,0.010140363000000001,5.5567446
-6.0225186,8.314939,0.3859166,1.5694350000000001,0.16877334,6.012938500000001
-4.545458999999999,4.9351106,-0.7623425,1.7924881000000001,0.36360446,6.3919544
-9.2019415,2.4417120999999997,-4.730224,1.9883838,0.4147077,6.7624526
-0.9016755,3.2246162999999997,-2.5089126,2.3035203999999996,0.5738643,7.054167
2.9917178,1.8461113999999998,1.3928317,2.6522023999999997,0.907641,6.8231378
0.33316755,0.59902924,2.2165422,2.5180387000000004,1.4122856000000001,6.203511
-2.2176437,1.7498645,0.8042889,2.2678458999999997,2.6653795,4.713
-2.7880000000000003,3.1277275,-0.67905307,1.7972703,3.4611974,2.2584386000000003
-1.5216684,3.7228496,-0.82580805,0.9301209,2.9581584999999997,-0.015620696000000002
-0.21047907,4.3302584,-0.13303141,0.43345252,2.5477269000000002,-0.9823411
0.047577575,5.759396,-0.20840089,0.11140437,0.51530844,-2.1635625
0.08027279400000001,8.147057,-0.91137683,-0.2952748,-0.26612779999999997,-2.392986
0.37108213,10.479794,-1.1151806999999998,-1.3466088,-1.6874367,0.5278748000000001
0.86664355,14.038219,-0.5985696,-0.40599850000000004,0.47218138,-4.4743958
0.58478856,18.799357999999998,-2.1736097,0.14227924,1.9195830000000003,-2.8992362000000003
-2.2317886000000002,21.295889000000003,-3.03851,0.42599997,1.0119768,-2.3472235
-1.2675862,23.387367,-3.0147405,0.80236274,0.6616892,-2.035822
-4.5154065999999995,18.02969,-3.4511747,0.48668507,0.8512145000000001,-1.6637176
-14.135145999999999,12.951222999999999,-6.1342897,0.16250761,0.23795820000000004,-1.1031877
-19.389671,12.2597685,-3.1453203999999997,-0.011013027,-1.0161656,-0.5064422000000001
-15.732701,12.135019999999999,-4.4994044,-0.21755528,-1.7369516999999999,-0.31534609999999996
-9.636585,13.360401999999999,-5.3144383,-0.17551029999999998,-1.5538143,-0.36910224
22.233189000000003,23.344616000000002,-3.7762307999999996,0.13269739,-0.7372271,-0.5282588
8.331496000000001,14.371685000000001,12.671063,0.38980183,0.11180579,-0.82636106
-6.5583315,5.995340000000001,0.5889257,0.42388812,0.3146305,-1.0179982
-6.4024980000000005,7.640778999999999,-2.3213317000000004,0.19338249,-0.19533725,-0.904098
-3.4074662000000004,12.047537,-2.9331652999999998,-0.10950196,-1.0193596,-0.75183547
-2.323027,11.318817999999998,-5.1256123,-0.17603391,-1.46386,-0.74492395
-4.137918,8.870133000000001,-3.8308854,-0.06691592,-1.1375358,-0.98659974
-3.9093866000000004,8.749716000000001,-4.3196282,0.032620203,-0.47479936,-1.3177061
0.12740983,9.695655,-3.3392794,-0.022724187000000003,-0.21821852,-1.631237
