accx,accy,accz,gyrx,gyry,gyrz
-7.514480000000001,9.589831,-12.11084,0.1847431,-1.3395053,-0.5414535
-9.520964999999999,10.167053999999998,-4.1315684,0.17783159,-1.0946356000000002,-0.8076161999999999
-7.642866000000001,8.333211,-7.654703,0.20924753,-0.860936,-1.021611
-1.1380788999999998,9.772366,-0.7317351,0.14217453,-0.83857834,-1.2148364999999999
5.1223564,12.012802,-0.13563631,0.13363986,-0.94719017,-1.3532585
1.0769407,11.088238,-4.689781,0.11341149,-0.87479395,-1.5986518
-2.9262507,9.289369,-4.40785,0.012810716000000002,-0.6714456,-1.9435986
-3.598763,8.862558,-4.069558600000001,-0.052656583,-0.6512171999999999,-2.2342484000000002
-1.1489486,9.588328,-3.2725577,-0.14953981,-0.74436545,-2.467948
1.3096378999999998,10.543163999999999,-3.3611047,-0.30230847,-1.1569264,-2.608482
1.6047568,10.004105000000001,-3.0745093999999997,-0.42102578,-2.0267459999999997,-2.6425507
1.556346,8.860729,-2.4129052000000004,-0.48329914,-3.074345,-2.3827757999999997
1.2140422,9.026408,-3.4684894,-0.47479936,-3.2250018,-2.5126633999999997
0.26389850000000004,9.837105000000001,-2.2552805,-0.44764206,-1.5460476,-3.5405748
0.31638896,10.497425,-1.4867801999999999,-0.35821137,-0.08215265,-3.6214883
1.4784483,11.233335499999999,-1.4090643,0.014398966000000001,0.5119051,-3.258966
2.3449388,11.674702,-1.6929592,0.19538961,0.7855203000000001,-2.4088511
2.335448,11.975969000000001,-1.9961703999999998,0.74209654,0.719512,-1.5603243
1.7936879000000001,12.037702000000001,-2.3400066,0.29761353,-0.5819975000000001,0.08402015
1.7439460999999998,12.299512,-2.1994095000000002,0.14908603,-1.8292447,1.8018255
2.9949548,12.819225999999999,-1.8117307,0.027174776,-1.788788,2.8638060000000003
3.553704,14.282323000000002,-2.9428186000000003,0.2432989,-0.70390874,3.4504287000000002
8.184330000000001,15.502207,-4.7894373,0.47380453,0.6694734,3.9641314
7.1019588,15.4236,-4.749397,0.55152404,1.5382285,4.5645942999999995
1.9773328000000001,17.254322,-5.24945,0.5573709,2.2217342999999996,5.1634517
-0.5840703,11.734289,-3.8764807999999995,0.46954593,2.9307919,5.245447599999999
-4.815343,7.898385,-2.3592272000000003,0.15175638,2.5246362999999996,5.329555
-10.026016,6.309267500000001,-3.4306326,-0.39334485,1.7857685,5.820358799999999
-11.522345,6.9733424,-3.7657442000000003,-0.23949409,1.0751053,6.1807346
-6.765296,2.928415,-0.54410625,-0.09204867,0.9899333,6.197245
-2.6603987,1.6566918000000002,1.9190580000000002,0.07562511400000001,1.5254526000000002,5.743704
-1.9172096999999997,1.9939293999999999,3.1595418,0.042620942,2.2121525,4.638596499999999
-1.814393,3.2994206,2.3346147999999998,0.3141069,2.9510202000000003,3.178419
-1.8934495,4.407696700000001,1.0345632,0.32688272,3.1187115000000003,1.4079046999999998
-1.0587733999999998,5.089182,1.2656708,0.59198076,2.299995,-0.9742428
-0.10597695,6.838338,1.8013303,0.85229665,1.7713869999999998,-2.8064895
-3.822544,8.753163,-3.4310059999999996,0.5169315999999999,1.1560188999999998,-3.8647523
-8.020211999999999,9.833399,-3.5565004,-0.21074851,-1.8020873,-1.3702755
-6.441264599999999,9.979157,-1.36481,1.2861332,0.8493994,-3.9195907
-3.5991553999999994,12.4993515,-1.8776,1.044981,1.9177853,-3.5544154999999997
-1.1247958999999998,14.291459,-3.4931784,1.9898672999999998,2.1780837,-2.7426105
-0.88007027,15.437133,-3.126952,0.8528201999999999,0.46666613,-2.0559106
-2.2293847,14.416522,-1.7897903000000002,0.7452905,-2.1268057999999996,-1.3404652
-4.962251,11.964966,-7.7333293,0.32955307,-3.2345839,-0.85498446
-5.8660239999999995,7.385777,-3.8472235,0.39927897,-2.1342585,-0.70434505
-4.8327919999999995,7.890302,-7.282003,0.48392743,0.35381314,-1.2020606000000003
-5.1053762,13.241026999999999,-10.5068865,0.2800381,1.0240021000000001,-1.1818322
7.4867360000000005,22.308031,10.464605,0.27632052,0.123848565,-0.8959822000000001
1.6856137999999998,15.592766000000001,3.4235168,0.21348867,-0.92642075,-0.5579643
-7.5500765,6.9706225,-4.54521,0.25661576,-1.4896209999999999,-0.32320008
-7.380059700000001,3.310568,-5.502019000000001,0.25715682,-1.4970736999999998,-0.46373397
-12.548778,10.788561,-8.615975,0.23106414,-1.3293823999999999,-0.60746187
-9.937508,10.617422999999999,-5.636362999999999,0.22680554,-1.1366806,-0.7591659000000001
-3.4200022000000003,9.268013,-3.624745,0.18050195,-1.1936481,-0.8523315
2.6666906000000004,10.231544,-1.6782299999999999,0.16505578,-1.3996494,-0.972096
6.308817400000001,11.594956,-0.65107924,0.13578662,-1.3144773,-1.2068603
-0.98668885,10.517795,-5.3475165,0.10012954,-0.9029809999999999,-1.529973
-4.951985,8.714080000000001,-4.048145,0.0005585053599999999,-0.5479286999999999,-1.8887778999999998
-4.720791,8.571242,-3.983492,-0.06489134,-0.5234417,-2.1229837000000003
-1.9433638999999998,10.334878,-3.3424012999999997,-0.26504570000000005,-0.8955459000000001,-2.3156852999999997
-0.58059394,11.327639,-1.2004528,-0.39652136,-1.6738056000000001,-2.3646592999999996
0.5594962,10.343544999999999,-2.626602,-0.50298643,-2.5276556,-2.3327197999999996
0.41696459999999996,9.726617,-3.3133644999999996,-0.669613,-3.5119165999999997,-2.1788863999999997
-0.53870493,9.74692,-3.4425843,-0.6360678000000001,-2.6777713,-2.9534113
-0.1212711,9.970231,-2.267127,-0.4774348,-0.49843112,-3.7588284
1.5125513000000002,9.996692999999999,-1.4616505,-0.32306045,0.072221726,-3.5155468
2.534885,10.603431,-1.5204809,-0.013770646999999999,0.567808,-2.9182777
2.5627248,11.3090315,-2.6730878,0.357234,1.061806,-2.1597054
1.2109298000000002,11.260351,-3.0879072999999995,0.8948826999999999,0.991539,-1.3559113999999999
0.7697358,11.655577000000001,-2.8244686000000003,0.30986574,-0.9072396,0.7403860999999999
2.1223257,12.546372999999999,-2.392114,0.20498893,-1.7163917000000002,2.3293687999999997
3.1618783,13.178213000000001,-2.7227243999999997,0.27366763,-1.2979665,3.2321928
6.711484,14.980061,-3.930762,0.53129566,-0.06724753,3.7501366000000003
11.722337,14.625824,-4.807605000000001,0.7181506,1.0490302,4.357005
4.018639,17.88256,-4.9062269999999994,0.696334,1.7389238999999999,5.003248
1.199179,16.6214,-3.6532739999999997,0.5605823,2.3409927,5.4370847
-1.4347492,10.341592,-3.27228,0.39130282,2.573069,5.473283
-5.8292589999999995,7.7240009999999995,-1.1885871000000001,-0.16123351,1.8640116000000002,5.755415
-14.647707,7.565409,-5.775772,-0.38587484,1.1959518999999998,6.262189
-10.62609,6.001535400000001,-1.2098666,-0.27035149999999997,0.85580474,6.340973
-5.610735,2.1246529,0.8225710999999999,-0.22563617,1.3317037,6.1535945
-2.181453,1.1275063,2.8976064,-0.18730873,2.0365026000000004,5.324773
-1.8082447,2.1125479,2.8437371,0.06393141,2.8019865000000004,3.890688
-1.2685821000000002,3.4771947999999995,1.7601501,0.46104616,3.7575017999999996,2.1718004
-1.4641309999999998,4.7554110000000005,0.9759915000000001,0.22095868,2.9595373,0.18249163
-0.53466356,6.1107016,1.4059136,0.7128274,2.205241,-1.8121055
-1.5345013,7.838358,1.1153723999999998,1.1711683000000002,2.0311792,-3.7769098
-6.4631953,9.556772,-4.3577724,-0.36137040000000004,-1.3437464,-1.9291996999999999
-7.8313,9.959916999999999,-1.2023298999999998,0.76234233,-1.082907,-2.7388754
-4.7699776,11.241955,-1.0124408,0.89222974,1.0298665,-3.7790391000000003
-2.4594486,13.325935000000001,-2.6105611,1.2755041,1.4205933000000002,-2.5887597
-1.2148371,15.488435999999998,-3.271715,1.970721,1.7799217,-2.5589494999999998
-0.8147852,15.373513,-2.2103653,0.74583155,-0.12206833,-1.7583319
-4.4061356,13.549179999999998,-3.1528093999999998,0.6771703,-2.5979052000000005,-1.2089721000000002
-6.954820599999999,11.34796,-8.17798,0.51160836,-2.7581439999999997,-0.8320857
-6.444175700000001,6.977537,-6.416834,0.43867105,-0.7991863,-1.0061649
-7.310465,9.307095,-10.157181,0.43123594,1.0016619,-1.2787155000000001
-2.7647953,21.545574,-1.6230581,0.25078636,0.38575268,-0.95664984
7.929347,18.942848,11.900169,0.21298252,-1.1164522,-0.51536083
-5.744753,8.970164,-4.566461,0.18901916,-1.7451198,-0.2454631
-4.7458534000000006,4.428085299999999,0.037809234,0.13472196,-1.8084753,-0.1783901
-6.7750163,7.097582000000001,-11.559617,0.14430383,-1.4560758,-0.35725144
-11.5016775,12.170444999999999,-3.497718,0.20818287,-1.2926431999999999,-0.5265309
-7.3220339999999995,8.73557,-7.5248895000000005,0.16348499,-1.284126,-0.61967915
0.13017754,9.568016,-1.2359826999999999,0.11449360000000001,-1.3836796,-0.71071553
5.5015597000000005,11.637534,-2.8280694,0.08683013,-1.5274074,-0.8991587
1.5804126,10.707492,-2.7912369999999997,0.034644786000000004,-1.3432229,-1.3196958
-5.21414,9.679356,-3.2322297000000004,-0.047298424000000006,-0.7714879,-1.8344456999999998
-5.908822499999999,9.390413,-3.9575292999999996,-0.07606145,-0.43985787,-2.1980329
-2.2447939999999997,10.422104,-4.0751230000000005,-0.22191861,-0.66130525,-2.453549
0.6493361999999999,11.434343,-3.3417788,-0.38159879999999996,-1.3644983999999998,-2.5828952999999997
0.53574574,10.485617999999999,-2.6168047999999997,-0.53969073,-2.2087665000000003,-2.6100526
0.39935285,9.131609,-2.9808385,-0.56525975,-2.6452909,-2.4482257
0.22922087,9.270483,-3.8850424,-0.37255797,-2.2928738999999996,-2.864504
-0.26879224,9.795254,-3.5074096,-0.213925,-0.81142104,-3.6448932000000003
1.0254557,9.759925,-1.7638563000000003,-0.30496138,-0.37013197,-3.682156
3.7221792000000002,9.637476,-0.774802,-0.046774823,-0.065641835,-3.2147744
5.19762,10.906231,-2.0305607,0.24811599999999998,0.25640630000000003,-2.3263144000000002
3.275019,11.573896000000001,-2.6028612,0.7085861999999999,0.38789943,-1.5012101
1.6573335,11.349828,-2.4044106,0.40941933,-0.90778065,0.11650073
1.3128173,11.661800999999999,-1.5884475,0.32264155,-2.1007133,1.8401703999999999
3.2998326000000002,11.998992,-1.7689511999999998,0.29337240000000003,-2.011806,2.9468837000000003
5.716147,13.243535999999999,-2.1238197999999997,0.59253925,-0.7901279999999999,3.4951614999999996
9.106096,14.526081,-4.1461444,0.81025165,0.7424281999999999,3.9774656000000004
4.369092500000001,16.591951,-4.2803254,0.89594734,1.8400657,4.4043730000000005
0.9522792999999999,18.372951999999998,-6.339032,0.8086634,2.3143764,4.959074
-1.2590053999999997,12.299924,-3.7976542,0.59466857,2.5651104,5.315191
-4.7858849999999995,8.505517,-2.4466732,0.38119736,2.742366,5.4972463
-10.131017,6.677371000000001,-3.3559623,-0.027593656,2.5113368,5.852316
-11.496439,6.9834266000000005,-3.6616538,-0.34752995,2.053537,6.196198000000001
-6.6361523,2.445792,-0.75491095,-0.38055158,1.6851677999999999,6.284023
-2.1517649,1.118571,1.7626113,-0.3879867,1.6425816999999998,5.858162999999999
-0.6703286,1.5343673,2.7880093999999995,-0.19901989999999997,1.9795523999999998,4.7338915
-0.28646144,3.1339428,2.1896317,0.5031085999999999,3.1943189999999997,3.1826952
-1.2331383999999999,4.6582930000000005,1.6533781000000003,0.34873423,2.986171,0.9932494000000001
-1.8856254000000001,6.0234190000000005,0.7123133,0.49830896,2.0072334,-1.3888981000000002
-1.4501680000000001,7.0943356,0.6725696,0.81824523,1.3891948,-3.1274729
-2.2771924,8.599925,-0.30943623,1.0663089,0.89839077,-3.8290777
-4.7528157,10.429333999999999,-2.6716417999999997,-0.2229658,-2.2582815,-0.7202974
-5.885168,11.738703999999998,-2.2345276000000003,0.742114,-0.2881364,-3.3590257000000006
-4.8904347,13.538004,-2.1797482999999995,1.0274404000000001,1.8464537,-3.6880028
-2.7858164,16.084073999999998,-3.0245855,1.7152223999999998,2.1003816000000004,-2.654227
-0.75642407,15.93755,-2.7727826,1.5693651000000002,1.5089768,-2.556279
-1.5515288999999999,13.931869500000001,-1.4814937,0.87358963,-0.7124085,-1.5975697
-4.843450499999999,12.631692999999999,-7.101393700000001,0.39823177,-2.7490857,-0.97527254
-7.685684700000001,7.5033803,-5.1600410000000005,0.47116908,-2.8954663,-0.6239376999999999
-6.7678720000000006,7.0976973,-6.4542794,0.5515415,-0.8476191999999999,-0.7777885
-5.2943273,9.09699,-10.033315,0.50204396,0.7993783,-1.0998367
4.52393,19.513817,0.5862921,0.35297540000000005,0.42249185,-0.84379685
6.6993979999999995,19.456757999999997,12.217554,0.16294394,-0.9540841999999998,-0.4578522
-5.6629095000000005,9.241388,-4.325173400000001,0.21565288,-1.9026881000000002,-0.13845697
-5.771731,4.363308,-0.23118411,0.16029103,-2.00383,-0.1288751
-9.067129,8.299175,-12.363035,0.07457792,-1.7557663000000001,-0.32850587
-10.337847,10.828007000000001,-5.2993164,0.19010127,-1.5300603000000002,-0.44561747
-8.445872,8.925383,-8.387626,0.111840695,-1.4241188999999999,-0.6228731
-0.6509164000000001,9.4964285,-0.42660844,0.120898955,-1.5891396999999998,-0.7974758000000001
6.147113,11.987126,0.21666569,0.10972885,-1.3794035,-1.1637157
2.0430777,11.414041000000001,-4.45175,0.039461896,-0.73263687,-1.6529316000000003
-4.3732967,9.499953,-4.107348399999999,-0.04464552,-0.46273914,-2.0622811000000003
-5.659117,8.870421,-5.486457,-0.10053097,-0.6080727,-2.2741466
-2.4286494,9.665393,-4.5487056,-0.30654964,-0.9897413,-2.4647189999999997
0.45840344,11.448919,-2.3840885,-0.44973645,-1.7067923999999999,-2.5323331000000002
0.39046559999999997,10.704447,-2.788565,-0.5572661999999999,-2.5084743,-2.5057167999999996
0.5786115,9.226545,-2.6518946,-0.4779584,-3.0163127999999997,-2.3838055000000002
0.45588472,9.206099,-3.8210216,-0.42312017,-2.211437,-3.126391
1.2139847,8.974789999999999,-2.9585054,-0.03291691,-0.42547637,-3.705561
3.454421,9.140181,-1.6931508000000002,-0.0786969,-0.048589967000000005,-3.5458632000000003
4.2697425,10.723935,-1.5574282,0.03359759,0.07648033,-2.9789455
3.1996112,12.191965,-2.2995443,0.19968311,0.13184217,-2.0495052
1.5776831,12.01329,-1.9591848000000003,0.50577897,-0.05126032,-1.1807501
1.4251055000000001,11.918949000000001,-1.4496796,0.105993845,-1.4251835,0.7121816
2.3160932,11.8269825,-1.7939754,0.05969026,-2.0187352,2.204822
3.7861235,11.677344999999999,-2.090186,0.054367005999999996,-1.6322668,3.086894
6.560735,12.974706,-4.291462999999999,0.31785935,-0.37756708,3.5606637
9.902188,15.034868,-4.1648765,0.53398347,1.1395429,3.9790714
2.6430453999999997,17.497631,-3.6029286,0.6282138,2.1589375,4.3878975
-0.012488157,17.293089000000002,-6.9482029999999995,0.50364965,2.5949206,4.9117055
-2.1208222,11.475102,-3.9630263,0.29178414,2.8616068,5.1826506
-6.374849299999999,9.106471,-1.9185983,0.049043752,2.6981916,5.3902574
-13.497638,7.361461599999999,-4.4567966,-0.4044975,2.1003816000000004,5.853904200000001
-9.8725,5.455447,-2.3635943,-0.41725585,1.5728558000000001,6.2265489999999994
-5.341953,1.8353279999999998,-0.36094028,-0.2793923,1.5978663999999998,6.288298999999999
-1.8865734,1.0478463,1.6574962,-0.25595254,2.0349143,5.666543
-0.49456546,1.4304876,2.574169,-0.13459979,2.6726400000000003,4.366063
-0.33989045,3.0441700000000003,1.9238176,0.52333695,3.8655727,2.757376
-1.2679118,4.6364675,1.0884136999999998,0.36524504,3.3454995000000003,0.6946236
-1.3561716000000001,5.746841000000001,0.39076245,0.6590887,2.157349,-1.5523133
-1.5039321,7.159362299999999,0.66063684,1.0141585,1.4594791999999999,-3.2200801
-4.083311,8.7306385,-2.0047033,0.38601446,-0.20296434,-3.1657830000000002
-6.7896304,9.585215,-3.5062794999999998,-0.13405874,-2.7123463,-0.86880744
-6.327683400000001,10.31921,-1.9966685000000002,1.2446466999999999,0.37034142,-3.9206204
-3.4521227,13.515412,-2.7931522999999996,1.0274578,1.4791665,-3.1519425
-1.5716211000000002,16.434797,-4.1506742999999995,2.0798563999999997,2.3649561,-2.8378704
-0.82800114,16.321177,-2.6113462000000003,0.80281657,1.2859237,-2.2847931
-2.9663584,14.447934,-2.5674942,0.74319607,-1.3602397,-1.59277
-5.8945055,12.632086,-8.816953999999999,0.3577925,-2.9800972999999997,-0.8730485999999998
-8.930152,6.4942150000000005,-4.7973194,0.28167868,-2.4791877,-0.6351079000000001
-6.8661685,7.111037700000001,-6.9168389999999995,0.38175586,-0.13109168,-1.1056836
-4.971512000000001,14.029898000000001,-10.864398,0.24973916,0.8212123,-1.095037
13.944425,23.558916,11.375456,0.2300344,0.2287254,-0.8107751999999999
0.19099984,13.445185999999998,1.2956174999999999,0.25877997,-0.84336054,-0.47701594
-5.5277709999999995,6.855107,-2.5689208999999997,0.2454631,-1.1324046,-0.38864990000000005
-4.988932,4.2538834,-7.7910580000000005,0.25026277,-1.1297516,-0.52173126
-9.374095,11.368445,-6.455304,0.24279276,-1.2580333000000001,-0.67345273
-10.070003,9.057945,-7.512593300000001,0.18479545,-1.3085955,-0.84697336
-6.6651797,9.258272,-1.8431138999999999,0.19064231,-1.2239645000000001,-1.0396752
1.383293,10.753078,-2.2414612999999997,0.19650662,-1.0408446,-1.239306
6.319955,11.806594,-2.2515264,0.14540339,-0.80714494,-1.5650716
-0.44111732,9.801497999999999,-3.9002502,0.025621433,-0.63788295,-1.9744386999999999
-4.867738,8.607681,-4.6877127,-0.043563418,-0.6298893,-2.336961
-3.8734542999999997,8.773647,-2.3604817000000002,-0.21123719,-0.78106976,-2.5674490000000003
-0.33708444,10.310255999999999,-4.015105,-0.37945202,-1.3266946000000002,-2.7090478
-0.27835947,11.525055,-1.5114787,-0.5013458,-2.1645749,-2.756957
-0.059462395,10.579353999999999,-1.9651129,-0.54766685,-3.1520472,-2.5136755
0.5934172,10.178201,-2.3365683999999995,-0.5673716,-2.8134882,-2.8522346
1.3125013,10.309308,-2.976644,-0.44600144,-1.0339155999999998,-3.8221314
1.5844539,10.32577,-2.0315950000000003,-0.42257910000000004,-0.07253588,-3.6470050000000005
2.247935,10.4434595,-0.92503333,-0.015882496,0.4815887,-3.2190154
3.097484,11.057821,-2.0406165,0.24441591,0.8941495999999999,-2.2783877999999995
2.8891406,11.661351,-2.824708,0.8049633,0.77065015,-1.3585293
2.0199113,11.855627,-2.98284,0.32052973,-0.8305673000000001,0.57218874
2.6499312,12.523025500000001,-2.6232789,0.25612706,-1.5902044,2.1776822
4.032487000000001,12.321003,-2.5362737,0.27370253,-1.3368175,3.136409
5.251375,13.733695999999998,-3.199161,0.50632,-0.20561723,3.715038
9.348007,15.533254999999999,-5.721146,0.71286225,0.9942268,4.2633333
4.920755000000001,17.37342,-3.7100358,0.71977377,1.8155961999999999,4.779689
1.8746599,18.50967,-5.100866000000001,0.55477035,2.353786,5.2816806
-1.1141945,11.378414999999999,-2.9903482999999995,0.34396950000000004,2.8142388,5.4254084
-5.8160620000000005,8.455996,-1.5978806,-0.06538004,2.5007076,5.600011
-13.343547000000001,7.789909,-4.8829746,-0.5545958000000001,1.9454836,6.090274
-10.865289,6.1946525999999995,-1.3522165000000002,-0.60196406,1.4727787,6.3841176
-6.2393084000000005,2.1085734,0.10269210000000001,-0.6200631,1.585108,6.276587999999999
-2.8246696,1.0550959,2.5442607,-0.5572486999999999,2.0844293,5.6750774
-1.884457,1.420317,2.9802833,-0.32302552,2.7141613999999996,4.3543696
-0.98219734,2.5710087,2.4371057,0.3274761,3.7074983,2.685538
-1.3293948999999998,4.184844,1.6703866000000003,0.2449395,2.7290666,0.62116265
-1.0225061,5.831615,1.4774905,0.42807690000000004,1.5148411,-1.4724469999999998
-1.2351112,7.4861130000000005,1.8342553,1.0615267,0.7951371,-3.363267
-4.605112999999999,9.012713,-2.4394617000000003,-0.017470745,-1.9750668999999998,-2.2885106
-7.6805509999999995,10.282675,-2.001591,0.10494665,-2.9609337000000004,-1.5533605
-5.638632299999999,11.100237,-1.1010168,0.8848120999999999,0.68760735,-4.1250334
-3.3848362,13.025473,-2.0008535,1.0679146000000002,1.8714991,-3.0630355
-1.9081213,16.116884,-3.51804,2.1693046000000002,2.682763,-2.9437945
-1.1921304,16.270582,-3.7386991999999997,0.78473496,1.1544653999999999,-1.9339819
-3.3736599999999997,13.504294,-3.0284162,0.7070154000000001,-1.742432,-1.3734345
-7.2205772,12.206339999999999,-9.050781,0.33278194,-2.9763799,-0.7538077
-11.221164,6.606905,-5.6821017,0.37962657,-2.1113422,-0.6324375
-7.617095,7.7680163,-8.78379,0.48450340000000003,0.12920672,-1.0348754999999998
-5.8703623,17.901321,-10.868507000000001,0.3029717,0.71848226,-0.9656732
18.341127,21.700966,12.596297999999999,0.22153464,-0.17048377,-0.6680946
-1.6839379,11.763086999999999,-3.3202982000000003,0.29180159999999994,-1.2383286,-0.34978142
-4.260721,5.848182700000001,0.9378663,0.31255355,-1.5364308,-0.24596925
-7.2960424,4.1805825,-8.943829,0.32532936,-1.2542983,-0.5030737
-13.745189000000002,12.101598,-6.127691,0.2896723,-1.1425098999999999,-0.71867424
-9.124436,9.337166,-7.751745,0.24973916,-1.1941369,-0.86081386
-3.2882254,9.160302,-2.4662192000000003,0.21355848,-1.3980261999999999,-0.9944188
2.378055,10.854851,-2.124356,0.21567033,-1.4555173000000001,-1.2515406999999998
5.0341825,11.6452055,-0.6954007,0.14327408,-1.0168812,-1.6832479
-1.2759371000000002,10.453391,-4.2727304,0.04321435,-0.50904274,-2.1527588
-4.8106027000000005,9.016372,-4.6731462,-0.017994344,-0.5420469,-2.4157276000000003
-3.2774419999999997,8.869378,-3.5547671000000003,-0.22401302,-0.91361004,-2.5663846
0.5409555,10.882977499999999,-3.254515,-0.37732273,-1.5896633999999998,-2.615882
1.0381929,10.761026,-2.6091146000000003,-0.4997576,-2.425938,-2.5669081
0.78800845,9.85758,-1.9702461,-0.5364793000000001,-3.6795727999999994,-2.2821226
-0.016778566,10.057350999999999,-2.7204832999999997,-0.55672514,-3.3005571000000002,-2.8325472
0.22682668,10.3808565,-2.56849,-0.3182259,-1.1680616000000001,-3.6581752
2.1673272,9.82477,-1.2484517,-0.32461378,-0.31527627,-3.4420512000000003
4.094966,9.884336,-1.446366,-0.06644469,0.13452998,-3.0018267999999995
3.9800345999999998,11.093313,-2.7779539,0.2790258,0.75735074,-2.1442417999999996
1.722877,11.863394,-2.5107322,0.83955574,1.0634291,-1.5027983
0.9978458,12.114,-2.6073812999999997,0.32641149999999997,-0.47017425,0.34330627
2.2967672,12.225665,-2.8141448,0.25347418,-1.431554,1.9732691999999998
3.4558387,12.215686999999999,-3.0397742,0.19865337,-1.42836,3.0624244
5.242353400000001,14.361227,-3.4035778,0.41530108,-0.46432740000000006,3.6075258000000003
9.896519,15.090568,-4.5508127,0.56967545,0.77065015,4.106847
3.6315730000000004,16.835682000000002,-3.4485792999999996,0.63887775,1.6804029999999999,4.55133
1.3806498999999999,17.794846,-5.3736324,0.54147094,2.1648192,5.085801999999999
-0.98744535,11.226508,-3.1561325,0.36632717,2.5257359,5.3822985
-5.4774165,7.5514174,-1.1684854,0.11506956,2.5598047000000004,5.570201
-12.741233,7.072146000000001,-4.405896,-0.30545008,2.1722717,5.8363633
-10.738416,6.4991083,-1.9714526999999997,-0.49548152,1.7511935,6.195692
-6.927239999999999,2.2468626,-0.24111527,-0.46141270000000006,1.686791,6.2233730000000005
-2.881872,0.8483040000000001,1.8562532999999999,-0.49815187,2.0764532,5.619175
-1.5856415000000001,1.2363274,2.696848,-0.27511624,2.7003386000000003,4.4342184
-0.90331316,2.8776484,2.4191492,0.32641149999999997,3.9433095000000002,2.5684266
-1.2956174999999999,4.4703292999999995,1.7346853,0.26624998,3.3465815,0.6291563
-1.6923271,5.6381345000000005,0.9133209000000001,0.5542468,2.2191162,-1.557078
-1.3570718000000002,6.9132,1.1126909,1.1807851,1.5286815,-3.5751324
-2.5364267999999996,8.854409,-0.562896,-0.2612758,-2.501528,-1.7599026999999998
-5.784046,9.99042,-3.1231883,0.7916639,-2.4349960999999998,-2.3108508999999997
-6.717220299999999,11.440242999999999,-1.7957470000000002,0.83318526,0.19095647,-3.9807644
-3.7858555,13.631043,-1.7374721999999998,1.60771,1.4408566,-3.106145
-1.7345896,15.705034,-3.6095464,1.1515158,1.0687524,-2.6574035
-0.39164352,16.395073,-3.071799,1.0061823,0.07490953,-1.8349519
-2.5104450000000003,14.101867000000002,-2.2499845,0.6782873,-1.5742171999999999,-1.2861156
-6.9169064,11.853931,-8.6453,0.5207015,-1.8808366,-0.8661196
-8.812596000000001,6.946584700000001,-6.282337,0.46640435,-0.75656533,-0.9316044
-8.465964,7.714539,-10.31626,0.38762018,0.0067718774,-0.9033824
-6.063862,19.732475,-8.723139999999999,0.2848901,-0.37913787,-0.6707649
11.695953,20.897387,10.762137,0.16723745,-1.0429564,-0.42641884
-4.9674510000000005,10.209346,-4.221121299999999,0.07195993,-1.4352889,-0.2773677
-6.2654247000000005,3.9277165000000003,-0.5404,0.21142918,-1.1856196,-0.41683698
-7.544091000000001,8.538086999999999,-7.3066244000000005,0.30351275,-0.9535256999999999,-0.5760109999999999
-8.229407,10.023488,-4.703189,0.20237093,-1.032851,-0.7080276999999999
-6.9693966,9.416317999999999,-5.3821845,0.20556487,-1.445918,-0.77403605
-2.7066066,9.816139999999999,-3.3656921000000004,0.11719886,-1.6695122,-0.87889546
2.267242,11.457366,-1.6152912,0.09325294,-1.42836,-1.203614
-0.9600174000000001,11.013759,-3.0161578999999996,0.05386086,-0.81246823,-1.7178403000000002
-3.2521877,9.822911,-3.9823712999999996,-0.029164452,-0.29396582,-2.182569
-2.538821,9.642322,-4.7180040000000005,-0.09519026,-0.24659757,-2.4407556
0.24831702,10.876207,-3.7817757000000003,-0.2926568,-0.74963635,-2.577537
0.6234597,10.562529,-2.3302286,-0.49548152,-1.7317855,-2.5919187000000004
0.6579265999999999,9.567278,-2.4475732000000003,-0.6631728,-2.895449,-2.478542
-0.38353196,9.822299000000001,-3.1032686000000003,-0.7164053000000001,-3.6321871,-2.429027
-0.9876082,9.658842,-2.5937919999999997,-0.6413386999999999,-2.0974844,-3.2828769999999996
0.4903804,9.896519,-2.2568892999999997,-0.2756224,0.12920672,-3.8125322
3.050529,9.292146,-1.5349035,-0.30490902,0.5673193,-3.6597633000000003
4.880771599999999,10.0520935,-0.8525560999999999,0.05544911,0.87074476,-2.9677403
4.421851,11.202402000000001,-2.2911744,0.41210714,1.1560712,-2.07291
1.9714813999999998,11.659915,-2.6780102,0.5020789000000001,0.5673193,-1.0082593
0.99015564,11.971669,-2.5290432000000003,0.09060004,-1.3511641,0.8623323
1.8273602,11.954863000000001,-2.1106993999999997,-0.06429793,-2.3077617000000004,2.5412692999999997
3.3478696000000006,12.081831,-1.7687213,-0.007871435,-1.9660087,3.4568863
6.8046083,14.194598999999998,-2.6339571,0.32161182,-0.6389127,3.8678239999999997
9.961765,16.101677,-4.121599,0.5276305,0.80632466,4.2527040000000005
3.3668702000000006,19.234623000000003,-6.19923,0.6372895000000001,1.8496825000000001,4.679088
1.1055656999999999,15.943094,-4.846744999999999,0.5899213000000001,2.5842915,5.0996428
-2.8971372000000004,10.26561,-3.7521449999999996,0.40306634,3.1049057999999996,5.2396355
-7.419775,7.6618857,-1.9182727,0.031503193,2.8999693,5.399333
-15.153075,8.81682,-5.972911,-0.38475785,2.1690776,5.9066305
-10.097717999999999,4.9536705,-2.0006428,-0.3874282,1.4483091000000001,6.306939
-5.632992,1.2815108,-0.56536674,-0.23623031,1.5739379,6.241472
-2.0345447,0.35009933,2.3975248,-0.034487706,2.2489266,5.5707417
-1.0873218999999998,1.2486431999999998,2.8705618,-0.010541788,2.841396,4.2095769999999995
-0.52038455,3.351643,1.9569724999999998,0.47120398,3.5781519999999998,2.6200707000000003
-1.0560631999999999,4.6523075,1.1882136,0.19387117,2.5614102,0.47106436
-0.8502002000000001,5.456471400000001,0.9785581,0.7075564999999999,1.4999533999999999,-1.7353983
-1.1420821,7.5150065,0.7017118,1.0008765,0.91226614,-3.5586216
-4.686717,8.961095,-2.7921755,-0.23303635,-2.3322484,-1.91693
-7.630752,9.50003,-3.0769324,0.29979520000000004,-2.9662395,-1.6640667000000002
-5.9968143,10.590502,-1.9665494,0.9135751,0.9766688,-4.2096467
-2.6649284,13.185960999999999,-2.4306414000000003,1.1211646,1.8491589,-3.1247852000000003
-0.9145276,16.305386,-4.1712737,2.0681803,2.128621,-2.958682
-0.8035324,16.47813,-3.2005209999999997,0.785276,0.45392522,-2.0883389
-4.906409,14.436663000000001,-2.9570498,0.6202726,-2.0783205000000002,-1.4165441
-7.471508999999999,11.190479,-8.185258000000001,0.32269390000000003,-2.756503,-0.8426973
-8.5912,6.382271299999999,-5.463099,0.3626096,-1.4602995,-0.73675585
-8.234952,8.252641,-7.856026600000001,0.45204028,0.52686256,-1.0998018
-4.830743,17.481282999999998,-7.402699,0.26466173,0.6583382,-0.89380056
18.894188,22.645155,13.571302,0.14915584,-0.37329102,-0.5419246999999999
-1.2502138999999999,13.451153,-4.4871073,0.18268362,-1.3351943000000002,-0.24701644
-4.222481,5.6375027,0.07260177,0.21888174,-1.4586938999999999,-0.16132078
-6.4788914,3.2230456000000003,-9.331296,0.21303488,-1.111094,-0.388615
-12.106702,11.948905,-6.751572,0.25455627,-0.86409503,-0.69097584
-9.773667999999999,9.084242999999999,-8.431344000000001,0.19758873,-1.064773,-0.88793623
-3.9576633,8.959773,-1.2969582,0.17364279999999999,-1.3639398999999999,-1.0503042
2.1173363,10.990181,-2.023675,0.17683676,-1.1025768999999999,-1.3111436
3.6062230000000004,12.084723,-1.1523484,0.12678072,-0.7081149999999999,-1.6060518999999998
-2.8931627,10.46157,-3.9098558,0.07302458,-0.50850165,-1.9536518
-5.1452165,8.828551,-5.068793,-0.008936086,-0.5026374,-2.2932754
-2.6397414,8.979032499999999,-2.6812186000000002,-0.14947,-0.55906385,-2.5466623
1.4946043,10.521636,-4.2453504,-0.24900612,-1.0035468,-2.6515217
1.9430096000000001,10.607395,-2.5821560000000003,-0.40444514,-1.9138408,-2.6903900000000003
1.3340683999999998,9.365207,-2.9774675,-0.5119749,-3.3005397000000003,-2.3933525
0.004462792,9.25516,-2.2568509999999997,-0.56360173,-3.8765159,-2.4236863
0.55374056,9.465439,-2.3489416000000003,-0.5598841999999999,-2.2273717,-3.4303224
1.7394831999999998,9.956049,-1.9824756000000001,-0.47525316,-0.18591247,-3.5767207
2.1256297,10.520094,-1.9585048999999999,-0.072815135,0.63385123,-3.37709
2.6915424,11.095382,-2.164454,0.17523105,1.0107377,-2.6036297999999998
2.4731528999999997,11.202039,-2.4577150000000003,0.74216634,1.2130213,-1.7960835
1.743927,11.6944685,-3.1370265,0.3344051,-0.07838274,-0.07986627
1.3439133,12.237022999999999,-2.7409778,0.25403267,-1.671083,1.7082060000000001
2.3306692000000004,12.619407,-2.5062312999999996,0.16086699,-1.9761142,2.9756641
2.5173786,14.40639,-2.5462048,0.37114426,-1.2127595,3.6330774
7.348350999999999,15.903523000000002,-3.278936,0.5957856,0.04564036,4.134004
8.744017999999999,15.495417000000002,-4.3932839999999995,0.8044397,1.2018511,4.531642400000001
3.0764534,18.623306,-5.5055623,0.8188211999999999,1.9982099999999998,5.000089
0.84704936,13.307931,-3.8506522000000003,0.71874404,2.5150892999999996,5.317355
-3.5044503,8.655154,-2.6503718,0.54785883,2.848866,5.477594
-8.987641,6.728636,-2.9880211,0.0027750734999999996,2.569404,5.787407
-12.4820175,7.791681,-4.5169487,-0.4124213,1.8289305,6.2787347
-7.7964306,3.152407,-0.95290184,-0.39912188,1.3764538999999998,6.5028524
-3.6787004,1.2863854,0.9563303,-0.39858085,1.5281753999999999,6.088703
-1.9737511000000003,1.5089313,2.4722049999999998,-0.17235126,2.2537262000000005,5.021923
-1.1205151000000002,3.0666277,2.259073,0.27691394,3.4370768,3.1901827000000003
-0.9074503,4.1045237,1.5987331,0.37540287,3.4546523000000002,1.4106275
-1.4546404,4.595679799999999,0.7528136,0.5138075,2.340504,-0.9475566999999999
-0.7965988,6.0046577,1.1137538999999999,0.9875771000000001,2.0615653999999997,-3.244532
-1.3336756,8.195257000000002,-0.061109602,0.20345303,-0.27799603,-3.3478208
-4.859645400000001,10.230051,-3.5809019999999996,0.58088046,-2.4578599999999997,-1.9350116000000002
-6.513434999999999,11.009306,-2.4709406000000005,0.89121747,-0.22209315,-4.3272996
-4.6342745,12.769321000000001,-2.4648687999999996,0.9141162,0.21066125,-2.99221
-2.0938346,15.595532999999998,-3.1743476000000004,1.8478150000000002,1.0320481,-2.8623226
0.15113159,16.37884,-3.1748933999999998,0.972672,0.08025024,-1.958434
-1.8506701,14.366446,-1.2786952,0.8081746999999999,-1.6625657,-1.4532658999999999
-6.3932557,13.098678,-6.882669,0.58407444,-2.1645572,-1.013024
-7.021130599999999,8.232549,-4.968562599999999,0.45790458,-1.2702507,-0.8906065999999999
-6.4272339999999994,7.3080324999999995,-8.3934965,0.40306634,-0.010245083,-1.0295348
-5.39044,16.954529,-16.01061,0.12627457,-0.18163641,-0.79957026
10.466981,22.946260000000002,14.4408,0.033649947,-0.746966,-0.52914894
-4.5144589999999996,12.193545,-4.618626,0.17044885,-1.0578616000000003,-0.33272958
-6.1904,5.3336873,1.0979999999999999,0.19388862,-1.3096427,-0.25659829999999995
-6.820697999999999,5.083695,-7.6489477,0.16193165,-1.4230367,-0.44238859999999997
-9.229801,12.098399,-1.8432001,0.19547687,-1.445918,-0.57812285
-7.1361289999999995,9.480781,-7.317082400000001,0.14276794,-1.2553455,-0.7947706
-2.809634,8.910472,-3.5798104,0.10498156,-1.1877315,-0.9603325
1.0700836,10.645789,-3.9871216,0.08262388400000001,-1.347429,-1.0609332
0.74303573,11.290854,-2.3223564999999997,0.057072267,-1.491698,-1.3382835
-2.6459951,9.992469,-4.6232705,-0.022759092999999998,-0.9221098,-1.8413223
-2.8224572999999995,9.082691,-4.29516,-0.11006046,-0.20666444,-2.3065748
-1.9063305,9.462402,-3.905575,-0.19683823,-0.11562806,-2.5226989
-0.48728707,11.421586999999999,-2.5365226,-0.35653585,-1.0897835,-2.5908365
0.07533116,10.756363,-2.5921447,-0.5529552,-2.4983165,-2.5860543
1.1182742,9.179839,-3.1035939999999997,-0.69881237,-3.6178057,-2.3699303
1.2748646000000001,8.838434,-3.8220650000000003,-0.69083625,-3.1738462000000003,-2.6547330000000002
0.0877044,9.367267,-2.878788,-0.49014083,-1.0493268999999998,-3.6842330000000003
-0.40996397,10.964343,-1.9936996,-0.38261107,0.5598666999999999,-3.7880452000000004
2.4210646000000002,10.918948,-0.040720582000000005,-0.27082273,0.97295123,-3.562339
5.263547,10.632028,-0.3780349,-0.007853981999999999,1.2220795,-2.6195822
4.7047787,11.469489999999999,-2.8495116,0.4030838,1.2279438999999999,-1.7928895
1.7550648000000002,11.753079,-3.0403202,-0.08876745,-0.27160814,0.040421825
0.55663276,11.778764,-2.0702853,-0.24366541,-1.7589253,1.7007536
2.5640848,11.872684,-1.3334938,-0.38419932,-2.1459172000000004,3.0198560000000003
4.9384146,12.609378999999999,-1.8732904,-0.10473721,-1.4134375,3.788534
9.715613000000001,14.974017000000002,-4.1011333,0.2401922,0.1031315,4.202683
7.798461,18.565214,-3.8845828,0.48026225,1.4664081,4.6120324
2.6016545,19.388351,-7.849438,0.5223247,2.3053706000000003,5.086343299999999
-0.6068056,12.732241,-4.4544888,0.43715262,2.873353,5.3221545
-5.390181,9.219927,-3.3399495999999997,0.2231578,3.0857596000000003,5.398286
-11.039913,7.805299000000001,-4.7771025,-0.23249531,2.5390527,5.752815
-12.597619,8.027366,-4.462016,-0.41294490000000006,1.7336529999999999,6.2201962
-8.71725,2.596282,-1.9426839,-0.34054863,1.4025465,6.3319845
-4.439731,0.6254708000000001,0.48855119999999996,-0.24794148,1.733112,5.9210296
-1.7292458,0.54869354,2.3614490000000004,-0.17765707,2.203164,4.7445903
-0.66316515,1.5969613,2.3703077,0.23699826,3.1038587000000004,3.3286047
-0.59404933,3.5613177000000005,1.166503,0.44886377,3.035721,1.6517796999999999
-0.94135225,4.661511,0.77489775,0.5494645,2.0674124,-0.74366736
-0.5144469,6.0984435,0.6147640000000001,0.86036,1.5217875,-2.7436228
-2.1816635,8.068087,-0.78910977,0.5478763000000001,0.6232222,-3.815726
-6.3156834,9.680045,-4.080878299999999,-0.14467034,-2.250794,-1.0013129
-7.278881,10.323338,-2.6781347,1.4139785,0.7062649000000001,-4.1516147000000005
-4.137631,11.807072999999999,-3.0996099999999998,1.064232,1.6053538,-3.5245354
-1.6800688999999998,14.927244,-3.8298989999999997,2.1885033,1.8906803,-2.9288719
-0.8242949,16.766365,-4.685156,0.9306270000000001,0.21439624,-2.2070386
-2.8859613,14.424653,-1.8049408,0.87205374,-2.0319996,-1.5762243
-5.9511237,12.594679,-7.602692,0.30248302,-2.9289591,-0.9970542
-8.847476,8.432685000000001,-4.5776753,0.28119,-1.9234052,-0.79957026
-6.6468215,8.253541,-7.305782300000001,0.41318923,0.45553094,-1.1434524
-5.6420703,14.766401,-11.528876,0.3615624,1.260407,-1.1232241000000003
8.958997,22.800615,12.1916485,0.25403267,0.42039746,-0.85758495
1.4810531999999998,14.617942999999999,-0.83270335,0.23221606,-0.7405781,-0.54405403
-7.313098399999999,6.7664356,-1.7687691000000003,0.2854486,-1.534284,-0.32738885
-7.582006,3.0091188,-6.634314,0.28012535,-1.375651,-0.5062502000000001
-12.300575,10.9630785,-7.870133999999999,0.24870941,-1.0871307,-0.68085295
-8.691144,9.664206,-6.147563,0.2380629,-1.0823311000000002,-0.82086325
-3.296586,9.23976,-4.4595933,0.21144664,-1.2760975,-0.91881114
1.8503157,10.383968,-2.9985845,0.18217747,-1.3080370000000001,-1.1184243999999999
4.868743,10.978641,-0.054769757999999995,0.15289085,-1.0684905,-1.4548541000000001
-0.83678305,10.366444,-4.348407,0.07675958,-0.6969274000000001,-1.8812555
-4.509728,9.37555,-3.6782122000000004,-0.029670598,-0.478674,-2.2607949
-5.088856,9.4141445,-3.564229,-0.14465289,-0.729408,-2.431139
-1.6815628,11.029810000000001,-3.1356667999999996,-0.37622318,-1.3564874,-2.5008824
0.31231883,11.530686,-1.245004,-0.5593431,-2.128883,-2.5120522999999997
0.7080325,10.550289,-2.5431595000000002,-0.66792005,-3.2595419999999997,-2.3289325
0.12570517,9.962196,-3.1843169,-0.68336624,-3.0695105,-2.66058
-0.013819332,9.54166,-3.0582,-0.5071752,-1.2760975,-3.7161725
1.0502692,9.326402999999999,-2.204868,-0.39645153,0.24740042,-3.7811162000000005
2.5849333,9.7457905,-1.37929,-0.13081242,0.55454344,-3.2956355000000004
3.5973742,10.883083000000001,-2.2436352000000004,0.20505874,0.9974381999999999,-2.3864236
2.8611956000000003,11.646336,-3.0182933999999997,1.0003529,1.0922096000000001,-1.8828436999999998
0.8163557,12.065263999999999,-2.2551944,0.33122858,-0.26628488,0.06332055
1.4877857,12.698203999999999,-1.5528792,0.23221606,-1.848356,1.8082832999999998
3.6278667,12.492092,-2.6944156,0.19282398,-2.037864,3.1492023
5.1940007,13.059019000000001,-2.5991168,0.40149555,-1.1573976000000001,3.7688464999999995
10.115741,14.605387,-5.2154045,0.6303955,0.31873202,4.190972
8.408206,17.591139000000002,-3.4264092000000006,0.7533539,1.6266469,4.611509
1.7647661000000001,19.602401999999998,-6.1053866999999995,0.6995978,2.480497,5.0788910000000005
-0.46457088,12.192989,-3.4275584,0.46163958,2.9329734,5.3296247
-4.1639576,8.316231,-2.0004513,0.18324211,3.0942767000000004,5.470682
-10.483185,7.451952499999999,-4.344145,-0.38421679999999997,2.4687857999999996,5.806047
-13.389017,8.162265,-4.492595,-0.6455798,1.6623213,6.265453
-8.256117,2.9108417,-0.17077363,-0.51462775,1.3077927,6.354883
-3.934995,0.9952888000000001,2.1168668,-0.34428364,1.7134247,5.978520400000001
-1.0037355,1.2428780000000001,3.0878403,-0.28572786,2.2957885,4.8169866
-0.48992070000000004,3.0365849999999996,2.712822,0.1624727,3.255039,3.2492794999999997
-0.49997634,4.4483404,1.6346747,0.28490755,3.3029482000000003,1.2642467
-1.2938648000000001,5.0620704000000005,1.0647111,0.4760210999999999,2.3750963,-1.2334068
-0.6096978,6.507364,0.4951209,0.8832413,1.6452868999999999,-3.0880284
-2.0647404,8.723446000000001,-0.16771862,0.7490953,0.06373943,-3.5436989999999997
-6.002197,10.743155999999999,-4.2376510000000005,-0.11857767,-3.2999987999999996,-0.65210736
-7.666761,10.956653,-2.1337316000000004,1.2777032,0.30328587,-4.501885
-4.6740947,12.236047,-1.9465818,0.94553214,1.2971462,-3.5091066
-1.8939284,14.998544,-2.9188862,2.0831203,1.8369241000000003,-3.0278669999999996
-0.98924583,16.310308,-3.745633,1.1089473,0.39379865,-2.1915925
-2.4812167,14.897019,-1.6810935000000002,0.9780127000000001,-1.4954156,-1.6890773000000001
-5.892321599999999,12.368360000000001,-8.196913,0.38285542,-2.409427,-1.1338532
-8.759963,7.410589999999999,-4.513396,0.3503923,-1.8643083999999999,-0.84426814
-6.697406,7.1821356,-7.6943517,0.42757076,-0.010768682,-1.0524161
-5.707546700000001,12.386633,-14.653147,0.32429963,0.5971295,-0.9731083
11.919408,24.006726999999998,10.107295,0.24977407,-0.20134118,-0.6968227
1.0663869,16.787846,0.084007755,0.058136917999999996,-1.1887961999999999,-0.40777870000000005
-7.6875424,7.089901400000001,-1.5913013999999999,0.13533282,-1.5257493,-0.20495401
-8.516828,2.0495514999999997,-5.3716406999999995,0.27426103,-1.2287291999999999,-0.38435640000000004
-9.713600999999999,11.10312,-4.983004,0.32484066,-0.9769306000000001,-0.6270968000000001
-7.753344,10.41585,-7.4191046,0.2311514,-1.1259816999999999,-0.8064816999999999
-4.827744999999999,8.719654,-5.3310733,0.20825268,-1.6423372999999999,-0.9289166
0.01100375,9.639008,-3.2122717,0.18004817,-1.6418138,-1.1663337
3.697203,11.536585,-0.28497705,0.13798574,-1.0418743000000001,-1.5799419
-2.6411013999999997,11.263828,-3.4325957000000002,0.06825983,-0.4957084,-2.0494528
-4.753831,9.551457000000001,-4.1592836,0.011309733999999998,-0.48399726,-2.3901412
-3.152407,8.84556,-4.487433,-0.13880603,-0.9050754000000001,-2.586578
0.3988357,10.41924,-3.9024910000000004,-0.30649728,-1.6604363999999998,-2.6898491
1.0069151,10.801757,-2.5444715,-0.41826814,-2.4940581,-2.656304
0.6709128000000001,9.811256,-2.362742,-0.5172806999999999,-3.7588632000000004,-2.3699129
-0.4514411,9.828189,-3.1564674,-0.5646664,-3.3202271,-2.802161
-0.30326873,9.777058,-2.2992573,-0.339484,-1.0935011000000001,-3.6746510999999997
1.9624026,9.978497,-1.5247331,-0.32990214,-0.15554374,-3.5224059999999997
3.6641724,10.306741,-1.4107211000000002,-0.08344419,0.25804693,-2.953359
3.9252648,11.033277,-1.9773424,0.24179791,0.78611374,-2.0308300999999997
2.4273279,11.640293,-2.7701776000000002,0.8012632,0.7855727,-1.4170677999999999
1.0732632,11.955695,-2.7548163,0.33815753,-0.91305155,0.5429545
2.3841653,12.509618,-2.1288092,0.33068752,-1.8419682000000002,2.1516417999999997
3.8416977,12.893265,-2.4651468,0.3562566,-1.6796001,3.1960645
5.075085,14.696242000000002,-2.8192205,0.62187827,-0.6043028,3.706032
9.095514,15.689309,-5.157455000000001,0.8390496,0.7483099,4.2000127
4.379656,17.97942,-3.5419532999999994,0.9865299000000001,1.6591275,4.757907
1.3628083,17.755104,-5.788069,0.8662069,2.0988283,5.355159
-1.6841964,10.942249,-3.2805733999999998,0.63519514,2.4794497000000004,5.458971
-5.9259653,7.471882300000001,-0.8402881999999999,0.3743382,2.1637718999999995,5.5627832
-13.485273999999999,6.788183999999999,-4.7878194,-0.17446311,1.6101534,6.01046
-11.905992,6.101144000000001,-2.1288955,-0.10845476,1.2077155000000002,6.281946
-6.693967999999999,1.8919748,-0.12251609,-0.08450884,1.3647601999999999,6.011524700000001
-2.4373357,0.33839646,2.2651446,-0.18830357,1.8827041000000002,5.4062795999999995
-1.2135633,0.7747541,2.999475,-0.04405211,2.453357,4.243663300000001
-1.0120482,2.3030880000000002,2.3154516,0.27426103,3.5430357000000003,2.8064022
-1.7612897,3.974643,1.1334246000000001,0.42544144,3.6697292,0.95710367
-0.96627104,5.624449299999999,0.46545196,0.61601394,2.7291014,-1.2041202
-0.26565102,7.039384,2.0044928,0.9998292999999999,2.4166353,-3.0582182
-3.5435524,8.906047000000001,-2.8068376,0.4169417,0.80314815,-3.5378345999999996
-7.7985854,10.681923,-3.4022276,0.15130259,-1.5523831,-1.5666423999999999
-6.2707205,11.489305,-1.0825909,1.3277417,0.8542514000000001,-4.5013614
-2.7211921,12.459494,-2.2370942000000005,1.0174048,0.63866836,-3.0060502999999996
-1.2987874,14.058235,-3.306019,2.1299647999999998,1.0054318000000002,-2.7292411
-0.9099116,16.07491,-2.3033657,0.83746135,0.05363397,-1.9525871
-1.7994629,13.967571,-1.7044226000000002,0.57451004,-1.6210444,-1.485729
-4.846573,11.818344999999999,-7.201298700000001,0.38393754,-2.3886576,-1.0502868
-6.9811954,7.964647,-4.725704,0.31258845,-1.3575344999999999,-0.92998123
-6.481152,7.8343163,-7.574430499999999,0.34133404,0.46778315,-1.260023
-4.651196499999999,14.855342000000002,-13.935058999999999,0.19069467,0.62961006,-1.0492221000000002
12.691098,24.363148000000002,14.772195000000002,0.19760618,-0.26680848,-0.67446506
-3.1489117,13.143057,-2.2374294,0.2604206,-1.2356408,-0.35452873
-8.554387,4.7320437,-1.2871419,0.22530456,-1.3421059,-0.39285615
-6.4247828,3.094544,-8.445135,0.26734954,-1.2478755,-0.47324604
-8.549963,12.000065,-5.1267424,0.23540999999999998,-1.128111,-0.62868506
-8.055972,10.537581,-7.685445,0.19547687,-1.3048431,-0.72504467
-2.8290749,9.048214999999999,-1.3623391000000002,0.1731192,-1.5502537,-0.8032878000000001
2.522617,10.604915,-2.6300783,0.15981979999999998,-1.6343437,-0.9943839
2.6402970000000003,11.985221000000001,-2.9480188,0.09168214,-1.2883322,-1.4782764
-2.9286451000000002,9.750548,-3.524916,-0.0030543262,-0.7352548000000001,-2.0212483
-5.304986,8.943675,-3.9683797,-0.04935791,-0.386573,-2.3922703
-2.8807416,10.088514,-3.234011,-0.2681524,-0.6351777,-2.6344872
-0.52895576,11.768286999999999,-1.7237773,-0.39910445,-1.4091789,-2.7196592999999996
0.28781176,10.984176,-2.7072005,-0.5204746,-2.2667463,-2.7441463
-0.06871359,10.2192955,-2.6106184,-0.49759337,-3.2313375,-2.6265110000000003
-0.4923628,9.422667500000001,-3.2846246,-0.44594908,-2.528127,-3.2200450000000003
0.2564669,9.9601755,-3.698237,-0.29211575,-0.5004906,-3.9285617
2.067786,10.113539,-2.5932367000000003,-0.25537658,0.020629792,-3.6411059999999997
4.377386,9.312294999999999,-1.0796317,0.24233897,0.6679375,-3.112498
5.019463,10.672403,-1.3450722,0.68575734,0.72277576,-2.0164487
2.9186468,11.859123,-1.6772053,0.5702514,-0.23326325,-0.5158146
1.6323667,11.727997,-2.2621374,0.33602825,-1.9654502,1.4617481
2.8174486,11.846175,-2.3910127,0.24977407,-2.2944273999999996,2.821831
4.715859,11.679816,-3.261123,0.48827332,-1.4682583,3.5058777
6.3219085,13.497972500000001,-3.6951437000000005,0.8395905999999999,0.13934709,3.9546193999999995
9.433634,16.10633,-5.615542400000001,1.0051526,1.4451326,4.424671599999999
2.7799459,19.602928,-5.090274,0.9662841000000001,2.2574612999999997,5.0304402999999995
0.8415619000000001,16.954971,-3.939276,0.73792523,2.8872107999999996,5.383921599999999
-3.1675,9.974407000000001,-3.3232572,0.46163958,3.0591432999999997,5.4499125
-8.431813,7.9469204,-2.2139087,-0.25218263,2.4038593999999995,5.790076999999999
-14.556545000000002,8.674471,-5.0293846,-0.56360173,1.4941065,6.352754
-9.37758,4.5479007000000005,-0.12672031,-0.5172806999999999,1.0975329,6.4677362
-4.1767135,1.7601596000000002,1.7009941000000002,-0.43210859999999995,1.7144892,6.2649117
-1.5288128,1.0398593,3.6587712999999997,-0.39219293,2.4027773999999997,5.300338
-0.9761639000000001,1.6580613000000002,3.1422749,-0.0312763,3.346058,3.7997214999999995
-0.7285556,3.1458662,2.205443,0.48932052,3.8544373999999997,1.9812802999999999
-1.0910378,4.7488513,1.4599363,0.14971434,2.6013433999999998,-0.43224823
-0.09546161,6.471604,1.409773,0.65540606,1.4941065,-2.516311
-1.4065648000000002,8.0410795,0.5666691999999999,1.1392986,0.9756216000000001,-3.8561654
-6.482569,10.042335000000001,-4.3287935,0.03577925,-2.5781655,-1.0790323
-7.9085746,10.258139,-1.0197959,0.13266248,-2.3487419999999997,-2.6382222
-4.4598904,11.352835,-1.0713766000000002,0.84119636,1.0767634,-3.7853748999999994
-2.0384712,14.481003,-2.3312342,1.2154124,2.0429254,-2.8665812
-0.70069665,17.037138,-3.4594204,2.1507167999999997,2.7237782000000004,-2.655239
-0.70901895,15.502667,-1.3798742,0.866748,1.0703756000000002,-2.0968385
-4.750968,13.781437,-6.666597400000001,0.6170786,-1.8371685000000002,-1.4490073
-9.750625999999999,9.632448,-5.959072,0.17577212,-3.030642,-0.77721256
-7.921149300000001,6.8469,-7.5230603,0.41852996,-2.4163384,-0.6244264
-7.2934756,8.61225,-9.402337,0.58993876,-0.14011504,-0.99972457
-2.8808279999999997,18.091795,-6.665303999999999,0.3051359,0.73872805,-1.0699741000000003
13.653873999999998,22.365301000000002,12.15156,0.15289085,-0.29715976,-0.7117278
-3.9628348,10.180921000000001,-3.2654326,0.13107422,-1.5635531999999999,-0.41788417
-3.9657937999999993,4.988683,1.3348632,0.21411699,-2.0037951,-0.28640854
-6.0028477,5.4970870000000005,-7.4131092999999995,0.21357594,-1.7115396,-0.4642052
-11.305162,12.977215,-9.542225,0.15554374,-1.2984551000000002,-0.72823864
-8.723714999999999,8.770228,-7.865843300000001,0.20558234,-1.0594497999999999,-0.88154835
-4.944380799999999,8.778167999999999,-2.951457,0.13318607,-1.1031004,-1.1077780000000002
1.5749443,10.916266,0.14217728,0.13426818,-1.1872078000000001,-1.3957747
6.420502,12.0519705,0.7865335999999999,0.06291912,-0.85449576,-1.8242879
-0.79256696,10.784680999999999,-6.4221010000000005,-0.022218041,-0.46324529999999997,-2.1995862
-4.7663484,8.639707000000001,-4.9240303,-0.11325441,-0.43982297,-2.4322035
-4.154457,8.781328,-3.7306833,-0.32405528,-0.86940086,-2.6073472
-0.008169016,10.709321000000001,-3.7288542000000002,-0.42893213,-1.4554999,-2.6707027
1.2181411,11.604589,-2.0528843,-0.52687997,-2.2848627999999995,-2.611065
1.0923783999999999,9.970566999999999,-2.1191463,-0.49439943,-3.2249496,-2.4534967
1.0165110000000002,9.227703,-3.287143,-0.61844,-2.5930880000000003,-3.1817352999999997
0.9515802999999999,9.915108,-2.5708365,-0.31075588,-0.65222955,-3.7662284
2.150156,9.974503,-1.4900554,-0.40390408,-0.22104596,-3.4777080000000002
3.62304,10.813383,-1.3196265,0.17418386,0.45713663,-3.0651472
3.4343865,11.964994,-2.7050266,0.59897953,0.83402306,-2.159653
1.7106668,12.448565499999999,-2.21139,0.4307647,0.11271336,-0.78892374
1.8241135,12.012045,-1.9564267,0.3014009,-1.1856196,1.0678098999999999
3.320729,11.844317,-2.562696,0.31204742,-1.4075906,2.5625796000000003
4.2928324,11.928918,-3.3451211000000005,0.47174504,-0.6612703000000001,3.3163524
6.296684,13.858606,-4.540987,0.64315385,0.5928709,3.885417
9.9589405,15.888622,-4.6859508000000005,0.7203497,1.5558388,4.5023737
2.5035977000000003,18.554527,-4.6717677,0.5963092,1.9960808,5.0863255999999994
1.5274336000000002,16.254906,-4.382299,0.3578274,2.143526,5.5627656
-2.2083158,9.711993,-2.1365376,0.15767305,2.2169871,5.72831
-7.6858759999999995,8.12909,-2.9042814,-0.19631463,1.7708983,5.967857
-12.922808999999999,9.561369000000001,-2.9991686,-0.37730527,1.3817772,6.3761589999999995
-8.589668,4.2214565,-0.51544285,-0.19790289,1.2806354,6.5257335
-3.5194767,1.0941023,1.0383174000000002,-0.11114257,1.8060318,6.1062613
-1.7700716,0.8555249,1.9986892,-0.0850499,2.4698502999999996,4.975078599999999
-1.6611642,2.3614683,2.409333,0.08367108599999999,3.2103062,3.3280637000000004
-1.4126748,3.9492357000000005,1.5894913999999998,0.43022367,3.8618726999999997,1.4681184999999999
-1.8153125,5.4975657,0.831535,0.35409240000000003,3.007499,-1.0034596
-1.5672923,6.630808999999999,0.5925074,0.94657934,1.9721172999999999,-2.748946
-2.1031147999999997,7.9041122999999995,0.79347676,0.7703709,0.3879169,-3.6698690000000003
-5.11141,9.504923,-2.8320724999999998,-0.34376004,-3.5347629,-0.14854497
-6.7037644,10.412757000000001,-1.6048142,1.2499874,-0.4712389,-3.927532
-4.670829299999999,12.02234,-1.1733886999999998,0.9157044,1.4424622,-3.6049252
-2.1803038,14.069545999999999,-2.9803023,1.8408686,2.3096116,-2.8213596
-2.0292199,16.540009,-3.3958015,1.2260414,1.4552381,-2.4918416000000003
-2.8120475,15.523534,-2.4302870999999997,0.7937932,-0.97588336,-1.7045408
-5.499089,13.13391,-6.987553999999999,0.21249384,-2.8257055,-1.0534981
-10.106997999999999,8.596772999999999,-6.975727,0.32908183,-2.3460891,-0.7207861
-9.370714,6.7212233999999995,-7.9996023,0.45204028,-0.17685421,-0.9773669
-8.305188000000001,11.800761999999999,-12.366646000000001,0.42383575,0.9026843000000001,-1.0455046000000001
5.742665000000001,24.191185,8.041022,0.31311208,0.25218263,-0.7649778
6.058566000000001,17.441654,5.007501599999999,0.23591615,-0.8816530999999999,-0.43120104
-5.696725,8.329083,-2.5199451,0.35463345,-1.5257668,-0.18420205
-5.2643227999999995,2.5719472999999997,-2.6082435,0.18428932,-1.540672,-0.3194127
-9.270971000000001,9.63193,-12.633187,0.15233234,-1.5561181,-0.533425
-9.765853,10.856317,-5.4822239999999995,0.16723745,-1.5859283000000002,-0.70696306
-6.2060002999999995,8.554089999999999,-6.376123000000001,0.09857619599999999,-1.3852328999999999,-0.9869488000000001
0.15903245,9.511254,-1.110019,0.12625712,-1.1786907,-1.3212491000000002
5.109284,11.802408999999999,0.6830849,0.09538224,-0.85131925,-1.7630967
-0.1831277,11.095526,-4.473106,0.0006283185,-0.56758106,-2.2219613
-4.4026594,9.23685,-4.3064795,-0.028640852999999997,-0.5489584,-2.5152638
-4.322185,8.5740385,-3.7701782999999995,-0.19524999,-0.76881754,-2.7122242
-1.2520621,9.616609,-4.284050499999999,-0.35653585,-1.4182371,-2.7995255
0.44426808,11.944125999999999,-2.5271947,-0.48377037,-2.3828107999999997,-2.7143536
0.12791741,11.089713,-2.8167017000000003,-0.59822905,-3.7194886,-2.2959456
1.1798531,9.689899,-1.9766912,-0.6248453,-3.361225,-2.784097
2.2953212000000005,9.492003,-2.7897813,-0.43586108,-1.1643265,-3.698632
3.0888362000000003,9.346322,-2.3151547999999997,-0.3522947,-0.17633061,-3.5096476
3.8925028,10.449684,-1.6155498,0.09005899,0.49703485,-3.140755
4.008373000000001,11.370935000000001,-2.6536949,0.4999321,1.0091318999999999,-2.2986162
2.6951623,12.266884,-3.1765692000000003,0.8193448,0.6434331,-1.1684805
1.5812266000000001,12.402242999999999,-2.4587781000000004,0.38175586,-1.0147519,0.7553086999999999
1.9432299,12.385857000000001,-1.7854999,0.3152239,-1.8382505,2.4092523999999997
2.9100563999999998,12.776302000000001,-1.940826,0.3604803,-1.4347478999999999,3.3924663
4.711999400000001,14.834302,-3.1038813999999997,0.59203315,-0.22743386,3.8827293
10.436144,15.218341,-4.92946,0.7735648,1.0155199000000001,4.4070787000000005
4.803219,17.62548,-3.9153337,0.82679737,1.8395596,4.968149700000001
2.5969331,17.772543,-4.837532,0.6708173000000001,2.4198117000000003,5.4546947
-0.9787018,10.366539,-2.9418130000000002,0.55689967,2.9068808999999995,5.438725
-5.872029,7.226352,-1.6069787,0.09377654,2.3979776000000004,5.6202393
-14.397666000000001,7.839995399999999,-5.4739876,-0.34536576,1.810814,6.1137137
-10.113549,5.554433,-1.1673648,-0.23624776,1.2316439,6.2749996
-5.491973000000001,1.8103133000000002,0.17711346,-0.2186723,1.3721778,6.0663279999999995
-2.4041905,0.94570965,2.4895197999999996,-0.12391838,2.0013864,5.2231245
-2.0156113999999996,1.7777425999999998,2.553646,0.045867253,2.9276327999999996,3.7704172
-1.4107593999999999,2.9767396,1.7956991999999998,0.57553977,4.2414117,2.0760167000000003
-1.6575824000000001,4.353846,0.97759086,0.3434459,3.4344065,-0.18528415
-0.21078552,5.9136014,1.2791166,0.8747067,2.6199486000000003,-2.182028
-0.40879557,7.4875402,1.6995577000000002,1.1712031,1.6638921000000002,-3.9099565000000003
-5.0001945,9.621407000000001,-4.798104299999999,-0.40179226,-3.0849566000000004,-0.67767644
-8.271775,10.402633999999999,-2.1381657000000005,1.0455744,-1.5241786,-3.3600729
-5.9868164,11.36609,-1.452907,0.8283855999999999,0.34958944,-3.6831858
-3.1908772,13.058703999999999,-2.5895398,1.586958,1.3051049,-2.7500281
-1.7392342,15.619810000000001,-3.150415,1.2515931,1.1549891,-2.690931
-1.1248822,15.938938,-2.1284742000000003,0.7645065999999999,-0.4558102,-1.8131353
-4.021991000000001,13.941072,-3.231521,0.40039600000000003,-2.5249502999999995,-1.1876616000000002
-6.747483,11.407327,-8.480032000000001,0.3998724,-2.3663173,-0.77403605
-8.763698,6.4325209999999995,-6.2062016,0.3657861,-0.35306266,-1.0199704
-9.4962,10.045007,-11.481527999999999,0.19757128,0.5806187,-1.0173174999999999
-1.9892560000000001,24.311768,2.0186566999999997,0.15446164,-0.10979866,-0.7282561
6.891997,18.584395999999998,9.801413,0.14168583,-1.0205988000000001,-0.46635200000000004
-7.019875999999999,9.371450999999999,-4.090283,0.28009045,-1.3314768,-0.26565656
-3.3496892,3.5091815000000004,-0.33445084,0.25614452,-1.1153526000000002,-0.40566690000000005
-5.640845,8.398275,-12.448948,0.19704767,-0.98972386,-0.6766118
-9.572497,10.735304,-4.291482,0.23378685,-0.8784591,-0.92200506
-7.840771000000001,8.771339,-5.757672,0.24282765,-0.8891230999999999,-1.1796681
-0.6053881999999999,9.353246,-2.5126188,0.24815091,-0.91200435,-1.3713052
4.649252400000001,11.926313,-1.2911355,0.20182988,-0.9130865,-1.6278860000000002
-0.77720577,11.226144,-4.4565095999999995,0.08419468,-0.7714704000000001,-2.0021021
-4.679017,9.355985,-3.3143604,0.0426733,-0.63254225,-2.298075
-3.3974104,9.173902,-3.3409648,-0.11807153,-0.7405956,-2.5429447
0.49627970000000005,9.938265,-4.6064157,-0.3155555,-1.2713326999999999,-2.7138299999999997
1.0864121,10.626645,-3.165604,-0.48802897,-2.148605,-2.6845434
1.1204002,9.669126499999999,-2.5779326,-0.5567076999999999,-3.672644,-2.3475900000000003
1.7031106,8.728128,-3.6236339,-0.65039694,-3.8962207,-2.6201406000000005
1.0788273000000002,8.809236,-2.448598,-0.48218212,-1.929287,-3.631018
0.7009361,10.474834,-1.855851,-0.44279003,-0.57451004,-3.4644086000000005
1.2972838,11.616082,-0.6704244,0.07620107400000001,0.45551348,-3.1135976000000003
2.6950377999999997,11.500978,-2.0748343,0.54625314,1.119332,-2.3475900000000003
2.8712418,11.935354,-2.4897304,0.95933765,1.0330952,-1.3500121999999999
2.1176524,11.984674,-2.825627,0.25134486,-0.8050156999999999,0.7473325
2.3800185000000003,12.477985,-2.5653775000000003,0.13264503,-1.6769646,2.4129875
3.7339778,13.112027,-3.0630745999999998,0.21195279,-1.2867614,3.3392162000000005
4.1561713,14.839329000000001,-2.989649,0.42807690000000004,-0.15132004,3.867283
8.742734,16.162623999999997,-4.7773995000000005,0.56967545,1.0011557,4.3612986
6.1943645,17.033913000000002,-4.1548405,0.6500653000000001,1.9476304,4.8340034
3.3733535000000003,18.090588,-4.8784637,0.5457121,2.6673343,5.307232
0.54870313,10.773686999999999,-2.9587162,0.39666098,3.1666555,5.5159035
-5.1685834,7.523434,-1.7987925,0.107617,3.0687077,5.7496032999999995
-12.751978,7.6469655,-6.781768,-0.42894956,2.2648964,6.1898274
-10.093954,6.6534004,-1.1000208,-0.49495792,1.3365208,6.523063
-5.6538115,2.688813,0.6780954,-0.43746677,0.93567103,6.486865
-2.7221022,1.6016347,3.1435294,-0.33152529999999997,1.1970515,5.69583
-2.3684976000000004,2.124289,2.569984,-0.07974409,2.0886880000000003,4.2463164
-1.6486759999999998,3.1297004,2.133406,0.5302834,3.594104,2.4273515
-1.2549831,3.993174,1.5057709,0.29925415,2.8791997000000005,-0.34552282
-0.57359326,5.1178360000000005,1.0178517,0.6878517,2.1664072999999995,-2.5120873
-0.44404778,7.1447864,0.9477111999999999,1.223371,1.5164467,-4.0983996
-3.3925263999999995,9.367026,-2.1114848,-0.36826447,-2.9146125,-0.72186816
-7.4052854,10.859285,-3.8256947999999995,0.6878517,-1.6923933999999998,-3.0316195
-7.310187299999999,11.885066,-1.7751759999999999,0.82625633,1.2758356000000002,-4.0824300000000004
-4.2527633,14.12964,-3.1180646,1.3729632999999999,1.8757577,-2.9581584999999997
-2.2253435,16.443157,-3.1311847999999998,1.79083,1.8762988,-2.7218235
-0.61553967,15.786782,-1.9396194,0.8651247999999999,0.08342674,-1.8477276999999999
-3.5540967000000006,14.1278105,-4.599271,0.44565237,-2.5180387000000004,-1.1967025
-6.6289506,10.30902,-6.492491,0.2939309,-3.270747,-0.70322806
-9.756075,6.6518006,-7.0660169999999995,0.34238124,-1.7914058999999998,-0.6026273
-8.713103,7.898692,-10.74807,0.44298202,0.6769608,-1.0870434
-2.5298283,21.247917,-2.2767037999999995,0.269985,0.9101193999999999,-0.8932770000000001
13.105725,22.041786,12.078288,0.22952825,-0.4776268,-0.5552416
-6.745126700000001,10.414941,-3.9998012000000003,0.29925415,-1.7328502000000001,-0.26459190000000005
-5.0198274000000005,4.052531200000001,-0.23947763,0.20556487,-1.9037353,-0.29335493
-7.5764130000000005,5.983091,-10.713985000000001,0.18905406,-1.8185631999999998,-0.5786639
-11.028182000000001,11.939385000000001,-5.3437624,0.10814059999999999,-2.010724,-0.7644542
-9.900684,9.014754,-9.373214,0.01870993,-1.8797720000000002,-1.0205115
-2.7425770000000003,9.183842,-0.7077739000000001,0.08686504,-1.3437290000000002,-1.3207256
4.622073,11.184225999999999,-2.2186107999999995,0.10283479999999999,-0.74485415,-1.7103877
5.225594,11.560288,-1.9760592000000001,0.0070162233999999995,-0.56918675,-2.0654576000000002
-2.8170848,9.802025,-4.171255,-0.07283259,-0.7374016,-2.3928463
-5.424332,8.700137,-4.475730400000001,-0.18566813,-0.8523839,-2.6238582000000004
-2.2341634999999997,9.236868,-3.9471477999999998,-0.40500364,-1.1531565000000001,-2.8245535
1.0806277,11.409434,-4.3797326,-0.53115606,-2.0038126,-2.8639457000000004
0.21896411,11.338431,-2.269981,-0.58971184,-3.3255677,-2.569561
0.51798075,10.103808,-2.097857,-0.6291039,-3.306945,-2.8330708
2.5733645,9.417525,-2.7776283999999998,-0.576936,-1.5577238000000002,-3.7731576000000002
3.8478269999999997,9.008595,-2.9841330000000004,-0.558837,-0.29024825,-3.6006842000000003
2.990425,9.957763,-1.8398098999999999,-0.24370033,0.47041859999999996,-3.2765067
2.320872,11.63787,-1.9777446,0.13903293,1.246549,-2.3992169999999997
2.972909,12.453698,-2.4818392000000005,0.6319488,1.4530913,-1.5831707
2.8789797000000004,12.545311,-2.124423,0.019792033,0.002513274,0.49129272
3.2883593999999996,13.125187,-1.529847,-0.04886922,-0.89816386,2.1893933
4.123017,12.790142,-1.9314983000000001,-0.061645027000000005,-0.8646360999999999,3.3450806000000006
5.1773176,13.470976,-2.8335664,0.107617,-0.2311514,4.0280629999999995
9.6883955,15.201858999999999,-5.504911,0.31735322,0.6801548000000001,4.608297299999999
5.9183517,18.437986,-3.6688074999999998,0.44617596,1.4451152,5.060233
3.1923137,19.550542999999998,-6.407382,0.49036769999999996,2.086035,5.433402
-0.09292376,11.573121,-2.811597,0.37592646,2.6353948,5.5260267
-5.0638037,7.928916,-2.5023334,0.15500268,2.766347,5.557966
-13.423092,8.013815,-5.3804703,-0.43107888,2.3442216,5.860327
-11.236419999999999,6.304766000000001,-2.5031285,-0.5838475000000001,1.5414573,6.120101999999999
-7.201117,2.0475788,-0.58927053,-0.5284857,1.4174342,6.1291428
-3.8178036,0.50159484,1.2591202,-0.27989846,2.2638316,5.719252
-2.6838236,0.7456023,1.9811636000000001,-0.4236263,2.8424606,4.4826690000000005
-1.5770415,1.5552638,2.0816627,0.24495696,3.0229277999999997,2.9873578999999997
-1.1503661,3.0241257999999998,1.0824378000000001,0.34396950000000004,2.3309047,0.63287383
-0.94245356,4.4533777,0.69732565,0.62770766,1.7347002,-1.8541156000000003
-0.28996655,7.089758,0.9869378000000001,1.1323521,1.722448,-3.8913337999999995
-2.7303572,10.013596000000001,-1.6764008999999997,-0.06270968,-1.4358126,-2.4801302000000005
-7.156134599999999,11.225799,-4.572217,0.57445765,-1.7163568,-2.4396737
-7.264161,10.9907465,-2.5331228,1.0801842,1.225797,-4.62062
-3.805957,12.956749,-2.2919598,1.1749382,1.3711132,-3.0869812999999997
-1.8859221999999998,15.302339000000002,-3.6671221,1.8712199,1.1464893999999999,-2.9177017000000003
-1.8042896000000002,17.048756,-2.9240577,1.0098999,-0.62348396,-1.9057598999999998
-4.1080866,13.409253,-3.5947025000000004,0.61545545,-2.3727052000000004,-1.408568
-5.0588427000000005,11.650291000000001,-5.6835093,0.39933133,-2.3306603,-1.0322052
-6.075497599999999,7.664308999999999,-6.232174,0.33651695,-0.8012807,-0.9779254000000001
-7.269199,8.222685,-8.335682,0.2934073,0.6519503000000001,-1.1525108
-3.7567515,18.428898,-10.260839,0.16404349999999998,0.4092099,-0.8597492
14.877876,22.75976,12.928066000000001,0.13955653,-0.41161844,-0.50574404
-5.4036555,10.140392,-4.4330940000000005,0.27104962,-1.2143651000000002,-0.1820902
-8.284186,4.619726999999999,0.65685403,0.27637288,-1.5348251,-0.19593066
-10.310839999999999,5.6809044,-11.263742,0.26996753,-1.5305665000000002,-0.40727258
-11.072906,12.825078,-1.5382075000000002,0.25082126,-1.2558866000000002,-0.5557826
-6.7599134,8.969819000000001,-9.099967999999999,0.18320721,-1.4033494,-0.7474198000000001
-1.3578476000000002,9.300478,-2.7106576000000002,0.17523105,-1.7738479,-0.9268046999999998
2.9760695,10.99722,-1.9938241,0.16510814,-1.6098917,-1.313273
0.8651304,11.540617,-3.5124757000000004,0.06557202,-0.9689719000000001,-1.8573096000000002
-3.7224379,9.934663,-3.1168005,0.008080875,-0.56440455,-2.2932928
-4.7791714999999995,9.077156,-3.6591733,-0.080808744,-0.6027319999999999,-2.545615
-2.3424487000000003,10.542551,-3.2129517000000005,-0.28042206,-1.1414453000000002,-2.7271292000000003
-1.0535828,12.1346855,-1.3133823999999998,-0.42629668,-2.0628919999999997,-2.7766442000000002
0.9315743000000001,11.191302,-1.7076596000000002,-0.47685885,-3.3266324999999997,-2.612688
1.2099625,9.812913,-3.4348078,-0.44704863,-3.6375105000000003,-2.6414337000000003
0.32048786,9.171372999999999,-3.5931029999999997,-0.37198200000000003,-2.0453165,-3.466538
1.4158831,8.964523,-3.051228,-0.3836932,-0.10021680599999999,-3.7816746
3.6465513999999994,8.669797,-1.7759709,0.01605703,0.5912651999999999,-3.6256945
4.7185984,9.798960000000001,-1.4346056999999999,0.13690363,0.76852083,-2.5605202
3.5159714,10.987615,-2.0318153000000003,0.54998815,0.8451757,-1.8743439999999998
1.380602,11.357921000000001,-2.0597317,0.23963371,-0.23914501,-0.20444787
1.2447071,11.619539999999999,-1.4091697,0.22048745,-1.8339919999999998,1.4606661
2.6316683,12.187483,-2.040377,0.1576556,-2.1299647999999998,2.6637042
3.2169356,13.27377,-1.2038428999999997,0.40732494,-1.2351346,3.3211345999999997
6.3958797,15.270601000000001,-3.8948872000000003,0.71659726,0.28571040000000003,3.7438010000000004
8.741422,17.743246,-4.924174,0.947644,1.4972831,4.2218294
2.1643295,20.549951999999998,-6.536707,1.0125703000000001,2.251056,4.8238807
-1.3373915,13.088708,-4.293033599999999,0.7980518,2.741319,5.2279243
-5.5476813,8.769568,-3.4378532999999996,0.5467941999999999,2.8509952999999997,5.3114905
-10.026341,6.6180906,-2.6845706000000003,-0.069097586,2.0982697,5.671343
-14.018443,6.9182086,-4.2345767,-0.4049862,1.2721181000000001,6.24786
-8.389455,2.6007637999999997,-0.4050415,-0.26977554,0.8968200000000001,6.3889174
-3.7645662000000004,0.42906009999999994,1.5447677,-0.07068583,1.3892123,6.189304
-1.2565153999999998,-0.03829765,3.2088816000000002,0.059707712,2.016309,5.4717293
-0.67704195,0.9965338,3.0864422,0.31202996,2.4937963,4.1579504
-0.86913353,2.6473646,1.8580345,0.6729466,2.6045198,2.634435
-1.486397,4.416603,0.72626674,0.48769736,1.6468577000000002,0.27036896
-0.62103677,6.2005419999999996,0.53212565,0.8459610999999999,1.4616258999999998,-2.0798216
-1.9351470000000002,8.109219,0.059759274,1.0663438,2.080188,-3.8561828
-6.929136,9.713065,-5.4218993,-0.38049924,-0.50371945,-2.3763356
-7.8642344,9.755347,-2.536216,0.3519631,-1.0919303999999999,-2.417316
-4.63415,10.846136,-1.7066827000000002,1.0706023999999998,1.1161381000000001,-4.2847133
-1.3605003,13.470364000000002,-2.7061662999999996,1.2026191000000002,0.8323999,-2.911314
0.20589177,16.256783,-4.3376517,1.6790416000000001,0.65727353,-2.785685
-0.14680287,15.544613,-2.2252095,0.86032516,-0.09861110000000001,-1.9360936999999998
-4.9185333,13.601698999999998,-5.494904,0.45043457,-2.037864,-1.2616462
-5.159878,9.155753,-3.5514053999999997,0.4690747,-2.4355197,-0.80491096
-4.047292700000001,7.173133999999999,-4.925189,0.42010075,-0.83267915,-0.8352448
-4.592979,9.863335000000001,-6.492988599999999,0.45471063,0.7147647,-1.1051251
-1.9397438999999999,16.80698,-9.995821000000001,0.23005185,0.25483552,-0.80278164
10.911411,22.462975,18.790672,-0.0025481808,-0.9364913,-0.43121850000000006
-7.3652062,11.821705999999999,-4.991048999999999,0.10922269999999999,-1.4368773000000001,-0.21188296
-7.4716233999999995,5.6397142,-0.012152966999999999,0.13638003,-1.4842454,-0.13044591
-5.572217500000001,6.812251,-9.886559,0.14807373,-1.3985498,-0.28270844
-8.893473,9.210867,-6.3174934,0.14967944,-1.4746636,-0.43120104
-9.675352,9.259402,-7.276984,0.16723745,-1.4278364,-0.5541769
-2.3626747000000003,9.438537,-2.1324484,0.13796827,-1.3431879,-0.7559196
3.8688576,10.981332,-2.275363,0.10602875,-1.3511641,-0.9182875
1.1124322,11.55505,-2.6087031,0.08580039,-1.2766385,-1.295715
-4.2291656,9.917645,-4.765496,0.05014331,-0.7491128,-1.8088592000000001
-4.3398166,8.992861999999999,-5.251566400000001,0.01446878,-0.15397294,-2.2150323
-1.9344478999999999,9.314498,-2.968044,-0.060039327,-0.09115855,-2.4061458
0.68671453,11.203571,-3.4070928,-0.21121974,-0.69268626,-2.5274985
0.1250348,11.086063000000001,-2.7208857999999996,-0.38954005,-1.6199971000000002,-2.5700846
0.15213715,9.672757,-2.4567094,-0.5071926999999999,-2.761303,-2.4205097999999996
0.74714416,9.017358999999999,-3.9539763999999997,-0.56096625,-3.7189476000000004,-2.2496421000000004
1.0080930000000001,9.037115,-3.9863937000000007,-0.50028116,-2.7070057,-2.965611
1.1577976,9.580264,-2.5183554,-0.13721779,-0.6852337,-3.5894964
3.0642332999999997,9.369947999999999,-0.8417534,-0.22666591,-0.28119,-3.4196934999999997
4.719479,10.351925,-0.97466993,0.05864306,0.13878858,-2.822948
3.7424245000000003,11.836914,-2.3265607000000004,0.37165040000000005,0.5167396,-1.8855315
0.9263167,11.615833,-2.4031272,0.72726125,0.39165187,-1.090761
0.29525295,11.044155,-2.2534417999999996,0.28860766,-1.2867614,0.8032354
1.307962,11.375274000000001,-2.5263902999999996,0.20929988,-2.0905728,2.4060759999999997
2.3984444,12.006787,-2.9196617999999996,0.21622884,-1.8520911,3.3621324999999995
6.077068,14.176298000000001,-3.0327353,0.52975976,-0.50211376,3.8460076
8.703467999999999,16.006885999999998,-3.7412848,0.68465775,0.94898784,4.2936845
3.0044742,18.067488,-4.0960007,0.7251319,1.899721,4.6343904
1.0522516000000002,16.291114999999998,-5.0778045999999994,0.6074793,2.3692322,5.0421515
-2.1471869999999997,10.948991,-3.2387803,0.35037485,2.3388982000000005,5.342906500000001
-6.7034965,8.389177,-1.3625018999999998,0.051190507,2.0844467,5.600011
-13.856442000000001,7.950205,-4.718282,-0.22293091,1.8129433000000001,5.9934080000000005
-11.071861,5.9548296999999994,-2.4875276,-0.27563986,1.5595739,6.2542477
-6.4491653,1.5484738,-0.85045874,-0.082920596,1.9087793999999998,6.1062613
-2.1501944,0.48067906,2.2571769,0.16831955,2.6881037,5.437137
-0.5182393,1.057768,2.675779,0.18161896,3.2433104999999998,4.0866184
-0.035357572000000004,3.1008169999999997,1.7286998,0.5116607,3.7995992,2.695661
-1.180715,4.705583,1.062087,0.22368139,2.7072675,0.6451435000000001
-2.0844877,5.4024873,-0.09934979,0.80976295,1.9710526000000002,-1.7268811000000002
-2.4382167000000003,6.470234400000001,-0.36119884,1.010441,1.9950161,-3.547975
-3.261669,7.873370599999999,-1.543245,0.12945107,0.32244956,-2.989557
-4.745126,9.676625999999999,-2.5824435,0.23752186,-1.6146738999999999,-1.6049873
-4.296807,11.421892999999999,-2.1084394,1.1126648000000001,0.64290947,-3.9754236000000005
-2.2686977,13.53672,-2.3657873,1.1446043,0.6785666,-3.0135205000000003
-0.8721981,16.41504,-3.5334203,2.1128955,1.0011557,-2.7595925
-0.7396455,17.350616,-3.1692526,0.8177566,0.28305749999999996,-2.157541
-4.918648,15.339813000000001,-4.106056,0.63941884,-1.65726,-1.4282553
-7.0011344,10.300497,-6.867164,0.49783772,-2.3301194,-0.7969173
-6.7414975,6.810173,-5.103375,0.5270894,-1.1712556,-0.8341801
-5.1615353,8.782639999999999,-7.488498,0.33812264,0.14198254,-1.0103711
-3.552689,14.299091,-9.886482,0.09060004,-0.0027750734999999996,-0.85119706
13.749057999999998,22.454117,13.035126,0.06717772,-0.7203672,-0.5403365
-4.379444599999999,13.13212,-0.62829596,0.1635199,-1.2484341,-0.28482029999999997
-6.0765705,6.4812665,-2.0529704,0.15554374,-1.4187782,-0.29705504
-3.5894160000000004,4.6444925999999995,-7.3362746,0.153397,-1.2564101,-0.4748692
-9.611504,11.389064999999999,-6.505055400000001,0.18854792,-0.9460732,-0.5877047
-10.05511,8.766724,-7.6977034,0.11348130599999999,-1.0397625,-0.7458140999999999
-4.4630790000000005,9.394081,-0.38143462,0.054942965999999996,-1.4134548999999998,-0.7718893
2.6921265,11.655147,-1.9834044999999998,0.018727383,-1.5539888000000002,-1.0173
1.5526589,12.257796,-3.8192687000000007,-0.03181735,-1.0536028999999998,-1.4591302
-2.340179,9.58421,-4.0829663,-0.06321582,-0.31152382,-1.9999552999999999
-3.5358527000000004,8.945484,-4.499471,-0.1366942,-0.07038913,-2.3635422999999998
-1.7214884999999998,10.499704,-3.6726574999999997,-0.2713638,-0.42865285,-2.532298
-0.10998962,11.704371,-1.6746386999999998,-0.36505306,-1.1866668,-2.6030889
0.7655987,10.284974,-1.7748026000000001,-0.57107174,-1.9777198,-2.691455
1.0027013,9.507911,-3.5178294,-0.5332679,-2.8012185,-2.5610437000000004
-0.45728296,9.747378999999999,-3.0334343999999995,-0.46886525,-2.5031338,-2.8139070999999998
-0.70497745,9.801076,-2.6821667999999996,-0.27668706,-0.80180424,-3.6006665
2.012882,9.480108999999999,-1.0226498,-0.2144137,0.045099307000000005,-3.657093
4.5914470000000005,9.049833,-0.84566075,-0.1654223,0.0967436,-3.2573254
5.091471,10.214383,-1.8919651999999998,0.0959233,0.44488442,-2.3991995
2.6309883999999997,11.167447,-2.6904411,0.48026225,0.6205518,-1.7327453999999998
0.93288636,11.629347000000001,-2.3290699,0.07195993,-0.58461547,-0.11341149
1.4966346000000001,11.101588000000001,-2.0105646,-0.010524335,-1.6189325,1.506446
3.3888967000000005,11.0013,-2.041555,-0.05630432,-1.5960338,2.6333876
4.7336339999999995,12.286201,-2.9249002999999996,0.20291197,-0.4951848,3.3041002999999995
8.900943,15.231289000000002,-4.427626,0.39828414,0.83667594,3.7177258
4.559517400000001,17.926682,-3.2169738,0.51272535,1.6271704,4.19256
-0.12900917,18.834341000000002,-6.681106,0.46375144,1.8613936999999998,4.778118
-1.6055803999999998,13.625717999999999,-4.116609599999999,0.36740926,1.8166783,5.225795
-4.721318,9.758738000000001,-2.6612892,0.26520279999999996,1.6287762,5.5872526
-9.426183,7.6016,-3.5345885999999997,0.11986921,1.3599431999999998,6.0365353
-10.897094000000001,8.391533,-3.4147157999999997,0.1651256,1.1629827,6.4320445
-6.533288,3.0217412,-0.8688079,0.33227578,1.4626906000000002,6.580031
-2.054407,0.72965693,0.7131465,0.3785968,2.1185155,6.140871
-1.0522038,1.1776408,1.7312185000000002,-0.00572468,2.5539577,4.961238
-1.3373915,2.9843724,1.2290968999999998,0.07675958,3.272597,3.5351295
-1.9240859000000001,4.280746499999999,0.53994036,0.38070866,4.025829,1.7342813000000001
-2.4890409,5.02655,0.17063954,0.6490180999999999,3.3907733,-1.1312176999999999
-2.6236238,5.528815,0.35447592,0.6713758000000001,2.626895,-3.1226385
-3.318086,6.631728,-0.62830555,0.8965407,0.73021084,-3.9275142999999995
-4.4512043,8.039126,-1.5494412,-0.18938568,-3.9584940000000004,-0.07028441
-4.2023315000000006,9.274668,-1.0771514,0.71076787,-0.8571661,-3.7603642999999995
-2.6777134,12.281191999999999,-1.4009241000000001,0.7687826,1.4978241,-3.5996019999999995
-1.8622196,16.312952,-3.017604,1.7690308000000001,2.4480162,-2.9874277
-2.253327,19.387135,-3.3248184000000003,1.1440808,1.4839836000000002,-2.5855308
-2.8304157,15.928901999999999,-1.1168951999999999,0.92474526,-0.96097827,-1.7231636000000001
-4.5717473,12.347022,-6.794543300000001,0.24816836,-2.7282987000000003,-1.0066535
-6.3565674,9.028879,-3.604394,0.19600047,-2.522821,-0.6984284000000001
-9.165627,7.9882927,-8.371499,0.295013,-0.5191482,-0.81608105
-8.477504,10.69037,-12.877892999999998,0.31897637,0.8968200000000001,-1.038052
7.852014,21.438812,4.6440234,0.15873769,0.4108156,-0.8256629000000001
5.45109,17.14418,4.840923,0.121474914,-0.51700145,-0.5802522
-4.854838,8.670304,-2.1551454,0.22635175,-1.0488031999999998,-0.35613444
-5.1551089999999995,3.321993,-1.9371581999999998,0.15873769,-1.2718563,-0.42587778
-10.049652,9.88655,-9.331344,0.18802431,-1.2085008999999998,-0.66223025
-10.088141,9.959524,-5.3719373,0.16299629,-1.0993655,-0.8256629000000001
-7.8365383,8.841327,-8.006957,0.15234978,-1.0557323,-0.9512917
-0.9657635,9.861707000000001,-2.2872577,0.16992526,-1.1605916,-1.0923492
4.9367957,11.369192,0.5347114000000001,0.123604216,-1.064773,-1.4005743
1.6314856000000002,11.073107,-3.1225083,0.05440191,-0.6793694,-1.7849133000000001
-3.3472185,9.793971,-3.2525902,-0.021170842999999998,-0.38072613,-2.1708404999999997
-3.3752498999999996,8.335538,-5.023409,-0.13241813,-0.47548005,-2.418904
-1.7492229,9.143609,-3.607832,-0.28946286,-0.90668106,-2.5748842
-0.18550275,11.748396000000001,-1.6421925,-0.44277257,-1.5209846000000002,-2.602024
0.39394197,10.758115,-2.3685646,-0.49706978,-2.3476772,-2.4700074
0.8838627,9.989443,-2.7912943,-0.6088581,-3.6625211,-2.265071
0.3966618,10.169601,-3.2789452000000003,-0.6503795,-3.0822863999999996,-3.04546
0.661834,10.238124000000001,-2.2175287999999997,-0.54497904,-0.9966354,-3.6054663999999996
1.9896199,9.76432,-0.7408905,-0.42680280000000004,-0.32590532,-3.3238573
3.2970457000000004,10.839489,-1.4459445,0.024068091,0.54869664,-2.7952494999999997
2.936747,11.835554,-2.8575087000000003,0.63409555,1.2981933,-2.1106966000000003
1.5835059,11.456332000000002,-2.9670577000000002,0.746966,1.1486186,-1.0029185999999999
1.4967208,11.960398,-2.7762492,0.34398693,-0.41585959999999994,1.0353293
2.7027185,12.397407000000001,-3.1623764,0.25507987,-0.9460732,2.4800606
3.0144532,12.72977,-3.4772236000000003,0.36527997,-0.52073646,3.2817426
5.692588,14.805456,-4.7056026,0.5436177,0.410292,3.9067101
10.588319,14.186641,-3.5881135000000004,0.64475954,1.1459656999999999,4.494920700000001
2.5410812000000003,17.672082999999997,-4.720379400000001,0.6192079,1.6112007,5.070355999999999
1.5332371999999999,15.865685000000001,-2.5067675,0.47174504,1.9130379000000002,5.5547895
-1.2407328000000002,9.819531,-2.185868,0.3471809,2.117451,5.72831
-6.116036,7.3580136,-0.9771120000000001,0.018203784,1.8645875,5.9630747
-13.819054999999999,8.20151,-6.1884174000000005,-0.25059438,1.5547742,6.312803700000001
-8.999201,5.067893,0.030588321,-0.21439624,1.3290857,6.443773
-4.4177904,2.3489416000000003,1.1662059999999999,-0.20109683,1.6266469,6.2196555
-2.6544418,1.5657408000000002,2.8396287,-0.22984241,2.2180517,5.2337885
-2.5099277,2.6175137000000004,2.1814244,0.032044247000000005,3.2891078,3.7070794
-1.8035713,3.7917833,1.4837443000000001,0.49516737,4.133899700000001,1.7960311000000002
-2.3709203999999997,5.095532,0.8689228000000001,0.27052602,3.1693257999999997,-0.8677079
-1.6872035,6.202246700000001,0.91968954,0.6506064,2.054113,-2.7462757
-1.4338875,7.749619,1.3519961,1.1328931999999998,0.6099053000000001,-3.8455362
-3.9809446000000004,9.341436999999999,-2.1353216,-0.26017624,-4.0074677,-0.21985912
-6.0279964999999995,10.344963,-1.4847211,0.6000441999999999,-1.6018807,-3.5186884
-4.677226,12.142462,-1.0908653999999998,0.58939767,0.9484643,-3.7055259
-2.4272704,14.887357000000002,-2.206755,1.2920673,2.0136561,-2.9975330000000002
-0.8124866999999999,16.920932999999998,-3.1501853,1.9787669999999997,2.4879493999999998,-2.9810397999999996
-0.5397201,15.578554,-1.1064659,0.9306095,0.47363,-2.0100781999999997
-3.8307513999999996,13.538281,-5.657422,0.64156556,-2.4349787,-1.2701459
-8.648546000000001,9.609923,-5.7360764,0.38924333,-3.2377255000000003,-0.7548549
-8.351502,7.4524217,-8.3174095,0.3599567,-1.9558858000000001,-0.6478662
-7.913938000000001,9.130069,-13.735267000000002,0.50103164,0.64345056,-1.1636808
2.5456972,20.931883,-0.48494077,0.28117254,0.872333,-0.97790796
8.103473,19.086405,8.255352,0.106569804,-0.59472096,-0.6270968000000001
-3.301451,10.194013,-0.9355678,0.05120796,-1.8020349999999998,-0.34335864
-3.3480230000000004,4.3428903,1.6766499,0.041102502,-1.9047825,-0.250734
-6.9603850000000005,7.662269,-10.3968115,0.13957398,-1.4326186,-0.46952847
-11.673630000000001,10.999739,-4.2287927000000005,0.10498156,-1.1579211999999999,-0.7356912
-10.143275,7.9959636,-9.298122,0.20080014,-1.0663613,-0.907641
-2.9649794,9.425473,-2.0521948,0.102852255,-1.1323696,-1.0455046000000001
3.7733672,11.490674,-2.479895,0.097511545,-1.38258,-1.2078725000000001
4.609910500000001,11.148916,-0.18618270000000003,0.010751228,-1.2133006000000002,-1.6081812
-3.5069404000000004,10.167657,-5.2194557,-0.07333873,-0.65327674,-2.0654402
-5.7286544,9.245947,-4.9814715,-0.17448056,-0.3046123,-2.4423265
-2.7142491,9.330127000000001,-3.8706388,-0.34960690000000005,-0.6628586,-2.6818728
1.4963761999999998,10.778964,-4.619928400000001,-0.46087164,-1.5779347,-2.7377583999999997
1.7172363000000002,11.093428999999999,-1.4031841999999999,-0.51143384,-2.7192404,-2.587119
1.1477708,9.955522,-2.836794,-0.57744217,-3.6449456,-2.425292
0.63478905,8.921514,-3.2979553,-0.63599795,-2.5999993999999997,-3.2935061
0.10565133,10.267955,-3.3474293,-0.46087164,-0.5074196,-3.7747282999999996
0.6107416999999999,11.183632000000001,-1.0845926000000001,-0.32086134,0.124424525,-3.4968543
3.0390368,10.530054,-0.3972555,0.10124655,0.73872805,-2.86234
4.8140407,11.533961,-1.5752411,0.54681164,1.0096904,-1.9866560000000002
3.1315009999999996,12.221805999999999,-2.2059505,0.2646792,0.3416133,-0.49401546
2.1132948,11.867080999999999,-2.3185065,0.112975165,-0.9881181999999998,1.2977743999999998
2.9457204,12.281211,-2.7938035,0.041102502,-1.3197482,2.7292063
3.7682054,12.910752,-3.0405786,0.18589501,-0.62187827,3.4808497000000003
6.869319,15.201007,-3.9592626,0.40254274,0.55827844,3.9402378
11.111758,16.086613,-4.6733856,0.5201779000000001,1.4914361999999999,4.5215373
2.6217658999999998,19.112185,-5.558053,0.56011105,2.092964,5.071962
1.1446582,15.115323000000002,-3.8363826000000003,0.43821725,2.5087187,5.44246
-2.7137797000000004,9.337817,-3.165508,0.2902308,2.7487888,5.6245155
-7.9048110000000005,7.7736187,-2.5709033,-0.08131489,2.4693267000000003,5.9338055
-13.819563,8.233937,-5.1845765,-0.34376004,2.009921,6.3426313
-8.729442,3.5031576,-0.9334800999999999,-0.29585075,1.6766855,6.5087166
-3.9288754,1.2025405,0.5661425,-0.25965264,1.8550231,6.046658
-2.0638115000000004,0.9639631,2.3293955000000004,-0.115383714,2.3436804,4.920781
-1.8968971999999997,1.5967506,2.054139,0.36688566,3.3513812999999995,3.5383407999999994
-1.0309911,2.698093,1.0508248,0.50103164,3.9939067,1.6256868999999998
-1.4610951,4.082219,0.53874326,0.45312238,3.0309212000000003,-0.95713854
-1.0198054,5.3907940000000005,0.39239050000000003,0.8230798,1.8273423,-2.7377583999999997
-1.6046132,7.395938,0.086239144,1.0455918,0.60032344,-3.839672
-4.4067197,9.566129,-3.0583436,-0.28731609999999996,-2.915136,-0.6946934
-6.646476299999999,11.036983,-2.535316,1.0897661,-0.7778583,-3.5165591
-4.7125554,13.355260000000001,-2.3523127999999995,0.97054267,1.4312922,-3.8604413999999996
-2.2915382,15.569915,-3.480949,1.9441571,1.8507646,-3.0720587000000004
-0.67642903,16.137972,-3.2194254,1.0541091,0.6620732,-2.5008824
-0.25682122,14.994357999999998,-1.0354826,0.95509654,-1.0684905,-1.8525098999999998
-3.3533382000000005,14.508498000000001,-7.249231,0.27851963,-2.1549754,-1.2898332000000001
-7.498496,8.967099000000001,-6.2827587,0.31152382,-1.8185457999999999,-0.9975953000000002
-9.271795,7.288649,-8.245256,0.35037485,-0.23061036,-0.9603325
-8.522936999999999,10.642188,-10.592399,0.41107740000000004,0.8952317,-1.080638
1.3541125,20.940943,3.2323637,0.24390976,0.24420647,-0.7553785
9.630131,19.204763,8.59504,0.23272221,-0.88645273,-0.3864857
-6.4240355000000005,9.6652775,-2.5817444,0.31843530000000003,-1.601357,-0.106482536
-6.6501727,3.4249248999999997,-2.4913106,0.24178046,-1.6753415,-0.22624703
-9.973937,9.118145,-11.610577000000001,0.3599567,-1.5954926999999999,-0.4599465999999999
-7.315914,9.635829,-4.4114985,0.27851963,-1.5294843999999999,-0.7681543000000001
-6.2156253,9.206184,-7.2351722999999994,0.25029767,-1.5151203000000002,-1.1109719
-1.0291141,9.772078500000001,-1.862823,0.28117254,-1.2872851,-1.4777528
2.8332217,10.916152,-0.79276806,0.25029767,-0.8182976,-1.870068
0.016864758,11.212361999999999,-2.0719037,0.18057176,-0.5414884,-2.1915925
-5.2405243,9.957609,-4.258394200000001,0.114039816,-0.73898983,-2.437527
-4.6052566,8.949678,-4.4252796,-0.07812094,-1.0791371,-2.674944
-1.7528238,9.782162,-3.168228,-0.28785715,-1.4714696000000003,-2.8873506
0.88980985,12.156329,-2.6617775000000004,-0.34428364,-2.2614405,-2.8628635
1.7616439999999998,10.879396,-3.1172313999999997,-0.41561526,-4.060159,-2.4934297
2.2138991000000003,9.738914,-2.1002702999999996,-0.62802184,-4.2028227,-2.7681096000000003
2.5172827,9.094347,-2.5794363,-0.5971295,-1.9532154,-3.5841557999999996
3.2910218,9.67768,-2.1684284,-0.54497904,-0.18537141,-3.4542685
3.1511812000000003,10.426577,-1.572981,-0.18990928,0.73553413,-3.0906990000000003
1.8023646,11.369786,-2.2305055,-0.044593163,1.4318157,-2.1969333
1.3822492,12.094272,-2.2038531000000003,0.9034697,1.9870398999999999,-1.8195057000000001
2.109081,11.891071,-2.2645223,0.24125686,0.30435053,0.15381587
3.506653,11.745781,-2.3220022,0.23221606,-1.3490348,1.8210591
3.41281,12.537658,-2.4851718,0.14437364,-1.7855417000000002,3.0565777
2.6408810000000003,15.370114000000001,-2.4209592,0.42757076,-1.0514561000000002,3.6203190000000003
7.453839299999999,15.644614,-5.1154513,0.7623946999999999,0.15371114,4.1148405
5.3001976,17.202913,-4.07201,0.9401914000000001,1.1486186,4.667935400000001
2.5603017999999995,18.9613,-4.9728913,0.9375385,1.906109,5.2247305
-1.0013604,11.319737,-3.5820705999999998,0.71874404,2.4725206,5.4238377
-5.4356422,7.161382700000001,-0.8231457,0.41905355,2.3474154,5.523915000000001
-13.128739000000001,4.909511599999999,-4.9265585,-0.24048892,1.5856665,5.9449754
-14.040977499999999,5.9964794999999995,-2.9481146000000003,-0.43851396,0.8569043,6.374029599999999
-8.863594,2.2960587,0.35507926,-0.44383723,0.71904075,6.4655895
-4.327662999999999,0.6200599,3.0582477999999997,-0.31925562,1.395094,6.1903863
-1.828902,0.26879224,4.267722,-0.42945573,2.340504,5.122000000000001
-1.1041579,1.4408689,3.3392602999999994,0.0027576203000000002,3.3976848,3.5484464
-0.9732334,3.1958189999999997,2.0851387999999997,0.46322784,4.0870546999999995,1.5958767
-1.1647025,4.942954,1.5603204,0.26254988,2.9633248,-0.833098
-0.47047022,6.772727499999999,1.5987426000000002,0.7192675999999999,1.7442819999999999,-2.6680324
-3.2027044,8.688137,-0.34915122,1.1856022,0.8483871,-3.7113902999999997
-7.7852545,10.220446,-3.6940712999999996,-0.29211575,-2.7644794,-0.33910003
-6.5696516,9.997258,-0.9485157,0.9540318999999999,-0.45738098,-3.918456
-3.4101955999999998,11.747160000000001,-1.015017,0.7996575,1.1007093000000001,-3.6805152999999997
-1.3050218999999998,15.083269,-2.372357,1.6109214,1.5169878,-2.7574632
-0.016567875,16.609545,-2.914002,1.3644633999999998,1.1044444,-2.467878
0.11489295,14.408641000000001,-1.0359040000000002,0.9912946,-0.1699427,-1.6752542000000001
-4.435487999999999,12.978508,-6.602662599999999,0.42224750000000005,-2.1576283,-1.0630625
-8.334782,8.657060000000001,-6.275595,0.44193482,-2.3487419999999997,-0.6877819000000001
-6.945349,6.443601,-7.9040356,0.44619343,-0.641583,-0.8256629000000001
-5.7547607,9.92955,-13.249063,0.4296826,0.40708059999999996,-0.9177465
7.117176,22.057589,2.726038,0.22101104,-0.25563836,-0.6526484
4.999524,18.973876999999998,5.5350113,0.13692108,-1.314966,-0.37318629999999997
-7.8877935,8.747599000000001,-2.2215032999999997,0.23165755,-1.7498846000000001,-0.23104669
-5.6451445,2.4403906,1.0299377,0.15076154,-1.7434793000000002,-0.38594466
-7.154248,8.751257,-11.544313,0.14969689,-1.4453770000000001,-0.67552966
-10.073709,11.229419,-3.7699675999999998,0.21144664,-1.1185292,-0.8799601
-8.65119,9.351339999999999,-7.2433796,0.19867083,-0.9055989999999999,-1.0875496
-1.0414107,9.597235000000001,-2.3588538,0.20397663,-0.93701494,-1.1807152
4.2556553,11.812598,-0.54965127,0.18376571,-0.9482025,-1.3707641000000002
-0.011530476000000001,11.169621000000001,-3.330708,0.13370967,-0.8433255999999999,-1.6475734
-3.9522714999999997,9.991922,-4.1456656,0.03417355,-0.63678336,-1.9893087999999999
-3.0825825,9.209469,-4.4576015,-0.02755875,-0.55108774,-2.294881
-0.23135649,9.860117,-3.8129003,-0.18247417,-0.7224965,-2.4913003
1.7946648999999997,11.544649,-2.3020728,-0.36131805,-1.4384655000000002,-2.5487916
1.8721125,10.359194,-2.3752494,-0.505587,-2.6122517999999997,-2.4859772
1.5549476999999998,9.194491000000001,-2.780913,-0.62856287,-3.9659464,-2.2246141
0.29524338,9.057160000000001,-2.851657,-0.6647609999999999,-3.1131613,-2.7436402
-0.16620548,8.954171,-2.7556877,-0.34482470000000004,-0.64849454,-3.6895738
0.8891011999999999,9.786711,-1.6807104,-0.44968408,0.04244641,-3.5037835
1.9405675,10.817549,-1.1800253,-0.1388235,0.45924848,-2.9304776
2.7929416000000002,11.480522,-1.8354333999999999,0.19280653,0.92078334,-2.0159426
2.443235,11.592993,-2.271159,0.61440825,0.9026843000000001,-1.3484063999999998
1.5222813999999998,11.822922,-2.5820892000000004,0.1693842,-0.6538178000000001,0.5418724
1.4907832,12.50867,-2.1402345,0.10602875,-1.4294246000000002,2.0792281999999997
2.971003,12.506457000000001,-2.7102075,0.15022048,-1.2191473999999998,3.174213
6.28116,13.977589000000002,-2.8359892,0.36580357,-0.14172074,3.6847217000000003
10.964285,15.868884,-4.7408166,0.5691519,1.140625,4.100459
4.3048987,19.011465,-3.4637682,0.5547878,1.8592644,4.634914
0.6500640999999999,17.201937,-6.0079427,0.40626028,2.0998755,5.191185
-2.5605795,10.577152,-2.5444138,0.16884315,2.2680902,5.530826
-6.259477599999999,7.63736,-2.0370443,0.04160865,2.4272642,5.6170454
-13.82709,7.447595,-4.5189023,-0.29693288,2.2223102999999997,5.8890724
-11.213694,6.3196483,-1.878232,-0.3070383,2.0658066,6.150453
-6.171601,1.7312281000000003,-0.34521514,-0.19205603,2.1760068,5.9870205
-2.2556252,0.05212656,1.3968155,-0.22825415,2.4038246,5.406785500000001
-0.84726006,0.7778283,1.865198,-0.15905185,2.5012488,4.3064775
-1.4215428999999997,2.5723686000000003,1.5110668999999999,0.3104417,3.3721333,3.0065217
-1.9688286,4.415157,0.41269332,0.21249384,3.1416276,1.0209478
-1.9757240000000003,5.6256847,-0.2159953,0.6442185,2.2989652,-1.3595766000000002
-1.4367125,6.842092500000001,0.36690659999999997,0.785276,1.4355333000000001,-3.057171
-2.2951584,8.347202000000001,-0.7421833000000001,0.6074793,-0.5095662999999999,-3.2802239999999996
-5.7508626,10.322907,-3.799943,-0.021711895,-4.140549,-0.5131965999999999
-5.826376,11.935814,-1.1887212,0.91088736,-0.7741408000000001,-3.8498123
-3.1414034,13.464474,-2.1502995,0.8459610999999999,0.90800756,-3.2690365000000003
-2.2475138,15.092262,-3.6814489999999997,1.9675619999999998,2.3825314,-2.8218832000000003
-2.0181012,15.972218,-2.0118381999999997,0.98488927,1.5957545,-2.5189988999999997
-3.8426456,14.497964000000001,-1.820187,0.8251917,-0.5574756,-1.7519091
-4.4490110000000005,11.630495,-7.387577499999999,0.36367425,-2.3423715,-0.97312576
-6.623674,7.411883400000001,-5.913544,0.47972120000000007,-2.3870869,-0.65744805
-7.882353299999999,8.297317,-8.018066000000001,0.5388006,-0.50850165,-0.9874898000000001
-7.641449499999999,12.927454,-13.444324,0.31841788,0.39962804,-1.0678796999999998
11.785630000000001,23.874865,10.029283,0.10070549999999999,-0.24659757,-0.7820121999999999
1.5161712,15.942031,0.87177676,0.21247639,-1.1536801,-0.4982915
-4.197141,6.865564999999999,-0.35733938,0.26145032,-1.3879032,-0.39982003
-4.3068333,2.4951699,-3.5030233999999996,0.24973916,-1.0392388000000001,-0.579205
-7.500555,11.782441,-8.944067,0.29606020000000005,-0.83801985,-0.73412037
-8.93494,9.637696,-7.3584065,0.2225993,-0.8992285,-0.8607964
-8.660929,8.415476,-2.2865393,0.19811232,-1.2542983,-0.9113760000000001
0.22067836,10.226459,-2.3708534,0.17414895,-1.5380191,-1.0439337
5.4768705,12.658394,-0.88431275,0.093235485,-1.3048605,-1.4410485
0.11543883,10.696785,-4.237746700000001,0.01446878,-0.6745871999999999,-1.9355701
-3.5594788,8.798193,-5.7505945999999994,-0.08506735,-0.31154126,-2.3220384
-3.2020150000000003,8.895445,-2.601396,-0.21762510000000002,-0.64371234,-2.435956
0.66811633,10.734155,-3.7425013,-0.4475897,-1.5854048,-2.417316
0.63138926,10.232194999999999,-3.2882924,-0.6727546,-2.5409200000000003,-2.365148
0.2240877,9.276017999999999,-2.8534286,-0.7542091,-3.4767482000000003,-2.2485776
-0.20498198,9.700836,-3.6303473,-0.6887244,-3.0636811,-2.6403689999999997
-1.0955005,10.370839,-2.2436159,-0.4582362,-1.0605319,-3.6752095000000002
0.5912338,10.99652,-1.2141378999999999,-0.2889567,0.28464574,-3.7241836000000004
3.530825,10.864475,-0.2647125,-0.23570672,0.39163443,-3.3845599
5.0027614,10.724913,-1.5014421999999998,0.10068805,0.6498035,-2.5653197999999997
3.4093912000000004,11.543845,-3.256852,0.5893628000000001,0.8755094999999999,-1.9531456000000003
0.42498037,12.359223,-2.884314,0.30829495,-0.09063495,-0.3141069
0.5666022,12.785573,-1.5643331,0.16563174,-1.5151378,1.3536424999999999
3.4829314,11.637333,-1.9026625,0.07887143,-1.8563496,2.7036371
5.7052674,11.280233,-2.1665132000000002,0.23748694,-1.1451803,3.4148064
9.484017,13.334545,-5.130449,0.4701219,0.19999728,3.8864467000000005
7.760153999999999,17.279385,-3.180716,0.5973389,1.3375678999999998,4.344247
1.1704295,19.332241,-7.100388000000001,0.6010739,2.0216148,4.917569599999999
-0.75946,13.084972,-4.0312133,0.4749041,2.477809,5.282744999999999
-4.524754,9.261922,-2.7262967000000002,0.27103218,2.4863436,5.453613
-9.391678,8.113921000000001,-3.0006146,-0.20271999,1.8182665,5.8022947
-12.492006,8.446045,-4.038069999999999,-0.27298695,1.2614542,6.2329373
-8.486545,3.1566687,-0.9260198000000001,-0.123935826,1.0943040000000002,6.427768
-4.299546,0.94872636,1.066186,0.11506956,1.7166011000000003,6.197804
-1.5802593,0.92875874,2.6819272,0.13262758,2.5076367999999998,5.1608339999999995
-0.9896193000000001,2.3386657000000004,2.4747715,0.27687904,3.1868665000000003,3.6506355000000004
-0.78666764,3.7542902999999996,1.4155574,0.49780280000000005,3.8650491000000002,2.020655
-1.6269941,4.841545,0.8778292999999999,0.41263074,3.0846775,-0.3678805
-1.2403401,6.300198,0.7381131999999999,0.9960594000000002,2.1621487,-2.3789884999999997
-2.5827212000000004,8.000703999999999,-0.25902390000000003,1.0556798,1.7171246999999998,-3.9882169000000003
-6.1009717000000006,9.189578,-3.6540019999999998,-0.36561158,-2.1539283,-0.7687128000000001
-6.8743753,9.277445,-1.9644712,1.222289,-0.58410937,-3.400006
-4.5993094,11.610777,-1.7968099999999998,0.95240873,1.2582603,-3.8647175000000002
-1.4162469,14.71214,-2.9258007999999998,1.6997936000000002,1.5238819,-2.8064720000000003
-0.7678205,15.849089000000001,-3.8617230000000005,1.3724047,0.9415179,-2.503029
-1.747681,16.4877,-1.9281272,0.8981115,-0.73528975,-1.7609674
-5.497776999999999,14.234851,-6.4811997,0.42008328,-2.5707478999999998,-1.1440108999999998
-7.977058400000001,8.188217999999999,-5.609184,0.5281366,-2.6229157,-0.78255326
-7.801181,6.503677,-7.1886387,0.42114794,-0.5590813,-0.9395979999999999
-7.523386,10.19316,-9.832949000000001,0.46532223,0.8441110000000001,-1.1291058
-0.63809305,21.5776,2.1478862999999997,0.28061405,0.43687338,-0.8762424999999999
9.228949,20.105242,9.629508,0.18692476,-0.6399948000000001,-0.51160836
-8.713324,9.841001499999999,-4.2693114,0.37002724,-1.0637431999999998,-0.25663322
-5.744494,3.2696943,-1.2869697,0.27368507,-0.920539,-0.31305972
-7.712346000000001,8.262927000000001,-11.831866999999999,0.3114889,-0.8683711,-0.5084144
-9.225021,10.844728,-4.269992,0.27209684,-1.210124,-0.6233966999999999
-7.9903417,9.484122,-5.9802275,0.22577579999999997,-1.5577238000000002,-0.7905469
-0.7014245,9.28253,-1.328849,0.1757372,-1.5603942,-0.9704729
4.775072,11.553469999999999,-1.9552870999999998,0.18371336,-1.2649622999999999,-1.2643166000000001
1.1674031999999999,11.187539,-3.0077877,0.13475688,-0.8864702,-1.6864418
-3.9456922999999997,9.442300999999999,-4.2354383,0.040002946,-0.68631583,-2.1133842
-4.115805,8.415073,-3.9008059999999998,-0.023335052999999998,-0.7645589,-2.3859174
-0.96081233,8.9689,-4.302524,-0.23307127,-0.94609064,-2.5435033
0.752488,10.852294,-2.8439384,-0.42097342,-1.5348424999999999,-2.6020591
-0.42248082,10.665737,-2.604901,-0.5572661999999999,-2.4009447,-2.5610611
-0.53186715,10.665536,-2.148097,-0.66001374,-3.5672610000000002,-2.2922456
0.11917378,10.199539,-2.542757,-0.6195395,-2.8922725,-2.8676807999999996
1.6788238000000002,9.867377000000001,-3.0659094,-0.37840483,-0.7214493000000001,-3.7151601000000003
2.8729270000000002,9.58873,-2.1895740000000004,-0.30494392,0.045081854000000005,-3.5767379999999998
3.4923167,10.067024,-1.7004673,0.08471828,0.49436450000000004,-3.0598587999999998
2.9764714,11.054231,-2.242869,0.43338272,0.83133525,-2.0910265
1.9344671000000002,11.918182,-2.4034432999999997,0.83262676,0.550791,-1.2025667
1.0935469,12.27467,-2.4310532000000005,0.42167154,-1.0360624,0.66481334
1.6999215,12.183585,-2.0366419999999996,0.33969343,-1.8036756999999999,2.1601067000000005
3.4448924,12.467212,-2.6416664,0.34288737,-1.4949268,3.1481027999999998
5.636410700000001,14.401218,-3.4191019999999996,0.57285196,-0.41430625,3.6442301
10.597407,15.472624,-4.9777656,0.72296774,0.7354991999999999,4.103636
4.223219,17.870216,-4.465617,0.78684676,1.6739976000000003,4.549707
1.5367136000000001,17.420182999999998,-4.513942,0.7101919,2.230269,5.002201
-1.9163956999999998,10.907016,-3.0117908,0.52546626,2.5315652,5.3418245
-5.9904265,7.510055,-1.5752313999999998,0.25665066,2.5209186000000003,5.641515
-13.130003,7.31013,-4.938175,-0.17132153,2.0609894,6.08708
-9.919427,6.05576,-1.4988661,-0.37095228,1.4174168,6.466096
-5.558637,2.204782,-0.38608897,-0.23998277,1.3748307,6.510811299999999
-2.4523714,1.0120099,1.8293903999999999,-0.27832764,1.7714044999999998,5.7916307
-1.3764553,1.6072468,2.3248942,-0.16599827,2.5608517999999996,4.358087
-0.45634443,3.0326204,1.8312674999999998,0.52600735,4.0162296,2.5050535
-1.1409234,4.553283,1.2826313999999999,0.38440877,3.5179730000000005,0.012705997
-1.6864948,5.2284865,0.60923815,0.61489695,2.8083744,-2.306086
-1.8179939999999999,6.51921,0.17126204,1.2749803999999998,1.580832,-3.9807818
-3.6493955000000002,8.384694999999999,-1.3611611000000001,-0.49391073,-4.0080266,-0.7378554
-6.5243244,10.074513,-3.2405615,0.6665412,-2.4754702999999996,-3.3206983
-6.058278,10.975000999999999,-1.7875876,0.5989272,0.006213371999999999,-3.7428236000000004
-3.620052,13.633187,-2.1587367000000004,1.6412203,1.6654804,-3.0965805
-1.2447838,17.800995,-3.3367797999999995,1.1184943,1.6186358,-2.4849474
0.025752034,16.98096,-1.7945596000000001,0.8693485000000001,0.3969577,-1.768961
-3.0666661,13.207172,-2.8672097,0.43816492,-1.4507351000000002,-1.16211
-4.818475,10.975011,-5.952847,0.41634828,-1.6993398999999998,-0.71390945
-9.122167,6.8572526,-7.3409963000000005,0.45467573,-0.4350582,-0.89968234
-9.342894,6.8908954,-11.916814,0.36896262,0.06583382,-0.8805185999999999
-4.8418417,22.193062,-4.0407424,0.25239205,-0.6229778,-0.64948934
8.291235,23.673475,7.2884674,0.13686872,-1.3506579,-0.47808059999999997
-5.537319,9.514481,-2.4024951,0.20235348,-1.6008508999999997,-0.34925783
-6.192296499999999,2.5622747,-1.2292981,0.09482374,-1.4975798,-0.46636942
-7.1222806,8.257621,-6.235957,0.11452851,-1.5140731,-0.58561033
-7.9780836,10.935296000000001,-7.0114,0.15657349,-1.4368947,-0.6984633000000001
-7.3774934000000005,8.835858,-5.789611,0.18957767,-1.3735566000000001,-0.85868454
-1.626793,8.968392,-3.2537582,0.19381881,-1.0621376,-1.1083538999999998
3.223266,12.192664,0.1280036,0.1805194,-0.6400121999999999,-1.3995446000000002
-1.2041686000000003,11.52426,-2.9732347000000003,0.105993845,-0.6304304000000001,-1.6971058
-3.4970477,9.764503,-4.541073,-0.011623893,-0.57559216,-1.992014
-2.16885,9.748375,-3.0199215,-0.18036233,-0.57185715,-2.2219787
0.520126,10.211462,-5.1287346,-0.33101913,-0.96047217,-2.3827409999999998
0.33059138,10.508467999999999,-3.3428322999999995,-0.5183977,-1.7600075000000002,-2.4764302000000002
0.29351,9.179494,-2.7460055,-0.7174874,-3.0897740000000002,-2.4093572999999995
0.7940897,8.974771,-4.27613,-0.7781725,-3.6183642999999996,-2.3630362000000003
1.1037556999999998,8.723782,-3.9694714999999996,-0.56789523,-2.1938615,-3.2935410000000003
2.1996872000000005,8.455161,-2.8880777,-0.20964895,0.11428416,-3.8413126
1.6848285,9.733789999999999,-1.4093803,-0.17399187,0.5784719,-3.7385826
1.3706135,11.206856,-1.0998386999999998,0.16774360000000002,0.7935314,-2.9571113999999996
1.7447409999999999,12.053858,-1.00635,0.35407495,0.99316216,-1.992014
1.7257885,12.960561,-1.568748,0.45307,0.7104885999999999,-0.80012876
2.112931,12.829982000000001,-1.5478706,0.08683013,-1.0435148,1.1667875
3.0416226,11.898876,-2.1944582,-0.055274576,-1.7999406000000002,2.6402642999999997
4.092907,12.127274,-2.525337,0.009110618000000001,-1.3762096000000001,3.5441527
8.693557,13.775604000000001,-3.7109265,0.19863592,-0.27003735,4.0807366
12.862456,16.827091,-3.5336980000000002,0.44135886,0.9494940000000001,4.580058
3.3493828999999997,20.042503,-6.3859105000000005,0.45786968,1.7655576000000002,5.1501875
0.077150755,15.208352,-5.4991650000000005,0.37480944,2.434682,5.5606017
-3.6379702000000003,9.886435,-3.4383707,0.26782078,2.8845057,5.5701833
-7.138082499999999,7.4679747,-2.6102736,-0.24106488,2.5060136,5.8501863
-16.205336,8.406445,-5.7480087,-0.57749456,1.7139133000000002,6.3037276
-9.736931,4.2721653,-2.117384,-0.41992623,1.2130039,6.4453263
-5.000654,0.91478616,-0.21210712,-0.28045696,1.5978838,6.126472
-2.7430274,0.3234375,2.332144,-0.028658306,2.2739372,5.143258599999999
-1.3481079,0.9937181999999999,2.5751746,0.30986574,3.08466,3.6394303
-0.6894726999999999,2.3166008,1.9003258,0.35566318,3.0889187000000002,1.9423944
-1.3137271000000001,4.065536499999999,0.78907144,0.33063516,2.0524898,-0.6659826999999999
-0.40767509999999996,5.6622486,1.2375821000000002,0.816116,1.3439558999999999,-2.6526387000000002
-0.9935745,8.051671,1.211284,0.75703657,0.73178166,-3.8248017
-6.025976,10.212477,-4.270365,-0.43270203,-2.8438394000000002,-0.53024846
-8.166124,10.307286999999999,-2.3650692,1.148287,-0.03741986,-3.9903636
-5.301586,11.677182,-2.1647701,0.81719804,1.7309651000000001,-3.8434242999999997
-1.356842,14.5069,-3.5003421,1.8807667000000001,2.4666214,-2.973622
0.16056475,15.810723000000001,-3.339988,1.176509,1.3482145,-2.5780957000000004
-1.507102,15.338003,-1.115564,0.9406800999999999,-0.8673065000000001,-1.6646252000000001
-5.8307910000000005,14.142425,-8.519326,0.29178414,-2.7916715,-1.0226582
-6.599386999999999,7.277607000000001,-4.479378700000001,0.39079666,-2.6053576,-0.6627888000000001
-5.595077,7.172808,-7.602098,0.44722316,-0.27110198,-0.96143204
-5.826242,12.073395,-11.369164,0.4754277,0.97398096,-1.125912
6.408578400000001,23.058949,7.71701,0.23483405,0.17071065,-0.8629431000000001
5.230794400000001,18.663204,4.2766285,0.13795082,-1.1079174999999999,-0.470087
-6.3163540000000005,8.514116,-2.2313387000000002,0.18106046,-1.5907278999999999,-0.27738518
-6.2090654,1.4913483,-2.1542932999999995,0.13901548,-1.4879978999999999,-0.27632052
-9.6260605,9.403027,-10.230366,0.24068089999999998,-1.051491,-0.49244463
-10.806113999999999,10.710116000000001,-5.11187,0.23322834,-0.6921801,-0.7314675
-7.7828984,9.35293,-6.7074137,0.21886429,-0.80236274,-0.8677253
0.33375170000000004,9.062983000000001,-1.288502,0.1688257,-1.1260166,-0.9960245000000001
6.148645,11.608929,-0.072544314,0.14964452,-1.2367404,-1.1770152
0.4086902,11.673467,-2.951227,0.15711454,-0.9333148000000001,-1.4309256000000001
-4.7980475,9.688377000000001,-4.238848,0.09269444,-0.65331167,-1.8072883999999998
-4.709471,8.519834,-4.444749,6.981316999999999e-05,-0.5047841,-2.1202958
-1.5089695,9.336266499999999,-3.0865283,-0.11489502,-0.5308768,-2.3555837000000004
1.2770959,10.973594,-3.6811426,-0.27085763,-0.83269656,-2.5482855
1.6818693,10.329668,-2.757948,-0.42099085,-1.6040448,-2.6339986
1.0708879999999998,9.227665,-3.1830626,-0.46622979999999997,-2.6750836,-2.4695013
0.12985192,9.089069,-3.8912096,-0.6402915,-3.7706093999999997,-2.2661529
-0.42464522,9.742447,-2.1833970000000003,-0.5939879,-2.6825361,-3.1647182000000003
0.839139,10.382791000000001,-1.5753847,-0.5977229000000001,-0.44570473,-3.6411583
1.8773798,11.014897999999999,-1.2331958,-0.22987731,0.3729943,-3.4888957
2.3348255,11.140901,-1.4411848999999999,0.18797196,1.0277545,-2.8975084
2.1773446,11.449110000000001,-2.0975122,0.5850867,1.2933762,-2.044723
1.4847689,11.51202,-2.3286006,0.4876799,0.51565754,-0.6862111
1.332019,11.451649,-2.5647552000000005,0.26462683,-1.2340872999999999,1.1465591
2.2746642,12.032625999999999,-2.6546526000000004,0.16348499,-1.7493609,2.5295405
2.5524584999999997,13.289457,-3.2489316,0.31733575,-1.1707319,3.2827897000000004
6.2170906,15.840698999999999,-4.603916000000001,0.55262357,0.05466371,3.8204384
10.161901,14.774982000000001,-4.4312363,0.70115113,1.0974979,4.375662999999999
2.543935,18.010775,-5.279751,0.6915518,1.8129258000000001,5.0186944
0.5154141999999999,14.366772000000001,-2.7452587999999998,0.5739166,2.5427527000000003,5.234818499999999
-2.7801661,9.108528999999999,-3.4016241999999997,0.39611992,2.3415337000000003,5.266758
-7.724547,7.281121700000001,-1.77984,-0.28523916,1.580832,5.6830362999999995
-14.105737,7.996145200000001,-5.2100415,-0.25010568,0.999009,6.110502200000001
-9.038695,4.024442,-0.17864574,-0.24530603,0.9718690999999999,6.1525474
-4.574342700000001,1.696177,0.9070193999999999,-0.22615977,1.6409935000000002,5.906613
-2.453147,0.9778686,2.5048714,-0.12447688,2.5044253,5.17148
-1.7601022000000002,1.8771499,2.3825371,0.029880037999999998,3.117664,3.812445
-1.3042557,3.4502265,1.4505318,0.44668213,3.7820062999999995,2.3501556
-1.3385886,4.8936910000000005,1.2162162,0.19596557,2.8893054,0.35925856
-0.23652796,6.456415,2.0727754000000003,0.664953,2.0625951000000002,-1.6124573
-2.7908251,8.075001,-1.1492456,1.1062421,1.9268435000000002,-3.4654907999999995
-7.701562400000001,9.989481,-4.018687,-0.3235666,-1.3538518999999998,-2.2070735
-6.6090407,9.758776,-0.5017672000000001,0.5361128000000001,-1.8675547,-2.1921685
-3.5615666,11.482812,-1.6556193,0.9215338,0.61679935,-4.0755360000000005
-1.2777566999999999,13.1622,-1.9833183,1.2537049,1.0362718,-2.9108077999999997
-0.37693354,15.530736,-3.1478484,1.8339221,1.1927755,-2.7814615000000003
-0.43964246,14.963195,-2.5192077,1.0066885,-0.15132004,-1.8839433
-4.149937,13.437265,-2.8153417000000003,0.6846403,-2.1118834,-1.3931392
-6.254354,10.724539,-7.501666,0.47383943,-2.563819,-0.94492126
-5.9500895,6.825093300000001,-6.4362655,0.39611992,-1.0605319,-0.9310808
-6.9057875,7.732888000000001,-8.974071499999999,0.45254642,0.7914021,-1.2281183999999998
-4.450179,18.854338000000002,-8.843357000000001,0.32159436,0.6066939,-0.95663244
10.610086,22.716492000000002,13.641901999999998,0.19703022,-0.65118235,-0.5983687
-5.3830849999999995,11.298802,-3.8183112,0.14166838,-1.5428187,-0.36042795
-5.449365599999999,4.896391400000001,0.87905514,0.017645279,-1.5955276000000003,-0.315189
-6.5245156,6.537971,-10.362103999999999,0.20287707,-1.2468457,-0.3614926
-8.679747,10.404032,-3.0206301,0.18744837,-0.70335025,-0.6388429
-8.074684,9.231448,-8.419267999999999,0.26038566,-0.52820647,-0.8054520000000001
-1.7342543999999998,9.065674000000001,-2.1661685,0.20926498,-0.6788633000000001,-0.92204
3.2086419999999998,10.716543,-2.965918,0.14432128,-1.1334692,-0.9784665000000001
1.6043928,11.074294,-1.341816,0.15604989,-1.2873025,-1.1684979
-4.185122,10.028966,-3.6630042,0.09375909,-0.8050156999999999,-1.5272852
-5.307428400000001,9.075433,-4.3007903,-0.00842994,-0.38767254,-1.9233354
-2.6143916000000003,9.419029,-4.118659,-0.0850848,-0.5228832,-2.2443364
0.3852845,10.007332,-4.0363370000000005,-0.24211207,-0.9263859,-2.4987879
2.2706513,10.381852,-3.1024354,-0.38583994,-1.6626006000000002,-2.6095116000000003
1.4926986,10.026150999999999,-3.2898917,-0.49604002,-2.8422337000000004,-2.5381799
-0.14144944,8.9603195,-2.9838647999999997,-0.6498733,-4.19647,-2.2086618
-1.0213473,9.519949,-3.4660094,-0.60889304,-3.0280066000000003,-2.8714156
-1.5295883,10.288029,-1.6601491000000002,-0.4880464,-0.49254936,-3.7311125
0.663395,10.345191999999999,-0.71274424,-0.30492648,0.44113198,-3.5826025
2.8993877999999995,11.382399000000001,-0.8402786,-0.042498767,0.85688686,-2.9517882
2.7091734,11.858271,-2.2159584,0.12569861,1.1113383999999997,-2.0324706999999997
1.9411038,11.422908999999999,-2.3397287999999996,0.5419771,0.95748764,-1.303185
2.0487185,11.547226,-2.7850599999999996,0.03042109,-0.65809387,0.56206584
2.2084212000000005,12.376165,-2.5289092,-0.007888888,-1.8792484,2.1558657
2.4227502,13.474978,-2.0761654,-0.062203534000000005,-1.8781837,3.1837772999999996
5.0981559999999995,15.990146,-2.8743923,0.25185102,-0.8071624,3.6495532999999996
11.042422,15.185232999999998,-5.4231443,0.49300316,0.5247158000000001,4.1185410000000005
4.4511657,18.018198,-5.445353,0.62714916,1.5430456,4.606674
1.1270274,16.329557,-4.049226999999999,0.59149206,2.286172,5.1209006
-2.1681125,10.295057,-4.173916999999999,0.4009196,2.9026047999999998,5.291245
-5.5095563,7.142488,-1.1410669,0.15018559,2.9521196,5.336501
-13.929944,6.538574,-6.060586499999999,-0.45078364,2.3628267999999997,5.7346807
-11.625717,5.2527537,-1.9403569,-0.49178140000000004,1.6495106,6.1344657
-6.904207700000001,1.4692641000000002,-0.77122027,-0.3533768,1.5755261,6.094009
-2.8570773999999997,0.15493357,2.0919863999999997,-0.14470525,2.2153814,5.457871400000001
-1.8028817,0.7983226,2.8561294,-0.030787607999999998,3.0372917999999998,4.258551000000001
-1.0699017,2.2695692000000003,2.169434,0.37269762,3.6941813999999997,2.7951796000000004
-1.1747292999999999,3.9567916,1.1505958,0.26996753,3.1772847,1.1311305
-1.0020308,5.1567655,0.584032,0.50897294,2.1307327999999996,-1.0146646000000001
-0.27208668,7.033456,0.90351427,0.9289864,1.5675325,-2.9571113999999996
-2.6512241000000003,9.052427999999999,-1.9251585,-0.04462807,-0.25513223,-3.1833584
-7.3000455,10.300545,-4.7464094,0.24706881,-1.8803130000000001,-1.3809046
-7.027547,11.042441,-1.6607715,1.1509573,1.0085908000000001,-4.3933253
-3.3069669999999998,13.213216000000001,-2.194257,1.2063191999999998,1.5025889,-3.1817527
-0.5658552,15.236939000000001,-3.5306525,1.8248813000000002,1.3375678999999998,-2.7409873
-0.28032273,15.190454,-2.9585247000000003,0.979025,-0.032620203,-1.8956543999999997
-2.5718226000000004,14.128089000000001,-1.8419839,0.6356664000000001,-1.8973475,-1.4431778
-6.5644894,11.98184,-8.599177000000001,0.32958797,-2.5180387000000004,-0.9811194
-7.5055447,6.8006244,-4.3267155,0.31307715,-1.1387923999999998,-0.9039408999999999
-5.5667295,7.6746807,-8.093110000000001,0.435512,0.73338735,-1.2222716
-4.878512000000001,16.500628,-11.361425,0.20289452,0.8169536999999999,-1.0817201
14.208715,23.213001000000002,15.062201000000002,0.14592698,-0.23064525,-0.83206826
-1.9752164,14.210629999999998,-3.3072162000000005,0.14592698,-0.8422784,-0.6239376999999999
-6.857539699999999,5.75047,-0.8232127,0.16722,-0.77255255,-0.49192104
-6.8642144,4.0564860000000005,-9.633453,0.14753269,-0.5745275,-0.61594415
-8.871235,10.327532000000001,-3.8910375,0.19437732,-0.7129321,-0.67662925
-7.8340197,10.400354,-7.2502937,0.17041394,-0.8103389,-0.76925385
-2.0578547,9.134991000000001,-2.4558668,0.13582152,-0.88167053,-0.8325918999999999
2.7511485,9.862808,-2.4971812,0.112399206,-1.0882127000000001,-0.897012
3.1028854999999997,11.3747,-1.2004431,0.08791223,-1.1744493999999999,-1.0870434
-3.1120696,10.632094,-3.5981882000000005,0.049043752,-0.9311855,-1.4485011
-4.459679599999999,9.071178999999999,-3.8609470999999997,-0.07443829,-0.53459436,-1.8775554
-2.0881364,8.742188,-3.366937,-0.15906931,-0.45315728,-2.1905627
-0.29642132,9.973372999999999,-3.6117873,-0.36454692,-0.7326194,-2.4508612000000003
-1.079153,10.885794,-1.4058466,-0.5061455,-1.4640346000000002,-2.547762
-1.1959038,10.300239999999999,-1.6909001000000001,-0.55618405,-2.551584,-2.434368
-0.40011898,10.628943,-2.34355,-0.7712435000000001,-3.4634487999999997,-2.1884334
-0.75096536,10.577075,-2.7439563,-0.7260045999999999,-2.5451963,-2.9283657
-0.45270523,10.4305315,-2.523393,-0.6802246,-0.3089058,-3.6150656000000003
1.0899940000000001,10.31696,-1.49606,-0.48858747,0.32721433,-3.3930945
2.7303764999999998,10.192903,-0.9199385,-0.22827162,0.85688686,-2.8128598
3.4055123,11.227992,-1.887627,0.0011519173,1.3061695,-2.0452292
2.1616766,11.802322,-2.012135,0.3615275,1.3961238,-1.4208201999999999
1.6998448,11.768583999999999,-2.2122042,-0.1436406,-0.033684853,0.39278635
1.9658598999999999,12.181766,-2.21841,-0.25384068,-0.78745764,1.8210241999999999
2.5298667,13.080079,-2.3865309,-0.26394615,-0.66395813,2.776557
5.7459593,15.441460999999999,-4.6250615,-0.0834791,0.11801916,3.3828669000000002
11.577306,14.220782,-5.450055,0.12943362,1.0421360999999998,3.9226449
2.9592142000000003,16.820608,-4.813581,0.24013986,1.6734565,4.4304833
0.45591345,16.386272,-3.2534997000000003,0.21673499,2.1126337000000004,4.971849400000001
-1.9646436,10.439696000000001,-3.7075744,0.12889257,2.590662,5.092155
-5.018122,7.5538883000000006,-1.5005323999999998,-0.0765676,2.1658664,5.1842559999999995
-12.834817,7.0566892999999995,-5.8603644,-0.3911632,1.7964499,5.5414553
-10.117666999999999,5.827937,-1.9341893000000001,-0.21230185,1.5270758,5.762902700000001
-5.9139175,2.1311748,-0.5323651,-0.04728097,1.6505753,5.671343
-3.094678,0.72616136,1.3881773000000002,0.13475688,2.0801706,5.358859
-2.2469678,1.0355496,1.6265441,0.2300344,2.2563617000000002,4.6109504999999995
-1.723126,2.2646563,1.0313263000000001,0.30243066,2.2691374,3.4925260000000002
-2.0289613999999996,3.8562543,-0.20468509,0.4828977,2.5714984,2.3171515
-1.9449441000000003,5.2008953,-0.33798468,0.54784137,1.8906628,0.27888617
-1.4990958,7.4630713,0.687088,0.9582556000000001,1.3583374,-1.6300328000000002
-3.9488335,8.99424,-3.995214,0.8321031999999999,1.6681508000000003,-3.6374233
-7.2366470000000005,9.614808,-3.7585328000000002,-0.5316970999999999,-0.32859313,-2.3374846000000002
-4.980543,10.209747,-2.3358119999999998,1.0253285,0.62372833,-2.800084
-2.9403384,12.167084,-3.1737057999999996,1.0849663999999999,2.5917442000000004,-4.082971
-1.8920801999999999,13.779071,-3.8410847,1.3409889,2.0535543,-2.6675262
-1.3736684,14.233614999999999,-4.3825192,1.713634,1.3918827,-2.537639
-2.162443,15.364857,-2.4314556,0.5084493,-0.80236274,-1.7753488999999998
-4.828645,13.163904999999998,-7.373145,0.28806659999999995,-3.4565372,-1.1211122
-4.5529385,8.482571,-3.8976839,0.36791540000000006,-3.1983507,-0.73731434
-4.662458999999999,7.807136999999999,-6.3784695,0.44298202,-0.58463293,-0.9624792999999999
-5.941451,10.584526,-6.2975544999999995,0.49035025,1.6537693,-1.4335959999999999
0.16409859,19.680328,2.2794142,0.31414179999999997,1.1028037,-1.1152654
10.209354,19.476236,13.061853999999999,0.25558603,-0.75710636,-0.5690995
-6.2399025,9.5798235,-4.6155996,0.28061405,-1.5545299,-0.25183356
-5.5910645,3.6931615,-4.5466084,0.24654521,-1.3618281,-0.2725855
-5.7607846,6.0502815000000005,-12.815002999999999,0.28913125,-1.0158166,-0.46369907
-12.3761835,11.33732,-5.9552703000000005,0.26145032,-1.0301981,-0.5983687
-9.257506,9.230328,-5.490125,0.22205824,-1.3469229999999999,-0.7362496999999999
-0.5037496,9.357403,1.5800582,0.21406463,-1.5300428999999998,-0.8805185999999999
7.904197999999999,11.953836,-2.0294404,0.21673499,-1.4342244,-1.1024896
3.2860801,11.156539,-3.0800064,0.18905406,-1.118023,-1.4692531
-6.3977,9.111661,-4.109389,0.12623966,-0.70547956,-1.8621092000000001
-7.487645599999999,8.841068,-4.160481,0.07246607,-0.5585576999999999,-2.19908
-2.1140227000000005,9.757033,-3.0792403,-0.088278756,-0.54471725,-2.5211282
0.8359403,11.182903999999999,-2.9974065,-0.18940313,-0.75232416,-2.7553513
0.6939738,11.073107,-1.7668058999999998,-0.25487044,-1.4272953000000002,-2.8628810000000002
0.007843405,10.344455,-2.6449990000000003,-0.2761809,-2.6287625,-2.6882782000000005
-0.13725479,9.669069,-2.9913635,-0.41725585,-3.2952339999999998,-2.5930007
0.9442060999999999,9.602875,-3.7743056000000004,-0.3304781,-2.3295956,-3.381907
2.0839708,9.523761,-2.7633493,-0.44493678,-1.0355212999999999,-3.5032773
2.7803287999999995,9.438949000000001,-1.2738878,0.05384341,-0.13854423,-3.0635765
2.7503824,10.767577000000001,-1.1577593000000002,0.20076522,0.3447898,-2.2815816000000004
1.9797367,11.545646000000001,-1.3328520000000001,0.98913044,1.0740756,-1.694959
1.9107646,11.227561,-2.368536,0.46054003,0.097267196,-0.21190043
2.4600517999999996,11.868087,-3.0859725,0.4413763,-1.3602223,1.4920471000000002
2.9167027,12.731742,-3.1786475,0.38655552,-1.5907278999999999,2.6392171
3.488687,14.398767000000001,-3.438246,0.5425007,-0.7991688,3.2913069999999998
6.4808072999999995,16.05206,-4.5949135000000005,0.78045887,0.5688901,3.6751223
6.589973,15.527317000000002,-4.0374669999999995,0.8746892,1.5707265,4.170185
0.8480454,18.014454,-4.5266404,0.7474546999999999,2.0663302,4.7472258
-0.59788007,13.843696,-3.1322384,0.5467768,2.417665,5.0943017
-2.9131305,9.050245,-2.5881226,0.28593728,2.5417056000000002,5.314143700000001
-9.103962,5.6685696,-1.6524013,-0.22507766,1.9859403000000002,5.671325
-13.573668,6.7546177,-4.4311595,-0.5604427,1.3066931,6.108373
-8.41107,3.6365912000000002,1.0898694,-0.5088157999999999,1.1022801000000002,6.2542305
-3.7767190000000004,1.4635276000000002,2.447286,-0.42949063,1.6053363999999999,6.027459599999999
-1.7218523999999997,0.8156758000000001,3.4099559999999998,-0.53436744,2.1717305000000002,5.0410695
-1.0398976,1.6889848000000003,3.0435092,-0.2128429,2.8499131,3.6857687999999995
-1.4684213,3.5516162000000002,1.8455560000000002,0.38866737,3.7580605000000005,2.0893161
-1.8090012999999998,5.003968,1.1123652,0.21727604,3.1437569,-0.09265953
-1.3139091999999999,5.9975038,1.0532093,0.72031486,2.2840599999999998,-2.2059915
-2.2692628,7.872959,0.41695502,1.1584273999999999,1.3924062,-3.7768924
-5.6188082999999995,9.862559,-3.0459511000000004,-0.2937389,-2.86138,-0.57655203
-6.804685000000001,10.284073,-1.9059283,0.8656484,-1.1222816999999998,-3.5043417999999997
-4.3789185999999996,11.70486,-1.2980021000000002,0.64898324,0.44380233,-3.4798547999999996
-1.9889305,14.9424715,-2.9094243,1.713634,1.5659443000000002,-2.9911802000000005
-0.7613561,16.371513,-3.5694769999999996,1.0716496000000002,1.136349,-2.3465254
-0.9217868,14.696242000000002,-1.5889742,0.9534734,-0.1539904,-1.7497973000000002
-3.409937,12.800063,-4.851438,0.53986526,-1.8302744999999998,-1.1562457
-5.941555999999999,9.669366,-5.9039097,0.47492155,-2.0442693,-0.8208806999999999
-6.5697565,5.9613614,-7.5110225999999995,0.43231806,-0.7432659,-0.8948826999999999
-7.0153365,9.786491,-12.470784,0.3673918,0.17179276,-0.9768433000000001
2.1426766,22.053375,2.4488947,0.20982349,-0.13215633,-0.78628826
5.4557343000000005,19.030848000000002,3.0164452,0.08152433,-0.81620324,-0.5206492
-5.609375,8.531039,-1.6433897000000002,0.21567033,-1.0972536,-0.31943017
-5.8722389999999995,3.3413863,-2.9141072999999995,0.17575465,-1.1936132,-0.32635912
-6.849686599999999,8.891853999999999,-5.447881,0.24335125,-1.2654684999999999,-0.49138000000000004
-7.538757,10.097017999999998,-5.749168,0.1725607,-1.3224360000000002,-0.69631654
-7.2564807,9.609713000000001,-5.0588336,0.18798941,-1.2138416,-0.8544259
-1.8796016,9.239348,-3.3083174,0.17041394,-0.9764419,-1.0354166
3.1346517000000005,11.168654,-1.4335331,0.13049826,-1.0312451999999999,-1.0865198
0.48268062,11.050036,-3.073111,0.1118756,-1.2723973999999998,-1.2259891
-3.0531626,9.601697,-4.077594,0.04160865,-1.1536801,-1.5315439
-3.0722206,8.704742999999999,-4.3160944,-0.04728097,-0.5266181999999999,-1.9036306
-1.7555148999999997,9.176908500000001,-3.2101072999999998,-0.1649336,-0.17687167,-2.2139849999999996
0.08033983,11.003034,-3.3604727,-0.28841567,-0.5468291000000001,-2.4386262999999997
0.13344322,10.790772,-1.8595285,-0.35657075,-1.5470773000000002,-2.4615076
0.5485116,9.933581,-2.3318757999999997,-0.44704863,-2.8363695,-2.326838
1.0524719,9.342452999999999,-3.3400837999999995,-0.68765974,-4.1480193,-2.0723689999999997
0.34876814,9.488767999999999,-3.3658261,-0.75207984,-3.218038,-2.7622802
-0.8383440999999999,10.203263,-3.0858578999999997,-0.39275143,-0.7459188,-3.5059302000000003
0.0312587,10.338833000000001,-1.319004,-0.37041122,0.09937905,-3.3776483999999996
2.4541526,10.314116,-1.1771524,-0.19526744,0.53907984,-2.973622
3.3875942,11.555997999999999,-2.3915488999999996,-0.0057595866,1.1028212,-2.1533
2.3302479,11.895553,-2.3842897,0.40837213,1.539328,-1.7109288
1.0963048999999998,11.373329,-2.5291482999999997,-0.17662732,0.32882002,-0.034103733
1.0962763,12.129457,-2.247236,-0.25488788,-0.74645984,1.4585193
1.6002557,13.412691,-2.4225202,-0.3262195,-1.033392,2.6754153
5.885915,15.7319355,-3.879957,-0.15535176,-0.42174137,3.3674383000000003
11.392541,14.136573,-4.4927387,0.010733775,0.56836647,3.8156562000000007
3.7230410000000003,16.27767,-3.4024669999999997,0.20662953,1.4174342,4.236193
0.40699515,17.100336,-5.43117,0.24174555,1.9407014,4.7749066
-2.1747012000000003,11.57606,-4.010546,0.18746582,2.4544040000000003,5.0591683
-5.5690374,8.0124445,-2.461546,0.14062117,2.7152436,5.1267653
-11.585111999999999,6.8646073,-4.8700647,-0.32993704,2.244668,5.423279
-11.771177999999999,6.577811,-2.9151130000000003,-0.48165852,1.7591697,5.809747
-7.9717913000000005,2.4134990000000003,-0.6249345000000001,-0.42682028,1.4914187,5.9784856
-4.1285806,0.25258827,0.89996123,-0.30492648,1.9114323,5.8486156
-2.337622,0.113159545,2.0657268,-0.3224845,2.4703739,5.084179
