accx,accy,accz,gyrx,gyry,gyrz
-1.1925421999999999,9.547004,-2.5967702999999998,-1.4139785,0.100304075,-2.1926222
-0.12220963,9.420973,-2.5816007,-1.5981631,-0.31169835,-2.3512552
-0.98237926,9.663017,-2.4350755,-1.8707136999999998,-0.9957278,-2.467302
0.05226063400000001,10.003233,-2.0067527,-1.9926075,-1.8602241999999998,-3.01558
-0.37392643,10.101337,-1.8615302,-2.0139005,-3.0978897,-2.6945963
-0.72569215,9.95668,-2.2027900000000002,-1.9569330000000003,-2.6725528,-2.5109353
-0.631849,10.769991000000001,-2.5290048,-2.014965,-0.287735,-3.184877
-0.4731996,11.2825985,-2.7266607000000005,-1.2462872,-0.129102,-3.0501897000000002
2.1387117,12.7132015,1.9612247,-0.24658011,0.81522584,-2.0968037
3.4522855000000003,12.708078,-0.18571344,-0.13053317,-0.5677382,-1.7204409
1.1081802,14.39826,-3.164043,0.19683823,-1.2656254999999998,0.7223743
-0.98895854,16.991678,-5.249517,0.6344097,-1.2411386,1.6401033
2.2333689,21.01409,-6.52736,1.0554705,-0.21320942,1.9930438000000001
6.9511147,22.965088,-6.5786724,1.6660563999999998,0.6800151999999999,2.365148
9.4687805,22.130707,-8.129407,2.0706062,1.1606963,2.8117604
12.58583,18.307292999999998,-9.0064125,2.2377740000000004,1.4492341,3.37709
1.8983625,15.067592999999999,-2.5423932000000002,2.4033184,1.567934,3.8939690000000002
-5.558187,10.660921,-0.13175770000000003,2.5534341,1.6791987000000002,4.453993
-4.222193700000001,5.7702847,-3.1531446,2.5571692,1.5040548999999999,4.9453206
-10.796988,0.8534084000000001,-3.1563527999999996,2.566751,1.4497577,5.301455000000001
-5.915057,2.7548642000000005,-2.1728435,2.968648,1.5908327,5.4031205
2.7711064999999997,-0.26925190000000004,-0.17937359,3.109182,1.7925754,5.4414477
2.6349914,-1.045567,1.1854651000000003,3.1863604,2.4196546000000003,5.7017465
0.13686216,-0.18899828,0.89460784,3.2310757999999997,3.0595098,5.422807700000001
-0.5834478,0.8016649,-0.32270965,3.029874,2.2610216,4.3783855
0.013158531999999999,1.6634052,-0.57879347,2.3841546,0.9403136000000001,2.7846029
0.45526224,2.6539056,-0.6245801999999999,0.63866836,0.057194438,0.5307546
0.4844715,4.438984,-1.5263611000000001,-0.42544144,-1.0436370000000001,-1.378688
0.3658532,6.887112599999999,-2.3873064999999998,-1.2319057,-1.1309383999999998,-3.103946
1.1899565,9.337568,-0.65306157,-1.8153343999999998,-1.2049229,-1.2253782
1.9259819999999999,12.790179,0.3794714,-1.3431705,0.7060904,-1.4101039
-0.26626393,16.320843,-1.578411,-0.9167690999999999,1.5865741000000002,-4.1206875
-1.2462299,21.530817000000003,-1.7999705000000001,-0.24284512,1.3230643,-3.1912472000000003
-2.2627982999999996,21.068209,-1.9555456999999998,0.57424825,1.0042101,-3.0677478
-6.178343,20.477531,-3.2738123,-0.72726125,0.24670228,-2.3879770000000002
-11.11694,23.893396,-0.8374438,-0.6357013000000001,-0.5996776999999999,-1.6357924
-19.371859,20.624285,0.61485016,-1.0333571,-0.8312305,-1.2764815
-20.08328,13.642323999999999,1.9677561999999997,-0.8044397,-1.406142,-0.95228654
-9.153273,17.830568,1.5248479,-0.42650609999999994,-1.1282855,-0.7883478
-2.9910188,17.222479,-0.30667806,-0.03577925,-0.401129,-0.8942718000000001
31.22738,16.256006,6.279579,0.0035953782000000003,0.044942225999999995,-0.9379225
7.54932,10.167053999999998,2.132324,-0.016074482,0.086481065,-0.7425503000000001
-8.029932,6.9868937,0.21852358,-0.029932396,-0.09025098,-0.524838
-7.258932000000001,8.977711,-3.6026317999999997,-0.09539969999999999,-0.33990288,-0.28529152
-11.4102,11.960608500000001,-8.870986,-0.11615166,-0.73223543,-0.02232276
-3.8441782,8.699964,-1.7334498999999999,-0.08367108599999999,-0.710925,-0.06543239
-3.0593204,9.540319,-2.2444875,-0.08634144,-0.44369759999999997,-0.29380873
-2.0571651,9.838847999999999,-0.55401826,-0.15128514,-0.27815312,-0.454571
-0.32866645,9.688310000000001,2.4806516,-0.22848105,-0.42294565,-0.5147325
1.2301313,9.755894,1.0878391,-0.32641149999999997,-0.66675067,-0.5844583999999999
-0.72084624,9.747235,-1.464064,-0.3988252,-0.69495517,-0.7154105
-2.285438,9.576673,-1.8176971999999998,-0.46535712,-0.5895548,-0.9230174000000001
-2.0989008,9.664233,-2.5539813,-0.5643697,-0.6103242,-1.1018788
-3.1835318,9.357421,-3.3157394,-0.67244047,-0.7125307,-1.2546473999999999
-2.3838012,9.357764999999999,-2.3440287,-0.8092394,-0.81100214,-1.4473492000000001
0.1826297,9.843588,-1.2462299,-1.1296992000000001,-0.94675386,-1.5538143
1.0389111,9.814254,-1.4109031,-1.3750924999999998,-0.59435445,-1.8993022000000002
-0.25466645,9.696468,-2.2446504000000003,-1.5001978,-0.28560567,-2.2607424
-0.87171924,9.575523,-2.5893579,-1.6859705000000003,-0.506512,-2.4257633999999997
-0.68441606,9.420485000000001,-2.5572658,-1.9329870999999998,-1.0409667,-2.68395
0.17199945,9.938255,-2.0778317,-2.060204,-1.7393951,-3.1710362
0.047309425,10.107151,-1.9113295,-2.0256116000000004,-2.945627,-2.634976
-0.081345394,10.179275,-2.374148,-2.0655448,-1.9837238000000001,-2.695661
-0.220822,10.370006,-3.2184298,-1.8446035,0.011414453,-3.5489699999999997
-0.12391431,11.318292,-3.9534974000000003,-1.1802788999999998,0.0018325957,-2.5183880000000003
0.33135749999999997,12.404062,-2.0843728,-0.081541784,0.8599412000000001,-1.8790738999999999
2.4301722000000003,13.61865,-1.2827079,0.03820526,-0.5437748,-1.3329079
1.2640619,14.839645,-2.656386,0.24314182,-1.3300281999999999,1.3601002
0.28075367,17.776192,-3.9461614999999997,0.7701439999999999,-1.1112336999999999,2.1011145
4.220336,21.844372,-5.59366,1.317392,-0.008255407,2.4449967999999997
8.469508,24.520494,-6.0915384,1.907191,0.7076960999999999,2.9107727999999997
10.659704,23.026522,-9.559511,2.1871943,0.9674709,3.3845425000000002
14.013770000000001,18.313353,-8.885839,2.326681,1.123451,3.8812108
1.9178418000000002,14.198823,-1.3611325,2.534288,1.2203342,4.4119306
-5.3079834,11.219794,-0.7233937,2.7104787999999997,1.3523333999999998,4.925092
-3.4238519999999997,2.5298476,-2.9611582999999997,2.8243966,1.458816,5.313166000000001
-14.749660999999998,0.37991193,-3.7268622000000002,2.9526782000000003,1.5924208999999998,5.594757599999999
-4.261612,2.5497482000000002,-2.2348627999999997,3.2491922000000004,1.8506075000000002,5.7938647
3.9803507000000007,-0.8637226999999998,0.24854685,3.4908678999999996,2.284985,5.8875364999999995
2.4877765,-1.3389525,1.0360477,3.1507032,2.7017872000000005,5.6724772
0.15757678,0.027274746000000002,-0.39609674,2.7690346000000003,2.6134212000000003,5.0320983
-0.36395696,1.2043121,-0.7973745,2.4214175,1.638742,3.0726
0.004472369,2.6302027999999997,-0.41109398,1.1715348,0.6885324,0.61379737
0.33633748,3.434214,-0.7608294,-0.33334044,-0.5017298,-1.6059822
1.3338288999999999,4.813868,-1.4389822,-1.2111363000000002,-0.9770877,-2.932537
1.4325753,7.1895003,-1.6452092,-1.6263502,-1.5099367,-1.0454347
1.3618888999999998,10.206913,-0.81462234,-1.6859881,0.41226423,-1.2152553
1.7646894,13.496104999999998,0.38539943,-0.84489644,1.7100736,-4.3570400000000005
0.46977112,19.727753,-1.6928729,-0.13957398,1.4566867000000001,-3.6352067000000003
-3.7182622000000003,23.927155,-2.7542706000000003,0.45821875,1.3603271000000001,-2.8319363999999996
-7.389886,24.247401999999997,-3.0454533,-0.48397979999999996,0.6544635999999999,-2.7707102000000003
-10.175166,24.518063,-1.4169076999999999,-0.69158673,-0.891392,-1.7167058000000002
-21.588097,20.318346,2.334835,-0.94499105,-1.0154151,-1.3121386
-26.252603999999998,14.822225,0.90749824,-0.8528899999999999,-1.4332993,-0.95602155
-9.614491000000001,19.335620000000002,-0.21684764,-0.31204742,-0.74979347,-0.7963239000000001
-5.919817,15.297388,-3.5336212999999996,-0.07995354,-0.24460789999999996,-0.96080375
33.94276,16.105392000000002,7.0934644,-0.022985986,0.019408062,-0.8703084000000001
11.803395,12.026314999999999,3.4944620000000004,0.01425934,0.038030725,-0.6919881
-8.096022,6.799589999999999,-0.04351701,-0.028326694,-0.16742943,-0.5301611999999999
-8.316987,6.916570699999999,-3.6065297,-0.11828096,-0.65503955,-0.23045327
-11.835277,14.276635,-9.764550999999999,-0.14915584,-0.9808226999999999,-0.0712967
-6.0639477,9.131667,-0.9812299999999999,-0.16619025,-0.77108645,-0.24377014
-2.8750339,9.219294999999999,-2.3621863999999997,-0.22261675,-0.39526471,-0.5264262
-2.2701533,9.765153999999999,0.072994426,-0.3014009,-0.27761206,-0.6701541
-0.030540438,10.078467999999999,3.954024,-0.38709658,-0.40804052,-0.72658056
0.7358051999999999,9.763869999999999,0.03041594,-0.44832269999999996,-0.60074234,-0.74841464
-1.3588243999999998,9.466731,-0.8138562,-0.4642925,-0.56986743,-0.8591383
-1.7051888,9.761908,-1.4829206,-0.49038514,-0.5155702999999999,-1.005519
-2.0779467,9.815853,-3.075199,-0.55957,-0.5895548,-1.1434001
-3.4768790000000003,9.256855,-3.7826662000000004,-0.6617765,-0.71198964,-1.2759403999999999
-1.3398336000000002,9.302010000000001,-2.1933377,-0.9385857,-0.80674356,-1.3855995
1.1960665000000001,9.85599,-1.2654601,-1.1563156,-0.47617817,-1.7662208
1.2413551999999999,9.802236,-1.7448941000000002,-1.3931916000000002,-0.14772467,-2.1750293
-0.13443922,9.78695,-2.2580577999999996,-1.5619475,-0.33936182,-2.3751835999999997
-1.1807915,9.592274,-2.1996872000000005,-1.8089465,-0.91268504,-2.5785494
-0.8929701999999999,9.573407000000001,-1.8878088,-1.953739,-1.6717636999999999,-3.0395257
-0.40215886,9.995151,-1.1521186,-1.9202112,-3.1553633,-2.9900281000000004
-0.23746651,10.167121,-1.9458252,-1.9068942999999998,-2.5575705,-2.348585
-0.66860473,10.414212,-1.911502,-1.7477203999999997,-0.25684264,-3.5218127
-0.34418085,11.07393,-2.4711514,-0.89599967,-0.6635393,-3.0916936
0.73461765,12.772214,-1.5169278,-0.21781708,-0.74553484,-2.1053033
2.8633025,13.189685999999998,-1.2838091999999999,0.014782938999999998,-1.7665175,-0.6541843
2.0924366,14.490886999999999,-2.925724,0.5769186,-1.7542828000000001,0.90605277
-0.31465557,16.834963000000002,-4.6891108,0.9181478999999999,-0.66675067,1.4101562
2.5217266,20.736122,-6.3144,1.5665202,0.21478021,1.8706264
6.9978110000000004,24.360523,-7.5809429999999995,2.0344255,0.46389106,2.3821824
8.220252,23.041729999999998,-7.8888945999999995,2.2489613999999998,0.8466418,2.9059906000000004
12.635696000000001,19.385794,-10.388882,2.4805143,1.1798775,3.3856072
1.6504095,14.698004000000001,1.2183614,2.6599166000000003,1.6153197,3.8700407
-7.9304866999999994,11.207028,-0.5467495,2.7333777,2.0433092,4.2809787
-7.166047,2.2680848,-3.8263557,2.6455352000000003,2.1561623,4.7196145
-8.205944,3.6481793,-4.5730877,2.7035499,2.096001,5.036357
2.3259766,0.8114045,-1.720981,2.945784,2.1976836,5.2737739999999995
4.5653405,-0.9091549999999999,0.34162384,3.0000812999999997,2.340888,5.6634364
1.4091219,0.010697293,1.257157,3.0548847,2.9823313,5.7496730000000005
-0.06940312,0.7368204,-0.08008126,2.8531419999999996,2.6011862999999997,5.280162000000001
0.4633738,1.3523313,0.26226085,2.7349658,1.5445117,4.0834947
1.0094146000000002,2.080025,0.3057204,1.8917624,0.06518805,2.2331314
1.8397813000000003,3.5514053999999997,-0.6831423000000001,0.39486328,-0.22863813,-0.06223844
1.1452041000000002,5.4011273,-1.1463246,-0.7346963000000001,-0.69814914,-1.876386
0.46174574,7.309785400000001,-1.4703846,-1.7184511000000002,-0.17221163,-2.8851687999999998
0.68949175,9.882498,-0.6384857,-1.4166139,1.2879308,-0.5131093
0.2607094,12.399915,-1.2932903,-1.3032373,0.3446676,-4.419854
0.40384436,16.330563,-3.1808405,-0.492497,1.7351016,-3.7368722
0.06789956,22.276602,-3.7816989999999997,0.5204920999999999,1.2804958,-3.3237875
-7.2425559999999995,22.614948000000002,-4.0198455,-0.60535,0.044436082,-3.0714653
-7.2085776,22.768303,-3.5460522000000005,-0.73577845,-0.5693264,-1.9104723000000001
-14.644957999999999,22.972364000000002,-1.2450999,-1.3106898999999999,-1.0601305,-1.4148686000000001
-23.76906,17.31706,3.4650419,-0.9066462,-1.5839386,-0.8910604
-11.873161999999999,17.83547,3.882715,-0.4648161,-1.2698667,-0.8538150999999999
-8.87294,18.62171,4.1506553,-0.08047713,-0.35053194,-1.0582106000000002
17.309207999999998,18.29741,4.438256299999999,-0.07674213,0.060405847,-1.0811093
25.948732,13.243498,4.008641000000001,-0.06665412,-0.03487168,-0.78513634
-7.053059599999999,6.9985485,2.6371748,-0.097511545,-0.19828686,-0.6020164000000001
-9.128639999999999,7.7904925,-3.8562927000000005,-0.18268362,-0.5166175000000001,-0.3528881
-12.489764,12.555012,-11.218415,-0.23591615,-0.89350384,-0.1388933
-5.7197094,6.971589999999999,-1.9262502000000001,-0.22900465,-0.65823346,-0.2565285
-4.9456739999999995,9.639928,-1.5659324,-0.21888174,-0.28719392,-0.48809877
-2.668807,9.915280000000001,0.28378952,-0.25029767,-0.15943582,-0.5807234
0.7782113,9.888292,3.1801417,-0.30085987,-0.34201473,-0.5578247
1.9512361,9.948424000000001,1.4008952,-0.3626096,-0.6454401999999999,-0.56314796
-1.5238614,9.636028999999999,-1.3763212,-0.40039600000000003,-0.7226361,-0.6350206
-2.9819782000000004,9.469834,-1.6815243999999998,-0.43287656,-0.66088635,-0.7792895000000001
-1.8418403,9.82361,-2.2167529999999998,-0.48397979999999996,-0.7199831999999999,-0.8969246999999999
-3.4509163,9.41469,-3.6935062000000007,-0.7916639,-0.79609704,-0.99274325
-2.0541196,9.316644,-2.3203454,-0.95933765,-0.63107616,-1.3728236
0.65666246,9.97888,-1.0015233000000001,-1.1988841000000001,-0.34414402,-1.8263474999999998
0.7480730999999999,10.018346000000001,-0.7788242,-1.5198851,-0.045518185999999995,-2.2974641
-0.7956124,9.655068,-1.8405473,-1.6987464,-0.17273523,-2.6179240000000004
-1.5938296,9.646431,-2.4799235,-1.9452043999999997,-0.8519825000000001,-2.7222598
-1.4410604,9.568082,-2.3381104,-2.0362408,-1.8431898000000002,-3.153461
-0.4129232,10.576702000000001,-1.7813052,-2.0266588,-3.4444072,-2.8755696
-0.63499975,10.859475999999999,-1.6681648,-2.1128955,-2.8913298,-2.5471334
-0.35756925,10.503669,-1.9742205000000002,-2.0756328,-0.43624505,-3.2157342
0.9028343000000001,11.820451,-0.7421929,-1.0024648,-0.11419689,-2.8995330000000004
2.6345797,12.631186,-2.5279515,-0.21675244,0.40109409999999995,-2.3022637
3.8350132000000006,13.126278,-0.8965711,0.02703515,-1.0292555,-0.99806654
2.9324852999999997,14.702822,-2.7174861,0.49867547,-1.5450701999999998,1.1578339
1.2840295,16.41096,-4.955404,0.9948028,-0.7705454,1.7423273000000001
1.7676584,20.527964,-6.345669,1.5303222,0.56131536,2.0973797000000003
6.877449499999999,23.169695,-8.438622,2.0285788,1.1468733999999998,2.5589144
9.004085,21.878578,-9.242222,2.2521553,1.3507452,3.0694057999999997
13.298326000000001,19.442116,-9.131898,2.4012065,1.4556221,3.646464
1.4656059,15.675201999999999,-1.6385916,2.5939083,1.5280183999999999,4.204864499999999
-3.5421063999999998,12.393469999999999,0.35619974,2.7200607999999997,1.6728108,4.713768
-4.801141,1.1413829,-3.745192,2.7174077000000003,1.5285593000000002,5.0965185
-14.092433999999999,2.3493152000000004,-2.1511712000000003,2.863265,1.6158607,5.3738513
-1.8611852999999998,2.8002488999999997,-0.9625649,3.1672316,1.5067253,5.5287666
4.704884,-0.7154258000000001,0.43294826,3.3593922,1.6722872,5.7305093000000005
1.9944946,-0.7976810000000001,1.2792507,3.2917957,2.4478767,5.686335
-0.51398724,0.3339241,0.033365596000000004,3.0602255,2.3887973,5.1193995
-1.0454139,0.99166876,-0.19829737,2.7445652000000003,1.7185909,3.6171949999999997
-0.49521667,1.7597095,-0.14680287,1.6027183999999999,0.62360615,1.377693
0.4016896,2.538055,-0.74185777,0.17769197,0.05347689,-0.9799674999999999
0.9754360999999999,4.3678474000000005,-1.7746111,-0.7533365,-1.5126071,-2.279906
0.8417438,6.7678145999999995,-2.1406652999999998,-1.3607285,-1.3960191000000002,-2.7196069
0.8040016,9.675726,-0.09072109,-1.7317506,0.583673,0.17783159
-0.05497087,12.665375,-0.87580854,-0.9625315999999999,1.3640621000000002,-3.9221212999999997
-0.7857674,18.07424,-1.7423370999999999,-0.48291516,1.7100736,-3.7874517
-2.6147842,22.49908,-2.4429572,0.74406874,1.6839983,-3.6533057999999996
-6.577705,22.584639000000003,-1.8244966,-0.5361477,0.6028366999999999,-2.8691816
-7.656216000000001,24.254604,-2.7919455,-0.5079257,-0.5714557,-1.9466703999999997
-16.80905,22.315462,0.45761815,-1.18452,-0.90415037,-1.4622543
-26.008444,15.620423,2.1977142999999995,-0.9572258,-1.9603013999999999,-0.81920516
-13.960992000000001,18.562504,0.33852097,-0.59203315,-1.4753443000000002,-0.59988713
-4.3246082999999995,14.415574,0.6716119,-0.11561061,-0.28028244,-0.9347110999999999
23.110453,17.381847,4.431198,-0.13051572,0.2020044,-1.0901501
27.447357,11.12122,6.1368756,-0.11773991,0.16632988,-0.93951076
-4.5576596,8.533011,1.6315814,-0.17203711,-0.13973106,-0.7308392
-11.264509,9.228719,-4.0423800000000005,-0.26146778,-0.66142744,-0.43060762
-14.171031,12.887288999999999,-10.101808,-0.27104962,-1.0569365,-0.25120524
-3.5943289,7.763352,-2.1926002999999996,-0.2790258,-0.73221797,-0.48169342
-5.1797976,9.082184,-3.3871824999999998,-0.31789428,-0.2579073,-0.7867246
-4.288312,9.726301,-1.7658865000000001,-0.3711268,-0.16262978,-0.9118298
0.3046861,9.741528500000001,3.5701475,-0.4126482,-0.43889794,-0.86125016
2.9133987,10.111221,1.4540178999999998,-0.43874088,-0.80461425,-0.81068796
0.06865613,9.698652000000001,-1.8281358,-0.4648161,-0.8312305,-0.91128874
-2.074777,9.542063,-2.069098,-0.4690747,-0.82004297,-1.0645984
-2.1205156,9.687102000000001,-3.1003857000000004,-0.5797984,-0.75457567,-1.2855222
-3.9974837,9.164726,-3.446827,-0.8624719000000001,-0.6214943,-1.438291
-1.4386088,9.259134,-2.0046363,-1.0136349,-0.50384164,-1.7225526999999998
1.4978126,9.947391,-0.9742581,-1.3197308,-0.22863813,-2.0765578999999996
1.2570038000000001,10.011316,-1.2087558999999999,-1.5044563999999998,-0.33243287,-2.3214276000000003
-0.89261585,9.907533,-2.4774623,-1.7461321,-0.93715453,-2.5103942999999997
-2.0013323,9.563466,-2.8192396,-2.0293117,-1.6382358,-2.6967082
-1.9333465,9.564051,-2.4797993,-2.0575337,-3.0930724,-2.8415008
-0.5735454000000001,10.499696,-1.723126,-1.9617151999999998,-3.3917157999999996,-2.1234024
-0.37737408,10.316864,-1.0787698000000001,-2.0862794,-0.4266632000000001,-3.2716196
0.0024516624,10.263781,-1.8914768,-1.3793511,-0.28506464,-2.9932048
0.8076121,12.771696,0.12557109,-0.32908183,0.22968532,-2.1862168
1.5664113000000002,12.955916,-0.99413,-0.0027576203000000002,-0.82962483,-1.9370886000000003
2.3495068999999997,14.382420000000002,-2.500131,0.20961404,-1.7665175,0.46368159999999997
-0.22036232,16.1704,-5.3594112,0.76642644,-1.6472765999999999,1.5789121000000002
1.1245565,19.04167,-6.5589924,1.2593597,-0.3308446,1.9313115
5.622821,24.712635000000002,-6.892542999999999,1.9279779,0.66725683,2.2879696
8.587437,24.769453,-8.456493,2.3133817000000003,1.0249795,2.7079656
13.170159,19.465232999999998,-10.598154,2.5039365,1.2230046,3.2339032000000003
4.6835947,16.357578,-1.6860351999999998,2.6998324,1.2852780000000001,3.832778
-4.9903307,11.990583,-1.7777618000000002,2.8861463,1.5056607,4.3597627
-2.3339732000000004,6.855835000000001,-1.2126632,2.9500252999999996,1.6302248,4.811192
-10.638099,0.047251966,-2.9657647999999996,2.9148917,1.4242235,5.173697
-6.870133,3.7673147000000005,-2.50875,3.0932294999999996,1.4758505,5.4872456
3.239939,0.31792125,-0.22023782,3.2651793999999996,1.4737211000000001,5.6709065
4.2333026,-1.1738483999999998,1.3119937,3.321065,2.1380632,5.708152
0.8740943000000001,-0.014298173,0.7986386999999999,3.149115,2.8268923999999997,5.2950672999999995
-0.42915586,0.78489596,-0.32717246,2.9015925,2.6070507000000003,4.3453984000000005
-0.6510121,1.6316676,-0.21543986,2.2915475,1.61799,2.6574035
0.27872340000000007,2.3688424,-0.5035198000000001,0.88247335,0.8178962,0.3385764
1.4412425,3.7295629999999997,-1.0822365,-0.35515705,-0.21851522,-1.6634732
1.194017,5.852568,-1.7854424,-1.0061997,-0.54005724,-2.8063672000000004
0.674121,8.480857,-1.7097857,-1.4320426000000002,-1.2049229,-1.007631
1.2712444999999999,11.788752,-0.08056968,-1.5608828000000001,0.63051766,-0.9208706
1.178426,15.686195999999999,-1.5799432,-1.0897835,0.5043478,-4.580093
0.6327013000000001,23.02252,-1.8431714,-0.21036454,0.85622364,-3.8028805
-4.010786,23.49911,-1.37884,-0.00010471976000000001,1.1122808000000002,-3.542582
-7.6309724,21.755573000000002,-1.4538838,-0.38231438,-0.5714557,-2.0765578999999996
-10.093428,22.8068,-0.39679584,-0.7416253,-0.37343064,-1.596924
-21.091625,19.746944,2.4701746,-0.7735648,-1.0718416000000002,-1.1481823
-19.985435,14.440579999999999,2.4801152,-0.55372316,-1.180436,-0.8255931000000001
-11.355096000000001,17.653456,0.52355444,-0.1677785,-0.7024078,-0.7590437
-3.9562267999999996,13.795744000000001,-3.1256877999999997,-0.09964084599999999,-0.32765067,-0.79897684
33.810642,14.801414999999999,2.0168564,-0.033632495,-0.12004375,-0.6584429
11.611802,16.206245000000003,5.8599043,-0.03417355,-0.09555677,-0.5743355
-10.546353,8.121181,-2.2938366,-0.055990162999999996,-0.21106267,-0.42154938
-14.310143,12.597139,-4.798967,-0.11189306,-0.6954788000000001,-0.14474015
-10.319642,7.9236393,-2.1378209999999997,-0.13479178,-0.9249198000000001,-0.084596105
-3.614756,9.027817,-5.083302,-0.17629571,-0.7742804,-0.24855234
-2.984966,8.929826,-0.79067075,-0.22155209,-0.5145056,-0.4652175
-1.8111753000000002,10.140546,0.29062736,-0.28330183,-0.45060912,-0.60147536
0.7284406999999999,10.022329,0.8439274,-0.36100390000000004,-0.6119124,-0.70741683
-0.8158003,9.747657,-0.9383068000000001,-0.4318119000000001,-0.78812087,-0.7968475
-1.2126441000000001,9.672584,-1.4528016000000001,-0.5004906,-0.7481876999999999,-0.9661270000000001
-1.2297865,9.849679,-2.2360408,-0.5489235,-0.6305351,-1.1173073999999998
-2.4825957,9.602128,-2.9570978,-0.61227894,-0.71040136,-1.2094083999999998
-2.9503174,9.117676,-3.7368507000000006,-0.9561611999999999,-0.9738937,-1.2514534
-0.6825773,9.3269005,-2.4902954,-1.1030655,-0.82643086,-1.5708487
0.6972776999999999,9.8445835,-1.6648224999999999,-1.3357005,-0.32817426,-2.0579176
0.799376,9.778283,-2.0550296,-1.5523657,-0.19031070000000003,-2.3794596
-0.0026431987,9.619988000000001,-2.368919,-1.7775306,-0.7604225,-2.4986832000000003
-0.61143124,9.130557000000001,-2.6620266,-2.0367644,-1.7404422999999998,-2.7078957999999997
-0.64268035,9.200746,-2.4548132000000003,-2.2193606,-2.5357366000000003,-2.5231702
0.042099643,9.759494,-1.7433236,-2.1751864,-2.4627993,-2.4976184
-0.29134563,10.797151,-1.853907,-2.2129729,0.7939328,-3.8220615
-0.8562048000000001,11.269411999999999,-2.6617775000000004,-1.6087922,0.61135393,-3.4520866999999997
0.17500657,13.063014,-2.565866,-1.0354689000000001,0.80405575,-2.1212732999999995
3.1998122,13.168951999999999,-2.634819,-0.407866,1.2283103000000002,-2.1457599999999997
3.7251193999999996,13.701307,-1.4081162,-0.23965116,0.18442895,-0.6435378
1.0576626,15.456057000000001,-3.534311,-0.031503193,-0.6938906,1.6379915
0.636149,19.051199,-5.981990000000001,0.26551694,-0.67633253,2.4838478999999998
5.5292650000000005,21.846775,-6.867317,0.79145443,-0.015184363999999999,3.0752702000000003
11.498317,22.598860000000002,-7.5421567,1.3881825,0.31005773,3.5713972999999997
15.969382999999999,20.581592999999998,-8.054392,1.7432523000000002,0.46123815,4.097335
7.5091456999999995,18.969585000000002,-2.9894001,1.9742814999999998,0.51392967,4.648823999999999
-5.0863190000000005,12.287541000000001,-6.581909700000001,2.273972,0.64542276,5.1779556
0.49991888,12.101598,-2.6350583999999997,2.60829,0.8381245999999999,5.5175790000000005
-4.869777,-1.5916078000000002,-4.5862565,2.9367259,1.1601901000000001,5.691117299999999
-15.122160999999998,1.7626879,-3.6008217000000005,3.296578,1.6488648999999997,5.833256700000001
-1.4992299999999998,2.7904037999999995,-3.6116724000000002,3.7149856,2.2652977,5.8843603
2.926289,-0.99733824,-1.2022723,3.5638053,3.0525982000000003,5.673018
1.0969753,-0.7725227,0.7366959,2.8866873,2.9647734,5.397291
-0.12752476,0.49697882,-0.306295,2.4464455000000003,2.0928068,4.0771065
-0.93227345,1.6477375,-0.8656091999999999,1.7288706999999999,0.5799380000000001,1.782243
-0.28179756,2.5250017999999996,-0.7609443,0.45183083,-0.46125559999999993,-0.46732935
1.0153713,3.3956485,-1.114932,-0.5723458,-2.200895,-2.239973
2.0456634,5.4300690000000005,-1.5524387,-0.9827600000000001,-2.0443914,-2.871852
1.7859788,8.1945,-1.3180081,-1.4240665000000001,-1.7585413,0.11395255
1.9176981,12.179706,-0.3159197,-1.6731948,0.40481165,-1.542103
1.8002672999999998,17.233866,-0.5824423000000001,-0.7405781,2.8178341000000002,-4.4613757000000005
-1.9447526000000002,24.161976,-3.220728,0.23890066,2.1998130000000002,-3.9684424
-8.159957,24.424792999999998,-4.3287935,0.54072046,3.1415055,-3.8965697
-8.414947999999999,24.451014999999998,-4.1158529999999995,-0.44991097,0.07583456,-2.4683495
-17.659307000000002,21.277374,-1.4129525,-0.7772998000000001,-0.8509353000000001,-1.6741198
-28.478483,15.958331,1.9708014999999999,-0.9817128,-2.165779,-0.9277996
-16.385399,14.554275500000001,0.029266722999999998,-0.7884699000000001,-1.9565665,-0.45083599999999996
-11.323319,17.933405,-1.8835664,-0.02565634,-0.5826258000000001,-0.8016297
1.092139,12.504609,-5.3565187000000005,0.0041538836,-0.05349434,-1.0747038999999998
44.31515,11.252824,14.359214999999999,0.04886922,0.14290756,-1.0427818000000002
14.327123,17.749443,2.1519756,0.011588986,0.09341002,-0.8633795
-8.890188,8.879788000000001,-3.02969,-0.09911725,-0.30264008,-0.6222448
-17.381254000000002,8.367647999999999,-10.124926,-0.20717058,-1.1160333,-0.17402677
-14.365134,9.095362,-0.7315626999999999,-0.21942279,-1.2320802,-0.16392133
-6.301711599999999,9.215722999999999,-6.7993703,-0.23431045,-0.7705454,-0.48223448
-5.9498115,9.298782000000001,-0.7501896,-0.26785567,-0.33723253,-0.7643844
-0.38885665,10.256846000000001,2.3216476000000004,-0.35515705,-0.35107297,-0.8277224
4.150282,10.139646,3.5343876000000005,-0.42807690000000004,-0.67099184,-0.7931125
0.50770485,9.927433,-1.0214047,-0.46961573,-0.9137496999999999,-0.8096233
-0.8173709,9.511071000000001,-1.1166365,-0.49036769999999996,-0.8072845999999999,-0.9805084999999999
-1.509707,9.933878,-3.1410394,-0.52497756,-0.82643086,-1.1428591000000001
-3.7957672999999996,9.427341,-4.324675,-0.72033226,-0.8860513000000001,-1.212585
-4.220872,8.787697,-3.9697492,-0.9157044,-0.7247654,-1.4904763
0.25820988,9.468675,-1.951782,-1.1121238000000002,-0.49747118,-1.8327528000000002
2.0302064,10.112035,-0.56426543,-1.3958620000000002,-0.21533872,-2.2133741000000002
0.6616233,10.102716000000001,-1.3920943000000001,-1.593346,-0.38940042,-2.4720668999999997
-1.2608058000000002,9.772499,-2.6598718,-1.9244523999999998,-0.96909404,-2.621659
-1.9990052,8.835936,-2.7124772,-2.0341115000000003,-1.6036434,-2.8952744
-1.0585916000000002,9.616292,-2.418096,-1.9452218000000001,-3.0228055,-2.6935142999999995
0.07013096,10.729108,-1.7857201,-1.9276638,-2.5783226000000004,-2.6754327
-0.5642941999999999,10.34662,-1.9244115000000002,-1.9063534,-0.16050048,-3.6618230000000005
-0.7724365,10.936627,-3.1938171000000004,-1.2473345,-0.3617195,-2.6376288
1.0667318000000001,12.6535,-1.8572685000000002,-0.13955653,0.28398252,-1.8971554
2.3670611,13.133757999999998,-0.9818238000000001,-0.020856684,-0.82164866,-1.6070468
2.5215638,14.89158,-2.5151856,0.14840534,-1.4971609,0.84802055
0.6289855,17.008896,-4.7695084,0.61472243,-1.2986122,1.8998955000000002
2.2991424,20.52167,-5.7792296,1.1715348,-0.3239331,2.298075
8.203013,25.393047,-7.230594,1.8683400000000001,0.6677804,2.7425754
11.424968,22.852970000000003,-9.850982,2.2633255,1.1766835,3.2094162
15.184075,19.539694,-9.690207000000001,2.3969479,1.3443748,3.7508
1.5261313,15.493808999999999,-2.4514709,2.539611,1.2735667,4.317177
-4.9627967,12.844327,-1.9291806,2.7818104999999997,1.4444344999999998,4.901146400000001
-2.3011055000000002,3.9113498,-2.9593387000000004,2.8829522,1.6408713,5.3099723
-11.999509,0.43145427,-2.351738,2.9106332999999998,1.7670411,5.5905166
-5.2033949999999995,3.199793,-2.4629342999999997,3.1853132,1.9964647,5.783742
3.0790968,-0.16382086,0.27571627,3.4674456,2.2280349999999998,5.862526
3.3986362999999997,-1.4527633,1.6362836,3.3423578999999997,3.0185294,5.688464
0.7842351,-0.2926672,0.5412428,2.9292734,2.5543418,5.094913
-0.27631962,0.5471038,-0.57239616,2.579527,1.4811736,3.5676625
-0.5295112,2.243185,-0.4478402,1.4046934,-0.033807027999999996,1.2366182
-0.28394276,2.8578436000000003,-0.18215087,-0.063442715,-0.7141189,-0.8569916
1.1062361,3.8397919999999996,-0.6567104,-0.84702575,-1.8740647000000001,-2.564168
2.1558158,6.201011,-1.6882665000000001,-1.4091613,-1.4221117,-2.3528259
1.8880099999999997,9.3586855,-1.1808873,-1.6652011999999998,0.61189497,0.39289108
1.9534196,13.081239,0.30947453,-0.940174,1.438064,-3.7959690000000004
1.0275242,18.499882,-1.8838727,-0.5079257,1.6605761000000003,-4.338941
-2.5915222,25.825870000000002,-3.984143,0.6290865,1.8788121,-3.7241137
-9.629633,23.200447,-3.009272,-0.23591615,0.7305948,-3.0075862
-9.365944,23.227549,-2.651023,-0.4046546,-0.54164547,-1.8976965000000001
-19.108604,21.967346,-0.6357371999999999,-1.212201,-0.9637708,-1.5463617
-28.000687,15.730460999999998,1.8772266,-0.9295449,-1.8506249,-0.92725855
-14.065964000000001,16.383034,1.8889102999999998,-0.6591236,-1.2491146,-0.74148566
-3.26232,14.636636,-0.015571888,-0.121474914,-0.38940042,-1.0544931
21.329435,15.808751,2.8944366,-0.12732176,0.016214108,-1.0747213
34.51749,13.308112,6.6861916,-0.055990162999999996,0.022602014,-0.89318967
-2.2912223,10.780199,2.5948837000000005,-0.057054814,-0.1775349,-0.6749363
-13.543013,9.533422999999999,-3.8600564,-0.14383258,-0.6198885999999999,-0.4034503
-14.035289,11.6482315,-8.60773,-0.18107791,-1.060654,-0.16338027
-5.701265,7.508446000000001,-3.6366199999999997,-0.19387117,-0.9004328000000001,-0.27462757
-3.9342384,9.679547,-3.8111572,-0.21462314,-0.5022534000000001,-0.56953585
-3.61105,9.385079,-1.6962535,-0.24284512,-0.2403493,-0.7036993
0.28720844,9.900369,3.8913822,-0.28009045,-0.3814068,-0.71593404
2.727896,9.967665,0.84150445,-0.3429223,-0.7274183000000001,-0.73775065
-1.4331117,9.470744,-0.6264668000000001,-0.42277109999999996,-0.8014203000000001,-0.8436921999999999
-1.9240283,9.763699,-1.6968473999999998,-0.5122018,-0.6337465,-1.0715275
-2.4767156000000004,9.808489,-2.5548623,-0.57553977,-0.6699272,-1.2046088
-3.6935349000000004,9.283317,-3.9614654000000002,-0.873642,-0.79290307,-1.2541063000000001
-2.335697,9.03995,-2.813484,-1.0306693,-0.66620964,-1.5591375
0.6662872,9.874981,-1.3990373999999999,-1.3170604,-0.33616787,-1.9658341000000001
1.1317966,9.913412,-0.81590563,-1.5145618,-0.21373302,-2.2937467000000002
-0.42165723,9.935477,-1.6243796,-1.7775306,-0.6385287,-2.4246986
-1.5212662000000001,9.527333,-2.3579726,-2.042105,-1.3710084999999999,-2.5631032000000005
-1.5805562,9.182013000000001,-2.5809782,-2.1198069999999998,-2.4484177000000003,-2.691385
-0.37364867,9.914227,-1.9001917000000002,-2.0607276000000003,-3.0116355,-2.2873588
0.06225882,10.41991,-2.1125958,-2.2379832000000004,-0.8083318,-3.0549545
-0.96889514,10.57518,-2.417454,-1.7604961,0.45006806,-3.6511765
0.15743312,12.352577,-2.0101047,-0.94284433,0.35370842,-2.4294808
2.109033,12.834357,-2.3020442,-0.14330898,0.8503593,-1.8583043999999997
2.6915902999999997,13.359176000000001,-1.5218408,0.028623400000000004,-0.57943183,-1.0662042
0.8718725,15.158074,-3.9637252999999997,0.37409386,-1.3545151000000002,1.3042147
-0.2711673,17.23331,-5.039574,0.77654934,-1.3603618999999998,2.0782331999999997
3.5173601999999997,23.327568,-5.910776,1.2891700000000001,-0.43889794,2.5312335
8.597234,24.345804,-6.626413,1.9327601000000003,0.32656854,2.9491177000000004
12.42267,21.528471,-9.693845,2.266537,0.6156125,3.3920126000000006
14.001407,19.234873,-6.4195733,2.412394,0.66086894,3.8822756000000003
-1.3031639,13.268637,-2.6459758,2.6689575,0.74337065,4.435894
-3.0235415,11.580053999999999,-1.0451553,2.9138446,1.0585073,4.9118104
-4.2879195,0.2654499,-4.343456,3.0761952,1.4231589,5.2242765
-15.752191,1.3012295,-2.4970852999999997,3.1672316,1.5253653999999999,5.5197085999999995
-3.2572443,2.6188257,-1.8147186999999998,3.3876142999999996,1.7792758999999998,5.885948
2.9504035,-0.9671617,-0.110420585,3.7623712999999994,2.2019422000000004,5.8369746
2.3847396,-0.9640876,1.2395165000000001,3.3024419999999997,2.630473,5.4797926
0.7701285,0.21684764,0.009519346,2.5742035,2.3073428,4.9384093
-0.10919475,1.2166184,-0.5306987,2.228733,1.4881027,3.0449363999999997
0.0022601264,2.8032652999999996,-0.11718181,1.2072093000000002,0.5634446,0.5605649
0.44980347,3.1838286,-0.03239834,-0.3604803,-0.44263294,-1.5112282
1.7772734000000001,4.4475937000000005,-0.5504557,-1.1941019,-1.5562577,-2.37466
2.050605,6.7088118,-0.75879914,-1.8728081,-2.7459962000000004,-0.8410218
1.7866011999999998,9.808929,-1.3720306999999998,-1.6928821,-0.19350465,-0.8362396000000001
2.5592580000000003,13.770892000000002,0.3341348,-0.9039933000000001,1.4332643999999999,-4.1052413
2.1832917000000003,20.972326000000002,-0.66903573,-0.20823523,1.6866511999999998,-3.5489699999999997
-4.5813913,25.289185999999997,-3.1119833,0.7818725999999999,1.7526596999999997,-3.3961837
-8.981407,24.10622,-3.0529807,-0.5947034999999999,0.9712059000000001,-2.6104715
-9.39455,23.728320999999998,0.10443508,-0.72033226,-0.7050781,-1.7124473000000002
-20.690298000000002,20.237047,3.9545317000000004,-1.2489401000000002,-1.0313848,-1.340343
-25.609272,15.387285,-0.42461646,-1.0194992,-1.7505477999999999,-0.9128944999999999
-12.468886999999999,19.240130999999998,-1.1203715,-0.40306634,-0.8892453000000001,-0.79524183
-5.257293,14.998226999999998,-3.427022,-0.032567844,-0.34201473,-1.0800446000000001
33.82759,15.944645999999999,7.638672,-0.048537605,0.035377822999999996,-1.0427818000000002
16.814259,13.010035,1.8712698,-0.04108505,0.072117,-0.80908227
-4.209304,7.855614999999999,0.5482722,-0.06983062599999999,-0.17221163,-0.5988225
-8.773342,7.535032000000001,-3.8555937000000005,-0.15498523,-0.66938615,-0.23523548
-14.532584,12.204003,-11.439303,-0.15713198,-1.0691712,-0.015917404
-5.350025700000001,9.08521,-3.423603,-0.13903293,-0.79290307,-0.19477874
-2.8063395,9.335433,-2.7603134999999996,-0.1693842,-0.35426694,-0.48916343
-2.4259105,9.873228,0.9623636999999999,-0.22685789999999997,-0.26696557,-0.5913699
0.77190024,9.913738,5.2705956,-0.3157475,-0.48413688,-0.61531585
1.5872600000000001,9.942957,0.1687146,-0.41105995,-0.7274183000000001,-0.6680248000000001
-1.1292683000000001,9.712816,-1.4545158,-0.45364597,-0.6720565,-0.7915243000000001
-2.320604,9.714128500000001,-2.0118093,-0.48450340000000003,-0.54962164,-0.9192824
-2.3037584,9.72021,-2.9591374,-0.53347737,-0.6145653,-0.9464222
-4.2262735000000005,9.318626,-3.7281932999999996,-0.6516536,-0.7449938,-1.0550166
-1.4112575,9.396974,-1.9775819,-0.8720363000000001,-0.90256214,-1.2498478000000002
1.5376426,9.88856,-1.0871017,-1.1642917,-0.6784444000000001,-1.5825424
1.1595885,9.859649000000001,-1.2629796999999998,-1.4352366,-0.27068309999999995,-2.0222607
-0.7284119000000001,9.77679,-2.1970918,-1.5810938,-0.23076743,-2.2889468999999996
-1.1557481,9.23841,-2.5456877,-1.7988236000000002,-0.55813885,-2.4103172
-0.9672575000000001,9.261652999999999,-2.298788,-1.9989605,-1.1074986,-2.751529
-0.10771993,9.9348545,-1.7135015,-2.0633805,-2.0300274,-3.1215037999999997
-0.5866177,9.941568,-1.6621506000000001,-2.0085596999999997,-2.7981641,-2.6264412
-1.1410286,10.258733,-1.788689,-2.172516,-1.0995225,-3.182189
-0.7242556,10.917263,-3.183455,-1.8265044999999998,-0.21905628,-3.421212
0.33610759999999995,11.7637,-4.852214,-0.9284628,0.014625859,-2.5322285
3.0199502000000003,12.894807,-0.92534935,-0.22792254,0.742306,-2.075493
3.0876197999999997,14.0097,-1.813627,-0.17788395,-0.79929096,-0.79843575
0.44947785,15.741665,-3.5325297999999994,0.20057324,-1.3624913,1.2307713
1.3781121,18.460798,-4.41055,0.7360926,-0.7157071999999999,1.8748851000000002
5.5959005,22.54972,-6.0084023,1.3583723,0.5166,2.2805169999999997
8.742035000000001,22.024117,-7.180192,1.9040146,1.1601901000000001,2.7723856
10.649419,20.238234,-10.525322000000001,2.1739123,1.4614863,3.3057760000000003
10.132760000000001,18.200865,-7.253512,2.3245516,1.5306886,3.840754
-2.4083755,13.609676,-2.1417474999999997,2.5326996,1.4604217,4.469439
-1.7952874,12.043036,0.2691849,2.7104964,1.50779,5.001223599999999
-5.767785,0.43472,-4.042782,2.7349832000000003,1.5722101000000002,5.32116
-13.084877,3.0145487999999996,-2.6949707999999997,2.8579416,1.7925928,5.559118
-1.3302186000000003,2.2111027,-0.43068814,3.178419,1.7005092000000002,5.841774
3.1695017999999995,-1.347744,0.94115114,3.2438865000000003,2.0241456,6.086643700000001
1.268697,-1.1523292,1.2833879,3.2710264,3.071762,5.768837
-0.32770875,-0.12400050000000001,-0.31751904,2.9787884,2.7683365,4.9623723
-0.7358914000000001,0.8326841999999999,-0.5627523,2.5720918,1.5429235000000001,3.523488
-0.8302421,2.065947,-0.3369025,1.1976274,0.1285435,1.5246149
-0.10858183,2.7611467999999997,-0.7362744999999999,-0.33067009999999997,-1.1900178,-0.86657345
1.4413382,4.6295433,-1.5855169,-1.0775139,-2.5564885,-2.6722212000000005
1.3459148,7.0592559999999995,-1.4149158000000002,-1.2180479,-2.7119273999999995,-2.3150222
0.8287959999999999,9.986934,0.64879036,-1.4916631,-2.648572,0.82301
0.98849887,13.233098000000002,-0.654479,-1.3718811000000002,0.5980545,-1.7481043
2.401279,19.946507,-2.7142396,-0.82093304,2.3515344,-4.2074475
0.37278676,25.098013,-2.7708192000000005,-0.18107791,1.2597437,-4.2345877
-7.414603,23.171657999999997,-2.9087827,0.37836993,1.5072663,-2.9096384
-10.810864,22.362494,-3.1974084,-0.5691344,-0.17645279,-2.2213328
-17.911732,21.828453,-1.0996952,-0.66762334,-0.81791365,-1.5846891
-26.420972999999996,15.755120999999999,2.2609499,-1.0279989,-1.5376176000000001,-1.1034495
-13.740457999999999,15.949291,2.2322482999999997,-0.82625633,-1.4226353,-0.69942325
-10.781924,15.392475,-0.030253131000000003,-0.35355136,-0.67950904,-0.7872482
5.301912000000001,11.471166,-5.837552,-0.16404349999999998,-0.16154768,-0.97249746
43.644794,10.763191,8.04696,-0.04852015,-0.002391101,-0.86283845
10.550261,13.982559,0.56982,0.005742133000000001,-0.033265974,-0.66481334
-10.206281,13.737967499999998,-0.016883912,-0.03361504,-0.24087289,-0.46252970000000004
-12.734136999999999,9.437579,-6.2571793,-0.08313003,-0.742847,-0.12822933
-8.803336,8.019158000000001,-6.9494195,-0.10068805,-1.0201973,-0.021764256000000003
-5.1950445,8.281247,-4.7082167,-0.12091641,-0.79927355,-0.25014058
-3.46282,9.2898,-2.6621416,-0.16671385,-0.43411574,-0.46520007
-1.9854636000000003,9.973545,0.7006392,-0.2337694,-0.44580945,-0.51098007
1.6504285,10.00579,2.8830592999999998,-0.32054716,-0.6268175,-0.5541071
-0.16378255,9.640033,0.034476504,-0.39826667,-0.813655,-0.6477789
-1.4930816999999998,9.620735,-0.87514776,-0.45949283,-0.6992138000000001,-0.85432124
-2.2960107000000005,9.634708,-2.0248241,-0.52283084,-0.53578115,-1.0629928
-2.8546355,9.657003,-3.0899374,-0.55477035,-0.6198885999999999,-1.1668048999999998
-3.6771872,9.060369,-3.7541466,-0.6713409,-0.86315256,-1.2509124
-0.77576923,9.477552000000001,-2.5795896000000003,-0.9934065000000001,-0.87008154,-1.3706768999999999
1.2350442,9.838722,-2.1282919999999996,-1.2074013000000001,-0.45912632,-1.80666
0.3368929,9.691307,-2.2034414,-1.4192668,-0.17912313,-2.2160096
-1.1286361999999999,9.616522,-2.5718706,-1.5981281999999999,-0.3398854,-2.4182932
-1.1461331,9.383203,-3.0724216,-1.8957068,-0.9696351000000001,-2.58492
-0.5664394,9.159919,-2.3243582000000003,-1.9829907,-1.7047678,-3.004916
0.3912796,9.46133,-1.7609066000000002,-1.9223056,-2.9418921,-2.9378428
-0.17795622,10.352355000000001,-1.6130790000000002,-1.9153942,-2.4340537,-2.8383067000000004
-1.2741462,10.738904,-2.4254127,-1.8515150000000002,-0.37447783,-3.478162
-1.0089933,11.0701275,-3.7505267,-1.1504511999999998,-0.81739,-2.8393714
2.0327346,13.013798,-1.3617549,-0.10707595,-0.1998751,-1.9386593
3.2401116,13.186372,-1.4065264,0.08719665,-1.2059876,-1.840729
2.0349470000000003,14.587746,-2.9384422000000003,0.5322207,-1.7782288,0.76286596
0.21284452,16.439768,-4.7237597000000004,1.1124553999999998,-1.5338826,1.6534376
2.281521,20.186644,-5.519315,1.5936776000000001,-0.3755425,1.8796846999999999
7.4734435,23.628176,-8.067022999999999,2.2463086,0.31965706,2.351866
10.643759,22.017364999999998,-8.292997,2.5912554,0.45539132,2.9033377000000002
11.156272,19.209648,-8.87203,2.7254014,0.50597095,3.4867663
0.29157546,15.828135000000001,-1.9816711,2.940461,0.6124185999999999,4.0057926
-4.7691445,10.267611,-0.8269380999999999,3.1672316,0.9062796999999999,4.5083075
-2.1918821,6.84983,-1.5098506,3.2374985,1.0271088,4.9501376
-10.584009,-0.26299825,-1.5611057,3.2295048,1.1064166000000002,5.268992
-5.7857704000000005,2.2518232000000005,-1.5613164,3.4009311,1.2757136,5.464364
4.1948422999999995,-0.3412695,0.016721105,3.3902671000000004,1.3858961,5.650660500000001
3.2697517999999994,-1.2253908000000002,1.5862544,3.2422981,1.9842298999999999,5.5740232
-0.007939173,0.16426139,1.1411148000000002,2.9580189999999997,2.1114469,4.9325624
-0.41335413,0.8555919,0.45165178,2.5465400000000002,1.4284822,3.9019802
0.48153144,2.2584120999999997,0.8262485999999999,1.5090291999999998,0.0699877,1.923859
1.3768193000000002,2.9386240000000003,1.1158991000000003,0.15214035,-0.17379989,-0.17987363
1.9268439999999998,4.2817426,0.24343285,-0.89545864,-1.5232362,-1.9030023
1.8938518,6.436141,-0.78437877,-1.262222,-1.3848315,-2.7030962000000005
2.2246346000000004,9.43329,-0.07916189,-1.3117371000000002,-0.5315226,0.60423297
2.2593987,12.991953,0.5463568,-1.3186661,0.6896145,-3.060819
1.1708125,17.44154,-1.3659496000000002,-0.75759506,1.4369994,-4.301678
-0.11522814,24.71088,-0.81749535,0.11274827,1.4614863,-3.4664507000000007
-7.390325999999999,23.618044,0.22237346,-0.6415307,0.31752774,-2.6727448
-11.157095,21.747684,-0.62760645,-0.510055,-0.69441414,-1.6363159999999999
-13.803559,21.389694,1.8275325,-0.9178163,-0.55974454,-1.3376727
-22.478642999999998,17.514448,3.1007689999999997,-0.7022331999999999,-1.3284223999999998,-0.92193526
-15.958935,16.686273999999997,1.7180696,-0.39667842,-1.1399792,-0.64725536
-8.393823,13.504954000000001,1.6429874,-0.060231313,-0.48254862,-0.78138393
10.018891,14.140298999999999,-5.9422555,-0.008063421,-0.11737339,-0.81173515
42.33546,14.908292000000001,4.4017973,-0.02776819,-0.05030039,-0.71272266
0.97012097,10.400739,3.2788496,-0.08258898,-0.21371557,-0.53014374
-11.408735,9.267581,-2.6066822999999997,-0.12465142,-0.49158943,-0.2756922
-16.707325,10.752561,-6.183676999999999,-0.15392059,-0.84824747,-0.114388876
-4.1015935,7.8078175000000005,-2.139516,-0.14062117,-0.75988144,-0.21607175
-3.3681437999999995,9.114180000000001,-3.675272,-0.15552629999999998,-0.5245936,-0.43537238
-3.375834,9.522526,-0.6832381,-0.18161896,-0.8088728000000001,-0.4529653
-0.82412255,9.884452,0.8768046,-0.29979520000000004,-0.31965706,-0.67067766
1.0760596000000002,9.857408,0.7485137,-0.35142204,-0.69919634,-0.6797185
-0.5034527,9.763477,-1.6715741999999998,-0.4222126,-0.80779076,-0.8080176
-1.4632690000000002,9.480292,-2.9479902,-0.4605575,-0.67418575,-1.0220125
-2.323745,9.703142999999999,-3.6388227999999994,-0.5015377999999999,-0.703996,-1.1508352
-3.0816536,9.130087,-3.857107,-0.6127851,-0.8876395,-1.2381365
-1.6975657,9.11893,-2.841381,-0.9449562,-1.1181451999999998,-1.2817873
0.36434959999999994,9.575399,-1.8333361000000001,-1.1105181,-0.88498664,-1.6453567999999998
0.7404979,9.870557000000002,-2.0691168,-1.3218426,-0.5150117000000001,-2.0664349
-1.426044,10.054565,-2.5215445,-1.4820813,-0.47989574,-2.41297
0.44651863,9.058223,-3.4014711,-1.7168279999999998,-0.9536478999999999,-2.5721439999999998
-1.4952843,9.037575,-3.115479,-1.9100708999999998,-1.7622589,-2.864923
-0.11051635,9.506197,-2.5628972,-1.9446808,-2.8620431,-2.7456822
-0.10556514,9.998797999999999,-2.0313845,-1.9090061999999999,-3.0504866,-2.536993
-0.77960956,10.405994999999999,-2.8522507999999998,-1.8829136000000002,-0.063599795,-3.654353
-1.2665422,10.782259,-3.9683222999999996,-1.3223836000000002,-0.22755602,-3.3924489999999996
0.26960626,12.888017,-3.5063082999999997,-0.6905045999999999,-0.4575206,-2.1313787
2.4741777999999996,12.796021000000001,-2.3869423999999997,-0.032009337,-0.30421090000000006,-1.8966144
2.2521298,13.23984,-2.2046192000000002,0.18462093,-1.2459033000000002,-0.29698524
0.77449554,15.303785000000001,-3.2574167000000003,0.6376210999999999,-1.7963276999999997,1.6092634
1.3398814,18.114243,-4.275192,0.99640846,-1.3475688,2.192151
6.221582,23.372272,-5.924979,1.4749603,-0.21851522,2.5599966
10.290546,23.304679999999998,-6.9048490000000005,2.0844817,0.43196899999999994,2.9230424999999998
13.388175,20.312897,-9.084463000000001,2.412394,0.7055842,3.4228872999999997
6.3684616,17.689934,-1.7175715,2.5129947999999995,0.7023903,3.9403076
-5.4077353,11.418225,-4.419935700000001,2.72966,0.80192643,4.489667400000001
-2.1010747000000003,12.260879,-0.5030601,2.9841115,1.0830117,4.992724
-4.570081,-1.0105636999999998,-3.5817449999999997,3.0687425,1.2182049,5.2913494000000005
-15.07102,0.88410205,-2.0815382,3.1283805,1.4279586000000002,5.504821
-1.2451093,1.4028969,-1.5391748,3.3295996,1.4822558000000001,5.6219325
4.2135844,-1.5184218999999999,-0.14265612,3.4451053,2.2865908,5.626191
2.5852494,-0.71626854,1.621564,2.9580363999999997,2.6182382,5.345664
-0.011204863999999998,-0.1236653,0.6936194,2.5406932999999996,2.3999848,4.6131845
-0.71349126,0.8368597,-0.3371515,2.1419728,1.1495436,2.693078
-0.35818216,2.7846577,-0.12661496,0.9043249,-0.2014808,0.35616934
0.5301912,3.5227422999999995,0.062479085999999996,-0.44298202,-1.4013423,-1.1960741000000001
1.9717113000000002,5.1793190000000005,-0.93716717,-1.4139435,-1.1687074,-3.023556
2.6214976,8.022817,-2.0678816,-1.7344035,-1.5519817,-0.63341486
2.6808834,11.740055,-0.9687610000000001,-1.4900573000000001,0.51396453,-1.0613871000000001
2.7868793,15.771564499999998,-0.16166608,-0.89118254,1.4492517,-4.2984667000000005
1.0113873,22.824901999999998,-0.545447,-0.047996555,1.6020203000000002,-3.4739033999999998
-5.2520165,24.216745,-1.7715944,0.30279717,1.441799,-3.6974626000000006
-7.241052000000001,22.199326,-2.193673,-0.65591216,-0.46071455,-2.0259607
-10.059641000000001,22.08969,-1.0131591999999998,-0.8358382,-0.47987828,-1.6650616000000003
-22.750422,19.827084,1.1280903999999998,-1.0333222,-1.3752496,-1.1375183
-20.897807999999998,15.239994,1.4249523000000002,-0.7208559,-1.6760221999999998,-0.7324274000000001
-8.007302000000001,16.788515,1.3869897,-0.20717058,-0.6720565,-0.83409286
-5.3540387,15.420248999999998,-2.8316607000000005,-0.055990162999999996,-0.16475908,-1.0230771
35.011177,13.975387,5.4015010000000006,-0.040002946,0.043912485,-0.9347110999999999
13.041886,12.113904,3.0338652,-0.050125855999999996,-0.0109083075,-0.76649624
-7.9200669999999995,7.350859599999999,-1.2575976,-0.09909979,-0.28771752,-0.5503720999999999
-15.085913,12.860368,-6.999410000000001,-0.13795082,-0.8152433000000001,-0.20701350000000002
-10.736769,8.142747,-3.2162366000000002,-0.13636257,-1.0079451,-0.10107201
-3.1846905,8.851124,-4.850911,-0.1624378,-0.65715134,-0.31986648
-5.0301029999999995,9.519624,-1.0352336,-0.20502383,-0.29356438,-0.552484
-1.4696281,9.797964,0.5874988,-0.27103218,-0.25471336,-0.64139104
2.0872555,9.969033999999999,3.0436528,-0.33437017,-0.5006477,-0.67865384
0.33550426,9.889624000000001,-1.1133803,-0.41210714,-0.6853559,-0.71645766
-1.1801594,9.456225,-1.6121691,-0.45415214,-0.6166946,-0.8670969999999999
-1.9126894,9.803692,-2.5707883999999996,-0.52602476,-0.5890137,-1.0544755
-3.1397847999999997,9.403208,-3.4324522000000006,-0.6362074000000001,-0.700261,-1.2317312
-3.7630339,9.051739999999999,-3.3446615,-0.7426725000000001,-0.8908335,-1.4079396999999998
-0.63251936,9.396485,-2.0537843999999996,-1.0546151000000001,-0.8604997,-1.5708312
1.1804563,9.912128,-1.4762647,-1.31439,-0.45539132,-1.9775279
0.5055405,9.788262,-1.7882197,-1.5060271,-0.29675832,-2.3682547
-0.82601875,9.743433999999999,-2.6115186,-1.7248042000000001,-0.64702845,-2.5657387000000003
-1.3948331,9.205313,-2.640364,-1.9616977,-1.1974528999999998,-2.793574
-1.0943608,9.457039,-2.2199805,-1.9622213,-2.0827188000000003,-3.2583029999999997
-0.039149985,10.134445,-2.1958277,-1.8770491999999999,-3.121277,-2.4677908
-0.29756096,10.271336,-2.41823,-1.9223056,-1.2719785,-3.1443849999999998
-0.66166157,10.311798,-2.8446564999999997,-1.4123378999999998,-0.44474480000000005,-3.3434748999999995
-0.32679895,11.441689,-4.174894,-0.68092275,-0.5049063,-2.2096217
2.2389617000000004,13.361417000000001,0.65497696,0.13725269,-0.42823398,-1.8960733
3.2966626000000003,13.883151999999999,-1.4061052,0.21868975,-1.7191318,-0.3219958
1.3238404,15.563498999999998,-3.6901927000000003,0.6695607,-2.1199814999999997,1.5246149
1.0739623,18.434261,-5.4694199999999995,1.1678348,-1.1325091999999999,1.9196178
4.8635526,22.605822,-6.29902,1.7720153000000003,0.25471336,2.308198
9.847897999999999,25.828936,-6.461088,2.337345,0.77904516,2.7766616
10.587945,21.543083,-9.594917,2.544952,0.94621277,3.3382563999999997
9.482992,16.02129,-4.5372424,2.6790979999999998,0.98293453,3.8673877999999995
-2.9824762000000002,11.145047,-1.21613,2.8973513,1.2176813,4.3869375999999995
-2.8285387,11.048082,0.523315,3.0149865,1.5365528999999998,4.867618599999999
-4.629341999999999,-0.04562391,-3.4696962999999994,3.0213745,1.7196729,5.200872
-15.619723,1.3670412,-3.4486464999999997,3.14168,2.0023289,5.5181203000000005
0.01163582,1.224615,-0.8858546,3.3120239999999996,2.3898618,5.898218
5.2539124,-1.407149,0.48024815,3.343981,3.6062343,5.9216404
2.0813468,-0.57280797,1.6251937,2.8505065,4.0507345,5.4670343
-0.31413844,0.12056243,0.05425261,2.5002365,3.2644813,4.2921834
-0.75144416,1.3831398000000001,-0.542076,2.0115619,1.6541881999999999,2.1154962000000004
0.14363295,2.454957,-0.023788787000000002,0.6035523,-0.5389751,-0.05370378
1.1900235000000001,3.4727894999999998,-0.52275,-0.6750584,-2.4989972000000003,-1.4073986
1.8932006000000001,5.5089239999999995,-1.3026563999999998,-1.356435,-2.0651433,-2.644523
1.7162595,7.896106,-1.1447061,-1.6737008999999998,-2.1795845000000003,0.3088011
1.4494114,10.925365,-0.13296439,-1.2547696000000002,0.71144855,-1.0518227
3.4982064,14.046705,-0.1446002,-0.7543837,2.2541277,-3.922104
5.023485,21.290535000000002,-1.6217268999999999,-0.056496307,1.649947,-3.8379964999999996
-1.4518057,27.185118,-4.1181803,0.52209777,1.4290056999999998,-2.999069
-7.976599,25.688433,-5.3893385,-0.23483405,0.09341002,-2.3341857999999998
-16.48925,20.95506,-3.9028263,-0.6042679,-0.9477836,-1.6341691999999999
-29.780642999999998,16.8233,0.20775925,-0.92046916,-1.2549441000000001,-1.2525007
-21.317244,17.616020000000002,1.8929900000000002,-0.8656309000000001,-1.4204886,-0.97515035
-4.830733,16.603407,0.2926289,-0.47757444,-0.8301484,-0.91127133
-3.1160917,12.555232,-4.309247,-0.08684758,-0.34679693,-0.9969844000000001
38.65155,12.622767,7.274762599999999,-0.08365363,-0.011431906,-1.0353118000000001
13.966557,11.376471,2.6524882,-0.08578293,0.093951076,-0.8415454
-6.215769,10.601027499999999,0.6394051,-0.08684758,-0.16261232,-0.53864354
-16.181864,10.398937,-3.8983733999999997,-0.15552629999999998,-0.5091649,-0.27356290000000005
-9.370025,10.104096,-9.493996000000001,-0.16350244,-0.8743401,-0.067544244
-5.228774,8.365513,-3.666557,-0.15550883,-0.82056653,-0.16336282
-2.2914906000000004,9.488480000000001,-3.721777,-0.16776104,-0.5139471,-0.37629297
-1.1432408,9.954238,-0.46140096,-0.18638371,-0.658216,-0.44708353
0.14020446,9.916189,2.41687,-0.25399777,-0.32498032,-0.56953585
0.87128836,9.670573,0.8527859,-0.32958797,-0.6459638000000001,-0.5647361999999999
-0.44009259999999994,9.746901,-1.4246074,-0.38334409999999997,-0.7502996,-0.61423373
-2.5755675,9.725985000000001,-1.6936200000000001,-0.39718458,-0.5959251999999999,-0.74625045
-2.5550249,9.770575,-2.7176104,-0.47438050000000004,-0.64915776,-0.86016804
-3.2559419,9.553688000000001,-3.323353,-0.57658696,-0.8817927,-1.0331825000000001
-1.9670187,9.251857000000001,-2.5325196,-0.8454026,-0.9275551999999999,-1.2716644
0.34533966,9.554273,-1.5613928999999998,-1.0226756,-0.6890909000000001,-1.5750898000000002
1.0549715,9.754304,-1.5030223,-1.2451876,-0.3148574,-1.9828511000000002
-1.5673115,9.693529,-2.6265447,-1.4245901,-0.12002629,-2.313434
0.38654864,9.344837,-2.6569988999999996,-1.6263326,-0.43994513,-2.4369159
-1.7036948,9.311721,-2.329434,-1.8600323,-1.1255977,-2.6557105
-0.4111898,9.672737,-1.8664047,-2.0495400000000004,-1.9070513999999998,-2.642411
-0.23472753,10.339483999999999,-1.4834665,-2.0628395,-2.499521,-2.5880964
-0.7414746999999999,10.694784,-2.3237739,-2.1197896000000003,-0.8487710999999999,-3.1236157
0.058581325999999996,10.509779,-3.0490445999999998,-1.7285392,0.7055842,-3.9167807
1.3737546,11.4102955,-3.8146145,-1.3261011999999999,0.17008233,-2.7233071
2.8329153,13.138297,-1.6577548999999998,-0.49673817,0.4340983,-1.6474861
2.9023373,13.365333999999999,-1.0073364,-0.19224802,-0.11630874,-2.0382130000000003
1.374607,14.504189000000002,-2.6079466,0.066985734,-0.7843684,0.63245493
-0.019306842,16.268686,-3.9406644999999996,0.40448004,-1.3667325000000001,1.8546741000000002
3.9271805,21.430319,-5.004274400000001,0.7073645000000001,-0.85463536,2.4833417
8.389244,21.821339000000002,-6.492328,1.2854698999999998,-0.03324852,2.894297
12.294417,21.044783,-7.829241000000001,1.8470819,0.549098,3.2988644
13.406657999999998,19.666912,-6.176188,2.0924752,0.89350384,3.8242607000000004
0.86317676,15.683285,-2.3901699,2.2191687,0.93076664,4.368314700000001
-5.655401,10.725306,-4.74231,2.437422,0.9669648000000001,4.949073
0.25733837,8.7240305,-0.7221295,2.6657984,1.0558718,5.337671
-9.274486999999999,-1.5894244,-2.7130232000000003,2.7509706,1.2144873,5.5825404999999995
-10.175032,2.7412746,-3.2606632999999996,3.2135525,1.6195958000000001,5.652807
0.29297367,0.34738909999999995,-1.7297342,3.4094657999999995,1.8804352,5.6065035000000005
2.4454567000000003,-1.6872705000000001,0.07670064,3.3950843999999996,2.9030235,5.5750875
1.1746815000000002,-0.51777005,1.134392,2.9532542,2.7071452000000003,5.073637000000001
-0.55752337,-0.04412035,-0.0007757214,2.6487641,2.1497919999999997,3.9940812999999995
-0.7118249,1.0026438,-0.47370717,1.6362811000000002,0.48148397,1.8679736
-0.48201984,2.5264382000000003,-0.33984256,0.26021114,-0.12800245,-0.40130356
0.71724534,3.2265987000000003,-0.68132275,-0.89969975,-1.1687074,-1.8827738999999997
1.9036680000000001,5.2987127,-1.7528238,-1.8014591,-1.0957700000000001,-2.229309
2.1811848,8.691929,-1.5885719999999999,-1.2398645000000001,0.3877947,-0.37149334
2.6741414,13.439410999999998,0.8996548000000001,-0.9987123,0.038048177999999995,-4.251081
0.30618966,18.784456,-2.5899324,-0.17681931,1.2852953999999999,-3.8497076
-1.8166533,25.345910999999997,-1.6312653999999998,0.70151764,1.3018062,-3.3040828999999996
-8.354318,22.521173,-1.4702027,-0.5600762,0.24300219,-2.5865080000000003
-8.9707575,21.621681,-2.3820105,-0.68357563,-0.40481165,-1.8316706000000003
-14.831199,22.181456,-1.8747174,-1.1435049,-0.7997970999999999,-1.3137093999999998
-25.60386,16.969220999999997,1.6010601999999998,-0.86297804,-1.321476,-0.92937034
-11.862503,18.564323,1.7281540000000002,-0.54251814,-1.0925936,-0.81918776
-6.842398599999999,17.950670000000002,3.0599048,-0.15444419,-0.44313909999999995,-0.8788082
20.247457999999998,15.998496,0.22448993,0.002565634,0.11259119,-0.97302103
25.699074,13.225935,4.6352606,-8.726646e-05,0.20306906,-0.909142
-6.631804499999999,6.5542134999999995,0.19837397,-0.042655847999999996,-0.111509085,-0.6578844
-9.922423,8.242422999999999,-4.159198,-0.12463396,-0.56292105,-0.35232959999999997
-12.127943,11.625889,-9.2762575,-0.14646803,-0.9563008,-0.13248794
-4.4716315,8.827681,-3.0256484,-0.111334555,-0.7529524999999999,-0.28899163
-4.1970167,9.486967,-0.38455668,-0.1576556,-0.3771482,-0.5902878
-1.9441971999999998,10.04721,-0.5912911999999999,-0.2401573,-0.24726079999999998,-0.7483797
-0.31825644,9.836606,2.0343244,-0.30403635,-0.4404862,-0.7766017
1.2755063,9.6394005,1.0327533000000002,-0.34875170000000005,-0.64224625,-0.7744724000000001
0.45009077,9.778896000000001,-0.35695633,-0.39666098,-0.64383453,-0.86976737
-1.5505042,9.908451,-1.8323975,-0.43392375,-0.54962164,-0.97515035
-2.5363216,9.700319,-2.7386603,-0.5025850000000001,-0.6869441,-1.0337062
-3.6763443999999996,9.34275,-3.0175946,-0.65484756,-0.8642171999999999,-1.1944858999999999
-1.7028615000000002,9.303599,-2.110393,-0.90024084,-0.98984605,-1.3099916999999999
1.3103945,9.97457,-1.3356677,-1.1972784,-0.6225415,-1.6922013999999999
1.2763298,9.868517,-1.3442581,-1.4330899,-0.24565509,-2.1776822
-0.24375847,9.793999000000001,-2.3710928,-1.5997164,-0.40215877,-2.4209461
-1.280649,9.478606,-2.3502536,-1.9143119999999998,-0.91319114,-2.5934196
-1.2630851,9.496926,-1.6931218999999997,-2.0686865,-1.6914509999999998,-3.0043747000000005
-0.51530886,9.958558,-1.4522556999999998,-2.1134193,-3.3523061000000003,-2.8308367999999997
-0.83000267,10.362594,-2.0328496,-2.0793505000000003,-2.9243166,-2.2394319
-1.0860769,10.297298,-2.631496,-2.0601866,-0.24033184,-3.2098525
-0.24340414,11.0246,-3.6847339,-1.2718040000000002,0.062011547,-3.0427022
0.30111396,12.739212,-3.4113162000000004,-0.24122195,0.65289277,-2.3059814
3.3991629999999997,13.764314,-1.6947118000000003,-0.053825952,-0.46603779999999995,-1.801843
2.9231384,14.733056,-3.3839169,0.28258625,-1.1745542,0.6596123
0.3739743,16.740736,-3.7977114000000003,0.68980646,-1.1830714,1.5986168
2.9411619,20.683603,-5.4915709999999995,1.1263133,-0.14770721,2.0388587
7.9830155,24.882162,-7.034883,1.7768148999999998,0.76096356,2.4993289
8.730878,23.143158,-7.518167,2.124956,1.0691712,3.0348308
13.614504,18.831573000000002,-9.145381,2.2718775,1.1612723,3.6337056000000003
3.6865343999999998,15.285973,-1.9158403000000002,2.4512625,1.1948,4.2336279999999995
-2.6547674999999997,12.266836,-0.06677908,2.6508932,1.3587563,4.7579769999999995
-1.7649192999999999,4.842771,-2.4688816000000005,2.7749164,1.3805903,5.1928782
-13.084054,0.27120559999999994,-2.5024292,2.8334723,1.2485737,5.531978
-5.679947,3.4116511,-2.266198,3.1092167,1.4455166000000002,5.793341000000001
2.7084935000000003,0.055382676,-0.7111162,3.4392586000000005,1.6158607,5.8742547
2.7998657000000002,-1.0600758999999997,1.3019379999999998,3.5611525,2.6570892,5.8183694
0.18669027,-0.20609288,0.80534244,3.1129518,2.6459189999999997,5.413261
-0.91786987,0.75040984,-0.45346179999999997,2.8185843999999998,2.1210463,4.1846714
-0.6160664,1.7849157,-0.33940205,1.9498119999999999,0.7598989,1.8434865000000002
0.3234375,2.592863,-0.35235947,0.2650108,0.24780184,-0.67545986
1.1011891000000003,3.8891795,-1.0235883,-0.67399377,-1.4029305,-1.9828511000000002
1.0658793,5.7991395,-1.6590668999999998,-1.1967374,-1.3640621000000002,-2.839354
1.2094643999999999,8.412123,-1.6452476000000003,-1.8067822,-0.13493139999999998,0.51108474
2.2039106,12.077282,-0.020599712,-1.0407746999999998,0.37821284,-3.4919848
2.0479426,16.395878,-0.5678759,-0.5776515999999999,1.2459033000000002,-4.42516
-0.15055698,24.631355,-2.2109687,0.45238933,1.5610399,-3.3008888
-6.6091074999999995,23.68125,-2.9958456,-0.1730843,1.0308439,-3.1449087000000002
-7.0154996,23.484907,-2.1639752,-0.40678388,-0.5788908,-1.7294642
-15.360068,23.995714000000003,0.7159045999999999,-0.91566956,-0.67045075,-1.3632243
-25.454147,16.912832,1.4678277,-0.7799353,-1.3363986,-1.0060252
-17.907326,18.25261,1.1291151000000001,-0.5350656,-1.1506083,-0.708464
-7.1061440000000005,14.155507,-0.027581203999999998,-0.09375909,-0.5075592000000001,-0.8111941
15.370037,15.811576,-1.5291383,-0.038938295,-0.12906710000000002,-0.83887506
38.498670000000004,14.617779999999998,7.4840927,0.0015009831,0.0013264503,-0.7223045
-0.7699657,9.318224,3.1303134,-0.006998770400000001,-0.07318166,-0.5881585
-10.8982525,6.9060369999999995,-2.6604083,-0.08098327,-0.37660715,-0.36884043
-15.439995999999999,13.304675,-7.8023777,-0.15763813,-0.9515186,-0.046774823
-8.186063,8.918172,-2.111341,-0.16934929999999998,-1.0068804,-0.055833083
-2.1287038,9.370982000000001,-3.8882410000000003,-0.19650662,-0.5975135,-0.30548498
-2.6369162,9.664769,-1.2541882,-0.22738150000000001,-0.32496285,-0.49979250000000003
-0.91665363,9.914197,1.6745238000000002,-0.29391345,-0.24565509,-0.59081143
1.4905438,9.934414,1.3533943000000002,-0.34875170000000005,-0.5725029,-0.61636305
-0.61369133,9.764636999999999,-1.0604398000000002,-0.39292598,-0.703455,-0.6914296
-0.9905195,9.5027685,-1.6992702000000002,-0.40729004,-0.5549274000000001,-0.86762065
-1.542201,9.780362,-2.4461846,-0.44083527,-0.49850094,-1.0161480999999999
-3.0192797000000002,9.383902,-3.8688957999999998,-0.53613025,-0.67790335,-1.0848094
-2.8987942,9.071277,-3.3606163999999996,-0.6931575,-0.8870985,-1.3025392
0.22201912,9.550183,-1.723739,-1.0450333,-0.8471828000000001,-1.4851181999999998
1.5590178999999997,9.845349,-1.3342694,-1.2829741000000001,-0.41493458,-1.8902265
0.49577212,9.676425,-2.0534491999999998,-1.4410834,-0.18764035,-2.1947167000000003
0.11993992,9.531260000000001,-2.2828236,-1.6465610000000002,-0.4878719,-2.2516842
-0.9324935999999999,9.457278,-2.4271555,-1.9185706000000002,-1.1074812,-2.3895478
-0.17393395,9.851564999999999,-1.7948182000000001,-2.1144664,-1.9187452,-2.5694737
0.36748123,10.166039,-1.2852075,-2.1480117,-2.5905400000000003,-2.5071828
-0.40689936,10.279831,-2.0389404,-2.0862616999999997,-1.7191318,-2.68765
-0.629043,10.654255000000001,-2.9109566000000004,-2.009607,0.71677184,-3.9167807
0.44250593,11.0679245,-4.815563,-1.4368248,0.3734132,-3.0320732999999995
2.8217293999999997,12.875758,0.16989255,-0.5920156999999999,0.4575206,-2.0041442
3.1269712000000003,13.659170000000001,-1.346183,-0.15498523,0.05136504,-2.141484
0.6823666,14.4282255,-2.9027205,-0.012322023999999999,-0.9233140999999999,0.24863960000000002
-0.347437,16.2367,-3.9631412000000004,0.378911,-1.5040723999999999,1.6630369999999999
3.1320372000000005,21.119522,-5.0804005,0.7371747,-0.93767816,2.1793926
7.6500587,21.165031,-6.400065000000001,1.3131508,-0.04017748,2.6643324
12.2418785,20.716797,-7.991701600000001,1.8848683000000002,0.6268001,3.1418195
16.329795999999998,19.413078,-7.7127289999999995,2.1462314,0.9989043,3.6853325
3.816664,16.374529000000003,-2.436196,2.3027349999999998,1.035626,4.167078500000001
-6.809933,11.261892999999999,-4.7506129999999995,2.5955315,1.1229448,4.724431500000001
-0.5368662,9.279898,-0.63895494,2.824414,1.2538794,5.2253585
-7.361911999999999,-1.3161788,-3.1775177,2.9958227,1.3635385,5.4765987
-12.084082,3.3904388,-3.052837,3.2460158,1.6499294999999998,5.6852703
0.09011775,1.5245798000000002,-1.1869878,3.653777,1.9341913,5.823675
2.4281802000000003,-1.2991034,0.31048965,3.5728636,2.9764845,5.7709837
0.93241704,-0.5702414000000001,1.1023383999999998,2.9745297,2.7209682,5.496827
-0.19262789,0.22272779999999998,-0.14017572,2.6737745,2.1274342999999996,4.278867
-0.30611306,1.7452964,-0.7424801999999999,1.8869976000000002,0.5586624,1.9632511000000001
-0.16270037,2.7702253,-0.27534276,0.27883379999999997,-0.38833576,-0.87615526
0.18485153,3.2204695,-0.6076100999999999,-0.7059508000000001,-1.86553,-2.4273515
1.4971421999999999,4.963352700000001,-1.555034,-1.2851208,-1.532818,-2.787727
1.6791686000000001,7.747819,-1.5100517,-1.6827592,-0.60124844,0.41472512
1.8824171000000003,11.081812,-0.32009518,-1.4788873,0.8727344000000001,-2.654122
2.0337113999999996,15.531991,-0.6260933000000001,-0.76398295,2.164156,-4.2218294
-0.7700998,25.049429999999997,-3.4059627,0.13510594,1.6297011000000001,-3.407895
-7.368644000000001,24.929779999999997,-3.1641673999999997,0.32515484,1.974648,-3.6783163999999995
-7.659894,24.128565,-3.144104,-0.626102,-0.2626895,-2.1382902
-15.112632000000001,22.80978,-1.6152626,-0.83796746,-0.4458269,-1.7161648
-28.001577,15.867035000000001,2.5573810000000003,-1.095613,-1.4524455,-1.1668048999999998
-15.081871,15.419014,1.0113012,-0.83955574,-1.8064331999999999,-0.68078315
-5.8618298,17.112001,-1.569677,-0.26837927,-0.81100214,-0.7255159000000001
8.719864,13.940726999999999,-3.3696281999999997,-0.024033183,-0.09075712400000001,-1.0592753000000001
43.056835,12.009114,11.933698,-0.07780678,0.24404939,-1.0108423
5.495411,12.911135,3.3288309999999997,-0.060772362999999996,0.019949114,-0.7388153000000001
-8.181313000000001,8.197803500000001,-2.2902741,-0.13582152,-0.20041616,-0.54930747
-16.443233,11.348756,-9.634354,-0.20343557,-0.83920664,-0.16016887
-10.139971000000001,8.925717,-0.7194385,-0.19704767,-1.0324495,-0.09789552
-3.3170803,9.122195,-5.6312294000000005,-0.21408209,-0.59168404,-0.37896335
-5.3149266,9.538203,-0.5158164000000001,-0.2529331,-0.16847663,-0.6541669
-2.210557,9.790494,0.16596606,-0.32428217,-0.18551105,-0.7148694
2.1778998,9.919733,3.9284925000000004,-0.3801676,-0.48254862,-0.673348
1.8423287,9.958538,-0.38205713,-0.41210714,-0.73858845,-0.6797185
-1.8532461999999998,9.6366625,-1.2165706,-0.45629890000000006,-0.6933495,-0.8064294
-2.4345872,9.754045,-2.2946315,-0.510055,-0.6284058000000001,-1.0401115
-2.8725537999999995,9.515707,-3.1735717999999995,-0.6122615,-0.65928066,-1.223755
-3.9843252000000002,8.977835,-3.172978,-0.89865255,-0.7614871,-1.3211794
-0.35897702,9.562403999999999,-1.4648492,-1.089225,-0.50970596,-1.6639968999999997
1.7160776999999998,10.016469,-1.2791166,-1.4006442,-0.082780965,-2.1106267000000005
0.9154278,9.86346,-1.7059548999999998,-1.6055807,-0.05510004599999999,-2.4417331
-1.4247607,9.841481,-2.2678645,-1.8802607,-0.56665605,-2.5444632
-1.8819095000000001,9.388010000000001,-2.6190173999999997,-2.059663,-1.308194,-2.6631804
-1.3837528000000001,9.555173,-1.7467426,-2.0926669999999996,-2.70821,-3.0437844
0.008379705999999999,10.500183999999999,-1.4552341999999998,-1.9750146,-3.2841861000000003,-2.2516842
-0.024794352999999998,10.588836,-1.6074191,-2.217755,-0.8966978000000001,-3.1736717
-0.01595496,10.435482,-2.1405217999999997,-1.4538767,-0.35372588,-3.017168
0.40424657,12.524280000000001,-2.2954552,-0.27848473,0.3835361,-2.2564664
2.8345337,13.629692000000002,-1.3668879999999999,0.13775884,-0.56187385,-2.22985
3.443724,14.125235,-2.3776147,0.33632496,-1.4609628000000001,0.35402259999999997
0.63880175,16.208525,-4.933157,0.91495395,-1.5141953000000001,1.606593
0.7887361999999999,19.058467999999998,-5.91771,1.4526026,-0.47883108,1.8498569999999999
5.7681203000000005,24.477102,-7.897169,2.1110978,0.5719618000000001,2.273588
9.214813000000001,23.67897,-8.434763,2.4826610000000002,0.8876395,2.7617392999999995
12.376510000000001,19.959003,-10.953205,2.6024256,0.94406605,3.3622022000000005
6.6846395,16.605013,-2.8755414,2.7802222000000003,0.96429443,3.9168854
-3.3304017,11.601363000000001,-0.47376463,2.9511075,1.1921297,4.47848
-1.5227218,8.166909,-0.6390603,3.0325444,1.4566867000000001,4.969284
-9.762444,-0.42958683,-2.5544794,3.131016,1.5785805,5.3025199999999995
-9.521414,3.2569953999999997,-2.7314583999999997,3.1533737,1.4471048,5.662913
2.9632267999999997,0.72756916,-0.124373995,3.3732328000000003,1.5812508,5.898724
4.590441,-1.5285923000000001,1.0046933,3.5595467000000003,2.489939,5.6868587
0.8681184000000001,-0.12575305,0.6590184,3.028286,2.5687232000000004,5.222671
-0.50268656,0.9682917999999999,-0.5390688,2.5076716,2.2551749,4.2155113
-0.4618032,2.1963258,-0.08715851599999999,1.8278834,1.0436021999999998,1.8455985000000001
0.07170156,2.927333,0.22876118,0.37465240000000005,0.69493777,-0.6813241999999999
1.1307718999999998,3.8846114000000003,-0.5067472,-0.7315024,-0.6347937,-2.025978
1.9062538,5.678127,-0.6752701999999999,-1.36764,-0.58794904,-3.1412086
1.8822638999999999,8.060099000000001,-0.9524421000000001,-1.8493857,0.01675516,0.25022787
1.3461926000000002,11.424192,-1.7806444,-1.2691511,-0.13121386,-3.6394653
3.1000697999999995,15.696960999999998,0.11466311,-0.5638286,1.0824707,-4.3543696
0.6687675999999999,24.459988,-1.4756327,0.6812718000000001,1.0691538,-3.9577959000000003
-6.403771400000001,24.878227,-1.4566132,-0.5510528,0.17858209,-3.0001338
-8.056709,23.827593,-1.3201915000000002,-0.39029053,-0.8743576,-1.6868956000000002
-13.454398000000001,22.50698,1.8021156000000003,-1.0551738000000002,-0.7641574999999999,-1.5559436000000002
-24.939804000000002,17.516737,2.515128,-0.80815727,-1.4008187,-1.1620226999999999
-16.963274,19.202934,0.6382175,-0.49994957,-0.90840894,-0.8633795
-9.743358,14.249216,0.83098906,-0.32162929999999995,-0.3010344,-0.9219527
11.960014,15.894042,-2.4867425,-0.27956682,-0.14507176,-0.75372046
38.21183,17.303452,6.558341,-0.18694222,-0.08436921,-0.6206391
-1.4217727,7.0961742,2.7497501,-0.14861478,-0.06361725,-0.5487839
-9.27801,5.5969443,-3.7164042,-0.16406095,-0.39685297,-0.31082568
-22.199623000000003,11.836559,-6.610678,-0.18268362,-0.8573056999999998,-0.08299041
-5.3083954,9.176008,-2.4038553,-0.18802431,-0.7753451,-0.15008086
-1.0966498,9.609022999999999,-2.034267,-0.21303488,-0.45753807,-0.3315951
-3.0482593,9.6696825,-1.8664047,-0.26572640000000003,-0.35372588,-0.49820423
-0.75831074,9.958692,2.5900857000000004,-0.31895890000000005,-0.5192878,-0.5791177
-0.016500838,9.953683,-0.91296655,-0.38496727,-0.8168489999999999,-0.65524894
-2.3165432999999997,9.577908500000001,-1.0598843999999998,-0.47226864,-0.80461425,-0.8234638000000001
-1.4376893,9.63627,-0.8741901,-0.5324300999999999,-0.6268175,-1.0246828000000001
-1.7076116999999997,9.779653999999999,-1.8095856,-0.5861863,-0.70347244,-1.0741804
-3.440152,9.298993,-3.2958964999999996,-0.8465021,-0.7641574999999999,-1.1960915
-2.3138235000000003,9.348955,-2.576659,-1.0551738000000002,-0.5320636,-1.5410385
0.060860608,9.638587,-1.2212152,-1.3436941,-0.11311479,-2.0403596999999998
0.5166592000000001,9.700386,-1.2545425,-1.5443721000000001,0.04124213,-2.3405912
-0.10707828,9.7951,-2.5647933,-1.7402678,-0.42825145,-2.4417331
-1.0008337,9.852179,-2.6344933999999998,-2.0192063,-1.0697123,-2.3948883999999997
-0.78054804,9.336707,-2.210375,-2.0245295,-2.0177926999999998,-2.7467642000000003
0.22190419,9.886693,-1.5078683000000002,-2.021353,-3.0701911,-2.469414
-0.21755633,10.613803,-1.6595839,-2.067133,-1.7047852,-2.8117080000000003
-1.4337628999999998,10.762397,-2.3120232000000005,-1.8871896000000001,-0.21853268,-3.3259343999999995
1.3336086,12.201302,-0.7293313,-1.3474116000000003,-0.29784045,-2.2831001
2.5404970000000002,12.251168,-1.862756,-0.24284512,0.6512871,-1.6246048
3.3883414,13.649334,-1.0431728,0.036075957,-0.16901769,-1.8428581999999998
0.76201695,15.14979,-4.0764923,0.22771311,-0.68324405,0.7176096
-0.36710772,16.814660999999997,-5.0702295,0.57798326,-0.9398249,1.7865015
1.9928186,21.694032999999997,-6.3392525,1.0789102,-0.35053194,2.2565536
8.1218405,22.767210000000002,-7.4868507,1.7576338,0.6044424,2.7079656
10.742151,20.609375,-9.765834,2.1770887,1.1128045,3.109339
12.997192,18.444430999999998,-7.439905,2.2942004000000003,1.1484616,3.6677396
-0.6705393,14.116586999999999,-2.7080526000000003,2.4299521,1.0159212,4.246386
-1.3758041,12.135088,-1.5814468000000002,2.694509,1.2586616000000002,4.795746
-1.1819886,5.757758,-2.4722237999999996,2.83239,1.4912965,5.1987247000000005
-11.352882000000001,0.5870486999999999,-1.4784291,2.871241,1.4859558000000002,5.481922
-8.033112,3.148701,-3.2149148,3.1714728,1.6765458999999998,5.740632
1.6630892,0.9828389000000001,-0.432479,3.6681411,1.8564543999999998,5.742220400000001
3.4985797,-1.4724915,1.0188094,3.4930146,2.5282664,5.464346400000001
1.4179133,-0.20768264,0.34633562,3.018704,2.298302,5.004958599999999
-0.15418659,0.8404510000000001,-0.98419887,2.4826436000000003,1.7457482,3.7720928
-1.005153,2.5151951,-0.8233372,1.575561,0.453262,1.6188278
-0.28861624,3.4265144,-0.16101484,0.32726669999999997,0.0045029493,-0.5248205
1.0982682,4.0363655,-0.5834765000000001,-0.6325073,-1.2059876,-2.2431843
1.9321113,6.1219835,-1.7150241000000002,-1.1743971000000002,-0.70825464,-2.8601408
1.4183538,9.017023,-1.9403569,-1.6897056000000001,0.55545104,0.2778913
1.6724265,12.779263,-0.025359385,-1.1760028999999999,0.37074283,-3.7411306000000004
0.5143511,18.704893,-1.9700832,-0.44032910000000003,1.6914509999999998,-4.403343700000001
-3.4970187999999993,24.4292,-2.6509367999999998,0.6019466,1.8750944999999999,-3.6884391000000005
-9.351302,23.059494,-2.0583909,-0.5271069,0.6523343,-3.0315497000000002
-9.684737,22.619125,-1.8871577000000002,-0.4296826,-0.4873483,-1.8961082999999999
-15.6300955,21.279923999999998,0.5518826,-1.2068777,-0.7327416,-1.4760947
-24.676167,16.633657,2.6128306,-0.8427846,-1.6105549,-0.9299289000000001
-14.462089,17.822618,2.170114,-0.5696929000000001,-1.4779972,-0.6813241999999999
-7.1148777,14.887979500000002,2.6402202,-0.081541784,-0.46019095,-0.9208706
14.2102,14.925837,-1.9376369999999998,-0.12679817,0.09925687,-1.0699391000000003
39.793929999999996,18.672838,7.932258,-0.14489724,0.18921115,-0.8900132
-1.3082876,8.539849,1.7816979,-0.16086699,-0.10142108,-0.6621779000000001
-10.258311,6.918611,-3.9798622000000003,-0.23698081,-0.45115015,-0.39920917
-16.892378,11.519596,-6.483948000000001,-0.2646792,-0.9190729,-0.15699236
-6.065183,8.5502205,-3.6289585,-0.2540152,-0.7886445,-0.288468
-3.7332117999999994,9.519164,-1.6932846999999998,-0.25562093,-0.38088320000000003,-0.5615597
-3.5999693999999995,9.810912,-0.42794920000000003,-0.30937707,-0.20149826,-0.7292509
0.14863203,9.658756,1.9100941000000002,-0.37432078,-0.4000469,-0.7340331
2.6208656,10.03227,1.9098066999999999,-0.41636574,-0.71357787,-0.72284555
-0.42850465,9.632036,-2.2009895,-0.45097563,-0.77586865,-0.8037765
-2.1331284,9.584497,-2.017766,-0.4557753,-0.63533473,-0.9703856
-2.0270363999999996,9.792897,-2.6910252999999997,-0.5111371,-0.7380823000000001,-1.0672688
-3.6972794999999996,9.275203999999999,-3.4212279999999997,-0.7783645,-0.8807455,-1.0933614999999999
-2.1202476000000003,9.249031,-2.3289165,-0.95883155,-0.6944315999999999,-1.4510841
0.93007076,9.938265,-1.0013701,-1.2116774,-0.32604495,-1.8913084999999998
1.3091781999999998,9.856746000000001,-1.1314708999999998,-1.5023271,-0.032218777000000004,-2.2995933999999996
-0.18197848,9.925756,-2.1646457000000003,-1.6343437,-0.34042647,-2.501877
-1.524235,9.625917,-2.6730973999999996,-1.9319224,-1.050025,-2.5838728
-1.5770607,9.537858,-2.079843,-2.033588,-1.8964223999999998,-2.970341
-0.21947168,10.426748,-1.8107060000000001,-1.9585211999999999,-3.6243508,-2.582808
-0.5397105,10.710519,-1.4221654,-2.0836089,-2.8753599999999997,-2.4475799
-0.814268,10.477572,-1.8991191000000003,-1.9771613000000001,-0.77267474,-3.24448
-0.47249090000000005,11.527228,-2.9070110000000002,-1.1749382,-0.43146285,-2.57642
2.2524745,12.905073,-2.4253932999999996,-0.03202679,0.35903168,-2.1239262
3.4070065,12.760607,-0.806415,0.06749188,-0.98028165,-1.5133575000000001
2.040492,14.819735999999999,-3.4026872999999997,0.4284085,-1.5136716000000001,1.0077181999999998
-0.038546647999999996,16.871814999999998,-5.4905944,1.0262011999999998,-1.0143504,1.8062063000000002
1.6572185000000001,20.16774,-7.1922297,1.6128238000000001,0.14077826,2.057464
7.422389,24.62968,-7.507249400000001,2.2292566000000003,1.0531840000000001,2.5078112999999997
8.406922999999999,22.280785,-8.895963,2.5438522999999997,1.4066482,3.042266
15.270707000000002,18.474646,-8.892285000000001,2.6396883,1.4518870000000001,3.6161127
2.1675856,14.603347,-1.8682147,2.7914097,1.3406396999999999,4.196347
-2.9014947,11.897095,-0.27275705,2.9100919999999997,1.3656503,4.7542243
-2.5336592000000002,3.1038718,-3.1626065,2.87817,1.2517327,5.169962
-14.496364999999999,1.0340748,-2.2581057999999996,2.9670596000000002,1.4593396,5.4771222999999996
-3.9298233999999996,3.192639,-0.98309755,3.3050952000000007,1.5908327,5.628303
4.5502667,-0.36823779999999995,0.6829795,3.4919326,2.1944897,5.7970414
2.9113877,-1.0204375,1.3837433000000001,3.416866,3.239977,5.7235804
0.16001886,0.21198262,0.11017159,3.1230397,3.0882728,4.963437
-0.53116804,1.0208110000000001,-0.7284215,2.851554,2.3919911,3.3520794
-0.32188603,2.5329792,-0.5155578,1.4983826,0.94246036,0.9518328000000001
0.16282487,3.3116312000000003,-0.54831046,-0.10602875,-0.22490312,-1.2929747999999999
1.1792688,4.8717217,-1.4199339,-0.81828016,-1.6691108000000001,-2.6599865
1.5194275,7.3631470000000006,-1.8601031000000003,-1.2542634,-1.7995392,-2.6472106
2.0051631999999997,10.405306,0.020398598,-1.7892417,-0.40430552,0.36041048
2.0094726,13.666851000000001,-0.012105083,-1.1291583,0.9057212,-3.1007519
1.5986755,19.054485,-1.3990566,-0.8933468000000001,1.4763913999999998,-3.9732246
0.17102261,24.08704,-3.150731,0.2144137,1.5365355,-3.5388644
-5.146595,22.248894,-2.7135403,-0.106569804,1.3779025,-3.3184817000000004
-7.410456699999999,23.270674,-2.0920534,-0.47122145,-0.5033181,-1.8380759999999998
-18.578056,22.931463,0.3681612,-0.7565304,-0.56026816,-1.4872649
-29.661659999999998,15.349122,0.4388763,-0.78047633,-1.3896312,-1.0630102
-14.815195000000001,18.007883,-0.48294878,-0.4946263,-1.3518448,-0.719128
-6.827861,15.503711,0.53242254,-0.11667526,-0.58210224,-0.789395
12.473714,14.171625,-0.10803596,-0.021921335,-0.18125243,-0.8953190000000001
37.21637,11.22442,7.508983,0.016929694,0.030595621,-0.7830071
3.329482,13.009824,2.062059,0.020647245,-0.0673348,-0.5897642
-8.426096000000001,8.855617,-0.4311191,-0.06716027,-0.3707603,-0.38695696
-16.158516,12.664417,-8.259737,-0.11454595599999999,-0.8855277,-0.0718203
-8.727325,8.314592,-1.1603162,-0.12093386,-1.0404257,-0.043074727
-3.4898843999999998,8.916716000000001,-4.882754,-0.14275047,-0.73380625,-0.26558676
-3.3108552,9.612892,-0.73497206,-0.19706513,-0.8764869000000001,-0.43647194
-1.3203351,9.927558,1.3125683000000001,-0.31737068,-0.27920032,-0.7138048
1.6724074,9.990372,1.1126813,-0.40999529999999995,-0.61882395,-0.7755545
-0.5381016,9.853663000000001,-0.9347347,-0.48877946,-0.7934266999999999,-0.84421575
-1.3313963,9.667566,-1.5048611,-0.5425356,-0.6773971999999999,-0.9618684000000001
-1.8155903000000002,9.887124,-2.7803195,-0.6005678000000001,-0.76735145,-1.0773917
-3.0150757,9.599733,-3.8998864,-0.7160736999999999,-0.9068207,-1.1769279
-3.1556919,9.072453999999999,-3.2061138,-0.9822364,-0.90202105,-1.2833928999999997
-0.19008046,9.614032,-1.8622772,-1.1429987,-0.63107616,-1.6586736
1.3684201999999999,9.732822,-1.6001313,-1.3873273000000002,-0.23821999,-2.081881
-0.39846218,9.902285000000001,-2.4272225,-1.5880226999999998,-0.2621659,-2.3645372000000004
1.5906596000000002,9.169668,-2.793497,-1.8627026000000002,-0.9919928,-2.4805841
-1.1767215,9.210379,-3.0580754,-2.0655098,-1.6664404,-2.8255310000000002
-0.6323278,9.750261,-2.3500335,-2.2060614,-2.4505644,-2.6306998999999998
-0.41854477,9.953874,-2.1847951,-2.0995786,-2.3243945,-2.680215
-0.8888521999999999,10.2425,-2.5067961,-2.1033137,0.6028366999999999,-3.9024339999999995
-0.53252786,10.615756,-3.8440440000000002,-1.4331073,0.18868755,-3.4265351
0.68927157,12.522267999999999,-1.9681679,-0.7820819999999999,0.12534955,-2.1005037
2.9582467,12.919839999999999,-1.267069,-0.08419468,0.45006806,-2.0674996
2.7635791000000003,13.676954,-1.461957,0.055257123,-0.5719793000000001,-0.46146506
0.31989408,15.873930999999999,-4.1935496,0.43586108,-1.444993,1.6773835
1.1118576999999998,19.617628,-5.912442700000001,0.7829371999999999,-1.2906187,2.3358787999999997
6.133552,22.297832,-6.720581500000001,1.2700063,-0.28825858,2.7271292000000003
12.522019,23.20876,-7.4446454,1.9316955000000002,0.44420373,3.1348906000000003
16.06178,21.162743,-8.884921,2.2766423,0.8375834999999999,3.6459230000000002
7.468157000000001,18.401546,-2.835635,2.3660731,0.9211673,4.1415267
-6.037449,11.501333,-5.3492403,2.5279,1.0829942,4.648823999999999
-0.7139318,11.618965,-1.4469023,2.7307246,1.3507626,5.10343
-3.9850912000000003,-1.3391249,-4.1876983999999995,2.881364,1.4753268,5.4090023
-16.188232,1.0220175999999999,-2.9836158999999998,3.0027342,1.7670411,5.6815352
-1.9131778000000002,1.5396345,-2.4563646,3.4057133,2.139128,5.827934
3.2646856,-1.6069212,-0.7307199000000001,3.653236,3.0978546000000002,5.7086926
2.0425508000000003,-0.9592609000000001,1.2802945,3.1374214,2.965838,5.4813985999999995
0.2278801,-0.07343495,0.35304898,2.721684,2.3525991000000004,4.6584234
-0.34716883,1.1766256000000002,-0.7732314,2.1361084,0.71462506,2.3976285
0.19388245,2.8610327,-0.76738954,0.46513024,-0.19509289999999999,-0.23364723
0.9403275,3.7616644,-0.52754796,-0.7347138000000001,-1.7186082999999999,-1.9509290000000001
1.8924631999999997,5.4245715,-0.99090266,-1.5427663,-1.3092587,-3.3291109
1.9977026999999998,7.9575320000000005,-1.8820723000000001,-1.8903835999999998,0.09073967,0.36466908
2.3029826,11.133028,-1.1875815,-1.2324294,-0.15463617,-3.4563453
2.730568,15.409044,-0.038814798,-0.56648153,1.5647575,-4.5715585
0.050632577000000005,22.989155,-2.4889066000000004,0.54871404,1.627572,-3.6458532999999997
-6.770409599999999,24.137144,-4.167616000000001,-0.49143237,0.9887814,-3.5319355000000003
-9.605864,23.99152,-3.8412955,-0.5728694000000001,-0.8227133,-1.792296
-14.055247,23.952656,-1.8453357,-1.1051948,-1.0787531000000001,-1.379194
-24.903423,18.829113,1.8683392,-0.8646011999999998,-1.4721503,-1.0491698
-21.051132,16.84044,3.5266974,-0.47492155,-1.3135173,-0.80695295
-6.8135242,15.874869,3.7812202000000004,-0.11880456,-0.34787902,-0.9139591
7.7361345,18.127697,-0.56370044,-0.14276794,0.007696901999999999,-0.93684036
44.382828,17.92127,5.1838202,-0.12199851,0.008761553,-0.708464
1.7313238000000002,6.719489599999999,3.95819,-0.08899434,-0.08862782,-0.56953585
-8.465802,4.5988784,-2.8044434,-0.15233234,-0.37236598,-0.34330627
-22.687897,13.650148000000002,-9.705097,-0.19065976,-0.90202105,-0.08831366
-9.861754,9.194051,-1.4503882,-0.17310175,-0.8083318,-0.16070992
-2.1032872000000005,9.491956,-1.7227143,-0.18214256,-0.42027527,-0.4343252
-2.392909,9.663227000000001,-0.7185095,-0.22314034,-0.41015238,-0.59135246
-0.5677993,9.844028,2.593543,-0.36473890000000003,-0.43251005,-0.71219903
1.4509531999999998,9.875525999999999,0.9241427,-0.42807690000000004,-0.7519053000000001,-0.75478506
-1.3698856000000001,9.544476,-1.5989149,-0.48239154,-0.777998,-0.8633795
-2.1460571,9.663227000000001,-1.5866758,-0.55211747,-0.64756954,-1.0198832
-1.6222823999999998,9.777536999999999,-1.9619142,-0.5973564,-0.7492524,-1.1024023
-3.4973349999999996,9.5324955,-3.4242160000000004,-0.7346963000000001,-0.89030993,-1.1822511
-2.3754694,9.165167,-2.519112,-1.0035294,-0.74019414,-1.4643836000000001
0.6769748999999999,9.823132000000001,-1.0255228,-1.2893795,-0.33349752,-1.9307006999999998
1.1266538000000001,9.890199,-1.093202,-1.5491542999999999,-0.01144936,-2.3150396
-0.049301405,9.724663,-1.950221,-1.7125868999999998,-0.33349752,-2.4614203
-0.89261585,9.392282000000002,-2.7267275,-2.0064304,-1.0441607,-2.4784547999999997
-1.1450508999999998,9.565439,-2.4810442999999998,-2.0356996,-1.8804352,-2.8452357999999998
-0.07281246,10.146436,-1.9020017,-2.0048249,-2.9669201000000003,-2.5385988
-0.55996543,10.494887,-1.7452964,-2.0894732,-1.8218793999999998,-2.8766341
-1.1570028,10.718103,-2.1007588,-1.9356224999999998,-0.15357152,-3.4664507000000007
-0.5751925999999999,11.5513525,-3.5735471,-1.0663438,-0.042324234,-2.5114765
2.6694294999999997,13.044922999999999,-1.0951461,-0.086323984,0.58473766,-2.169706
3.7080152,13.243526000000001,-0.4798459,-0.011798426,-0.8844631,-1.1050552
2.5882277,15.715847,-2.7569423,0.35761797,-1.5589106000000001,1.1961788
-0.044043735,17.380123,-4.9738584,0.9075014000000001,-1.1255977,1.8754259999999998
2.0617332,21.132977,-6.2710557,1.4989237,0.025795966,2.2022564
8.051231,23.190344,-7.3973746,2.0748997,0.75084066,2.6116235
11.047201,20.945261,-10.34954,2.3772607000000003,1.0755417,3.0992333999999997
13.625106,18.50215,-8.439006,2.522053,1.1985176000000002,3.583126
0.1116943,14.734051999999998,-2.273017,2.7408302000000004,1.2783664,4.156431700000001
-2.304534,12.420179,-0.5182585,2.909045,1.459357,4.6722465
-3.4551108,1.6427193,-4.189853,2.983047,1.6541881999999999,5.107705999999999
-15.045383,2.171493,-3.123351,3.0602255,1.5280183999999999,5.457435
-2.5928917,3.190111,-1.586082,3.1518028,1.6174663999999999,5.8274099999999995
4.038942,-0.7399710999999999,0.18395129999999998,3.5191072999999995,1.9549607,5.9530387000000005
2.377471,-1.1924848999999997,1.0247757,3.3817498999999995,2.7550369999999997,5.6751475
0.4507899,0.42906967,-0.3767324,2.843054,2.660283,5.1593328000000005
-0.0967066,1.6169193000000002,-0.7510036,2.495437,2.2322936,3.4612148
0.079420455,2.8319959999999997,-0.43243113,1.4872125,1.1543434,0.96514964
0.30408275,3.4568727,-0.4720407999999999,-0.09004153,0.59273124,-1.3084035
1.0799956,4.7812877,-0.97887415,-1.1467162,-0.24300219,-2.9229379
1.6259407,6.895636,-0.8846575000000001,-1.6119686000000002,-0.86156434,-1.8987436000000002
1.4006081,9.641814,-1.5301533999999999,-1.8605558999999998,0.36863098,-0.6573608
2.3279014,12.9756155,-0.6128199000000001,-1.0146995,0.5671795999999999,-4.7227387
2.556931,18.640411,-0.3110355,-0.2284636,1.345963,-3.828432
-2.1446492999999998,25.675095000000002,-2.3838205,0.5471258000000001,1.127186,-3.809792
-7.133476299999999,24.247135,-2.2927833,-0.5962917,-0.25684264,-2.4002116
-7.567842,24.107485,-0.71025425,-0.6809401999999999,-0.73487085,-1.6325983999999998
-18.295675,22.123697,2.5977087000000005,-0.97637206,-0.73007125,-1.3658947
-28.531328000000002,15.360557,0.85375315,-0.6623175,-1.4284996,-1.0145599
-11.27262,19.694271,-0.44948742,-0.30457740000000005,-0.92224944,-0.86976737
-8.508686,16.747076,-3.1149904999999998,-0.12943362,-0.18018779,-0.983144
25.86345,16.131691,2.2081053,-0.09909979,-0.029007372000000003,-0.79524183
19.749205,14.855131,5.2929673,-0.061837014,-0.12376129599999999,-0.60306364
-6.764568,5.607048000000001,-0.9627754999999999,-0.036808994,-0.16687092,-0.5061804
-10.512939,7.2713537,-3.707268,-0.08684758,-0.5490805999999999,-0.26930429999999994
-15.428341,10.7943735,-5.055596400000001,-0.12465142,-0.86688757,-0.122382484
-3.330794,9.442117999999999,-3.4637108,-0.14966199,-0.6922848,-0.26876324
-2.3648775,9.374305999999999,-0.38163576,-0.19172442,-0.38885936,-0.45881215
-2.0716357,9.794344,-0.742078,-0.27848473,-0.29410544,-0.601999
0.31787340000000003,10.070893,2.4287932,-0.34449309999999994,-0.47083747,-0.6919706999999999
0.100700125,10.009103999999999,-0.18730319,-0.39241982,-0.71198964,-0.76489055
-2.3490182999999996,9.760106,-1.5353249,-0.46801004,-0.5975309,-0.94376934
-1.6386682000000001,9.692418,-1.1629691,-0.5217662000000001,-0.552292,-1.1109195
-1.9364782999999999,9.708038,-1.9480183,-0.57658696,-0.76893973,-1.1417768999999998
-3.0849290000000003,9.334715,-3.5622466,-0.9066287000000001,-0.9616415,-1.187557
-1.3086228000000002,9.405994999999999,-2.3316939999999997,-1.092419,-0.7268773000000001,-1.6427039
0.7401148,9.868487,-1.2974658000000001,-1.3660343000000001,-0.21160372,-2.1425487999999997
0.44431594,9.673743,-1.5948831,-1.5901346,-0.012496557,-2.480043
0.42946229999999996,9.645434,-2.3629048,-1.8105172999999999,-0.49745375,-2.5934372000000003
-0.9528539,9.637936,-2.4478605,-2.0277061,-1.3076531,-2.6897792999999997
-0.62150604,9.522689,-1.9544921999999998,-2.0585983,-2.5059264,-3.0278146
0.50597143,10.060473,-1.5667752000000001,-1.9840554,-3.241059,-2.4321337000000005
-1.0087059999999999,10.791462,-2.075093,-2.2156257999999998,-1.109628,-3.1891005
-1.2122226999999999,10.969667,-2.8683205000000003,-1.6896881999999998,-0.34679693,-3.2098699
1.1118481000000002,12.572758,-2.099964,-0.74799573,-0.017819813,-2.3309919999999997
3.4940596,12.975912,-2.322117,-0.008604473,0.09021607,-2.2468846
3.6994917000000003,13.652122,-0.9088294,0.09145525,-1.0973758,-0.38906878
1.0843052,15.796961999999999,-4.121388,0.5338264,-1.5525228000000002,1.4485011
0.12463256,17.69337,-5.766272,1.1193669,-0.83281875,1.8631738000000002
4.0402346,23.188543,-7.030726400000001,1.7677393,0.2717303,2.2805169999999997
8.792907000000001,23.304663,-7.858268300000001,2.2393970000000003,0.82643086,2.7351229999999997
11.30429,20.399538,-10.403055,2.439534,1.0340203000000001,3.2834182000000003
10.013967999999998,17.901714000000002,-5.4763627,2.5774150000000002,1.0547898,3.8279958
-2.4360237000000002,12.801222000000001,-1.549556,2.778634,1.2107698,4.3411574
-0.28927705,11.079379,0.0072783735,2.9420667000000003,1.547723,4.8197093
-4.2963185,0.09288545,-3.4886966,3.0511847000000003,1.6478002,5.2892203
-13.929848999999999,2.5976992,-2.9753222000000004,3.138486,1.4854497,5.7086926
0.19540517,2.0984507000000003,-0.35783738,3.1273158,1.6568585999999998,5.931222
4.368901,-1.1575966,1.0814896999999999,3.3487632000000005,2.3126832999999998,5.980179
1.5861969,-0.73805577,0.96010363,3.1166694,3.244253,5.5516653
0.35336503,0.61822116,-0.4137755,2.5869967999999997,3.1234064,4.822903
-0.16281529,1.9394566999999998,-0.29080933,2.2984765,2.3520756,2.774515
0.25970384,2.877754,0.23704512,1.1635586000000002,1.2693256000000002,0.45305258
0.93613285,3.7058410000000004,0.01899081,-0.46160468,0.301558,-1.5532732
1.3556545,5.069885,-0.1825052,-1.180244,-0.5469513,-3.0043924
1.8038011999999999,7.1937523,-0.695937,-1.6337852,-1.6334187,-0.6908886
3.0016967999999995,10.686786999999999,-1.3479068,-1.6620072,-0.21690951,-1.2988217
4.403703,14.908694,-0.42491332,-0.82306236,0.66779786,-5.2348356
3.167452,21.97362,0.61394036,-0.110269904,0.71410143,-3.767206
-2.7786052000000003,26.447826,-2.1552412999999997,0.4837878,0.66566855,-3.0980642000000005
-7.687216800000001,23.290354,-2.3589685,-0.55103534,-0.18284069,-2.2255914
-9.232807000000001,23.006882,0.32242236,-0.6803992,-1.1490201,-1.4377499
-22.395842000000002,20.598734,1.6344545,-0.626102,-1.0191325999999998,-1.2743347
-26.026352,15.208343,0.36161065,-0.54838246,-1.0500076,-1.1252836000000002
-13.129045499999998,17.105728,-0.19313547,-0.28700194,-0.55600953,-0.92830575
-7.378106,15.8117,-4.8388349999999996,-0.2311165,-0.27865925,-0.8127998000000001
34.674084,16.797642,2.0831664,-0.1688257,-0.04923574,-0.63287383
12.416846000000001,15.283616,5.591907,-0.10548769999999999,-0.10459758,-0.51682687
-11.525553,4.50244,-1.1929254999999999,-0.11506956,-0.23554963,-0.3928038
-9.328854,5.6467824,-2.554163,-0.1619142,-0.6395759,-0.17133898
-13.383807000000001,12.360957,-8.05874,-0.19172442,-0.87166977,-0.12184144
-3.6306536,10.029695,-0.7756447,-0.21034709,-0.7928856,-0.25972244
-0.01616565,9.949163,-0.16758455,-0.24815091,-0.6113714,-0.43751913
-0.76784927,9.809101,-1.4836198,-0.31468287,-0.59273124,-0.5253441
-1.1324191000000001,9.974149,0.6620159000000001,-0.37484437,-0.62573546,-0.6275506
-1.224299,9.680811,-0.8744295,-0.44565237,-0.82643086,-0.7233691999999999
-1.5086535,9.954851,-1.1293737,-0.510055,-0.6773796999999999,-0.8851960999999999
-1.365145,9.831732,-1.0894288,-0.5723284000000001,-0.4878719,-1.0246654
-1.9959788,9.757234,-2.636859,-0.5829923,-0.75722855,-1.0124305
-2.392861,9.440241,-3.091173,-0.8640426999999999,-0.8817927,-1.0922618999999998
-0.6171677,9.596860000000001,-2.1140895,-1.0588738000000002,-0.55600953,-1.5894713
0.58556426,9.712223,-1.5302875,-1.2867091,0.02953097,-2.1143441000000003
0.46034753,9.446314,-1.8205318,-1.5491542999999999,0.17592919,-2.446498
-0.11224017,9.603632000000001,-1.8114816999999999,-1.8014765,-0.29143506,-2.6099305
-0.47862008,9.284235,-2.4720897999999996,-1.9963076000000002,-1.1011108,-2.8063672000000004
-0.40085640000000006,9.385252000000001,-2.4859092,-2.1293889999999998,-2.2322936,-2.8313777
0.7295037,9.754189,-2.087964,-1.9537215,-2.6198266,-2.7611107999999995
-0.8077079,10.778601,-1.9710026000000003,-2.1905975,-0.2020044,-3.6224133999999997
-1.6712677,11.385014,-2.7033985,-1.7008581999999999,-0.15622441,-3.4307763999999996
2.1654022,12.642783,0.17127160000000002,-0.9396329,-0.08808677,-2.3171515
4.791343,12.857553,-1.367884,-0.2923252,0.17805849,-2.1393547
4.2915779999999994,13.924532999999998,-0.12122322,-0.17681931,-0.84772384,-0.5876349000000001
1.9760974999999998,15.666879999999999,-3.4527454,0.22134265,-1.2219399,1.29945
0.8770534999999999,17.915207000000002,-5.5676875,0.6551965999999999,-0.6081774,1.9611392
4.599319,21.873093,-6.9537580000000005,1.2503364,0.26481882,2.4375617999999997
11.243094000000001,22.096691,-9.1676855,1.8625107,0.88498664,2.944859
13.271653,19.951199,-10.216384,2.156878,1.2272631999999999,3.4526974999999998
7.971447,19.167355,-6.0840879999999995,2.3192458,1.3885665,3.9616182
-3.971904,13.500808,-3.3373256000000002,2.4959778999999997,1.4891671999999998,4.5327945
-0.28472805,12.534067,-1.0075854,2.6737745,1.6291776000000002,5.047021
-4.1316357,-0.08341399,-4.501118,2.7935564999999998,1.7542828000000001,5.4537177
-11.12894,3.5216025999999996,-2.8966775,2.9202325,1.8287909,5.8114405
-0.18177737,2.7396755,-1.7489546999999999,3.2295222000000003,2.1199814999999997,6.1063485
3.3483197999999996,-0.81462234,0.14193785,3.5435943999999995,2.8391445,6.1398934999999994
1.3601651000000001,-0.90119666,1.3811575,3.1470032000000003,3.0174822999999997,5.8582849999999995
0.07499597,0.27045858,-0.16422309,2.6578047000000002,2.5580943,4.7803345
-0.3930034,1.1917186000000002,-0.7330854,2.2559077999999997,1.4897083,2.574378
-0.11476845,2.3092363,-0.6340515999999999,0.91230106,0.36756635,-0.27728045
0.39371209999999995,3.4567866,-0.7517889,-0.46001643,-1.8101683000000002,-1.880121
1.1504714,4.8291144,-1.0551535,-1.4016913,-1.3976073,-3.5180776
1.6554276,7.0096,-1.4525048,-1.8493857,-0.45006806,-0.005794493
1.7709526000000002,10.127626,-1.2979542,-1.3670989,-0.25258404,-2.0643055
2.3093703,13.818068499999999,-0.04390966,-0.7394785,1.7931339,-4.8467617
1.4390302,21.642357,-1.8944839,0.64242077,2.2535865000000004,-3.7911692
-3.6702154,26.0943,-4.7492532999999995,-0.025097834,2.0986886,-4.164844
-6.973141,26.911938,-5.470808,-0.41582468,-0.5490805999999999,-2.114868
-14.623689,26.04857,-3.1054997,-1.0631324,-1.1442204,-1.5468678
-28.35343,18.087372,2.25009,-0.8858768,-1.7856811999999997,-1.047023
-25.648355,16.152855,0.39458358,-0.39240238,-1.1170806,-0.8080176
-6.918505000000001,17.482798000000003,2.7609167,-0.15337953,-0.37128390000000006,-1.1002556000000001
-0.668758,16.695688,-3.0347272999999997,-0.15711454,-0.034330625,-1.0406351
42.219383,13.783782999999998,11.765491,-0.111334555,-0.022619467,-0.88945466
10.832335,12.318274,3.4114212999999998,-0.07991862,-0.062535144,-0.7568969
-6.950291,3.6417148,-2.5340328,-0.10068805,-0.49958304,-0.42791983
-21.488344,11.028881,-11.122914999999999,-0.12091641,-1.0617187,-0.1425934
-13.575726500000002,9.623322,-0.51117164,-0.13475688,-0.9552536,-0.22033036
-1.9214426,9.340221000000001,-4.340324,-0.1714786,-0.50436527,-0.4438896
-4.106975,9.453265,0.32182857,-0.19970058,-0.5075592000000001,-0.54557246
0.35772246,10.261741,4.3367133,-0.27103218,-0.5017123,-0.6227684
2.134814,10.170253,-0.66483146,-0.3359759,-0.8109847,-0.6717423
-1.8859221999999998,9.564109,-0.9004018,-0.4349884,-0.7763923,-0.81545275
-1.764268,9.614865,-1.2461053,-0.4802448,-0.6129595999999999,-0.99911374
-2.155021,9.741632000000001,-2.102042,-0.64100707,-0.63212335,-0.9969844000000001
-4.1694260000000005,9.280414,-3.5600343,-0.7554483000000001,-0.71410143,-1.2040677
-2.8229747000000005,9.323404,-2.4382837000000004,-0.94547975,-0.60870105,-1.6139408000000002
0.22956565,9.792753999999999,-1.1171249,-1.1893022,-0.37128390000000006,-2.0233078
0.74182904,9.956842,-1.1265006000000002,-1.4863224,-0.024731316,-2.4145583999999998
-0.86736184,10.025202,-2.354276,-1.6721127,-0.21371557,-2.6450639
-1.3002238000000002,9.414547,-2.791007,-1.9760792,-1.0047511,-2.5609565
-1.4619474,9.131523,-2.0233016,-1.9633034,-2.2844615000000004,-2.7829450000000002
0.06612785,9.723016000000001,-1.4646481000000002,-1.8664201,-3.44706,-2.465138
-0.76440156,10.497195,-2.0998871,-2.1001024,-1.4742621,-3.0219502
-0.3032017,11.821821,-0.4065546,-1.7093755000000002,-0.21371557,-3.3823432999999996
1.3903608,11.974916,-2.4047457999999997,-0.85020226,-0.3446676,-2.4204226
2.666863,12.76709,-1.9897541,0.009477138000000001,-0.27600637,-2.0855987000000002
3.6279527999999996,13.578101,-0.5677418000000001,0.14309955,-1.6110785,-0.6429967
2.1993327000000003,14.73996,-3.0166174999999997,0.5689599,-2.0438504,1.342036
0.5709884,17.221435999999997,-5.322588,1.0294126000000001,-1.3395926,1.8322990000000001
1.4313973999999998,22.420033,-6.892782,1.6495805000000001,-0.12534955,2.1330717
7.788798,23.981904999999998,-8.467303999999999,2.253761,0.697067,2.5674490000000003
11.300286999999999,20.62646,-10.3662615,2.5066245,1.1229448,3.0806107999999996
11.613842,18.83351,-5.707298000000001,2.641294,1.3108468999999998,3.571415
-1.2710242,14.008014999999999,-1.4671477,2.8244314,1.4854497,4.1633606
-2.2204113,12.593664,-0.36751953,2.9367433,1.6744165000000002,4.7196492999999995
-3.9605842000000004,0.6477369000000001,-3.8538125,2.9292908,1.7287138,5.1066413
-13.604601,2.2571769,-3.0856185000000003,2.9942346,1.8346552,5.3967675999999996
-0.39451656,2.6553326,-1.4090452,3.3083065,1.8532953,5.653872
5.188331,-0.46688850000000004,0.44261128,3.5606287000000005,2.1806667,5.8018584
2.3171659,-0.46635216,1.704777,3.249227,2.4393768,5.7614017
0.56008995,0.54175997,0.17983328,2.9404783,2.0470617,5.2168417
0.046983816,1.3625498,-0.40832633,2.6279945,1.2874246999999999,3.4149112999999995
-0.16969144,2.5876436000000003,-0.21735520000000003,1.3929996,0.46764353,0.9635439
0.38790858,3.2752103999999997,-0.6575436,-0.10175269999999999,-0.15835372,-1.3381963
1.499814,4.893758,-1.6117383,-1.2749979999999999,-0.5432163000000001,-3.0954113
1.6772723000000003,7.469075999999999,-1.9930293999999997,-1.5438136,-0.65341634,-1.7086948
1.4631253,10.308016,-0.8122569000000001,-1.8408511000000003,0.62042964,-0.7856425
1.0771608,13.610079,-0.5307083,-1.0471627000000001,1.2246101999999999,-4.738691
-0.043651085,19.621920000000003,-2.0659664,-0.14433873,1.8298556000000001,-3.5303123
-4.5344553,23.67447,-3.790165,0.59983474,1.7995217000000001,-4.1935897
-7.388774400000001,23.479391,-2.6548439999999998,-0.6798581,-0.37234855,-2.267113
-8.647646,24.880878,-1.4873451000000002,-0.60479146,-1.1090868999999999,-1.4718187
-19.780972,22.137152,3.0681026,-0.95186764,-1.300724,-1.1710461
-26.764532,14.782251,2.329405,-0.6362074000000001,-1.6722872,-0.82344633
-9.032106,19.359697,0.7485807,-0.24548055,-0.6464873999999999,-0.81173515
-7.031627,15.703904000000001,-2.4991636,-0.17201965,-0.17538814,-0.97623247
33.65443,15.871507999999999,7.420292,-0.14114478,-0.072117,-0.7941597
16.878748,13.257634,4.519487000000001,-0.091106184,-0.16847663,-0.6392616999999999
-7.062837599999999,4.3127427,-0.68002033,-0.12037536,-0.2605602,-0.48008773
-12.329718,10.569778,-6.432837,-0.19544198,-0.78543305,-0.15323989999999998
-18.187246,9.647647000000001,-2.6436486,-0.22738150000000001,-1.0217855,-0.020176006
-3.2510195,9.09993,-5.903881500000001,-0.25612706,-0.6981316999999999,-0.1968906
-2.8139052,9.3044615,-0.41870758,-0.27474973,-0.27014205,-0.39330995
-1.3509618,9.840667,-0.48985368,-0.30775392,-0.23926719,-0.48914596
1.5728086000000001,10.111576,2.3641113999999996,-0.37484437,-0.49265410000000004,-0.54557246
0.025905262999999998,9.9058275,-1.5020839,-0.43392375,-0.7380648,-0.6376735
-2.2163699,9.540903,-1.374492,-0.50525534,-0.5336344,-0.9389521999999999
-1.7159626000000001,9.576414,-1.6297044,-0.5701991,-0.5049063,-1.2312076
-2.404995,9.744017999999999,-3.1865005,-0.6942396,-0.66247463,-1.4185861000000002
-3.5232785000000004,9.194596,-4.1165423,-1.0657853000000002,-0.8322777,-1.4664954
-1.2022532,9.347777,-2.0584580000000003,-1.201537,-0.700261,-1.7614037
0.8804915999999999,9.772768,-0.9589832,-1.4203141000000001,-0.21104520000000002,-2.1579772999999998
0.6471526999999999,9.539467,-1.2366244,-1.6061044,-0.017819813,-2.4087113999999996
-0.6898653,9.727383,-2.5059822,-1.8467155,-0.5554685,-2.510918
-0.80882835,9.240871,-3.1911259999999997,-2.024512,-1.2384508,-2.6413465
-0.16418476,9.356626,-1.7754346999999997,-2.0080013,-2.6586776000000003,-2.6892383
1.4949874,10.491622,-1.0626903,-1.8626851999999998,-3.008424,-2.4869545
0.5111525,10.551275,-2.10639,-2.043676,-0.3127281,-3.5468233000000002
0.0054492030000000006,10.904976,-3.255578,-1.4751523000000002,-0.5011713,-2.9687178
0.46793234,13.019046000000001,-2.4839652,-0.49780280000000005,-0.26747170000000003,-1.875845
2.7860847,13.677423000000001,-1.8312099999999998,0.12500048,-0.21371557,-1.9684696
3.4022562999999995,14.852573999999999,-1.299228,0.30279717,-1.1325091999999999,0.26248008
0.65195066,15.771718,-3.6510712999999995,0.7808254,-1.148479,1.7583145
1.3595523,18.348663000000002,-5.651609,1.2636533,-0.39364156,2.111255
5.6881347,23.493048,-7.8293365999999995,1.9173488999999997,0.42772785,2.631328
10.274688000000001,22.606512,-8.875153,2.359179,0.86849326,3.1306493
14.291410999999998,19.937399,-10.367018,2.5092947,1.0037040000000002,3.6826797
6.0830917,17.243327999999998,-3.057884,2.6338415,0.9557771999999999,4.222981
-6.2408605,11.579355,-3.9233303,2.8568945,1.0803587,4.792569
0.7480730999999999,8.568445,0.7648325,3.0277622,1.3486334,5.218971
-7.0742726,-1.677914,-3.0390656000000003,3.16032,1.6227896000000002,5.550077
-10.039386,3.2946036,-4.2044096,3.33227,1.9858357,5.8061169999999995
3.101899,0.82995486,-1.6026307,3.5281656000000003,2.7443907000000003,5.9572973
4.729037,-1.4020348999999999,-0.10441592,3.4408642999999994,3.5322497000000004,5.7656602999999995
1.4782089,-0.27444255,-0.19374838,3.1773542999999997,3.6951413,5.0326567
0.30635247,1.1292875,-1.579091,2.651417,3.0930724,3.2451081000000004
-0.29360574,3.0953772,-1.1587361999999999,1.3264676000000002,1.5919148,0.5398303000000001
0.15045163,4.2789655,-0.3148758,-0.14966199,0.006126106,-1.8045133000000002
1.3075694,5.01365,-0.66166157,-0.9412212,-1.5072663,-2.8159316000000003
2.5430732000000003,6.951881,-1.1910100000000001,-1.2542285,-1.3353165,-2.3496146
2.5993752,9.966746,-1.1279947,-2.0553696,0.16847663,0.33009413
2.9618192000000003,13.646566,-0.8100542,-1.1711857,-0.23766148,-3.8864467000000005
3.1243662999999997,18.56755,-0.95830315,-0.5047143,1.533359,-5.036793
0.78525984,24.46379,-1.8173236000000001,0.6312506999999999,2.0012817,-4.1579328
-4.5371747000000004,25.012646,-3.3635468,-0.72511446,0.22064452,-3.0395257
-8.279734,25.88225,-4.6101503,-0.50523794,-0.54588664,-1.8806272000000002
-20.424063,21.444223,1.134526,-1.0412984,-0.86634654,-1.512799
-33.78391,13.209442000000001,0.6766876000000001,-0.6330135,-1.5051371,-1.0214714
-15.476531,19.059416,-0.4519295,-0.26462683,-1.1708367,-0.80426514
-10.889413000000001,14.43765,-1.7833546000000002,-0.050649453,-0.32230994,-0.9048834000000001
15.760742,14.639413000000001,-1.1171058,-0.03361504,-0.039636426,-0.8372868
40.478943,19.137611,6.01547,-0.0011519173,-0.01569051,-0.6552315
-1.2023202,8.060683000000001,1.8989947,0.010018189,-0.16154768,-0.53332025
-12.687278,5.307686299999999,-4.88013,-0.050649453,-0.6007074,-0.31560788
-19.103039000000003,10.407767,-1.2669443999999999,-0.08578293,-0.9919753000000001,-0.15271631
-6.5261054000000005,9.097354,-4.0448889999999995,-0.11398745,-0.80405575,-0.32784265
-3.0671637,9.082271,0.080090836,-0.16561429,-0.6060307,-0.5562015
-3.399096,9.920547000000001,-0.07610688,-0.26677358,-0.34732053,-0.81173515
0.12231498,9.774175,1.8409783,-0.35192817,-0.52352893,-0.91073024
0.41978976,9.990219,0.49338752,-0.43338272,-0.7322005,-0.9948551
-1.8365538000000001,9.702781,-1.1611878999999998,-0.49727920000000003,-0.77852154,-1.1167489
-1.9125553,9.791509,-1.3948236,-0.548906,-0.93396056,-1.0938676999999999
-2.0056515,9.827173,-2.2415185,-0.70061004,-0.8950921000000001,-1.223214
-3.3332362,9.443383,-3.422157,-0.90024084,-0.6182829000000001,-1.6213933999999999
-1.6809020000000001,9.262821,-2.495773,-1.1786557,-0.20467477,-2.0403423
1.036584,9.766552,-1.6535026999999998,-1.4735639999999999,-0.019425515,-2.4885602000000002
0.124335684,9.875067,-1.5331318,-1.6832827000000001,-0.41119957,-2.713725
0.04944505,9.784758,-2.2488544,-1.9840554,-1.3486334,-2.6945615000000003
-0.7102352,9.629325999999999,-2.6406702999999996,-2.0399408,-2.642184,-2.8627762999999997
-0.8408245000000001,10.006383999999999,-2.7602463,-1.9680856,-3.5258442999999997,-2.4709847000000003
-1.3409925,10.448392,-2.231961,-2.2134788,-1.2677199,-3.2742727000000005
-2.0282240000000002,11.052861,-2.3872106,-1.603434,-0.2020044,-3.6027086
0.6013085,12.11353,-0.6319256,-0.61810833,-0.20998056,-2.4869545
3.2793572,12.631041999999999,-1.2428492,0.17184512,-0.58899623,-2.3528085
2.4060577999999997,13.227533,-1.310519,0.36295867,-1.7542653000000001,-0.2075371
2.0923598,15.433292000000002,-3.9785407,0.92561793,-2.0060465,1.7327629
0.3688411,17.650236,-6.154324,1.4574198,-1.0952464,2.0191538
2.1407132,22.955664000000002,-7.595662,2.1478372,0.11152654,2.439691
8.529515,24.922068,-8.309288,2.6466347999999997,0.5368458,2.922519
13.263876999999999,21.954716,-11.196982,2.8398602000000004,0.640658,3.4787903
12.97144,19.195013,-4.601886,3.0442731,0.71996576,3.9674650000000002
-1.5802498,12.826773,-1.2508458999999998,3.2540092,0.93396056,4.5083075
-2.1782446,11.156405,0.31206024,3.347175,1.0840763999999998,4.9911356
-5.8243074,-0.44308054,-3.6612419999999997,3.3312051,1.1410438999999999,5.327041599999999
-12.694221,2.5913209999999998,-3.6855192000000003,3.3604742999999995,1.5078074,5.5926633
2.2313576,1.3711401,-0.642642,3.4892972,1.7979334999999999,5.709775
5.94034,-0.9004496999999999,0.74352413,3.5068726999999997,2.5719173,5.821022
1.7208085,-0.20674410000000001,1.4576283,2.8387954,2.8125457999999997,5.759272599999999
0.38157827,1.2351208,0.20812316,2.5939257000000002,2.6948931000000003,4.8628364
0.45209232,2.4640932,0.52644664,2.1419902000000004,1.5264475,2.5163634
1.0192404,3.099725,1.0008146999999998,0.5673716,0.50384164,-0.45027748
1.7758369999999999,4.498006,-0.007814675,-0.75171334,-0.8407949,-2.0286310000000003
2.2276707,6.577159399999999,-0.90723,-1.1759853,-0.59644884,-3.0400492999999997
2.694722,9.178239,-1.2987011999999998,-1.5347728,-1.0404083,-0.9277820999999999
3.591906,12.693205,0.09486785,-1.8413921999999998,0.7103839,-1.0251889
3.2869230000000003,15.873031,0.24077049,-1.081755,0.93450165,-4.873901999999999
1.0271603999999999,22.88468,-0.21357237,-0.15392059,1.4508573,-4.132381
-3.3873262000000004,25.588041,-2.1130075,-0.007522369300000001,0.9925164000000001,-3.9242332
-5.4276457,22.780657,-0.99236786,-0.57339305,-0.65181065,-2.2133392999999995
-10.804841,23.57763,0.004424485,-0.66441196,-0.97387624,-1.541021
-25.367466,19.7873,3.3134413,-0.78525853,-0.9600358,-1.2988042
-20.512332999999998,15.346201,2.1268458,-0.57604593,-1.3369222,-0.9224589
-11.404061,18.944868,-0.7608581999999999,-0.18638371,-0.76839864,-0.73028064
-7.571280000000001,13.032186,-5.8458457,-0.09056514,-0.26481882,-0.7627438
30.9608,14.278224,3.8930773999999997,-0.07087782,-0.1823171,-0.5748416000000001
19.205378,17.011282,3.4353826,-0.010733775,-0.22596778,-0.44230133
-8.594839,5.6681576,-1.7172077000000001,-0.03148574,-0.19029325,-0.41887903
-15.062038000000001,11.709217,-3.3657593999999995,-0.13529792,-0.55281556,-0.24694663
-15.551135,9.17708,-2.143883,-0.19170697,-0.89668036,-0.104265966
-2.38519,9.53712,-3.2091974999999997,-0.21354103,-0.7694633000000001,-0.22617722
-1.8738267,9.133621,-0.94183105,-0.27103218,-0.42291072,-0.46837655
-2.7270055,9.878611,0.14242627,-0.33491123,-0.36329028,-0.6067812
0.24228363,10.089654,1.3832643999999998,-0.40304887,-0.50597095,-0.7372095999999999
-0.6817920999999999,9.959247,-0.8091636,-0.47171015,-0.6512871,-0.8330281999999999
-2.0738573000000002,9.673397999999999,-1.5587306,-0.53400093,-0.54215163,-1.0001783000000002
-0.98710066,9.671369,-1.3642353,-0.545171,-0.4947834,-1.0965205
-1.1527123,9.7818365,-3.034641,-0.57339305,-0.7540170999999999,-1.1178136
-2.6497877,9.262783,-3.9495709999999997,-0.75225437,-0.9781349,-1.3344787
-1.3971986,9.237461999999999,-2.6691136,-1.0860136999999999,-0.788086,-1.6517447
0.7272053,9.532217,-1.3550128000000001,-1.3521763999999998,-0.28663543,-2.094622
0.80872303,9.715125,-1.4197712,-1.5592597,-0.06679375,-2.4182932
-0.07487147,9.847016,-2.5554562,-1.7583494,-0.4905248,-2.5061183
-0.29980195,9.3245535,-2.474781,-2.0074604,-1.2001058,-2.6024604
-0.41838196,9.186378999999999,-1.761941,-2.005331,-2.2775326000000002,-2.8877869
0.16930836,10.145746,-1.6213821000000002,-1.9089886999999999,-3.1856797,-2.5178293999999997
-1.1931072,10.871466999999999,-1.5355835,-2.1165957000000004,-1.3443748,-3.1475792
-1.2012093000000001,10.946060000000001,-2.7364097000000003,-1.7077871999999998,-0.3728896,-3.5021079
0.5383123000000001,11.54577,-4.346769,-0.9130166,-0.3324154,-2.3948709999999997
3.8181388,13.520764999999999,0.049521666,-0.055431657,-0.015149458000000001,-2.0717406000000005
3.5657419999999997,13.981304999999999,-0.50477433,0.0094945915,-1.3438337,-0.6972765000000001
1.3812149999999999,15.788401,-3.8525004000000003,0.37946948,-1.6105374,1.296797
0.18235198,17.654871,-5.2614884,0.92402965,-0.85250604,1.7710903000000002
3.5335638999999994,22.638481,-6.4411016,1.5915656999999999,0.17114699,2.1517117000000003
8.971859,22.960345999999998,-8.010577,2.1398609,0.85304713,2.6403863
12.071546000000001,20.546225,-11.069467,2.4060237,1.2778428,3.1828172
12.359607,18.713856,-7.0864344,2.5497514999999997,1.3433275,3.6981084
-2.0841432,13.850724,-1.5549191,2.7509706,1.3316164,4.287401
-2.0714345,11.66207,-0.028203696,2.9266205000000003,1.4976844999999999,4.836761
-5.5735483,0.23683442,-3.9697492,2.9979694,1.5983027,5.2652745
-13.356351,2.8649497000000004,-3.4131453,3.0783419999999997,1.5791389999999998,5.660801
0.14267527,2.2430222,-0.88003194,3.2252638,1.8085798999999998,5.9855194
4.1596,-1.1459511999999998,0.9065597,3.5457410000000005,2.439918,6.0531334999999995
1.30597,-0.87045515,1.278609,3.3844377999999997,3.5530016000000004,5.6272554
0.25458026,0.22620417,-0.5795979,2.9335668,3.3395479,4.9703836
0.25197536,1.2772108,-0.55600065,2.5800853,2.3776271,3.1849465
0.08088571,2.8660316000000003,-0.14819151,1.2162676000000001,0.64278734,0.4088783
0.22751620000000003,3.6086267999999997,-0.28947815,-0.50525534,-0.77691585,-1.6666498
1.1738771000000001,5.1195025,-0.7380079,-1.1153003000000001,-1.3374458999999999,-2.9101619999999997
1.4712657,7.2099853000000005,-1.1873325000000001,-1.5214558999999999,-1.1186688,-1.5239866000000002
1.7007164000000001,10.148744,-1.159598,-1.9387990000000002,0.48096037,-0.63339746
3.418872,13.471503,-0.37605247,-1.0684557,0.45964992,-4.9915543
4.299067,19.597538,-0.12849201,-0.08791223,1.7691879000000001,-3.9119985
-0.471629,26.973278000000004,-3.0396307,0.10372492,1.6552702000000001,-4.232982
-8.497061,24.66091,-4.118238,-0.5068436,-0.3691546,-2.3048992000000004
-10.643117,24.239004,-1.5303067,-0.7309613,-0.8120493000000001,-1.5851953
-20.91065,20.5839,0.44405738,-0.80707514,-1.1032226,-1.2461127
-30.897709000000003,13.882567000000002,-0.38485354,-0.44776422,-1.4694625,-0.86922634
-10.771676,19.705631,-1.0391123,-0.14540339,-0.809379,-0.7792545999999999
-10.488662,15.782520000000002,-4.350628400000001,-0.04852015,-0.23394394,-0.83035785
28.578129999999998,14.895124,5.4489730000000005,0.0063006384,-0.09128072,-0.65203756
24.563274,17.12312,5.0648956,0.053668875,-0.09128072,-0.50830966
-7.2895494,4.1350927,-0.8489169,0.040369466,-0.15303047,-0.38266343
-14.943773,10.407882,-5.4166612999999995,-0.04691445,-0.60657173,-0.13674654
-16.603262,9.268289999999999,-1.0766149999999999,-0.091106184,-0.9850464,0.0085695665
-3.4393091,9.397960000000001,-4.581611,-0.12623966,-0.83760095,-0.15803957
-2.610245,9.187385,0.3429359,-0.18373081,-0.54428095,-0.41674972
-1.8419935,9.893799000000001,0.33076376,-0.27262044,-0.57782614,-0.55674255
0.5558569999999999,10.057754,1.047674,-0.35885715,-0.5602507,-0.7297395999999999
-0.7037420999999999,9.823831,-0.56687033,-0.43285909999999994,-0.79714423,-0.8026769
-1.7674859,9.586192,-1.3713413,-0.4871563,-0.7204894000000001,-0.9495986999999999
-1.8122383000000002,9.621569000000001,-1.3433291,-0.5190784,-0.60870105,-1.0427469
-1.9332029999999998,9.725094,-2.9246228,-0.5318715999999999,-0.880187,-0.99750805
-3.196489,9.1932745,-4.0318356,-0.8097455,-1.0521194,-1.0880034
-1.268764,9.516224000000001,-2.3958201,-1.0104234,-0.7407176999999999,-1.4872475
1.0079685,9.778179,-1.4616985,-1.2323945,-0.18442895,-2.0222256
1.0560726999999999,9.700559,-1.8875408,-1.4948395,-0.06518805,-2.312893
0.49352157,10.081629,-2.153479,-1.698188,-0.6464873999999999,-2.448086
-0.28809908,9.28073,-2.552085,-2.0143893,-1.3342519,-2.6259002999999996
-0.8989556999999999,9.255869,-2.1711388,-2.1495998,-2.2296232999999996,-2.4486272000000002
0.25747246,9.757492,-2.0749302,-2.0942380000000003,-2.5969276000000003,-2.5125062000000002
-1.3546776000000003,10.613783,-1.8659546000000002,-2.1842097999999996,-0.25045475,-3.4834678
-2.2256403,10.926160000000001,-3.4735367,-1.7269335,0.46711993,-3.894964
0.7152438,11.96236,-2.1847186,-1.2403879999999998,0.22329742,-2.4326572
4.780876,13.067965,-2.1799880000000003,-0.28220227,0.59435445,-2.0877103999999997
3.5512044,13.3060055,-0.77140224,-0.26145032,-0.25576055,-1.2045914
0.95780516,15.096810999999999,-3.0134764,-0.0038048178,-0.88551027,1.3308659
-0.18320431,17.412032999999997,-5.246203400000001,0.3278252,-0.7843684,2.1671405
3.9350620000000003,21.651445000000002,-6.0931573,0.79414225,-0.09341002,2.726082
10.24047,22.91408,-7.958690600000001,1.4579433000000002,0.51822317,3.2285974
14.989656,21.5133,-9.083169999999999,1.8502758999999998,0.9350252,3.7577288
13.548432,20.174252,-5.614863,2.003062,1.0755591,4.3214703000000005
-1.3875932,14.378282999999998,-4.704214,2.200005,1.0979168,4.855384
-2.3903133999999997,13.347492,-3.0420055,2.4390278,1.268261,5.2881730000000005
-1.7418103999999999,1.4530123,-4.3399982,2.6482229999999998,1.5259063999999998,5.5122733
-14.705789999999999,0.9358264000000001,-3.3702507000000006,3.0421612000000002,1.8623362,5.654954
-2.8862581,2.9125175,-3.2231224,3.4994199999999998,1.9751891,5.751296
3.1781495,-0.4931481,-0.7921168000000001,3.7437660000000004,2.4894154,5.7225504
1.6593733,-1.1889797,0.9978745000000001,3.2348630000000003,2.3254592,5.6320553
0.05442499,-0.045221683,-0.025244462999999998,2.8803343999999997,1.7372484000000001,4.9576077000000005
-0.8201769,1.0144137,-0.8735676,2.3266982999999994,0.45327947,3.1120267000000004
-0.4615542,2.8685985,-1.0543299,1.0310358,-0.47986080000000003,0.85231405
0.53412724,3.7692587,-1.3533369,-0.110269904,-1.1005697,-1.4361441000000001
1.6674848999999998,5.2625127,-2.2326124,-1.1121063,-1.0148565999999999,-3.0395083
1.63863,7.650796000000001,-1.9390831000000002,-1.6066280000000002,-0.35796702,-1.6362985
1.3008368000000001,11.0748205,-0.9817471999999999,-1.6082337,0.50436527,-0.9863379000000001
0.12510183,14.690907999999999,-2.0589561,-1.0610031,1.2123754999999998,-4.843568
-2.1665707000000003,20.96481,-5.000788,0.21390755,2.1971776000000003,-3.9226449
-7.123612,21.682254999999998,-4.8694615,0.4124562,2.8854656000000003,-4.3085723
-8.23864,23.83607,-3.3646197,-0.6239551999999999,0.07585201,-2.4933424
-12.213177,24.66408,-3.4932072,-1.1110243,-0.9099972,-1.6842078
-20.284338,20.066426999999997,1.66533,-1.1227528999999998,-1.7233904999999998,-1.0448937
-21.237125,14.078606,2.9315085,-0.7793941999999999,-1.6791987000000002,-0.6158394
-8.884586,20.485403,1.4638532,-0.12676327,-0.6129595999999999,-0.8788082
-5.8465447,16.137217,0.1973301,-0.09482374,0.0652055,-1.0518053
31.162365,13.616218,8.540011,-0.0479791,0.14824827,-0.87720245
20.508492,17.560291,4.862537400000001,-0.044244096,0.047647487,-0.7345393
-7.506627000000001,4.9212527,-1.9409602,-0.13315117,-0.25310764,-0.5290617
-14.077101999999998,8.79987,-12.091341,-0.21725859,-0.96375334,-0.17079791
-16.724638,8.880506,-1.6070552,-0.21619393,-0.97439986,-0.20114920000000003
-5.3152905,9.585694,-5.6409593000000005,-0.2209936,-0.5096885,-0.53012633
-5.340946700000001,9.378672,0.36072958,-0.25239205,-0.16526523,-0.7728666999999999
-1.0455959000000001,9.982385,2.7797449,-0.32532936,-0.2845061,-0.80854124
3.5312845999999998,10.128172,2.9153237,-0.37322122,-0.64383453,-0.80480623
-0.46633303,9.765691,-0.8445882,-0.44615853,-0.7577347,-0.87720245
-1.7691810000000001,9.485233000000001,-1.6647555,-0.49726176,-0.5975135,-1.043288
-1.5584433000000002,9.781941999999999,-2.1094832,-0.47703338,-0.66086894,-1.0821565
-3.523307,9.416089,-3.847693,-0.7123212,-0.9430014000000001,-1.0672513000000001
-3.1488445,9.114582,-3.4691693999999997,-0.9124755999999999,-0.7934091999999999,-1.4483788999999998
0.8154459,9.737026,-1.2464979999999999,-1.1456342,-0.41174063,-1.8955498
1.7431225,10.065233000000001,-0.41848729999999995,-1.4426716999999998,-0.11416198,-2.253255
0.26887843,9.9334955,-1.6540678,-1.597046,-0.41332890000000005,-2.433722
-1.1529326000000002,9.710796,-2.8019342000000003,-1.8616205000000001,-1.1548669,-2.536993
-1.5881985,9.138773,-2.5635388,-2.0026782,-1.913963,-2.8904572
-0.5163336,9.843167,-1.61532,-1.935064,-3.4071271,-2.5391223
-0.6192459,10.38326,-1.2714839,-2.0809212,-2.5809580000000003,-2.5832968
-1.7039917000000002,10.822223,-2.1774017999999997,-1.8658616999999997,-0.39790016,-3.5947150000000003
-0.61381584,11.70415,-3.0523775,-1.2430409,-0.30953413,-2.3671727000000002
2.6693048,12.734529499999999,-2.6102927000000005,-0.092170835,0.19935150000000001,-1.9131078000000001
3.2403223999999997,13.396842000000001,-0.8640578000000001,0.20273745,-0.9174498,-1.7778971000000001
1.7204446,15.240971,-2.9916124,0.44760713,-1.5003374,1.0295697
0.018885463,16.611403,-5.748201,1.1044793,-1.2283278999999998,1.8599974
1.2127397,19.257963,-6.781403999999999,1.7076126,-0.25363123,2.1192312
7.377789999999999,24.462717,-6.612746700000001,2.296382,0.5320636,2.5238159
9.7530775,22.016771,-9.093972,2.5747619999999998,0.84665924,3.0332427
16.583725,18.83533,-8.467678999999999,2.6551517999999996,0.8312305,3.5453396
2.7071142000000004,15.679062,-1.401537,2.8824637,0.79077375,4.06276
-3.8523662000000005,12.380475,-2.3805547000000002,3.1108224,1.0319085,4.572727700000001
-0.9893991,4.487979,-1.7445400000000002,3.2172875,1.2230219999999998,4.949073
-12.925002000000001,0.24772327,-2.2727294,3.3381339999999997,1.2155695,5.2876496
-5.7970904999999995,3.2597249,-2.1833970000000003,3.3690089999999997,1.2954183000000001,5.6224732
4.35149,-0.20523097,0.62435037,3.5766160000000005,1.6579230999999999,5.7103157
3.3078196,-1.4942405,0.9468781,3.5143251,2.5256135,5.4904566
0.73921454,0.16070838,-0.48795745,2.9080152999999997,2.2152765,5.286585
0.18980274,1.5819063999999998,-0.8582447,2.371955,2.1945071,4.0648894
0.40054995,3.469131,-0.056062627999999996,1.5138463,1.5977792,1.6928473000000002
0.75034285,4.2954373,0.19557755,0.09573131,1.3454568,-1.0911973
1.9160987,5.440852,-0.53649276,-0.88160074,0.39098865,-2.7435355
2.2267034,7.4554005000000005,-0.50697696,-0.7597069000000001,-0.09819222,-2.7866626
2.1005576,10.191867,-0.95282525,-1.9989605,-0.35531414,0.10438814
3.2863002,13.4331,-0.9898108,-1.6523904999999999,-1.38162,-4.431007
4.2661037,17.711807,0.43685559999999996,-0.3705683,1.0963286,-4.547577400000001
-0.818386,24.474467999999998,-0.6739008000000001,0.018011797,1.0755765,-3.912522
-6.5135217,24.739143,0.055689134,-0.60850906,-0.45005059999999997,-2.2516667999999997
-7.352977,23.11074,-0.08971552599999999,-0.7000865,-0.5666386,-1.5857364
-14.789779000000001,22.33249,3.382375,-0.77089447,-0.5033006,-1.3962284
-25.702263000000002,16.671143,3.9860870000000004,-0.44457027,-0.78702134,-1.1694579
-13.507713,20.123005,-0.75925887,-0.27848473,-0.9733351999999998,-0.8937132999999999
-13.543281,14.009460999999998,-4.3416357,-0.18905406,-0.41280526,-0.7457268
14.761594,16.391329000000002,-9.236044999999999,-0.12463396,-0.19720475,-0.59187603
34.1394,20.413616,12.628111,-0.09908234,-0.13651966,-0.48167595
-3.897473,6.345985,-0.78068215,-0.06288421,-0.11683234,-0.42579052
