accx,accy,accz,gyrx,gyry,gyrz
2.0973015,9.323250999999999,-0.42507613,-0.47764426,1.3027836000000002,3.5079896
2.5012033,9.355554,-0.58946204,-0.5372647,0.9557074000000001,3.2998589999999997
2.7581012,9.511033,-0.7934959,-0.5969026,0.64057076,3.001757
2.8845341,9.588213,-0.94114155,-0.65915847,0.40261254,2.6035774
2.9571933999999995,9.514721,-1.1146061,-0.71185,0.17371263,2.1346076000000003
2.7499993,9.208291000000001,-1.1463726,-0.7267551,-0.070598565,1.6310276000000001
2.4443076,9.308637,-1.1079792,-0.7060206,-0.32824406,1.0539694
2.2958383999999996,9.436228999999999,-1.0125940999999998,-0.64212406,-0.52681017,0.5168617999999999
1.8840356,8.947476,-0.610598,-0.50371945,-0.6742556,0.026598819
1.5031277,8.148724000000001,0.05097734,-0.33923966,-0.7530398,-0.451953
1.819986,7.978600500000001,0.47921383,-0.2104169,-0.8227831,-1.0540043
2.677934,9.1236315,0.19378668,-0.14067353,-0.9377654000000001,-1.6560731
3.4242160000000004,10.044586,-0.04025132,-0.0916996,-1.0729761,-2.2746353
4.1477914,10.75508,0.07170156,-0.04379031,-1.1714475,-2.8223894
4.468423400000001,11.1356325,0.40368155,0.032306045,-1.2140336,-3.2519848
4.587797599999999,11.456389,0.9378470999999999,0.13135348,-1.1128917999999999,-3.4686324999999996
4.365951,11.437867,1.5849711000000002,0.18352138,-0.83767074,-3.4883196000000005
4.085810700000001,11.558679,1.7777236,0.18828613,-0.57684875,-3.405818
4.0937686,11.489851,1.6953436999999998,0.15582299,-0.53318065,-3.27806
3.7970507000000007,10.563658,1.4721753999999998,0.120148465,-0.70300114,-3.1098452
3.5345885999999997,9.325588,1.6137878,0.11215486,-0.8914443999999999,-2.9432359
3.6017604,8.3275795,1.8615110000000001,0.12227777,-0.9537351999999999,-2.769698
3.7564452000000004,7.993464,1.9533046000000003,0.11910127,-1.0181378,-2.6163707
4.122643,8.177653999999999,1.835711,0.10793116,-1.0777583,-2.5492977999999997
4.9059873,8.655585,1.6649758000000001,0.07864454,-1.0362369,-2.522158
5.5490794,9.266547000000001,1.42025,0.055204764,-0.92231923,-2.4258156000000004
5.750776999999999,9.24859,1.5457828000000002,0.059463367,-0.8084015999999999,-2.1979804
5.718943599999999,8.757147999999999,1.8422807,0.115366265,-0.7434579000000001,-1.8338523000000002
5.549836,8.5553255,2.0482683,0.20851448,-0.63646924,-1.3957572
5.6850895999999995,9.125807,2.170746,0.29635692,-0.41022217,-0.95179784
6.092142,10.012781,2.185504,0.35065409999999997,-0.17654005,-0.52541393
6.3672357,10.0831995,2.195617,0.37727037,-0.06049311,-0.12988740000000001
6.3109813,9.546267,2.1212244,0.4001691,-0.056217055999999994,0.19429006
6.088320700000001,9.005694,2.1699321,0.42359140000000006,0.022008602000000002,0.47907543
6.2873845,9.516291,2.2866923999999997,0.35918877,0.24506168,0.7250272
6.985332499999999,11.441804,2.0370538000000002,0.2351482,0.50855404,0.92783445
7.217522,11.876161,1.9673156000000003,0.13241813,0.86947066,1.2179431
6.4465218,11.3344965,1.9581505000000001,0.08662069,1.2660618000000001,1.5437261999999998
5.726452,11.599198,1.6181165000000002,0.053616515999999996,1.7089391,1.8593866000000001
5.51286,12.455222000000001,1.3747506,-0.0027750734999999996,2.131623,2.0989504
5.507985,13.396028,1.2595893999999999,-0.10871656,2.5170267,2.2948459999999997
5.42641,14.069766,0.9764895,-0.24288002,2.795424,2.461979
4.8235793,13.870635,0.75858843,-0.344528,3.1984031,2.6078533999999998
3.8120577000000004,12.625698,0.39488047,-0.4132067,3.3405254,2.7058014999999997
2.6557539,11.197595,0.03106716,-0.57290435,3.0190007999999997,2.9448068
1.2217708,9.776013,-0.17348386,-0.7315198,2.2317002,3.207252
0.29989770000000004,8.739047,-0.25618914,-0.8518428,1.3890203,3.3983480000000004
0.5334856,8.101672,-0.40802940000000004,-0.8922996,0.8098502,3.462768
1.3188028,8.029950999999999,-0.47474146,-0.9146398000000001,0.44893359999999993,3.3760078
2.0260022,8.029108,-0.7166037,-0.9274331,0.15508996,3.0885346
2.6374526,8.2938595,-0.97358775,-0.96576047,0.00019198621,2.6802497000000005
3.0683897,8.854027,-1.3053762,-1.0669023000000002,-0.08550368,2.1686764
3.3684117999999996,9.404453,-1.7721881000000002,-1.1664385,-0.20155062,1.6315687
3.0358381000000003,9.610173,-1.9510637999999998,-1.2441579,-0.41235150000000004,1.0832735
2.5154057,9.879386,-2.0172968,-1.2457637,-0.7700741999999999,0.55679494
1.9427128,9.778801,-1.8729361,-1.0951068000000002,-1.1533483999999998,0.13414600000000002
1.3820002,8.892017,-1.0957303,-0.79859287,-1.3753195,-0.22462387
1.3149243999999998,8.161422,-0.026748022000000003,-0.45842817,-1.4429336000000001,-0.64090234
2.2135067000000004,9.097899,0.44196963,-0.18695967,-1.429093,-1.2041026000000001
3.5820800999999998,10.605864,0.20889889,0.04939282,-1.3423153,-1.8679211
4.7036104000000005,11.365879,-0.07756256,0.2197195,-1.178359,-2.452938
4.891306,10.935181,0.24621013,0.40444514,-0.88931507,-2.8191778999999997
4.313939599999999,9.844650999999999,1.1140125,0.5843885999999999,-0.5118876,-3.0049682
4.071473999999999,9.381813000000001,1.6268505,0.74939203,-0.13767157,-3.081082
3.8624506000000003,9.546064999999999,1.7672081000000002,0.8510749,0.20725785,-3.088011
3.9018017999999994,10.313216,1.4407922,0.8755619000000001,0.34779176,-3.069371
3.944275,10.62358,1.1381459999999999,0.8020835,0.26794294,-2.9581237000000002
3.5629745,9.986711999999999,1.4558950000000002,0.68338364,-0.045570545,-2.8133311
3.2289736,9.123364,1.5254513,0.5811772,-0.6513569,-2.7159069
2.918934,8.473377000000001,1.4347683999999998,0.48162362,-1.361479,-2.639793
2.9936618999999998,8.392884,1.4444124,0.38954005,-1.9358668,-2.5865605
3.75158,8.676376,1.7415996999999999,0.32033774,-2.112058,-2.544498
4.70611,8.877892,2.1340380000000003,0.25434682,-1.9055156000000002,-2.459867
5.664029599999999,9.424076,2.1434042,0.24902357,-1.4429336000000001,-2.3310442000000005
6.246519999999999,9.905215,2.0975695,0.3182259,-0.8781275,-2.1133144
6.270328,9.9168215,2.1892388,0.42149702,-0.40915754,-1.739081
5.918342,9.855138,2.4880161,0.5375265,-0.11477285,-1.2834278000000001
5.737465,10.596929,2.5894632,0.5971469,0.000715585,-0.8666083000000001
5.751131,11.3282995,2.551271,0.57745963,-0.057281705999999995,-0.4929159000000001
5.690807,11.048110000000001,2.3947762999999997,0.53167963,-0.08815658,-0.16500343
5.682226,10.1959095,2.2873437,0.48802897,-0.08443903,0.11072369
5.5564246,9.514673,2.2589486,0.45396015,0.012426743999999998,0.34388223
5.9096364999999995,10.054881,2.2230833,0.34590679999999996,0.28871235,0.53606045
6.543574,11.106011,2.276043,0.17554522,0.73426,0.7351327
6.776481599999999,11.561705,2.1944678,-0.048537605,1.1185989,1.0210001
6.0329576,11.539017999999999,1.8094705000000002,-0.21675244,1.3533632,1.3792639
5.1342893,11.76415,1.1742793,-0.33067009999999997,1.5684227,1.7423098000000001
4.5081096,12.158982,0.88701344,-0.41636574,1.8399086,2.0302892
4.5284314000000006,12.676829,1.0229658000000001,-0.45790458,2.4046972,2.22245
4.3030029999999995,12.964095,1.2673658,-0.43392375,2.900842,2.3347792999999997
3.7419553,12.184763,0.7713543,-0.66497046,2.8268400000000002,2.4348563999999997
3.0763671,11.610308,0.16498923,-0.76078904,2.5521599999999998,2.5652676
1.6588466,9.852944,0.050814535,-0.8885470999999999,2.1108534,2.7734153
1.2663124,8.919234,-0.16621506,-1.0019236999999999,1.6578534,2.8900034
1.5621017,8.3718815,-0.35586455,-1.0620677,1.2862902,2.8878741000000003
2.0923407,8.119284,-0.47919467,-1.109977,0.9786060999999999,2.8271889999999997
2.2746449,8.120347,-0.78738594,-1.141393,0.6416354000000001,2.6941078
2.6760759999999997,8.765871,-1.0466971,-1.1978195,0.43402848,2.4401797999999997
3.1855333,9.290546,-1.5958791,-1.2712978000000001,0.21790436,2.1170495
3.2487880000000002,9.459816,-1.8630337,-1.3213363999999999,-0.021624627999999996,1.7923310000000001
3.2050126,9.620878999999999,-2.2409248,-1.3420883,-0.37880626,1.4213089
2.7773316,9.394981,-2.2178352,-1.2643688999999998,-0.77911496,1.104584
2.4034817000000004,9.501800999999999,-1.9355588,-1.0950719,-1.1735768,0.78464764
2.2713982999999995,10.027013,-1.6724457,-0.8321031999999999,-1.49189,0.46099383
2.100462,9.535273,-1.011148,-0.46160468,-1.5882496000000002,0.14692181
2.0738096,8.544733,-0.08269572,-0.067701325,-1.4141879,-0.17297958
2.511374,8.296646,0.65209436,0.19100884,-1.0250493,-0.6286501
3.5109725,9.377016000000001,0.5634323,0.32089624,-0.65561545,-1.1679045
3.9584966,9.717404,0.28906634,0.38158134,-0.4213923,-1.6528441999999999
4.0551267,9.804678,0.18779162,0.4183205,-0.24518386,-2.0201488000000003
3.824699,9.543853,0.6396062,0.48752280000000003,-0.109449595,-2.2964344
3.7269006,9.786424,1.1123365,0.5428672,-0.06633996,-2.4854012
3.6802998,10.63288,1.3764745,0.5817357,-0.14884168,-2.5487566000000004
3.6747165,11.203858,1.6675903000000003,0.5929406999999999,-0.36177185,-2.506153
3.5178199999999995,10.966421,1.8708580000000001,0.5551194,-0.62419957,-2.389059
3.261621,9.903099000000001,2.1372657000000004,0.45450118,-0.9063319999999999,-2.2389433
3.1695306,8.756677999999999,2.1025496,0.35390040000000006,-1.248626,-2.1489716
3.381628,7.9661603,1.9887484,0.25062928,-1.474332,-2.1228787999999996
3.9406452000000005,7.720668300000001,1.8647193,0.14629349,-1.4913664,-2.1303490000000003
4.5186243,7.7994184,1.6428821,0.09625491,-1.4322696000000001,-2.1574888
4.9283204000000005,7.751784,1.7685297999999998,0.08241445,-1.223598,-2.1984866000000003
5.717766,8.108491,2.125151,0.07496189,-0.8653517,-2.2155209
6.114809999999999,9.004258,2.1871607,0.06750934,-0.61994094,-2.1303490000000003
5.947426999999999,9.661408,2.1001937,0.07655014,-0.53318065,-1.898255
5.628213,9.884193,2.056236,0.12500048,-0.45917870000000005,-1.4872823
5.373623,10.048551,2.1453772,0.22668336,-0.2941578,-1.0087305
5.380729,10.383136,2.3872970000000002,0.336866,-0.0013788101,-0.5780705
5.6937375,10.459617,2.6667959999999997,0.3671998,0.12421508,-0.2586927
5.581420400000001,10.195172,2.3489895,0.30492648,-0.08602728,-0.023387412000000003
5.6701207,9.7329,1.9465435000000002,0.25647613,-0.26968828,0.06813765
6.159696599999999,9.352718,1.8902701000000002,0.17184512,-0.189822,0.07187266
7.290909299999999,10.383471,1.7122374,0.039845865,0.07365289,0.09848893
7.842801,10.759494,1.6505435000000002,-0.057560957999999995,0.47343802,0.29544935
7.6430583,10.900915,1.4861001,-0.13315117,0.8386133,0.723439
6.789669,10.76052,1.3323253000000002,-0.11931071,1.2154996,1.2414003999999998
6.0325165,10.877098,1.3484336000000001,-0.091106184,1.6647823,1.7140878000000002
5.425146,11.5841055,1.1852256,-0.102276295,1.9564966000000001,2.1314485
5.076905,12.421961,0.9310379999999999,-0.17786649999999998,2.1811380000000002,2.4226217
4.765132,13.104633,0.74331343,-0.27422613,2.2732215,2.5988127999999997
4.1494,12.781943,0.23248656,-0.3577925,2.1577156000000004,2.7755623
3.186893,11.333097,0.12073479999999999,-0.39720201,1.9932183,2.915555
2.4013364,9.769616000000001,0.18888336,-0.44031167,1.6354957,3.1322029
1.490084,8.4484005,0.06702807,-0.46958083,1.1691786,3.3414154000000003
1.5547563,7.829355199999999,-0.051848833,-0.44348815,0.9445372999999999,3.4175467000000004
2.2151346000000003,7.916504400000001,-0.23681527,-0.41210714,0.87320566,3.3499327000000005
2.9117994,8.375311,-0.5507046999999999,-0.40837213,0.8471305,3.1343322
3.3370287000000003,8.876493,-0.9813354,-0.44509387,0.81306165,2.7808855
3.480815,9.20265,-1.3191669,-0.509514,0.7459886,2.3507664
3.4066522000000004,9.209191,-1.6510702000000002,-0.6069208,0.55593973,1.8184236
2.9781668,8.970624,-1.8679848999999997,-0.7085861999999999,0.19556414,1.2999561000000002
2.0312598000000004,8.736146000000002,-1.8984966,-0.72935563,-0.3260973,0.86290824
1.3159586,8.623378,-1.6706356,-0.682511,-0.78550285,0.42481315
1.4857459,8.603823,-1.2799498,-0.55103534,-1.1000985,-0.08354891
1.690814,8.201021,-0.63868684,-0.34768704,-1.2092339,-0.5493249
1.9426553,7.923294500000001,0.12656708,-0.14273302,-1.1325791,-1.0603573
2.8220837000000003,8.929185,0.39283103,-0.035185836,-1.0117325000000001,-1.6033293
3.7546062000000004,10.377485,0.0025953148000000003,0.035587262,-0.9563706,-2.2069862000000002
4.466613300000001,11.394552000000001,-0.22746831,0.0786969,-0.9707521000000001,-2.7776392000000003
4.81994,11.685821,-0.027370514,0.14152876,-0.95530593,-3.189118
4.582339299999999,11.207047,0.78335404,0.24317673,-0.8158367,-3.3711907999999995
4.326112,11.086332,1.5493643999999998,0.29855603,-0.5438271,-3.397807
4.4772625,11.24318,1.9680817,0.32304299999999997,-0.23827235,-3.3232815
4.468078,11.499685000000001,1.8525758,0.32145473,-0.12116075,-3.1593077000000003
3.8868716,11.317276,1.4950450000000002,0.2713987,-0.35431929999999995,-2.9346838
3.3151362,10.399617,1.5191593,0.18462093,-0.87706286,-2.6951375
3.0679397999999996,9.347308,1.7384778000000003,0.113306776,-1.3566793,-2.466761
3.3933980000000004,8.5806265,2.0056324,0.07124434,-1.488696,-2.2682123
4.001994600000001,8.101395,1.9731095,0.078155845,-1.3817073,-2.095739
4.3554935,8.286610000000001,1.7321666,0.103183866,-1.1932641000000002,-1.9440175
4.8801684000000005,8.48258,1.7510808,0.12662363,-0.9446595,-1.8535221999999998
5.485958999999999,8.811112,1.8484291000000002,0.16121607,-0.62419957,-1.7869727999999998
5.835273,8.946308,1.8384501,0.21123719,-0.26647687,-1.7241758000000003
6.035275,8.926389,1.9441302,0.25169393,0.059288833,-1.626228
6.1290703,8.706304,2.0958650000000003,0.2921681,0.3376863,-1.4383084
5.879997,8.862817999999999,2.127095,0.32251940000000007,0.53997,-1.1295596
5.671739,9.222982,2.0091278999999997,0.32730159999999997,0.6730513000000001,-0.7745073
5.4648137000000006,9.530627,2.0328689,0.29962066,0.6922149999999999,-0.34278268
4.8989677,9.338258,2.0326486,0.26982790000000006,0.48993137,0.09424778
4.3767924,9.017522,1.9570875,0.24745278,0.22589797,0.5185024
4.495401,9.939183,1.8510436000000001,0.18037978,0.17479472,0.79957026
5.5726676,12.031858999999999,1.5352196000000002,0.058485985,0.30948177,1.0247351999999998
6.3197827,13.177082999999998,1.3404368999999998,-0.10173524,0.5601983,1.2568290000000002
5.9539485,12.340405,1.267385,-0.1629614,0.83274895,1.5884764999999998
4.805766,11.291217999999999,1.1718947,-0.14910348,1.0994527,1.8615506999999998
4.351854,11.362689,1.0598078000000002,-0.12144001,1.4694102,2.13836
4.2946805999999995,11.988323,1.2070223999999998,-0.117181405,1.9112401999999997,2.4162338
4.1757846,12.749297,1.1095784,-0.14006267,2.3280597000000003,2.6456747000000003
4.060585,12.972647,0.8362371999999999,-0.17945476,2.7805364,2.8138897000000003
3.6919739999999996,12.940871000000001,0.5401798000000001,-0.29550170000000003,2.766696,2.8894799
2.9393518,12.382686999999999,-0.07004476,-0.410484,2.5883582,3.0342724
2.087284,11.157392,-0.01964203,-0.5350481,2.1853967,3.144996
1.7026892,10.346916,-0.21252849999999998,-0.6596123,1.6360368,3.1865175
1.5797038,9.670114,-0.411841,-0.7825707,1.1702433,3.1279616000000003
1.8745642,9.072694,-0.72754043,-0.89222974,0.7715401999999999,2.9267426
2.2003672,8.772508,-0.9149873,-1.0082940999999999,0.50111896,2.6323578
2.4470084,8.595059,-1.0049039,-1.1243236,0.2637018,2.2741117
2.4760162999999995,8.317035,-1.2270571000000001,-1.2265476,0.015097098,1.9025486
2.3740617999999998,7.9534135,-1.3573496,-1.3074436000000003,-0.24092525,1.4724295
2.3693976,7.845694,-1.581399,-1.3473766999999999,-0.47888345,1.0540218000000001
2.123293,7.689611,-1.6252607,-1.3255427,-0.70617765,0.64573693
1.9097015,7.723321400000001,-1.5660568000000001,-1.2520818,-0.95743525,0.28375563
1.7178493000000001,7.9991520000000005,-1.456977,-1.0961016000000001,-1.2406324,-0.055850536
1.5622454,8.113404,-1.0829739999999999,-0.8294154,-1.4572976,-0.4029267
1.6612216,8.13952,-0.50427634,-0.5488886,-1.4945604,-0.76544905
2.3226150000000003,8.642062,-0.060956374,-0.27846727,-1.3849013000000001,-1.2519945
3.3054924,9.982145,-0.13565548,-0.048502699999999996,-1.2246627,-1.8519166
4.311746599999999,11.347204,-0.427863,0.1441991,-1.0782819,-2.5412867
5.0960774,12.047326,-0.4626268,0.31506684,-0.8924915999999999,-3.0597715
5.1344423,11.882365,0.32432812,0.4657062,-0.6359107,-3.3706496
4.6427593,11.488041,1.0472621,0.6184923000000001,-0.36336009999999996,-3.4435693999999994
4.15076,11.3984785,1.8053046000000001,0.7281339,-0.077510074,-3.3568091
3.9896402,11.781062,2.1429157,0.77818996,0.09920452,-3.2114756
3.7784428999999995,12.009555,2.1262232999999995,0.7877718,0.014032447,-3.012927
3.2211685,11.790792,1.9214522,0.71376985,-0.46930158,-2.7669926
2.7363617000000002,10.96622,1.9955193,0.52319735,-1.2166865,-2.4811425
2.48069,9.620621,2.533391,0.2921681,-1.9725884999999999,-2.1883461
2.5860347999999997,8.745683999999999,2.8201110000000003,0.0824319,-2.5214074,-1.9812802999999999
3.208661,8.143695,2.6174562000000003,-0.054890607,-2.6236137999999998,-1.8657569999999999
3.9661386,7.934767699999999,2.2621182999999996,-0.14378022,-2.4772332,-1.8247765999999999
4.8598847,7.855461999999999,2.1555285,-0.20926498,-2.1104522,-1.8556515
5.8590617,8.117694,2.1883673999999997,-0.2502453,-1.5791913,-1.8987612
6.3839664,8.343458,2.3063345,-0.25078636,-1.0585771000000002,-1.9275067
6.4933815,8.368779,2.4161707999999997,-0.19594811,-0.65455085,-1.9035608
6.130698000000001,8.648938000000001,2.4138627,-0.10758209,-0.33089697,-1.7710029999999999
5.924969,9.195143,2.4540757999999996,-0.019739674,-0.046635196,-1.5644608
5.884928700000001,9.974321,2.4682689,0.023352506000000002,-0.046094145999999996,-1.2434771999999998
5.859148,10.509568,2.155452,0.05794493,-0.08176868,-0.78513634
5.502775700000001,9.741431,2.2606435,0.15165167,-0.08122762,-0.26506317
5.158633,9.099796000000001,2.3694648999999997,0.28099802,0.10719812,0.17355554
5.521154,10.2413225,2.1811655,0.34861207,0.44043383,0.5147849
6.564078,12.911633,1.5000726999999998,0.24321163,0.75024724,0.85653776
7.463914,14.134112,0.94660985,0.09574876,1.0345091,1.1934911
6.863649400000001,12.893609,0.97389424,0.06379178,1.2522213,1.6534202
5.013114,11.027262,1.2305716999999998,0.13088223,1.3938198999999998,2.1442242
3.7289019999999997,10.007503999999999,1.267136,0.21286036,1.5503236,2.5706255000000002
3.5793698,10.325493,1.2289245,0.21820106,1.7951933,2.8586223
4.0924760000000004,11.344724000000001,1.0348698,0.16973327,2.1209764,3.0789876
4.572437,12.414185,0.7315053,0.0749968,2.4744406000000003,3.1785412
4.697414,13.045086,0.41471404,-0.06819001599999999,2.7342153,3.2205863
4.2405334,12.762713,-0.033432632999999996,-0.22204079,2.6687481,3.2770127999999996
3.4155586000000002,11.918049,-0.14558662,-0.36735690000000004,2.5239556,3.3755016
2.5325866,11.076621000000001,-0.21733606,-0.49031535,2.262575,3.4824903
2.0163968,10.43962,-0.3584982,-0.6106209,1.8047751,3.5080419000000003
1.8818521000000001,9.934097999999999,-0.6154918,-0.6979221999999999,1.3214236000000001,3.4558739999999997
2.0215490000000003,9.468359,-0.70963186,-0.7676656,0.91207415,3.3025644
2.2495152999999997,9.187192999999999,-0.8810279000000001,-0.8208982,0.5740388000000001,3.0582356
2.3063632999999997,8.844985000000001,-0.9278105999999999,-0.8666780999999999,0.2892534,2.7047717999999996
2.5061355,8.868851,-0.9956623,-0.92523396,0.020961404,2.2368487999999997
2.6751947,8.942592999999999,-1.1742506000000001,-0.95663244,-0.21643828,1.7497798
2.6398947,8.763823,-1.1488338,-0.9268221999999999,-0.39742893,1.2536526000000001
2.6492512,8.6293545,-0.98916924,-0.8256629000000001,-0.4911182,0.7255857
2.6888417999999996,8.834547,-0.69552517,-0.69685763,-0.5012411,0.20868902
2.470366,8.802301,-0.38755423,-0.51108474,-0.50389403,-0.23631757
2.1485472000000003,8.103463,0.2581237,-0.2965489,-0.5230577000000001,-0.6749537
2.5269458,8.406262,0.47884992,-0.13046336,-0.57683134,-1.2072617
3.3432152000000004,9.894249,0.17287093,-0.009093165,-0.6987251,-1.7992076000000001
3.9781672999999995,10.841031,0.08857589,0.09681341,-0.8493818999999999,-2.362949
4.478402,10.992564999999999,0.49724695,0.22245966,-0.9031380999999999,-2.8164902
4.495726599999999,9.815949,1.4968454,0.33742452,-0.7173651999999999,-3.0980990000000004
4.6271396,9.58601,2.2720304000000002,0.36297613,-0.33567917,-3.1875298
4.642501,10.194405999999999,2.5551209999999998,0.34648275,0.06832964,-3.17156
4.3342905,10.662127,2.1124902000000003,0.31719613,0.18757053,-3.143879
3.7084650000000003,10.784548,1.4984639,0.28473303,-0.08283333,-3.0757413
3.2684493,10.340959,1.3890200000000001,0.20701350000000002,-0.5337042,-2.9644766
3.1755638,9.823247,1.7857490000000003,0.097354464,-1.0564476999999999,-2.8117080000000003
3.1482508,9.130892,2.1238294,0.020699605,-1.5701505,-2.667439
3.386627,8.775784,2.0442843,-0.05274385,-2.0018578000000002,-2.5993013
4.201699700000001,8.894441,1.8695076000000002,-0.1166229,-2.1312215,-2.5561743
4.962184,8.983332,1.9145665,-0.14697418,-1.9294615000000002,-2.4960303
5.7202363,8.847014999999999,1.9718262,-0.101717785,-1.5243706,-2.4459918
6.2337832,8.751171000000001,1.9840941000000003,-0.031450834,-1.0484717,-2.362949
6.568875299999999,8.61337,1.9685797999999999,0.07819075,-0.64709824,-2.1542773
6.5703309999999995,8.405573,2.1919394,0.22352432,-0.35857790000000006,-1.7821732
6.549617,8.360457,2.506643,0.38800415,-0.10199704,-1.3126795
6.5607733999999995,8.853672,2.6609445,0.5327967,0.16362461,-0.81068796
6.451387400000001,9.399321,2.598992,0.62170374,0.32810444,-0.2751686
6.0860605,9.497674,2.4352193,0.67387164,0.34887385,0.20071286
5.938434,9.142987,2.3739276,0.69781756,0.36536723,0.5632351999999999
6.3687873,9.817424,2.4914255,0.6312856,0.52241194,0.8171457
7.1180577000000005,11.766964999999999,2.2508464,0.48223448,0.73480105,1.0066535
7.4697556,12.557185,2.0056898999999997,0.30122638,0.9738239,1.2658873
6.627399400000001,11.557539,2.132889,0.20703095,1.2501096,1.5805003999999998
5.851639700000001,10.966824,2.0171436999999997,0.13674654,1.5977093,1.8525273999999998
5.5320325,11.616829,1.5647928,0.05532694,1.9852421999999998,2.0878153000000004
5.372148,12.67837,1.041698,-0.0538085,2.3083549999999997,2.2693295
5.221026,13.393776999999998,0.69571674,-0.16772614,2.5495071,2.459902
4.537367,13.271298999999999,0.45516646,-0.2709973,2.6549075,2.6707027
3.676517,12.536442999999998,0.2601061,-0.34922293,2.6064746,2.8884327
2.5306327,11.25632,0.017688362,-0.4290892,2.2577927000000004,3.1844056
1.5593436,10.011766,-0.069106236,-0.49244463,1.7707063000000003,3.4500272000000005
1.2043121,9.164812,-0.31498116,-0.53288394,1.3326111999999999,3.6581752
1.4079055,8.754753,-0.6080315,-0.5568473,1.0105631,3.6991556000000005
1.9979038,8.823897,-0.7908623,-0.57494634,0.7699520000000001,3.5698092000000003
2.659508,8.934892999999999,-1.0198916,-0.6100798000000001,0.611319,3.2349677000000003
3.185581,8.950742,-1.2891723,-0.6835233000000001,0.46120325,2.7574806
3.2611039,8.672335,-1.5215343000000001,-0.78414154,0.26104888,2.2597651
3.1957517,8.117187,-1.7934678,-0.8682664000000001,-0.047682392999999997,1.7103877
2.8944845,7.6546173,-1.9623644,-0.89167124,-0.4027522,1.1498578000000002
2.5936003,7.3396072,-1.8511490000000002,-0.8256629000000001,-0.69978976,0.6074095
2.4321639999999998,7.2928630000000005,-1.2894212999999999,-0.6755471,-0.9095260000000001,0.09850638
2.5149939999999997,7.78649,-0.72097075,-0.49562114,-1.0026742,-0.36938150000000003
2.6637216,8.26804,-0.30106607,-0.2901261,-1.06123,-0.82344633
2.960411,8.982911,-0.09837296599999999,-0.08094837,-1.2193393999999997,-1.4271208
4.078628,11.294522,-0.4403416,0.104824476,-1.3726491000000003,-2.1995162999999995
5.353234,13.209797,-0.36597767,0.27199212,-1.3854249,-2.8904746
5.639753,12.038028,0.7115376,0.47692868,-1.0984927,-3.2614967999999998
5.072404,8.974569,2.5733645,0.5535661000000001,-0.34154347,-3.2572556
4.6171317,7.3900003,3.2921519999999997,0.5652946999999999,0.6858446,-3.0246207999999997
4.1375923,7.837869,2.9562838,0.6334323000000001,1.4529166999999998,-2.8356364
3.699329,9.516243,1.7510041,0.68825316,1.5343712999999999,-2.6988375
2.9782145,11.020184500000001,0.57546073,0.5908463,0.87481135,-2.521582
2.3664767999999996,11.876562,0.19074126,0.41891393,-0.122207955,-2.3858302000000005
2.4313214,11.375992,1.6036553,0.28316220000000003,-1.103816,-2.2378438
2.2852848,10.090708,2.6004765,0.19853120000000002,-2.038056,-2.0946395
2.9376185,8.992823,2.5503322999999996,0.089936815,-2.5804867999999996,-2.0249135
3.8113585,8.610172,1.9384988999999997,0.011676253000000001,-2.5799632000000003,-1.9354828999999998
4.5213637,8.590385000000001,1.9517244999999999,-0.018116517,-2.1519735,-1.837535
5.2346444000000005,8.395228999999999,2.196096,0.013805554,-1.4966722,-1.7449104
5.6369467,8.158166,2.2549932,0.10164797,-0.8887565999999999,-1.6634558000000002
5.6045485,8.092162,2.2324783999999998,0.18682005,-0.5150640999999999,-1.601165
5.5823975,8.042765,2.41664,0.24750514,-0.26061258,-1.5080168
5.460542,8.279781,2.481274,0.26612779999999997,-0.14030702,-1.379194
5.496752,8.806448,2.2900157,0.24537584,-0.08281587,-1.2413305000000001
5.745097599999999,9.021897000000001,2.3306499,0.18573794,-0.008831366,-1.0576695
5.8428,9.103665,2.2173085,0.14796901,0.045989424,-0.75583225
5.6830110000000005,9.0508585,2.1343637,0.14955726,0.014573500000000001,-0.37629297
5.4975085,9.3209915,2.0881941000000004,0.16819738,0.049706977,0.02825688
5.950185,11.556295,1.8723710999999998,0.11016518,0.21792181,0.39929643
6.7772665,13.902794,1.4346535,0.0063704518,0.40955895,0.7554134
6.7835206999999995,13.426482,1.4705378999999998,0.00424115,0.6858446,1.1392113000000001
6.101393,12.119152,1.4919707,0.036704276,1.0701835,1.4474365
5.964081299999999,12.647246,1.0117801,0.0063704518,1.528507,1.7301098999999998
5.7604685,13.278893,0.654728,-0.044174284,2.0092056,1.9834968999999998
5.464382,13.317832999999998,0.44531196,-0.08358382,2.4765873,2.2070735
4.652058599999999,12.776121,0.41744342,-0.15704472,2.7587197,2.4242623
3.5946832000000004,11.672566,0.21156123,-0.23848179,2.7012286,2.6744552
2.3722133999999997,10.158876,0.028107927999999997,-0.3188542,2.495751,2.9672341
1.5731725,8.992986,-0.030722396000000003,-0.40722020000000003,2.1774204,3.2158215
0.9812204999999999,8.13476,-0.29748434,-0.55948275,1.5647051,3.4367452000000003
0.74162793,7.881578,-0.8637800999999999,-0.69680524,0.79976225,3.5027537000000004
1.1212909,8.064648,-1.1196053,-0.78358305,0.29989994,3.4425921
1.8289977,8.119916,-1.3343748,-0.8314923000000001,-0.10517354,3.1620652999999996
2.708484,8.569911,-1.487374,-0.89111274,-0.33833209999999997,2.6707202999999997
3.2216475,9.007292999999999,-1.830731,-0.95392716,-0.44479716,2.1756575000000002
3.411814,8.930057000000001,-2.045874,-1.0225884,-0.53583354,1.6747482
3.2886178,8.879577000000001,-2.2169447,-1.0294999,-0.6241821,1.2286594
2.9612827,8.626021000000001,-2.0146346,-0.92144656,-0.64229864,0.77937675
2.7376642,8.659263000000001,-1.4879388999999998,-0.73033303,-0.6087534000000001,0.36789796
2.542173,9.053022,-1.0081313,-0.43755403,-0.5629734000000001,0.005375614
2.1278898999999996,8.919148,-0.16756539,-0.081437066,-0.42191590000000007,-0.25970498
2.099236,8.838138,0.85337013,0.22729422,-0.09665633,-0.63446206
2.9614935,9.95443,1.2902927,0.41999602,0.24082053,-1.1263306999999998
3.8094910000000004,12.236066000000001,0.97938174,0.5041034000000001,0.43884557,-1.7422401
4.400801,13.958751000000001,0.37515226,0.48867473,0.42500514,-2.2527312999999998
4.094784,13.340435000000001,0.79997945,0.52487284,0.39573595,-2.5093122
3.3449487999999996,12.663611999999999,1.8192486,0.5126032,0.40903535,-2.5742732999999998
2.8392167,12.860914,2.172355,0.47322857,0.31534609999999996,-2.5263467
1.9683785,12.320839999999999,2.036125,0.43010148,-0.09400343,-2.4512975
1.1386344,11.273539,1.6438205000000001,0.36356953,-0.78548545,-2.3836834
0.9808469999999999,10.395825,1.4899501,0.24486970000000002,-1.4109764999999999,-2.422011
2.1098566,9.810891999999999,1.7686925,0.071331605,-1.7458005,-2.555616
3.2839541,9.085612,2.0133512,-0.10218903,-1.936373,-2.7259599999999997
4.025333,8.408781,1.9689436000000002,-0.25549874,-2.0167453,-2.8840692000000003
4.362724299999999,7.932392599999999,1.7789685000000002,-0.34812337,-1.9810883000000001,-2.9772174
4.4684615,7.780083,1.5957354,-0.38751546,-1.8256493000000003,-3.0240622000000004
4.718703700000001,7.738308999999999,1.7026892,-0.38912115,-1.5781093000000002,-3.0565425999999998
5.1317987,7.923151,1.8679848999999997,-0.36995745,-1.2917356000000002,-3.0192799999999997
5.2990294,8.211125,2.0392087,-0.32309535,-1.0835876,-2.856912
5.2592854,8.276860000000001,2.1370932999999996,-0.25071654,-0.9632821,-2.5779734
5.1776433,8.637476,2.0574908,-0.1335875,-0.8302008,-2.1286907000000004
5.242488,9.343352000000001,2.0375328,0.035133477,-0.5938483,-1.5441976
5.6101413,10.098685000000001,2.2098386000000003,0.20282471,-0.36227798,-0.99537873
5.8438344,10.441372,2.4121966,0.3683692,-0.25900686,-0.44176027
5.622965,9.935344,2.3843377,0.48761007,-0.37453020000000004,0.08309512599999999
5.2977360000000004,9.15945,2.3173575,0.5605474,-0.5283635,0.46319294
5.4442043,9.09699,2.3020343999999997,0.5908986999999999,-0.4442561,0.7181681
6.472887,10.917521,2.1697214,0.50199157,-0.10782644,0.9103288
7.4265265,12.384382,1.9168553,0.38329175,0.38934806,1.15841
7.103203999999999,11.809897,2.1185715,0.32686526,0.8359603000000001,1.6039575000000001
5.3850765,10.700444000000001,2.2157571,0.33697072,1.1276747,2.026624
4.1801324,10.482016999999999,2.0719805,0.3241949,1.4002253,2.4812298
3.7635126000000003,11.518753,1.9104676,0.23635249,1.6174141000000002,2.873545
4.015967,12.994826,1.7247255000000001,0.11658800000000001,1.7611418999999997,3.181229
3.9290957000000004,13.827769,1.4879006000000001,0.0021293017,1.6999332999999999,3.4404802000000005
3.5381608,13.377027499999999,1.2304281000000001,-0.0665145,1.6828988,3.6267940000000003
3.267032,12.360286,1.051725,-0.11334168,1.8063983000000001,3.8732696000000004
2.3668215,11.243727,0.8861706,-0.15540412,1.8063983000000001,4.0265794
2.2925534,10.444092,0.6706063,-0.22034782,1.6663880000000002,4.05159
2.2450907000000004,9.739134,0.42152315,-0.29754373,1.5460825,3.9648294
2.3345096,9.484487,0.17195156,-0.38803905,1.3799968999999999,3.7077076
2.5730293,9.210331,-0.13800178,-0.4976981,1.17239,3.3451852999999994
2.5468368999999997,9.191177,-0.38576338,-0.6520725,0.95520127,2.894838
2.753198,9.593067999999999,-0.7624095999999999,-0.8394510000000001,0.68638563,2.3497543
2.5756917,9.534085000000001,-1.0536306999999998,-1.0023252,0.35154423,1.800918
2.0092523,9.265284,-1.3895851000000001,-1.0805857,-0.03117158,1.2701982
1.2409052,8.843395,-1.3659016000000002,-1.0529046999999998,-0.46183157,0.7330732
0.88754976,8.719204,-1.0239426,-0.9528276,-0.8280715,0.25078636
0.9216049000000001,8.792523,-0.49061024,-0.7835481,-1.0591007,-0.20380209999999999
1.1356944,8.410802,0.19592232,-0.56316537,-1.1133978,-0.70151764
1.6486952000000001,8.551993,0.6614892,-0.41996112,-1.1027513999999998,-1.2908106000000001
2.6763630000000003,10.295767,0.040203433,-0.34969416,-1.1873823000000001,-2.0685293999999996
3.6879230000000005,11.803317999999999,-0.6532053000000001,-0.32520720000000003,-1.3582675,-2.8558474
4.5523157,12.179142,-0.5825093000000001,-0.22884756,-1.4152176,-3.4935732
4.724727,11.701592999999999,0.43108082,-0.11014773,-1.2853303,-3.8166860000000002
4.6056685,11.68379,1.0979999999999999,0.0016231562,-0.994157,-3.9540260000000003
4.294594999999999,12.005408000000001,1.5481867,0.07241371,-0.66038024,-3.9183687999999997
4.0817309999999996,12.61706,1.5208544,0.07614872,-0.521452,-3.7352489999999996
3.368661,12.425351,1.1782920000000001,0.08677777,-0.7519402,-3.4893146
2.5312266,11.447952,1.2267506000000001,0.08199557,-1.2507378,-3.2061174
2.5743895,10.061231,1.8855296000000001,0.10489429,-1.5280707,-3.0506785
3.5194669999999997,9.287118,2.4444703999999997,0.07934267,-1.5248767,-2.942084
4.254860400000001,9.088313000000001,2.3301616000000003,0.014398966000000001,-1.399789,-2.8718169999999996
4.930648000000001,8.890524000000001,2.3293283,-0.06330309,-1.2214512,-2.8712761
5.5989455999999995,8.86005,2.119424,-0.12077679,-1.0026742,-2.9308965
6.0280066,9.022194,1.9711846000000002,-0.17828538,-0.77164495,-2.944737
6.114619,9.011152000000001,2.1356568,-0.22300072,-0.6406929,-2.8239078999999996
5.973552,9.138380999999999,2.3037487999999997,-0.24055873,-0.7173478,-2.5007775000000003
5.7078824,9.374439,2.1720292999999997,-0.19425514,-0.88289225,-1.956741
5.6267953,9.597061,2.135216,-0.059044488,-0.7977201999999999,-1.3418964
6.0255065000000005,9.968928,2.470797,0.10437069,-0.4900361,-0.7627438
6.139595,9.860078999999999,2.8660316000000003,0.22519983,-0.29307568,-0.21975441
6.113737599999999,9.459309,2.5886588,0.2773677,-0.2968107,0.24439846
6.2492019999999995,8.955799,2.1586506,0.3375292,-0.22919664,0.62660813
6.5153694,9.157132,2.0695384,0.34817573,0.07953466,0.92366314
7.118354300000001,10.62155,1.8745929000000001,0.31091297,0.55169857,1.2004723999999998
7.350419500000001,11.348593,1.7972888999999999,0.27417377,1.1122458999999998,1.5188030000000001
6.91931,11.690782,1.7649096000000002,0.21935298,1.6674527,1.9313464
6.0241370000000005,11.9588175,1.6963302,0.19327776,2.1013067000000003,2.2885456000000004
5.2032228,12.379727,1.4557034,0.14269812,2.5335548,2.6377509999999997
4.7484007,13.263044,0.9758382999999999,0.026651177999999998,2.9141588,2.9310536
4.617735400000001,14.238596,0.60713124,-0.13248794,3.176604,3.1945634
4.174377,14.477815,0.37065116,-0.28473303,3.2239897,3.4181402000000003
3.411546,14.0453825,0.17187496,-0.43271947,3.075462,3.6981432
2.4094957999999997,13.153858999999999,0.046121903,-0.56047755,2.6533194,3.9589827000000004
1.5640458000000002,12.218577999999999,-0.24460122,-0.66854835,2.0214577,4.2054405
1.0817673,11.131736,-0.4328142,-0.7308217,1.5141604,4.36355
1.1814332,10.390519,-0.6813610999999999,-0.78192496,1.0808301000000002,4.3986835
1.6037799,9.906766000000001,-0.9810481,-0.82025236,0.7220426999999999,4.232057
2.226531,9.591239,-1.1856948,-0.86444414,0.42287582,3.8759398000000003
2.6326737000000002,9.295517,-1.3465086000000002,-0.93842864,0.1998402,3.40697
3.0028843999999997,9.116143,-1.6194476,-1.0150834,-0.041277036,2.859722
2.8869952999999997,9.003041,-1.8889198,-1.0624691000000002,-0.30637509999999996,2.3401723
2.5125039,8.876752,-2.1155837,-1.0544755,-0.520911,1.8387218999999997
2.090071,8.690885,-2.020036,-0.95333374,-0.6816732,1.2749979999999999
2.0655735,8.554119,-1.621181,-0.74253285,-0.7908086999999999,0.664953
2.191614,8.337587,-1.0583711999999998,-0.45135959999999997,-0.834983,0.10972885
2.2088522999999998,7.6607747,-0.20906170000000002,-0.0861669,-0.7993084,-0.41936769999999995
2.6200325,7.356979400000001,0.69331294,0.23160519,-0.64866906,-1.0241069
3.5411007000000003,8.54729,0.7178486999999999,0.4195248,-0.45383796,-1.7054658999999999
4.4830565,9.732909,0.529291,0.52970743,-0.2872114,-2.394295
5.1451297,10.533272,0.38796604,0.586675,-0.18873991,-2.9665537
5.1048594000000005,10.496582,0.6870400999999999,0.6808878,-0.07588691,-3.3620627
4.6657147000000005,9.976553,1.5817341999999999,0.787894,0.07847001,-3.57234
4.3641987,9.958432,2.2201432999999997,0.8698720999999999,0.23284437,-3.6340897000000005
4.0627785,10.431776,2.3366356,0.92095786,0.27223647,-3.605344
3.6750227999999994,10.689957000000001,2.2142632,0.86241955,0.18280579,-3.4962087
3.4455628,10.538328,2.2329282999999998,0.7080451999999999,-0.11260864,-3.3279939
2.982256,10.0554085,2.3155186000000003,0.5951922,-0.6747443000000001,-3.2263284
3.0921977000000003,9.252325,2.0369294,0.49298569999999997,-1.2933065000000001,-3.1454147999999997
3.2839062000000006,9.131025,2.1829088,0.3843913,-1.6744515,-3.1070874
4.2372966,9.5843725,2.4601955,0.23746950000000003,-1.816591,-3.1028290000000003
5.3807483,10.02163,2.7026896000000002,0.11290534599999999,-1.7026734000000001,-3.0778008
6.0100690000000005,10.004957000000001,2.708484,0.044767695999999996,-1.3492093,-2.9149267999999995
6.2606072,9.727077,2.7830873,0.055414204,-0.96858793,-2.5971197999999998
6.220519,9.518972,2.7755022,0.12941617,-0.6875201,-2.03179
5.757174,9.400641,2.6665852,0.25556856,-0.520911,-1.3695773
5.4050255,9.394741999999999,2.9269595,0.40674898,-0.25527185,-0.7936012
5.687369,9.8488455,3.385679,0.47808059999999997,-0.03488913,-0.43001422
6.2306414000000006,10.196627000000001,2.9485457000000004,0.44348815,0.010873401999999999,-0.14522885
6.441244999999999,9.941722,2.4017673,0.3843913,0.0034208453999999998,0.064489916
6.3805190000000005,9.432139,2.128225,0.36789796,0.08911651400000001,0.25719172
6.2455050000000005,9.1942425,2.154657,0.35086355,0.35634387,0.44882888
6.6727357000000005,10.570582,2.1604892999999996,0.2891138,0.7710341,0.661759
6.985562299999999,11.876112,2.157013,0.18638371,1.1436619,0.97104883
6.3427095,11.922167,1.9206477,0.08522443,1.3746911,1.3889155
5.059341000000001,11.153608,1.5725978999999999,0.030927233,1.564199,1.8248988000000002
4.2051277,11.199644000000001,1.1457309,-0.011100293999999998,1.7563596999999997,2.181557
4.2771072,11.979177,0.9158299999999999,-0.08084365,1.9671606,2.4131098
4.6415143,13.070053,0.8000943,-0.19154988,2.2141595,2.544079
4.930763,13.681329999999999,0.6137967,-0.31983158,2.4100554,2.635098
4.5203485,13.1019535,0.2379262,-0.44439572,2.4734107999999995,2.7570092999999996
3.5492413000000003,11.793368,-0.12479537,-0.55353117,2.4105964,2.8986080000000003
2.6081667,10.455373,-0.29005274,-0.66001374,2.1726382,3.0625467
1.9231665,9.417707,-0.45748407,-0.74358004,1.8463314999999998,3.1801994
1.6680881999999997,8.731883999999999,-0.56499326,-0.8170235,1.4481521000000002,3.2510072999999995
1.7825885,8.474756,-0.69721067,-0.87559676,1.063272,3.2073392999999997
2.2453303,8.503763000000001,-0.90367705,-0.93415254,0.7018318,3.0332775
2.6954496,8.603468,-1.2114183,-0.98471475,0.392542,2.7554038
3.1100967,8.792197999999999,-1.4936274999999999,-1.0437942,0.11840314,2.4088686000000004
3.1813385,8.746785000000001,-1.8029776000000002,-1.0890505,-0.1743584,2.0468872
3.1494765,8.7102585,-1.9755037,-1.0821216,-0.48523644,1.6662658
2.9313264,8.374132000000001,-1.8608214,-1.0070724,-0.7311708,1.3069548999999998
2.9097404,8.301349,-1.6071988000000001,-0.86812675,-0.98403406,0.8757712999999999
3.0297568,8.613686999999999,-1.3937223,-0.6615845,-1.1969643,0.45736352
2.7739317000000003,8.7343645,-0.8358540999999999,-0.36988762,-1.3353688999999997,0.08580039
2.3655288,8.206213,-0.06515101,-0.088278756,-1.3034294,-0.2500882
2.7105042999999998,8.169417999999999,0.61852765,0.14486232,-1.0979518,-0.74834484
3.5579753,8.961621000000001,0.6464344,0.30934215,-0.8796983,-1.3866117
4.0409239999999995,9.66249,0.46058694,0.41102505,-0.7716274999999999,-2.0477423999999997
4.2823267,10.180817,0.4116303,0.46108109999999997,-0.7349058,-2.5545162999999995
4.0666375,9.978161,0.967133,0.47809803,-0.6614449,-2.9164974999999997
4.0821905,10.343258,1.3479738,0.45839328,-0.5752082,-3.2231169
3.9223343999999996,11.214564999999999,1.3357731000000002,0.41154864,-0.58211964,-3.3365110000000002
3.7787397000000005,11.969764,1.4446613000000001,0.35780996,-0.7694982,-3.26305
3.5279233,12.006376,1.2231020000000001,0.21779963,-1.0665358,-2.9920877999999997
3.1004145,11.206539999999999,2.1521575,0.15392059,-1.4774909999999999,-2.8430367000000003
3.1763875,9.410860000000001,2.012116,0.08258898,-1.8825994,-2.6167896
3.0949845000000002,7.992783500000001,2.1443237999999996,0.04960226,-1.961366,-2.4650855
4.1819999999999995,7.5316606,2.1909819,0.012845623,-1.5621395,-2.3591616
5.0956564,8.092699,1.8385936,-0.002565634,-0.8631875,-2.3580967999999998
6.1877947,8.772815,1.3988075,-0.014294246000000002,-0.19299851,-2.4342108
6.575608,9.384265,1.2499266000000002,-0.025446901,0.15618952,-2.5076716
6.576623,9.942258,1.2072905,-0.010018189,0.29991737,-2.534829
6.3521237,10.189214999999999,1.5339267,0.036285397000000004,0.3702018,-2.4517686000000003
6.299786,10.20202,1.8371092,0.11454595599999999,0.33665657,-2.1941232999999998
5.816933000000001,10.10445,1.9093471999999998,0.18320721,0.24029693,-1.748052
5.363385,10.2794285,1.840509,0.2534567,0.17057103,-1.1970865
5.288303400000001,10.706601,2.1069646,0.26092672,0.058241636,-0.64292693
5.2961754999999995,10.578215,2.1757642999999995,0.269985,-0.027960173999999997,-0.12657128
5.288581,9.992075999999999,2.089573,0.26783824,-0.19832176,0.25349160000000004
5.349374299999999,9.717682,1.8859701,0.2529331,-0.27071799999999996,0.56115824
5.9374,10.363676,1.7320613,0.18001325,-0.07747517,0.77089447
6.710526,11.0829315,1.8757133000000001,0.058660515,0.28661796,0.9758485
7.040149700000001,11.272907,1.8337861,-0.045134213,0.7268598000000001,1.2164596
6.314026999999999,10.791883,1.6594403000000002,-0.078155845,1.1314271999999999,1.4852927
5.368806,10.931868,1.2597523000000002,-0.09730211,1.6067850000000001,1.7349446
5.0730257000000005,11.537734,0.9742677,-0.153205,2.0321043000000003,1.9904608
4.6344757,12.261731,0.8654369000000001,-0.2575408,2.3999498,2.2337422
4.515292,12.84404,0.65758187,-0.37358773,2.5197144000000002,2.4141917
4.0571184,12.786760000000001,0.5424111999999999,-0.5029340999999999,2.3924972999999996,2.6095638
3.2562675,11.780842,0.27857974,-0.5971644,2.2008603,2.8033304
2.5716217,10.494800999999999,0.1469561,-0.6631728,2.0145464,3.0114607999999996
1.9308279,9.457135000000001,0.06966169,-0.72064644,1.7707412,3.2329082000000002
1.6690555,8.887736,-0.08686164,-0.7770904000000001,1.4449581,3.3297915000000002
1.9080447,8.788588,-0.35204342,-0.8361698000000001,1.1218451999999999,3.3441730000000005
2.091182,8.836194,-0.5694465,-0.8957902,0.8013854,3.2595419999999997
2.4161136,9.095592,-0.86485267,-0.9596518,0.47027898,3.0338361000000003
2.7774080000000003,9.288679,-1.1714063,-1.0187486,0.18388788,2.7740612000000002
2.8682826,9.535129,-1.276665,-1.0922271000000001,-0.06257005,2.4456077
2.953698,9.85872,-1.5265238,-1.1358603,-0.2755002,2.0745683
2.7616446,9.568331,-1.5133365,-1.119908,-0.49214795,1.6210269
2.5522285,9.323797,-1.4214664,-1.0469706,-0.7215889,1.0743373999999999
2.3646476,9.429018,-1.1735323999999998,-0.9016371,-0.9558120999999999,0.5153957
2.031777,9.307737,-0.65526426,-0.71267027,-1.1192273000000001,0.07621853
1.8583411,8.471702,0.18917067,-0.45663050000000005,-1.1399966000000001,-0.40125120000000003
2.4825284,8.699121,0.65694976,-0.23570672,-1.0255379999999998,-1.0432357
3.311928,9.682936999999999,0.47038403,-0.025429446,-0.9265254999999999,-1.7640042
3.8893902000000002,10.498124,0.28686368,0.10868165,-0.8509353000000001,-2.3729846
4.2809954,10.623562,0.4748085,0.23593360000000002,-0.6837850999999999,-2.8185322
3.8043482,9.640014,1.1797476999999998,0.3349287,-0.49427724,-3.025092
3.5941660000000004,9.370857,1.480335,0.43022367,-0.29518753,-3.173061
3.5682225,9.719166,1.611202,0.50103164,-0.14454816,-3.2268345000000003
3.5938980000000003,10.63287,1.4833803,0.52124256,-0.08386307,-3.2119293
3.5409763,11.574672,1.1416416,0.5031435000000001,-0.16742943,-3.145921
3.3406105000000004,11.183478,1.4553011999999999,0.44352308,-0.32286847,-2.9915466
3.290974,10.039692,2.0829458,0.38124973,-0.61299455,-2.828655
3.2189372000000005,9.190478,2.33133,0.30832985,-1.0548246000000001,-2.697162
3.2942204,8.767194,2.2399864,0.22155209,-1.4631094999999998,-2.5981669999999997
3.6456223,8.7737055,2.0904446,0.14224434,-1.6467705000000001,-2.5406582
4.428468700000001,8.822403,1.9017814,0.08953539,-1.5461521999999999,-2.5135186000000003
5.2696953,8.828791,1.9531994,0.06133087,-1.2123928999999998,-2.4698677000000004
5.9555097,9.009496,2.0511796,0.07941248,-0.7977026999999999,-2.3596678
6.102303,9.125634,2.2027516,0.12892747,-0.5193053,-2.1291795
5.7477407,9.236198,2.1698744,0.22155209,-0.42668065,-1.7900794999999998
5.582847,9.513504,2.2123093999999996,0.3386637,-0.30689868,-1.3956351
5.790722,10.231544,2.3268478,0.42757076,-0.11473794,-0.9846799
5.9164267,10.744086,2.4132404,0.49836132,-0.0029496064,-0.52314496
5.685778599999999,10.406532,2.4085095,0.52551866,-0.06257005,-0.11325441
5.407831,9.761294,2.2774317,0.5446998000000001,-0.15997688,0.26522022
5.386226000000001,9.662271,2.3425732000000004,0.5196718,-0.10515609,0.570234
6.0511627,10.981734,2.2094939,0.39563122,0.08487536,0.8145626
6.493937,11.576578,2.1673462000000003,0.26787314,0.39947096,1.0487858
6.357467,11.022071,2.2317982000000005,0.14063863,0.75612897,1.3958620000000002
5.3536553,10.329486,2.1094832,0.07517133,1.0382614,1.7653133
4.54317,10.550194,1.6689692999999999,0.029391345,1.3369048000000001,2.1208892
4.3334765,11.438911000000001,1.3853713,-0.011030481000000002,1.6786577,2.3679056
4.526382,12.556247,1.30891,-0.08449139,2.021999,2.595741
4.49452,13.411973999999999,1.2208992,-0.18617427,2.1982074000000003,2.7495742
4.342057,13.445807,0.9750243000000001,-0.29105112,2.2120478,2.8948902999999997
3.6411881,12.313082000000001,0.7069599,-0.35599482,2.1673324000000003,3.061517
2.8668457999999997,10.842899000000001,0.5462419,-0.41933279999999995,2.0603263,3.2068505000000003
2.3821924,9.787448,0.3168678,-0.49865803,1.8532604,3.2936108
2.1521863999999997,9.301530999999999,0.0066463040000000004,-0.5896769000000001,1.6089143,3.3330028
2.0741925,9.016506,-0.26774836,-0.67909014,1.3560685,3.278182
2.3417687000000003,8.897735,-0.479731,-0.7749262,1.1287568000000001,3.113685
2.557199,8.998521,-0.72356606,-0.8829969999999999,0.88655746,2.8464575
2.620607,8.945753,-1.0378195,-0.99530894,0.57248545,2.5201507000000003
2.6351923999999998,9.135613000000001,-1.291873,-1.1134851000000001,0.20198695,2.2023437
2.4374792999999997,9.383183,-1.5941169,-1.1922518,-0.21108012,1.8387741999999998
2.0956159,9.135613000000001,-1.6728288,-1.1778878000000002,-0.65132195,1.3516877
1.7658770000000001,8.82586,-1.5493933000000002,-1.0708991,-1.1160333,0.7858345
1.7336223000000002,8.914771,-1.4356399,-0.89203775,-1.52273,0.24232150000000002
1.8283943999999999,8.834825,-0.9129474,-0.6551442,-1.727684,-0.2676288
2.089937,8.408455,-0.07171113,-0.4055098,-1.6872272000000001,-0.84360486
2.9705912999999997,8.844919,0.26510516,-0.19523253,-1.4487455,-1.5478802
3.9041767,10.133248,-0.051360417,-0.026476644,-1.1820416,-2.2563965
4.644914,10.914849,-0.2776795,0.11990411599999999,-0.8866098,-2.919133
4.8769507,10.739173,0.28930575,0.24818581,-0.517176,-3.3098598
4.425529,10.284945,1.0673734,0.3376165,-0.16742943,-3.498303
4.015134,10.47765,1.3304292,0.41161844,0.030037116000000003,-3.534501
3.6550076000000002,11.062792,1.361707,0.4291939,0.08061676,-3.4621047999999996
3.3117267999999997,11.741280999999999,1.1098752,0.41695917,-0.1317549,-3.3114480000000004
2.6976332999999997,11.579547,1.0589553999999999,0.41001275,-0.5677382,-3.0953414
2.3705566000000005,10.597484,1.5501307,0.40629518,-0.944101,-2.9265854
2.813618,9.498277999999999,2.0794122,0.4079009,-1.0942167,-2.7509181000000003
3.3581648,8.718812,2.3553102000000004,0.36531487,-1.0628008,-2.5699275000000004
3.9647883999999998,8.62063,2.2191183999999997,0.30302405,-0.93984234,-2.4389752999999996
4.4053216,8.77859,1.9779553,0.23329817,-0.85732317,-2.379355
4.6899443,8.762606,1.7260567,0.18430677,-0.8594525,-2.3655145
4.911082700000001,8.865604,1.6210756000000002,0.13747959,-0.891392,-2.3633852
5.3211803,9.065578,1.7737395,0.08583529,-0.86264646,-2.3239932
5.779172,9.516492,2.0367856,0.052290063,-0.80302596,-2.1563194
5.822861,9.828773,2.1726612999999997,0.07838274,-0.7615046,-1.8140254
5.6900883,10.1127825,2.148212,0.1614255,-0.61777675,-1.3317386
5.810813400000001,10.58558,2.1205637000000004,0.26202628,-0.35800195,-0.787702
5.6703790000000005,10.611504,2.446606,0.3647738,-0.18978710000000001,-0.24844761
5.3068056,10.310678,2.5388978,0.42652357,-0.15997688,0.21624629
5.19152,9.95012,2.3006363,0.45048693,-0.07852236,0.6075142
5.7995133,10.746117,2.1088033,0.3615973,0.12852605,0.8960345999999999
6.4339666,11.360047,1.984889,0.25033256,0.44633305,1.1611327
6.3917046,11.302211999999999,1.9059473999999998,0.11512191599999999,0.738571,1.4730754
5.5384684,10.854908,1.7508606,0.04485496,0.9866345999999999,1.7898003
4.7995605,10.571464,1.5265718000000001,0.01452114,1.3023124,2.0399933
4.7095575,10.921505999999999,1.3415287,-0.015812684,1.6983625,2.2311068
4.844648,11.597542,1.4431098999999998,-0.09407324,2.1375222000000003,2.4253967
4.911752,12.533388,1.3619943,-0.21863739,2.4191136,2.5866826
4.704692400000001,13.139454999999998,0.8882870999999999,-0.36767107,2.5388956,2.726693
4.0593114,12.750963,0.42413762,-0.48904127,2.6080978,2.8592508
3.2225285,11.661736,0.17690277,-0.6082996,2.5814817000000003,3.0173426
2.4715154,10.640378,-0.19463903,-0.72699946,2.3775923,3.1578765
2.0156400000000003,10.195574,-0.31798828,-0.86805695,1.985277,3.2563655
1.8129374,9.82747,-0.56389195,-0.97825706,1.568475,3.2728589
1.8364388999999999,9.525245,-0.88392013,-1.0735346000000001,1.1383561000000002,3.1972687
1.9755707999999998,9.286638,-1.1505002,-1.1624416000000002,0.69759065,3.03703
2.1346127999999998,9.251167,-1.3888572,-1.2396201,0.22807963,2.779402
2.3010192000000003,9.483366,-1.6037511999999998,-1.3221219,-0.1727527,2.4578773999999997
2.378898,9.793578,-2.0079116999999997,-1.3716367,-0.6071302,2.0309525
2.089937,9.5033045,-2.2184002,-1.337027,-1.0441607,1.5683703000000002
1.7483993000000002,9.276593,-2.0875237,-1.2311203000000002,-1.4290406999999998,1.1275874
1.6393194,9.488078,-1.9004215,-1.0426596,-1.6978563000000002,0.70652676
1.7239401,9.118986999999999,-1.2558354,-0.75680965,-1.6989383999999998,0.2897072
1.8236156000000003,8.381103999999999,-0.34693897,-0.41558033,-1.4476632999999999,-0.18936822
2.3183916,8.592551,0.23447853,-0.13185963,-1.1735245,-0.8356113000000002
3.2349877,9.6815,-0.015705964,0.09756391,-1.0122210999999999,-1.5766083
4.241357,10.654886,-0.26243323,0.26258478,-0.8764869000000001,-2.3250577
5.077268599999999,11.068902,-0.09640971599999999,0.4180238,-0.65449846,-2.886129
4.853238,10.415036,0.66732144,0.5457819,-0.34842008,-3.2060475
4.4917617,10.064544,1.1733311000000002,0.6751457,0.009826204,-3.3279414
3.970506,9.781108999999999,1.7375296000000002,0.75871205,0.3569024,-3.2875019999999995
3.6102263999999997,10.170368,1.6256628999999998,0.75871205,0.5453456,-3.1677202999999996
3.375882,10.708086,1.1862886000000001,0.7113438,0.36168459999999997,-3.0170633999999996
2.7942727,10.374976,0.9070481,0.6671521,-0.13974851,-2.8249025000000003
2.3780360000000003,9.552097999999999,1.3268666,0.6181781999999999,-0.74127626,-2.6550822
2.7439563,8.978908,1.8344182,0.58410937,-1.1256152,-2.5065720000000002
3.2726536,8.80845,2.1390757999999996,0.5441937,-1.3060646999999999,-2.4187295
4.059924,8.927892,2.116551,0.4744503,-1.2719958999999998,-2.3947837000000005
4.7687040000000005,9.179369,1.9037064,0.3738495,-1.1346559999999999,-2.3915896
5.263298000000001,9.559951,1.7666911,0.28333676,-1.0308613000000002,-2.4011717
5.5400105,9.951212,1.7076883000000003,0.20404644,-0.9941221,-2.3644323
5.557344400000001,10.102965,1.8627272000000001,0.19018853,-0.9893398999999999,-2.2345624
5.536122,9.910597000000001,2.3486352000000004,0.21626374,-0.8818101,-1.9662703999999998
5.722477,10.088744,2.7060513,0.25354397,-0.6449166000000001,-1.5260286
5.760976,10.690197,2.7620373,0.29344222,-0.38940042,-1.0091493
5.782265,10.648394,2.7952017999999996,0.32754594,-0.17168804,-0.5481381
5.590222,9.960329,2.8347826,0.3552094,-0.00986111,-0.0988729
5.2882934,9.503065,2.6597283,0.32806954,0.060388394000000005,0.28759536
5.473882,10.374152,2.3554444,0.18062413,0.13065535,0.5675985
6.2693224,11.701392,1.9822936999999998,-0.008342674,0.29887018,0.8087331999999999
6.4961877,11.973527,1.8368986,-0.20210913,0.48998374,1.1068354999999999
5.6018953,11.213522,1.5635477,-0.29208085,0.65713394,1.4405948
4.612037,10.387407000000001,1.3140815000000001,-0.3043156,0.8833635,1.7562723999999998
4.381111,10.649199000000001,1.2081716,-0.3074921,1.2016941,2.0229762
4.575539599999999,11.579872,1.1653632999999999,-0.33304372,1.568475,2.2449472000000004
4.784065,12.537142,0.9215953000000001,-0.3825587,1.906493,2.4243495
4.542854,12.613306,0.47695372,-0.43739697,2.1268756,2.6021464
3.7243915000000003,11.531586,0.1301105,-0.46881288,2.2636921,2.800154
2.8393602000000002,10.358964,0.0072209123,-0.49221775,2.2748619999999997,2.9518754
2.2766273,9.610345,-0.3634973,-0.52202797,2.1455157000000002,3.0881507000000004
1.8726009,9.0540085,-0.4671375,-0.53639203,1.9198098000000001,3.1323423
1.8745067,8.742868,-0.7164026,-0.60507077,1.5525053,3.0977325
2.0659853999999997,8.785313,-1.0908175,-0.6913249,1.1096106000000001,2.9300587000000005
2.4386572999999996,8.987307000000001,-1.3825174999999998,-0.7828849,0.7199483,2.6622903
2.7812963,9.017425999999999,-1.601903,-0.8829446,0.34784412,2.3189492
2.9334428,8.811084,-1.8968015,-0.97717494,-0.010925761,1.9596206999999999
2.8195841,8.834059,-2.2287814999999997,-1.0293428,-0.40856412,1.5758228
2.407523,8.657528999999998,-2.2296627,-0.99633867,-0.78119195,1.2298113000000002
2.2073486,8.488125,-1.9713856,-0.86645126,-1.1229448,0.8390844999999999
2.4688146,8.823706,-1.580039,-0.6961071,-1.3310928,0.49359655
2.538007,8.867989999999999,-1.0638875,-0.43474406,-1.4354286,0.1529083
2.4890885,8.412975,-0.37513309999999994,-0.15632914,-1.4242411,-0.18563321
2.999389,8.414719,0.0316705,0.06724753,-1.3188406000000001,-0.67004937
4.0264726,9.622314999999999,0.01850239,0.21149899,-1.1873649,-1.2273853000000001
4.9022336,10.731913,0.045058876,0.2833542,-1.0542836000000002,-1.8246544999999998
5.5794,11.372707,0.07877882,0.33658674,-0.8269719000000001,-2.2957711
5.2805557,10.436124000000001,0.9256175999999999,0.3972893,-0.40591124,-2.5049662999999995
4.747022,9.9352665,1.6244371000000002,0.41271800000000003,0.06784095,-2.5369057999999995
4.6491857,10.238717999999999,2.0194802,0.41591197,0.39735909999999997,-2.4677036
4.3738523,10.407336,2.0112636000000004,0.39727184,0.34199727,-2.3223875
3.6814489999999997,10.306444,1.7898764999999999,0.34510395,-0.15465362,-2.1403322
3.2713223,9.853702,1.8664143,0.26260224,-0.6704682,-1.9422897000000001
3.2474952,8.697378,2.1188493,0.16200146,-1.1921471000000001,-1.7453293
3.5233455,8.041185,2.2665331,0.023055799999999998,-1.4125298000000002,-1.6053363999999999
4.316918,7.067664,2.2699043999999997,-0.051452305,-1.180977,-1.5105823999999999
4.7930193,6.6733484,1.9422243000000001,-0.090844385,-0.8578468,-1.4674728000000001
5.1111894,7.120298399999999,1.4852383,-0.103602745,-0.61617106,-1.4179578000000002
5.143482,7.4052753,1.5407166,-0.06527531,-0.35852554,-1.3577963
5.204027,7.455611,1.9828396000000001,-0.015777776,-0.13548991,-1.2673185
5.214370300000001,8.128066,2.128934,0.0044331364,-0.07054621,-1.1736118
5.2803545,8.747427,1.9787982,0.018273598000000002,-0.05297074,-1.0314896
5.3356605,9.037564999999999,1.8162318,0.04330162,-0.011972958,-0.87976813
5.6450777,9.591842999999999,1.8298596,0.07045894,0.14290756,-0.7301934
6.0816073,10.318014,1.9634848999999999,0.05873033,0.2509609,-0.5694311
6.1953797,10.6761,1.7467138,0.06831218,0.26054275,-0.32136747
5.9297379999999995,10.164181,1.7975858,0.12793264,0.18123499,-0.0371057
5.5540977,9.395833999999999,1.9489473000000002,0.21949259999999998,0.15301302,0.2263692
5.9400816,9.880985,2.0802262,0.20991075,0.25788984,0.41535345
6.7415256999999995,11.068146,1.9100941000000002,0.12791517,0.4101349,0.62402505
7.193867,11.317717,1.6701376,0.035325464,0.6794916,0.8774119
6.7644243,11.05379,1.3883401000000002,0.010297443,1.0276324000000001,1.1691263
5.946077,10.949316,1.1338844,0.013491395,1.3480923,1.4203838
5.4071894,11.447656,0.8950483,0.014032447,1.6797397,1.6663182
5.1240034,12.105831,0.94506806,-0.042917646,1.7808816000000003,1.8542378000000002
4.6395893,12.495032,0.69679886,-0.09827949,1.7510713,2.0341636999999997
3.9735224000000002,12.116058,0.6017299,-0.14247122,1.5445117,2.2289773999999998
3.1518803,11.051377,0.4360032999999999,-0.1674818,1.3007066,2.4626770000000002
2.4658363,9.583071,0.47223234,-0.1690875,1.1788128999999998,2.7070231
2.0455099999999997,8.393811999999999,0.44926715,-0.18931587,1.0915115,2.9103715
1.9343522000000002,7.9923625,0.19806752,-0.25691247,0.94671893,2.9976728
1.9888058999999998,7.8755255,-0.05630205,-0.35273105,0.7369826999999999,2.9337937999999997
2.2054717999999998,7.7390656,-0.15890796,-0.4858124,0.48839548,2.7426977000000003
2.4476116,7.611741499999999,-0.30294309999999997,-0.6306224,0.21689206,2.4504422999999997
2.7293613,7.3798013,-0.5934172,-0.75091046,-0.035395276,2.0575862000000003
2.8979513999999997,6.966207499999999,-0.7131177,-0.8323475,-0.23715533,1.5758404
2.9280223999999997,6.585625599999999,-0.72644866,-0.8547051999999999,-0.43038073,1.0429739
2.9228509999999996,6.212771400000001,-0.6685473000000001,-0.80573124,-0.64756954,0.48403215
3.3445084,6.3071413,-0.57298034,-0.7232295,-0.8014203000000001,-0.1068316
4.195657,7.227587,-0.45921746,-0.61463517,-0.824319,-0.74509853
4.8360476,8.036627000000001,-0.26310359999999994,-0.44748497,-0.7061428000000001,-1.3200100000000001
4.981242,8.104612,0.2069931,-0.22603759,-0.45699700000000004,-1.7884563000000002
4.8384137,8.065558,0.6999305,-0.03811799,-0.17540559,-2.1254096000000002
5.0180739999999995,9.232301,0.7079175999999999,0.10398672,0.08967502,-2.4613156000000003
5.0981846,10.423875,0.61551094,0.20886356,0.29302332,-2.7328017000000004
5.077259,11.475706,0.6263806,0.2706133,0.39842376,-2.8536308
4.639369,11.379057000000001,1.0701795,0.36215582,0.39522982,-2.7913575
4.178964,11.569711999999999,1.6424798999999999,0.44734535,0.36009634,-2.576298
3.5436964,11.605021,2.1359248,0.5064247000000001,0.29728192,-2.166931
2.612802,11.296159,2.362742,0.54422855,0.0678584,-1.6558986
2.2044756000000003,10.840715,2.3543525,0.5197416,-0.2616423,-1.2076806
1.9870724999999998,9.632429,2.3985496,0.4249702,-0.71678925,-0.81375974
1.8381531999999998,7.863678999999999,2.5209124,0.31585222,-1.2405801,-0.639157
2.2398713,6.790291000000001,2.3126453999999996,0.18011798,-1.6877334,-0.7397578
2.8632832,6.5988703,2.182152,0.056618482000000005,-1.8154914,-0.9643991
3.3978797999999997,7.1621203,1.6916854,-0.029059732,-1.6914683999999998,-1.2641071000000002
3.8616080000000004,7.6827440000000005,1.4666114,-0.06632251,-1.3646206,-1.5675325
4.324378500000001,7.840302,1.4815032,-0.056217055999999994,-1.0047686,-1.8177255
4.428325,7.996346000000001,1.8995117,-0.014695672,-0.57304394,-1.9593241000000001
4.664259400000001,8.203972,2.4040277000000003,0.08695231,-0.12482595,-1.9694470000000002
4.712661,8.208060000000001,2.8635035,0.21099286,0.30208158,-1.8214605
4.747453,8.625283999999999,2.7651784,0.32171655,0.6550045999999999,-1.5462395
4.6264305,9.517891,2.3459346,0.3973242,0.7609461,-1.2231092
4.49271,10.271758,2.059904,0.41488220000000003,0.6055071,-0.8978671999999999
4.5649767,10.614971,1.8178886000000003,0.39891246,0.25843089999999996,-0.5806011999999999
5.0249987,10.759839,1.721929,0.38453093,-0.1296256,-0.3064449
5.8152285,11.262029,1.7079276999999997,0.33236304,-0.32339206,-0.018989183
7.0144844,12.504351,1.8657823,0.21790436,-0.32604495,0.30730012
7.8765597000000005,12.567586,2.1326207999999998,0.12315043,-0.18018779,0.70973814
7.6301103,11.187415,2.2756119999999997,0.12049753,0.26427776,1.1824431
6.951353999999999,9.971983999999999,2.3618798,0.15083136,0.7944739000000001,1.5236725
6.5108976,10.218672999999999,1.9007664,0.12901473,1.352351,1.7866412
6.336236,11.216596000000001,1.3927263,0.011903145,1.8351789,1.9883838
6.0478879999999995,12.212172,1.0192786,-0.172264,2.1162467,2.1661804
5.446914,12.696959,0.7123611999999999,-0.32183870000000003,2.2062008,2.3333306
4.4525447,12.556746,0.6132890999999999,-0.46664867,2.0353331999999997,2.5526487999999996
3.2664957,11.773334,0.51195693,-0.574702,1.7590474999999999,2.8496864
2.1371794,10.616407,0.52984643,-0.65720373,1.3321226000000002,3.2180555
1.2899002,9.339589,0.44214204,-0.6960722,0.9451306999999999,3.5635436
0.8453351,8.352891,0.20182163,-0.71364766,0.5586624,3.8493934000000003
1.0937288,8.136091,-0.13032117,-0.70830697,0.3084695,3.967046
1.6666995,8.300573,-0.4345476,-0.69127256,0.17964675,3.8754861000000003
2.3497844,8.662002000000001,-0.7543842,-0.7024600999999999,0.15196581,3.5438387000000002
2.941497,8.993647,-0.9602568000000001,-0.76581556,0.13332570000000002,3.0376060000000003
3.2542467,8.966745,-1.3108063,-0.8472526,-0.012514011,2.4216967
3.239211,8.368692,-1.3852563,-0.9148492,-0.29358184,1.7557663000000001
3.2017946,7.691756,-1.5175505,-0.9441184000000001,-0.5932723000000001,1.0648079
3.3897779999999997,7.2628392999999996,-1.3195211000000002,-0.9052848,-0.7620281999999999,0.30145326
3.856082,7.3991656,-1.0061489,-0.8089251999999999,-0.73754126,-0.4150393
3.8468977999999994,7.4908442,-0.4904187,-0.64231604,-0.61350065,-0.95429367
3.6454306000000005,7.62672,0.13965857,-0.4815538,-0.47244316,-1.4041173
3.8266620000000002,8.49773,0.2812708,-0.34101987,-0.37662458,-1.8879925
4.085810700000001,9.666196000000001,-0.07294654,-0.1855634,-0.44422120000000004,-2.4038072
4.1973805,10.271107,-0.22922087,-0.026947884,-0.6449166000000001,-2.9089925
4.3913199999999994,10.479842,0.084218435,0.14179055,-0.823778,-3.3146245000000003
4.4933996,10.266691,0.6877871,0.30042353,-0.8056789000000001,-3.6090093
4.845308999999999,10.742218,1.0565708,0.43352234,-0.5341929,-3.7937174
4.9638987,11.544841,1.1072129,0.51070076,-0.13920747,-3.8187279999999997
4.944046,12.340712,0.8888425999999999,0.56660366,0.23020893,-3.7575017999999996
4.589043,12.439266,0.6447298,0.6474996999999999,0.5123414000000001,-3.5903692000000005
4.015105,11.150324000000001,0.8825793,0.75344115,0.64915776,-3.3274004
3.4407551,9.696766,1.2416713,0.8556302,0.57622045,-2.9829946
2.808935,8.722355,1.3138803,0.9344144,0.26427776,-2.6667757
2.457217,8.436266999999999,1.2513056,0.9770004000000001,-0.24567254,-2.3819904
2.6134436,8.475703999999999,1.2912217,1.0121338,-0.57890826,-2.1482909
3.4485507000000006,8.188419,1.9255798,0.991923,-0.56400317,-1.9178026999999997
4.2081256,8.259171499999999,2.0628633,0.9482548000000001,-0.47883108,-1.7868506000000002
4.8054023,8.999622,1.7883251,0.8668178,-0.43837434,-1.7368119999999998
5.204228400000001,9.3022785,1.6015103000000002,0.79388046,-0.40591124,-1.6739976000000003
5.29991,9.322436999999999,1.7815638999999999,0.74118894,-0.32391566,-1.5755261
5.735818,9.770028,2.2460103,0.6347239,-0.17327629,-1.4195461
6.003154299999999,10.946071,2.3479647999999997,0.48567277,-0.12217305,-1.1480601000000001
5.773225,11.397903,2.250454,0.39357173,-0.26803023,-0.7429691999999999
5.214964,10.862713000000001,2.4171188,0.34726816,-0.56665605,-0.19626227
4.4576206,10.555404,2.5454772,0.30574676,-0.8812690999999999,0.38875464
4.02223,11.360286,2.6519709,0.17373008,-1.1128219,0.8140739
5.1622725,12.367546,2.601396,-0.0013962634,-1.0915289,1.2053418
6.0860129999999995,11.963144999999999,2.7314873,-0.16694075,-0.7013431,1.5705171
6.659491,11.304922999999999,2.6483414,-0.26064748,-0.09342747,1.9324808999999998
5.962788,11.039156,2.3131049999999997,-0.29150490000000007,0.5315051,2.3040439999999998
5.157992,11.380569,1.6584443,-0.34847245,1.1229098999999998,2.5696830000000004
5.09579,12.245758,1.3441718999999999,-0.47249553,1.6610996999999998,2.7895422
4.9438252,13.155467999999999,1.2289054,-0.6156998,2.0539558,2.9715977000000002
4.693746,13.39734,1.1148168999999999,-0.71364766,2.3893209,3.1068082
3.8595872000000004,12.666754,0.8722076999999999,-0.82650065,2.2871144,3.277135
2.7096522000000003,11.655577000000001,0.35073137,-0.8930326,2.0997357000000005,3.4746363
2.2924863999999996,10.722614,0.0009576807000000001,-0.9404183,1.8910643,3.5598085
2.1959042999999996,10.104258999999999,-0.45139322,-1.0080149,1.6254426000000002,3.5853599999999997
2.1620790000000003,9.902868,-0.82198685,-1.086799,1.3773790000000001,3.5347980000000003
2.4346156000000003,9.8784,-1.2119256999999999,-1.1773118999999999,1.1404854,3.33782
2.7343604999999997,9.769608,-1.5035969,-1.2678071000000002,0.92488486,3.084433
2.7013392000000005,9.674317,-1.8029106,-1.3683903999999998,0.6204122,2.7650554
2.5205292999999998,9.507394999999999,-2.005958,-1.4487978000000001,0.27970648,2.3785696
2.3574745999999998,9.465361999999999,-2.327595,-1.4945778,-0.1796642,1.8877655
2.051218,9.064668,-2.3005117999999998,-1.4301576999999999,-0.591143,1.4443473
1.9858561999999997,9.080095,-1.9359993999999998,-1.3119988,-0.94940674,0.93329734
2.2198465,9.509922999999999,-1.7510041,-1.1171503,-1.2373861000000002,0.42760566
2.1432702999999997,9.040697,-1.1808203000000002,-0.807878,-1.3486508,-0.008360127
1.9846686999999998,8.116315,-0.29664159999999995,-0.43950883,-1.2736017,-0.48052403
2.633143,8.469259,0.22118592,-0.13554227,-1.1154921999999998,-1.1411312
3.8033523999999996,10.096779,-0.06592674,0.11250392,-0.9770877,-1.8810634999999998
4.727667299999999,10.972483,-0.26879224,0.29881779999999997,-0.8083318,-2.5746922000000003
5.227538,10.881762,-0.10643663,0.48406705,-0.5256757,-3.0559144
4.661798,9.952467,0.6520752,0.6410943,-0.19137534,-3.301849
4.2982144,9.565064999999999,1.2201905,0.7576823,0.1338493,-3.384368
3.8469746,9.676769,1.5478129999999999,0.8114385000000001,0.35636133,-3.3508226999999997
3.3341269999999996,10.346179,1.0595396000000001,0.7725873999999999,0.265866,-3.2629976000000003
2.9022226000000004,10.725497,0.50648856,0.75661767,-0.18072884,-3.1629205000000002
2.6275882999999998,10.174218,0.66104865,0.77045816,-0.71678925,-3.020781
2.6897707000000004,8.970806,1.7646032999999999,0.7906865,-1.0468136000000001,-2.8802470000000002
3.3328532999999996,8.326115,2.590057,0.80185664,-1.1303973999999999,-2.7822993
4.0734086000000005,8.4515505,2.5266201,0.77684605,-1.0234087,-2.7322604999999998
4.900117,9.178575,2.161064,0.74864155,-0.73541194,-2.7194848
5.389434,9.672125,1.8924824,0.75447094,-0.30689868,-2.658817
5.4609537,9.41629,2.1427817000000005,0.7683114000000001,0.038571775,-2.5129599999999996
5.220145,9.247011,2.4887152,0.7757814000000001,0.14983651,-2.2851071
4.891153,9.737189,2.6526508,0.73745394,-0.04925319,-2.0418432
4.724871,10.198322000000001,2.5970192,0.6565405,-0.42825145,-1.7059370999999999
4.599491,10.5662155,2.599854,0.5873381999999999,-0.6555631,-1.338109
4.9748925999999996,10.867519999999999,2.7909687,0.50960124,-0.644393,-0.9335416999999999
5.3404775,10.869044,2.9365554,0.41591197,-0.665145,-0.5422738
5.209850299999999,10.570477499999999,2.8775623,0.31691688,-0.8051553000000001,-0.16006415
5.204314,9.893541,2.7563869999999997,0.27433085,-0.79290307,0.17048377
5.505103,9.768601,2.749348,0.18968238,-0.5443158,0.45261624
6.572974,11.417938000000001,2.6969819999999998,0.016126841,-0.09822713,0.69055694
7.199413000000001,12.039905000000001,2.6461002999999996,-0.14618878,0.40852922,0.9860063
6.5795536,11.3017235,2.3786201,-0.2515892,0.84238315,1.3746038999999999
5.3176559999999995,11.01507,1.8206563999999998,-0.33997267,1.1458087,1.7541431
4.590163700000001,11.392694,1.4373542,-0.44697879999999995,1.3651267,2.099631
4.388571700000001,12.11037,1.2982989999999999,-0.58910096,1.479568,2.3929336
4.363078,12.911537,1.2394495,-0.72696453,1.5136368,2.6314330000000004
4.247084,13.211837,1.0026342,-0.8142659000000001,1.83942,2.8156002
4.0222206,12.593406,0.8529296000000001,-0.8824209999999999,1.8953228,2.9944612999999998
2.889897,11.494361,0.34104925,-0.9239424,1.8277088,3.2015447999999997
2.171062,10.534325,0.32123482,-0.94364715,1.6062614,3.3836
1.8106008000000002,9.543555,0.19107644,-0.9303129000000001,1.3991956,3.4905887000000004
1.8092791000000001,8.918429,-0.14360422,-0.96385807,1.0505136,3.5278513
1.9861243999999998,8.716273,-0.55601984,-0.98729783,0.7167544,3.4389616999999997
2.4451215,8.912569,-0.87392193,-1.0144203,0.53256977,3.218579
2.94822,9.095736,-1.1122983,-1.0511943000000001,0.42929864,2.9188712000000003
3.1913560000000003,9.248839,-1.3982137,-1.1150385,0.24031438,2.5137804
3.226608,9.438288,-1.7162117,-1.1922343999999998,-0.04605924,2.0474631999999997
3.0243747,9.494187,-1.966693,-1.2119392,-0.32339206,1.6237322
2.56871,9.302317,-1.8765657,-1.1464718999999999,-0.62894684,1.1653912
2.3416154,9.651161,-1.6980828000000001,-1.0266899,-0.92120224,0.6303955
2.11635,9.664138000000001,-1.5135952,-0.7850142,-1.1831063,0.09435249999999999
1.7249553,8.642503,-0.74574596,-0.46774822,-1.3071294,-0.32190853
1.8748993000000003,7.968583,0.11722969,-0.1552645,-1.2666727,-0.80951864
2.89866,8.754667,0.39435375,0.07094763,-1.0819645,-1.4472444
4.010355000000001,9.970336999999999,0.02030283,0.24502677,-0.85039425,-2.1792006
4.7387,10.600519,-0.34177706,0.3562566,-0.6332055,-2.772211
4.9226418,10.579087,-0.14090356,0.45848054,-0.37716565,-3.166132
4.548916,10.238507,0.59816736,0.52820647,-0.14720106,-3.3684156
4.240705999999999,10.523244,0.9399827,0.57131606,-0.017837266,-3.4434648
3.8952706,11.194751,1.0581988000000002,0.5415059,-0.056705747,-3.42006
3.7015507000000003,11.752791,0.9014744,0.50584877,-0.32606240000000003,-3.3295472000000004
3.2170122,11.269977,0.9120472,0.45155159999999994,-0.8413533999999999,-3.1666555
2.7099203999999997,10.132712,1.2186582000000001,0.3658559,-1.3805903,-2.961178
2.71875,9.04155,1.6234603,0.29185396,-1.7106321,-2.7509181000000003
3.3628763999999998,8.314871,1.8911798999999998,0.25193828,-1.7532182,-2.6055846000000003
4.1777,8.103377,1.9624122,0.23221606,-1.4838790000000002,-2.5124364
5.016159,8.189309,1.8839303,0.22317526,-1.0069153,-2.443234
5.778885,8.503150999999999,1.8537441000000003,0.21998130000000002,-0.5187642,-2.3894606
6.28319,8.956067,1.8600265999999999,0.2125462,-0.2403493,-2.2771485
6.158078,9.384994,1.9619526000000003,0.21944025,-0.19032815,-1.973723
5.669297,9.377466,2.095951,0.2561969,-0.29571113,-1.4898305
5.21957,9.025346,2.3712845000000002,0.3567802,-0.3319267,-0.9692337
4.882783,9.402491,2.5445287,0.44144613,-0.28241172,-0.5603903
5.177700499999999,10.839192,2.2650871,0.45048693,-0.26485372,-0.2889218
5.749091,11.459377,1.8539166,0.37966147,-0.32447416,-0.020629792
6.097926,10.895667,1.8455273,0.32696998,-0.38035959999999996,0.17737779999999997
6.0453496,10.1035595,1.9674784,0.31311208,-0.28134707,0.34133404
6.3310260000000005,10.458169999999999,2.1068113,0.22849850000000002,0.0779464,0.4829326
7.035515299999999,11.4140215,2.0129585,0.11030481,0.62624156,0.70757395
6.796036999999999,11.035623,1.9471276999999998,0.017139133,1.0265503,1.0242988000000002
5.827104,10.762684,1.7319751,-0.05841617,1.3720382,1.4017262
5.135619999999999,11.374460000000001,1.3580966,-0.13348278,1.7095325000000001,1.7610371999999999
4.913869,12.419336999999999,1.0837594,-0.24525367,2.0454211,2.0783205000000002
5.02496,13.497570000000001,0.9042038,-0.37463492,2.3461938,2.292298
5.064771,14.033968,0.71465003,-0.5119749,2.5745525000000002,2.4796765
4.505054,13.557866,0.38382882,-0.6115109999999999,2.781636,2.6532147
3.3210163,11.935928,0.05173391,-0.7078532,2.711369,2.9002311
2.025983,10.431221,0.14970465,-0.7589739000000001,2.4702167999999998,3.1142084999999997
1.3536241000000002,9.2074,-0.10578541,-0.8558571,1.9102105,3.3250093
0.89539313,8.689055,-0.23998520000000004,-0.9335766,1.2000883999999998,3.4703428999999995
1.0194224,8.465102,-0.64815825,-0.9772273000000001,0.6832090999999999,3.4863126
1.7670071,8.620046,-0.7736528,-1.0081022,0.37179002,3.3484316
2.5214105,8.940112,-1.0775248,-1.0517528,0.1993166,3.0040257
3.019893,9.175730999999999,-1.3236104,-1.1289488,0.07209955,2.5675015
3.1704497000000003,9.206758500000001,-1.6659716,-1.2231791,-0.079063416,2.0894732
3.1545522,9.443153,-1.8948,-1.3131334,-0.22759093,1.5715294
2.8213847000000003,9.611399,-2.1151720000000003,-1.3365557,-0.4575555,1.0604969
2.1916234,9.597091,-2.024738,-1.2593771999999999,-0.77482146,0.5723458
1.8192389,9.482178999999999,-1.6843593000000001,-1.0666579999999999,-1.0548246000000001,0.14116223
1.5562120000000002,8.6715975,-0.8877316999999999,-0.7355689999999999,-1.157031,-0.23890066
1.5461850000000001,7.92678,0.11048762,-0.38262853,-1.1043222,-0.6690195999999999
2.3899114,8.885276,0.34158555,-0.0856084,-1.0159736,-1.2726766
3.6609643,10.609148,-0.110909,0.15978489999999998,-0.89779735,-1.9689583
4.7045107,11.192749000000001,-0.42345768,0.36206856,-0.6965609,-2.5566456000000004
4.9404736,10.520611,0.06413587,0.57445765,-0.34737290000000004,-2.9393787000000002
4.579591000000001,10.29386,0.72286695,0.7256381,0.020978857000000004,-3.1363566
4.320557,10.632745,0.9774089,0.8608486999999999,0.30365238,-3.1725547
3.7445793,10.924033,1.1214823999999999,0.9231221,0.38296014,-3.0916414
3.4022946000000003,11.495491000000001,0.91876054,0.94443256,0.24403194,-2.9654715
3.1327937,11.288948,0.9922242,0.94335043,-0.04553564,-2.7924745
2.6437638,10.012159,1.4275093,0.9252688,-0.43359214,-2.5438697
2.4376612,8.707941,1.9524139999999999,0.9066287000000001,-0.79878485,-2.3336097999999996
2.5950656000000003,7.911132,2.1413262000000004,0.88479465,-1.0372666,-2.1579425
3.1398422999999998,7.703085400000001,2.1153922,0.85498446,-1.0713354,-2.0296433
3.700277,7.740138000000001,2.06882,0.79004073,-0.8860861999999999,-1.9135964
4.173916999999999,7.718341400000001,2.2820957,0.7086037,-0.7476816,-1.8539759999999998
4.528469599999999,7.954639,2.1479627999999997,0.6431189,-0.73755866,-1.8811333
4.9925809999999995,8.779786999999999,1.9539461999999999,0.5606171999999999,-0.718936,-1.9396892
5.4556484,9.539026,1.9569151000000002,0.48556805,-0.6348286,-1.9508592
5.73691,10.147048,2.336262,0.40198424,-0.5012061999999999,-1.8513230999999999
5.8706974999999995,10.715786,2.8238652,0.32532936,-0.35109043,-1.650104
6.067874400000001,11.490665,2.9551152999999997,0.25504497,-0.19458675,-1.3227152
6.057263400000001,11.858424000000001,2.9561496,0.2364223,-0.035953782000000004,-0.80902994
5.540547,11.203714,3.145033,0.27420866,0.099239424,-0.22293091
4.844859,10.464002,3.0715694,0.28166124,0.11095058,0.31415927
4.164924,10.504723,2.9926180000000002,0.170955,-0.08653343,0.6889164000000001
4.921186,11.805617,2.4830172000000004,-0.05953318,-0.20045106,0.9183399
6.0586614999999995,12.064985,2.2717814,-0.2926917,-0.09079203,1.1073241000000003
6.329982,11.320331,2.0289422999999998,-0.42203808,0.17057103,1.3607111
5.5180798,10.289474499999999,1.7353843,-0.45505969999999996,0.55330426,1.6162273
5.110998,10.451687,1.3735918,-0.46727700000000005,1.1394033000000001,1.8387393
5.1554345999999995,11.275713,1.3026372,-0.5013633,1.7201616000000002,2.0144067
5.2855926,12.459416000000001,1.1444858,-0.5796064000000001,2.2727152999999998,2.1714512999999998
5.1510773,13.332351999999998,0.8468196,-0.6727895,2.5969102000000004,2.3321962000000003
4.342105,13.039225,0.394756,-0.7606145000000001,2.6410847,2.5132043
3.2759,11.838044,0.09968498,-0.83301073,2.5330312000000004,2.7554038
2.0387106,10.550979,-0.06680781,-0.91127133,2.1444337000000004,3.0380597000000003
1.3416531999999999,9.57536,-0.23163423,-0.96980965,1.6371188,3.230779
1.1890180000000001,8.813467999999999,-0.35901532,-1.0060252,1.1383386999999998,3.3675778
1.5182878999999998,8.591439,-0.5280843000000001,-1.0352944,0.7976504,3.3883297
2.0557284,8.793194999999999,-0.74672276,-1.0656457000000001,0.4963542,3.2813410000000003
2.4510495999999997,9.014151,-1.0711659,-1.0933266000000001,0.22965042,3.0396655
2.883002,9.212964999999999,-1.3779875,-1.1438888,-0.006143559,2.6995007999999996
2.9706392000000004,9.269669,-1.6205585,-1.180628,-0.2409078,2.3433838
2.9994845000000003,9.493115,-1.801407,-1.1891452,-0.5091998,1.9755381
2.6976619,9.485463000000001,-1.7686925,-1.12099,-0.77642715,1.6066453
2.4773283,9.417631,-1.5451316000000002,-0.99272585,-1.0026567,1.1291407
2.4607987000000002,9.353667,-1.2680458000000001,-0.78136647,-1.1724771999999999,0.6010914
2.3011632,8.888761,-0.70536053,-0.51309186,-1.2533908,0.13529792
2.1380796,8.237184,-0.007690176,-0.24267058,-1.219322,-0.34112459999999994
2.7137892000000003,8.567909,0.38559097,-0.035604715,-1.1080571000000001,-0.9676629000000001
3.5841966,9.703057000000001,0.15905161,0.121963605,-1.0143679,-1.6761968
4.2374019999999994,10.374545,-0.09964667,0.24492206,-0.9510299000000001,-2.34108
4.552009,10.395825,0.13720691,0.38385025,-0.8280540000000001,-2.8063323
4.3184886,9.889768,0.917573,0.49617964,-0.63376397,-3.1086757
4.323459,10.021305,1.3738503,0.58294,-0.38889426,-3.2992482000000005
4.086366,10.342568,1.6734224999999998,0.6393839,-0.16851154,-3.3594098
3.9721338999999998,11.107372,1.5018348999999998,0.63245493,-0.064175755,-3.3689915999999998
3.9131693999999997,11.657732000000001,1.1195287,0.57389915,-0.19832176,-3.322147
3.5197926,11.107965,1.1009306,0.46211082,-0.47671923,-3.1943889
3.2649536,10.044193,1.6078596,0.31677726,-0.9563531999999999,-3.0171158
3.035982,8.980383,1.9039074,0.21298252,-1.5317882,-2.8994806
3.2578955,8.450171000000001,1.9587058999999998,0.11555825,-1.8964398999999998,-2.8132439
3.7615112999999996,8.647407000000001,1.7672178,0.027209682000000002,-2.0193982,-2.7440414
4.560303,8.887141999999999,1.9339116000000003,-0.045186576,-1.8831229999999999,-2.6913326
5.7058134,9.071927,2.1335115,-0.0707382,-1.4945254,-2.6269299999999998
6.355236,9.565842,2.1867776,-0.04464552,-1.0745294,-2.4677734
6.4286129999999995,9.835600999999999,2.2030103,0.011763518999999998,-0.8003731,-2.163807
6.1323647,9.7339525,2.2750757,0.101717785,-0.5549798,-1.7038776999999998
5.892638,9.681338,2.4692263999999997,0.20073032,-0.29201102,-1.2349077
6.004753599999999,10.157688,2.3946902999999997,0.26460937,-0.08866273,-0.81969386
6.0797305,10.530839,2.0579793,0.30133109999999996,0.019390607,-0.41139156
6.0635650000000005,10.102477,1.9074316999999998,0.31625366,0.08379326,-0.043022364
5.981166,9.722288,1.7929794,0.33487633,0.17854719,0.26623252
6.0833597,10.311808000000001,1.8343033,0.27527332,0.3361155,0.5116433
6.551723,11.414453,1.5839655000000001,0.18954276,0.57726765,0.7825882
6.4432279999999995,11.257699,1.5921154,0.08042477,0.8466243,1.1264878999999999
5.651973,10.579872,1.5182207,0.01441642,1.0904118999999999,1.5065508
4.846439,10.437187,1.2985958,-0.031869713,1.3581803,1.854709
4.7287016,11.312305,0.96389604,-0.09044296,1.6828988,2.1267185
4.9329557,12.3565035,0.9082261,-0.18730873,2.0113523,2.326873
5.0559797,13.397579,0.72926426,-0.3219958,2.210442,2.4913702
4.742952,13.615892,0.35071224,-0.45668286,2.2679331,2.6462681
3.9247382000000006,12.505806,0.12831964,-0.55089575,2.2631335,2.8501575
2.9032185,10.819512,0.13186306,-0.6382145,2.1651857000000003,3.0817103
2.0641563,9.5362015,0.062632315,-0.7127401,1.9272275,3.2940996
1.5775012,8.797982000000001,-0.13208331,-0.7787310000000001,1.5498174,3.472961
1.5812458,8.612097,-0.36617878,-0.8245110000000001,1.2000883999999998,3.5325812999999995
1.7870418000000001,8.819875,-0.61007136,-0.8548623,0.8796285,3.4777606
2.1440363,9.099125,-0.86505383,-0.8729439,0.5900435,3.2142508
2.6600442,9.637208,-1.1901671999999999,-0.9144827,0.29511774,2.7628388
3.0198162,9.950771000000001,-1.4237552,-0.9778207,0.017784905,2.290675
3.3609421000000004,9.9365015,-1.6438205000000001,-1.0379822,-0.23877849,1.7807071
3.3833518,9.664176,-1.8020294,-1.0198656,-0.39528218,1.3074785
2.9702275,9.263606,-1.5422777,-0.91980594,-0.40751693,0.8283681999999999
2.6322525000000003,9.596229,-1.2425332,-0.79044217,-0.387306,0.42060688
2.16613,9.736892999999998,-0.9603908999999999,-0.6110572,-0.43306854,0.06501351
1.5806423,8.9451685,-0.5987610999999999,-0.37468728,-0.54166293,-0.24371777
1.4796166000000002,8.464557000000001,-0.07707414,-0.150587,-0.6646388000000001,-0.6993883000000001
2.2967196,9.856459,-0.18864393,0.0037699111,-0.79717916,-1.2609829
3.1443436,10.877289,-0.33486265,0.14695673,-0.96699965,-1.8816743999999999
3.8627286,11.380061999999999,-0.3468049,0.29014352,-1.0133207,-2.4022887
4.037878500000001,10.885047,0.27882874,0.45144686,-0.8727868000000001,-2.7887568
3.9338267,10.613028,0.8529200000000001,0.59571576,-0.6406755000000001,-3.0570487999999996
3.8739044999999996,10.823391,1.0736176000000002,0.7074866999999999,-0.39262927,-3.193324
3.5600724,10.822969,1.1628254999999998,0.7921351,-0.20258036,-3.1890657000000004
3.2603471,10.738050999999999,1.1630075,0.8464497999999999,-0.08705702400000001,-3.110805
2.955594,10.238555,1.081595,0.89221233,-0.08653343,-3.0000987
2.6093732999999997,9.35339,1.1882039,0.9268221999999999,-0.17544049,-2.87447
2.5181544,8.45903,1.4001962,0.92310464,-0.28508207,-2.7679875
2.8003156000000002,7.985036,1.6397887,0.8858244000000001,-0.44638540000000004,-2.6711216
3.0381846,8.204785000000001,1.4755465,0.8310036,-0.70403093,-2.651417
3.687808,9.158023,1.149801,0.7777536,-0.8403062,-2.7270072
4.763082499999999,10.031361,1.2958089,0.7202974,-0.7567224,-2.8190906000000004
5.7770457,10.306386999999999,1.9923205000000002,0.6510776,-0.46767843,-2.8457242999999997
6.414411,10.434046,2.6530244,0.54674184,-0.16531758,-2.7642697999999997
6.5237110000000005,10.65934,2.8607742999999997,0.42641884,0.044924773,-2.525788
6.0113807,10.509885,2.7530064999999997,0.40620792,0.10295697,-2.0546889999999998
5.138072,10.075728999999999,2.7292848,0.4349535,0.16044812,-1.3732948
5.01546,10.4679,2.8562347999999997,0.40674898,0.29619983,-0.73504543
5.271083999999999,11.246725,3.0885587,0.34391713,0.33131585,-0.12341223
4.964387,10.993724,3.0898514,0.2965489,0.11307988,0.41050145
4.5354133,10.374439,2.8053532000000003,0.21724114,-0.099309236,0.84116143
5.0727386,10.76866,2.550093,0.06497861,-0.08653343,1.0593973
6.260157599999999,11.972081,2.2911935000000003,-0.15538666,0.22378612,1.1914141000000003
7.086492,12.135586,2.1208317,-0.35021776,0.7901978000000001,1.3644286
6.725264500000001,11.362948,1.8843133,-0.44495425,1.3752147,1.7093755000000002
5.359717400000001,10.927894,1.50647,-0.50083965,1.828756,2.0303763999999997
4.59115,11.5667515,1.1361828,-0.60147536,2.2365172,2.3316553
4.215787000000001,12.616045,0.9611091999999999,-0.74944437,2.460635,2.613264
3.8131779999999997,13.74177,0.6955539000000001,-0.94535756,2.4691348,2.8831444
3.4850574,14.340960999999998,0.14851712,-1.1236778,2.5069385,3.0875573
2.993394,13.971785999999998,-0.22291933,-1.2658,2.179567,3.2733476
2.3377368,13.039369,-0.5632503000000001,-1.3722826000000001,1.7590126,3.4383682999999996
1.8864012,11.944174,-0.6277596999999999,-1.4239093999999999,1.3321049999999999,3.6145767999999996
1.4685363,10.808641999999999,-0.6160568000000001,-1.4404203000000002,0.883346,3.7747982
1.2658719999999999,10.159815,-0.85186654,-1.4329677,0.43938664,3.8493237000000002
1.3666965,9.481689999999999,-1.0968316999999999,-1.3871877000000001,0.11946779,3.7758627000000002
1.8632921999999998,9.04992,-1.2627403,-1.3366255,-0.07162831,3.5251288
2.4113634,8.780917,-1.373678,-1.3014746000000001,-0.14561282,3.174876
2.5846364,8.671913,-1.4103379999999999,-1.2838991000000002,-0.17596409,2.7894726000000003
2.6761906000000004,8.912617,-1.5569015,-1.2780521999999999,-0.22865559,2.3465602000000003
2.6260562000000003,9.252182000000001,-1.7838622,-1.226949,-0.32501522,1.8536270000000001
2.4315702999999997,9.257114,-1.7688650000000001,-1.1130314,-0.43413320000000005,1.3308833999999998
2.2600498,9.23527,-1.4180378999999999,-0.92352355,-0.5863783,0.7581187
2.131577,9.15875,-0.9576710999999999,-0.6642898,-0.7338411,0.25026277
1.8947330000000002,8.343162,-0.28517815,-0.31028464,-0.810496,-0.23040092
1.9804262,7.791613000000001,0.46082637,-0.0015358897,-0.81103706,-0.7483623
2.857767,9.002524000000001,0.42435790000000007,0.22947589,-0.8195368000000001,-1.4472969
4.081702,10.472487,-0.02894111,0.38650316,-0.8190132,-2.2170392999999997
5.089843,11.015857,-0.25781724,0.51106733,-0.7620631,-2.9149267999999995
5.053001,10.353917,0.47046062,0.57548743,-0.63376397,-3.3056536
4.760793700000001,9.84695,1.2006443000000002,0.60423297,-0.47300169999999997,-3.580857
4.558177,9.939825,1.5918089,0.60477406,-0.31011009999999994,-3.7512012
4.414094,10.598028999999999,1.5755571000000002,0.55738837,-0.28136453,-3.8512782999999997
4.0761285,11.147001,1.2353793,0.5174727,-0.48523644,-3.8640542
3.6526132000000007,10.812837,1.2329564,0.48073348,-0.80730206,-3.7756882000000007
3.4263230000000005,9.840245,2.0329453999999996,0.41100758,-1.0090446,-3.5654285000000003
3.4648314,8.930708000000001,2.7500088,0.33965853,-1.1639601000000002,-3.3253410000000003
3.4441931000000006,8.467047,2.7507942,0.2981546,-1.371567,-3.1549968999999995
3.6890817000000005,8.540529,2.2939993999999997,0.23746950000000003,-1.5408465,-3.014463
4.3404865,9.165157,2.0980293999999997,0.15866788,-1.5387171999999998,-2.843054
5.1149726,9.488662,2.3219543,0.1123643,-1.3231167,-2.606178
5.657824,9.534334,2.4820306,0.13845697,-1.124568,-2.3070111
5.646131,9.598353999999999,2.4220989,0.19807741,-1.0170382,-1.934907
5.614336,9.924732,2.3162849999999997,0.27314404,-0.895127,-1.5335336000000002
5.6937275000000005,10.081619,2.4602049999999998,0.36629224,-0.70348984,-1.1518475000000001
5.903230000000001,10.372705999999999,2.4182202999999998,0.42697734,-0.5224992,-0.8218232
6.1786394,10.891003,2.083262,0.4349535,-0.42402774,-0.53436744
6.310608,10.679059,1.961445,0.42697734,-0.34576717,-0.26499334
6.139087,10.135566,2.0445716,0.43922955,-0.25261897,0.0043458696
6.0394025000000005,10.338508000000001,2.1046276,0.41153118,-0.046076692999999995,0.24122195
6.662738,12.12213,1.9604872,0.31677726,0.2860769,0.5302834
6.76836,12.467891999999999,1.9059283,0.20605357,0.6384764,0.9140813
5.8237424,11.338135000000001,1.9005461,0.12355186,0.9014450999999999,1.4016913
4.5221877,10.265111,1.7588667000000002,0.093724184,1.0462376,1.8376572
3.6948564,10.136428,1.383839,0.06977826,1.1841186000000001,2.2315779
3.8292096,10.854784,1.2012858,0.037315138,1.3581803,2.4599542999999997
4.3099365,11.89673,1.1412010000000001,-0.02708751,1.5913389,2.616458
4.527818,12.50617,0.9789029,-0.11917108,1.7494482,2.7149292999999997
4.2360997000000005,11.897286,0.680662,-0.20223129999999997,1.8314264,2.8245885
3.6021050999999997,10.660662,0.505416,-0.25703463,1.9911238999999998,2.9417176
3.0594547000000003,9.692456,0.5311009,-0.34648275,1.9905830000000002,3.0476415
2.3943071,9.056825,0.016874333999999998,-0.41034436,1.9511908,3.149848
1.9580643,8.746459,-0.2045989,-0.50352746,1.7569008000000002,3.1535656000000003
2.18288,8.897036,-0.6088741999999999,-0.60306364,1.5274596999999999,2.9741807000000002
2.4408407000000003,9.010741000000001,-0.8776473,-0.7121816,1.2362865,2.6883307
2.6161156,8.983169,-1.0776206,-0.81918776,0.8801521000000001,2.3513598
2.8424918999999997,9.06531,-1.2772683,-0.9421461999999999,0.5155179,1.9686266
3.0643005000000003,9.295736999999999,-1.6275495,-1.0582106000000002,0.17215927,1.536361
2.9495032,9.337061,-1.9262119999999998,-1.1151607,-0.13922492,1.1483045
2.4983112999999997,9.175614999999999,-1.8561096000000001,-1.0965205,-0.43254495,0.78899354
2.417866,9.783762,-1.7057538,-1.021995,-0.7136128,0.44244096
2.3053193,10.021104,-1.4453508999999998,-0.8543038000000001,-0.92706656,0.16084954
2.0077488000000003,9.216719,-0.7929022,-0.59454644,-1.0250144,-0.089867
2.0919863999999997,9.024311,-0.040643967999999996,-0.35765287,-1.0803763000000002,-0.46408305
3.0278895,10.746019,-0.2835118,-0.17505652,-1.1575722,-0.9953438
3.8552969,11.548441,-0.38335,-0.020158553,-1.2251688,-1.5617555
4.392297,11.2056875,-0.18646044,0.14590952,-1.1719363,-1.9844218
4.225814,10.289302000000001,0.59063995,0.3088011,-0.98084015,-2.2436557
4.037735,9.799994,1.3320763999999998,0.47649235,-0.693908,-2.3884482000000005
3.6964655,9.435338,1.9278592,0.57494634,-0.37451276,-2.4007002999999996
3.5515586999999997,9.963106,1.9506806,0.5398303000000001,-0.11847295,-2.3288276000000003
3.5999599,10.301953,1.657343,0.45945793,-0.10143854,-2.2734659
3.4624657999999995,9.572861999999999,1.5085961,0.38332665,-0.33459708,-2.2069166
3.1026173,8.254766,1.7459955000000003,0.32635912,-0.66196847,-2.1776473999999997
3.19873,7.365493300000001,2.0396587999999998,0.28909633,-0.944642,-2.1531602999999997
3.4367425000000003,7.234837,2.2182758,0.26141542,-1.075053,-2.1584835
4.1551175,7.624795,2.2187259999999998,0.23640485,-1.0037214,-2.2037225
4.8359427,8.162954,2.393675,0.1767844,-0.76152205,-2.2255566000000004
5.192908999999999,8.59256,2.2324302000000005,0.12674580000000002,-0.54539794,-2.228227
5.2365785,9.188889,2.113697,0.096935585,-0.40699333,-2.2047873
5.3022084000000005,9.782842,2.1344882999999997,0.08042477,-0.30265754,-2.129738
5.306001,10.034636,2.2915382,0.087371185,-0.20736256,-1.9657643
5.264974,10.243017,2.3906581,0.1251401,-0.080145516,-1.7033366
5.2568913,10.439083,2.4842331000000004,0.16081464,0.05984734,-1.3562604
5.0992475,10.478186,2.5414642999999995,0.1789137,0.13170254,-0.9799151
4.856408,10.139023,2.3955712000000005,0.19168949999999998,0.05984734,-0.5886471999999999
4.7019725,9.537925,2.3208146000000003,0.22310543,-0.0034906585,-0.19100884
4.953182,9.748548,2.3658542999999996,0.19223057,0.1285086,0.14807373
6.02475,11.315802,2.2513156000000003,0.10918779999999999,0.37444293,0.47331583
6.2269545,11.622164,2.0818543000000003,0.012304571,0.6555108000000001,0.79751074
5.8495135000000005,11.10153,1.796877,-0.06965609,0.87749916,1.1355287
5.146719999999999,10.749286,1.509707,-0.13831735,1.0744596000000002,1.4160728
5.057109400000001,11.104451,1.3276326999999999,-0.20113175,1.2783315,1.6449728
4.9011703,11.135451,1.2866727,-0.24108233,1.4880677,1.8419332999999998
4.773636,11.164431,1.1319976999999999,-0.28047442,1.722832,2.0474107
4.3448343000000005,11.183173,0.8538201999999999,-0.31293753,1.8942406999999999,2.2480888
3.7438517,10.826551,0.5532713,-0.33796555,1.9597081000000003,2.4530252999999997
3.0224017999999995,10.013739999999999,0.39182547,-0.36777577,1.8851825,2.6489387000000004
2.5717077,9.304039999999999,0.30007009999999995,-0.41833797,1.7026036,2.8102245
2.3994020000000003,8.789096,0.17390522,-0.46144759999999996,1.5082961000000001,2.9012609
2.4041137999999997,8.520724000000001,-0.048755522999999995,-0.5050983,1.3155943,2.9332004
2.5396159,8.662911,-0.27555346,-0.55567795,1.1138517,2.8938083999999997
2.6910442999999997,8.871657,-0.46152547,-0.6206216,0.9238028,2.8065069
2.6286035,9.117158,-0.774438,-0.67437774,0.731642,2.6824662999999997
2.5413973,9.084405,-0.9980948000000001,-0.71059334,0.49954814,2.4471786
2.6474987999999997,9.606121,-1.2317784,-0.7249574000000001,0.2685189,2.0484755
2.7188745,10.169209,-1.4852191000000001,-0.68556535,0.08965756,1.4724993999999998
2.34151,10.271450999999999,-1.5306418,-0.63285637,-0.10782644,0.95240873
1.8173715,10.451361,-1.568317,-0.5711066,-0.3713188,0.45043457
1.3041695,10.605528,-1.5154339,-0.47635272,-0.6396108,0.021903882000000003
0.61080873,9.867262,-1.1189445,-0.31932545,-0.8280540000000001,-0.3954218
0.55288815,9.819579,-0.7623521,-0.18359119,-0.9712583,-0.94265234
1.3912514,11.599122,-1.0962284,-0.079779,-1.1501197,-1.5558912
2.0918334,12.365822,-1.0181966,0.023474678,-1.325246,-2.1073804
2.5209317,12.1382675,-0.51896715,0.17676695,-1.3886014,-2.483202
2.6694677,11.838992,0.22298637,0.32744122,-1.3013,-2.7248778
3.0390751,12.116538,0.7538862,0.45678756,-1.1096629,-2.8680646
3.1066107999999995,12.132675,1.2283213,0.53398347,-0.92706656,-2.9282262
3.0099327999999996,11.91441,1.3157383,0.53183675,-0.85095274,-2.9489956000000004
2.844417,11.145814,1.2112745,0.47916270000000005,-0.9648704,-2.9495192
2.8196418,9.931273,1.2569463,0.40194932,-1.1655483,-2.9255557
3.007213,8.508944999999999,1.8035425999999999,0.31890655,-1.3598558,-2.8638060000000003
3.252609,7.668092,2.206975,0.22949335,-1.5168831,-2.8324075
3.8419564,7.8787910000000005,2.157779,0.13100441,-1.5291353,-2.849442
4.6134059999999995,8.641718,1.9409218999999998,0.023998277000000002,-1.4253231000000002,-2.8627415000000003
5.307629,9.064783,2.0133703,-0.05475098,-1.2714899,-2.8451834
5.70725,9.555442,2.2217712000000005,-0.10478957,-1.2102636,-2.7456297999999997
5.609442,9.848884,2.3415005,-0.10798352,-1.2874596,-2.5507987
5.6094612999999995,9.78629,2.5581853,-0.09681341,-1.3609204,-2.1733887000000003
5.657039,9.454865,2.8275235,-0.008447394,-1.2352916999999999,-1.5761195
5.727371,9.340844,3.1563144,0.14484487,-0.8344419,-0.9234886
6.0476675,9.503928,3.4901812000000003,0.27419123,-0.39741147,-0.40074503
6.2198486,9.755213000000001,3.3384843,0.33967596,-0.07960447,0.086323984
6.186416,9.704821,2.8941877000000003,0.3375292,0.045465827,0.47277477
6.169302500000001,9.489083,2.6710863,0.315189,0.20942205,0.75225437
6.6047406,10.2971735,2.5827978,0.20500638,0.50645965,0.9369799999999999
7.3060217000000005,11.854363000000001,2.2932622000000005,0.056478854,0.8924042999999999,1.1956902
7.0241375,12.565077,1.8996841,-0.09361946,1.2479976000000002,1.5731002
5.729775,11.902333,1.63071,-0.15056956,1.5072315,2.028247
4.282461,11.138583,1.3969784,-0.17772688,1.7084504,2.4636892999999995
3.772103,11.374048,1.1602589,-0.2144486,1.8819884999999998,2.8070304
3.8964865,12.19886,0.9744018,-0.27035149999999997,2.0108113000000003,3.0769281000000004
3.9696054,13.408832,0.5768302,-0.34913567,2.029975,3.276018
3.8596160000000004,13.999807,0.10047985599999999,-0.41195005,1.9400206999999998,3.4192047
3.3740144,13.379949,-0.15531665,-0.43856633,1.8229091,3.5544154999999997
2.8792765,12.078336,-0.20392853,-0.43165484,1.71325,3.650775
2.5650806,10.79153,-0.2674419,-0.41407937,1.5774983999999999,3.689626
2.3741002,9.823256,-0.39928579999999997,-0.40769145,1.4178008,3.6571629999999997
2.3565840000000002,9.096683500000001,-0.5739859,-0.41887903,1.2144525,3.516629
2.5120826000000003,8.739382,-0.7204536,-0.460924,1.0366558000000001,3.2584424
2.6608102000000002,8.883963,-0.9731472,-0.54929,0.8971865,2.9252067000000004
2.6265159,8.720277000000001,-1.2807734,-0.6477615,0.72738343,2.5084047000000003
2.3965576,8.40019,-1.4868183000000001,-0.7190930999999999,0.46493825,2.0532577
1.9907787000000001,8.302017999999999,-1.4480993999999998,-0.75583225,0.116273835,1.5869406000000001
1.8126022000000002,8.48483,-1.367319,-0.74466217,-0.28188813,1.0647206
1.7025263,8.471433,-1.1052209,-0.6669252,-0.6199235,0.5638112
1.7937646,8.648029,-0.89868754,-0.5152212,-0.8935388000000001,0.06075491
1.8458720000000002,8.747819,-0.54950756,-0.28206265,-1.0122386,-0.38105774
1.7590583999999998,8.509433999999999,0.015456966,0.019216076000000002,-0.9536828000000002,-0.8249996999999999
1.9796216,7.982134299999999,0.72957075,0.28326693,-0.7333001,-1.279082
3.072412,8.751027,0.9440719999999999,0.4408178,-0.40006438,-1.8374826000000002
4.1780252,10.416739999999999,0.48803409999999997,0.48766243,-0.14880677,-2.367155
4.271523999999999,10.771331,0.12305239,0.5041558,-0.12964305,-2.7770457000000004
3.8768828,10.782277,0.043200977,0.5510004,-0.26965338,-3.0788655
3.8045492,11.737028,0.07587704,0.5919982,-0.5028119000000001,-3.322147
3.9028456,12.913079,0.25368962,0.650554,-0.70083696,-3.4179654000000004
3.8809720999999997,13.042336,0.93074113,0.70378655,-0.82698935,-3.4003900999999996
3.9695672999999996,12.781369,1.3287149999999999,0.6979221999999999,-0.8669225,-3.2971362999999996
3.9113019999999996,11.966575,1.3714083000000001,0.6319139,-0.89779735,-3.1289215
3.8070104,10.566857,1.3185921999999999,0.5770930999999999,-0.9829694,-2.9601657
3.6838050000000004,9.062006,1.4192156999999999,0.50947905,-1.078247,-2.8137673999999997
3.8378384,8.008135000000001,1.5224632,0.4456,-1.0739883,-2.6812272
4.241894,7.597511,1.558836,0.40036106,-1.0500424,-2.5146005000000002
4.465713,7.7235417,1.5210267,0.37800342,-1.078247,-2.3027349999999998
4.778980000000001,8.210312,1.5108656999999999,0.36681584,-1.1825827,-2.0488245
5.036892400000001,8.669462,1.9185313000000002,0.34126422,-1.2384856000000002,-1.7523279999999999
5.572695700000001,8.852464999999999,2.3068419999999996,0.32103586,-1.2326213,-1.4228098
5.924892400000001,8.868545,2.2890294,0.2986782,-1.1655657,-1.0661519
6.2100230000000005,9.223978,2.1796238,0.29017845,-0.9648704,-0.692983
6.655038,9.960186,1.912881,0.27790877,-0.68753755,-0.35124752
6.944305,10.336161,1.8421754000000001,0.27045622,-0.40432298,0.026162485
6.677447999999999,9.868373,1.9365740000000002,0.27047366,-0.23345524,0.40837213
6.164265,9.603046,1.9230611,0.28536132,-0.15201817,0.75703657
6.192239,10.4237795,1.6691607,0.22895229,-0.054593899999999994,1.0407746999999998
6.630818400000001,12.237846000000001,1.2526081,0.10864674,0.08646361,1.3505881000000002
6.4968580000000005,12.797765,0.79611033,0.009616764,0.26371926,1.6327206
5.9029617,12.001845,0.45668918,-0.046251226,0.512324,1.8972776000000002
5.5474706,11.65054,0.07070556,-0.0819083,0.7864628,2.0186653000000003
5.7807713,12.267104,-0.42046009999999995,-0.14526375,1.1367329,2.0915852
6.024779,12.984886,-0.5367034,-0.1942377,1.5897506000000001,2.2172139
5.8490734,12.852831,-0.469819,-0.1420698,2.4521002999999997,2.3715882
5.129481299999999,12.383778999999999,-0.24530990000000003,-0.12079424,3.0999491000000003,2.4407907000000004
4.060681,12.142069000000001,-0.5614690999999999,-0.2075371,2.9146998,2.5147923999999997
2.9317384,11.289235000000001,-1.4554639999999999,-0.28153905,2.523973,2.5696135
2.573039,10.031466,-1.3450147,-0.43165484,1.6206254999999998,2.5877122999999997
1.804232,8.741738,-1.4263217,-0.48486993,1.0020632999999999,2.781479
1.5095729,7.668378999999999,-1.0950791000000002,-0.49445176,0.664028,2.8922026
2.043614,7.540336999999999,-1.1565717,-0.49233994,0.45003316,2.8836854
2.6621032000000002,8.364517,-1.3773077,-0.49925143,0.42448149999999996,2.8139594
2.9965637000000003,8.841883000000001,-1.4522653,-0.49977502,0.45376816,2.6989772000000003
3.110068,8.943894,-1.5188719,-0.4657062,0.47186720000000004,2.524898
3.0190406000000003,9.137194000000001,-1.5204138999999999,-0.42046726,0.45535640000000005,2.2230783
2.9699112999999997,9.477113000000001,-1.6159999999999999,-0.37468728,0.39147735,1.8126466
2.7083783,9.218213,-1.5342523000000001,-0.32093114,0.2578724,1.3085257
2.5879787999999997,9.1325,-1.5073415000000001,-0.27462757,0.05024803,0.7863232
2.5264862,9.197719000000001,-1.3045622,-0.22191861,-0.14135422,0.34768704
2.3213797,8.923506,-0.65984195,-0.1441991,-0.2414314,-0.050474923
2.2722507000000003,8.469526,-0.22963268,-0.05211553,-0.31117475,-0.5556605
3.044486,9.515449,-0.20749108,-0.008464847,-0.35801938,-1.191257
4.010029299999999,11.388662,-0.47853386,0.010681415,-0.48364818,-1.7895908
4.192927399999999,11.402894,-0.3342976,0.07349581,-0.7146774,-2.2436557
3.6926059999999996,9.58217,0.49533162,0.18582520000000002,-0.85892886,-2.5289822
3.961494,9.158760000000001,1.0630159,0.27047366,-0.80197877,-2.8451834
4.5603223,10.239828,1.20685,0.28591985,-0.6140591999999999,-3.068219
4.7658214999999995,11.133009,1.0883083,0.24651030000000002,-0.40646973,-3.1592553
4.7631106,11.407902,0.9457863000000001,0.22841124,-0.26591837,-3.1571262000000004
4.5184617,10.739555000000001,1.0098169,0.24598670000000003,-0.1679705,-3.051202
3.9453285000000005,9.634047500000001,1.3188028,0.2709973,-0.2409078,-2.8382544999999997
3.2158437,8.437608,1.6601012,0.27790877,-0.6678328,-2.5673096
2.6807208,7.657931,1.9449729,0.23266985,-1.1895117,-2.3884482000000005
3.1566782000000004,7.730676,1.9040032999999998,0.14856243,-1.5381761,-2.3037996
4.225584,7.997658299999999,1.6381032,0.08841838,-1.4971958,-2.2633429
5.138923999999999,8.107016999999999,1.7567023999999998,0.068696156,-0.9920277,-2.2388735
6.0487595,8.426432,1.7613854,0.07723082,-0.33459708,-2.2393970000000003
6.525885,9.081016,1.7782598000000003,0.08201302,0.11306243,-2.2079985
6.443658999999999,9.7789345,1.7730979,0.09320058,0.29832911,-2.0972574
6.1893945,9.970462,1.9454038,0.14802137,0.31375784,-1.8476056
5.824681299999999,10.005493,2.2502432,0.20340067,0.22699752,-1.45262
5.600267400000001,10.324698,2.4499004,0.23851669,0.27382470000000003,-0.98152083
5.617026999999999,10.915500999999999,2.552468,0.20498893,0.092310466,-0.48591712
5.5116724999999995,10.87704,2.4018152,0.21032962,0.046530478,-0.016929694
5.413386,10.1533785,2.3313587000000005,0.24651030000000002,0.06250024,0.37323865
5.3754044,9.64057,2.2322004,0.22999948,0.18387043,0.66867054
6.008556,10.536997,2.1123083,0.14110987,0.41224676,0.9028937
6.2193985000000005,10.737296,2.0873897,0.034644786000000004,0.7412239,1.0918778999999998
6.379523000000001,10.885841000000001,1.7773116999999998,-0.10906562,1.1346036,1.3117197
5.818619,10.721446,1.3929561000000001,-0.19209094,1.5359770000000001,1.5422252
5.294135,11.245852000000001,0.79713506,-0.26928684,1.8899820999999999,1.763149
4.893355400000001,12.203974,0.43148303,-0.35287067,2.1502805,1.9962901000000002
4.4434949999999995,12.758903,0.31035559999999995,-0.42846087,2.2359936,2.2246664000000003
3.8330212,12.931361,0.16854222,-0.4950103,2.1747674999999997,2.4748595
3.2971892,12.577029,0.024258051,-0.5359906,2.029975,2.7021537
2.8109076,11.671255,-0.11001836,-0.531732,1.9251156000000003,2.9172132
2.3243294,10.539305,-0.07991845,-0.52853805,1.7781938000000002,3.0785165
2.0876865000000002,9.86163,-0.21187727,-0.55674255,1.5024493,3.1934988
2.011589,9.198331,-0.33220029999999995,-0.57271236,1.2932366000000002,3.2179856
2.1731784,8.652244,-0.35320222,-0.59135246,1.1314096000000002,3.1163203999999998
2.3737552,8.307736,-0.47086287,-0.62807417,1.0116452,2.8836854
2.6066728,8.387473,-0.7811897,-0.71911055,0.88601637,2.5238332999999997
2.6896846,8.450058,-1.0947343999999999,-0.8351575000000001,0.72738343,2.0974493
2.5841768,8.686202,-1.3643694,-0.9629155999999999,0.46919686,1.6508197
2.3053577,8.957407,-1.600543,-1.0763097,0.05771804,1.2297416
1.7682903000000003,8.946069,-1.7296096,-1.1013203,-0.4314803,0.8757539000000001
1.2721926000000001,8.839047,-1.5068721999999999,-1.0188011000000001,-0.89779735,0.5600762
1.1941032,9.135019,-1.1530666,-0.8516683,-1.2235805,0.29178414
1.1919293,9.204978,-0.6029845,-0.598805,-1.3486681999999999,0.079395026
1.1195575,8.414049,0.29824090000000003,-0.28099802,-1.304494,-0.16758652
1.935511,8.922691,0.8528434000000001,-0.05157448,-1.1698244,-0.59983474
3.3279019999999995,11.2519245,0.5348071999999999,0.096935585,-1.0409841999999998,-1.1460006
4.18697,12.741071,0.28163475,0.18423696,-1.0079799999999999,-1.7086598999999998
4.441254,12.754152000000001,0.35932177,0.2960253,-1.0090446,-2.1531602999999997
4.297677999999999,11.948523,1.2681798999999998,0.38969709999999996,-0.88289225,-2.450198
4.2776628,11.295527,2.2198656000000003,0.40727258,-0.6236411000000001,-2.5657213
4.0783879999999995,10.880833,2.6419057999999995,0.3630983,-0.5049412,-2.571027
3.7491186,10.541699000000001,2.525787,0.2965489,-0.80995494,-2.5587923999999997
3.3481474,10.50344,2.0705917,0.14803882,-1.0351373,-2.4246464
3.0953197,9.733167,1.7753101999999998,0.045291292999999996,-1.2374209999999999,-2.4235816000000003
3.3116217000000003,8.694600999999999,1.9434788,-0.08405506,-1.5882148,-2.4187993999999997
3.1917772,7.923141,2.2352269000000002,-0.24959953,-1.9427433999999997,-2.3591616
3.9758112,7.7906656000000005,1.9707631999999997,-0.42633158,-2.38405,-2.4448748
4.4909476999999995,7.882803999999999,1.6916951,-0.56525975,-2.5139372000000004,-2.5183356
5.133714,8.0698,1.6090567,-0.64352036,-2.2653327,-2.559857
6.0555778,8.287854,1.6812372,-0.6727895,-1.8341490000000003,-2.6647162
6.543238,8.807608,1.7317644,-0.64191467,-1.3646381,-2.6923974
6.4735,9.273911,1.6840144000000001,-0.5477018,-0.9451655999999999,-2.5827556
6.4636455,9.328155,1.8547019,-0.41142645,-0.6710267,-2.3266982999999994
6.1731715,9.453486,2.0314035,-0.21286036,-0.43839179999999994,-1.8327004
5.848555999999999,9.522391,2.3948722,0.014957472,-0.23078490000000002,-1.2716295
5.7936807,9.805922,2.7409015,0.19223057,-0.10143854,-0.7786960999999999
5.7071543,10.305525999999999,2.572675,0.26460937,-0.17489944,-0.34592426
5.538621400000001,9.823783,2.1428967,0.28218484,-0.41657520000000003,0.010192723
5.493993799999999,8.990112,2.0070784,0.30560714,-0.517176,0.25186846
6.092784,9.168443,2.0503368,0.27844983,-0.33831462,0.38282052
7.0795107,10.474193,1.7901349999999998,0.22736403,0.07475245,0.46799257
7.7124705,10.759466,1.7842262,0.1943424,0.7263188,0.6431364
7.528078599999999,10.593778,1.7378936000000003,0.19861847,1.3448809,0.9742428
6.3007345,10.486239,1.4991723999999997,0.2353402,1.7957518,1.3596464
5.315674,10.879253,1.1218941,0.2752559,2.1572093999999997,1.7610023000000001
4.5629654,11.426558,0.9553630999999999,0.27473226,2.3616226000000005,2.1543996
4.1273065,12.029341,0.8074876,0.23375195,2.4116611,2.5185275000000003
3.7718062000000003,12.3306265,0.6035111999999999,0.16826719,2.3254243999999997,2.83897
3.3057892,11.984522,0.39782056,0.10758209,2.174244,3.0907686
2.8774474,11.227293,0.28898972,0.042638395,2.0028349999999997,3.3132806000000006
2.6010704,10.545903,0.1983261,-0.04038692,1.7920343,3.473502
2.2937602999999998,9.939250999999999,0.15271176,-0.12662363,1.5434296,3.5506977999999996
2.3080106,9.428424,0.010074801,-0.19369663,1.3134649999999999,3.5022476000000005
2.6325972,9.106278999999999,-0.18485153,-0.27248082,1.1069227,3.336703
2.9932406000000005,9.111374,-0.39379832,-0.35447636,0.9541540999999999,3.1061973999999997
3.1744912,9.196119,-0.5752404999999999,-0.4524068,0.8386306999999998,2.7697678
3.1874006,9.098216,-0.7868304,-0.52162653,0.68851495,2.3928814
3.0338366000000003,9.07163,-0.8987736999999999,-0.5791177,0.47399652,1.9984194
2.9994080000000003,9.42943,-1.0550768,-0.6232745,0.23657937,1.603975
2.8019244999999997,9.467555,-0.8994440999999999,-0.6163456,-0.019460421000000002,1.2270887
2.3306596,9.222475,-0.5791191,-0.5551543000000001,-0.27497659999999996,0.88640034
2.276407,9.30607,-0.3601071,-0.45774750000000003,-0.46980770000000005,0.4871563
2.413135,9.31081,-0.06782295,-0.31614894,-0.47993064,0.12091641
2.357149,8.561167,0.5953039000000001,-0.14631096,-0.38728857,-0.2532822
2.8407682999999997,8.695348,1.0219603000000002,-0.052098077,-0.33033848,-0.7808254
3.7755892,10.856125,0.6447202,-0.047298424000000006,-0.43360959999999993,-1.395129
4.2720795,12.34437,0.19218737,-0.07497934,-0.7455523000000001,-1.9514003
4.0873713,11.520324,0.48874277,-0.019093903,-1.0489777,-2.3165755
3.6255012000000004,9.397941000000001,1.7456986,0.07192502,-1.1224386999999998,-2.5662447999999998
3.9830706,8.976791,2.3430326,0.11929326,-0.9142906999999999,-2.7387183
4.367933799999999,9.7552805,2.4045925,0.12568116,-0.6172531,-2.8377310000000002
4.497201400000001,10.192528999999999,2.1292020000000003,0.13048081,-0.43306854,-2.9165148999999997
4.437135700000001,10.17281,1.7845231,0.11716395,-0.37344809999999995,-2.9857172999999997
4.3867908,9.901748,1.5955629999999998,0.09906489,-0.4362625,-3.022439
4.2006845,9.202459,1.7163266,0.067125365,-0.6071477,-3.0000812999999997
4.0315866,8.128152,2.1771817,0.027209682000000002,-0.86744606,-2.9415255
4.0093684000000005,7.750433,2.3200965,-0.012705997,-1.1149862,-2.9122565
4.449375,8.18342,2.1733606,-0.07285004,-1.2134576000000001,-2.8547652
4.8468027000000005,8.410131,2.0847463999999998,-0.087231554,-1.1304148,-2.7168841
5.2024665,8.446294,2.2867785,-0.049951322,-0.8839568999999999,-2.4768142999999996
5.511759,8.61789,2.4681156000000004,0.020821778,-0.66038024,-2.1520957999999997
5.472944,8.676903999999999,2.6455642999999998,0.10812314599999999,-0.5049412,-1.6985544
5.3105307,8.534831,2.7108972000000002,0.20978858,-0.40699333,-1.2471424
5.1126165,8.345728,2.8396573,0.32157692,-0.27337092,-0.80902994
5.225987,8.34838,2.876978,0.37800342,-0.16051793,-0.5104041
5.552307,8.848069,2.6272724,0.37641516,-0.09557423,-0.29054496
6.140428,9.632707,2.1780150000000003,0.3545811,-0.024783675,-0.16439256
6.416288,9.712434,2.0346691999999997,0.37109190000000003,0.11360348,-0.01160644
6.1907544,9.437464,2.1507115000000003,0.42804200000000003,0.2988527,0.1619142
6.092765,9.954708,2.2483467999999998,0.45252895,0.60068995,0.36046284
6.3633,11.62042,1.9192592000000002,0.47062802,0.9812939,0.61172044
6.410092,12.549094,1.7336893,0.4173955,1.4103482,0.89704686
6.187939,12.603192,1.4759296,0.33967596,1.6930218000000001,1.2707393
4.882524500000001,11.177455,1.463882,0.32316515,1.8244973000000002,1.6641191000000002
4.0114083,11.032549000000001,1.084784,0.28537878,1.9320271,2.0090835
3.764336,11.649410000000001,0.8732994000000001,0.23588125,2.0752313,2.2683172000000003
4.0677769999999995,12.422305999999999,0.71687186,0.14217453,2.2386465,2.4168446
4.321362000000001,13.079697,0.48816815,0.0085695665,2.3701396,2.4876351000000003
4.260568,12.616063,0.15160085,-0.108524576,2.472346,2.56429
3.6180122000000003,11.350288,-0.034572273,-0.20912535,2.5090678,2.6377509999999997
3.1258411,10.285816,-0.28013116,-0.30709067,2.4797987999999997,2.7133412
2.4456675,9.452845,-0.51926404,-0.3991568,2.2652628,2.73624
2.086001,9.007178,-0.8114045,-0.49925143,1.9794128,2.6979125
1.9774189999999998,8.828446000000001,-1.0990440000000001,-0.6110223000000001,1.6376598999999998,2.5685487
2.1016304,8.698748,-1.3425821000000002,-0.7281339,1.2873898000000001,2.3407310000000003
2.3006651000000002,8.69846,-1.6073042,-0.8569741,0.9094386999999999,2.0442169
2.4798567000000005,8.609653999999999,-1.8779736,-0.96663314,0.5405285,1.6950113999999998
2.5417994999999998,8.480482,-2.0177567,-1.0486113000000001,0.15673056,1.3425945
2.3791375,8.368683,-2.0975027,-1.0693632,-0.17277014,1.0503566
2.1960192000000003,8.114544,-1.9312589,-1.0054842,-0.44638540000000004,0.78738785
2.0642712,8.344195,-1.5974306,-0.8803964,-0.6247057,0.5286776999999999
2.0802262,8.9621105,-1.3793091999999998,-0.6940651,-0.810496,0.24335125
2.1543984,9.141015,-1.1380598999999998,-0.4587947,-0.89938563,-0.008412487
2.2199228,8.764492,-0.5718503,-0.14844026,-0.85041165,-0.28628635
2.7463312,9.13296,-0.01184651,0.12355186,-0.7029663,-0.6770132
3.6585891000000004,11.144950999999999,-0.23054247,0.33969343,-0.6326993000000001,-1.2093387
4.399221400000001,12.619225,-0.43383893,0.50628513,-0.6529276999999999,-1.6921666000000002
4.50063,11.641001,0.051513645999999996,0.7048687,-0.5400746999999999,-1.9354305
3.9740396000000002,9.705404,1.383293,0.9071349,-0.25687757,-2.062665
3.9749207,9.016688,2.2147514999999998,1.0721557,0.15086626,-2.120156
4.024719999999999,9.335108,2.533372,1.0971838,0.55703926,-2.1004515
4.2314067,10.325214,2.1764634,1.0471277,0.7284480999999999,-2.04776
4.044611,10.536431,1.7775223000000002,0.9279218000000001,0.5682094,-1.9114672
3.2849502999999998,9.956766,1.8987839,0.84433794,0.14821336,-1.756028
2.9097404,9.059161,2.1985762,0.7437196999999999,-0.47565457,-1.63574
2.3724813,8.164113,2.5719664,0.6633473000000001,-1.0739883,-1.5026587
2.531246,7.548717,2.6828754,0.56646407,-1.445028,-1.4440853999999999
3.4464437999999995,7.653583,2.6028805,0.45839328,-1.5456287,-1.427592
4.2970653,7.8896317,2.5695433999999997,0.38227946,-1.3747610000000001,-1.4526026
5.0605283,7.91978,2.6252995,0.32477087,-1.0377902,-1.5069172
5.5781545999999995,8.120873,2.7246685,0.27049112,-0.6348286,-1.5569383999999997
5.8070693,8.4057455,2.7414853999999997,0.2326873,-0.26911232,-1.5484387
5.548399400000001,8.337079,2.7395222,0.22684044,-0.030630529,-1.4472969
5.122404,8.366806,2.7731943,0.2539803,0.1263793,-1.2774763
4.952339,8.873084,2.747902,0.2832495,0.3020467,-1.0597638999999999
5.0881095,9.8922,2.6528137000000003,0.280073,0.480908,-0.8095535
5.260013,10.745292,2.5046127,0.25719172,0.5767266,-0.55457836
4.9789433,10.5750065,2.4663436,0.24279276,0.53361696,-0.24849997
4.430001,9.739823,2.338206,0.26090926,0.37072540000000004,0.06290167
3.9247668,9.271651,2.2778914,0.27633798,0.25467846,0.36100390000000004
4.449193,10.716697,2.048163,0.21141173,0.30684632,0.48078585
5.7971473,13.113942999999999,1.6064711,0.060737457,0.58791417,0.5356065999999999
6.7580557,13.943228,1.4151073,-0.13032374,0.9850289000000001,0.61758476
6.3355174000000005,12.5049925,1.3423237,-0.22881266,1.2192521,0.8592605
4.6027190000000004,10.800244000000001,1.1604408000000002,-0.24265313,1.265032,1.1552334
3.3565943,10.127713,0.92125046,-0.22190116,1.3028183999999998,1.4650468
3.1903502999999995,10.407413499999999,1.0195564000000001,-0.21762510000000002,1.4662511,1.6662658
3.8447049,10.954718,1.0542053,-0.23626523,1.7749999,1.7956296000000003
4.0772204,11.093878,0.9572593,-0.28897417,1.941609,1.8717433999999997
4.1333494,10.899709,0.5301529,-0.34646532,2.0550029999999997,1.9286935
3.8149114,10.449196,0.12263101,-0.40289179999999997,2.1438924999999998,1.98512
3.2895567000000003,9.879386,-0.034562696000000004,-0.4619712,2.1007830000000003,2.0197298999999997
2.7656,9.401686,-0.26684815,-0.53544956,1.8292971000000002,2.0309
2.4659512,8.965577,-0.5066227,-0.59079397,1.5200073,2.0133419999999997
2.464754,8.552586999999999,-0.5954092,-0.6302035,1.249586,1.9420104
2.605648,8.237347,-0.72971433,-0.6615845,0.9855524999999999,1.8052115000000002
2.728595,8.133649,-0.911032,-0.6892829,0.7486764,1.6401906000000002
2.7802908,8.002350999999999,-1.0762223999999998,-0.70629984,0.5224293999999999,1.4501416999999999
2.7993102000000003,7.867739,-1.2162066,-0.70151764,0.32121038,1.2318883
2.8219402000000002,7.854369999999999,-1.2988927,-0.67011917,0.13383184,0.9955358
2.885109,7.9484143,-1.337516,-0.6115459,-0.043406337,0.7549246999999999
2.8808184,8.230967999999999,-1.2834454,-0.52797955,-0.19832176,0.55264103
2.744368,8.289694,-1.1020318,-0.40448004,-0.35801938,0.36206856
2.6876732999999997,8.387424000000001,-0.84997034,-0.24052383,-0.48843038,0.18161896
2.6615767000000004,8.80006,-0.6449501,-0.08241445,-0.55550337,0.06928957
2.3761783,8.606849,-0.2695009,0.092153385,-0.58585465,-0.020664698000000002
2.3704991,8.465859,0.0552486,0.23961625,-0.60767126,-0.17502162
2.8005552000000002,9.735456,-0.060180653,0.34821063,-0.7082895,-0.45821875
3.3036248999999995,11.295125,-0.23340593,0.42540655,-0.9355838,-0.8159414
3.7205991999999997,12.083096000000001,-0.10214622,0.5132315,-1.2139986999999999,-1.1742052
3.7680426,10.752915,1.0056988000000002,0.6628236999999999,-1.2970414,-1.4132105
3.846515,9.693625,2.1372942999999998,0.7676831000000001,-1.0473721,-1.6075181
4.424504,10.085431,2.6917242999999997,0.76183623,-0.5698849,-1.6751146000000001
4.7809715,10.802351,2.8192012,0.66069436,-0.05511749999999999,-1.6341343000000002
4.525041000000001,11.071479,2.5365705000000003,0.5786988000000001,0.13224360000000002,-1.5047705
3.9950415999999995,10.515908,2.9191257999999998,0.46371654,-0.14028956,-1.4446265
3.1679022,9.485233000000001,2.546856,0.32265902,-0.715201,-1.3365557
2.5842152,8.53961,2.966368,0.1714786,-1.3758256000000002,-1.2183795
2.8459203,7.7027884,3.1476474,0.014992378999999998,-1.8581125,-1.1518301000000002
3.4839754000000003,7.451061999999999,3.1423322999999996,-0.11383037,-2.0018404,-1.1028736000000001
4.111208,7.065662400000001,3.0264146,-0.20486675,-1.8980281000000003,-1.1108497
4.8835487,6.957378,2.8816227999999997,-0.2724459,-1.6270658000000002,-1.180052
5.565016,7.281208,2.6743615000000003,-0.30705577,-1.216128,-1.2769351999999998
6.070441000000001,7.803335700000001,2.5299720000000003,-0.31717870000000004,-0.76417494,-1.3514608
6.064598999999999,8.18839,2.4642944,-0.28843309999999994,-0.34737290000000004,-1.3450729
5.754990599999999,8.337971000000001,2.3973715,-0.21656045,-0.037018432999999996,-1.250319
5.3356794999999995,8.440251,2.3745978,-0.11437143,0.18760544,-1.0906214
5.010298000000001,8.912014,2.2686496,-0.015341444,0.33185690000000007,-0.8957902
4.825418,9.524939,2.0366325,0.06394886,0.37179002,-0.71267027
4.718282,9.877519,1.8246403000000002,0.11876965,0.33559190000000005,-0.5370029000000001
4.5675526,9.9338875,1.6452476000000003,0.16402604,0.24562019,-0.35123006
4.421257499999999,9.677067,1.4213705,0.22312289999999999,0.08166396,-0.18353882
4.155405,9.020844,1.6039044,0.27848473,-0.08599237,-0.06749188
4.458856,9.1627245,1.6226367,0.2971074,-0.10515609,-0.087720245
5.8342195,11.051338000000001,1.1393719,0.23216370000000003,0.14608406,-0.19099139
7.043607000000001,12.641356,0.95400316,0.06981317,0.5394638,-0.2767045
7.475464,12.845333,0.62981874,-0.037716564,0.7188661999999999,-0.20537289999999997
6.3702526,11.080978,0.68392766,-0.008953539,0.78965676,0.063442715
5.431103,9.625371000000001,0.86037076,0.06501351,1.0323972,0.5191133
4.9024634,9.346954,1.2506831,0.14538592,1.5216129999999999,1.0636735000000002
4.7750916,9.916669,1.2255631999999999,0.15392059,1.8399435000000002,1.4975273999999998
4.601588700000001,10.688271499999999,0.84430087,0.09695304,1.8138508999999998,1.8770667
4.2744637,10.918824,0.1694233,0.02029818,1.60305,2.1916797000000003
3.5859777999999998,10.035373,0.06884766,-0.025987952999999998,1.4731627,2.4652950000000002
2.905881,8.737084,0.3740222,-0.08667305,1.2671614,2.7474275
2.3347392000000005,7.951929,0.22230642,-0.14629349,0.94137824,2.995491
2.1567256,7.6020885,0.079075694,-0.18196803,0.6997025,3.1312252999999997
2.5294168,7.6262503,-0.1388158,-0.19631463,0.5671622,3.133372
2.9798236,7.909063300000001,-0.32609984,-0.21443115,0.48729593,3.0109197999999995
3.4290428,8.3237295,-0.620692,-0.24211207,0.41650537,2.7591386000000004
3.8387384,8.885792,-0.8322531999999999,-0.29321529999999996,0.37072540000000004,2.4386787
4.1047053,9.1270895,-0.97359735,-0.34592426,0.28661796,2.0617924
4.163057299999999,9.052427999999999,-1.0592332,-0.36774087,0.17002997,1.6769123
3.9683032,8.927413,-1.0573082,-0.35124752,0.044401175999999994,1.2633041999999999
3.7399156000000002,8.877489,-0.7800309,-0.28468066,-0.038083083999999996,0.8518254000000001
3.4748104,8.531930000000001,-0.34473634,-0.18355627,-0.07534587,0.39613740000000003
3.7019434,8.612039,0.09699389,-0.091996305,0.0012915436,-0.11007792
4.0323625,9.508227,0.25581565,-0.030229102999999997,0.13011430000000002,-0.5848946999999999
4.0024443,9.405785,0.52536446,0.038397245,0.25467846,-1.0123782
3.8447910000000003,9.259211,0.72654444,0.07140142,0.32281609999999994,-1.4675076999999999
4.0945926,10.565699,0.21765208,0.06555457,0.23177972,-1.9263723000000001
4.29356,11.713142999999999,-0.12539871,0.08684758,-0.060981803,-2.3996183999999996
4.2033366999999995,11.990314999999999,0.09179369,0.14433873,-0.36812484,-2.6774921000000003
3.8451262,10.416836,1.1550683000000002,0.24017476,-0.4532969,-2.7546706000000003
3.563817,9.074839,1.8917544999999998,0.2545388,-0.29944614,-2.6625695
3.3994312000000004,9.007313,1.8957863999999998,0.24602161,-0.073216565,-2.484773
3.2340302000000003,9.522651,1.4570249,0.24387486,0.041207224,-2.3405213
3.080648,9.987929,0.91327304,0.24443336,-0.013055063,-2.2244744
2.9479327,10.113031,0.6727132,0.21834070000000003,-0.19938642,-2.114292
2.9621065,9.778131,0.8349252,0.17629571,-0.48417178,-1.9678936000000002
2.9843724,8.833167999999999,1.21681,0.16774360000000002,-0.78175044,-1.8135192
2.970237,7.810528,1.5104253,0.20769417,-1.0037214,-1.6831082
3.1946887999999998,7.355696000000001,1.5003216000000001,0.25134486,-1.1016693000000002,-1.6048476999999999
3.5854318,7.6232915,1.2905034,0.29658379999999995,-1.0569539,-1.5744964
4.09985,8.081685,1.0741538,0.36100390000000004,-0.9084264000000001,-1.5925955
4.666787599999999,8.342749000000001,1.1878209,0.4232947,-0.67313856,-1.6506276999999998
5.266219,8.694351,1.4737653,0.45256388,-0.4176224,-1.6862848000000001
5.4711914,8.891902,1.7729255000000002,0.45204028,-0.20149826,-1.6298583
5.341444999999999,9.058519,1.9630922,0.43285909999999994,-0.009337512,-1.4685723999999998
5.147936,9.3292465,2.2331295,0.42542399999999997,0.10988593,-1.2125151
4.8673835,9.798376,2.2961257,0.39774308,0.10562733,-0.91282463
4.627293,10.152239,2.150788,0.35993925,-0.00027925267999999995,-0.54710835
4.2811484,10.002381,2.2078273,0.33438763,-0.20629792,-0.105819315
3.7836814,9.630006,2.3457812999999996,0.31735322,-0.50865877,0.3322583
3.3653185,9.336074,2.3870862,0.33758157,-0.70348984,0.6809401999999999
3.9998970000000003,10.029484,2.27928,0.30085987,-0.6491927,0.8353146
5.520378,11.595253,1.9613683000000002,0.19333012,-0.31115729999999997,0.9018639999999999
6.604759700000001,11.970798,1.9987848999999998,0.042132247000000005,0.2860769,0.9960769
6.7398214,11.589507000000001,1.8789694,-0.04993387,0.80510294,1.2137892
5.4977093,11.011086,1.6143239999999999,-0.07283259,1.2069999,1.4831633999999998
4.5200133000000005,11.125971,1.2119161,-0.072815135,1.5966796,1.7429381999999998
4.181674500000001,11.615651,1.1570793,-0.094125606,1.9948415000000002,1.9670383999999999
4.216362,12.246016000000001,1.1176996000000001,-0.15479325,2.2338642999999996,2.1464407000000003
