accx,accy,accz,gyrx,gyry,gyrz
-0.16118725,13.851069,1.5624273000000002,-0.5449965,-0.58327156,1.1047585
-0.19923589,13.104749,1.5859097,-0.72493994,-0.7323227,1.2878783999999999
-0.19665015,11.270953,1.6083768999999999,-0.9149714,-0.7993956999999999,1.4880328
0.3102311,11.157401,1.6519129000000001,-0.9362644,-0.67961377,1.6908575000000001
1.2033545,12.751691000000001,1.6431023,-0.98684406,-0.20692624,1.7387494
1.7466658,13.665432999999998,1.7307013999999998,-1.0767983,0.36637953,1.6290903
1.8636466,12.951856,1.5298088,-1.1396127,0.95460784,1.426283
1.4681437,11.946234,0.97639376,-1.1640997,1.365022,1.3006543
0.7426909,10.841501,0.66962945,-1.2178733,1.5736934999999999,1.231452
0.25713727,9.702627,0.6823666,-1.2263905000000002,1.5603768,1.2617857
-0.009423578,8.829663,0.6540097,-1.2524657,1.457123,1.3560336000000002
-0.18916109,7.8637743,0.5734209,-1.2865345,1.2963433000000002,1.4922915
-0.14313495,7.017500999999999,0.5247133,-1.3317908999999999,1.1228226000000001,1.6142026000000003
0.12960292,6.405667299999999,0.55093455,-1.3498726,0.9721658000000001,1.6834049
0.43687478,5.913094,0.75629956,-1.3131508,0.82630867,1.6456012
0.6897408,5.5543084,0.9958634,-1.1853927,0.6527706,1.5162548
1.0746613999999999,5.7886915,1.1459607,-0.98684406,0.46219808,1.3006543
1.4871345,6.756686,1.1135145,-0.76857316,0.32805207,1.0201274999999999
1.8653129000000002,7.3628693,1.0100753,-0.58705896,0.3259228,0.649629
1.8344947,7.6753125,0.85666454,-0.38423422,0.32007593,0.22483331
1.723854,9.085899000000001,0.74793905,-0.11487757400000001,0.17208946,-0.19088666
1.7148327,11.400853,0.49142426,0.13849187,-0.071174525,-0.6268699000000001
1.424617,12.549859,0.32721075,0.31840040000000003,-0.24843016,-0.95904094
0.75849265,11.456944,0.566267,0.5435828,-0.3575656,-1.1341847
0.45478338,10.21829,0.7120739,0.82093304,-0.40760419999999997,-1.1714475
0.6634141,10.416138,0.81422967,1.0812315000000001,-0.45019022,-1.2087103000000001
1.1592149999999999,11.575592,0.8721119,1.293097,-0.49490556,-1.368408
1.1311741000000002,11.730458,0.98994493,1.4602646000000001,-0.416645,-1.5685448999999998
0.8163557,10.9156065,0.9976543,1.5427663,-0.27398178,-1.7170724
0.41755834,10.589305,0.965074,1.6061218000000002,-0.1573938,-1.7106843999999997
0.17356047,11.747534,0.86602104,1.6550957,-0.05253441,-1.6185834
-0.069862805,12.905714999999999,1.182956,1.6646601000000003,0.061889375999999996,-1.4966897
-0.28054297,12.729109,1.4247319999999999,1.654031,0.10288716,-1.351356
-0.42875364,11.71752,1.4372393,1.6114451,0.018779743,-1.2108221000000001
-0.33660558,10.0800295,1.6393098999999998,1.5305315000000002,-0.1094845,-1.0969045
-0.18175821,8.39092,2.160815,1.4719758,-0.24630086,-1.0330255
0.25639984,7.140764,2.6021428,1.4192668,-0.38044688,-1.0463424000000001
0.5326524,6.478087400000001,2.8687901,1.3740278000000001,-0.47146579999999993,-1.1229972
1.0255228,6.505774,2.7718917999999997,1.2947026000000001,-0.4192979,-1.1858116
1.3222698,6.771616000000001,2.8259435,1.2047484,-0.21488494,-1.2763069
1.366074,7.4462833,2.7010522,1.1185117,0.05497787,-1.2757659
1.1080557,8.344062,2.5489438,1.0030059,0.29345965,-1.2118868
0.58189636,9.001144,2.4809867999999997,0.84967864,0.4419872,-1.0388898000000002
-0.022936452000000003,9.460392,2.3468347,0.69956285,0.43666393,-0.7631452
-0.4672907,9.663717,2.399766,0.53347737,0.3333928,-0.42298055
-0.5282088,9.946404,2.4116218,0.3535688,0.21521655,-0.08922123
-0.20750067,10.61002,2.306296,0.18214256,0.05071927,0.16947147
0.20787416,11.994394999999999,2.1843069,0.01818633,-0.06105162,0.34300956
0.30565336,13.396123999999999,1.715455,-0.24157102,-0.14781193,0.46650904
-0.075379044,13.610203,1.4830546,-0.49600512,-0.328279,0.63578856
-0.64325494,13.575373,1.265575,-0.6727371999999999,-0.6040061,0.9216559999999999
-0.7197161999999999,14.027571,1.1377534,-0.8244412,-0.8510051,1.2107173999999998
-0.38294777,14.06448,1.1229285,-1.0081022,-1.016567,1.4396174
-0.19774191,12.768364,1.057452,-1.2018687,-1.0245606,1.5604465
-0.37623444,11.6487875,0.66756094,-1.3636955,-0.99794436,1.6855518
-0.16163735,12.017610000000001,0.44080126,-1.4227923999999998,-0.9649402,1.7701827
0.41594946,13.338529000000001,0.78454155,-1.4259864,-0.6945014,1.7632712
1.1726798999999999,14.221366,0.8745061,-1.4424796999999998,-0.19678587,1.6397717
1.2043409,13.563813,0.47366884,-1.4387622,0.35787976,1.5215955
0.7338324,12.357299000000001,-0.3950337,-1.4605788,0.8252615,1.4289708
0.28459397,10.836444,-0.41800845,-1.4770721000000002,0.9317266,1.422583
-0.10051817,9.438564999999999,-0.15726075,-1.4760075000000001,0.9546253,1.443876
-0.54842544,8.153559,0.21134098,-1.4328978,0.8071624,1.5279833999999999
-0.3516891,7.151710499999999,0.24818295,-1.395094,0.6655639,1.5971857
0.016970102,6.534064,0.28553249999999997,-1.3674131999999999,0.5974262,1.627537
0.36273113,5.9388843,0.3762823,-1.3493315000000001,0.6080727,1.5641816000000002
0.62352675,5.3834968,0.44201753,-1.3067280000000001,0.6181956000000001,1.4332294
0.7686345,5.159811,0.5513942,-1.2204913,0.6054198000000001,1.2410687
0.834341,5.628232,0.5815229000000001,-1.0799573999999998,0.5697453,1.0004575999999998
0.9430951999999999,6.2941933,0.42546877,-0.91652477,0.46540950000000003,0.6895796
0.9255888000000001,7.3451614,0.34262943,-0.6849719,0.28815386,0.3760312
1.1900427,8.600203,0.26594794,-0.45341909999999996,0.15666075,0.035866518
1.2686778,9.786693,0.08433336,-0.20107938,0.006021386,-0.33407348
1.2944299,11.384544,-0.31238586,0.04696681,-0.21753784,-0.6715678
1.1920156000000002,11.644123,-0.26138937,0.27584928,-0.40119883,-0.97127575
0.9804255999999999,10.934788000000001,0.29733112,0.5968502,-0.49221775,-1.1522489
1.1275445,10.413973,0.76261073,0.9263684000000001,-0.48741809999999997,-1.3268516000000001
1.3820671999999998,11.31243,0.51786584,1.1903844,-0.5193751,-1.513183
1.5773575,12.212583,0.6358138000000001,1.3735043,-0.5406681,-1.7660289
1.4016902,11.967188,1.2043409,1.5475835,-0.44537312,-1.9512781000000003
0.94074893,11.050265,1.7130321,1.7386795,-0.27502897,-1.982694
0.68049914,11.270723,1.7587709999999999,1.9021120999999999,-0.052516956,-1.8826168999999997
0.4624161,12.351026,1.7377881999999998,1.9920839,0.24928537,-1.7079966
0.22435585,13.279085,1.6933231,1.9553622,0.5697627,-1.5025190000000002
-0.035070267,13.071892,1.6032531,1.7924706000000001,0.7773696,-1.3028883
-0.24462996,11.606084,1.5826535,1.5901694,0.7651174,-1.1389495
-0.65596336,9.667222,2.0304747,1.3932091,0.5740039000000001,-0.9749933000000001
-1.0191447,8.117608,2.3293571,1.219671,0.15294321,-0.8254011
-0.7452575,6.9309270000000005,2.4471135,1.0786135000000001,-0.37775907,-0.725865
-0.31179208,6.2388015,2.7689996,1.001976,-0.7753974,-0.6742206999999999
0.09356539999999999,6.570924799999999,2.7551801,0.91943944,-0.9681166999999999,-0.5767964
0.87141275,7.029338,2.7124772,0.77838194,-0.9223367,-0.5730789000000001
1.1114553999999999,7.366374499999999,2.8378854,0.65540606,-0.7381521,-0.5938483
1.1692419,7.8855042,2.9178424,0.5531995,-0.5225516,-0.6012834
0.80885714,8.643517999999998,3.0166939999999998,0.45472807,-0.31229177,-0.5496565
0.4197227,9.279208,2.9955008,0.32484066,-0.19144517,-0.4532969
0.07772536599999999,9.5291815,2.928147,0.19442968,-0.179734,-0.30478686
0.0123540815,10.169151,2.7309127,0.118822016,-0.27342328,-0.13285446
0.38517916,11.47086,2.555935,0.05921902,-0.35007814,-0.0013613568
0.80186605,13.097777,2.3812444,-0.036599554,-0.32080898,0.08059931
0.7850683,13.903857,2.0714345,-0.22130775,-0.24148375,0.15992452
0.24009055,13.046091,1.7326455000000003,-0.42092106,-0.24574235,0.34517378
-0.21109198,12.451227000000001,1.3969687,-0.5486791999999999,-0.3761708,0.6507286
-0.14224431,12.855455000000001,1.2849296000000001,-0.6876248,-0.53852135,0.92964965
0.11557291,12.582688000000001,1.603962,-0.854775,-0.64126885,1.1196985000000002
0.084697284,11.682755,1.3911844,-1.0357656,-0.7386756999999999,1.2687496
0.11550587,11.548929,1.0348122,-1.1486186,-0.79616684,1.4566691999999999
0.6744849,12.548394,1.0415543,-1.2172798999999999,-0.64551,1.5977442
1.2811756,13.668467999999999,1.2306579,-1.2348553,-0.28035223,1.6328601999999999
1.6789673999999999,14.402512,1.067249,-1.2678596000000002,0.23439772,1.5908153
1.5982253999999998,13.60147,0.72182304,-1.3141631,0.69219756,1.5226775
1.200424,12.130233,0.38587826,-1.3546373,1.1803312,1.4587811000000002
0.95301676,10.400029,0.056388237,-1.3796304,1.4528819,1.4651865
0.36612135,8.748432000000001,0.6710851,-1.334915,1.4608755,1.4587985
0.30767408,7.511147,0.7319649,-1.3210746000000002,1.4342591999999998,1.4481521000000002
0.06097553,6.506339,0.74655044,-1.299258,1.2420985,1.4242061000000001
0.13220783,5.6634839999999995,0.7623616999999999,-1.2646656,0.9690068000000001,1.3794733000000001
0.32124442,5.0747113,0.86693084,-1.203963,0.75288266,1.3092238
0.6183649,5.112396700000001,0.9362478000000001,-1.0985626,0.59318507,1.2064763
1.0849948,5.6102753,0.94009763,-0.9830566999999999,0.54049355,1.0350675999999999
1.3906194,6.091778,0.802862,-0.87498593,0.5745624,0.7726398
1.4628571000000001,6.460417700000001,0.61174726,-0.7648033000000001,0.5814739000000001,0.49528953
1.3811672,7.099756200000001,0.68331474,-0.56677824,0.49843112,0.18069394
1.4756327,8.822116000000001,0.8974905000000001,-0.28251645,0.37440804,-0.12058479999999999
1.7454976000000002,11.073959,0.6375663,-0.04881686,0.30201176,-0.47246063
1.4548798,11.829683000000001,0.30040526,0.11086331,0.17584193,-0.7806858
0.80334085,11.349406,0.32280543,0.32805207,-0.09402089,-0.97017616
0.5877190999999999,10.930163,0.7734995,0.6346715,-0.36604790000000004,-1.0542836000000002
0.6462429,11.524232000000001,0.8557164,0.95406675,-0.47623053,-1.1133803999999998
0.77361447,12.429594,0.53383994,1.1755141000000002,-0.5544911,-1.2485911
0.8450095,12.373111,0.6162388000000001,1.3336061000000001,-0.6407278000000001,-1.424782
0.7754532,11.706909,1.0220081,1.4736163999999998,-0.65989155,-1.5663806
0.49402913,10.346418,1.521678,1.6098917,-0.5108404000000001,-1.583415
0.14322114,9.826609,1.7397898,1.7546842,-0.24413666,-1.4892021
0.10663774,10.754639,1.8157433999999997,1.8595611,0.039566614,-1.3523858999999998
0.19110517,12.149616,1.8148049,1.8467851999999998,0.36163223,-1.2528496999999998
-0.039178713999999996,12.57589,1.6715453999999998,1.7190272,0.6528229999999999,-1.1703305
-0.47527778,11.613056,1.7262003000000001,1.5550708999999998,0.7523591,-1.092611
-0.8449424999999999,9.996386,2.0313175,1.4182545,0.6155427,-0.98775166
-1.034094,8.530004,2.3589206000000003,1.301684,0.36695546,-0.86371106
-0.8753871999999999,7.2933707,2.5593443,1.1840313999999998,0.039566614,-0.7652396
-0.8471356,6.508963,2.6947315,1.0871482,-0.30003956,-0.67580897
-0.19691831,6.205541,2.7293131,0.9785538,-0.52468085,-0.58424896
0.28030357,6.4082723,2.7087135,0.87688833,-0.5358510000000001,-0.5405808000000001
0.7035314,7.0498804999999996,2.8025854,0.7714879,-0.43418556,-0.54005724
1.0234542,7.954611,2.7586663,0.6676757,-0.27394688,-0.5352576
0.87560743,8.951049000000001,2.8466099999999996,0.5873033000000001,-0.08337438,-0.5272814
0.6632034000000001,9.977807,2.7918594,0.48774973,0.080564395,-0.45436156
0.21342870000000003,10.290087,2.8120952,0.33285174,0.18064158,-0.34042647
-0.36194584,10.059172,2.8007085,0.21734585,0.13220869,-0.16423549
-0.58515245,10.465544,2.703475,0.12897983,-0.058887407,0.05347689
-0.37879145,11.527459,2.6305285,0.013980086999999999,-0.2478542,0.22434463
0.023942016,12.537218,2.3935218,-0.17496926,-0.37934732,0.30686378
0.054415415999999994,12.703596000000001,2.1531724999999997,-0.35489523,-0.50338787,0.37978363
-0.19724391,12.814936,1.9185408,-0.48691195,-0.6572212,0.53735197
-0.16994043,13.644115,1.7645074,-0.5992239,-0.82863,0.71089005
-0.01361822,13.996723000000001,1.8174001,-0.7520100000000001,-0.9404183,0.8328013000000001
-0.030913932,13.01783,1.581466,-0.93567103,-0.9888511999999999,0.9674709
-0.16602352,11.552646000000001,1.2566494,-1.0985626,-0.9425476,1.1761424999999999
0.05212656,11.461015,1.0147966999999998,-1.1666828000000002,-0.78230894,1.3938723
0.6407459,12.486317999999999,1.1333096999999999,-1.2050101999999998,-0.4969825,1.4854323
1.2723075000000001,13.373339999999999,1.2533263000000001,-1.2231092,-0.06047566,1.4550809999999998
1.5043057,13.384151999999998,0.9876082,-1.2348378999999998,0.4494572,1.3762968999999998
1.4319624,12.40366,0.29979235,-1.2758181999999998,0.98818797,1.3512863000000002
0.73836225,11.158292,-0.051034804,-1.3540788000000001,1.3182296999999998,1.3832258
0.3084402,9.770516,0.13891158,-1.4152875,1.3970139,1.4460402
-0.07881712,8.253685,0.39167225,-1.4562678,1.2926781,1.5333415000000001
-0.35331714,6.8691754000000005,0.5884948,-1.4509445,1.0392913000000001,1.6451299
-0.0995126,5.9665995,0.68783504,-1.4190049999999998,0.7842986,1.733496
0.28243917,5.523145700000001,0.80793774,-1.3721778,0.61821306,1.7563772000000002
0.6991835,5.362073400000001,0.87902635,-1.3029581000000001,0.5011015,1.6749401000000002
0.97755253,5.6963989999999995,1.0272944,-1.1794586,0.37281978,1.5056607
1.4597161,6.2083664,1.0758488000000002,-1.0272136,0.29988247,1.2309808
1.7200520000000001,6.25173,1.1453764,-0.8467465000000001,0.29616493,0.9126501
1.8814595,6.673789500000001,1.1533156999999998,-0.59657097,0.29297096,0.5645093000000001
2.1177864,7.9349113,1.1312795,-0.33199653,0.29030059999999996,0.15194836
2.1135919999999997,9.956221000000001,0.9854726,-0.050405107000000005,0.19502309,-0.31860986
2.0682552,11.816486,0.5755182,0.14761995,0.00710349,-0.75722855
1.4758719999999999,11.51092,0.8062425999999999,0.33126348,-0.14671238,-1.0707768999999998
0.71766675,10.262736,1.2217036000000001,0.59901446,-0.26063000000000003,-1.2198280000000001
0.3641868,10.240183,1.1519558,0.8848819,-0.42671555,-1.2821014
0.5026483,11.743454,0.77050203,1.0541614,-0.62954026,-1.3592973
0.56401646,12.621369,0.81519693,1.1686027,-0.7727271,-1.4934433999999999
0.5184117,12.520688,1.1077876,1.2857317,-0.83767074,-1.6110785
0.09812396,11.226613,1.3988458000000001,1.4060371999999999,-0.7812443,-1.6440827
-0.24897783,10.972750999999999,1.1946492,1.5002327,-0.69183105,-1.5881972
-0.39996576,11.830055999999999,1.2045228000000001,1.5651938,-0.6130294,-1.484385
-0.19026242,12.915281,1.4950736,1.5779697,-0.43895029999999996,-1.4173120000000001
-0.017113755,12.863558,1.6304226000000002,1.5343364,-0.20579177,-1.3869607
-0.006991069,11.539123,1.6465404,1.4310478000000002,-0.049288097999999995,-1.3715321000000003
-0.28248706,9.600107000000001,1.9308279,1.3400288999999999,-0.030124382999999998,-1.3204288
-0.46524128,7.9300656,2.3537781000000004,1.2883846,-0.1158375,-1.2309982
-0.15155296,6.983847999999999,2.452266,1.2181176,-0.2302962,-1.1208155
0.22477724,6.5488696,2.5391467,1.1372216,-0.2441192,-1.0782120000000002
0.37002864,6.5245924,2.527961,1.0488381000000002,-0.25424212,-1.0106155
0.8612996999999999,6.781385,2.4451406,0.9636661,-0.20313887,-0.9839992000000001
1.0082366,7.4202633,2.5701277,0.9205565,-0.10571459,-0.9685705
1.2530965,8.175317999999999,2.6889564999999997,0.8817054,-0.002443461,-0.96483546
1.1968806,8.787161,2.80927,0.8635889000000001,0.09121091,-0.95418894
1.0477505,9.109775,2.929574,0.84016657,0.18702948,-0.90736175
0.7862175,9.3873205,2.918551,0.8018392,0.26529005,-0.79822636
0.67731005,9.912378,2.8850033,0.74221873,0.30096456,-0.6752504
0.6737571,10.9065275,2.8333461,0.65278804,0.3424685,-0.5341929
0.7445201,12.336489,2.6312757,0.48989648,0.41912335,-0.4000469
0.397313,13.281785999999999,2.2509902000000004,0.20352285,0.43244022,-0.22277382
-0.3226522,13.083604,1.8583602,-0.098820545,0.30309388,0.066811204
-0.9535722,13.005225999999999,1.7234327,-0.33519047,0.019355701,0.5112767
-1.0600376,13.868164000000002,1.5398068,-0.5704783,-0.26221827,0.95258325
-0.8724758,13.65915,1.6222154,-0.93670076,-0.52412236,1.2985947
-0.7039719,11.85535,1.6164979,-1.2262858,-0.74344045,1.5461348
-0.42833227,11.163253,1.2631999,-1.3795955,-0.82541853,1.826138
0.2998594,12.162324,0.80882835,-1.4876662,-0.62419957,2.0044581999999997
1.0005177,13.825921,0.83488685,-1.5951959999999998,-0.19249237,2.0225573
1.5169567,15.002326,0.8644409,-1.7218895,0.27860692,1.9363206999999998
1.6015868999999998,14.666247,0.32659784,-1.8139904999999998,0.7150963,1.8442196
0.7314669,13.451794,-0.6246664000000001,-1.9108561999999998,1.0094809999999999,1.8564718
-0.077217795,11.528934,-0.5307083,-1.997634,1.0398322,1.9411029
-0.17640479,9.918267,-0.17254533,-1.9896405,0.9147445,2.090695
-0.20369868,8.546036,0.08655518,-1.9518541,0.7513119,2.1891665000000002
0.055124099999999995,7.3478145999999995,0.29723534,-1.8688112000000001,0.5298645000000001,2.2450693
0.41936840000000003,6.4685296999999995,0.5100416,-1.7708633999999999,0.37336084,2.2307053
0.8406041999999999,6.0186589999999995,0.49710329999999997,-1.676092,0.3196047,2.1652205
1.1715307,6.139969000000001,0.31828520000000005,-1.5893317,0.33557445,2.0545144
1.4147722,6.1414623,0.345196,-1.5084182,0.40955895,1.8782883999999997
1.5275965,5.886164,0.56499326,-1.3657551,0.50590116,1.6472765999999999
1.5324518999999999,5.781642400000001,0.8335174000000001,-1.1411138,0.56660366,1.3699263000000002
1.6873376,6.45699,1.0418895000000001,-0.8520523000000001,0.55435145,1.0239148
2.0245178,8.181888,0.86339706,-0.5512971,0.44788638,0.58421403
2.2713217999999995,9.413492999999999,0.831918,-0.25799456,0.27806586,0.046565384
2.224702,10.043550999999999,0.9705328000000001,0.05660103,0.09335766,-0.4404862
2.0253127,10.276144,1.1463534,0.41271800000000003,-0.06260496,-0.8604997
1.7661835,10.017923,1.2925817,0.7677878,-0.18184586,-1.1889531999999998
1.6134142,10.085728,1.2482506000000002,1.115405,-0.28935814,-1.4503162
1.6028223,10.435789,1.3111798000000001,1.3884792,-0.37133625,-1.6749401000000002
1.615636,10.557051,1.6428151000000002,1.6706116999999998,-0.4352153,-1.9150276000000002
1.5830461999999998,10.87636,1.8501146000000002,1.9405093999999998,-0.4432089,-2.1322165
1.4211120000000002,10.663727,1.9057751,2.1316056,-0.32290336,-2.283938
1.2108818000000001,11.024897,1.7517512,2.2508464,-0.11903145,-2.3169419999999996
1.0006136,12.358208,1.5643331,2.3147254,0.13114405,-2.2908494
0.6376142,13.73451,1.5241488,2.2897147999999996,0.37761945,-2.220059
0.07731356,14.116260999999998,1.4949013,2.142252,0.5522222,-2.069402
-0.57280797,13.221653,1.283455,1.9256043,0.5032482,-1.8255968999999996
-0.99593043,11.269957000000002,1.6236039,1.6769995999999998,0.28393015,-1.5732747
-1.7697078000000002,9.421538,2.2308311,1.48908,-0.1807812,-1.2325864
-0.91379017,7.993875500000001,2.4332175,1.2841608999999998,-0.5821371,-1.0127273
-0.5554548,6.929786999999999,2.4265425,1.1185989,-0.9116553,-0.83547163
-0.08162312,6.482703,2.5868487,1.0057459999999998,-1.2065636,-0.73485345
0.7384005,6.6867466,2.526333,0.90990996,-1.2512789,-0.7157071999999999
1.3998706,7.171371499999999,2.6924906,0.8279493,-1.1213915,-0.77904516
1.8579389,7.8639755000000005,2.861636,0.7874926,-0.88662726,-0.86847585
2.0470137999999998,8.569757000000001,2.9888926,0.7273485,-0.5337042,-0.9605594000000001
1.6588371,9.007552,3.033626,0.6794218000000001,-0.19514526,-0.9802642
1.0999441,9.5096445,2.9193554,0.6528055,0.03693117,-0.8759283999999999
0.69149333,10.302508,2.806397,0.59320253,0.20568705,-0.6853559
0.38477695,11.275196000000001,2.7035517999999996,0.47926742,0.32332224,-0.44315654
0.25380453,12.245519,2.4878150000000003,0.29190633,0.37870154,-0.20998056
0.058016295999999995,12.607330000000001,2.1395736000000003,0.029461157999999998,0.3281219,0.008779005999999999
-0.20937774,12.635581,1.8485153000000003,-0.19675097,0.17320648,0.26270697
-0.39157647,13.186497,1.6262566999999999,-0.40542254,-0.06312856,0.5693264
-0.45506114,14.225063,1.5328828,-0.6130469,-0.302675,0.86156434
-0.45512816,14.541548,1.2641575,-0.92284286,-0.5278399,1.1389146
-0.5197238000000001,12.406486,1.3042653,-1.2177511,-0.6630505999999999,1.3816549999999999
-0.3506835,11.177647,1.1462575000000002,-1.34338,-0.73597044,1.6808218999999998
0.39646065,12.468772999999999,0.65966964,-1.4019532,-0.6406929,1.8900169999999998
1.0006998,14.289094,0.6885628,-1.5121358999999999,-0.29948103,1.9427085
1.269626,14.329757,0.8154938,-1.6276416999999999,0.04811873,1.8836466
1.1811171999999999,12.719331,0.7609922,-1.6382883,0.40636500000000003,1.8676593000000001
0.7499023,11.5618105,0.12001654,-1.6500168000000002,0.882805,1.9001398999999997
0.17449899,10.026773,0.25245422,-1.6798096000000002,1.063272,1.9176978999999998
0.11267114,8.6922455,0.36269283,-1.643629,1.0472848,1.9118511999999999
-0.025560496000000002,7.759656,0.37542042,-1.5978315,0.92059135,1.9006634999999998
0.2934717,7.0428505,0.27133965,-1.5552454,0.7294953000000001,1.8682004
0.43921152,6.493391,0.33634704,-1.4998837,0.6033254,1.829332
0.6792159000000001,6.108442,0.62108463,-1.4088472,0.55011034,1.7468302
1.0062255,5.9462967,0.7156077,-1.3199576000000002,0.5309465999999999,1.5887208000000002
1.1961815,5.901697599999999,0.74723995,-1.2033696000000003,0.48462558,1.3832607
1.4185263000000001,5.8962007000000005,0.88243574,-1.0447366,0.43778095,1.1399792
1.614573,6.352545,1.1223825,-0.8211774,0.41381755,0.8743401
1.9054685000000002,7.414718,1.1062936,-0.59386575,0.4324577,0.5714557
1.9995415,8.206643,1.0496275,-0.37880626,0.4159643,0.21427408
1.9819488999999997,9.403228,1.0072406999999999,-0.11264355,0.28553587,-0.14664257
2.0450313,10.760222,1.0462853,0.15296066,0.13062043,-0.5150117000000001
1.9118658,11.530313,1.11701,0.39997712,0.03481932,-0.82374305
1.5131164,11.00376,1.1090803999999999,0.62514204,-0.030647982,-1.0313674000000002
1.1462861999999998,10.463179,1.0338450000000001,0.81784385,-0.09985029,-1.1357032
1.0440252,10.878755,0.939638,0.9940523000000001,-0.26326546,-1.2373686000000002
1.1538233,11.6450815,1.275621,1.1947303,-0.5044175999999999,-1.3938723
1.218687,11.997200999999999,1.5807285,1.4273476999999999,-0.66730917,-1.5429235000000001
0.9617316999999999,10.836244,1.7375870999999998,1.6296313999999998,-0.6534687,-1.6371537
0.7526795999999999,10.548478999999999,1.5072266,1.7776352999999998,-0.5805314,-1.6382008999999997
0.85967165,11.8389635,1.4909938999999999,1.8793006999999997,-0.48045424,-1.6280955
1.0789423,13.291621,1.7384297999999998,1.8894236,-0.182352,-1.6451299
0.87591386,13.343595,1.6906416000000002,1.7872171000000001,0.18812904,-1.6531061000000002
0.37538213,12.180922500000001,1.4717253000000001,1.6280431999999998,0.37976620000000005,-1.5828565
-0.41891828,10.258915,1.7182803,1.4454643,0.36644933,-1.4135596000000001
-0.3124912,8.335892,2.0031328,1.2825726,0.25946066,-1.2027588
-0.6254134,7.004103,2.383332,1.1734372,0.08538151,-0.99462825
-0.6583384,6.6564746,2.3691392000000002,1.0914591999999999,-0.15521213,-0.7763748
0.3119166,6.5380955,2.3207476000000002,0.9551838,-0.25474826,-0.6970496
0.36767277,6.7448397,2.3423243,0.85351837,-0.34046137,-0.64168775
1.1143093000000002,7.176553,2.375891,0.7779282,-0.3058515,-0.6762975999999999
1.2246342,7.956755599999999,2.5251357999999997,0.712967,-0.18875736,-0.7199483
1.0288746,8.72631,2.6155696,0.6474996999999999,-0.13817772,-0.75614643
0.76838547,9.036608,2.6520572000000002,0.58522636,-0.15892968,-0.7524114000000001
0.43704715,9.132462,2.6351159,0.540511,-0.21589723,-0.67362726
0.27131096,9.6751795,2.5328453,0.5080304,-0.31862729999999995,-0.5336344
0.28907594,10.866602,2.3985305,0.43830454,-0.39154717,-0.3744604
0.43105206,12.000553,2.3065164,0.29510027,-0.38411206,-0.23073253
0.43575427,12.617443,2.0052876,0.09920452,-0.40379938,-0.09180432
0.24348074,12.404943,1.7156755000000001,-0.10412634,-0.46022588,0.11739085
-0.014767436,11.983669,1.7995299,-0.24200736,-0.5565855,0.40537018
0.056120086,12.841387,1.9049993000000003,-0.31812117,-0.66889745,0.6875026
0.29248527,13.760713,1.9559863000000002,-0.47354272,-0.74926984,0.8562584999999999
0.34439155,13.123702,1.8787493000000002,-0.72001815,-0.7524812,0.9706998
0.22813869,11.7437315,1.6315336,-0.93401295,-0.6412165,1.1309383999999998
0.6988388000000001,11.983229,1.2604611000000001,-1.0415425999999999,-0.32288590000000006,1.3039355
1.1945343000000002,13.542620000000001,1.1962963,-1.1794236999999999,0.27436575,1.3561034
1.031269,14.586128,0.8866016,-1.3636082,0.89877474,1.2863774
0.36761528,13.634615,0.65708387,-1.4876488,1.2277519,1.229951
-0.44163445,12.199492,0.047912765,-1.5637451,1.3422105,1.2576319
-0.7203195,10.616512,-0.15826629999999997,-1.6212538,1.2474566999999999,1.3683556000000001
-0.7805671999999999,9.4024515,-0.10607272,-1.6414821,1.0323972,1.4790792
-0.73455065,8.324218,0.21944295,-1.626577,0.6858446,1.5652986
-0.30609390000000003,7.478203,0.19461988,-1.5967668,0.38028979999999996,1.6462294999999998
0.113360666,6.8880134,0.40129694,-1.5408639,0.16896532,1.692533
0.6798861999999999,6.622217999999999,0.554794,-1.4881723999999998,0.09656907,1.6584642
1.0649313999999999,6.4020185,0.54971826,-1.4391985,0.058765236,1.5525402
1.3481653999999998,6.1340404,0.6389358,-1.3651966,0.03694862,1.4029479999999999
1.5519311000000002,6.330633,0.80885714,-1.2241389999999999,0.06567674,1.2278042
1.8846773,6.7543014999999995,0.96727663,-1.0639003999999999,0.17961183,1.0377728000000002
2.1067157,6.8651247,1.053238,-0.8680046,0.35686746,0.79344416
2.1718857000000003,7.272493400000001,1.0184072,-0.64336324,0.48675486,0.52621675
2.1774880000000003,8.204392,1.1044357,-0.39849359999999995,0.54691637,0.22544418
2.2023687,9.690579,1.0329542999999999,-0.15470599,0.50645965,-0.12374385
2.0145292,10.804314999999999,0.9511493000000001,0.066723935,0.36060247,-0.47933722
1.6191411,10.7389145,1.1256005,0.30574676,0.1939759,-0.742847
1.2163407,10.170022,1.3560088,0.59000856,0.04173082,-0.8775166
1.1099709999999998,10.274564,1.2709188,0.85671234,-0.09559168,-0.9781174000000001
1.1507396,11.072858,1.0538604999999999,1.055261,-0.28084093,-1.1010933
1.1550299,11.422028,1.2301600000000001,1.2373338,-0.4655491,-1.2544030000000002
1.0378481,11.309558,1.5351526000000002,1.4236301000000002,-0.5714906,-1.3715146999999999
0.7695156,10.790302,1.6675041000000002,1.5854571000000002,-0.56882024,-1.388008
0.6847513000000001,11.020166,1.5588169,1.7111033,-0.44106215,-1.3198703999999999
0.67182255,11.912972,1.6067296,1.7936051,-0.20151572,-1.2368276000000002
0.66740763,12.592361,1.7649959,1.7973226000000002,0.101874866,-1.194259
0.46397713,12.383607000000001,1.7421744,1.7094976999999998,0.38987166,-1.1729485
-0.0012449849,11.199176,1.6488962,1.5763988000000002,0.5335995,-1.1346385
-0.5258911999999999,9.690657,1.7729255000000002,1.4369296,0.49898964,-1.0659598
-0.9319095,8.250074,2.1024540000000003,1.323553,0.25040239999999997,-0.96427697
-0.67183214,7.331342,2.228006,1.250092,0.0071383966,-0.88177526
-0.36299929999999997,7.0555496,2.3643508,1.192601,-0.18661061,-0.85248864
-0.45605713,7.292604400000001,2.393177,1.1377802,-0.4288274,-0.8141611999999999
0.6030611,7.812653999999999,2.338072,1.0547198999999998,-0.42350414,-0.84025383
0.7632619,8.271899000000001,2.5447874,0.9631599000000001,-0.26700047,-0.8972214
0.8454309000000001,8.469805000000001,2.7020576000000003,0.8859815000000001,-0.14936528,-0.9398074000000001
0.6466643,8.691747,2.7282887000000002,0.8061326999999999,-0.025848325,-0.9110444
0.4010192,8.924885,2.8259816000000004,0.7055319,0.07367035,-0.80883795
0.20973207,9.068661,2.7600167,0.5671098000000001,0.13274974,-0.6784269
0.014642938000000001,9.228211,2.5874232999999998,0.42179373,0.11466813,-0.5187293
-0.08811619999999999,9.924502,2.3948147,0.30522317,0.008726646,-0.3414562
0.050929457000000004,11.165359500000001,2.298606,0.18064158,-0.14083062,-0.18229964
0.29125944,12.114622,2.3548793999999997,0.061941735,-0.26061258,-0.09180432
0.2684762,12.379957000000001,2.3946998,-0.040770892,-0.42189842,0.016249016
0.17824353,12.311463999999999,2.1699607000000003,-0.12808971,-0.5485919,0.19244
0.07583873,12.856259,1.9660513,-0.22443189,-0.6273761,0.41814598
0.23202688,13.605692000000001,1.7845901000000002,-0.42352159999999994,-0.64866906,0.59913665
-0.058226988,13.015733,1.6213534,-0.7226885000000001,-0.6699621,0.75405204
-0.50356764,11.676838,1.423123,-1.0011033999999999,-0.76312774,0.9871931
-0.23236206,11.901988000000001,1.1803415000000002,-1.1304498,-0.72958255,1.2719958999999998
0.5047648,13.626024,1.0408744,-1.276848,-0.45970228,1.4316936000000002
0.9020681999999999,15.077407999999998,1.0753222,-1.4194937,-0.054593899999999994,1.4615038999999999
0.88290495,15.035979000000001,0.5792053,-1.5701505,0.31747538,1.470021
0.21950041,13.601488,0.17912460000000002,-1.6675574,0.6384764,1.5184714
-0.32374397,11.450116,-0.18139431,-1.7559234000000001,0.76888734,1.6180073999999998
-0.5789659,9.330961,0.09357498,-1.7319775000000002,0.68477994,1.7276665
-0.49121356,7.793251,0.5292814,-1.6468054,0.53625244,1.7910044999999999
-0.10856268599999999,6.9830146,0.5235065999999999,-1.5696268999999998,0.388807,1.8101683000000002
0.24362439,6.4678884000000005,0.41604522,-1.5275645,0.28234190000000003,1.7851577
0.5759204000000001,6.0696650000000005,0.47079584,-1.4727261999999999,0.24294983,1.7186256999999998
0.86768746,5.757432499999999,0.7184329,-1.3763841,0.25253168,1.6025614
1.210901,5.784219,0.97008264,-1.2076457,0.31480503,1.4460577
1.5001301999999999,6.0523024,1.0661955,-1.0452777,0.4452335,1.268261
1.6848763,6.356749,0.8317360999999999,-0.92230177,0.6288945,1.0532190000000001
1.6274921,6.644110700000001,0.69531447,-0.81264275,0.7699520000000001,0.83177155
1.6035213,7.6099796,0.7915039,-0.6268699000000001,0.7843335,0.5725204
1.56621,9.187031,0.71289754,-0.38945276,0.68319166,0.27761206
1.6142282,10.709945,0.6768696,-0.1312662,0.49207813,-0.101386175
1.4402943000000001,10.921667999999999,0.82235086,0.16521287,0.1982345,-0.5011713
1.0291141,10.418953,0.96030474,0.49577823,-0.10197959,-0.7710515
0.8329619,10.321987,1.0621732,0.8407251,-0.34313172,-0.98239344
0.9705232,10.41923,1.1961815,1.1127521,-0.44107962,-1.2049055
1.2239445,11.240433,1.0601716,1.3075832,-0.5161287999999999,-1.4731975
1.335026,11.58333,1.3440282,1.4449058000000001,-0.5310339,-1.7547888999999999
1.1379449,11.475342,1.883097,1.6099441,-0.39049998,-1.9155512
0.77977234,10.636596,2.2687072999999995,1.7419433999999998,-0.08868018,-1.9315384999999998
0.30701327,10.580189,2.3259287,1.8750421000000002,0.23336798,-1.8133447
0.06866570599999999,12.108513,2.275593,1.9479619,0.49366638,-1.6627053
-0.026556486,13.732547,2.146354,1.8526669999999998,0.7497235999999999,-1.5514406
-0.5125316,13.561592000000001,1.8300894,1.5971681999999998,0.882805,-1.4636156999999999
-1.2835219999999998,11.958434,1.6499113999999997,1.3224883,0.6821096,-1.2831486
-1.6846561000000002,9.861689,2.010871,1.0919827,0.24773203,-1.0638305000000001
-1.7471448,8.059027,2.5124655,0.93654364,-0.25422466,-0.8285601999999999
-1.2778908000000002,6.959934700000001,2.4612107000000005,0.77206385,-0.7088306,-0.6464873999999999
-0.73782593,6.3770904999999996,2.3942208,0.6155602,-1.0883874,-0.52831113
-0.16184804,6.5142492999999995,2.1275737,0.47609090000000004,-1.3694377,-0.45378559999999996
0.50071377,6.872316400000001,2.03465,0.35843825,-1.4775083999999998,-0.4468741
1.0968605,7.2648315000000006,2.1623855,0.26316074,-1.414153,-0.4580442
1.4924783000000001,7.649464599999999,2.3369133,0.23013912,-1.2230569,-0.48307222
1.7078031999999999,8.109553,2.5342145,0.22483331,-0.93186617,-0.5054299
1.6032531,8.285134,2.6557062,0.23068017,-0.63058746,-0.49584803
1.3081056,8.486727,2.5682218,0.2583611,-0.3425907,-0.42397538
1.2270378999999998,9.193744,2.3882833,0.29136527,-0.1270076,-0.319116
1.2600013,10.541594,2.263306,0.30307642,0.046513025,-0.22755602
1.3817704,11.801414,2.2627695,0.28232446,0.17694148,-0.18175858
1.175553,12.639968,2.1467178,0.22214551,0.23654447,-0.14238396
0.6417514,12.637056,1.8823979,0.118909284,0.18174113,-0.024731316
0.0047022122999999996,12.236985,1.7068455000000002,0.0044505894,-0.032253683,0.23874359
-0.30335492,12.881322,1.6292064,-0.045588,-0.30213395,0.5490805999999999
-0.15850572,13.754152,1.8143452000000002,-0.18505725,-0.49324750000000006,0.8274954999999999
0.0019440917999999998,12.803836,1.9719411,-0.43470916,-0.5166698000000001,1.042555
-0.025752034,11.193783,1.6910247,-0.68968433,-0.46928412,1.2613493999999998
0.36714604,11.246408,1.5458882,-0.78126174,-0.32023302,1.4795854
1.0341132,13.298229000000001,1.3174716,-0.89570296,0.047054075,1.5658221
1.445619,14.618832999999999,1.5354398,-1.0985277,0.56286865,1.5328354
1.3566886999999999,13.656316,1.4060476,-1.2204214,1.0244036,1.5115424
0.7459661999999999,12.621436,0.7246961,-1.2901474,1.4300355,1.5562577
0.34668043,11.322458000000001,0.5572361,-1.4232461,1.6120908,1.6169254
-0.039092526,9.743195,0.64027655,-1.5078946000000002,1.5561878999999998,1.7026385
-0.29748434,8.559894,0.7647368,-1.5430107,1.3225058,1.7963276999999997
-0.23880725,7.534629300000001,0.8611369000000001,-1.5515279,1.0627309999999999,1.8623362
0.06021896,6.8851495,0.8122664,-1.5323641000000001,0.8088029999999999,1.9038575
0.33442208,6.5490512999999995,0.81673884,-1.4956424,0.59800214,1.8900169999999998
0.6961381,6.3158946,0.85088015,-1.4450628,0.44469243,1.8005863000000002
0.9841030999999999,6.0663323,0.92387456,-1.3657551,0.28818876,1.6302421999999999
1.2029045,5.8073277,1.0343909,-1.2284151,0.13009684,1.4173120000000001
1.4528495000000001,6.538498000000001,1.035722,-1.0362369,0.00286234,1.2022526000000002
1.8587433,7.313357400000001,0.8690281999999999,-0.8462054,-0.051417399999999995,0.89563316
1.970677,7.488996,0.91654825,-0.6402042,-0.04769985,0.60177207
2.1303222,7.839775599999999,1.043508,-0.3564486,-0.049811699999999993,0.28293532
2.4046116,9.224936,1.160527,-0.009389871999999999,-0.07909832,-0.10831513
2.4993072,11.365247,0.7041826,0.28497735,-0.17278759,-0.5815437
2.0699308000000003,11.199050999999999,0.9897916999999999,0.5037543999999999,-0.25850073,-0.9733527
1.4642937,9.831635,1.3520631,0.7826929,-0.27979374,-1.2022526000000002
1.3140528,9.950982000000002,1.2979445,1.0626961000000001,-0.32129768,-1.3667325000000001
1.428036,11.174619999999999,1.3551468999999998,1.312889,-0.4346917,-1.6360891000000002
1.3203927,12.089704,1.6907183000000001,1.5428536,-0.5193227,-1.9054456999999998
1.0706103999999999,11.632612,1.9538218,1.7312968,-0.47834238,-2.1013415
0.7049583,11.270197,1.8493102,1.8633136000000001,-0.30906290000000003,-2.1162467
0.048343718,11.718210000000001,1.8631486000000002,1.9564792000000002,-0.18928096,-2.0220337
-0.08124005,13.038899,1.8463604,1.9799016,-0.030647982,-1.8325083999999998
0.20638977,13.685659,1.8857593999999998,1.8808889,0.30841714,-1.6871923
0.033451784,12.478081,1.7409006,1.6780642,0.5117654,-1.5402706
-0.44041818,10.429171,1.7112796000000001,1.4661813,0.5298645000000001,-1.3470451
-0.5410321,8.689142,1.9394756999999998,1.2894667,0.45214498,-1.1261212999999999
-0.46918693,7.530799000000001,2.0644052,1.154256,0.33077478,-0.9520596
-0.3124146,6.786815,2.3322208,1.0419266,0.11623893,-0.8360127
-0.2670301,6.644120699999999,2.479579,0.9237504000000001,-0.1270076,-0.7817155
0.15715539999999997,6.8182554,2.2458951000000003,0.76085883,-0.33622023,-0.7684161
0.004213795,6.925688,2.3172424,0.6474821999999999,-0.59013075,-0.74975854
0.30513623,7.4507080000000006,2.3950062,0.5921204000000001,-0.8259595999999999,-0.7151661
0.69712454,8.589897,2.3338296,0.5543166,-0.9217781999999999,-0.6544810000000001
0.94266427,9.448736,2.3457527000000002,0.48404962,-0.8807804,-0.6145653
0.74542034,9.691298,2.3417208,0.38770744,-0.7663392,-0.51448816
0.33662474,9.504167,2.2255158,0.28337166,-0.7423758,-0.34627333
0.15046121,9.572372999999999,2.1879365,0.20724039,-0.7743153,-0.1285435
0.36658102,10.343182,2.148078,0.13058554,-0.75195765,0.06518805
0.7240736,11.581367,2.0105646,0.026790803,-0.65242153,0.21371557
0.7737198000000001,12.682057,1.67393,-0.11798426,-0.57416093,0.3100752
0.45469719999999997,12.92394,1.5136718,-0.25319493,-0.56512016,0.43249258
0.041189846,13.227964000000002,1.4604629999999998,-0.31335640000000003,-0.666262,0.59273124
0.045882482,13.936264999999999,1.454104,-0.3617893,-0.8334121999999999,0.7316595
0.22762156,13.691166,1.7110976000000002,-0.43633232,-0.94094193,0.7960795999999999
0.29377815,12.29457,1.5665836000000002,-0.560879,-0.88823295,0.85250604
0.16820703,10.686357000000001,1.2739738,-0.7035597,-0.7242941999999999,0.9515186
0.44535983,10.497205000000001,1.2972552,-0.70195395,-0.436821,1.0893822
1.1909813,11.988361,1.2709955,-0.73069954,0.09494591,1.1197335
1.5860533,12.794288,1.3213121,-0.81854194,0.75715876,0.9951693000000001
1.457973,12.213867,0.8172464,-0.87283915,1.133504,0.8785813
0.761586,11.457155,0.11712434,-0.924466,1.3198353999999999,0.84398884
0.32609028,10.530877,-0.06106172,-0.9941919,1.3384581,0.90680325
-0.2067058,9.686519,-0.24895866,-1.0884222,1.1745018999999999,1.0122037
-0.7041443000000001,8.629717999999999,-0.09646718,-1.1624242,0.7853806999999999,1.1687074
-0.6543449,7.708755,-0.05326619999999999,-1.241732,0.35843825,1.3747084999999999
-0.24323173,7.2666225,-0.087503284,-1.3104106000000002,0.11569787599999999,1.599891
0.28521645,7.077567,0.07541735,-1.3599082,0.03693117,1.7553299999999998
0.81244844,6.9415664999999995,0.37648344,-1.3529966999999998,0.030543262,1.8144093999999997
1.1922262,6.915833500000001,0.64220154,-1.2848591,0.059812434000000005,1.7782112
1.549872,6.9704213,0.83064437,-1.1571008999999999,0.10185742,1.6483238999999998
1.8115583999999998,7.266909599999999,1.0501639999999999,-0.9910154,0.18969983,1.4604217
2.081203,7.5508337,1.1281575000000001,-0.8350353000000001,0.3270398,1.194259
2.1893442000000003,7.920757000000001,1.1301303,-0.6492625,0.4569272,0.90519756
2.244928,8.489428,1.255347,-0.4320737,0.57136846,0.57356757
2.3238792,9.685321,1.3200478999999998,-0.17175785,0.62140703,0.20572196
2.3733049999999998,10.902286,1.2685534,0.07946484,0.60704297,-0.21638592
2.0539377,11.234849,1.2142241000000003,0.28867745,0.5564633000000001,-0.56452674
1.5013081,10.531633,1.2138507,0.5000019,0.49364892,-0.81047857
1.1372075000000001,10.120559,1.2316444,0.7134906,0.35791466,-0.9808051999999999
1.0533146999999998,10.809438,1.2709571000000002,0.8912698,0.17266542,-1.1059104
1.0883275,11.515852,1.4205661,1.044597,0.011379546499999999,-1.2725196
0.73514444,11.24864,1.4426023000000001,1.1611501,-0.15310028,-1.4482044
0.2121167,10.935803,1.5490868,1.2793263000000001,-0.3474078,-1.4881201000000002
0.12025597,11.220922999999999,1.5935998,1.3501344,-0.41181043,-1.4338229
-0.07332961,11.791655,1.5889646000000002,1.3884618,-0.38891172,-1.3182995000000002
0.019268535,12.192406,1.7135397,1.3655806000000001,-0.27501154,-1.1969292999999999
-0.021930886,12.202471000000001,1.712898,1.2836024,-0.13500121,-1.09207
0.3251996,11.168424,1.6372796,1.1393335,-0.01150172,-1.0457664
-0.061655484,9.5041,1.8550849999999999,1.0041229,0.10026917,-0.97974056
-0.19172768,7.913488,2.0256863000000003,0.8928581,0.090687305,-0.91800827
-0.18521544,6.866944,2.0972536,0.836449,-0.00991347,-0.8525235000000001
0.002480393,6.750279400000001,2.0856464,0.8039685000000001,-0.110514246,-0.7902326999999999
0.11258494,7.075373599999999,2.0137823,0.72199035,-0.19142771,-0.7567049
0.11357135,7.1760163,2.0894868000000004,0.6304304000000001,-0.25797713,-0.72848296
0.28069618,7.3098617,2.1248446,0.56175166,-0.33995524,-0.6965609
0.40191942,7.6305119999999995,2.1872277,0.5399176,-0.43949136,-0.65449846
0.78884155,8.10466,2.4396725,0.5543166,-0.4842067,-0.63533473
1.0880785,8.696191,2.686438,0.5915793,-0.40064034,-0.6214943
1.4166204,9.168203,2.7589536,0.61233133,-0.19888027,-0.64385194
1.5359762,9.775966,2.632329,0.6229778,0.02893756,-0.67633253
1.3512586000000002,10.732142999999999,2.4628386000000004,0.6011438,0.20886356,-0.6976256
1.056906,11.812417,2.3526096,0.53354716,0.31798154,-0.66940355
0.6030707,12.472536,2.1143196,0.41430625,0.3190462,-0.57943183
0.011923123999999998,12.382122,1.9354631999999998,0.27003735,0.17212437,-0.38194785
-0.33495840000000004,12.398325,1.9020303,0.16837192,-0.063669614,-0.09342747
-0.2936728,13.550377,1.8488216,0.08798204,-0.29682815,0.17910568
-0.031718384,14.294246,1.9075084,-0.12704252,-0.45226717,0.40748203
-0.20828596,12.940439,1.5975262,-0.44004986,-0.52785736,0.5788908
-0.46071145,10.422592,1.5037118999999999,-0.7429691999999999,-0.57578415,0.84770644
-0.13251428,9.846403,1.5496997,-0.8084365,-0.43683845,1.1692308999999999
0.7167857,11.713403,1.3115915,-0.8755094999999999,-0.079639375,1.3017713
1.102798,13.718785,1.3024361,-1.0660646,0.35472070000000006,1.2581381
0.85437566,13.283213,1.1464875,-1.2428141000000001,0.69647366,1.1255803
0.15046121,11.964592,0.43057325,-1.3322448,0.79388046,1.1356857
-0.23809858,10.82499,0.037253775,-1.42274,0.762482,1.2730257999999999
-0.14320199,9.968958,0.28259242,-1.4637203,0.77684605,1.4194239
-0.21878216,9.196502,0.34668043,-1.4754316,0.6501526,1.567934
0.047002967,8.188333,0.2502707,-1.4759725000000001,0.53251743,1.6994271
0.08433336,7.3787093,0.32943258,-1.4770371999999998,0.42551127,1.8468723999999999
0.45596135,6.755786,0.45221683,-1.4786255,0.44308674,1.9192686999999997
0.7259411,6.387682,0.6660573000000001,-1.4557267,0.43776348,1.9059694
0.9800234,6.045397299999999,0.8931425999999999,-1.3881476000000001,0.39196604,1.8026807
1.2284075,6.272933,0.9480177,-1.2641071000000002,0.31372294,1.6467181
1.6024295,7.1326814,0.81462234,-1.1161206,0.22109829999999997,1.4045013000000002
1.7300118000000002,7.5809717,0.85349464,-0.9548173000000001,0.16467181,1.1106752
1.7891868000000002,7.536764999999999,1.0086101,-0.76586795,0.1412495,0.8194844000000001
1.8073541000000002,7.808142999999999,1.1217888999999999,-0.5268451,0.11943288,0.5256408
1.9579398999999997,8.731127,1.2081813,-0.25055948,0.066723935,0.2003987
2.1153731,10.164593,1.2718669,0.05497787,-0.012583823999999999,-0.18020524
2.0941987,11.056931,1.4496316999999999,0.3339164,-0.08124508,-0.5757143
1.8192389,10.614933,1.6833918999999997,0.5979498000000001,-0.09028588,-0.90575606
1.4583082,10.195143,1.5717263000000001,0.8470781,-0.10412634,-1.1564901
1.3240702,11.135997,1.4274997,1.0743898,-0.22710223,-1.3965601
1.3052708999999998,12.405738000000001,1.6874238000000001,1.3176538,-0.355925,-1.6579406000000003
1.1361445,12.863777,1.8606490000000002,1.5300428999999998,-0.40383428,-1.8740647000000001
0.56063586,11.36968,1.9323602,1.643978,-0.29469883,-1.9219564999999998
-0.5635855,10.508410000000001,1.9914874,1.7137039,-0.21858503,-1.7995392
-0.16214491,11.323319,1.3880048999999999,1.6828290000000001,-0.008307766999999999,-1.5072838
-0.5306795999999999,12.544497,1.2034311000000002,1.5151552,0.19235274,-1.3071294
-0.6490968,12.405719,1.0771226,1.2793263000000001,0.24026202,-1.1612723
-0.73954016,11.257728,1.0146914,1.0669198,0.09121091,-1.0478957
-1.1869398000000002,9.720382,1.3087856000000002,0.9402438,-0.16587609,-0.9185319
-1.0775057,8.181888,1.6549201,0.8625243,-0.46291366,-0.7987499
-0.76287884,7.107504,1.8218822000000001,0.84175485,-0.72003555,-0.7178539
-0.48017150000000003,6.676499400000001,1.9280986,0.8390844999999999,-1.005903,-0.69975483
0.21901199,6.973897999999999,1.7834408,0.80236274,-1.1086332,-0.72902405
0.7435337,7.4736443,1.7113466,0.726249,-1.0000387,-0.79983205
0.98648775,7.836682000000001,1.8586667000000001,0.65652305,-0.80147266,-0.85837036
1.0889499,8.035851,2.0558436,0.6266954,-0.6119648,-0.88393945
1.0178517,8.394454,2.2501952999999997,0.6453355,-0.44055602,-0.8525235000000001
1.0699782,8.7718,2.5099566,0.68312186,-0.27075294,-0.8088903000000001
1.0997909,9.095467,2.6499505,0.71506137,-0.09721484,-0.7551167
1.0474919,9.297931,2.6322331,0.70176196,0.067788586,-0.69336694
0.9787018,9.551342,2.5761898,0.6538527,0.19715239,-0.6183003
0.90860915,10.360660000000001,2.4468262000000003,0.60327303,0.286042,-0.5363397
0.9234532,11.637103,2.3449674,0.51916564,0.34938002,-0.45223227
0.7504673000000001,12.681502,2.1497439999999997,0.3578623,0.35524429999999996,-0.36438984
0.12475707,12.624194000000001,1.9453751,0.17317156,0.24132667,-0.1817935
-0.4527723,13.073625,1.6782205000000001,0.039008107,-0.02321288,0.1381079
-0.7369544,14.691942000000001,1.3218675,-0.14676474,-0.26490608,0.50380677
-0.78735715,14.113666,1.4190912,-0.51565754,-0.35751325,0.8008618000000001
-0.7798010999999999,11.201674,1.4462606000000002,-0.8547401,-0.4150044,1.0680891000000001
-0.31945354,10.148475999999999,1.2077407,-0.995274,-0.34580207,1.320935
0.357665,11.836502000000001,0.6997007,-1.0522416,-0.03494149,1.4417641
0.8872433000000001,14.58448,0.23489992,-1.2593074,0.43722242,1.3986545
0.49626055,14.517032,0.25669673,-1.4594618000000001,0.8135852,1.2815428999999998
-0.24781904,12.6662655,-0.45011949999999995,-1.5238819,0.8380546999999998,1.2804782
-1.0335481,10.897639,-0.829045,-1.5217526000000001,0.6368531999999999,1.3752322
-0.9093370000000001,9.470294,-0.46799940000000007,-1.4653261,0.33501595,1.5168306999999999
-0.49856856,8.550939999999999,-0.42657012,-1.4136817,0.12527974,1.6328777
-0.22083159,7.670112,-0.27566838,-1.4030527,-0.00726057,1.7308255000000001
0.30075002,7.0368843,-0.21364899,-1.4307162,-0.028012535,1.8090861
0.8262485999999999,6.6553254,-0.07685387,-1.4482917,0.13379695,1.8410081999999999
1.1009402,6.3134427,0.29161376,-1.4142228000000001,0.30148816,1.7824699000000002
1.2994386,6.132125,0.64858925,-1.3189453000000002,0.42711696,1.6477828
1.4401985000000002,6.349643,0.7504769,-1.2028983999999998,0.4893903,1.4859558000000002
1.4681437,6.614921000000001,0.82822144,-1.0676702,0.53197634,1.2906011
1.5642086000000002,6.9257455000000006,0.8557355999999999,-0.9165073,0.5569869000000001,1.0813886000000001
1.7255585999999998,7.518339,1.0870633,-0.6828076999999999,0.55059904,0.8333249
2.114243,8.775861,1.3718776000000001,-0.42196825,0.55911624,0.53148764
2.419542,10.371250999999999,1.3934829,-0.16432275,0.5782799,0.12000884
2.3998327,11.525025999999999,1.1451274999999999,0.03741986,0.5287824000000001,-0.31860986
1.9058229,11.491143,1.0855694,0.22745131,0.42870522,-0.665686
1.3078278,10.828314,1.297552,0.45315728,0.3275634,-0.85039425
0.9889011000000001,10.504665,1.4527059,0.6974859,0.24877924,-0.9648529
0.9010530000000001,11.477928,1.1555567,0.91256285,0.04171337,-1.0958048999999999
0.8002954000000001,12.104299000000001,1.0040133,1.0525556999999999,-0.26063000000000003,-1.2719958999999998
0.46964659999999997,11.774052000000001,1.1358858,1.164885,-0.5140169,-1.3891076
0.19242677,10.754026,1.1733503,1.2330053,-0.6550919,-1.3667673
0.015878346,10.489046,1.039007,1.283585,-0.65083325,-1.2256924
0.0004596867400000001,11.297482,0.9561484,1.3133951000000001,-0.58908355,-1.0798352
0.07322427,12.240960000000001,1.2704496,1.3043368999999998,-0.5273338000000001,-0.97869337
0.18368316,11.971372,1.3097048999999998,1.248975,-0.40596357,-0.9345190999999999
0.04114196,10.982988,1.1515056000000001,1.1638205,-0.32611477,-0.8977799000000001
0.30530858,9.300228,1.429032,1.0839542,-0.23827235,-0.91268504
-0.080780365,7.805853999999999,1.9811541000000001,1.0701312,-0.24413666,-0.91746724
0.14419799,6.852942999999999,2.0885293000000003,1.0621376,-0.27234116,-0.92811376
0.30905312,6.722401,1.9611863999999999,1.0456268,-0.25371853,-0.9345190999999999
0.45676579999999994,6.9794717,1.8773223,0.9907885000000001,-0.1733461,-0.94036597
0.57908076,7.2318872999999995,2.0020506,0.9354440999999999,-0.09827949,-0.9669822
0.6549099,7.761906,2.0553071,0.8928581,-0.03387684,-0.9627235999999999
0.5855355,8.242863999999999,2.2596955000000003,0.8513367000000001,-0.012042772,-0.9712408000000001
0.64537144,8.781385,2.3291178,0.8374961999999999,-0.06260496,-0.9440835
0.67731005,9.323452,2.4653096000000003,0.8257851,-0.10093239,-0.8983035
0.7459375,9.609857,2.6738633999999997,0.80236274,-0.088697635,-0.8429591000000001
0.860208,9.777460000000001,2.7800607999999998,0.7736172,-0.028012535,-0.774804
0.9364968000000001,10.122407,2.8092031000000004,0.72411966,0.06352998,-0.71678925
0.949617,10.997439,2.6982557999999996,0.6586349,0.14285520000000002,-0.6592981
0.88180363,12.139225999999999,2.3957243,0.51277775,0.19341739,-0.59915406
0.5098212999999999,12.622146,2.0523384,0.29665359999999996,0.1604132,-0.47617817
-0.044819455999999994,12.7655,1.8399537000000001,0.089029245,-0.004066617,-0.21162117
-0.38902906,13.647993,1.5119958,-0.11747811,-0.23081979,0.13704325
-0.7327023,14.493568,1.2127206,-0.40812778,-0.4895474,0.512324
-0.96204776,13.653001999999999,1.1304176000000001,-0.776497,-0.7567573000000001,0.88603383
-0.94076806,12.246658,0.81780183,-1.087375,-0.9856746999999999,1.2810193
-0.44019794,12.239859,0.40937975,-1.2726243,-1.0655061000000001,1.6307483999999999
0.40427533,13.513525,0.28332984,-1.405182,-0.8472700999999999,1.8303791
1.1258302,14.232553,0.5590460999999999,-1.5616857,-0.36550686,1.8665599
1.0933648,13.225082,0.6910432,-1.6314116,0.12156218,1.8255795
0.80877095,11.863825,0.19389203,-1.6415346000000002,0.5026897,1.7925754
0.31065246,10.432313,0.049617435999999994,-1.6692154,0.75129443,1.8277088
0.010026917,9.168357,0.21334253,-1.6803856,0.9125978000000001,1.8601893
-0.013158531999999999,8.153722,0.14378618,-1.6793208999999998,0.8242143,1.8761417
-0.042942400000000006,7.472064,0.07599196,-1.648987,0.65387017,1.8835943
0.16858053,6.838405000000001,0.1748725,-1.5962781000000001,0.47289696,1.8681655
0.5209017,6.2512608,0.36761528,-1.5073885,0.3903778,1.833032
0.9535627,5.757969,0.5805364000000001,-1.3727014,0.39835393,1.7622241
1.3605194999999999,5.7501063,0.76389396,-1.2156568,0.4633151,1.6360716999999998
1.6868013,6.379935,0.71739864,-1.07247,0.53410566,1.4156889
1.8332403000000002,6.9319224,0.5160367,-0.96919876,0.52719414,1.1096106000000001
1.6978242,6.9984717000000005,0.69569755,-0.8169536999999999,0.4617094,0.80245
1.747298,7.379475599999999,0.9708009,-0.6040234999999999,0.4121944,0.54000485
1.9878098999999998,8.449760000000001,1.0910090000000001,-0.31124458,0.36269686,0.23657937
2.2994967,10.344330000000001,1.0688195,0.04061381,0.2732662,-0.14187782
2.399871,11.839049000000001,0.758598,0.3296578,0.12156218,-0.62894684
1.9121914,10.971679,1.1567538,0.6069906,-0.018430676,-0.9930749
1.51892,10.076295,1.2489306,0.92212725,-0.1131846,-1.1852356000000002
1.3720115,10.230845,1.1779376,1.1930896,-0.109449595,-1.3076705
1.4035385,11.503766,0.96561027,1.3815328000000002,-0.10253809400000001,-1.4955726999999999
1.1283201999999999,11.620728,1.2504532,1.5215256000000001,-0.1712168,-1.7463066999999999
0.8112226,11.100342999999999,1.5628392,1.6524776999999997,-0.26384142,-1.9320970000000002
0.36000174,10.04112,1.6619495,1.7147685000000001,-0.23455479999999998,-1.9645599999999999
-0.22808124,10.090583,1.5669763,1.7866237,-0.22177899,-1.8687415
-0.17163552,11.615575,1.5223867,1.8121754,-0.20793852,-1.7127788000000002
0.050881572,12.857591000000001,1.8198613999999997,1.7509667000000002,-0.071663216,-1.5882148
-0.10891702,12.63833,1.5766585,1.5907278999999999,0.05979498,-1.4631094999999998
-0.5327864999999999,11.567164,1.4561629999999999,1.4102784,0.00019198621,-1.3018062
-0.7131944,10.028067,1.9182535,1.2574923,-0.16215853,-1.1389321000000001
-0.5884564999999999,8.462247999999999,2.4649265,1.1286695,-0.31068605,-0.9952042
-0.23704512,7.302775,2.5486085,1.0067582,-0.43844417,-0.88502157
0.0634655,6.683184,2.5292923,0.8891230999999999,-0.5310688,-0.8179311
0.50571287,6.7604213,2.3973619999999998,0.7911752,-0.48900634,-0.7593753000000001
0.93256074,7.1578393,2.4728754,0.6852512,-0.37828267,-0.7551167
1.2080758999999999,7.841911,2.5464346,0.61018455,-0.19675097,-0.7316944000000001
1.3119651,8.774059,2.6150045,0.5404587,0.016144296000000002,-0.7354294
1.1344398,9.50453,2.562332,0.46486846,0.15348426,-0.7178539
0.7035793,9.7016115,2.5107899,0.37969637,0.2099282,-0.6332055
0.33492965,9.665957,2.3031740000000003,0.2732313,0.20565215,-0.46074948
-0.046763547,9.776799,2.1866915000000002,0.15879005,0.124756135,-0.20682152
-0.13220783,10.297021,2.0815287000000002,0.049113564000000005,-0.00726057,0.026843164
0.09074982,10.911852,2.1101727,-0.07063347,-0.16215853,0.21315706
0.23633644,11.343871,1.9713474999999998,-0.18242182,-0.3080157,0.33348006
0.20543209,11.868231,1.6968186,-0.2585531,-0.472513,0.46441466
0.21717325,13.043659,1.491061,-0.27824038,-0.5757667,0.58100265
0.36533603,14.759267000000001,1.2212056999999998,-0.3596949,-0.59388316,0.6294529999999999
0.20887016,14.645619,1.1044165000000001,-0.53429765,-0.57311374,0.621983
-0.20990445,12.451831,0.723997,-0.7567921999999999,-0.5017822000000001,0.7156897
-0.6681355,11.182004,0.33273658,-0.8643394,-0.35327208,0.9983458000000001
-0.18708292,12.363648,-0.08121132,-0.93886495,-0.043441243,1.2410861
0.37812108,12.912189,0.32597533,-1.0554355,0.2817834,1.2841958
0.45439073,12.210745,0.3684389,-1.0490476,0.44361034,1.2932540000000001
0.31134197,12.376883,-0.37480749999999996,-1.0091318999999999,0.59957296,1.3954605
-0.2391137,12.023451,-0.89349693,-1.0820518,0.8806408000000001,1.4811562
-0.58196336,10.330923,-0.6313701,-1.1432779,0.87957615,1.589227
-0.7326161,8.869722,-0.32720116,-1.1667002,0.8322079,1.7036682
-0.587403,7.923045599999999,-0.46507847,-1.1901226,0.7166845000000001,1.857519
-0.55633587,7.289262299999999,-0.6831998,-1.203422,0.5937260999999999,1.9091633999999997
-0.29372066,6.933407300000001,-0.24535778,-1.1336961,0.36002649999999997,1.8820058999999998
0.4353808,6.8426860000000005,0.36499128,-0.97612774,0.15083136,1.7420131
1.0651899999999999,6.953116400000001,0.45440033,-0.8068482,0.13486159,1.565281
1.546865,6.745117,0.2863657,-0.70144784,0.35417965,1.3464866000000002
1.6525737,6.386724500000001,0.36202246,-0.639157,0.67570424,1.1207806
1.4629914,6.1461935,0.5674640999999999,-0.5555906,0.8529599,0.86474085
1.2747688,6.548285,0.8430559000000001,-0.40919244,0.8598888000000001,0.6134658000000001
1.2905896000000001,7.9046865,0.768941,-0.21490239,0.76139987,0.329204
1.4194072,9.323979,0.5744456,-0.036023594,0.61501914,0.055065135999999994
1.4760063,9.943005,0.6954869,0.17367771,0.44093999999999994,-0.27335346
1.4591318000000002,10.558047,0.90438575,0.41430625,0.23335052,-0.56985
1.5120628999999999,11.434238,0.83022296,0.64905304,-0.015236723999999998,-0.89510953
1.3203065,11.979073,0.63948166,0.8225911,-0.25638887,-1.2129166
1.0510832,11.644362,0.8124866999999999,0.9694955,-0.46399578,-1.4577862
1.1231871,12.02416,0.9479601999999999,1.1169584,-0.6540272,-1.6472939999999998
1.0268252,12.269057,1.4060476,1.2638976999999998,-0.8211774,-1.8250908
1.2276987,12.375169,1.3816938,1.3815328000000002,-0.84885836,-1.9448553
0.4094947,11.1564245,1.6415126,1.3985671999999998,-0.72748816,-1.9054806
0.07430644,9.964399,1.8252437,1.4124076,-0.6380574999999999,-1.7250136000000003
-0.19129673,10.6134,1.8440044999999998,1.4235953000000001,-0.48207740000000004,-1.4657624
0.4322013,12.338049,1.3907822,1.2793089,-0.22019073,-1.2682784
0.25842056,13.058732000000001,1.1224878999999999,1.0307217,0.029984757,-1.1367853
0.28263074,11.9569025,1.0744028,0.7677529000000001,0.099728115,-1.0478957
-0.14366168,10.244052,1.2515067,0.59688514,0.00710349,-0.8748986999999999
-0.5678089,8.451877,1.7340436999999997,0.5276654000000001,-0.25213027,-0.6827204000000001
-0.34433407,7.1134604999999995,2.0665312,0.51063097,-0.51296973,-0.5155702999999999
0.16982551,6.4250984,2.1823435,0.49893728,-0.67532027,-0.4128402
0.85647297,6.515753,1.983711,0.45155159999999994,-0.6604151,-0.35960764
1.2821524,6.835225599999999,1.9089258000000002,0.3866079,-0.46451938,-0.37238345
1.6898947,7.192708500000001,1.8404898999999997,0.3094294,-0.17013470000000003,-0.41495204
1.6613939999999998,7.6228223,1.8901935,0.26204374,0.11889183,-0.4516912
1.365624,8.151423,2.0293252,0.24926792,0.31956979999999996,-0.44423866
0.9789029,8.47601,2.188923,0.24607398,0.41538835,-0.39048252
0.64348483,8.536430000000001,2.2086701,0.23968607,0.43828708,-0.27869418
0.40060738,8.6826105,2.0883281000000005,0.2151991,0.38664278,-0.14987142
0.31688696,9.37465,2.0372837,0.17845991,0.29775316,-0.006143559
0.46458048,10.432782000000001,1.9763944,0.09861110000000001,0.24504423,0.099239424
0.48012364,11.678533999999999,1.8107156000000002,0.011850785,0.17744762,0.15940093
0.39486134,12.793311,1.4282563,-0.13131857,0.09440486,0.20359266
-0.09234915,13.002335,1.1174697,-0.2888869,-0.108926,0.2850297
-0.45250413,13.359798000000001,0.9208196,-0.38365826,-0.46239007,0.44792129999999997
-0.45130699999999996,14.093507,0.7960625,-0.45444882,-0.8547226000000001,0.60442495
-0.07392337,13.9724655,0.7171113,-0.5635668,-0.98354536,0.74124134
0.01028549,11.667644000000001,0.5253166,-0.69612455,-0.79456115,0.8684584000000001
-0.20807528,10.461694999999999,0.2825158,-0.68814844,-0.5140344,1.0425200000000001
0.47035527,11.674128,0.4018045,-0.6279869,-0.054628804,1.1282332
1.0266336,12.584776,0.4583747,-0.5907241,0.48193777,1.0611602
0.9740665999999999,12.29889,-0.03095224,-0.55930823,0.99616414,0.8588764999999999
0.5592568,11.320197,-0.96667325,-0.5742133,1.1553206,0.685862
-0.41611224,10.534009,-1.1403676999999999,-0.60562927,0.8976752,0.61613613
-0.4915679,9.451130000000001,-0.71585673,-0.6301161999999999,0.5937260999999999,0.6384938
-0.17263152,8.40789,-0.380793,-0.6077585,0.53410566,0.7454824999999999
0.20458932,7.637838400000001,0.08251377,-0.5960474,0.7475594,0.82000804
0.43515095,7.068718,0.02708321,-0.6066939,0.7438419,0.89559823
0.4693593,7.3274064,0.073176384,-0.7003832,0.93867296,1.0270914
0.7204536,7.42848,0.46889004,-0.7999368,1.0600432,1.0563605
0.66476446,7.318001700000001,0.7443573,-0.87179196,1.150521,1.0776535
0.65176874,7.2903633,0.9659549999999999,-0.88830274,1.2170705,1.0196388
0.58796805,7.256835000000001,1.0714723,-0.85210466,0.8939575999999999,0.9717295
0.72017586,7.907205599999999,1.0000103,-0.8323999,0.82527894,0.91263264
0.74023926,8.436342999999999,1.0117705,-0.76691514,0.6017023,0.8061676
0.95442456,9.116278,0.90707684,-0.667379,0.37760198,0.6523343
1.035971,10.125136,0.921624,-0.50555205,0.13805555,0.42449898
1.2502426000000002,11.675716,0.730854,-0.31763247,-0.18983947,0.10882128
1.2365572,12.41362,0.49430690000000005,-0.16432275,-0.54171526,-0.27017698
0.9076323000000001,11.597292999999999,0.6950272,0.059760075,-0.9090198,-0.6081949000000001
0.769822,10.720775999999999,0.8309700000000001,0.31314698,-1.1283379,-0.80621994
1.0283288000000002,11.410957000000002,0.45245624,0.55323446,-1.2273505,-0.98562235
1.0577391,11.412853,0.42660844,0.7022681,-1.2539666999999999,-1.227298
1.1005666,10.757924000000001,0.7832583000000001,0.88753486,-1.1469606,-1.4029653999999998
0.81403816,9.563764,1.0932691,1.0163401,-0.9068905,-1.4716268
0.37845623,8.584064999999999,0.98957145,1.1004475,-0.61411154,-1.4748381000000002
0.115754865,9.533491,0.5936375,1.1510272,-0.48209485,-1.4322346000000001
0.14345099,11.488395,0.35619974,1.1020533000000001,-0.39425242,-1.409877
0.007019799,12.745906,0.5072451,1.0360448,-0.2861991,-1.3848664
-0.30442753,12.789404,0.35502183,0.96312505,-0.18505725,-1.2996943
-0.7224264,11.619769,0.43820596,0.90509284,-0.22284363,-1.1767185
-1.0371683,9.684967,0.91297615,0.85878927,-0.33941418,-0.99892175
-1.0310965,7.759866000000001,1.4809573999999999,0.8337611999999999,-0.4895474,-0.87755156
-0.6629161,6.6893425,1.6272815,0.8055566999999999,-0.58908355,-0.7806683000000001
-0.13700579,6.557508,1.5994608000000001,0.7390073,-0.5619261999999999,-0.7598989
0.23287919999999998,6.773254,1.4874792,0.6346715,-0.46931905,-0.77801543
0.37768054,7.05238,1.6302981,0.55801666,-0.40596357,-0.81634283
0.42564118,7.6145380000000005,1.8763359,0.52927107,-0.37402406,-0.8142136
0.48427040000000005,8.425549499999999,2.1531632000000003,0.5117130999999999,-0.33730233,-0.7732158
0.54704636,8.833186,2.350809,0.50426054,-0.27342328,-0.693908
0.54824346,8.834825,2.4088159,0.49359655,-0.162176,-0.5714732
0.6093722,8.907858000000001,2.5933897,0.47497390000000006,-0.0035255651,-0.41177553
0.85536206,9.61091,2.6527752999999996,0.44036403,0.21682225,-0.25740117
0.9785581,10.5937195,2.588563,0.35573299999999997,0.4808731,-0.14294246
0.8392825999999999,11.610049,2.3896623,0.22691025,0.63524747,-0.08599237
0.46215752,12.150736,2.1056812000000003,0.036878806,0.6123662,-0.010925761
-0.22944114,11.846998,1.8563203000000001,-0.14782938,0.40315359999999995,0.14501941
-0.6641803000000001,12.354924,1.6739491999999998,-0.23937191,-0.00033161257000000006,0.40481165
-0.48304456,14.051139000000001,1.3779205,-0.36341247,-0.3511428,0.6539225000000001
-0.23132777,14.582957999999998,1.2073194,-0.59711206,-0.5491679,0.8716523000000002
-0.271694,12.513314,1.0188956,-0.8659450999999999,-0.5896246,1.0835178
-0.25462815,10.7934065,0.7949706999999999,-1.027231,-0.51616365,1.3731029
0.2991124,11.395883,0.5455141,-1.066082,-0.26916468,1.5982678
1.15005,13.389429999999999,0.6316479,-1.1432779,0.2541025,1.677052
1.5352483000000001,14.349581,0.7279331,-1.2454843999999998,0.8769232,1.6397892
1.5127428,13.598041,0.28122294,-1.3519495000000001,1.4443821000000001,1.5966796
0.6206441,12.384191,-0.2916425,-1.4477681,1.7504605,1.6344659
0.09915826,11.028393,-0.1995232,-1.5584917,1.7392903999999998,1.6701404999999998
-0.34642184,9.816983,-0.20755814,-1.6048127,1.4480997,1.6919571
-0.7452384,8.486641,-0.06475837,-1.5563624,0.87957615,1.7558361
-0.6741976,7.576308,0.1286644,-1.4781018,0.42818162,1.8420902
-0.1277546,6.904312599999999,0.08048348,-1.4365805,0.16840681,1.9043636000000002
0.5044295999999999,6.3508496,0.17872237,-1.4030527,0.09279916,1.9075576
1.0210887,5.8684373,0.45667958,-1.3333093999999999,0.1476374,1.811739
1.4749528,5.676154,0.8508993,-1.1933165000000001,0.25249678,1.6222311000000003
1.8463029999999998,5.8359239999999994,1.0685035,-1.0080673,0.37334338,1.3518099
2.0659375,6.0233803,1.0829453000000002,-0.79885465,0.4893903,1.0164448
2.1664939999999997,6.975248,0.9322254999999999,-0.56623715,0.5644395000000001,0.6709569000000001
2.3216097,7.8461914,0.84553623,-0.35383059999999994,0.6325771,0.27970648
2.1902060000000003,8.717471000000002,0.98447657,-0.08874999,0.62992424,-0.093968526
2.268487,10.439237,0.81265914,0.17475982,0.51228905,-0.4830897
2.0346116999999997,11.1138935,0.717638,0.37650242,0.32063442,-0.8732929
1.437268,10.41564,1.0594726,0.641583,0.0853466,-1.1165744
1.2051646,9.8983,1.403912,0.96631896,-0.14193018,-1.2453971000000001
1.2510375,10.268961000000001,1.4057412,1.2692033999999999,-0.27872908,-1.3667499
1.4157585,11.364863,1.2038908000000001,1.4927801,-0.43631485,-1.5605163999999998
1.4428321000000002,12.052642,1.3448518999999999,1.6492838,-0.52839845,-1.7793108
1.2201235000000001,11.749678999999999,1.4261013999999999,1.7046456,-0.44642029999999994,-1.9182564999999998
0.5529744000000001,10.732842,1.3674051999999999,1.6705768,-0.26384142,-1.9155861
-0.23307075,10.703595,1.1200458999999998,1.61895,-0.17493436,-1.7335308999999997
-0.3885215,11.887613,0.90181917,1.531125,-0.1829105,-1.5456113
-0.41007885,13.189293,0.9044049000000001,1.3634336999999999,-0.20580922,-1.3497329
-0.580728,12.868155,0.95748913,1.1824431,-0.3644422,-1.2118520000000002
-0.81660473,11.781425,0.9012636999999999,1.0248747999999999,-0.6167644,-0.99201024
-0.60005397,10.161136,1.3145412,0.9114982,-0.8504466,-0.8322951999999999
-0.32716286,8.51314,1.8026232,0.8694358,-1.0170732,-0.7125307
0.1694999,7.4104276,2.1690032,0.8508131,-1.1522663999999998,-0.6800501
0.8011765000000001,6.9370747,2.146306,0.800216,-1.1304671999999998,-0.6944315999999999
1.2268656,6.765401,2.2364237,0.7533888000000001,-0.9382889999999999,-0.74979347
1.6777991,6.918132000000001,2.247801,0.69324476,-0.60025364,-0.8184547
1.6996151000000002,7.192421400000001,2.3724529999999997,0.6463827,-0.22232004,-0.86903435
1.4378043,7.5828967,2.4919522,0.61179024,0.11198033,-0.8642347
1.0513322,8.096099,2.5629258,0.5920854999999999,0.30253538,-0.79822636
0.73661923,8.678205499999999,2.5881798,0.560146,0.4036772,-0.6912376
0.4347583,9.218145,2.5581183,0.5021487,0.43137556,-0.5592035
0.22781308,9.809389,2.5201178,0.43345252,0.35843825,-0.41123447
0.23511061,10.949422,2.396615,0.36479127,0.21577506,-0.26857126
0.28470890000000004,12.043533,2.3299892000000004,0.24500932,0.079499744,-0.15784758
0.19586486,12.615413,2.1694531,0.08691739,-0.071663216,-0.03487168
-0.054128114000000005,12.477219999999999,1.8312099999999998,-0.08873254,-0.29204595,0.14981906
-0.23198856,12.317871,1.6662398999999997,-0.24630086,-0.51934016,0.42291072
-0.057786454,13.265265,1.4414243999999998,-0.37512362,-0.7088479999999999,0.6922674
0.2797768,13.95788,1.3561238000000002,-0.57953656,-0.79243183,0.89029247
0.1985751,12.63673,1.2144828,-0.8382466999999999,-0.74239326,1.0867118
0.07123229,11.061652,0.980033,-1.0229723,-0.6178291,1.3624563
0.29623938,11.475064,0.6298953,-1.1235732,-0.3601836,1.6461946
0.88056827,12.953886,0.7127155,-1.2252386,0.024137903,1.7968339
1.1213387,14.262298000000001,0.76837593,-1.3109343,0.47822022,1.8431548999999998
1.3500328000000001,14.116788,0.27823496,-1.405182,0.9099273999999999,1.7957691999999998
0.65027475,13.078863,-0.28803205,-1.4807546999999999,1.2059003000000001,1.8325083999999998
0.16588946,11.48329,-0.37945223,-1.584567,1.3246176,1.8702948
-0.2043499,9.6718855,-0.035472494,-1.6042718,1.1499975,1.9251331000000003
-0.25667757,8.132644,0.24908316,-1.5728558000000001,0.84604836,1.9714366
-0.040021475,7.082901,0.47616840000000005,-1.4945953,0.5298645000000001,1.9906179
0.38064936,6.2996526,0.66375893,-1.4083586000000001,0.2817834,1.9453613999999997
0.82684237,5.763341400000001,0.75191337,-1.3125399,0.13114405,1.8234502000000001
1.1994663,5.312628299999999,0.8905472,-1.2231268,0.091751955,1.6488474999999998
1.5288223,4.93671,1.0205045,-1.1044095,0.11995648,1.4247471999999999
1.7496539,4.9347367,1.2251418,-0.9367181999999998,0.20619320000000002,1.1761424999999999
1.9674113000000002,5.4036655,1.3615347,-0.7307170000000001,0.34566244,0.9073269
2.177555,6.2072554,1.367951,-0.50659925,0.5213298,0.6033603
2.379808,7.482235,1.2194531000000002,-0.26972318,0.64482933,0.24989624
2.492747,9.294932000000001,0.97019756,-0.027506389,0.6224717,-0.16795303
2.4774146,11.101722,0.8023832,0.21734585,0.47342056,-0.6167121
2.208766,12.153763,0.8660019,0.43718752,0.32224014,-1.004245
1.6163542,11.552157000000001,1.0373214,0.6751457,0.19182913,-1.247509
1.1263666,10.735227,1.0310773000000002,0.9178687,0.05129523,-1.3332222
0.94985646,10.664157000000001,0.9910941999999999,1.1334692,-0.08817403,-1.3875191999999998
1.0617615,11.387513,1.0888063000000001,1.3229771000000001,-0.31918582,-1.4961137
1.0984789,11.569913,1.4181622,1.4773513999999999,-0.47356018,-1.6393005
0.8477198,11.433461999999999,1.3875548,1.5715816999999999,-0.5608615,-1.7564119999999999
0.4778731,10.643596,1.3830632,1.5630469999999999,-0.5305276999999999,-1.7526945
-0.20569065,10.786971000000001,1.4712561000000002,1.5731700000000002,-0.5267927,-1.6408886999999999
0.254858,12.444092999999999,1.1617528,1.5204785,-0.49378854,-1.5211242
0.41534609999999994,13.468333,1.4230655,1.4097548,-0.39851102,-1.4338229
0.13410401,12.947833000000001,1.568432,1.3139361999999999,-0.34208453,-1.3449333
0.10730812,11.716236,1.4266282,1.1808374,-0.33409092,-1.2054639999999999
-0.028558037999999997,9.839202,1.6746483,1.0568143,-0.37028906,-1.0723827
-0.024784777,7.950474000000001,2.0726316000000002,0.9705775999999999,-0.39744636,-0.9542064
0.26591918,6.6825905,2.1965556,0.8992459999999999,-0.44429103,-0.87222826
0.3904081,6.2018830000000005,2.2752194,0.82684976,-0.49965286,-0.84187704
0.79348636,6.4205594,2.0281665,0.71507883,-0.45865506,-0.82430154
0.8904706,6.9402539999999995,1.8917162,0.606467,-0.39796996,-0.8200603999999999
0.9308943999999999,7.515303,2.0283103,0.52342427,-0.33409092,-0.8040906
0.91714203,8.206385000000001,2.2121657999999997,0.48563787,-0.31918582,-0.7492524
0.76752365,8.924828,2.4240142999999996,0.4670152,-0.30161035,-0.65289277
0.67262703,9.30335,2.6276650000000004,0.44251078,-0.22336724,-0.5203525
0.57731867,9.630935000000001,2.5153005,0.40153044,-0.13447762,-0.35959017
0.6170624,10.187826,2.394891,0.33923966,-0.08018043,-0.22970279
0.7608294,11.09859,2.3040361000000003,0.25832617,-0.026406832,-0.14081316
0.8435347,12.085605000000001,2.265202,0.15772541,0.007644542,-0.08970992
0.7034451999999999,12.288364,2.1343255,0.013997541,-0.022689281000000002,-0.046582837
0.18054196,11.800867,1.8941679,-0.108960904,-0.17758726,0.09712757
-0.11631032,12.079236,1.6251267,-0.19785053,-0.44961426,0.35157913
0.08338525,13.223204999999998,1.4962516000000001,-0.2957984,-0.6971369000000001,0.58951986
0.39846218,13.168732,1.7022773999999998,-0.47148323,-0.78763217,0.76518726
0.5018247,11.661984,1.629915,-0.6498035,-0.7461108,0.95363045
0.6511079000000001,11.412633,1.1848903999999998,-0.7690444000000001,-0.57204914,1.1979766
1.0810107,12.866977,0.8712021000000001,-0.9042376,-0.19303341,1.395478
1.4118896,14.092443,0.96537083,-1.0575649,0.34140384,1.4997963
1.4482334,14.095528,0.80898166,-1.2177861,0.8465894,1.5482466000000001
1.0682639999999999,13.214298000000001,0.33120429999999995,-1.3418092,1.1936656,1.6222486
0.4694359,11.946971000000001,-0.12847286,-1.4615911,1.3693329,1.7052740000000002
0.16060305,10.31697,0.102433525,-1.5371813,1.2990661000000001,1.7995043000000002
-0.11553459599999999,8.896355999999999,0.3495247,-1.5366403,1.0893298,1.8809588
-0.12027512,7.741297,0.49447927,-1.4924483999999998,0.7917685999999999,1.9719776999999998
0.07524497,6.9129796,0.56351846,-1.4259166,0.55115753,2.0411799999999998
0.44031283,6.515437,0.70130956,-1.3753544,0.43615779999999993,2.0353331999999997
0.83758754,6.3551593,0.68644637,-1.3577788999999998,0.3376863,1.9091633999999997
1.1245278,5.922058,0.76191163,-1.3231865,0.26741934,1.723914
1.3703165000000002,5.933675,0.7977863000000001,-1.2412083,0.23280947,1.5141778000000001
1.5808626000000001,6.275653,0.9292759,-1.1065212,0.25411993,1.2640023
1.7684243999999998,6.6273610000000005,1.0638587,-0.9415179,0.30733502,1.0095333
1.879841,7.118527,1.1484698,-0.7184648,0.32597515,0.7103664000000001
2.0627294,8.153042,1.2256876,-0.45336673,0.29829422,0.36913714
2.219425,9.861898,1.1760606000000002,-0.16538739,0.21577506,-0.056164697
2.2903125,11.328816,0.8869751,0.04061381,0.07204719,-0.47085494
1.9219407,11.156118,1.0851288000000001,0.2743134,-0.079639375,-0.8274954999999999
1.5559916,10.265293,1.4197521,0.5777389,-0.16481145,-1.0122210999999999
1.486694,10.089233,1.405406,0.87530005,-0.15681784,-1.1335913
1.5904201999999998,10.918880999999999,1.0017818,1.061073,-0.20155062,-1.2895714
1.5249437,11.070195,1.1210993999999999,1.2122707,-0.33356732,-1.5184540000000002
1.3652024999999999,11.261778999999999,1.5114691,1.421466,-0.49804714,-1.7361838
1.2548012,10.951136,1.6792259999999999,1.5944804,-0.55820864,-1.8985343000000001
0.9931053,10.772367,1.5471714,1.7035984,-0.45600218,-1.9278209
0.47088203,11.477017,1.3600885,1.753637,-0.38306487,-1.8378491000000001
0.8739601999999999,12.662991,1.1815481,1.7041395000000001,-0.124354705,-1.7542828000000001
0.47138,13.113273000000001,1.2926198,1.5832928,0.09759881,-1.6116196000000003
0.20537461,12.351944999999999,1.2903693999999999,1.4166838,0.25996679999999994,-1.4087949
0.025752034,10.75009,1.3222698,1.2543157,0.29777062,-1.2054466000000001
-0.25821945,9.040936,1.5634042,1.1388098999999998,0.15083136,-0.9893224
-0.05346731,7.578137,2.0348415,1.0584201000000002,0.05448918,-0.86210537
0.23529257,6.6051908,2.1721348999999996,0.99028236,-0.08974483,-0.77586865
0.4038348,6.461213,2.2007504,0.93493795,-0.31066862,-0.7173129
0.6247716999999999,7.0300465,2.0968994999999997,0.8433780000000001,-0.36815974,-0.70879567
1.1538614999999999,7.507987,2.125888,0.7416951,-0.3021514,-0.7396531
1.2258025,7.924511,2.2886173999999997,0.6666285,-0.22975515,-0.77373934
1.0254078000000002,8.270932,2.391683,0.6272364,-0.20207421,-0.7668104
0.8847533000000001,8.485375999999999,2.481274,0.59423226,-0.17545795,-0.7024078
0.6809397,8.530914,2.6578991000000003,0.5612281,-0.108384944,-0.5655914000000001
0.75574416,9.050542,2.6400382999999996,0.52450633,-0.0045727626,-0.42453387
0.9078620999999999,10.314566000000001,2.4282662999999998,0.45476300000000003,0.12103858599999999,-0.31700414
0.9675735000000001,11.892747,2.309993,0.33606315,0.23547982,-0.25045475
0.85576427,12.9449215,2.1013143,0.13536774,0.289777,-0.21106267
0.18805975,12.87256,1.8491568999999999,-0.07541568,0.19715239,-0.10300933599999999
-0.60363567,12.496603,1.5438865,-0.27024677,-0.10093239,0.15835372
-0.93717676,12.866038,1.4151168,-0.42249185,-0.5347689,0.5336344
-0.6514526999999999,14.022226000000002,1.252474,-0.5917539,-0.8637459999999999,0.8285427
-0.17094600000000001,13.624932000000001,1.3175389,-0.83875287,-1.0511246,1.0393436
0.04582502,11.744439999999999,1.2144636,-1.0453126,-1.086799,1.2304571000000002
0.35450467,11.002889,0.9377897,-1.1507129999999999,-0.9388126,1.4471048
1.0330405,12.083938999999999,0.81902766,-1.196493,-0.56353194,1.5844448
1.5847604,13.632354999999999,0.8535999,-1.2566371,-0.04024729,1.5924385
1.7198414,13.717119,0.8102745,-1.3311626,0.5133537,1.5088546
1.2693961,12.405508,0.40706217,-1.3732251,0.94081974,1.5035313
0.91515964,11.323214,-0.20666750000000003,-1.4546621000000002,1.2735143999999998,1.5769923000000001
0.5328151999999999,9.987298,-0.33405817,-1.5611271999999998,1.4497229,1.6461946
0.041831493,8.808152999999999,-0.028663384,-1.5845495,1.3363287,1.7313666
-0.16488388,7.900291,0.18245733,-1.5834848999999998,1.0323797,1.8128210999999999
-0.06798575,7.149421,0.26920405,-1.5552629,0.7071201,1.8756355
0.27930754,6.553313,0.41515458,-1.5009831,0.43456954,1.8756355
0.6455055000000001,6.136463,0.65182614,-1.4131408,0.20833996,1.7840755000000001
1.1090229999999999,5.870324,0.8032834,-1.2949643999999998,0.063006386,1.6281128999999999
1.4849317,5.818446,0.9123344999999999,-1.1379198,-0.013631022,1.4039952
1.8112136000000003,5.9636307,1.0540808000000002,-0.94577646,-0.022689281000000002,1.141009
2.057941,6.332443,1.2440463,-0.69876003,0.018832102,0.8195019
2.294402,7.0929375,1.3411839,-0.42514476,0.098663464,0.4580442
2.4865987,8.167302000000001,1.3270389,-0.16324064,0.19076449,0.0007853982
2.4865222,9.410803,1.0771705,0.045413468,0.15296066,-0.46125559999999993
2.271111,10.431709,0.9760489999999999,0.27164304,-0.04769985,-0.9403485
1.9099983,11.050102,1.0614836,0.52928853,-0.2893756,-1.3039355
1.4943170000000001,10.717912,1.3768767,0.8226085999999999,-0.43097416,-1.508872
1.1662347,10.432121,1.4191295,1.0988942,-0.43736205,-1.5791389999999998
1.1198639,11.122417,1.0640789,1.3123479999999998,-0.482601,-1.6552528000000002
1.2304665000000001,11.569271,1.3044665000000002,1.4630048,-0.55073863,-1.784093
1.3094943,11.887901,1.5532719,1.5694523999999999,-0.48366565,-1.9262152
0.84260577,11.778879,1.7048153000000001,1.5827693,-0.34899604,-2.0012817
0.64328367,11.883639,1.2141955,1.5247371,-0.15097098,-1.9102453999999998
-0.10759542,12.540894999999999,1.1250737,1.4661813,0.000715585,-1.7303369
-0.45034933,13.132417000000002,1.4980233,1.376227,-0.014154620500000001,-1.5413526000000002
-0.6175604,12.518716,1.68072,1.2836024,-0.07909832,-1.3182995000000002
-0.49069643,11.266912,1.571918,1.1590382,-0.22869049,-1.1319857
-0.22959436,9.663171,1.9222854,1.0392736999999999,-0.36709509999999995,-1.0036865
0.09558610599999999,8.028908,2.1506442999999997,0.94026124,-0.40381682,-0.90840894
0.46979025,6.778253,2.287315,0.8625243,-0.45492005,-0.85678214
0.7791115,6.1626754,2.295034,0.8023802,-0.42510983,-0.8088728000000001
1.1716169,6.226858999999999,2.2869224999999997,0.75820595,-0.2856406,-0.8045968000000001
1.4691972,6.6984687,2.2146747,0.69324476,-0.15416493,-0.83335984
1.3959633,7.3281244999999995,2.3597155,0.66769314,-0.03918264,-0.8642347
1.3071288,8.0329485,2.4123402,0.63629466,0.049165923,-0.85782933
1.0671436,8.568455,2.4959743,0.60700804,0.10611602,-0.7939676999999999
0.8647090000000001,8.751755000000001,2.4544015,0.5404760999999999,0.18118262,-0.6736622
0.63129354,8.948597,2.4130392000000005,0.4803146,0.23921482,-0.48574257
0.6368672,9.980536,2.257646,0.41589449999999994,0.29668853,-0.287735
0.6617191,11.508612,2.1677008,0.29932398,0.3882485,-0.10726794
0.5371630999999999,12.615308,2.030513,0.09492846,0.4803495,0.061470497
0.08278192,13.003772,1.6078118000000001,-0.12917182,0.41701153,0.23980823
-0.41087374,12.962477,1.4090546,-0.32346186,0.18811159,0.50597095
-0.5260060999999999,13.701986999999999,1.3660932,-0.46560147,-0.117425755,0.8003382
-0.54860735,14.542964999999999,1.3065064,-0.66149724,-0.4128751,1.0446668
-0.55584747,13.5561905,1.2791837,-0.8786860000000001,-0.6518805,1.2214163999999998
-0.6071887,11.345509,1.0295163,-1.1097152,-0.82115996,1.4077302
-0.27533320000000006,10.623446000000001,0.762649,-1.2215036,-0.8467116,1.6201193
0.5716492,11.638761,0.9939289000000001,-1.2215036,-0.6295228,1.7143496
1.2796146000000002,13.267612,1.2899002,-1.1842408000000002,-0.20846212,1.6621816999999999
1.7895987000000002,13.656479000000001,0.9146904,-1.1943463,0.34780923,1.4806501
1.1288948,12.405364,0.23273556,-1.2188332,0.7060555000000001,1.3544976999999998
0.64563,11.168913,-0.044455536,-1.2715421999999998,0.91846204,1.3241464
0.30659190000000003,9.654648,0.26076686,-1.2955055,0.9163153,1.349157
0.047137044,8.272349,0.46299073,-1.259831,0.79229224,1.4274175
0.12512098,7.372828999999999,0.38131970000000004,-1.2305443,0.6448468,1.5312297
0.2548101,6.6969843,0.40621942,-1.2161803,0.5554161,1.624378
0.6140074000000001,6.1718782999999995,0.5374025,-1.1996870000000002,0.5165476,1.6648346
0.8947323,5.929231,0.6853066999999999,-1.1650771,0.54796356,1.643018
1.1867386999999998,5.937926999999999,0.81723684,-1.1081096000000001,0.55806905,1.4982256
1.4477068000000002,5.9604989999999995,1.0204662,-1.0080323,0.50750685,1.2570734
1.7241794999999998,6.1912519999999995,1.216264,-0.8462228999999999,0.42392302,0.9445896
1.8878279999999998,6.807998700000001,1.3625209999999999,-0.60772365,0.31107002,0.58794904
2.1547241,8.034798,1.2529241000000002,-0.35116026,0.21151645,0.21050416
2.2395264999999998,8.758814,1.2914611999999999,-0.080721475,0.17214182,-0.17592919
2.1573865000000003,9.800626,1.1577593000000002,0.20086995,0.10135127,-0.54962164
1.9271121,11.063069,0.9265752,0.462233,-0.06365216,-0.9078679000000001
1.579225,11.274219,0.96293837,0.69752085,-0.21217968,-1.215552
1.2050687,11.015108999999999,1.2333011999999999,0.9759183000000001,-0.285117,-1.3938898000000002
1.1970913,11.527918,1.0956537,1.1979066999999999,-0.28722882,-1.5370766000000002
1.2657091999999999,12.193411,0.9523943000000001,1.3347056000000002,-0.24040166,-1.7090265
1.1474258999999998,12.277055,1.1381459999999999,1.4033843000000001,-0.13978341,-1.8713769
0.8038293000000001,11.904402000000001,1.3028097,1.415078,0.0033859387,-1.9523078
-0.11046847,10.894058,1.5788323999999998,1.3874146,0.0795172,-1.9086397000000002
-0.7233170999999999,10.780583,1.4016231000000001,1.3634336999999999,0.04649557,-1.6786926
-0.967449,11.922789,1.2468045,1.3091540000000002,-0.04024729,-1.4056008999999998
-0.79397476,12.544199,1.5264568,1.1952363000000001,-0.20366247,-1.1937354
-0.75379044,12.068261,1.5992501000000001,1.0765191,-0.40329322,-1.0601305
-0.43482536,10.857273,1.5542392,0.9290736999999999,-0.58002526,-0.9552536
-0.24866179,9.193916,1.7847049,0.8061151999999999,-0.6753028,-0.8796634
-0.013838486,7.5254164,2.1203337,0.7416951,-0.72162384,-0.8072670999999999
0.32424194,6.4565586999999995,2.2871425,0.70869094,-0.74078757,-0.7705454
0.67794216,6.1479077,2.316936,0.6783571,-0.6774321,-0.7540346
0.9925306999999999,6.456606400000001,2.2715897999999997,0.6235189,-0.490071,-0.7481876999999999
1.2402252,6.999458,2.1909243999999997,0.5575104999999999,-0.23560199,-0.75136423
1.1916516000000001,7.552691499999999,2.2556830000000003,0.50960124,0.014573500000000001,-0.71410143
0.92477477,8.089853999999999,2.4791095000000003,0.4606273,0.23654447,-0.61563
0.45869073,8.368358,2.6790830000000003,0.38716638,0.3962421,-0.47349036
-0.029477412,8.489666999999999,2.6586175,0.30518827,0.39678314,-0.28665286
-0.33831027,8.633242999999998,2.625836,0.21149899,0.27913052,-0.086498514
-0.2937111,9.030689,2.678786,0.14177309,0.12156218,0.08915142
0.022936452000000003,10.194108,2.624141,0.11037462,-0.023195425,0.20467477
0.45650724,12.013874000000001,2.4584143,0.05660103,-0.09239773,0.24991369
0.63540196,13.00265,2.3321056000000002,-0.049846604,-0.10571459,0.23500858
0.21466412,12.527994999999999,2.0956159,-0.13714798,-0.16905259,0.28080603
-0.17584932,12.509886,1.7240647,-0.1776047,-0.35112533,0.43357468
-0.012172121000000001,13.4930315,1.5809202,-0.22977260000000002,-0.5475446999999999,0.58688444
0.24408408,13.384459,1.6157413999999999,-0.35700709999999997,-0.57363737,0.6709744000000001
0.263276,11.436411999999999,1.5991161,-0.52148694,-0.4432089,0.76574576
0.26258644,10.499006,1.2516983,-0.64500386,-0.22123794,0.9392664000000001
0.7262859,11.96236,0.80061144,-0.71579444,0.1359437,1.0909878
1.2211003,14.608969,0.8484668,-0.8100073,0.60013145,1.1080222
1.258086,15.653453,0.36678213,-0.97876316,1.0041578000000002,1.0324321
0.36683002,14.211378,-0.06680781,-1.1086332,1.171849,1.0122037
-0.124086685,12.424346,-0.51627606,-1.2278913999999999,1.0829419,1.1681838
-0.36968390000000007,10.648097,-0.33588737,-1.2992231,0.9125978000000001,1.3789672
-0.42275855,9.163242,0.0974057,-1.3338156,0.69595003,1.6041496000000002
-0.19165106,7.9678936,0.22241175,-1.386507,0.53253484,1.8144268
-0.020398598,7.0583267,0.32395464,-1.4354984,0.38505453,1.9964647
0.40590337,6.499702,0.43563938,-1.4631793,0.30202922,2.0731196
0.7389560000000001,5.961773,0.56641066,-1.4541385,0.2807362,2.0827014
1.053554,5.5086555,0.89655197,-1.3710783000000002,0.30309388,1.9980703999999998
1.3829675,5.617037,1.0770268,-1.2358676000000002,0.32438690000000003,1.8272026999999997
1.7635976000000002,5.992457,1.0364116,-1.0948101000000001,0.36910224,1.5706216999999998
1.8470787,6.0674148,1.007595,-0.9462825999999999,0.42285836,1.2506855
1.8621622,6.3965693,0.9570582000000001,-0.7807381,0.42392302,0.9174498
1.8903947,7.607375,1.0557951,-0.55503213,0.34407422,0.5661149999999999
2.0956352,9.933964,0.9743347,-0.29312804,0.20727529999999997,0.16315338
2.3524373,11.576798,0.7027365,-0.079656824,0.0172264,-0.33775613
1.9369092,10.948436000000001,1.247743,0.20778145,-0.1743933,-0.75935787
1.6694958999999998,10.1426325,1.612131,0.58732074,-0.31332150000000003,-1.0271088
1.6798389999999999,10.132319,1.5887826999999999,0.9296146999999999,-0.37081265,-1.2544205
1.8538495,11.375905,1.262271,1.1766312,-0.38039452,-1.4987491000000002
1.8264790000000002,11.869973,1.3887231000000002,1.3607984,-0.36868334,-1.7830110000000001
1.5953906999999998,11.471291,1.8620472,1.5492415000000002,-0.29628709999999997,-2.0097816
1.1676042,10.200889,2.1077402000000003,1.6732646,-0.1158375,-2.1013415
0.66095287,9.640033,1.8000375,1.7350143,0.05715953,-2.0646198
0.3349488,10.862789999999999,1.3652792,1.7722771000000002,0.14765486,-1.8756529999999998
0.25318202,12.994357,1.2903981000000002,1.6940166,0.23495622,-1.7766403999999998
0.04048116,13.601211,1.4425545,1.5396596000000002,0.24719098,-1.6648346
-0.3760908,12.491077,1.2718096,1.3565397,0.17640042,-1.4748032
-0.7066916999999999,10.7956085,1.4671955,1.1680965,-0.0051138145,-1.2304571000000002
-0.52414817,8.8863,1.7444249,0.9903173000000001,-0.18662806,-1.0031455
-0.2731114,7.388640400000001,1.941688,0.8651946,-0.30161035,-0.79555595
-0.18651788,6.588498599999999,2.046784,0.74117154,-0.48527133,-0.6374466
0.070561916,6.4090576,2.0448015,0.638965,-0.6705206,-0.52352893
0.520624,6.657528,2.0228035,0.5159891,-0.754628,-0.47296676
0.8175720000000001,6.83626,2.2037572999999995,0.43881068,-0.7343821999999999,-0.45964992
1.0382121,7.173938000000001,2.276541,0.3861192,-0.67263246,-0.4511327
0.9800904,7.691373,2.4260062999999996,0.37334338,-0.5789432,-0.4298397
0.8363617,8.341303,2.5173786,0.36534977,-0.5278399,-0.39737657
0.69677013,9.034856,2.586619,0.36908478,-0.5049585999999999,-0.340409
0.7857770000000001,9.507451,2.6994336,0.35205036,-0.41872194,-0.2797239
0.8970308000000001,10.140651,2.6791117,0.35311502,-0.29361674,-0.23500858
1.0303495,11.4034195,2.4840417,0.32702234,-0.17650515,-0.22329742
1.0527593000000002,12.733782000000001,2.198241,0.24185027,-0.089203775,-0.22755602
0.7241694000000001,13.239704999999999,1.8827428,0.09812241,-0.07590437,-0.18444639999999998
0.18644127,12.846453,1.6752325000000001,-0.036529742000000004,-0.20205677,-0.022078415
-0.17018944,12.970951,1.5032043,-0.12383111,-0.4607669,0.2451315
-0.14483963,13.963837,1.3495252,-0.22017328,-0.73172927,0.5421691
0.11274775,14.132676000000002,1.3524463,-0.39744636,-0.8403236999999999,0.80779076
0.18062817,12.448163000000001,1.2447455,-0.6439218000000001,-0.78389716,1.0760827
0.40786663,11.268867,1.1533826999999999,-0.8036194000000001,-0.62899923,1.3699263000000002
1.0681969999999998,11.841742,1.0712137,-0.89889693,-0.23931955,1.5908501
1.6979104,12.856546,1.4078671999999999,-1.0064441,0.36856118,1.6690933000000001
2.1245859,13.5099535,1.2477046999999999,-1.1091741000000002,1.0345091,1.6281128999999999
1.6119968,13.067217999999999,0.72320217,-1.2385205,1.5045611,1.5690161
0.9258857,11.671897,0.26482746,-1.3774662,1.7637948,1.5455937
0.24021505,9.958165,0.16513288,-1.5217351000000001,1.7834822,1.5732747
-0.44949700000000004,8.417468,0.5060479999999999,-1.5919846000000002,1.4768801999999999,1.6834748
-0.59234464,7.164380599999999,0.6254611999999999,-1.6042368,1.0611253,1.8208147000000001
-0.49909526,6.391628,0.79892594,-1.570168,0.6512346999999999,1.9453789000000001
0.14996321,5.9787045,0.90997857,-1.5382285,0.35367352,1.9629368999999999
0.6757012,5.709481200000001,0.85028636,-1.4982953,0.12796754,1.8618125
1.0933458,5.4494042,0.8714031999999999,-1.4296341000000001,-0.051417399999999995,1.6595113999999997
1.5989053999999998,5.577274,0.88690805,-1.315699,-0.16160004,1.4114652
1.9457486000000002,5.8077874000000005,1.0120482,-1.1251440000000001,-0.20579177,1.0686476
2.1202955,6.352947,1.2564387,-0.8600459,-0.19566886,0.7529699000000001
2.3947475,7.449826700000001,1.189382,-0.53852135,-0.123272605,0.38885936
2.5745139999999997,8.392864,1.0080930000000001,-0.25265387,-0.047682392999999997,0.030072022
2.6114034999999998,9.532935,0.8983810999999999,0.076829396,0.010855948,-0.32976252
2.5782487,11.258293,0.61033946,0.34885642,0.05715953,-0.6960024
2.1047237,11.809563,0.5137574,0.56550413,-0.01574287,-1.0702358
1.4103477,10.966737,0.9474334999999999,0.8327315000000001,-0.15362388,-1.3172348999999999
1.1309922,10.331939,1.3046197,1.1372391000000002,-0.21430898,-1.4444518999999998
1.2467566,10.992633,1.1937491000000002,1.3954082,-0.22495548,-1.5801862
1.3751912,12.007717,1.2031821000000003,1.5678816,-0.23293164,-1.8101506999999997
1.229595,12.313667,1.3813393999999999,1.6796525000000002,-0.23560199,-2.0459796999999997
0.6187670999999999,11.044816,1.7766414000000001,1.7440552,-0.15788248,-2.1513975
-0.20221429,10.630649,1.9266044999999998,1.8021048,-0.13178982,-2.059279
-0.18247648,11.988323,1.3621187,1.788788,-0.056199603,-1.7686468000000002
-0.5588833000000001,13.545933999999999,1.1855129,1.623226,0.056618482000000005,-1.5296239999999999
-0.69296813,13.486854999999998,1.1621455,1.3432403,0.0752586,-1.2954008999999997
-0.63540196,11.90152,1.1109958,1.0589786,-0.099309236,-1.0888586
-0.93064535,10.077127,1.4306792,0.86573565,-0.45544368,-0.8785813
-0.6918094,8.354203,1.8981519,0.7300014,-0.76366884,-0.73700017
-0.25703192,7.0688133,2.1649903999999998,0.66664594,-1.0016095999999999,-0.633188
0.24969609,6.4458423,2.3007703,0.6203424,-1.1857941,-0.5895373
0.8975861999999999,6.339482299999999,2.2826512,0.5447522,-1.1432081,-0.60177207
1.2443433000000002,6.4618645,2.2645319,0.47022662,-0.9579589,-0.65608674
1.4782183999999998,6.7971580000000005,2.408155,0.44841000000000003,-0.7359879,-0.7322005
1.648293,7.608553,2.510349,0.44680429,-0.45118508,-0.79182094
1.4770693000000001,8.34725,2.7261147,0.45851544,-0.16214108,-0.83440703
1.1867483,8.854619999999999,2.8125167,0.47448522,0.025220007000000003,-0.8274954999999999
0.9471940999999999,9.217350999999999,2.6873477,0.4851317,0.17374752,-0.7678576
0.686341,9.986367999999999,2.425087,0.47024405,0.23975588,-0.66511005
0.47635037,10.960416,2.2212157,0.4052829,0.22591542,-0.53204614
0.33157778,11.715567,2.1731784,0.3147876,0.16523032,-0.39790016
0.2670397,12.34098,1.9532185000000002,0.17851228,0.050771628,-0.24139649
0.15706922,12.288767,1.7024401000000002,0.007644542,-0.10304424,-0.058800142
0.016960526,12.303305,1.4659122,-0.13023646,-0.29150490000000007,0.18870499999999998
0.10157161,13.4352255,1.2967858,-0.21378538,-0.4432089,0.43092179999999997
0.15267345,14.397734,1.1930593999999999,-0.40168753,-0.44586182,0.6742031999999999
-0.19302054,12.609935,1.1011891000000003,-0.6806435000000001,-0.33194417,0.89563316
-0.34113544,10.979961999999999,0.8780781999999999,-0.8360825000000001,-0.3031986,1.1357206
0.3473795,11.967867,0.5913008000000001,-0.89409727,-0.15840608,1.2698667
1.0595108,13.893092999999999,0.676496,-0.9867219,0.27436575,1.2672136999999999
1.114271,14.579673000000001,0.32850364,-1.0990338,0.8322428,1.2379271
0.29363447,13.371751000000001,-0.41640913,-1.1842233,1.1963358999999998,1.2911596
0.025349807000000002,11.96079,-1.1018116000000002,-1.2752421999999999,1.3267643,1.4189178
-0.7032632,10.709016,-0.4921521,-1.2944058999999999,1.1409916000000002,1.582874
-0.6034633,9.327982,0.07426813,-1.3029232,0.82159626,1.6824101000000002
-0.28453649999999997,8.349549,-0.035185188,-1.2992057,0.57990307,1.8346552
-0.0010917560000000001,7.3299155,0.061665057999999995,-1.344462,0.5037893,1.9517667
0.45615290000000003,6.547385,0.30102777,-1.3843777,0.60173714,2.0145812
0.64409775,6.2943370000000005,0.4516709,-1.4067353999999999,0.61557764,1.9794477
0.77990645,6.030554,0.67238766,-1.3886188,0.593761,1.8394549
0.8311232,6.198224,0.85038215,-1.3151754,0.56075686,1.6898800999999999
0.95071834,6.358904,0.82989734,-1.2102985000000002,0.543705,1.4897083
0.8818514999999999,6.143953,0.8521059999999999,-1.06123,0.52136475,1.2810542999999999
0.80974776,6.2290807,0.8621999,-0.8520348,0.4324577,1.0361844999999998
0.94210875,7.489657000000001,0.89642745,-0.6140941,0.2653075,0.74979347
1.1806861000000002,9.855463,0.5413673000000001,-0.37028906,0.0076619955,0.30796334
1.0965253000000001,11.011538,0.2674419,-0.15097098,-0.29733428,-0.22647393
0.7166133000000001,11.120875,0.4387614,0.17798868,-0.5906543000000001,-0.6917263000000001
0.7240736,10.889624000000001,0.63203096,0.51441836,-0.70776594,-0.99462825
0.8396370000000001,10.724712,0.6084241,0.8455246999999999,-0.6029065,-1.2421683000000001
1.0207727,11.374259,0.4096479,1.0845301,-0.41126940000000006,-1.5498524
1.1125473,12.391171,0.5772229,1.2863076999999998,-0.39154717,-1.9501436
0.94479984,13.380982000000001,0.88261765,1.4699512,-0.44053856,-2.3068016
0.27934590000000004,12.434067,1.0234447,1.5780045,-0.38676497,-2.4420297000000004
-0.7612316,11.213741,1.011962,1.6940515,-0.2792352,-2.3089308999999996
-1.6028798,12.105189,0.82565486,1.8276564,-0.35377824,-2.020428
-0.95361054,13.880106,1.0516675,1.8292621,-0.37507126,-1.8032392
-0.67715687,14.2588215,0.85389686,1.6855342,-0.28297022,-1.641936
-0.5583661999999999,12.92122,0.73886025,1.4667398,-0.30265754,-1.5535698999999998
-0.42925164,10.970031,1.0292195,1.2628678999999998,-0.39954078,-1.4561456
-0.50639284,9.078583,1.640823,1.125528,-0.5246460000000001,-1.3448983
-0.40295374,7.558648,2.0500206999999997,1.0408969000000001,-0.789203,-1.2240517
0.01964203,6.6441490000000005,2.25303,0.9658303,-1.0127796999999998,-1.120257
0.5886576,6.38479,2.2944975,0.87959355,-1.0787879999999999,-1.0414729
1.1316434,6.386369999999999,2.211687,0.7853806999999999,-1.0154326,-1.0041925999999999
1.549173,6.504404,2.2233706,0.71298444,-0.8759633,-0.9876993000000001
1.795048,6.860537,2.327662,0.65442866,-0.6215291999999999,-0.96001834
1.7597766,7.183399700000001,2.5348467999999995,0.6107604999999999,-0.32290336,-0.90680325
1.5491443,7.885418400000001,2.6646411,0.6059783000000001,-0.06365216,-0.8147022
1.3605865,8.575954,2.6917531,0.5389228,0.19504054,-0.6991789
1.0802924999999999,8.858527,2.6848384999999997,0.44521603,0.39838886,-0.54747486
0.9013595,9.864761999999999,2.454325,0.36058503,0.52614695,-0.34730306
0.64449036,11.752791,2.3114102,0.24188519,0.6166596999999999,-0.13491395
0.38692215,13.554869,1.9276772,0.0039269909999999995,0.6390174,0.076934114
-0.44552264,13.304435999999999,1.7389278000000001,-0.31332150000000003,0.46600290000000005,0.3324503
-1.181165,12.462691,1.3570718000000002,-0.52731633,0.0023561944,0.7439465999999999
-1.2877261999999998,12.720547,1.234958,-0.6076887,-0.49268898,1.142126
-0.5210549,14.102385,1.3163704,-0.6774321,-0.81156063,1.4173295
0.21209754,13.880920999999999,1.3750379,-0.8365886999999999,-0.83711225,1.5270059999999999
0.27849352,11.63265,1.1270752,-0.9749933000000001,-0.63002896,1.5924733
0.23457429999999999,10.895762,0.7222253000000001,-0.9787283000000001,-0.2819056,1.7069145000000001
0.8028907,12.547963000000001,0.7221966,-0.9749933000000001,0.28340656,1.7218196
1.2916048,14.410172,0.750563,-1.0021331,0.96958274,1.6110959999999999
1.3052325,14.7660475,-0.017468097,-1.103816,1.5216129999999999,1.5120833999999999
0.087407514,14.093775,-0.9944939,-1.2502142,1.8702773999999998,1.5248593000000001
-0.7209228,12.753262,-1.2658623,-1.4333167,1.8425964,1.6403826000000001
-1.0538126,10.970175,-0.7985333,-1.5674801999999999,1.5530114,1.8320023
-1.2607005,9.63942,-0.26394638,-1.6350768,1.3092063999999999,2.0358918000000004
-1.0380970999999999,8.229225,0.025866956,-1.6462643,0.76145226,2.2344577
-0.4317416,7.518186,0.28588685,-1.6702101999999999,0.4963542,2.37658
0.048382025,6.817719500000001,0.44410527,-1.6776628,0.44418630000000003,2.4399354
0.43770796,6.2413870000000005,0.94341123,-1.5775857,0.26638959999999995,2.3904204
1.1743271,5.818360299999999,1.0650176000000002,-1.4663383999999997,0.3425034,2.2440221
1.3477248,5.484982,1.2289151000000003,-1.3103409,0.43886304,2.002364
1.6617674999999998,5.643957,1.2791357,-1.1155447,0.47078509999999996,1.6914683999999998
1.9843526999999999,6.132996599999999,1.2937404,-0.9031380999999999,0.47345546,1.2810542999999999
2.1096172,6.9902835,1.2801701,-0.6518805,0.4617443,0.8429591000000001
2.2889621,7.779527000000001,1.2308784,-0.39688787,0.44577456,0.36599556
2.2667055,8.762079,1.265939,-0.10037389,0.3904127,-0.07049385
2.3360896,10.389141,0.96450895,0.21261601,0.26265459999999996,-0.55011034
2.1110057999999996,10.888102,0.9524421000000001,0.45375070000000006,0.11360348,-0.96480054
1.5937052,10.06668,1.2772299999999999,0.7369653,-0.0066671576,-1.2479976000000002
1.3672136000000001,9.842381,1.2887316999999998,1.0228153,-0.09079203,-1.4257944
1.3987118,11.063452999999999,0.9238075000000001,1.2564973999999998,-0.22333233,-1.6083907
1.4157968,12.01442,0.9262305000000001,1.4108717,-0.3478965,-1.8016161
1.129613,11.616074000000001,1.157089,1.5450351999999998,-0.41709880000000005,-1.9804775000000001
0.5775294,10.756986,1.3681233999999998,1.6845044999999998,-0.46872562,-2.0257163
0.5048604999999999,11.831512,1.1278701,1.7962929,-0.5054648,-1.9847186
0.31543127,13.491470000000001,1.0887008999999999,1.8181095,-0.51026446,-1.9432147000000002
0.61319333,14.547965,0.9144796999999999,1.755295,-0.37877136,-1.8202387999999998
0.30104694,13.892567000000001,1.1968326999999999,1.6360542,-0.19193386,-1.7382781999999999
0.15490484,11.888534,1.3673382,1.4827445,-0.15945327,-1.5828391000000002
-0.64354223,9.661466,1.9447238000000002,1.3470103,-0.2435607,-1.4045013000000002
0.01739148,7.674651600000001,2.0690596,1.2224286,-0.26485372,-1.2330925
0.17416379999999998,6.7031136,2.1728146,1.1372565000000001,-0.26326546,-1.0606191
0.40615237,6.4604278,2.2577032999999997,1.0387851000000001,-0.29572859999999995,-0.9621301999999999
0.7822336,6.630722500000001,2.1074338,0.9094386999999999,-0.29253465,-0.91476196
1.0372448,7.0007220000000006,2.1154592,0.7992385999999999,-0.21268582,-0.9168913000000001
0.88671654,7.458034,2.2045906000000004,0.7071376,-0.20842722,-0.9035744000000001
0.75215286,7.9332542,2.4493258,0.6656337,-0.28401740000000003,-0.8780228000000001
0.72591233,8.418741,2.4592857000000006,0.62091833,-0.36173695,-0.8003033
0.66851854,8.56381,2.5285451,0.5847201999999999,-0.41603413,-0.70181435
0.7993856,8.770104,2.4772517999999994,0.5644918000000001,-0.40751693,-0.5730090999999999
1.0154862,9.390921,2.5025343999999996,0.5416105999999999,-0.27815312,-0.44310418
1.1565908999999999,10.7605095,2.4191875,0.48675486,-0.05724680000000001,-0.3201632
1.1452136999999998,12.182158,2.1529715,0.36219072,0.14076081,-0.22273892
0.87103933,12.850782,1.9205041,0.17057103,0.26480135,-0.12051498
0.28500578,12.674539999999999,1.727091,-0.027977629,0.23551473,0.073216565
-0.20615034,13.161837,1.548608,-0.17277014,0.06091199,0.35002577
-0.37985447,14.849146,1.1851586,-0.37931240000000005,-0.20523326,0.6555806
-0.65089726,15.107679999999998,0.9495787,-0.7013606,-0.4660727,0.8882155
-0.8195735000000001,12.542657,1.1137155,-1.0303377,-0.715201,1.1714126
-0.46887088,11.548786,0.69746923,-1.2060051,-0.8088903000000001,1.4727088
0.13421895,12.551736,0.5344241,-1.33961,-0.6523866,1.6920269000000001
1.0926943999999998,13.677423000000001,0.7868975,-1.4253231000000002,-0.23876104,1.6920269000000001
1.3458383,13.540006,0.9720075999999999,-1.4396871,0.25788984,1.5690684
1.209589,12.406466,0.5178084,-1.3699613000000002,0.64008206,1.4860257
0.95678043,11.46203,-0.34588552,-1.3492093,1.0329382,1.4801613999999998
0.7030813,10.451916,-0.7895886,-1.414153,1.3235879,1.4977194
-0.17990989999999998,8.986751,-0.36004004,-1.4130883,1.1479205,1.5568162
-0.49745765,7.827335000000001,-0.14318284,-1.3971186000000002,0.8945335999999999,1.6483762
-0.1533151,7.001699400000001,-0.062210935999999994,-1.3715495,0.7076960999999999,1.7479297999999999
0.21478862,6.597242,0.18497603,-1.3534680000000001,0.5735501000000001,1.7692053
0.6753946999999999,6.2607894,0.31653259999999994,-1.3449507,0.5341406,1.7250310000000002
1.0181774,6.2017964999999995,0.35518459999999996,-1.3209872999999999,0.551716,1.6127017
1.2723553,6.4352694,0.43082222,-1.2629726000000001,0.5463928000000001,1.4519393
1.393751,6.611655000000001,0.6699838,-1.1394731000000002,0.5474574000000001,1.2544553999999999
1.5057135,6.973581299999999,0.827235,-0.94462454,0.5410695,1.054301
1.5993077,7.515542999999999,0.8342548000000001,-0.72530645,0.5213822,0.83072436
1.6896073,7.957541,0.7773015,-0.49853584,0.46069709999999997,0.5581738
1.7694012,8.832373,0.70628947,-0.2414314,0.27810076,0.22228514
1.9866797999999999,10.473982000000001,0.5856026,0.049200833,0.032166417999999995,-0.15564846
1.9278686,11.711228,0.35350868,0.2844712,-0.13976596,-0.5117829
1.4236114,10.790389999999999,0.46619895,0.51392967,-0.1881814,-0.7747341999999999
0.9323691999999999,9.556657000000001,0.5588162,0.7838099000000001,-0.26911232,-0.92593205
1.143059,10.460535,0.5185266,1.0547723,-0.4367861,-1.1282158000000002
1.4980136,12.727452,0.39940074,1.2804782,-0.6454576999999999,-1.4374881000000002
1.5930826999999999,13.536118,0.37014359999999996,1.4220768,-0.71891856,-1.7249438000000001
0.9895905999999999,11.910627,0.8983715,1.5668693999999999,-0.6545159,-1.8681481
0.61530983,11.264096,0.956407,1.7388191000000002,-0.51289994,-1.7989457999999998
0.6059629,12.024754,1.0119236999999999,1.8500664,-0.29784045,-1.6850281000000003
0.48743072,13.035672,1.3148476999999998,1.8910643,-0.021031217999999997,-1.5034964
0.6990399,12.865702,1.4544201,1.8106744,0.4106585,-1.3885142
0.43594584,11.619531,1.280601,1.6195781999999999,0.67895055,-1.249586
-0.46554774,10.044279,1.2882721000000001,1.3954605,0.43621013,-1.0558020000000001
-0.3972172,8.395622999999999,1.7326647000000002,1.2666378,0.23286183,-0.9541366
-0.81553215,7.718025,2.107702,1.1303625,0.00715585,-0.7896393
-0.36133292,7.128151400000001,2.567245,1.0318736,-0.5794493000000001,-0.7151312
-0.45720634,7.108279,2.5952667999999997,0.9046565000000001,-1.1336088,-0.65764004
0.795009,7.095121000000001,2.430268,0.7556054,-1.2208927,-0.7071376
1.7869458999999999,7.239482000000001,2.3918362,0.6523343,-0.88233376,-0.7534586
2.0167892,7.4463024,2.5235557999999996,0.5682268,-0.46181409999999995,-0.8226609
1.9286156000000003,7.751238000000001,2.6589527000000004,0.52670544,-0.010384709,-0.8503244000000001
1.4372871,8.220798,2.6400766,0.49104840000000005,0.357426,-0.8119970000000001
0.9055350000000001,8.708852,2.7065015,0.46602038,0.5394813,-0.7236484000000001
0.5911571,9.530942999999999,2.5949795,0.42610470000000006,0.58951986,-0.60386646
0.44496715,10.704436999999999,2.3030496,0.34677947,0.5469338,-0.48569024
0.33500630000000003,11.868556,2.097675,0.21902137,0.43675119999999995,-0.38400733
0.07617392,12.6964035,1.8145461999999999,0.030037116000000003,0.22540927,-0.27701867
-0.35830665,12.729578,1.5533293,-0.16475908,-0.13016665,-0.08644616
-0.6072749,12.679846000000001,1.4188901000000003,-0.31382766,-0.5379279,0.21429153
-0.4041987,13.243307000000001,1.3366829,-0.42985713,-0.81100214,0.5352925000000001
0.16299726,13.696979,1.479023,-0.5629385,-0.8818101,0.77325064
0.5910901,13.170188000000001,1.4553011999999999,-0.7226361,-0.86475825,0.89196795
0.695755,11.362614,1.3503585,-0.9164026,-0.75618136,0.97766364
0.8528051,10.448487,1.1682172,-1.0116975000000001,-0.55709165,1.1192621999999999
1.3159393999999998,11.730861,0.6205579000000001,-1.0643716,-0.22863813,1.266184
2.034765,13.358966,0.64676964,-1.1676601,0.39203584,1.2257273000000002
1.8278964,13.476358,0.659095,-1.247509,0.8354541999999999,1.1708889999999998
1.3892787,12.934866,-0.03798162,-1.2852953999999999,1.0414729,1.1751477
1.012958,12.342311,-0.8140573,-1.3726141,1.1420736,1.2869358999999998
0.53244174,11.116575,-1.004856,-1.5189948999999998,1.2842133,1.4642091
-0.12659581,9.507347,-0.6471335,-1.6105549,1.0962937,1.6915033
-0.33492008,8.252746,-0.3814155,-1.6776278999999998,0.8317366,1.9502133999999998
-0.39440164,7.590012,0.009097965999999999,-1.692533,0.61189497,2.1770015
0.1506719,6.912472200000001,0.2665034,-1.6941211999999999,0.32389819999999997,2.260027
0.5718407,6.4533787,0.55663276,-1.6084256000000001,0.111491635,2.2823843999999998
1.107414,6.050512,0.68802655,-1.5067427,0.06784095,2.1684667999999996
1.3995258,5.673185299999999,0.8609931999999999,-1.3486508,0.060405847,1.9874936
1.8294766,5.605889299999999,0.98307836,-1.1319857,0.07476991,1.7037555
2.089717,6.035792,1.1017158,-0.9014975000000001,0.117355935,1.3918128
2.2776232000000003,6.8379645,1.1189158000000001,-0.6374466,0.20998056,1.0383487
2.4795599999999998,7.2630215,1.2030481000000002,-0.3707603,0.3446676,0.6247406
2.520309,7.9560756999999995,1.4086524,-0.057770398,0.42556363,0.17756979
2.6295707000000004,9.811879,1.3002334999999998,0.2546959,0.40481165,-0.32971016
2.5878637,11.753615,0.7414268,0.47666687,0.29141763,-0.86044735
1.9078148999999998,11.489669000000001,0.8265551,0.6709744000000001,0.1434486,-1.3123828000000002
1.0126803,10.623619,1.2200373,0.96270615,-0.02422517,-1.5327656
0.9687323,11.407978,1.3308886999999998,1.2852780000000001,-0.20893337,-1.6908575000000001
1.2181506000000002,13.063272,1.1158991000000003,1.5141778000000001,-0.31487486,-1.9075227
1.0330024,13.398623,1.1264528,1.6451299,-0.36756635,-2.1262996
0.3847195,11.678456,1.6169385,1.7212611,-0.31965706,-2.1768794
-0.13076171,10.389667,1.6783354,1.772888,-0.22066198,-2.0794725
-0.48743072,11.298612,1.3214653,1.8058922,-0.23980823,-1.8963525
-0.36552757,13.20544,1.0412766,1.6861277,-0.32339206,-1.786676
-0.29096255,13.119172,1.2216846000000001,1.4833205,-0.39044762,-1.7265146
-0.26936686,11.835353999999999,1.1561217,1.2852780000000001,-0.55600953,-1.6621119999999998
-0.30885202,10.006864,1.3869802,1.0851235000000001,-0.80780816,-1.5519294
-0.21678059,8.234531,1.725118,0.9866521,-1.0462898999999999,-1.3427167
0.1848611,7.273642,1.9568193,0.9467363999999999,-1.1059104,-1.1713079
0.9520591,6.8573575,2.1384625,0.90680325,-1.0462898999999999,-1.0898708000000001
1.5685374,7.046931,2.1206784,0.8541118000000001,-0.81313145,-1.0541964
1.9932592,7.5432196,1.8830012999999999,0.75349355,-0.41601667,-1.073901
1.8366113000000002,7.8190227,1.849904,0.6635393,-0.06627015,-1.0818771999999999
1.3081534,8.150983,2.0706491000000002,0.6300115,0.10140363,-1.027039
0.94590116,8.561176,2.2039584999999997,0.5996602,0.15515977,-0.90355694
0.6013085,8.747321000000001,2.3071582000000004,0.56452674,0.1434486,-0.7294778000000001
0.43994892,8.852005,2.259839,0.5017123,0.08489282,-0.5197416
0.42467391,9.274726,2.2130659,0.43942153,-0.009843656999999999,-0.335557
0.58167607,10.333786,2.0684752,0.34999087,-0.08810422,-0.17373008
0.6823378999999999,11.293660000000001,2.0298712,0.20840977,-0.12215559,-0.04543092
0.65177834,11.66027,1.9901179,0.0630762,-0.17645279,0.07644542
0.45194867,11.774635,1.7881813999999998,-0.05988224599999999,-0.28026497,0.26063000000000003
0.19067423,11.529029,1.7976528000000003,-0.17858209,-0.3814068,0.51614624
0.12910494,12.152824,1.8113381999999998,-0.22649138,-0.49797735,0.7913671999999999
0.40207267,13.293632500000001,1.7327125,-0.33934435,-0.56665605,0.9861983
0.5293963,13.4756775,1.6174556999999998,-0.5725029,-0.47616073,1.1315144
0.16684712,12.5213585,1.2330809999999999,-0.82056653,-0.40002945,1.2896237
0.11203906,12.286679,0.8978255999999999,-1.0106155,-0.2579073,1.5302348
0.3947943,13.213944,0.97997546,-1.1548669,0.10405653,1.7479471999999998
1.0381641,13.970645999999999,1.0482869000000001,-1.2671788999999998,0.6459638000000001,1.8054383999999999
1.3665912,13.815060999999998,0.52727026,-1.3810965,1.2528148000000001,1.7612641
-0.29661286,12.998676,0.23755269,-1.4678743,1.3550212,1.7106843999999997
0.3763302,11.364768,-0.2647987,-1.5759450000000002,1.4508398999999998,1.6143248
-0.6866091999999999,10.010608,0.10707828,-1.6461946,1.4391286,1.6909971000000001
0.49600200000000005,8.313463,-0.3788393,-1.6685522000000002,1.6802808,1.6175362
0.24400747,7.5214039999999995,-0.03475423,-1.7068796000000002,2.4223425,1.5616333
0.8308455,6.7941985,-0.5300762,-1.6499294999999998,3.3427242999999995,1.1687771999999998
1.1652483999999999,6.539532,-0.9396763000000001,-1.5322944,4.5191636,1.0053444999999999
-0.47607264,6.474515,0.14516523,-1.3033944,4.917343,0.64709824
-2.7258465,4.323727,1.3983766000000002,-0.92542595,2.5224197,0.6636091
-4.658092,6.742253999999999,1.4704708,-0.5533216999999999,0.52778757,0.8211774
-1.1847085,7.014446,0.15908034,-0.55279815,-0.17912313,0.8456644
-0.80058277,6.8132277000000006,1.0601143,-0.3132517,-1.1005697,0.9116726999999999
0.6018064999999999,7.2546134,1.6381511999999998,0.05242969,-2.0385447,0.7604923000000001
2.7790456000000003,8.617901,1.4831697,0.36969563,-2.1726732,0.38838813
4.0888653,10.745426,1.1712147,0.5352576,-1.6068198999999999,-0.13166764
4.06613,12.301456,0.8373864,0.60552454,-0.925967,-0.7539648
3.2073014,11.927817,0.74513304,0.6465049,-0.55175096,-1.2245405
1.7965993999999998,10.899267,1.0500298000000001,0.76895714,-0.34201473,-1.3996667999999999
0.89233816,10.874962,1.2505778,0.97017616,-0.24937265,-1.3954082
0.52693504,11.760702,1.3271635,1.2352742,-0.31752774,-1.3533458
-0.017506404,11.593442999999999,1.8828193,1.5030252,-0.64915776,-1.334182
0.16372508,11.037098,1.7773979,1.6424944,-0.7199483,-1.3070421
-0.18627848,11.26898,1.3979266000000001,1.6020377000000001,-0.76839864,-1.206965
0.017937358,12.435885,0.72805756,1.4072067,-0.6166946,-1.0824008
0.21981645,13.854087,0.03137362,1.1043047,-0.29037043,-0.9557074000000001
-0.2932514,13.7869625,0.520624,0.82590723,-0.07904596,-0.85456556
-0.11423215,12.131899,1.0251014,0.67792076,-0.047088984,-0.7454301
-0.5952273,9.868995,1.6512425,0.6997374,-0.22383848,-0.7039262
-0.54439354,8.059764,2.0206869999999997,0.79929096,-0.41866958,-0.5782974
-0.12252566,7.231361,2.161629,0.8631700000000001,-0.48680723,-0.54049355
0.36445495,7.036377000000001,2.1218084999999998,0.8264483,-0.4420919,-0.5729566999999999
0.74279624,6.930323,2.0351672,0.7333001,-0.3260275,-0.6575877
0.99044293,6.8864803,2.0296988000000002,0.65608674,-0.12482595,-0.7305425
1.2497445,6.912702,2.2036138,0.5959426999999999,0.14238396,-0.80717987
1.1344206000000001,7.0496693,2.4371345,0.5730614,0.38407716,-0.82901394
1.0612442,7.509883,2.6282970000000003,0.58424896,0.5778436,-0.8199556999999998
0.9972904,7.884479499999999,2.683383,0.5762554,0.7311533,-0.7997273
0.82870024,8.007944,2.6288907999999998,0.54803336,0.83121306,-0.75342375
0.61439043,8.249749000000001,2.5232396,0.49480084,0.8397476999999999,-0.68368036
0.39576155,8.884815,2.357015,0.39899972,0.7854505,-0.5836031999999999
0.31085357,10.10448,2.0006237000000002,0.28347638,0.68963194,-0.44093999999999994
0.25859293,11.481078,1.8084363,0.08916887,0.56400317,-0.31265828
0.112977594,12.283624,1.5036736000000002,-0.13704325,0.4298397,-0.15774286
-0.46154459999999997,12.707809,1.2727002,-0.33613297,0.10300933599999999,0.09189159
-0.7640664,14.21044,0.7730303000000001,-0.48733082,-0.36063740000000005,0.4384267
-0.7533691,15.473869,0.19740672,-0.78009236,-0.6938731,0.79297286
-0.7127346999999999,13.233375,0.36130419999999996,-1.0888411,-0.8008618000000001,1.1294024999999999
-0.39477512,11.203714,0.05697242,-1.2288514,-0.8242841000000001,1.4791316
0.409035,12.0650625,-0.35612315,-1.2240517,-0.6816209,1.700579
1.6538761999999998,14.611899,-0.47157153,-1.2112758999999997,-0.29942867,1.6718334
2.4095342,14.941657000000001,-0.19085619,-1.2208579,0.22383848,1.4376103
2.2624247000000004,12.928096,-0.14597927,-1.0851061000000002,0.6954788000000001,1.2300208000000001
2.0027018,11.60257,-0.99593043,-0.9935461,1.095264,1.1842408000000002
1.5849903,10.693185,-1.2162448000000001,-0.9775764000000001,1.5163246000000001,1.2241565
0.9821207000000001,9.518369,-1.1286075,-1.000475,1.7074207,1.3428563
0.6320597,8.223479,-0.9199385,-1.0398671999999998,1.7068971000000002,1.4908428
0.45972502,7.3249545,-0.66783863,-1.0643542,1.5541284,1.6393703000000002
0.6328736999999999,6.885561500000001,-0.45838428,-1.0909704,1.3885665,1.7373182
0.8751860999999999,6.4797053,-0.14595053,-1.0946878999999998,1.2027936000000001,1.747441
1.0878391,6.1357837,0.046150632000000004,-1.0648777,1.0132858,1.6941911
1.326292,6.232586,0.059376202999999995,-1.0026044,0.8360127,1.5914611
1.6148508,6.5491667,0.06552451,-0.9344667,0.69814914,1.4259166
1.7079563999999998,6.82653,0.33650982,-0.8162905,0.6214943,1.238538
1.9345342,7.334292,0.41333500000000006,-0.6842738,0.58529615,1.027196
1.9914874,8.074714,0.43382934,-0.5032657,0.52993435,0.77860886
2.0721529,9.175366,0.45945690000000006,-0.29565877,0.47031388,0.50286424
2.1992562,10.108357,0.5658169,-0.10562733,0.4303982,0.20743237
2.1171159999999998,11.454512,0.61854684,0.1227141,0.3356268,-0.11089822
2.1694052000000004,12.617030999999999,0.4013065,0.26113617,0.23237313,-0.45317474
1.6238146,11.707627,0.6521231,0.38676497,0.11630874,-0.7869515
1.0026916,10.749209,0.98619086,0.57573175,-0.09341002,-0.99775237
0.9021544,11.26832,1.1063415,0.80356705,-0.43355724,-1.2436867
0.87701523,11.947507,1.1804085,1.0223441,-0.76839864,-1.4981383
0.75531316,11.435799000000001,1.4032704,1.2033521999999999,-0.94724256,-1.6908226000000002
0.47883075,10.199012,1.5254321000000002,1.3215284,-0.9270142,-1.7387494
0.27476814,9.79602,1.6555904,1.4450104,-0.83599526,-1.6860403999999998
0.50451577,10.735437,1.7601501,1.5424347,-0.63477623,-1.5939568000000002
0.70624167,11.848730999999999,2.0326866999999997,1.5685273000000002,-0.28185323,-1.5407243
0.97438264,12.263044,1.8483813000000002,1.4971958,0.12856095,-1.5125023000000002
1.0865462,11.754812,1.5178856,1.3710258999999998,0.47616073,-1.5087848
0.7020566,10.53377,1.671239,1.2501968,0.70293134,-1.4512936
0.30934042,9.048972000000001,2.0960853,1.1708716000000001,0.78225654,-1.3528046999999999
0.049473785,7.763266000000001,2.3664002,1.1160508,0.7492524,-1.2128118
0.16424224,7.102753999999999,2.3730466,1.0500424,0.6315997,-1.0696076
0.20904253,7.049555000000001,2.3126936000000002,0.95687675,0.51344097,-0.9445198
0.4546589,7.2589707,2.3431094,0.8451059000000001,0.40378192,-0.87903506
0.63061357,7.65025,2.4449110000000003,0.7439465999999999,0.34842008,-0.8204792999999999
0.7525742,8.2188635,2.5512326,0.6316172,0.39737657,-0.7539473000000001
0.65513974,8.480618,2.6274066,0.49961796,0.47776642,-0.67142814
0.38020879999999996,8.472457,2.6556005000000003,0.39102358,0.50757664,-0.5511226
0.06576393,8.705835,2.7194397,0.2819056,0.44530329999999996,-0.39940116
-0.11178049,9.132089,2.68141,0.16531758,0.35320228,-0.23225096
-0.07716991,10.083641,2.5365896,0.058852499999999995,0.21586232,-0.07522369
0.10048943,11.2098055,2.3001096000000003,-0.12424999,0.10194468,0.051975905999999995
0.100355364,11.700406,2.1160243,-0.2818183,-0.048153635,0.17814575
0.073549874,11.926582000000002,1.9157061999999998,-0.40744709999999995,-0.22807963,0.34477234
0.082389265,12.32943,1.8803006000000002,-0.48464300000000005,-0.34732053,0.55503213
0.23909456,13.269288000000001,1.7495581000000002,-0.5772501999999999,-0.39894736,0.76637405
0.2932131,13.748358999999999,1.5326626,-0.7108726,-0.3914948,0.91275483
0.096476756,13.440617999999999,1.1151806999999998,-0.9009215,-0.3696782,1.0543533999999999
-0.345445,11.926294,0.9025373999999999,-1.1409916000000002,-0.33187437,1.2427965
-0.5640643,11.101799,0.6707883000000001,-1.2948248,-0.3324154,1.5110886000000001
-0.25231054,11.677230999999999,0.5974395,-1.3411285,-0.30684632,1.714978
0.43547657,13.29323,0.6192651,-1.3081417,-0.16313593,1.8368717
1.4466245,14.142282000000002,0.5546791,-1.2969542,0.18924604,1.8310249
1.7248499,13.217918,0.5037113,-1.2655557,0.73008865,1.7399886000000002
1.5261791,11.929359,0.15990394,-1.2474566999999999,1.0947403,1.6548165000000001
1.3774991,10.456398,-0.11859918,-1.2815254999999999,1.268802,1.5946723999999999
0.82411295,9.042717999999999,0.100891665,-1.2916484,1.3449333,1.5861378000000002
0.4274895,7.866954300000001,0.2079891,-1.2921719999999999,1.2176988000000002,1.5920020000000001
0.24193887,6.8897943,0.28769684,-1.2916484,1.0047686,1.6266120000000002
0.16021997,6.397728400000001,0.3903698,-1.2772493,0.7902501999999999,1.6963378
0.3147609,6.056525700000001,0.45791499999999996,-1.2698143,0.598072,1.7203012999999998
0.5663436,5.704875,0.6665745,-1.2043295,0.41496947,1.6872971
0.97049445,5.6845627,0.9582553,-1.0717893,0.27921778,1.5680561000000002
1.4341651000000002,6.000147,1.1904258,-0.8785638000000001,0.20786871,1.3503263
1.7784513,6.812059,1.254102,-0.6501875,0.1860521,1.062347
2.0983741,7.346626799999999,1.2453008999999997,-0.44203955,0.25312510000000005,0.7051479
2.137658,7.5336523,1.2390186,-0.21633355,0.31435126,0.31070352
2.1073284,8.110003,1.4822791000000002,0.07162831,0.29145253,-0.100234255
2.197494,9.736462,1.482346,0.38943532,0.20149826,-0.5324825
2.1978388,11.161548,1.2360593,0.6380399999999999,0.074281216,-0.9828298000000001
1.7489357,10.853261,1.4337246000000001,0.87650436,-0.059864793,-1.3490697
1.3971604,10.701889999999999,1.5473246999999999,1.1719537,-0.24190263,-1.6061741000000003
1.3906288999999998,11.71819,1.4586339,1.4743146,-0.48570767,-1.8473263
1.4423723999999998,13.212276999999998,1.3611803,1.7708285,-0.72260123,-2.103907
1.3560662,13.764935500000002,1.4646002,1.9810709,-0.83386594,-2.301932
0.97149044,11.63447,2.0320737,2.134398,-0.72418946,-2.3482358
0.5775102,9.79692,2.0209935000000003,2.1620789,-0.35903168,-2.1922731
0.115879364,9.761830999999999,1.7234421999999998,2.0603962,0.051382493,-1.9090935000000002
0.08553047,11.536854,1.0336822,1.8629296000000002,0.309028,-1.6594067
-0.11529517,13.253620999999999,0.67822945,1.509989,0.44849727,-1.4752221
-0.79913664,13.3505,0.8073630999999999,1.085717,0.2872114,-1.2622919
-1.4678084999999998,11.849669,1.2224218999999998,0.80677843,-0.18282324,-0.95780176
-1.3327276000000001,9.865989,1.7777714,0.66730917,-0.61772436,-0.6602406
-1.0393325,8.004094,2.2128935000000003,0.59332466,-1.0286796,-0.38501963
-0.59464306,7.005433999999999,2.2885408,0.53742176,-1.4135596000000001,-0.19924679999999997
0.30416897,6.6493974,2.15821,0.4474675,-1.607326,-0.13056809
1.0547607,6.5715666,2.169348,0.37294194,-1.5620697000000001,-0.16837192
1.7860458,6.803325,2.2244241000000002,0.32662090000000005,-1.3150882,-0.25302038
2.2651255,7.362036,2.334452,0.29787534,-0.87804025,-0.36904988
2.3802292,7.899965299999999,2.4529650000000003,0.28618163,-0.35847318,-0.48722609999999994
1.9767392,8.339158,2.5920107000000003,0.33035590000000004,0.05831145,-0.55323446
1.5104061000000002,8.950531,2.57845,0.38145915,0.34842008,-0.54258794
1.0255898,9.387042,2.4903529,0.39423496,0.5549798,-0.46380379999999993
0.6188437,9.649361,2.4051192,0.36229545,0.69497263,-0.32220525
0.35214877,10.248486,2.2280345,0.28457594,0.7439465999999999,-0.16250761
0.13603854,11.092614,2.078081,0.15149458,0.6630331,-0.034749504
-0.06882851599999999,11.967905,1.9151411,-0.016179202,0.47511354,0.083932884
-0.36763448,12.410355000000001,1.7486197,-0.20141099999999998,0.1743584,0.23352505
-0.7412353,12.736761,1.7282688999999998,-0.3302512,-0.20518091,0.47200683
-0.6237566,13.899460999999999,1.6409858,-0.42978734,-0.53735197,0.72965235
-0.2605083,14.457704000000001,1.6391950000000002,-0.5820324,-0.7209955,0.9095783000000002
-0.015466543000000001,12.835486999999999,1.7287668,-0.80187404,-0.72738343,1.0618233999999998
0.12420160000000001,11.488759,1.491147,-0.9472075999999999,-0.64646995,1.227909
0.74211633,11.818096,1.4055306,-1.0014874,-0.41757002,1.3753718000000001
1.5920675,13.276815,1.5155872,-1.045138,0.062046453,1.3971883999999999
2.0626621,13.926995000000002,1.4137186000000002,-1.1095756,0.7237182,1.2822062
1.8695650000000001,12.883084,0.9849937,-1.1899481,1.2475264,1.153366
0.9764129,11.529173,0.22333112,-1.3038657,1.5051719,1.087375
0.014393941,9.908375,0.11537178599999999,-1.4411882,1.4860082000000001,1.1017566
-0.34183455,8.440596000000001,0.32716286,-1.5173193999999999,1.1437317,1.2119392
-0.36224270000000003,7.326333999999999,0.47572790000000004,-1.5434121,0.8397652,1.3396972
-0.24797226,6.4931517,0.49940175,-1.5306363,0.48897144,1.4621321000000003
0.17225802,6.0661983,0.4879766,-1.4880328,0.19193386,1.5473042
0.6643239000000001,6.025171299999999,0.5015661,-1.3948846000000001,-0.024713863,1.5717912
1.1715212,6.124263,0.5711895,-1.280967,-0.091245815,1.5313344
1.6385724999999998,6.136023000000001,0.65048546,-1.1319158,-0.04865978,1.4126346
2.0060919999999998,6.2136335,0.6601772,-0.96424204,0.062028999999999994,1.2225857
2.210557,6.427646599999999,0.7691325,-0.76567596,0.21481512,0.9889034999999999
2.3689668,7.45202,0.86404824,-0.51921797,0.397394,0.7386931999999999
2.597498,8.950513,0.7330949999999999,-0.30468214,0.60393625,0.40706313
2.5583002999999995,10.205917,0.5530702,-0.09813987,0.6417401,-0.0006806784
2.3032985,10.716714999999999,0.66948587,0.14245377,0.5033354999999999,-0.42228240000000006
1.7877121999999999,10.971267,0.8878466,0.4469439,0.27124159999999997,-0.75232416
1.3964421999999999,11.12416,0.9879720999999999,0.7657980999999999,0.06628761,-0.9790948
0.971251,10.645138000000001,1.0797945,1.0447366,-0.10084512,-1.1606265
0.8312573,10.695914,1.0401658,1.2853652,-0.30524063,-1.3155245
0.8395219999999999,11.233844,1.2880901000000002,1.4913664,-0.49048987,-1.4890625
0.8087996000000001,11.791184,1.4511735000000001,1.6356178999999997,-0.49368384,-1.6317258
0.4195982,11.357691,1.5970474,1.6941911,-0.33185690000000007,-1.6594067
-0.02186385,11.131869,1.5517683,1.7021673,-0.10295697,-1.5460126
-0.29692888,11.923086,1.4066606000000001,1.6766156000000003,0.08599237,-1.3783388
-0.5007425,13.099234,1.4264462,1.5706916000000002,0.20523326,-1.2239645000000001
-0.6400563,12.970847000000001,1.5870396999999998,1.4147115,0.22067943,-1.1244108999999998
-1.514141,11.884233,1.8902988,1.2816302,-0.16577137,-1.0269866
-1.0019639,10.142078,1.959702,1.1490898,-0.5730090999999999,-0.9620429
-0.14273272,8.195199,2.072555,1.0181378,-0.6736098,-0.9035046
