accx,accy,accz,gyrx,gyry,gyrz
2.0926378,9.010759,-1.1497913999999998,0.726057,1.417347,-1.7835345
2.1236281000000004,10.125366,-0.90321743,0.56740654,1.3864721000000002,-1.5445291
2.4079158,11.069056,-0.49110820000000005,0.37737509999999996,0.9323898000000002,-1.4338055
3.0573094,11.567385,-0.23758142,0.22780037,0.08227482,-1.4188828000000002
3.7688565,12.521550999999999,-0.24940878,0.113882735,-0.9946108,-1.395478
4.0982413,13.78633,-0.27445212,0.019128809,-2.1066298,-1.3337108
4.2950919999999995,13.277370999999999,-0.019910181000000002,-0.03354523,-2.9253464,-1.2224635
3.9504422999999997,11.434813,0.5449682,-0.048991393,-3.2149315,-1.0781946000000002
2.7791414,9.197583999999999,1.2214258999999998,-0.025045475,-2.9684734,-0.95097756
1.6422787,8.44908,1.3986926000000002,0.02125811,-2.4116435000000003,-0.87486374
1.1074524,9.857772,0.8432283000000002,0.069690995,-1.7345256999999998,-0.83386594
0.96799487,11.398584,-0.11405977,0.10803588,-1.0654013,-0.8232193999999999
0.88003194,11.661572,-0.7868879,0.13836971,-0.3845484,-0.8450535
0.72966653,11.558555,-1.0312879000000001,0.14899875,0.15413003,-0.8892278
0.6416173000000001,11.05968,-0.6779708999999999,0.13144074,0.5065469,-0.90467393
0.76740867,10.071153,0.23238121,0.09204867,0.6582509,-0.87699306
1.417693,8.911659,1.0756860000000001,0.04893903,0.66676813,-0.8195019
2.3505123,7.857434700000001,1.64021,-0.013316861999999999,0.54274505,-0.7470882
3.2683725,7.055262,1.8689713,-0.09796533,0.31330407,-0.6363645
3.865975,6.471987,1.7716519,-0.16823229,0.053529248,-0.46497315
4.2496123,6.2257195,1.534597,-0.16610299,-0.25626668,-0.19294615
4.5525746,6.2517586,1.3337618,-0.05057964,-0.54637533,0.07161086
4.7786636,6.545106,1.1933850000000001,0.055850536,-0.73375386,0.31168088
4.7150644999999995,6.9399576000000005,1.1166652,0.057979837,-0.61453044,0.5091649
4.357907,7.405486,1.0681778,0.064908795,-0.1306379,0.7716274999999999
3.9615513999999994,8.058586,1.0679671999999998,0.14688691,0.52571064,1.0590658000000002
3.660591,8.856708,0.99898547,0.2560049,1.1602426000000001,1.2794485
3.52302,9.84559,0.9247078000000001,0.25387558,1.6659517,1.4199823999999999
3.3291468999999996,10.984271000000001,0.9633502,0.11761774,1.9832176,1.5030252
2.9748243999999997,12.057497,1.0906833,-0.04845034,2.0550728,1.5504109
2.419705,12.580046000000001,1.3777385,-0.17833774,2.046032,1.6158781999999998
2.2517755,13.398097,1.4628093,-0.24275784,1.8666296000000002,1.7303369
2.953353,14.747469,1.2271625,-0.2736327,1.8197849999999998,1.8197501
3.8297458,13.680133999999999,1.4951503000000002,-0.2549926,1.7021496999999999,1.946461
3.7429415999999995,11.360785,1.8604957999999998,-0.19006635,1.499325,2.092318
3.2570624,9.716753,1.6149465,-0.16292648,1.1580957,2.1774728
3.1832826,10.32894,1.0308379,-0.19165461,0.86107564,2.1844192000000002
3.4664786,12.192051,0.23107876,-0.25766295,0.6326993000000001,2.0949709999999997
3.2050218999999998,13.534374,-0.14686033,-0.3385764,0.48099529999999996,1.8889699
2.8273032000000002,13.504495,-0.18823214,-0.44345325,0.35856044,1.6462294999999998
1.9229845,12.65915,-0.2244612,-0.5839871999999999,0.17596409,1.3912368999999998
1.1722107,11.18661,-0.11051635,-0.7239800000000001,-0.10932742,1.1155097
1.1097219999999999,9.591975999999999,0.26383144,-0.79957026,-0.49527207,0.84348273
0.51466715,8.322533,0.30970433,-0.77347755,-0.85885906,0.6135181
0.768759,7.382990400000001,0.33984256,-0.6446723000000001,-1.1766486,0.34309682
0.7076207,6.9278045,0.013139378,-0.45940557,-1.3352816,0.02263692
1.2161203999999999,7.0471697,-0.42525813,-0.25286329999999996,-1.3001481000000001,-0.3829776
1.8477874,7.0150304000000006,-0.7861313,-0.08412487,-1.0318561,-0.79021525
2.1843355,6.937908,-1.0605835,0.05160938599999999,-0.60013145,-1.3145471000000002
2.0450407999999998,7.0100117,-1.352724,0.17669713,-0.25572565,-1.8292971000000002
1.7693342,7.2887735000000005,-1.5350856000000002,0.3635521,0.089203775,-2.196078
1.5266674999999998,7.759081,-1.6517119999999998,0.5594478,0.47513098,-2.2402697
1.0982107,8.317839999999999,-1.5046792,0.6776241,0.8589462999999999,-2.0528913
0.958284,8.872317,-1.2523111,0.6078981999999999,1.064965,-1.8250383999999997
1.1996578000000002,9.789316,-1.0543777,0.42156679999999996,0.9249546999999999,-1.6456534999999999
1.7037905,10.918833,-0.85356164,0.27199212,0.33035590000000004,-1.5647401
2.4833808,11.360975,-0.5723387,0.23047073,-0.5389228,-1.5370591
3.3763607,12.393652000000001,-0.39046559999999997,0.18627898,-1.5620522,-1.5120485000000001
3.9733980000000004,14.298708999999999,-0.41729018,0.08513716,-2.4936216,-1.4151653
3.9358952000000005,13.8547945,-0.048899174000000004,-0.028239427,-2.9854903,-1.2772843
3.2869705999999996,11.241667999999999,0.8604665000000001,-0.11020009,-2.9429045,-1.1729485
1.9475776999999999,9.165847,1.5763328,-0.15226252,-2.5495245,-1.1292978999999999
0.967133,9.2796,1.5074277,-0.183661,-2.048074,-1.120257
0.53571695,11.434353,0.61841273,-0.20282471,-1.5450177999999999,-1.1186513
0.43395385,12.886522,-0.45886314,-0.21294762,-1.0691188999999999,-1.1362268
0.4895951,12.574798,-0.88381475,-0.22518238,-0.64273494,-1.1889181999999998
0.5666691999999999,12.247549000000001,-0.6572754,-0.24223424,-0.29352948,-1.2682436000000001
0.737711,11.317266,0.09673533,-0.26563909999999996,-0.08005825400000001,-1.3321049999999999
1.1477516,9.917415,1.1470141,-0.30770156,0.033841934,-1.3331697
2.2250946,8.494541,1.7740938999999998,-0.34655258,0.10517354,-1.2256575
3.275718,7.3091817,1.8777053,-0.38062140000000005,0.17917550000000002,-0.97066486
3.9467459000000003,6.5036572999999995,1.6074574,-0.37529814,0.22069688,-0.6235887
4.2073307,5.9829473,1.3138325000000002,-0.3071605,0.15947074,-0.1886701
4.3553405,5.845482,1.1416608,-0.1187173,-0.08379326,0.29464647
4.611568,6.030668299999999,1.0610719,0.14529866,-0.49048987,0.76096356
4.8991303,6.4535418,1.0399836999999998,0.26932177,-0.76249945,1.0808997999999999
4.9804277,7.225815299999999,1.0838934,0.2656042,-0.70020866,1.3390864
4.844677,8.124991,1.0783293,0.34386477,-0.24188519,1.6089666999999999
4.5801077,9.007052999999999,1.200922,0.5317669,0.46022588,1.8160498999999999
4.1901980000000005,9.839882000000001,1.2867876,0.62065655,1.2150807,1.9076098999999997
3.6068745000000004,11.024916000000001,1.4268197,0.5647711,1.9161446,1.9480667
2.9420142000000005,11.954747,1.5898073999999998,0.41306707,2.2610915,1.9773358
2.0910573,12.529624,1.7533121999999999,0.25975734,2.3659682,1.9736183
1.293568,12.588339,1.9706866000000003,0.17990854,2.2536389999999997,2.0188572
1.3785526000000001,13.57112,1.8324741000000002,0.13836971,1.9890645,2.1317103
2.582702,14.074794,1.5469896,0.12986995,1.7090788000000001,2.2541451
3.4758443999999997,12.109011,1.6456689999999998,0.1288053,1.4104354,2.3840325
3.4329980000000004,9.425694,1.7434672999999998,0.13039355,1.1203094,2.4500408
3.6306057000000003,9.354932000000002,1.2306771,0.11974704,0.8871683000000001,2.4117134
4.1365104,11.296849,0.36676297,0.06970845,0.69766045,2.2796967
4.0113316,13.219660999999999,-0.19275239,-0.026092672999999997,0.5752255999999999,2.0641136
3.2998037000000005,13.910963,-0.3704692,-0.16182692,0.47354272,1.8117914000000002
2.5945294,13.114985999999998,-0.28304252,-0.28319713,0.31651545,1.5418937
1.4135271,11.603709,0.0081402855,-0.39179152,0.13711306,1.2246277
1.1355028,10.00827,0.32615733,-0.48495720000000003,-0.10295697,0.85039425
0.7452288,8.894210000000001,0.4387614,-0.52595496,-0.42980477,0.4474326
0.7632523,7.9497933000000005,0.38954622,-0.5025152,-0.73055995,0.07641052
0.9537542,7.219524000000001,0.21854272,-0.40404373,-0.9647831,-0.329204
1.4691683,6.744801,0.02456451,-0.24486970000000002,-1.0515435,-0.80032074
1.9248041,6.619307000000001,-0.24745509999999998,-0.10381218,-0.92113245,-1.2671614
2.2612565,6.6839314,-0.47925213,0.0010471975,-0.6107779999999999,-1.7861874
2.2025888,6.482397,-0.6513281999999999,0.07770206,-0.3068289,-2.28125
2.1634772,6.2164392,-0.74611944,0.15648621,-0.022567106,-2.6746297
2.2382242999999997,6.691592699999999,-0.98127794,0.22036527,0.34100243,-2.743832
2.2896326,7.378336,-1.1565813999999999,0.24324654,0.7216064,-2.496833
2.3187845,8.330912,-1.0652187,0.22888248,0.96382314,-2.1141
2.415606,9.523750999999999,-0.84290266,0.14051646,0.8738514000000001,-1.7989631999999998
2.8212029999999997,10.403582,-0.5952273,0.050021138,0.35217252,-1.5908153
3.5579753,10.829798,-0.2898133,-0.025028022,-0.48621383,-1.4263355
4.298952,11.228433,-0.07578127,-0.11287044,-1.4976496000000001,-1.3400987
4.605525,12.519672,-0.14432248,-0.23263493,-2.5394018,-1.2756786
4.4879403,13.731399,-0.1502984,-0.33004177,-3.242595,-1.1931595
4.0439696000000005,13.010532000000001,0.19641073,-0.38753292,-3.4086803999999997,-1.1287568000000001
2.7493577,10.976381,0.9313157,-0.4333129,-3.0903497000000004,-1.1037462
1.1893628,9.872902,1.4676552999999999,-0.46951103,-2.4984040000000003,-1.1292803
0.40814435,10.39821,1.2182657,-0.48495720000000003,-1.8085102,-1.1835951
0.24953328,11.682899,0.5527733,-0.46685812,-1.1372565000000001,-1.250127
0.1294114,12.481127,0.07928638,-0.4375715,-0.55435145,-1.3294522
0.19812499,12.259586,0.09618945,-0.40563196,-0.08964011,-1.3975898000000002
0.33724725,11.590896,0.34942895,-0.3795393,0.20898573,-1.426859
0.8276276,10.284207,0.9094806000000001,-0.34655258,0.34845498,-1.3821437
1.8006791000000002,8.671799,1.4304397,-0.30609584,0.37294194,-1.2453448
2.8437562,7.250389599999999,1.6067392,-0.25605726,0.32396802,-1.021227
3.6935062000000007,6.3848763,1.4405528,-0.20176005,0.25209534,-0.7167369
4.2551284,5.997111299999999,1.2445635,-0.13946927,0.15575318,-0.34304446
4.6205697,5.87132,1.0015136999999998,-0.0021293017,-0.04279547,0.15519467
4.815343,6.0431857,0.83888996,0.22888248,-0.35686746,0.62629396
4.9334826,6.642175999999999,0.78108436,0.3672871,-0.6278123999999999,1.0345963
4.883166,7.4505740000000005,0.80933595,0.4077438,-0.6751981,1.4035065
4.580347,8.094949,0.9234532,0.55679494,-0.40317106,1.748977
4.168832,8.73424,1.0556514,0.79792964,0.14775957,1.9895880000000001
3.7347053999999997,9.283095,1.2126441000000001,0.9203645,0.82381284,2.0598549999999998
3.3885709999999998,9.918305,1.3795677,0.87510806,1.5562927,2.0486674
3.0283587000000005,10.844948,1.5210651000000002,0.72075117,2.0662602999999997,2.059314
2.531399,11.970328,1.5653578000000001,0.6030985,2.3899142999999996,2.0832775000000003
1.7804528000000002,12.584833999999999,1.7239593,0.55838317,3.0579913,1.9959759999999998
1.5390694,13.957142999999999,1.6085875,0.49343950000000003,2.8344147,2.0944474
2.0260022,14.774341,1.3279391999999999,0.42317253,2.348393,2.2786322
2.6444054,11.902544,1.7648810000000001,0.36089918,2.0662602999999997,2.3787092999999997
2.7121994,9.204997,1.960018,0.29063222,1.7458005,2.419707
3.308758,9.511014,1.3475238,0.20172516,1.2778952,2.4042609
4.2988467,11.858442,0.5155482,0.11177088,0.856817,2.2781084
4.6610794,13.972772,-0.18006313,-0.009599311,0.56616735,2.0326977
4.0161295,13.946771,-0.2754577,-0.16769123,0.3516315,1.7431127
3.3094667999999996,12.633772,0.020839132,-0.33962363,0.14723597,1.4199998
3.5803754,10.853127,0.3165901,-0.47911033,-0.06408849,1.0644065
0.90629154,9.723993,0.151122,-0.540319,-0.30522317,0.67687356
0.8247736999999999,8.123335,0.74503726,-0.5312608,-0.48356092,0.26911232
1.1050391000000002,7.173889999999999,0.46077847,-0.46418777,-0.5602158,-0.16898277
1.031719,6.782706699999999,0.06777506,-0.33588862,-0.5815088,-0.60281926
1.0669808,6.419860400000001,-0.21311268,-0.183661,-0.4585329000000001,-1.0483844
1.5625708999999999,6.2366753,-0.4748085,-0.07134906,-0.18278833,-1.540253
2.0872936,6.364056,-0.6662201,0.0010297442999999999,0.026912976,-2.0358567
2.3056066000000004,6.41806,-0.80558187,0.052132983,0.07695156,-2.3791978
2.3951979,6.799102,-1.0197575,0.14158110000000002,0.15468854,-2.5005682
2.4349606,7.4183383,-1.0530274,0.2506991,0.2696708,-2.3637516
2.5571895000000002,7.9265313,-0.9276478000000001,0.30606094,0.31278044,-2.1114295
2.8222082000000004,9.058597,-0.7544512,0.26028094,0.16692328,-1.8915879
3.0642526,10.309126,-0.5937045999999999,0.20971876,-0.32758084,-1.6988860000000001
3.3263123,10.883073,-0.25539428,0.17832029,-0.87107635,-1.5972031
3.841468,11.422555000000001,-0.061559714,0.09951867,-1.4460051999999999,-1.5194836999999999
4.1530495,12.930518,-0.27108109999999996,-0.026616272000000003,-1.9208395,-1.4545398999999999
3.8700547,14.311791,-0.39785886,-0.16395622,-2.2679157,-1.3736264999999999
3.0312892999999996,13.493788,-0.118091606,-0.24699899999999997,-2.3467,-1.317741
1.7506691000000003,11.2260475,0.62120914,-0.29544935,-2.1965842,-1.2884544
0.44151953,10.59303,0.9987173,-0.32630676,-1.9735310000000001,-1.2921719999999999
-0.115027025,12.045009,0.61900645,-0.37103954,-1.7350491999999997,-1.3060124
-0.3189268,13.226958999999999,0.24851814,-0.40934953,-1.4571754,-1.3225232
-0.17778385,12.773286,0.28203696,-0.42905429999999994,-1.0962588,-1.3443573
0.45019612,12.176641,0.3926108,-0.41840777,-0.70500827,-1.3645682
0.9767098,11.124457000000001,0.74140763,-0.40404373,-0.34941490000000003,-1.3826673
1.4873068,9.505891,1.3265027,-0.40350267,-0.046513025,-1.3496805
1.9991968,7.7916419999999995,1.7073148,-0.41469023,0.1796991,-1.2027588
2.6920402,6.491552400000001,1.7700142,-0.40191442,0.28616420000000004,-0.90624475
3.187353,5.7553544,1.6768031000000003,-0.2986433,0.3223623,-0.48677233
3.5427383999999997,5.468156,1.4904096000000002,-0.11765265,0.27180013,-0.020455258
3.8697483999999998,5.5506597,1.2882049,0.11070623,0.03970624,0.46287876
4.3578777,5.7961516,1.3233806000000001,0.3236364,-0.30735248,0.90416783
4.749397,6.2502837,1.3740706,0.3885801,-0.5367935,1.2618905
4.9585447,7.0150685,1.3349684,0.412526,-0.48356092,1.5839561000000002
5.094708,8.043934,1.2668104,0.5818055,-0.1444609,1.8996164
5.019463,9.351963,1.3093983999999999,0.7942121,0.3952996,2.0848656
4.5510616,10.492158,1.3926593,0.88577205,1.1927232,2.102982
3.6868693999999995,11.025567,1.6067200000000001,0.7899535,1.8607827000000001,2.0364327
2.8945708,11.494735,1.8405473,0.62760293,2.2744082999999997,2.0103574
2.1439214,12.391268,1.8747174,0.5163382000000001,2.7918286,1.9975642
1.4832367,13.087722,1.9273036000000001,0.46151742,2.8461258,2.0625253
1.7745057,14.521849,1.6437439999999999,0.38590974,2.4756273999999996,2.2445633
2.7817272999999996,14.608365,1.3885316,0.32044244,2.321253,2.401608
3.0322373,11.719119000000001,1.6341097,0.24378759,1.9454311999999998,2.4628167000000003
2.8198812,9.235603999999999,1.6428725,0.2027898,1.4205583000000002,2.4745277999999997
3.5332193,9.9623785,1.0090028,0.15329227,1.0947752,2.4202306
4.6083694,12.570400999999999,0.19537644,-0.0026703537,0.8397825999999999,2.232311
4.6886134,14.436682000000001,-0.44769657,-0.20867157,0.6002361999999999,2.0076869999999998
3.7587721,13.913835999999998,-0.4938089,-0.40084976,0.37453020000000004,1.6680635
3.8434312000000004,12.268694,-0.09367075,-0.5057092000000001,0.08281587,1.3518622
1.1576539,10.471874,0.14376703,-0.52380824,-0.27860692,0.9728465000000001
0.9961507,8.862875,0.6193704000000001,-0.47483426,-0.5032482,0.5879665
0.8859024999999999,8.03133,0.75881827,-0.43970078,-0.50591856,0.18926351
0.8080718000000001,7.0827284,0.49707457,-0.38168606,-0.44949209999999995,-0.09978047
0.7185957,6.445143,0.07496725,-0.30928978,-0.4101,-0.44685665
1.3146561,6.224924,-0.26936686,-0.14372787,-0.44949209999999995,-0.78860956
1.8983243000000003,6.4698033,-0.521754,-0.0037350047,-0.46172684,-1.1782544
2.4978037,6.722975999999999,-0.41855437,0.0665145,-0.45427429999999996,-1.6472417000000001
2.7463312,6.802272,-0.37716338,0.1394518,-0.47769663,-2.0725784
2.4702990000000002,6.845674000000001,-0.58888745,0.24431118,-0.42606977,-2.2966787999999996
2.3229501,7.122433999999999,-0.86944956,0.32096604,-0.13967870000000002,-2.3041313
2.3652222000000003,7.710105,-0.889762,0.28637362,0.22176154,-2.2147007000000003
2.451155,8.850683,-0.7038187,0.18043214,0.33407348,-2.0970654
2.6013577000000003,10.140919,-0.39375997,0.080372415,0.06686357,-1.8910468
2.9741251,11.048714,-0.11340854,0.04202753,-0.55648077,-1.719638
2.6873958,11.036197999999999,0.49197972,0.018064158,-1.3097299,-1.6536296999999998
2.6408906,11.307364,0.26849535,-0.054838244,-2.065632,-1.5881623
3.0528082999999997,13.171979,-0.20995232,-0.15385078,-2.5271494,-1.4635983
3.1618116,13.314108,-0.23463176,-0.22144738,-2.5553715,-1.3544627
2.492881,11.347653999999999,0.38680723,-0.25605726,-2.297726,-1.2645084999999998
1.8136556000000001,10.676455,0.6288130999999999,-0.26883307,-1.8723892,-1.2570559
1.9036009999999999,12.102622,0.42512402,-0.27042133,-1.4263005,-1.268226
1.7310845000000001,13.340185,0.3247974,-0.29117328,-1.0254682,-1.2868487
1.0829643999999998,13.421664999999999,0.31587183,-0.32791245,-0.70446724,-1.384814
1.1041579,13.356198000000001,0.1665694,-0.33217105,-0.42659336,-1.4737036000000001
1.4012878999999998,12.525927000000001,0.42508572,-0.33590606,-0.26796040000000004,-1.5013846000000002
1.6095834999999998,10.709628,0.86515915,-0.363587,-0.10828023,-1.5317359
2.1254957,8.594351,1.3601938,-0.40030873,-0.008185594000000001,-1.4630572
2.7632535,6.759865799999999,1.5412626,-0.43385395,-0.07154105,-1.2187284999999999
3.3876614999999997,5.7182059999999995,1.5322987,-0.39924407,-0.1944995,-0.85407686
3.8614165999999996,5.235181,1.3767426,-0.26616272,-0.34780923,-0.36753142
3.8856459,5.063870400000001,1.2682468999999998,-0.04845034,-0.5080479,0.16210619
4.3202987,5.3264569999999996,1.2372181,0.20331341,-0.69329715,0.67155033
4.8319583,5.908794,1.3750666,0.3353301,-0.75611156,0.9451655999999999
4.7715197,6.5932198,1.2857053999999999,0.23260003,-0.71298444,1.3545151000000002
4.9615903,7.537244,1.1188488,0.35503490000000004,0.20205677,1.6962681
4.93422,8.961564,1.0591086,0.40985566,1.3960714,1.7713346
4.2964907,10.361397,1.0258484,0.36887532,2.165273,1.7782461999999999
3.4940212,11.355315,1.2571954,0.23898794,2.3835262999999998,1.8117738999999997
2.7682145,11.835641,1.5655014999999999,0.16819738,2.6422365,1.7138435
1.8197656000000002,12.345107,1.9827820999999999,0.1399754,2.6331956,1.7042616999999998
1.5537411,12.420486,2.2047915000000002,0.08728392,2.4192009999999997,1.7585589
1.9547316000000003,13.359348,2.3416824,0.03296927,2.1439798,1.8203086
2.7747266,14.187991,1.8637328000000002,-0.014905112,1.9166857,1.8746058
3.2258132,12.026765,0.904539,-0.06335545,1.8783408,1.9118511999999999
4.3764763,9.147258,2.2232366000000003,-0.18311994,1.9981227,1.9272971999999997
4.5846667000000005,10.107343,1.515817,-0.17833774,2.018351,1.8405369999999999
4.613683999999999,13.184054000000001,1.4554352,-0.11978195,1.6148483999999999,1.6313243
3.9487474000000002,14.019641,0.4902175999999999,0.17564994,0.7594102,1.6265421
3.264446,13.537104000000001,0.32713416,0.084089965,-0.30841714,1.8304314999999998
1.7770914,12.0639515,-0.12583925,-0.22305308,-0.7832514,1.7303369
1.0704763000000002,10.652695,0.20520224,-0.28639108,-0.66774553,1.3987068999999999
0.6771377,9.00486,0.53316957,-0.28799677,-0.49953067,1.0297966
0.9193543,7.911438499999999,0.6879595000000001,-0.35348153,-0.54105204,0.7316944000000001
1.3360507,7.317810499999999,0.6277118,-0.40137336,-0.773146,0.45594979999999996
1.7330573,7.2742553,1.2459521,-0.33164746,-1.1212867,0.13442525
0.95821697,6.743077799999999,0.86634666,-0.15226252,-1.4247123,-0.28023008
0.46578714,5.956745,0.4781125,-0.0074700094,-1.4790094999999999,-0.70876074
-0.8287576999999999,5.581755599999999,-0.46059653,0.079813905,-1.2974952,-1.215011
0.25780764,8.026896,0.018741813,0.12932889,-0.91741484,-1.6733343999999997
1.7171596999999998,7.983552,-0.7448074,0.19373155,-0.31428143,-1.8931935000000002
3.001965,7.574785,-0.85065025,0.23420574,0.3654894,-1.8686890999999999
3.0694337000000003,8.632515,-1.1220378999999998,0.21769492,0.90207344,-1.7851228
2.637491,10.032183999999999,-0.8894938,0.15753342,1.012256,-1.7398837999999999
2.0095685000000003,11.012639,-0.5371535,0.09313077,0.5656437,-1.6988860000000001
2.168668,11.245095,-0.51864153,0.01860521,-0.24986133,-1.6536296999999998
2.727331,11.038428,-0.074430935,-0.061767202,-1.1409916000000002,-1.6328777
3.4213047,11.621982000000001,0.028289886,-0.15013322,-1.9139279999999999,-1.5823154
4.1860127,13.312048999999998,0.02615426,-0.23211133,-2.3312712,-1.4843676000000001
4.091394,13.216960999999998,0.3554815,-0.27682668,-2.283362,-1.3986545
2.969624,10.795351,1.1068011999999998,-0.32738885,-1.9080637999999999,-1.3486159
2.146134,9.604053,1.4845871000000002,-0.39659116,-1.3906435,-1.3236053
2.0193461999999998,11.105868,1.2023777,-0.42694244,-0.88121676,-1.3310579
1.6470383000000002,12.649113999999999,0.8329426999999999,-0.40777870000000005,-0.53466415,-1.3129587999999999
0.941448,12.882203,0.59386736,-0.35133478,-0.22804472,-1.2815428999999998
0.76270646,12.5142145,0.73137116,-0.33803537,0.005637413399999999,-1.2400215
0.8859600000000001,11.333357000000001,1.2491987,-0.30876620000000005,0.22919664,-1.1596491000000002
1.1821802,9.493201,1.7316686000000001,-0.28534390000000004,0.25103070000000005,-1.0627658000000002
1.7177918999999997,7.668571000000001,1.9305118000000001,-0.2587276,0.045553092,-0.8130965
2.5528321,6.301855000000001,2.000298,-0.20443042,-0.20409879999999997,-0.52192324
3.147408,5.5373483,1.8114244,-0.13575171,-0.37657225,-0.16313593
3.4695910000000003,5.3642855,1.8654948,-0.07293731,-0.5320113000000001,0.13601351
3.7008803,5.3973637000000005,1.8625932,0.04574508,-0.7449414000000001,0.49693015
3.4994992999999996,5.749187,1.7674379,0.18523179,-0.98181754,0.7716274999999999
3.633115,6.4205885,1.6365231000000002,0.2528284,-1.1090521,0.9164026
3.6995013,7.448629400000001,1.4920951999999998,0.23951153,-0.97862357,0.9930574000000001
3.5133474000000002,8.469699,1.680337,0.3395887,-0.39786527,1.1426497
3.2925828,9.445585000000001,1.4966538,0.5088682,0.48897144,1.2352742
2.9307902,9.958633,1.459285,0.5589068,1.463127,1.1948174999999999
2.889926,10.369565,1.4325083,0.4604353,2.3180416,1.1665956
2.6519327,11.067886,1.4426502,0.3475823,2.7268673999999997,1.2331448999999999
2.4081264,11.947459,1.2529048999999999,0.2943498,2.7125034,1.3939072
2.009013,12.123615,1.3059125,0.3199014,2.4873211,1.6520764
2.4856794,12.801375,1.4195222,0.33852407,2.1508912999999996,1.9597604
3.7576803999999995,14.014068,1.3485963,0.32309535,1.7692229,2.2679856
4.336905000000001,12.244896,1.6864661,0.26720992,1.4716616000000002,2.5330837
4.0860977,9.314249,2.0197678,0.17617354,1.2438088999999999,2.7465374
4.7391977,9.370704,1.7917823,0.07661995,0.97605795,2.8796186
5.385048,11.557329,1.4635563999999999,-0.02289872,0.5847899999999999,2.8716426
4.976195,13.665769000000001,1.0396007,-0.14748032,0.051399945999999995,2.7023456
3.4377002999999995,14.291632,0.8901929,-0.27469736,-0.47239079999999994,2.440459
1.8295436,12.990028,0.88359445,-0.42322489999999996,-0.94455475,2.0534496
0.7030621,11.106597,1.1191169,-0.5956809000000001,-1.3214412,1.5259238000000002
0.11397358,9.675094,1.3388472,-0.7085338999999999,-1.5066903999999999,0.98028165
0.032312144,8.631346,1.4816661,-0.7734949999999999,-1.5381063,0.36013123
0.31026940000000003,7.717268499999999,1.2450807,-0.7761479,-1.3863848,-0.20305161
0.45712972,6.939852,0.99873644,-0.6925641,-1.1319333,-0.81257296
0.48131114,6.21235,0.7784506999999999,-0.55735344,-0.9163502,-1.3518099
0.76766723,5.827237599999999,0.6852301,-0.34815827,-0.65338147,-1.921398
1.1424938,5.789448,0.30239725,-0.12245230000000001,-0.33505085,-2.5138849999999997
1.5721094999999998,5.8441410000000005,-0.06378153,0.06332055,-0.030019663,-3.0275702
2.3193111,6.199038,-0.63260555,0.20439549999999998,0.36336009999999996,-3.1164598
3.2089868,7.0319332999999995,-1.0953473,0.30019662,1.0000038,-2.7603428
3.8351089999999997,7.5125356,-1.1964687,0.26666886,1.5286117000000001,-2.2556984
4.316391,7.7432795,-1.0659847,0.18469074,1.5525576,-1.8085451000000001
4.6216617,8.577784,-0.7904696,0.15221016,0.9041853000000001,-1.4790443000000002
4.7049127,9.754437,-0.6202323000000001,0.14688691,-0.22698008,-1.2245928
4.7559569999999995,10.603269000000001,-0.33224818,0.09897762,-1.6584119,-1.0659598
4.9801025,11.589564,-0.21177192,-0.013316861999999999,-2.9061825,-0.9733351999999998
5.178668,13.653041,-0.20635146,-0.14055136,-3.426256,-0.93020815
4.9581237,14.629435,0.04111323,-0.2443461,-3.2128022,-0.93394315
3.0549437999999998,12.036599,1.1197872,-0.32260665,-2.5149147999999997,-0.9616239999999999
1.2388270000000001,10.801307000000001,1.6117574,-0.36625734,-1.6286017,-1.0228328000000002
0.728297,11.480848,1.1440166,-0.37742746,-0.8343721,-1.0829942
0.3891248,12.970789,0.5957826999999999,-0.36039305,-0.22059216,-1.1356857
-0.2594357,13.127954500000001,0.47247177,-0.3295356,0.22280873,-1.1899829
-0.7366001,12.438759,0.72584534,-0.31408945,0.4437325,-1.2192695
-0.591205,11.489477,1.2513535,-0.29918435,0.5193227,-1.2070173
0.66851854,9.919857,1.7246008999999998,-0.2938611,0.5331632,-1.1878711000000002
2.2207754,8.095188,1.8565215,-0.30131364,0.496424,-1.1058755
3.3546980000000004,6.599991,1.8350886000000002,-0.30398400000000003,0.40859902,-0.9163851000000001
4.2267427,5.5787582,1.7195827000000001,-0.27947956,0.2819056,-0.6230651
4.719441000000001,4.8901477,1.6121405,-0.18420205,0.09239773,-0.21369812
4.783069,4.6139617,1.5541338,0.0058293995,-0.17374752,0.22704989
4.6427879999999995,4.9761667,1.547181,0.27305678,-0.5208237,0.63906974
4.4398746,5.795577,1.5009059,0.36568138,-0.727907,0.9334370000000001
4.122212,6.6206474,1.3208619,0.3640757,-0.63048273,1.2427268
4.1319995,7.7453284,1.1717607,0.5189911,-0.15138985,1.5402879999999999
4.2047834,9.180508999999999,1.0001346,0.76757836,0.5762728,1.7047852
3.9792012999999997,10.328586,1.0358082,0.8522094000000001,1.3747610000000001,1.7228668999999999
3.5846372000000004,11.323903,1.0970328,0.764908,2.0784953,1.6733692999999998
2.8713279,12.026976,1.3012487,0.5690297,2.5677109000000002,1.7218196
2.159455,12.554705,1.4256418,0.43593088,2.8594253,1.8080564
1.7500657,12.550654,1.6504095,0.37632790000000005,2.800346,1.9395494
2.1608055,13.827960999999998,1.5234976,0.34971163,2.5804867999999996,2.1599147000000003
3.119683,15.14347,1.2143583,0.33426547,2.265891,2.3568926
3.3031843000000003,12.189886999999999,1.6502466,0.3039142,1.8873991,2.5208312999999998
3.2680278,9.179044000000001,1.8204936,0.20598376,1.4556744,2.6028094
4.051688700000001,9.731473,1.2589287,0.078749254,0.9989392,2.5410597000000004
5.047217,11.933707,0.70937324,-0.065484755,0.6108826999999999,2.3659334
5.06412,13.9821,0.20152475,-0.21507692,0.30426323,2.1210637
3.9486706,14.165648000000001,0.024794352999999998,-0.36519268,0.039165188,1.8522307
2.9863164,12.800264,0.19430384,-0.5046619999999999,-0.23123868,1.5599753
1.5121011999999998,10.79355,0.33430716,-0.610586,-0.51443577,1.2129166
0.7606475,8.9931,0.60987025,-0.64732516,-0.7971093,0.81632537
0.55302227,7.274686,0.718634,-0.61538565,-1.0483669,0.39100609999999997
0.52087295,6.3906894,0.40097132,-0.5387308000000001,-1.1670668,-0.08487536
0.9017617,6.578797,-0.051532798,-0.43226570000000003,-1.1010583999999999,-0.5671622
1.5125034,6.641122999999999,-0.36456987,-0.30236083,-0.86364126,-1.1101341
1.9961609,6.465398,-0.6193320999999999,-0.20282471,-0.45481536,-1.5924208999999998
2.245857,6.3664985,-0.7512813,-0.14055136,0.021066124,-2.0731196
2.1029902000000003,6.2022176,-0.95832235,-0.07241371,0.2664594,-2.4633052
2.1561031,6.4729733,-1.1804371999999999,0.063844144,0.39102358,-2.5889342
2.3938186000000004,7.089135000000001,-1.164511,0.21715386,0.52251667,-2.4127257
2.4796364,7.6116557,-0.96601254,0.30871382,0.5230403,-2.168397
2.8525956000000003,8.315522,-0.7112407,0.27996826,0.28455848,-1.9592019
3.499595,9.386295,-0.5505419,0.2070484,-0.21048671,-1.7579828999999998
3.90705,10.347893,-0.520442,0.12826425,-0.7518529,-1.6786577
4.3620152,10.981399,-0.4131339,0.01966986,-1.2767258,-1.6413949
4.617543,11.747821,-0.46161166,-0.10700613,-1.7489072,-1.5727162000000001
4.5408335,13.354484,-0.6811504,-0.21081832,-2.0959833,-1.4673332000000001
3.8853678999999994,13.266272,-0.34605792,-0.2629862,-2.1417634,-1.3534156000000002
2.420471,11.405786,0.63819844,-0.27947956,-1.9410679,-1.2692907
1.0887105,10.934932,1.1493222,-0.29651397,-1.6099615,-1.2032824
0.9758479,12.003511,0.99643797,-0.3071605,-1.246392,-1.1814657
1.1131218999999999,13.247923000000002,0.7925382,-0.32258922,-0.882805,-1.1867889999999999
1.2536326999999998,13.293767,0.7662498999999999,-0.3300592,-0.51497686,-1.211817
1.7930272,12.917167999999998,0.59023774,-0.34177038,-0.17854719,-1.2315042999999999
2.0297372,11.869159,0.7422696,-0.35239944,0.08600982,-1.2134053
2.0928578,10.074207000000001,1.1696441,-0.36519268,0.19886282,-1.1787953000000002
2.2442767999999997,8.106489,1.5238614,-0.3779685,0.18928096,-1.0888411
2.6871178,6.6505175,1.696924,-0.38116246,0.057264253,-0.92861986
3.1567645,5.8634095,1.6226558999999998,-0.3630634,-0.124773584,-0.69598496
3.560178,5.6340069999999995,1.4613633,-0.3108955,-0.2903355,-0.34890878
3.953306,5.5605139999999995,1.3283126,-0.15598008,-0.51497686,0.08810422
4.339567,5.7070203,1.3683821000000003,0.11655309,-0.74014175,0.49480084
4.589082,6.053020500000001,1.3537103000000001,0.36248744,-0.8524712,0.86210537
4.619986,6.747234,1.2511045,0.44020694,-0.7348185,1.1277443999999999
4.5040874,7.76204,1.1506438,0.55997145,-0.21048671,1.3933661
4.308682,8.682774,1.0122301999999999,0.7053050000000001,0.631111,1.5482816000000001
3.9503372000000003,9.638539,1.0139828000000002,0.7186044,1.6116545,1.6073784
3.6074010999999997,10.636652999999999,1.042081,0.6249151,2.317518,1.6802983
3.2954175,11.681980000000001,1.1493126,0.5301611999999999,2.6635294,1.8160325000000002
2.6778283,12.559676,1.3078087999999999,0.48811623,2.7098331,1.9523253
1.9785873999999999,12.2480755,1.6189592,0.48384017,2.6305254000000002,2.1034882
1.8757229,12.120474,1.7654747,0.46736425,2.239275,2.2962074
2.7391582000000003,13.194560999999998,1.5545360000000001,0.46788788,1.7665523999999997,2.5011442
3.5665082999999997,11.825106,1.717179,0.454571,1.4253405000000001,2.6443484
3.9333669999999996,10.065062,1.6260268999999998,0.40720278,1.1836648,2.711945
4.714317299999999,11.122341,0.9560238999999999,0.32948324,1.0500599,2.6709647000000003
5.1445074,13.22899,0.27179936,0.21769492,0.9584999,2.5251074
4.252743700000001,14.326951000000001,-0.021499932000000003,0.07929031,0.84243554,2.2855434
2.9911528,13.679722,0.053917423,-0.10061823,0.65559804,1.9885234
2.1256874,12.219469,0.33882743,-0.31887165,0.36601300000000003,1.6488998
1.5116701000000001,10.6028185,0.68028843,-0.50199157,-0.059829887000000005,1.2922418
0.62149644,9.031475,0.77716744,-0.60686845,-0.5682094,0.92917836
0.60037,7.8924093,0.79635936,-0.61643285,-1.0110867000000001,0.55176836
0.95310295,7.023629700000001,0.5793202,-0.53606045,-1.2783315,0.1296256
1.4592180000000001,6.535175,0.32292992,-0.39711475,-1.3512514,-0.34890878
1.9510062,6.425721,0.0740766,-0.26670375,-1.1889008,-0.8668527
2.2854092,6.469334,-0.16762285,-0.18207274,-0.81627303,-1.4646628000000002
2.4433882000000002,6.6014175,-0.40676528,-0.11287044,-0.41383502,-2.0534148
2.4507241,6.869366599999999,-0.7834211,0.0063704518,-0.03960152,-2.4484003
2.3117454,7.462726600000001,-1.2048292999999999,0.16924457,0.43893287,-2.5325077
1.8629474999999998,8.119159,-1.3395463,0.26932177,0.84138834,-2.408467
1.6094015,8.938761999999999,-1.3263111,0.20172516,0.98403406,-2.2423990000000003
1.8287966,9.666072,-0.9832699,0.07236135,0.7306646,-2.082684
2.4015087999999998,10.292337,-0.6643814,0.0063529983,0.12168436,-1.9304389
3.0268552000000004,11.020050999999999,-0.42907926,-0.046844635,-0.7811220999999999,-1.8713595
3.7782129999999996,11.542466000000001,-0.340647,-0.13042845,-1.715903,-1.8372906000000002
4.5756354,13.214547,-0.57689726,-0.22572343,-2.5218437000000002,-1.7191144
4.7019825,13.82616,-0.5703467,-0.30928978,-2.8683789,-1.5956149
3.9353683,11.616207000000001,0.33269829999999995,-0.36571628,-2.6304380000000003,-1.4790443000000002
2.6833925,10.159086,1.1398028,-0.39659116,-2.08319,-1.3997191
1.7004865000000002,10.858442,1.1039473,-0.42214277,-1.4279063,-1.3693678
1.6134621999999998,12.557310000000001,0.47006800000000004,-0.4375715,-0.8540594000000001,-1.3853376
1.4390684,13.178682,0.27853185,-0.4391772,-0.3973242,-1.4247471999999999
1.0619339,12.768871,0.35606566,-0.42320743,-0.14873695,-1.4609451999999998
1.2056721000000001,11.812283,0.6242929,-0.39978513,-0.04972443,-1.4785033
1.0715201,10.099153999999999,1.1932893,-0.3678456,-0.066217795,-1.4454992
1.499479,8.2031765,1.5932647,-0.34335864,-0.10508627400000001,-1.3443573
2.4123018,6.541706,1.7885644,-0.32101840000000004,-0.11625638,-1.1617785
3.2113522999999997,5.5132623,1.7609544999999998,-0.26618016,-0.09070476,-0.8721934000000001
3.811895,5.211698,1.5032331,-0.15119787,-0.062482785,-0.47719046
4.300694999999999,5.365176,1.1722298999999998,0.043615777,-0.14500195,-0.015149458000000001
4.508780000000001,5.6900406,1.0364403,0.2826386,-0.33131585,0.42985713
4.5701766,6.431065,1.0338641,0.3789808,-0.48940778,0.8498706
4.475021400000001,7.236609,1.0100753,0.44711843,-0.4447099,1.2565671999999999
4.2532706,7.9971223,0.9903376,0.6499431999999999,-0.045989424,1.6105549
4.1046677,8.956335000000001,0.94536495,0.8181579999999999,0.5874604,1.8128386000000003
4.0013046,9.856497000000001,0.9552482,0.83625704,1.354009,1.9123921000000002
3.8040323,10.677488,1.0295736999999998,0.744156,2.0412323,1.989047
3.4308812999999994,11.518360000000001,1.2341343999999999,0.65046674,2.4325004,2.0976415
2.861732,12.484699,1.4121575000000002,0.59086376,2.5868747,2.1647142999999995
2.2209284,12.746079,1.6833729,0.5669004,2.4474053,2.3286707000000004
2.2196357000000004,14.355767000000002,1.4841273000000001,0.56848866,2.1397214,2.4692047
2.5465016,15.136182000000002,1.2541882,0.55943036,1.8533303,2.6081328
2.6090765,11.304664,1.7694012,0.53441983,1.6648870999999998,2.7092745
3.0432124,9.274783,1.6645543999999999,0.45350635,1.5387171999999998,2.7098157000000005
4.0597043,10.684057000000001,1.0389208,0.32096604,1.4572802,2.6097382999999996
4.7372727,12.738215,0.5379866999999999,0.14742796,1.3534680000000001,2.4063902
4.341799,13.853128,0.14805743,-0.038868482999999995,1.1554427999999999,2.1561972999999997
3.2430995,13.497732999999998,0.107672036,-0.2491283,0.82381284,1.8746058
2.4336677000000004,12.156989999999999,0.28018862,-0.4450415,0.3644073,1.5610573
1.3886561000000002,10.361692999999999,0.46897623,-0.6228382,-0.18971729999999998,1.2027936000000001
1.1058146999999998,8.80349,0.71048415,-0.73141515,-0.70127326,0.85254097
1.0942843,7.865978,0.6119963,-0.75644314,-1.2053941000000001,0.47404888
1.37024,7.277128,0.2733412,-0.68458796,-1.5546171999999998,0.068940505
1.818741,7.016390299999999,-0.16996916,-0.53447217,-1.6738404999999998,-0.40639990000000004
2.26186,6.8721538,-0.4627992,-0.36252233,-1.5003024,-0.9073269
2.4410130000000003,6.8678155,-0.73294175,-0.26352727,-0.97384137,-1.4305940000000001
2.34921,6.90459,-1.007844,-0.19804251,-0.2844712,-1.9416263999999999
2.0592625,6.818523399999999,-1.2013242,-0.06070255,0.26061258,-2.3057369999999997
1.9364493999999999,6.9373045,-1.3955897,0.16870353,0.7487463000000001,-2.4201957999999997
1.8407102,7.333296300000001,-1.5144954,0.3635521,1.1559839,-2.3728101
1.8393502,8.251443,-1.4969698,0.40027379999999996,1.2549964,-2.2620864
1.9622302,9.247603999999999,-1.2614473999999998,0.31510174,0.9686054000000001,-2.1002593
2.4278834,10.107227,-0.99936855,0.25281096,0.42031019999999997,-1.9091633999999997
3.0694146,10.832231,-0.6144670999999999,0.21767746,-0.24614379,-1.8000278000000003
3.6962550000000003,11.085604,-0.2957701,0.16496852,-1.0095159,-1.7340368999999998
4.4652057,12.237022999999999,-0.41513540000000004,0.08194321,-1.7462543000000001,-1.6520588
4.5249643,13.81463,-0.53672254,-0.010140363000000001,-2.2141595,-1.5647401
3.7452402,12.336833,0.030473400000000005,-0.08147197,-2.3099782,-1.4923612
2.6418772,11.07958,0.6865420999999999,-0.14268066,-2.0768197,-1.4396523
1.8454793999999999,11.902985000000001,0.5712374,-0.19537215,-1.7057799999999999,-1.4391112
1.5899606000000002,13.230406,0.119892046,-0.23158774,-1.3310405,-1.4678743
1.2954738000000001,13.700607999999999,-0.008714894,-0.2778913,-0.93286103,-1.4864969
1.0113969999999999,13.154568,0.11050677,-0.3151541,-0.5863085,-1.5376002
1.2570133,11.985975999999999,0.19913054,-0.34709364,-0.30736995,-1.5737983
1.2837135,10.420667,0.6622840999999999,-0.388615,-0.16310102,-1.5503759
1.4834857,8.820851,0.9856736999999999,-0.42322489999999996,-0.13170254,-1.4795854
2.0632272,7.353139,1.2903118999999998,-0.45144686,-0.17376497,-1.3166938
2.770867,6.3280764000000005,1.3628371000000001,-0.45888197,-0.24242623,-1.0228502
3.3602046999999997,5.795625,1.251363,-0.4194899,-0.30417597,-0.6443581
3.9077968999999997,5.536505,1.1315093,-0.27523842,-0.41757002,-0.15622441
4.2398148,5.483986,1.0506715,-0.020786871999999998,-0.6560518,0.35852554
4.5315437,5.883598,1.167767,0.13409364,-0.87430525,0.8338834
4.747146599999999,6.505755000000001,1.120314,0.16816248,-0.86737627,1.3028708999999998
4.632541000000001,7.32212,1.0456148,0.3736401,-0.5341406,1.7457656000000004
4.416268,8.328758,0.9530934000000001,0.63769096,0.01733112,2.0656843
4.2033176,9.265408,0.9942162,0.7526732,0.6960373000000001,2.2163413
3.877965,10.053971,1.1627201,0.69251174,1.432252,2.2796792999999997
3.5282392999999996,10.747322,1.3711976000000001,0.560495,1.9555367,2.3563342
2.9858472000000003,11.601842,1.5676084,0.4950103,2.2333932,2.4659932
2.2331295,12.382467,1.7417147000000002,0.49394563,2.4096014,2.5644646
1.8474618000000003,13.720346,1.72055,0.5221676,2.205712,2.7598367
2.4628963,16.026308,1.290197,0.5764648,1.9800061999999998,2.9339159
2.7166335999999998,13.158514000000002,1.7848008000000002,0.6536607,1.841078,3.0116355
2.5765727000000003,9.717155,1.9353194,0.67228335,1.7921041000000002,2.9844779999999997
3.3431292,10.340318,1.3696078999999999,0.5892406,1.8314960999999998,2.8498085
4.407342400000001,12.92505,0.6662968,0.4140968,1.8996164,2.6283436
4.761071,15.224326000000001,0.081977464,0.18093829,1.8506598,2.3467522
3.8529599,15.171930999999999,-0.09241618,-0.059655353,1.6520938000000003,2.0523674
2.6933331000000003,13.599487,0.05974012,-0.26352727,1.3343042,1.7617179
2.0776882,11.687918,0.43086055,-0.46794020000000003,0.8983209999999999,1.4119888999999999
0.75454706,9.537954,0.6335153,-0.64095473,0.3079808,1.0627833999999998
1.0000293,7.611961999999999,1.0305792999999999,-0.7474198000000001,-0.47186720000000004,0.67792076
1.4618517,6.469736,0.74193436,-0.76764816,-1.1713428,0.29145253
2.1987773999999995,6.0486629999999995,0.25070164,-0.71389204,-1.7324138,-0.13919
2.7350497000000003,6.4352884,-0.33368468,-0.6047566,-2.0193286,-0.57995546
3.1925435,6.711867,-0.81321454,-0.46848127,-2.0150874,-1.0414903
2.9955964,6.6052669999999996,-1.0645579,-0.34232888,-1.7994868000000002,-1.532818
2.5829413,6.367350599999999,-1.2520813,-0.1847431,-1.4752918,-2.1029472
2.3972087,6.531344,-1.4284669,0.021240657000000003,-1.0068629999999998,-2.4622580000000003
2.2004056,6.7998294999999995,-1.5335819,0.24588199,-0.3664668,-2.5314605
1.9001055,7.199766599999999,-1.520548,0.33318335,0.27178267,-2.5293312
1.9777256,7.799275,-1.4283137,0.19104373,0.70348984,-2.4702517999999998
2.4176168,8.769281,-1.3751528,0.040404372,0.7620456999999999,-2.3664396
3.0281384,10.162495,-1.2853991000000002,0.0026005406,0.5006651,-2.2700975
3.5459945,10.983544,-0.9855492,-3.4906585e-05,-0.16151276,-2.2072830000000003
4.109015,11.79172,-0.87296426,0.021764256000000003,-1.1457912000000001,-2.0417384999999997
4.9680550000000006,13.3688965,-0.77541494,0.043598324,-1.9964471999999998,-1.7814226000000002
5.3583574,13.093113,-0.22248837,0.103201315,-2.3935619999999997,-1.5583870000000002
4.3242636,10.780966000000001,0.8888521999999999,0.35393533,-2.1231406,-1.4104005
3.4390028,9.776579,1.6305184,0.80908227,-1.0984055,-1.4056008999999998
3.3205757000000005,11.081467,1.1132847,1.17054,0.73223543,-1.4130535
3.2055295,12.691051,0.16753665,1.3829117,2.6086737999999996,-1.4146591
2.6519425,12.733227000000001,0.06646304,1.5649843,3.7409387,-1.4960963
2.1862316,12.511141,0.19135417,1.6490918,3.9948492,-1.5035486999999998
1.6214108,12.113453999999999,0.69189554,1.6416392,3.3017614,-1.5035486999999998
0.67745376,11.094289999999999,1.4480226999999999,1.4318856000000002,1.8879052,-1.5360293
0.89163905,9.578072,1.9430288,1.0246654,0.6912376,-1.575404
1.9149305,8.150580999999999,2.2077412999999995,0.48275807,-0.07049385,-1.6328951
3.2705562,7.5178223,2.8048646,-0.07508406,-0.43725735,-1.6808043999999998
4.6972804,7.810192599999999,3.3162565,-0.6659826999999999,-0.6118775,-1.7425542
5.414132599999999,8.082107,3.1170402000000004,-1.2238598,-0.7119546999999999,-1.7090265
5.437299299999999,7.796593,2.4457343,-1.7881247,-1.0185741,-1.5445466
4.915488,7.1792436,1.4523419,-2.1628819,-1.8447433000000002,-1.233651
3.7261152,6.973581299999999,0.7159525,-2.135201,-3.113266,-0.6379876999999999
2.4345105,6.8777275,0.028969841,-1.5746708999999999,-3.9538163999999996,0.19507545
2.0376573000000002,7.1061053,-0.25891855,-0.692599,-4.034730000000001,1.106434
2.9497428,7.653736,-0.5370769,-0.06339036,-3.6440031999999998,1.9948763999999999
4.4243793,7.8864617,-0.5755469,0.34541813,-2.478734,2.718298
5.3992505,8.005885000000001,-0.84658974,0.6429967,-0.7353770000000001,3.1415055
6.0427446,9.360639,-1.103976,0.92458814,1.2256924,3.4454544
5.929394,11.251311,-1.5116319999999999,1.0629928,2.867384,3.670637
4.991585,13.59784,-1.8408633,0.9900728999999999,3.8474038,3.8180997000000003
3.6456702000000005,16.37973,-1.592192,0.7404036,3.9639742,3.926153
1.5929773,14.927963,0.06649177,0.46572366,3.5588660000000005,3.9309351
0.032589875,10.707531,2.4014512999999997,0.2842094,3.0345342,3.8958017999999996
0.14086525,8.589103,3.5517983,0.13088223,2.5080557,3.8175411
1.8130906999999998,11.023489,3.5860543,-0.060196407,1.9698832999999998,3.6307037
4.1952066,13.193747,3.0867486,-0.2800381,1.5546695,3.3608233999999997
5.520368,13.833343,2.2743766,-0.5323603,1.2150458,2.990325
5.8052883,14.067352,1.3922666000000001,-0.80386376,0.8025024000000001,2.5639236
5.3142176,13.418667000000001,0.9346293,-1.0295697,0.26378906,2.157768
3.9188389999999997,12.493194,0.76939106,-1.1083364,-0.3856305,1.8074979
2.4619575,11.433366,0.4461164000000001,-1.0215935999999999,-0.957889,1.4870205
2.0645583,9.738722000000001,0.3977248,-0.8049284000000001,-1.2719611000000002,1.0814059999999999
1.9344671000000002,8.630139,0.13231316,-0.5595176,-1.250127,0.61721826
1.9688191000000002,8.292222,-0.33546597,-0.31038934,-0.9781174000000001,0.05667084
2.1686966,8.086311,-0.8199758,-0.12993976,-0.5533216999999999,-0.53471655
2.3917117,8.098377000000001,-1.0606408,-0.004834562,-0.16632988,-1.1884122
2.4884853,8.070346,-1.4320678,0.10533062,-0.12533209,-1.7239316000000002
2.2067454,7.9338193,-1.7649384999999997,0.27141616,-0.31110492,-2.1231756
1.5652142,7.9337716,-1.8719592,0.46572366,-0.46228537,-2.308966
1.0159748,7.862013,-1.6019603,0.5801649,-0.6251944,-2.510726
1.2383673000000002,8.030172,-1.1538329,0.5226912,-0.7795513000000001,-2.7688951
2.0950031000000005,8.300783000000001,-0.6451511999999999,0.35287067,-0.9493718000000001,-3.0110943
3.1333492,8.877059,-0.44226652,0.19369663,-1.1569787,-3.184109
3.9088311,9.504808,-0.38839698,0.08564331,-1.3651267,-3.3022852
4.501223599999999,10.423483000000001,-0.6121015999999999,0.038781215,-1.5477056999999999,-3.3246427000000005
4.566394,12.005158999999999,-1.2058636,0.056374136,-1.7978985,-3.2564876
3.7524035000000002,11.648327,-1.2598768,0.12555899,-2.0273395,-3.1159713
2.6594791,9.957944,-0.58165693,0.24160592,-2.2407932,-2.8253214
2.0075572,9.339015,-0.030617052999999998,0.45985934,-1.9874063999999998,-2.594816
2.6023536,10.691239999999999,-0.29471666,0.8521919,-0.8365189000000001,-2.5506415000000002
3.3971806000000004,12.494083999999999,-0.8898865,1.0693632,1.0276673,-2.4298124
3.2980032,13.487360999999998,-1.158085,1.1076907,2.2759616,-2.3100305
3.0571658999999998,13.909823000000001,-0.99998146,1.0294476000000001,2.4516292,-2.2892785
2.8433634999999997,13.679414999999999,-0.61494595,0.87081456,2.0145986000000002,-2.2828906000000004
2.619927,12.870597,0.23642263,0.6302035,1.0399194999999999,-2.4415061000000002
2.3066123,11.505681,1.1103158000000002,0.29857346,-0.13278465,-2.5240254
2.163161,10.104469,1.8566747,-0.16826719,-1.1399443,-2.5383894000000002
1.7831343000000002,9.498076,2.3272597999999998,-0.74104935,-1.772888,-2.473463
3.0864325,9.429975500000001,2.8305116000000003,-1.2520818,-2.1444511000000004,-2.3531575
5.0816360000000005,9.020729,3.256277,-1.7189223999999999,-2.5330486,-2.0529087
5.233064,8.794928,2.5514624,-1.896178,-3.1393584999999997,-1.5514581
4.743345,8.845512,1.4102901,-1.7769546999999999,-4.092221299999999,-0.78812087
4.102273,8.818764999999999,0.6182116,-1.2233361999999999,-4.774139,0.20146336
4.1091584999999995,8.568914999999999,0.38672104,-0.26141542,-4.5303335,1.3864198
4.2409453,8.33618,0.46870807,0.4827406,-3.580665,2.3722863
3.8241532,8.258569999999999,0.6320118,0.9410815,-2.0747077000000003,3.037152
4.3044294999999995,8.320991000000001,0.53151274,1.1923392,-0.20785126,3.3805108
4.97449,8.97251,0.29554024,1.3568189,1.8011273999999997,3.6259040000000002
5.4675044999999995,9.836845,-0.030119056,1.4537022,3.1298117999999997,3.8462867999999997
4.6930857,11.438528,-0.18889295,1.402599,3.7616906,4.019825
2.7004297000000004,14.44488,0.12065819,1.2248197,3.7659491999999997,4.154512
1.9994361,16.659229999999997,0.8052754,1.0028487,3.3023026,4.266841400000001
1.1696825000000002,12.187664999999999,2.377787,0.870291,2.8024402000000004,4.353078
0.5876520000000001,7.8967094,3.4500830000000002,0.7941597,2.3621984,4.338696499999999
2.2549741,8.27167,3.1849682,0.7052701,2.1694965,4.2657766
5.0464025,11.270628,2.1877449,0.5450314,2.2749145,4.120984
6.67582,13.406744,0.9137709999999999,0.31613147,2.518702,3.8856788
6.4862375,14.378838,0.123617426,0.06487389,2.6081328,3.5391437999999993
5.2347684,14.455854,-0.4226149,-0.18317229999999998,2.4207542,3.1398997000000004
3.7981423999999997,13.862715,-0.537776,-0.42058945,1.9933057,2.7310738999999997
2.5151856,13.039684,-0.20442651,-0.59412754,1.3161877,2.3414116000000003
1.6630604,11.689278999999999,0.26932856,-0.65640086,0.47137854,1.9927471
1.7562426,10.599648,0.4002435,-0.5749638000000001,-0.41385248,1.6515176999999999
2.25393,10.036014999999999,0.13044567,-0.40249038,-1.0962937,1.2496034
2.8017333,9.943292,-0.3264446,-0.17624335,-1.3949368999999998,0.7508232
3.3785345999999996,10.131294,-0.79796827,-0.005899213,-1.2740903000000001,0.13599606
3.577464,9.966439,-1.1369393,0.09309586,-0.91476196,-0.56400317
3.4099752999999997,9.647159,-1.4041801999999999,0.24162339,-0.6661746999999999,-1.1969292999999999
2.9361818,9.633214,-1.5642181999999998,0.46890014,-0.45910886,-1.6047081
2.2613714,9.498545,-1.6237284,0.7265630999999999,-0.12852605,-1.8884288
1.3901118000000001,9.348025999999999,-1.4386662000000001,0.8053298000000001,0.08969247,-2.2339168
0.6780475,9.293123,-1.1353111999999999,0.65629613,0.022095867999999998,-2.641137
0.697565,9.107084,-0.72634333,0.45081854,-0.3371976,-3.0201526000000003
1.5156637,9.214315,-0.42083362,0.26982790000000006,-0.7673165,-3.332619
2.769469,9.609597,-0.16425182,0.0840376,-1.3102884,-3.6456263
4.0788198,10.96823,-0.41578665,-0.06551966,-1.9453613999999997,-3.8937072999999995
4.5031004,12.942556,-0.7575541,-0.12833406,-2.5026975,-4.031571
3.5172641000000002,12.096082000000001,-0.29260018,-0.076689765,-2.9312107999999997,-4.080545
2.3005693,9.253599000000001,0.75062054,0.1452463,-3.0014951,-4.025723999999999
1.9936806,8.8487015,1.076117,0.3954567,-1.6190373,-3.7664727999999994
2.6321470000000002,10.81616,0.0015035585999999999,0.57272977,1.1091218,-3.5003102
3.0047326,12.419002,-0.9478835999999999,0.89797187,3.983138,-3.2985501000000004
2.8781847999999997,12.532468,-1.3329,1.294022,4.907255,-3.0707147
2.737128,12.68224,-1.370058,1.5282452,3.5210795,-2.7577074
3.009272,12.5727005,-1.0328681,1.4286916,0.7966380999999999,-2.3137481
2.9446383,11.921861,-0.20681114,1.0592576999999999,-1.6696168000000002,-2.0976415
2.9287023999999997,10.923947,0.66324174,0.5785766,-2.8960772,-2.0758073
2.7992816,10.273989,1.6523248,-0.0032463125,-3.0919727999999997,-2.0678136
3.363499,10.030374,2.6172457000000002,-0.59517473,-2.7608664000000003,-1.9432496
5.262398,10.393641,2.7024696,-1.0998367,-2.369616,-1.7047678
7.6474056,9.818525,3.114416,-1.3926157,-2.1071885,-1.3539741000000003
7.040800999999999,8.604052000000001,2.2701437,-1.4261434,-2.2264117999999997,-0.883922
4.2538165999999995,8.665028,0.74742186,-1.2941267,-2.6096861000000002,-0.2616423
1.0831944,9.125893,-0.016807297,-0.96834356,-3.1659749,0.7476292
-0.5618713000000001,9.572325,0.31837136,-0.29122564,-2.951439,1.6972977999999999
2.0483928,9.871294,0.8722939000000001,0.35925856,-2.375463,2.5415832999999997
5.1251430000000004,9.93656,1.1781963,0.7313453000000001,-1.5753865,3.1745095
6.952905,9.905808,0.88451385,0.91924745,-0.37926003,3.5471199
7.321008999999999,9.815517999999999,0.5170039000000001,1.0262536,1.1176391,3.7627203000000002
7.122492,10.178239999999999,0.18609652,1.0747038999999998,2.6438072,3.892608
6.257715,11.038591,0.38653907,1.0103011999999998,3.6131806000000006,3.9676745
4.995396599999999,12.880892,0.7648325,0.8261166999999999,4.044364,4.1097965
3.5886116,14.682796,1.2059593000000002,0.59081143,3.9416168,4.196557
1.7633869999999998,12.167093,2.0906842,0.36617008,3.4987218,4.246613
1.4831983999999998,8.359853999999999,2.783518,0.22244221,3.1000012999999997,4.2849402
2.0189824,8.950838000000001,2.5315043999999998,0.084578656,2.789141,4.2631063
4.077019,11.569999000000001,1.8468202,-0.07030186,2.5261722,4.1566410000000005
6.0760245,14.088948,0.8108204000000001,-0.25076889999999996,2.2796967,3.9948144
6.621213000000001,15.320372,0.17926826,-0.4221777,1.9853294999999997,3.7584617
6.3209605,15.375525,-0.12310985,-0.6154031,1.6127017,3.3970214999999997
4.8500013,14.917542999999998,-0.07944919,-0.79480547,1.1767185,2.987131
3.1498022,14.514339000000001,-0.047127467,-0.9449386999999999,0.6012659,2.5798933999999996
2.3586814,13.553873000000001,-0.047998954,-0.9795136999999999,-0.025778513,2.1311517
1.9505465,12.323578999999999,-0.022036232000000003,-0.84697336,-0.5011538,1.6685697
1.8545008,11.402376,-0.19211075,-0.54887116,-0.73111844,1.2139463
2.0008152,10.773448,-0.44210368,-0.16507325,-0.7556054,0.6896145
2.1038136,10.116019,-0.62709886,0.21872467,-0.52670544,0.092327915
2.194918,9.59553,-0.8959581,0.47582912,-0.028448867000000003,-0.6198885999999999
2.4400458,9.236275,-1.1953194999999999,0.60254,0.5900958000000001,-1.3305517
2.7154173999999998,9.168125999999999,-1.4647341999999999,0.78192496,0.8956506,-1.910769
2.4759972,8.946508,-1.6014527,1.0097603000000002,0.8770279000000001,-2.2243173
1.9490813000000002,8.651419,-1.6933422999999999,1.1572056999999998,0.594878,-2.4362004
1.7016262,8.289444,-1.4697813,1.1082317,0.08119272,-2.6933048
1.6003034999999999,7.896671,-0.9109363000000001,0.9235061,-0.73963565,-3.0095062
1.6284211000000002,7.8627977,-0.24208252,0.73614496,-1.7228493999999999,-3.3443300000000002
2.0645106,7.789382000000001,0.32882923,0.5498311,-2.655466,-3.703641
3.0665221000000003,7.6861820000000005,0.70021784,0.3385066,-3.4507604,-4.032618
4.414994200000001,9.291285,0.20620781,0.13409364,-3.9532754,-4.2551303
4.607354,10.782622,-0.5196279,0.019634955,-4.132678,-4.330720400000001
3.3058083,9.914686,-0.58656025,-0.022392575,-4.0480294,-4.290805000000001
1.454602,8.659445,-0.47577575,0.12290609,-3.5881002,-4.1460123
1.0851288000000001,9.857733,-0.84546924,0.43111378,-2.0102878,-3.8649445
1.6710284,12.1587715,-1.6180876,0.8143881,0.80834925,-3.4859285000000004
2.1290869999999997,13.527726999999999,-1.9399163000000001,1.5516676,3.9453516000000004,-3.0323875
2.4368472000000003,13.803904999999999,-1.7441664000000001,2.2218566,5.4821663,-2.4393768
2.8789797000000004,14.264721,-1.3882922,2.4795194,4.558066999999999,-1.8074979
3.281014,14.264520000000001,-0.97879755,2.3506967999999997,2.2121,-1.4237
3.4858809999999996,13.6370945,-0.21509507,1.9408061999999997,-0.40427062,-1.3481097
3.3576187999999996,12.650828,0.59283304,1.382388,-1.8660362000000001,-1.3332046
3.5644205,12.130730999999999,1.4696566999999998,0.70741683,-2.0794900000000003,-1.3465041000000002
4.2371626,11.847526,2.5480723,0.05318018,-1.4401758999999998,-1.3145646
5.641113,11.473359,3.2170026000000003,-0.51480234,-0.7710341,-1.2320628
7.027365,10.08296,3.4079642,-1.0151881999999999,-0.75080574,-1.0649127
6.498831,9.024704,2.6920884,-1.4713824,-1.2724847,-0.76201075
3.9733883999999997,9.852303,0.8058883000000001,-1.8126117,-2.1481687999999997,-0.24726079999999998
1.6038374,11.145622,-0.274998,-1.8919369,-2.7502375,0.5496042
1.3066882,11.051405,-0.3006447,-1.5714595,-3.2974504999999996,1.4311526
3.2895086000000004,9.896682,-0.07796478,-0.9896366,-3.1920502,2.2046127
5.814817,9.393908999999999,0.29397926,-0.5323603,-2.6671772000000002,2.853526
8.130939,8.377369,0.41416815,-0.2842967,-1.4524107,3.372011
8.769060000000001,7.6570306,0.6995474,-0.17624335,0.27656487,3.670637
8.196214,8.282999,0.773308,-0.12407546,1.8533127,3.8415220000000003
6.7931356,9.602971,0.70506364,-0.16505578,2.8413088,3.9857736000000004
5.730273,11.601937,0.8328278,-0.30826005,3.2932443999999994,4.132695
3.7481515,13.5290785,1.3923143999999998,-0.4849920999999999,3.0808551,4.3041043
2.453932,12.343958,2.6071134,-0.6287199,2.5751286,4.3961879999999995
1.6351345,10.093629,2.6416283,-0.70005155,2.1599321,4.418563
2.4467976,10.293985000000001,2.6808259999999997,-0.7500901,1.7404598000000002,4.401528400000001
4.22952,12.24094,2.4653192,-0.8038463,1.4290406999999998,4.28227
5.903900599999999,14.768988,2.0651715,-0.8661370999999999,1.2209101999999998,4.034224
6.728655000000001,16.723164,1.431656,-0.9049881,0.98562235,3.7062937999999996
5.8737144,17.054522,0.6030611,-0.8911476999999999,0.73275906,3.275128
4.2919707,16.292582,0.18103996,-0.8293978999999999,0.56721455,2.8093342999999997
2.4954095,14.967360999999999,-0.0977792,-0.7144156,0.46500808,2.3185303
1.4562396,13.650503,-0.3229012,-0.5611059,0.401129,1.8729826
1.3285617,12.257480000000001,-0.29292578,-0.33754668,0.3478965,1.4093183999999999
1.4111999,11.385166,-0.48638687,-0.06819001599999999,0.34257323,0.97387624
1.4046397,10.850186,-0.73142856,0.23630013,0.3255388,0.61563
1.9727935,10.588414,-1.070122,0.5365317,0.31648055,0.22329742
2.3111994,10.181448,-1.3276902,0.7409446,0.26698299999999997,-0.33403856
2.4099459999999997,9.515861,-1.3833984,0.8718966999999999,0.039147735,-0.99145174
2.3813975,8.894402000000001,-1.3374681000000002,0.9900728999999999,-0.5272291,-1.6025614
2.3231704,8.385835,-1.2017072,1.1220896,-1.0180331,-2.0656843
2.152914,8.025048,-0.984218,1.1742575000000002,-1.1921122,-2.3856032000000003
1.9882792,7.6812887000000005,-0.8521251,1.0060427,-1.2336336,-2.7145803
1.8051993999999998,7.7673936,-0.62319154,0.7047465,-1.2980361999999999,-3.0701737000000002
1.4974582,7.756735000000001,-0.27243143,0.43751913,-1.5849684,-3.4263082000000002
1.2060169,7.450756,0.053974885,0.23949409,-2.0635202,-3.7568736000000005
1.7748887999999998,8.060559,-0.06502652,0.0760789,-2.6267204,-4.0794625
2.5899517999999997,9.922338,-0.7826358,-0.026651177999999998,-3.1223242,-4.3264794
2.7746499,11.825977,-1.2752476000000001,-0.034644786000000004,-3.4960167,-4.4835067
2.2997456,10.847764,-1.1898991,0.041992623,-3.6237748,-4.4765778
1.7169683,8.718256,-0.24673685,0.1436755,-3.3916633000000003,-4.3679833
2.0904253,9.333086999999999,-0.36111265,0.28527406,-2.4670229999999997,-3.9777799
3.1505396,11.155621,-1.0013413,0.69195324,-0.35103807,-3.4901872000000003
3.5505150000000003,12.497829,-1.4512406999999998,1.3557892,2.617732,-3.0952017000000005
3.2912323,12.776475999999999,-1.5872408000000002,1.9796745999999998,4.4798064,-2.7065867999999997
3.4412627000000002,13.358495999999999,-1.2716945,2.3475027,4.25623,-2.2253819999999997
3.713196,13.979551,-0.7583394,2.43161,3.0712732999999997,-1.9682601999999998
3.6333256,13.870234,-0.030147787000000002,2.2761712000000003,1.6169603000000001,-1.8218793999999998
3.4364455,13.200422,0.92426723,1.9259009999999999,0.20575686,-1.6989034
3.427654,12.78792,1.8249084999999998,1.3137268,-0.76145226,-1.6611171000000002
4.221964,12.464281,2.6902783,0.5881585,-0.84716535,-1.5951087
4.407198999999999,12.239964,3.0573478,-0.25076889999999996,-0.46335,-1.4290233
6.4633775,12.01285,3.6439557000000002,-1.0567096,-0.2642603,-1.2006469
7.434312299999999,10.777346000000001,2.7837095,-1.8248464,-0.74228853,-0.925967
5.1689186,11.15447,1.3220781000000001,-2.4694839,-1.7329375,-0.541628
3.6744485,12.182512,0.21546859,-2.743099,-2.8316572,0.09608038
3.7447227999999995,10.516598,0.16467320000000002,-2.4950528,-3.97031,1.0287145
3.6106381,9.289627000000001,0.09755893,-1.7114523999999998,-4.5910015,1.8383901999999999
4.372157,8.556839,0.3349105,-1.0157118,-4.482948,2.645378
6.180325,7.9588149999999995,0.19992541,-0.508397,-3.4922817000000004,3.3826574999999997
7.742685300000001,7.421326,0.4360032999999999,0.005270894,-1.7047328999999998,3.8196877999999996
8.116545,7.3526797,0.4891737,0.5264262,0.07267551,4.1933804
7.203588000000001,8.423855999999999,0.18778203,0.88894856,1.6302771999999999,4.583583999999999
6.0220394,10.874827999999999,-0.48939398,1.0076483,2.8216214,4.835906
4.465262999999999,13.555089,-0.6279321,0.89373076,3.4497654000000004,4.981763
2.136959,13.024075,0.23386562,0.66854835,3.557295,4.997732599999999
0.38668275,11.093792,1.0954813,0.45402995,3.3661816,4.791714
0.8784421999999998,10.051960000000001,1.7847049,0.28687978,3.139411,4.387147
2.3942304,12.308428,2.2292507,-0.009093165,2.828533,3.7994597000000003
4.560628400000001,14.817704999999998,2.5065854,-0.44664719999999997,2.3611512,3.1447167
5.004207,15.573468,2.0470137999999998,-0.819275,1.7904984,2.5937512000000003
4.150741,15.622376999999998,1.3888764,-1.0444574,1.2060051,2.1524622000000004
3.5508022000000006,15.123291,0.9728694999999999,-1.1024721000000002,0.5933071999999999,1.7484185
3.3946908,14.221644,0.73346853,-1.0220822,0.03436553,1.3976247
2.3975728,12.839979,-0.031775843,-0.88688904,-0.37498400000000004,1.1644487
2.3657202999999996,11.633311,-0.3283983,-0.6787411,-0.6368881,0.9249023000000001
2.6298487,10.437053,-0.8599015,-0.39714968,-0.7300363000000001,0.6496988
2.9804077,10.2772255,-1.4193784999999999,-0.034103733,-0.67999774,0.33190927
2.9061203,10.1382475,-2.1367483,0.2730393,-0.4926192,-0.07583456
2.3337052000000003,9.276525999999999,-2.5969331,0.49183378,-0.27597147,-0.59698987
1.5512321000000002,8.435998,-2.528622,0.68184775,-0.27916542,-1.0713005
1.0021554,8.173172000000001,-2.3011725,0.91341805,-0.28768262,-1.4582924
0.77886254,8.481479,-1.8766136000000002,1.0741804,-0.19238764,-1.7510713
0.37874356,9.052419,-1.5081555,1.0683334999999998,-0.08752826,-2.1045352999999998
0.29147009999999995,9.473512,-0.9341888,0.88999575,-0.10882128,-2.486745
0.5714481,9.910272,-0.49828124,0.70102894,-0.32653365,-2.8119872000000004
0.7425473000000001,10.501831,-0.14482047,0.5551543000000001,-0.7337713,-3.0834906
1.0187998999999999,10.510928999999999,0.27547684,0.43593088,-1.2943013,-3.3363364
1.9125265999999999,11.780669999999999,0.26664704,0.33585370000000003,-1.9027580000000002,-3.5125275
2.4039414,13.497907000000001,-0.31472259999999996,0.26823965,-2.4861865,-3.605693
2.1905797000000002,11.892584,-0.16089036,0.23362978,-2.8902304,-3.6269862999999996
1.7791696,9.547234,0.31254867,0.28581512,-2.9615445,-3.5923762000000004
2.1816444,9.824406,0.12651919,0.44977134,-2.264198,-3.5311675000000005
3.225028,11.940057000000001,-0.5293484,0.8601854999999999,-0.4638736,-3.456642
3.571852,12.965043,-1.2416618000000001,1.4005046,2.4638987,-3.1446992999999996
3.1721258,12.735812,-1.132898,1.9791336,4.8002663,-2.7704659
3.0736380000000003,12.675488,-0.92806923,2.3299448,5.011608,-2.3509933999999997
2.9374557,12.2731,-0.5635568,2.4028647000000003,3.5168383000000003,-1.8026983
2.662678,11.46203,0.028778305,2.1840875,1.4168059,-1.5003374
2.5503612,10.548048,0.5372397,1.6751845,-0.50380677,-1.3151056
2.6841395,9.9689865,1.175055,1.0129716,-1.5104253,-1.2267395
3.251077,9.818659,1.9079009999999998,0.23790583,-1.6664054,-1.0899233
4.8802449999999995,10.103483,2.4761696,-0.4365242999999999,-1.3890551000000002,-0.92383766
7.1474776,10.165608,3.6672754000000003,-1.0795734,-1.1809072,-0.784892
7.335911,9.505794999999999,3.5754051,-1.6188278,-1.4305766000000002,-0.67736226
5.82448,9.781329,1.9540805,-2.128813,-2.2397287,-0.49532443
2.980829,10.385607,0.32650208,-2.3630188,-2.8822367,-0.071593404
1.2666955,10.31856,-0.17092685,-2.1665819,-3.2867866,0.65291023
1.664564,10.086474,-0.10175357,-1.4378371,-3.2234485,1.3742025
3.3001099999999997,9.742973,0.25275108,-0.72345644,-3.0515163,2.1242402
5.459268,9.022146000000001,0.6405255999999999,-0.30024898,-2.4371953,2.9270042999999997
6.6943507,8.220033,0.6447202,0.0063529983,-1.1282158000000002,3.5168035000000004
7.428202000000001,8.130517999999999,0.47300807,0.30869640000000004,0.5815961,3.8926252999999997
7.160157000000001,9.169381,0.062239666,0.49661598,2.1173463,4.2098913
6.548046,10.947593,-0.45078029999999997,0.46413540000000003,3.0382689999999997,4.429733000000001
5.631957,13.922904999999998,-0.63727903,0.30284953,3.1750855,4.594771400000001
4.1633444,14.405270000000002,0.6039709,0.14741051,2.9349979999999998,4.6240406
1.8065497,11.620287,1.6674179,0.06702064,2.5043554,4.5271573
1.2951576999999999,9.658009,2.8596823,-0.021327923999999998,2.112564,4.3381906
1.5940787,10.300239999999999,3.0218847,-0.15332717,1.7223607,4.040088
3.0675566,13.193335000000001,2.9858377000000003,-0.28482029999999997,1.3763492,3.6541436000000003
4.624678,14.841358999999999,2.3233237,-0.41203734,1.1533135,3.219766
4.8661957000000005,15.789349,1.3949193000000002,-0.5658880999999999,1.0095857,2.7513196
3.9306662000000006,16.066023,0.580479,-0.7170685,0.82007784,2.2376342
2.7038486,15.351229,0.10785399400000001,-0.7878590999999999,0.5405983,1.7500242
1.7116721999999998,13.711314999999999,-0.29313648,-0.73570865,0.20470966,1.328946
1.5004941,11.564416,-0.4563635999999999,-0.60369194,-0.08166396,0.93289596
1.8161456999999999,9.958395,-0.80814844,-0.3939557,-0.2988527,0.49106583
2.0890942,9.8751335,-1.3347962,-0.123534404,-0.45855036,0.05297074
2.1441991000000002,9.362592999999999,-1.7307491999999998,0.18414968,-0.5352051999999999,-0.41067597
2.2392106,8.129808,-1.7463689999999998,0.4045324,-0.48942524,-0.89828604
2.316984,7.095896700000001,-1.6965696,0.5764648,-0.42928118,-1.4881027
2.370834,7.030937,-2.1308875,0.72658056,-0.47558478,-2.0603437
2.2808506,7.319256299999999,-2.3197229999999998,0.8990540000000001,-0.46280897,-2.4830099999999997
1.8423764999999999,7.063057400000001,-1.9053631999999998,1.0134952,-0.38083085,-2.7374616
1.5591807,7.4824743,-1.4286298000000002,1.0028661,-0.33026865,-3.0275877
1.7978827000000002,8.041309,-1.1747774,0.885231,-0.3297276,-3.3219550000000004
1.9719506999999998,8.945715,-1.012642,0.7313801999999999,-0.4510978,-3.5556544999999997
1.9482194,9.683788999999999,-0.81932455,0.58604664,-0.6624397,-3.695124
2.3150592,9.868641,-0.53953815,0.45402995,-0.93764323,-3.739839
3.121091,11.2168255,-0.81012124,0.391233,-1.2767258,-3.7036235
3.6510617999999995,12.528656,-1.0880976999999998,0.39175659999999995,-1.6344659,-3.5455317
3.5277605000000003,11.627613,-0.8818132,0.4550946,-1.8931761000000003,-3.2964034
2.9433455000000004,10.136408,-0.14907257,0.65524894,-1.6291426000000002,-3.0009716
2.9807236,10.603556,-0.15444516,0.84103924,-0.63048273,-2.7704659
3.6092017,12.041666000000001,-0.5087295999999999,0.92034703,0.7498109000000001,-2.4856803
3.7497604,12.917887,-0.7699178000000001,0.9656034,1.558422,-2.2136533
3.4430535000000004,13.240175,-0.72267544,0.93364644,1.4849436000000003,-2.0358567
3.2035377,13.482755,-0.47898397,0.84795076,1.0122386,-1.8708359
2.7730026000000003,12.946933,0.122755505,0.6834709,0.3915646,-1.7196554
2.4332368,11.834164999999999,0.87804955,0.42421973,-0.3233397,-1.6733519000000001
2.0658226,10.78788,1.6647363000000002,0.0718203,-0.883346,-1.5493113
2.0364697,9.714914,2.3276906000000004,-0.3455054,-1.2160581,-1.3496981000000001
2.9739717999999997,9.381325,2.903726,-0.7165449,-1.2581031,-1.1069577
4.297994,8.93088,2.8379047,-0.9635265,-1.225099,-0.79182094
4.272328400000001,8.438402,2.4600039000000002,-1.0588214,-1.4641218,-0.3739368
3.912614,8.428289,1.624801,-0.9582031999999999,-2.3350062,0.20467477
3.573729,8.425798,1.0613688000000001,-0.8064992,-2.865726,0.83442444
3.1716852,8.713899000000001,1.1184943999999999,-0.6632949,-2.7459613999999997,1.4551159
3.5731832999999997,8.720344,1.1626244,-0.31834805,-2.0262575000000003,2.0321567
4.010259,8.659502,1.3645610000000001,0.11121238,-1.0866944,2.5304132000000004
4.141921,8.8788395,1.4982722,0.41198498,0.053529248,2.9307220000000003
4.6628327,9.305544,1.3217047,0.5152561,1.1623719,3.1649451
4.991221400000001,9.966209,1.2652782,0.4779933,2.1008527000000004,3.330507
4.2254596,11.119553999999999,1.166388,0.3683343,2.5639757999999997,3.4417543
2.691389,12.400778,1.336338,0.24270548,2.6315725,3.4907284
2.0071743000000004,14.447072,1.3130951000000002,0.1388933,2.4292889,3.5418315000000002
2.9107938,15.976384,1.6113455,0.04733333,2.1599498,3.567383
3.1836083,12.954537,2.2485385,-0.006946410500000001,1.8490542,3.5769474999999997
2.6208942000000004,9.781099000000001,2.345475,-0.025569074,1.4785731000000002,3.5844176
3.0225935,9.305525,1.9387957999999998,-0.025028022,1.2235805,3.5455666
4.140025,11.58331,1.2350153999999998,-0.04420919,1.1107274999999999,3.4007566
4.589646299999999,14.189101999999998,0.5876998999999999,-0.11234684,1.0713354,3.16121
4.0097513,15.197493,-0.021049822000000003,-0.20230111,1.0463074,2.8301036
3.1293845,14.822598000000001,-0.40571186,-0.30131364,1.0165146999999999,2.4596226000000003
2.3623874,13.916345999999999,-0.5036826,-0.41362557,0.9249546999999999,2.0577083
1.7331531000000002,12.2822075,-0.5333994000000001,-0.5216964,0.7231946,1.6382358
1.5704527,11.035411999999999,-0.54335934,-0.55789447,0.39795253,1.2384681999999998
1.1864611,10.213453999999999,-0.63177234,-0.5216964,-0.0028797933,0.83068943
0.92043644,8.855845,-0.629426,-0.39873790000000003,-0.4010592,0.4351804
1.5153382,7.7235894,-0.5183734,-0.21614157,-0.67202157,0.044977135999999994
2.2571194,7.308243300000001,-0.6789189999999999,-0.04314454,-0.8109498,-0.38138935
2.762947,7.4763927,-0.9888435999999999,0.07929031,-0.89238685,-0.8854928
2.9578542999999997,7.244691400000001,-1.0867281000000002,0.19212584,-0.9823586,-1.4971434
2.9187232999999995,7.144728999999999,-1.2140901000000002,0.33161256,-1.1308687,-2.0624557
2.848468,7.4170933,-1.3409158,0.524838,-1.0425026,-2.4558527000000003
2.4577918,7.906372,-1.4762933999999999,0.6477963999999999,-0.8056265,-2.6762528
2.0482588,8.442032000000001,-1.3894606000000003,0.5503895999999999,-0.62304765,-2.9232519
1.8814117,8.809561,-1.2392963,0.28900906,-0.6251595,-3.1665158
1.859155,8.953059,-0.88749224,0.04946263,-0.8274606,-3.3342072999999997
2.0912201,9.701171,-0.74570763,-0.08251916599999999,-1.1542909,-3.4023273
2.7208667,10.457068,-0.8191713,-0.12777555,-1.620608,-3.4087152
3.5391760000000003,11.976315,-1.2471875,-0.08998918,-2.1098237,-3.3943512000000005
3.9024910000000004,12.949423,-1.4091027,0.024452062000000004,-2.4797812,-3.3496358
3.7600365,11.540934,-0.88542366,0.22354177,-2.326489,-3.224548
3.0581807999999997,9.581882,0.08383536,0.56796503,-0.8663116,-3.0722857000000006
2.9396009999999997,9.8216,0.03793373,1.0172303,2.176984,-2.8657607999999994
3.4284394,11.639861,-0.77716744,1.6448506,5.3373914000000005,-2.599057
3.5403059999999997,13.193479,-1.2427918,2.3443263,6.4206650000000005,-2.2908494
3.0529710999999997,13.6932535,-0.9133401,2.7345295,5.4630203,-1.7899223999999998
2.6375005000000002,13.781313,-0.26230875,2.7031136,3.2607987,-1.2719611000000002
2.516105,13.208542999999999,0.6158845000000001,2.3517787,0.74661696,-1.0169859
2.565847,12.1371565,1.4433014,1.7853845000000002,-0.773146,-1.0877763999999999
2.9537169999999997,10.838886,2.2871810000000004,1.0433229,-1.1058581,-1.2549441000000001
3.9878685,10.080863,2.9149979999999998,0.24589944,-0.8434129000000001,-1.3289286
6.127883,9.698863000000001,3.8665686000000004,-0.5280843000000001,-0.56553906,-1.282084
7.702031599999999,8.429697,3.8404910000000005,-1.217978,-0.65976936,-1.2070173
6.784717,7.4643164,2.8343804,-1.7838486,-1.3714796999999999,-1.0744771
3.972699,7.5725822,0.8471451999999999,-2.171364,-2.4595528,-0.87271696
0.5677514,8.20492,0.18218918,-2.417316,-3.4299907999999997,-0.47668433
-1.104292,9.007867999999998,-0.11580275,-2.3252148999999998,-4.191216000000001,0.28825858
0.7369353,8.736174,0.20241539,-1.7551031000000004,-4.305134,1.1548843
4.2623878,8.539926,-0.029707255,-0.8719665000000001,-3.985215,1.9656073
6.3874807,8.077117,-0.040375818,-0.22785273,-3.0988843,2.8876123
6.827267,7.654914,-0.13678554,0.094719015,-1.4853973,3.4790172999999993
6.636947,7.671951299999999,-0.21840866,0.3220307,0.69392544,3.8074706
5.8701324,8.4961605,-0.35942712,0.44764206,2.6534066000000003,4.0118837
4.713331,10.209087,-0.5241291,0.32201326,3.8490095,4.1651936
4.412571400000001,13.202202999999999,-0.5580884,0.035639625,4.006578,4.2615356
3.7777822,15.403785999999998,-0.13283029999999998,-0.27309167,3.432731,4.367477
1.9958066000000003,14.293691,1.2807926,-0.45408230000000005,2.7119625,4.3892937000000005
1.4097443,10.680141,3.0573478,-0.52756065,2.024198,4.3035803
1.3009038,9.256155999999999,3.4500446000000005,-0.5797111,1.6212363,4.1369715
3.1678066000000005,12.238211,3.1818173,-0.6920405,1.432252,3.8282225
5.653141000000001,15.107902,2.4772133999999997,-0.84267986,1.3188756000000001,3.452401
6.567601700000001,16.208784,1.5787556999999999,-0.9544681999999999,1.2326388000000001,3.0409222000000002
5.671222,16.738869,0.47615886,-1.001854,1.1059278000000001,2.6475248
4.088568700000001,16.391758,-0.20792206,-0.9603325,0.9547648999999999,2.2908668999999997
2.12449,14.819639000000002,-0.70260245,-0.81234604,0.75513417,1.9390085
1.0872548999999998,12.681311,-0.58993125,-0.5839871999999999,0.60662407,1.5541284
1.2027513,10.823447999999999,-0.6289376,-0.31674236,0.47993064,1.1261388
1.4861958999999998,9.865921,-0.73603505,-0.039950587,0.3399203,0.7013431
2.0730817,9.752292,-0.8587139000000001,0.23099433,0.20790362,0.30316368
2.7419546,9.866649,-1.2694249,0.45989427,0.066305056,-0.1328021
2.744416,9.644457000000001,-1.4935893,0.60681605,-0.09922197,-0.63477623
2.5589322999999995,9.096559,-1.5541625,0.72021013,-0.43458697,-1.1628431000000001
1.9662046000000002,8.747503,-1.5091898000000001,0.8170933000000001,-0.9365786,-1.6467181
1.520433,8.487233999999999,-1.2662646,0.91556484,-1.2900426,-1.9719776999999998
1.1688876,8.41265,-0.9682535,0.9725149,-1.5125546,-2.2556984
1.1664168,8.542492,-0.79926115,0.8809549000000001,-1.6924807000000002,-2.6443133
1.1044165000000001,8.625608999999999,-0.65255404,0.6488785,-1.9054109000000001,-3.1436172000000004
0.81993747,8.694801,-0.5856218000000001,0.41359067,-2.209901,-3.672225
0.8942726000000001,8.626787,-0.43279505,0.24005258,-2.550048,-4.104997
1.3484718,9.142585,-0.6960135999999999,0.073426,-2.8364394,-4.4430323
1.9545017,10.98001,-1.2827941,-0.03141593,-3.0046542,-4.6309342000000004
2.2572246,12.062132,-1.5555511999999998,-0.0032114058000000003,-2.901383,-4.6186996
2.1539004,10.742084,-1.2352933000000001,0.11920599,-2.2295882999999996,-4.423327400000001
1.7136354,9.276593,-0.5391838000000001,0.48438123,-0.60173714,-3.962875
2.4168317000000004,10.083122999999999,-0.6381313,0.9959372,1.8857933,-3.427879
3.780885,11.945649000000001,-1.2995536,1.6661437,4.1407237,-2.863614
4.518769,12.836311,-1.5028691,2.1042562,4.394110700000001,-2.2620864
4.605726,13.115302999999999,-1.0900610000000002,2.2367966,2.9488559,-1.72072
4.58775,13.756863000000001,-0.7327598000000001,2.1340662999999997,1.2289038,-1.320935
4.231991000000001,14.260679000000001,-0.36082536,1.7923135,-0.14021975,-1.2256575
4.10551,14.009212,0.52405244,1.3164146,-1.0472848,-1.2597089
3.9720669,13.119738,1.7505157,0.7494793000000001,-1.468904,-1.3390341000000001
4.77264,11.968911,3.1189937999999997,0.13730505,-1.4965848999999998,-1.3502216
5.641151,10.6670685,4.304975499999999,-0.5195671,-1.3400812,-1.282084
6.599789599999999,9.334311999999999,4.382068599999999,-1.1269417,-1.3182472,-1.1782718
4.8890080000000005,8.957915,3.0494277000000003,-1.6092285,-1.7057799999999999,-1.0095159
2.4561925,9.777365,1.2292693000000001,-1.8961606,-2.5926342,-0.6943967
1.3434632,10.430473,0.60814637,-1.9675096,-3.698283,-0.16739453
1.81152,10.296916,0.6283343000000001,-1.7598678,-4.4557734,0.5938308000000001
3.7747080000000004,9.393851,0.7205494,-1.104584,-4.260942,1.4482044
5.1300464,8.974244,0.753551,-0.37583920000000004,-3.5135572,2.3004487
6.325691,8.465256,0.73095936,0.17191494,-2.3424412999999995,3.1117127
6.724585,7.720783,0.9071822,0.5754176,-0.77953386,3.7712724000000004
6.748670599999999,7.624699000000001,0.68116957,0.9012008,0.9249546999999999,4.229072599999999
6.3895307,8.5110235,0.24384464,1.1295596,2.5549352,4.5729546999999995
5.3603879999999995,9.951231,0.04109408,1.1136073,3.5439959,4.848699
3.8696907,12.069631,0.121654175,0.9054419,3.6424672999999994,5.033407
3.2077515,14.325878,0.7190171,0.6408849,3.2810269999999995,5.1159267
2.3102515,12.838121000000001,1.7853276000000002,0.4897045,2.8562312000000003,5.047265
2.2825265,11.109755999999999,2.8264222,0.3635521,2.4617693,4.847093599999999
2.5994902,11.402165,3.2680182,0.20811306,2.1040468,4.541015
3.3673297999999994,13.860876000000001,2.9329066000000004,0.0037000979999999998,1.8283197,4.102379
4.3804793,15.630556,2.2570045,-0.23317600000000002,1.6164367,3.6083809999999996
4.656693499999999,16.216034,1.5029361,-0.46048766,1.4295992,3.1441932
4.227653,16.040892000000003,0.94526917,-0.5935516,1.1565075,2.6986456000000003
2.9483924,15.433379,0.34488955,-0.6276204000000001,0.7923969,2.1700377
1.7833546000000002,14.229115,-0.062220514000000005,-0.5557652,0.43840924,1.592997
1.6895976000000001,12.168895,-0.26496149999999996,-0.41629595,0.19566886,1.1037811000000002
1.9499145,10.381967,-0.50193,-0.22465879,0.06843436,0.6167121
2.1782925,9.397059,-0.8642877,0.0005061455,0.037035886000000004,0.12964305
2.5398555,9.067609,-1.2509608,0.23684117,0.008290314,-0.38191295
2.8753214,8.536335000000001,-1.4040748,0.43860123,-0.0763407,-0.93181384
2.6989164,7.863065700000001,-1.4932348999999998,0.58712876,-0.32173398,-1.5572875
2.119089,7.383267999999999,-1.6012613000000002,0.70211107,-0.73535955,-2.2407932
1.7765647,7.367868400000001,-1.6893487,0.8069704000000001,-1.0031105,-2.81944
1.8750718000000002,7.594139599999999,-1.721613,0.8484918,-1.0547548999999998,-3.1723627999999997
1.9065794999999999,7.9842699999999995,-1.3885795,0.6733655,-1.0712482,-3.3991334
1.8656002,8.12275,-1.0337206,0.32522464,-1.0957351999999998,-3.6078050000000004
1.9768540000000001,8.487445,-0.83737683,0.006894050600000001,-1.2628853,-3.7509918
2.2252574000000003,8.834527,-0.79545915,-0.17301449,-1.6871574,-3.7627203000000002
2.505963,9.023602499999999,-0.7379025,-0.22146483,-2.3121076,-3.7089467000000003
2.8179369999999997,10.227186,-1.1578838,-0.183661,-2.916829,-3.5902295
3.3508098,11.806632,-1.5936860000000002,-0.119258344,-3.2857220000000003,-3.422032
3.8590412000000005,11.696135,-1.5286691000000001,-0.059096847,-3.1792569999999998,-3.2011085
3.527818,10.353017,-0.7194385,0.035639625,-2.2716507999999997,-2.8790603
2.9301293,10.177961999999999,-0.38396293,0.41092032,-0.15618952,-2.7103042999999998
3.1611984,11.6046,-0.82427573,0.8793667,2.6683116,-2.6666536
3.4040472999999998,13.258744,-1.1743081,1.2876691,4.448425299999999,-2.3318121
3.0527029999999997,14.1531315,-0.9375023000000001,1.5016638,4.2115316,-2.0347744999999997
2.3717919999999997,14.763279,0.0144897085,1.6427387999999998,2.9281040000000003,-1.8500664
2.2629707000000003,14.861787,1.0998197,1.5421206,1.4918725,-1.6552353
2.1539292000000003,14.048573000000001,1.9682828,1.1758806999999998,0.0050963615,-1.5594168
2.6941664,12.413256,2.7613093999999996,0.6951821,-0.94190186,-1.5306712
3.8938053,11.120301,3.2706711,0.104841925,-1.419389,-1.4396523
5.1919894,10.135422,3.5505150000000003,-0.49240974,-1.5354359,-1.2421507999999999
7.501944,9.052122,3.8351182999999995,-1.0556101,-1.8984817999999999,-1.0036690000000001
7.574105,7.994335700000001,2.821471,-1.4601773,-2.6378906000000004,-0.7236659000000001
4.5418773,8.149977999999999,1.2779098999999998,-1.6507498,-3.6093757000000006,-0.39681807
2.8498757,8.427264,0.37185782,-1.6645903999999998,-4.3397264,-0.049741883
2.1168575,8.210244,0.19812499,-1.4591302,-4.6224,0.47989574
2.4359853,8.290574000000001,0.067966595,-0.9038886,-4.362607499999999,1.157031
3.43974,8.761686,-0.14480132,-0.11180579,-3.6769898000000003,1.8506424
4.462179,8.59641,-0.21122605,0.5695533,-2.7241272999999997,2.5373422999999997
5.208691,8.130671000000001,-0.21950041,1.0587691000000001,-1.1590906,3.0292107999999995
5.4029755999999995,8.258904,-0.072458126,1.3808171999999999,1.0106504,3.3592527000000003
4.797894,8.847063,-0.061808713,1.5351917,3.1090946,3.597211
3.9871695,9.98429,-0.18136556,1.4441727,4.481953,3.7536972
3.9228226999999998,11.80123,-0.11482591,1.1300832,4.878003,3.8564446000000006
4.1756983,14.778459,-0.22156900000000002,0.74522066,4.429244000000001,3.9314937999999993
3.7145562000000005,15.045834,0.6263135999999999,0.49876273,3.5833879,3.9410756
2.8011009999999996,11.697821000000001,2.4543633,0.33587116,2.6512773,3.8835845
1.9661951000000002,9.153665,3.4420383,0.17243853,1.706932,3.7292101000000004
2.8273032000000002,10.259222,3.4176366000000002,0.016999507,1.142667,3.4976572999999997
4.938443,12.172897,3.0259645,-0.17833774,0.9819222,3.1750681
6.0167150000000005,13.978508999999999,2.1102111,-0.37477455,1.0729412,2.834921
5.7106023,14.859105,0.9299271000000001,-0.5467069,1.1048806999999998,2.5192432
4.522972599999999,14.897670999999999,0.024679432,-0.67872363,0.9680643,2.2067595
2.9160228,14.273052999999999,-0.72466743,-0.82938045,0.64653975,1.8224205000000002
1.6125523000000002,12.690169000000001,-0.9301761000000001,-1.0029185999999999,0.11794935,1.384849
0.980033,10.500624,-0.89529735,-1.0694678999999998,-0.6805388000000001,0.94621277
0.8967243,9.164171000000001,-1.1085824,-0.9560738999999999,-1.4321648,0.6071302
1.4034138999999999,8.326746,-1.2412020000000001,-0.6750060999999999,-1.9740721,0.1988279
2.2808602000000002,7.4683867,-1.1528177,-0.36199874,-2.0081583999999997,-0.33082715
3.0713298,6.6850038,-1.0770268,-0.10915289,-1.5402356000000001,-0.9967575000000001
2.9109279999999997,6.157513,-1.1047995000000002,0.039357174,-0.8971865,-1.6573646
2.4346445,5.7908273,-1.1703146,0.14315191,-0.3063053,-2.4042258
2.3680665000000003,6.197573,-1.3926593,0.26558676,0.09878564,-3.093596
2.4836109,7.3330755000000005,-1.7790546000000003,0.45350635,0.40540507,-3.5018809999999996
2.3415197999999995,9.150524,-1.9933165000000002,0.5557128,0.47938958,-3.6040873999999996
1.8216428,9.746566,-1.6398558999999997,0.5338961999999999,0.31703904,-3.6589080999999997
1.6801932000000002,9.308963,-0.9219113000000001,0.38856265,0.03275983,-3.6972532
2.56351,8.896192999999998,-0.37792954,0.26878070000000004,-0.45268604,-3.621122
4.0701046000000005,8.58802,0.005899313000000001,0.2006605,-1.084565,-3.4779177000000003
5.253769,8.983369999999999,0.021346702999999998,0.15166911,-1.6179551,-3.3166318
5.851744999999999,10.46678,-0.39431542,0.21554816,-1.9027580000000002,-3.093596
6.117607,11.632727000000001,-1.0857608,0.49237484,-1.6749052,-2.8934243
5.441369,10.800205,-0.8592023999999999,0.7372271,-0.11786208,-2.6576128
3.5786994,9.684958,-0.32934640000000004,1.0449111,2.3377464,-2.3648338
2.2526947999999996,10.195861,-0.28935364,1.4468081,4.0252004,-2.1636324
2.4529362,12.056788000000001,-0.7336887,1.7124647000000002,4.402628,-1.9011697
2.20664,13.663708999999999,-1.0223241,1.7710029999999999,3.6786654000000003,-1.5429235000000001
1.5211321000000002,14.164413,-0.58496094,1.6304691,1.9885409,-1.261332
1.4608268999999998,14.351448000000001,-0.034562696000000004,1.3584596000000002,0.30904546,-1.1016344
1.7530727,14.151657,0.7515783,0.9783618000000001,-0.90624475,-1.0963111
2.096794,12.833793,1.7386502000000001,0.5535835,-1.4555871,-1.1479378999999998
3.7448285000000006,11.313063,2.9563026000000003,0.04201007599999999,-1.5365181,-1.1836125
5.2211223,9.73945,3.4179910000000002,-0.5046619999999999,-1.3523333999999998,-1.1926533000000001
5.593267,8.354165,3.3843381,-1.0380695,-1.2612971000000002,-1.1106752
4.810095,7.711858,1.8245541,-1.4240141000000002,-1.391202,-0.9057386000000001
2.7191617000000003,7.6356554,0.7454395,-1.6528966,-1.8340793000000002,-0.55440384
0.9545587,7.679057000000001,0.55281156,-1.630539,-2.4984214,-0.086481065
0.44716024,7.515973599999999,0.61813504,-1.3292602,-3.1414877999999997,0.58421403
1.5230092,7.1451983,1.0411521000000001,-0.9539446,-3.1606343,1.3411982
3.1525314,6.9141865000000005,1.0673256000000002,-0.4924272,-2.563365,2.143945
4.5915713,7.078236599999999,1.0545117,0.009005899,-1.6653407999999998,2.853526
5.5135974999999995,7.297977,0.9214133,0.3922802,-0.6336941999999999,3.3970214999999997
5.825054,7.920986,0.79315114,0.5940228,0.59222513,3.6717013999999994
5.3757777,8.724059,0.7080420000000001,0.5833763000000001,1.9858705,3.7366626000000003
4.4304514,10.175521,0.72154534,0.36992255,3.1340877999999996,3.6323267999999995
3.3030982000000004,11.978632000000001,0.85943216,0.0744732,3.3225309999999997,3.5780122000000003
2.4043436000000002,13.994157000000001,1.1401093,-0.17037904,3.1873202000000003,3.4199202000000004
1.9196517,15.822331,1.7749366999999998,-0.2890789,2.8886945,3.3613646
2.052798,14.709535999999998,2.7123337000000003,-0.36786306,2.4303534,3.3304896
1.9970898999999998,11.459827,3.4510693999999997,-0.45996407,1.9640365000000002,3.4002156
2.1470627999999996,9.91708,3.0183318,-0.49403290000000005,1.6472939999999998,3.4241788
3.4323754,11.392197,1.9885283,-0.5068087,1.4327756999999999,3.3672112999999997
5.3236513,14.180426,1.0997716999999998,-0.508397,1.2400739,3.2517054
6.378843,16.641138,0.1884907,-0.5121319999999999,1.1037986000000002,3.089355
5.242191,17.187935,-0.30056807,-0.51160836,1.0239497,2.8700194
3.6909397000000004,16.059137,-0.84646523,-0.5174552,0.9600707,2.5740464
2.8008425,13.848341,-0.39608717,-0.5414186,0.831248,2.2205825
1.9686276000000003,11.887882000000001,-0.3074538,-0.55365336,0.5847726,1.7867458999999999
1.2862897,10.861075999999999,-0.35388216,-0.5382071999999999,0.26485372,1.3156292
0.9022597,9.91436,-0.3342976,-0.52117276,-0.11360348,0.7864977
1.1647695,8.592262,-0.26357287,-0.46474627,-0.512324,0.29356438
1.4928231,7.9397955,-0.41136214,-0.33061773,-0.8945335999999999,-0.14611897
1.7317452000000002,7.5518966,-0.49369398,-0.17037904,-1.1292803,-0.56133276
2.0266438,7.024310000000001,-0.5462610999999999,-0.03090978,-1.3512688,-1.1117573
2.3004447999999997,6.7505474,-0.62220514,0.12131783,-1.6887631,-1.7180672
2.4903432999999997,6.758697,-0.8342261000000001,0.31613147,-1.994859,-2.3526165
2.534904,6.918046,-1.1490061000000003,0.51309186,-2.031598,-2.7779357000000005
2.6423848,7.0490856,-1.3215516,0.6781302,-1.811739,-3.1510873
2.8123633999999997,7.410696000000001,-1.5139973999999998,0.6568371999999999,-1.4305940000000001,-3.5881352
2.9075952000000003,7.9537773000000005,-1.6041534,0.45560074,-1.0393261,-4.0741568
2.6065099999999997,8.232816999999999,-1.3120896,0.18784979,-0.8061676,-4.4473085
2.4874224999999996,8.39819,-1.0615028,-0.00057595863,-0.7625168999999999,-4.6463980000000005
3.0173933999999996,9.351599,-0.9882403000000001,-0.08520697,-0.9440485999999999,-4.679926
3.6167578999999996,11.189876,-1.3914908000000001,0.03932227,-1.3198703999999999,-4.5543146
3.9179292,11.565996,-1.2348143,0.29644418,-1.6722698,-4.164111
3.945721,10.443776,-0.6429389,0.61796874,-1.6099789,-3.5647127999999997
3.6650534,8.782764,0.2645114,1.0092367,-0.44685665,-2.8838599
4.059723399999999,8.944279,0.44795513,1.4920471000000002,1.9342263,-2.2679682
5.0156035,10.859246,-0.32040164,1.9248363999999998,3.800559,-1.7718407999999999
5.511213,12.6218195,-1.1059297,2.1590595,3.880408,-1.3124353000000002
5.0291834,13.799307,-1.2614379,2.1164560000000003,2.7816882,-1.0649127
4.2464037,15.057297,-0.8618167999999999,1.8556166,1.3353513000000001,-0.9744348
3.4001017,15.187216000000001,0.054626107,1.5319628,0.029024825,-1.0649127
2.3740041,14.135060000000001,1.7260852999999998,1.1194191999999998,-0.83013093,-1.2214163999999998
1.6662016,12.404675,3.4086156,0.5876349000000001,-1.2006295,-1.3795256999999999
2.4307084,10.66637,4.761234,-0.035709437000000004,-1.2479976000000002,-1.4050773
4.1395936,9.489332000000001,5.422771,-0.6084916,-1.1665606000000002,-1.3651441
5.0618215,8.726511,4.1922855000000006,-1.1887263000000001,-1.226181,-1.2943361999999998
4.209696299999999,8.851124,1.9742970000000002,-1.6784656999999998,-1.7366723999999998,-1.1021755
3.0322852000000005,10.140326,0.5451214,-1.9595334999999998,-2.7912178,-0.7412588000000001
2.6615767000000004,10.318761,0.2819316,-1.9749796000000002,-3.9298705999999997,-0.24940754
2.8521360000000002,9.003060000000001,0.5168028,-1.7285043000000002,-4.612294,0.587408
3.8253212,7.928332000000001,0.52884084,-0.9789901,-4.18591,1.5562403
4.849235500000001,7.656378999999999,0.5106258,-0.18263125,-3.2043022999999997,2.386127
5.8026066,7.251089,0.47689623,0.41407937,-1.8931935000000002,3.1830093999999995
6.0032406,6.863601700000001,0.6891086999999999,0.7739313,-0.2807711,3.7760198
6.191415,7.410589999999999,0.5598409000000001,1.0305122,1.4370341999999998,4.1683525999999995
5.6629,8.728589,0.22853135,1.1492295,2.910511,4.4318624
4.4455347000000005,11.008664,-0.007192181999999999,0.9826029000000001,3.6823654,4.566008
3.3790227999999995,14.362175,-0.07571423,0.62433916,3.6243508,4.6064476999999995
2.7690377,17.15503,0.3249985,0.27567476,3.0430512000000003,4.6155057
2.2037477,14.776801999999998,1.9716538000000001,0.12503539,2.3425112,4.5255513
1.7889858,10.529661,3.5868589999999996,0.072326444,1.6861452000000001,4.349343
1.6223876,8.921945,3.9791152000000003,-0.0021816615,1.0958048999999999,4.068275
2.9009007999999996,11.06603,3.5676382000000006,-0.08361872,0.76096356,3.7025763999999994
4.2941732,13.292062,2.3947762999999997,-0.20020671,0.67687356,3.237324
4.8093,14.610854999999999,1.2012668,-0.33967596,0.7535109999999999,2.7805886
4.6060133,15.7674465,-0.042798746,-0.45039967,0.84667665,2.3446054
3.5870983999999995,16.099464,-0.90999776,-0.5142787,0.81739,1.8931935000000002
2.0586975,14.649085999999999,-1.1927146999999998,-0.5009793,0.6960198000000001,1.4290056999999998
1.4097443,12.516427,-1.0804745,-0.42484805,0.4783075,0.96853554
1.472415,10.514089,-0.9206280000000001,-0.30134854,0.19404571,0.57035613
1.6168427,9.043292,-1.1126334999999998,-0.13950416,-0.083269656,0.17910568
1.9720848999999998,8.249471,-1.168131,0.045186576,-0.28663543,-0.24406683
2.5743032,7.878982499999999,-1.0931158,0.17133898,-0.42343432,-0.7013431
2.9034388,7.379044500000001,-1.2185528,0.22031291,-0.5448045,-1.3246875
2.7013586,6.8473496,-1.2078556,0.17027432,-0.73431236,-2.0252452
2.4455142000000003,6.687292599999999,-1.1103158000000002,0.14845770000000003,-1.0020632999999999,-2.6219732999999996
2.2277663,6.937496,-1.1633905,0.24106488,-1.0936408000000002,-2.9307220000000003
2.1501944,7.650394,-1.0805128000000002,0.36882296,-1.0856471,-3.1585572
1.9256468999999998,8.598488,-0.9223326999999999,0.42472586,-1.0883174999999998,-3.4114206
1.7629848000000001,8.723331,-0.64827317,0.38213983,-1.1229098999999998,-3.6711953
1.8026901000000002,8.543077,-0.47308469999999997,0.29803243,-1.1553905,-3.8159878
2.2163508,9.016669,-0.55774367,0.19530234,-1.0819296,-3.9043365
3.0731206,9.896787,-0.9920230999999999,0.14418165,-0.8876395,-3.922453
4.162013,11.947507,-1.7035703999999998,0.20006709,-0.7886270000000001,-3.8537917
4.6132727,13.162564000000001,-2.0950509999999998,0.44549528,-0.7662519,-3.6813008999999997
3.8409796000000003,11.549485,-1.2873335,0.7882954000000001,-0.36381388,-3.3645758999999997
2.8729174,10.194626,-0.30487767,1.1316540000000002,0.8056789000000001,-2.9679847
2.8383741000000002,10.812484,-0.18967824,1.4499847,2.2296581,-2.5660877
3.4029555,12.240078,-0.48609954,1.6613265,2.9530797000000004,-2.2003715
3.5819461,12.905159,-0.5204229,1.6937897000000002,2.5937686,-1.9379438000000002
3.569774,13.774014000000001,-0.29350040000000005,1.6112705,1.7452419999999997,-1.5855443
3.5998259,14.305479,-0.16172354,1.3898231,0.44317399999999996,-1.4386226
3.4878730000000004,13.925673000000002,0.31617829999999997,1.0241243,-0.77956873,-1.4316936000000002
3.0681026,12.797171,1.1184082,0.55194294,-1.4513633999999997,-1.3768728000000001
3.0227180000000002,11.130308,2.1815968,-0.022410028,-1.6153197,-1.3076531
3.2833412,9.750117999999999,2.9893332000000004,-0.5728345,-1.4337879999999998,-1.1788303
4.2267237,8.661303,3.160212,-1.0354166,-1.193718,-1.0234087
4.063343,8.534017,2.3433678,-1.4171026000000002,-1.2421507999999999,-0.78119195
3.4323945,8.608323,1.0721618999999998,-1.6183216999999999,-1.5817745,-0.41016984
2.8527009999999997,8.409413,0.47721228,-1.7013644,-3.080803,0.15196581
2.3318279,8.651927,0.38821504,-1.5959815,-3.7744315000000004,0.8279841999999998
2.9637822999999996,8.153856,0.6403532,-1.1637157,-3.7020353999999998,1.6392654999999998
3.6398568,7.999966000000001,0.87493706,-0.44987607,-3.2612697999999996,2.4286953999999996
4.804751,8.076179,0.97479445,0.19315559,-2.5495419999999998,3.1973908
5.716789,7.942122500000001,0.82059824,0.55513686,-1.4321997,3.678613
6.133648,8.196117999999998,0.71724534,0.8207760000000001,0.22225022,3.947446
6.031674,9.062408,0.59836847,0.95012236,1.9097218999999996,4.0240836
4.775446,10.641862,0.53623414,0.91924745,3.326231,3.9926673999999998
3.0057766,13.181220000000001,0.70449865,0.72921604,3.979403,3.8846142
2.4939442,16.281605,0.467329,0.44441320000000006,4.0661807,3.77869
2.2688222000000002,15.817398,1.4271549,0.2128429,3.8180997000000003,3.6461324999999998
1.5816863,11.631501,2.6395595000000003,0.05050983,3.4800818,3.4789996
0.8074014,9.392223,2.8594717999999997,-0.105993845,2.9972713,3.3006620000000004
2.1789438999999997,10.7222595,2.3796735,-0.27686158,2.4841096,3.1042252
4.392479,13.260612,1.7402781999999999,-0.47223374,2.0358918000000004,2.8630904999999998
5.391177,14.666151000000001,0.98617166,-0.6628062,1.6084256000000001,2.6107682999999997
5.728415,14.868203,0.29578924,-0.82250386,1.1506257,2.3887799
5.149966200000001,14.533197,-0.31056625,-0.93800974,0.6571688,2.1694791
4.1907916,13.762723999999999,-0.68998975,-1.0066885,0.10088003,1.9315209
3.1032686000000003,12.365783,-0.9057457,-1.0003004999999998,-0.5346991,1.7260433000000002
2.7818036,10.890017,-0.88768375,-0.87093675,-1.1724249,1.5168482
2.2867785,9.654599000000001,-1.0845254999999998,-0.63671356,-1.6584293,1.2831486
1.8375306,9.092355,-1.2126919,-0.33808774,-1.9128983,0.9525658000000001
1.861262,8.860682,-1.3876123,-0.046896997999999995,-1.9224801,0.43781585
2.0217883999999997,8.669039999999999,-1.5171576999999998,0.13727015,-1.6956921000000003,-0.28612927
1.8533898999999998,8.338697999999999,-1.5156828000000002,0.21177825,-1.3896137,-1.1410613
1.505522,8.134808,-1.447745,0.27459264,-1.1878711000000002,-1.9198447
1.3933871,7.8660635999999995,-1.3672328,0.43430772,-0.9046565000000001,-2.564482
1.1316721,7.861217999999999,-1.2955695,0.59081143,-0.56077427,-2.9514914
0.7064428,8.119916,-1.102185,0.60517544,-0.22701497,-3.3539293
0.65088767,8.443985000000001,-0.78567165,0.47368234,0.024748769,-3.7978888
0.8936023000000001,8.839172999999999,-0.4490948,0.27248082,0.08597492,-4.123131
1.7398089,8.841814999999999,-0.24252306,0.10906562,-0.09126326400000001,-4.257276999999999
3.2463365,9.275807,-0.19377711,-0.016022123,-0.41332890000000005,-4.2902985000000005
4.849666,10.882174000000001,-0.6331034999999999,-0.054349552999999995,-0.8349306000000001,-4.2136264
5.755344999999999,11.998494,-1.0786357,-0.012304571,-1.5051371,-3.978356
5.422148,10.693348,-0.85079396,0.10958923,-2.019346,-3.6525552
4.2280545,8.656447,0.07104076,0.37255797,-2.0411799999999998,-3.2304125
3.9480002,8.554205,0.15799816,0.8431335999999999,-0.89029247,-2.7667658
4.756197,10.26784,-0.45403640000000006,1.3413903,1.9166508000000002,-2.3366467999999996
5.0582967000000005,11.759764,-0.9067129,1.8146362,4.361089,-1.9810535
4.0557300000000005,12.501296,-1.0800243999999999,2.1510484,5.0083795,-1.5951262
3.3230755,13.098668,-0.8708382,2.2708304,4.195526999999999,-1.2001407
2.8382017999999998,13.191199,-0.42837057,2.1627595,2.7380202000000002,-0.9254608
2.1937017000000005,12.551583,0.37135983,1.8396293999999997,1.1053693000000002,-0.8078255999999999
1.368267,11.580361,1.3802382,1.3829117,-0.23340288,-0.8099375
1.4405912,10.489476,2.26638,0.81012946,-0.91319114,-0.9084264000000001
2.385573,9.750760000000001,3.2764173,0.11756538,-1.1042873,-0.92811376
4.6617117,9.625113,4.167606,-0.6798406,-1.1511319,-0.87381655
6.446301999999999,8.946519,3.7969644000000002,-1.3628055000000001,-1.4188828000000002,-0.75084066
5.7568865,8.956028,2.4307084,-1.9009951,-2.2493105,-0.6401344
3.7033894,9.619414,0.6810929,-2.2624353999999998,-3.5082687999999993,-0.45380306
2.2930226,9.8333025,0.21467371,-2.3193855,-4.5037174,0.13493139999999998
1.9576620999999998,9.150677,0.30812418,-1.9073831,-4.801296,0.93713707
2.4170808999999998,8.674413000000001,0.3290112,-1.2057781,-4.442491,1.641936
3.5729629999999997,8.153521000000001,0.5163814,-0.50630254,-3.4896288,2.343541
5.4167757000000005,8.026427,0.44062890000000005,-0.08841838,-1.970372,2.9322927000000005
5.5680127,7.9907246,0.30963734,0.33210126,0.083845615,3.4092562000000006
5.700642,8.333699000000001,0.2089755,0.6626666,1.915045,3.7472741999999997
5.104304,9.54301,-0.20290379999999997,0.7851015,3.2602227000000004,4.073057
4.4476895,12.043687,-0.8412267,0.67811275,3.7595440000000004,4.2726707
3.816003,14.894645,-0.7369640000000001,0.45933574,3.7233632000000005,4.3355026
2.3691487,13.805512,0.5026483,0.25544637,3.3108022000000004,4.316339
1.7616343,11.296514,2.0326772,0.07021459,2.6789408,4.1992273
2.1087265,10.881455,2.9104683,-0.07086037,2.0997708,3.9777799
3.3718690000000002,12.947047999999999,2.9750542999999996,-0.25769785,1.5578635,3.672225
4.4454103,14.286392999999999,3.009818,-0.44720572,1.1335913,3.3075736000000004
4.629974,14.177686999999999,2.2980027,-0.64948934,0.82590723,2.8923771
4.094851,14.098621,1.4025233,-0.8049284000000001,0.601807,2.488857
3.0706594,13.986237,0.6020076,-0.94174474,0.29038787,2.0443566000000004
2.4148683999999996,13.17443,0.020523096,-1.0034945,-0.16259487,1.6153197
1.8867555,11.838561,-0.36676297,-0.9640850000000001,-0.7156897,1.2166166
1.7927111,10.189952,-0.5849035,-0.79056436,-1.1953062,0.8226783999999999
1.8471555,9.06371,-1.0326288000000001,-0.5009793,-1.4449755,0.37713075
2.2931185000000003,8.360130999999999,-1.2709476,-0.1762608,-1.3928076,-0.10513864
2.435066,8.115166,-1.5035778,0.10800097,-1.0883174999999998,-0.6672743
2.5956306000000002,7.675447,-1.5318294,0.30389673,-0.6810798,-1.356627
2.4998436,7.3205686000000005,-1.7204542,0.45505969999999996,-0.354232,-2.080066
2.3791277,7.2779326,-1.8899443999999999,0.64830256,-0.10564478,-2.6666884
2.1280718,7.334608599999999,-2.0286453,0.8788082,0.19244,-3.0313227000000005
1.653541,7.4668064,-1.8186643,1.0321004,0.44795619999999997,-3.3214487999999998
1.3435589,7.783492,-1.4981669,0.92671746,0.5986130000000001,-3.5785708
1.5880836,8.310637,-1.084832,0.6674663000000001,0.57199675,-3.6972706
2.2236004,9.030402,-0.6513760999999999,0.4694412,0.305293,-3.6584196
3.0210993,9.3376255,-0.30678340000000004,0.38159879999999996,-0.11522663400000001,-3.5428962999999998
4.097072600000001,10.059229,-0.24069388,0.36775833,-0.75454074,-3.4092913
5.072241,12.02121,-0.65567607,0.42259657,-1.4939495,-3.1564278999999997
5.2420086999999995,12.119986,-0.95559293,0.56580085,-2.0917423,-2.8508732000000006
4.4831614,10.257363,-0.30520326,0.75850266,-2.051809,-2.5192256
3.6416574,9.596286,0.14155477,1.0070899,-1.0105979999999999,-2.2381577
3.784668,10.785343,-0.12259269999999999,1.2498302,1.1788478,-2.1120055
3.9393620000000005,12.454983,-1.0696336000000002,1.4313445,3.122359,-1.8820409
3.3901036,13.232848,-0.9002389999999999,1.5122754999999999,3.8095999,-1.6802983
2.3947475,13.287044,-0.48306373,1.4867238,3.4976572999999997,-1.4870553999999998
1.8501625,13.084676,-0.02759078,1.3334141000000002,2.4542994,-1.3736614
1.4897394,12.219975999999999,0.7029376,1.0624517,1.0122210999999999,-1.2959593999999999
1.0223719999999998,11.109316999999999,1.8016941999999998,0.6999294,-0.2046573,-1.2842481000000001
1.6785078000000002,9.735763,2.8814599999999997,0.17505652,-1.059572,-1.2027936000000001
2.592767,8.714932000000001,3.4821269999999998,-0.43762386,-1.4343290000000002,-1.0872878000000001
4.818867,8.57446,3.8986413,-1.0157293,-1.3768378000000001,-0.9504714
6.2174354,8.204978,3.042494,-1.4383956,-1.302836,-0.76522213
5.420616000000001,7.895761,1.8633113999999997,-1.6327032,-1.8090861,-0.45221480000000003
4.2091985,8.048204,0.87982124,-1.6273625,-3.0030832000000003,0.01675516
3.239786,8.333728,0.6158749,-1.4926928,-3.9846913999999996,0.675233
2.4811878,8.294329,0.8027758,-1.1179358,-4.0586934,1.4087774
2.499604,8.218289,1.0955771,-0.52705455,-3.3725169999999998,2.0507619999999998
3.0062938,8.071323,1.2211291000000002,-0.047438048,-2.2152417,2.5341134
3.9025583,8.492138,1.0675458,0.22883011,-0.5863259,2.863614
4.9641566,9.151136,0.831918,0.39969784,1.3230991,3.0973136
5.532205,10.087460499999999,0.5021407,0.49766317,2.784341,3.2846922999999997
4.6742864,11.147796000000001,0.38002685,0.47689375,3.4481422999999993,3.4518422999999996
3.1118205000000003,12.609456,0.62512606,0.37042868,3.4076855000000004,3.6126046
1.625481,15.358469,0.83518374,0.31614894,3.0084589,3.7233457999999997
1.7952012,15.080855999999999,1.8332977,0.30017918,2.458558,3.7600675000000003
1.97717,10.884635000000001,2.9009970000000003,0.2682222,1.8170971999999999,3.7249167
2.2193099999999997,10.678552,2.5558294999999998,0.1984963,1.2102462,3.580665
3.9530091,12.718353,1.8294669,0.08724901,0.8967153,3.3485712999999997
5.2934556,15.058791000000001,0.8488306999999999,-0.080965824,0.7721511,3.0238528
5.092314,15.363774,0.21510465,-0.24918066,0.6906966,2.6815588
3.5817832999999997,14.486279999999999,-0.3824785,-0.39929643,0.55922097,2.3099957000000004
2.0907798,13.370648999999998,-0.7375578,-0.5041558,0.41069344,1.9325856
0.9823601000000001,11.868699000000001,-0.69912606,-0.5935865,0.16742943,1.4944905000000002
0.70131916,9.723714999999999,-0.3927257,-0.62233204,-0.22115067,1.0473371999999999
0.88303906,8.2228,-0.51828724,-0.5510179000000001,-0.6991789,0.55918604
1.0876571000000002,7.559538400000001,-0.8730696,-0.39397317,-1.0244385,0.073705256
1.7117393,7.1361574999999995,-1.1195,-0.18688986,-1.1543084,-0.47776642
2.496099,7.1186795,-1.6786994,-0.0037699111,-1.0915115,-1.0590658000000002
2.7593653,7.298628,-2.0475693,0.13035864,-0.8886867,-1.71702
2.5414833999999997,6.9985003,-2.1488152,0.26663396,-0.71567225,-2.3504872000000003
2.413767,6.7062836,-2.0453954,0.47263515,-0.46069709999999997,-2.8173453999999998
2.5082326,6.600651299999999,-1.9107453999999997,0.70259976,-0.013002703000000001,-3.0451632
2.4315224,7.4753103,-1.8860946,0.8399397,0.43413320000000005,-3.1931496
2.1914606,8.219074,-1.7578037,0.78138393,0.8450884,-3.2948324999999996
2.3191482999999997,8.505162,-1.4279593000000002,0.6318092,1.0526954,-3.2942915
2.8415630000000003,9.1798,-1.1660528000000001,0.5269498,0.9978570999999999,-3.1974082000000004
3.4342620000000004,10.11487,-0.9851757,0.48966956,0.7316944000000001,-3.10426
4.1559606,10.98748,-0.97775364,0.48115236,0.14561282,-3.033452
4.784822,13.187349,-1.1767693000000001,0.5061804,-0.66245717,-2.867384
4.810535,12.829426,-0.8549120000000001,0.55676,-1.2698318000000002,-2.6123915
4.145541000000001,10.493967999999999,0.22453779999999998,0.60039324,-1.2868662,-2.3440993
3.417129,9.779529,0.7381994000000001,0.6573608,-0.781157,-2.1641734
3.4684706,10.778897,0.46653414,0.72602206,0.12112585,-2.0183163
3.480288,12.53945,-0.40286753,0.7648731,1.0510896,-1.8735237
2.9483829,13.425802,-0.52795017,0.7606145000000001,1.586609,-1.698921
2.2362704,13.175206,-0.29920816,0.7100523,1.6196131999999999,-1.6031023000000002
2.0295648999999996,12.476597,0.18394172,0.59082884,1.3593148000000002,-1.470021
1.5859097,11.275331,0.9019724,0.39386845,0.84028876,-1.3252285
0.9933351,9.970595,1.7936113999999999,0.112259574,0.20256291,-1.169772
1.3664571,8.691891,2.3056834,-0.17570229,-0.25893706,-0.94993037
2.3011916,7.9239936,2.612189,-0.46422267,-0.55703926,-0.6917438
3.3169748999999995,7.448189,2.4610767000000005,-0.7426376,-0.70715505,-0.37821284
4.0309067,7.4377027,2.0527408,-0.9454449,-1.0318736,0.0673348
4.3054643,7.3282204,1.6273102,-0.9422509,-1.5902916,0.50488883
4.0235615,7.560161,1.4437706,-0.82302743,-2.1460395,0.9786584999999999
3.7956907999999996,7.938339699999999,1.3731226,-0.73412037,-2.4755402,1.4742621
3.38045,8.448621000000001,1.3616973999999997,-0.50309116,-2.1731791,1.9767773000000002
3.3885136,8.718399,1.2296045,-0.18743089999999998,-1.40876,2.352058
3.3886477999999998,8.9398155,1.1307623,0.05050983,-0.5192529,2.6150267000000005
3.4713147000000006,9.260849,1.1300344,0.1553692,0.4532969,2.7417202
3.7415147000000006,9.793521,1.0716735000000002,0.19317304,1.2501792999999999,2.8822541
3.5305760000000004,10.875843,0.9714617,0.24534093,1.7952806000000001,3.0297169999999998
2.6392912999999996,11.754323,1.047923,0.32306045,2.0976415,3.2032552000000005
1.816366,12.580696000000001,1.1848233999999997,0.41303217,2.2158177,3.3161082000000004
2.1010845000000002,15.111789000000002,1.2610451999999999,0.48115236,2.1466152999999997,3.3996744
2.5550442,13.263217000000001,1.4510201999999999,0.49233994,2.0007582,3.4758058
2.4779031000000002,11.234245,1.5665357,0.464659,1.7835695,3.4678120000000003
2.9314127,11.9190445,1.0167983,0.38161623,1.5488226,3.3932865
3.8533912000000003,14.395645000000002,0.01805228,0.2613107,1.2624315000000002,3.2250717
4.0454154,16.363947,-0.6316383000000001,0.12397074,0.9957278,2.9929779
2.9244885,15.920713000000001,-0.68991315,-0.022392575,0.7295651,2.666671
2.107702,14.233270999999998,-0.41236773,-0.181043,0.48204250000000004,2.2988255
1.4758817,12.423656,-0.101705685,-0.34285247,0.19936895,1.8452842
1.3746166000000002,10.537446000000001,0.057183113,-0.45572293,-0.07796386,1.3773615
1.163764,9.169841,-0.21161869,-0.52331954,-0.35262632,0.8652818999999999
1.0353487,8.624853,-0.67582566,-0.5419421999999999,-0.5953666999999999,0.31379274
1.219185,7.7230815999999995,-0.94650453,-0.49403290000000005,-0.7619933000000001,-0.31539845
1.4527345,6.8596754,-1.2301216999999998,-0.3854385,-0.8210726999999999,-0.90041536
1.9038501,6.3705682999999995,-1.3711209,-0.2401224,-0.7614696999999999,-1.473215
2.2261286,6.0020050000000005,-1.5671487,-0.1081057,-0.5767439999999999,-2.0470617
2.4032419999999997,5.8676233,-1.6859012,0.036669366,-0.38830084,-2.651766
2.4081647,5.973246,-1.8616641999999999,0.18198548,-0.19401079999999998,-3.0355814
2.6962062999999996,6.147544,-2.0478085999999998,0.36884043,0.092903875,-3.1665335
2.8321009999999998,6.498965,-2.0400226000000004,0.41196752,0.36280158,-3.1537576
3.05096,7.247967,-1.9104868000000002,0.28740337,0.5911605,-3.0552688
3.4769362999999998,8.064283999999999,-1.8566747,0.1511106,0.5789257,-2.9110172000000003
3.9768648,9.155791,-1.6383905,0.12025318,0.25633649999999997,-2.7688775000000003
4.1920366,10.106816,-1.27542,0.11651818,-0.2807711,-2.6704060000000003
4.4348279999999995,10.449254,-0.9606399,0.087231554,-0.97918206,-2.5777813999999997
4.8265767,11.542580000000001,-0.8204259,0.048921578,-1.588686,-2.3696334
5.0474463,11.920855,-0.5835435999999999,0.01802925,-1.9293741999999998,-2.1189169999999997
4.154141,10.7956085,0.19592232,0.020176006,-1.7638296999999998,-1.8442371
2.9663392999999996,10.476442,0.7793031,0.038798667,-1.2394805,-1.6323715
2.748898,11.619176,0.4570531,0.060091686,-0.6475346,-1.4859908000000002
2.7794096,13.099586500000001,0.09372821,0.083531454,-0.09072221,-1.395478
2.4050328999999997,13.496412,0.19103815,0.10693632,0.34735543,-1.3417219
2.2448992999999997,13.377334,0.3503196,0.11386528,0.5895722,-1.3198878
2.2742138,13.115159,0.64315915,0.098419115,0.66835636,-1.2970065
2.0659375,12.086965,1.2646747999999999,0.05742133,0.66835636,-1.2757136
2.0115507,10.337291,1.7663080000000002,-0.018675024,0.6747443000000001,-1.2379097
2.3736498,8.561233999999999,1.984573,-0.13311626,0.7029488,-1.1548669
2.9225828999999997,7.460754,1.9813551,-0.26726228,0.7066838000000001,-1.0090272
3.6818513999999998,6.9921703,1.6337648999999999,-0.4051433,0.6640978,-0.7625518
4.239882499999999,6.725025,1.4469597,-0.48125708,0.56028557,-0.42186353
4.561194,6.560113,1.5068721999999999,-0.424307,0.29785788,0.02953097
4.574754,6.5766134,1.5977561000000002,-0.26141542,-0.07049385,0.48307222
4.468776999999999,6.6780515,1.5505425,-0.14163347,-0.39308307,0.97600555
4.3977556,7.060117699999999,1.3740228,-0.101717785,-0.36487854,1.4433873
4.510216000000001,7.619536999999999,1.150184,0.06647959,0.02157227,1.8979932000000002
4.6418686,8.2531,1.1028268,0.28366837,0.53473395,2.2136533
4.648764,9.162035000000001,1.0556419,0.37522835,1.180977,2.3856032000000003
4.444203400000001,10.224706,1.0451648,0.29485592,1.8895109,2.4457647999999996
4.0035076,10.99042,1.0988046,0.09789552,2.427683,2.496327
3.2749135,11.664781,1.1366808000000002,-0.06604326,2.6161263,2.585234
2.2495055,12.127110499999999,1.2891244,-0.17357299,2.3675392000000004,2.7225740000000003
1.8794484,13.277111999999999,1.3647524,-0.20657717,1.8352137,2.880666
2.4285919999999996,14.803215,1.2455595,-0.18528415,1.3167287,3.0563333
2.846294,13.08595,1.5091898000000001,-0.14589207,0.95527107,3.2170956000000004
2.6721685,10.7584505,1.48769,-0.12779301,0.77747434,3.3363364
3.1959815,10.869110000000001,1.0514281,-0.1288751,0.7806683000000001,3.4039330000000003
4.1548495,12.687622,0.3995348,-0.15336208,0.8717046999999999,3.3890279999999997
4.607861499999999,14.678783,-0.24796268,-0.20340067,0.8759633,3.3262136
3.9120296999999997,15.070532,-0.75830114,-0.244381,0.7199831999999999,3.2144427
2.4435031000000005,14.510769,-0.92206454,-0.26778588,0.40910518,3.033452
1.2362412,13.08572,-0.7614519000000001,-0.2970725,0.015184363999999999,2.7523668
0.53633946,11.475427999999999,-0.31274977,-0.33274699999999996,-0.39521235,2.3691098999999998
0.4030591,10.010023,0.11031524,-0.3401996,-0.76092863,1.9400556
0.72377676,8.939231,0.20677285,-0.32794738,-1.0765889,1.3890901000000002
1.099561,8.276487,-0.07814674,-0.3034604,-1.2155346000000002,0.73858845
1.6225026000000002,7.843261200000001,-0.26463590000000003,-0.2635447,-1.1990237,0.08808677
1.8703696,7.692963000000001,-0.5656445,-0.20605357,-1.098423,-0.6550220999999999
1.7798686000000001,7.45564,-0.7876253000000001,-0.14802137,-0.92807883,-1.4944905000000002
1.6457741999999997,6.953978,-0.8480261999999998,-0.10278243599999999,-0.8056439999999999,-2.3712392
1.7768615,6.7577490000000004,-0.9093370000000001,-0.0010995574,-0.75080574,-3.1537576
2.228025,6.917039999999999,-1.1337886000000001,0.18678513,-0.56609756,-3.7318629999999997
2.6578991000000003,6.8772674,-1.3124726999999998,0.37203437,-0.16311847,-3.9900496
3.0030758,6.764692299999999,-1.3368936000000002,0.46252970000000004,0.36332518,-4.128978
3.637568,6.845712,-1.3277188999999998,0.26185176,0.8301833000000001,-4.179016000000001
4.2419415,6.985017,-1.2606046,-0.03783874,1.0404432,-4.006002
4.8482585,7.495565400000001,-1.1717607,-0.10756464,0.71733034,-3.6972532
5.3277980000000005,8.042411,-1.0975021,0.020176006,-0.020455258,-3.460377
5.903201,9.11214,-1.1970052,0.20223129999999997,-0.95841265,-3.1415055
6.3373756,10.402624000000001,-1.2312614,0.36564648,-1.9544022,-2.6443133
5.9978967,10.239455,-0.61104816,0.53386134,-2.452659,-2.1471388
4.823148000000001,8.91639,0.24811591,0.7739488,-1.7909696,-1.7787523
3.6778480000000005,8.715278,0.7954017,1.0795035,0.017854718000000002,-1.5759450000000002
3.6363807,10.464336999999999,0.30858386,1.321703,2.2009125,-1.4098595
3.7247171000000003,13.301984,-0.8854141,1.4143275,3.4896809999999996,-1.1889358
2.4322790000000003,14.767417000000002,-1.043575,1.3807998,3.5812411,-1.0537251
1.4534911,14.448251,-0.5014895,1.2636707,2.873772,-0.97815233
1.2551842,14.184448000000001,0.2719047,1.0672688,1.6717985,-1.0233738000000001
0.12021766,13.192960999999999,1.6260747,0.79363614,0.2414314,-1.1043047
-0.10895533,11.306282000000001,2.8022313,0.42209040000000003,-0.9775764000000001,-1.1910651
1.2174228,9.676281,3.5682894999999997,-0.059655353,-1.6408539,-1.2395154
3.6797826000000002,8.8306875,3.6408242999999993,-0.5669702,-1.8005514,-1.2597437
5.6887669999999995,7.996422999999999,3.2996504,-1.0194292999999999,-1.6035911,-1.1985176000000002
5.4889755,7.474382,1.9133023999999998,-1.419738,-1.4209948000000001,-0.98132885
4.5050349999999995,7.696333999999999,0.6944813,-1.5533605,-1.7808467000000001,-0.65181065
3.7694886,7.868889,0.13211204,-1.4649944,-2.6112742,-0.18284069
2.988299,7.6828594,0.25830564,-1.2888035,-3.6242983,0.55281556
2.480977,7.128391000000001,0.63101584,-0.74583155,-3.6722076,1.484385
2.54767,7.125642299999999,0.6253559,-0.10330604,-3.0568395,2.1497919999999997
3.2754116,7.318835000000001,0.683353,0.41781437,-2.1375222000000003,2.7172332000000003
4.425423,7.669585700000001,0.47934790000000005,0.7132637,-0.8109672,3.0563333
5.4936110000000005,8.539475,0.27189509999999995,0.8388924999999999,0.9968099,3.1750505
5.772429499999999,9.903596,0.11072704,0.8303753,2.6012387,3.1894147
4.8130155,11.651029,0.15182112,0.66854835,3.6861005,3.1079776000000003
3.1458662,14.064135,0.4058172,0.43113124,3.819723,3.1095657
2.3285717999999997,17.062689000000002,0.7958996,0.15964526,3.5482367999999993,3.0531394
0.9279351,15.549392000000001,1.8673718999999998,0.016441,3.0286872000000002,3.0015125
0.9444742,10.865739,3.5076203,-0.048485245999999996,2.3856382000000003,2.982349
1.2398133,8.844382000000001,3.4930542,-0.10278243599999999,1.7431127,2.9323099999999998
2.9446287,10.644774,2.5311117000000003,-0.177308,1.275731,2.8343623
5.283610299999999,13.156723000000001,1.3841933000000002,-0.2800381,1.0154326,2.6698651
6.407975700000001,14.390320999999998,0.34264857,-0.3976907,0.89406234,2.4276657000000004
6.085668,14.382620999999999,-0.44032243,-0.5211902,0.7977026999999999,2.1615029999999997
4.5347137,13.867992000000001,-0.97466034,-0.63936645,0.6374814999999999,1.8729826
3.0780717999999996,12.636147,-1.0943416000000001,-0.7495491,0.3771831,1.5546520000000001
2.2289827,10.489696499999999,-0.78924376,-0.81129885,-0.030560715,1.2507030000000001
1.5534538,8.773045,-0.42577526,-0.8033227,-0.5767439999999999,0.97387624
1.029411,7.548554400000001,-0.44899902,-0.69685763,-1.1319507,0.6917438
1.1836168,7.009035000000001,-0.55185395,-0.46422267,-1.5514232,0.386189
1.6768223000000002,6.9348149999999995,-0.786591,-0.16718508,-1.6999332999999999,-0.017296214
2.3179991,6.964177,-1.0423876,0.061156336,-1.5636754,-0.5054299
2.7176871,7.0532509999999995,-1.2758318000000002,0.19264944,-1.2629027,-1.1282506
2.7261243,7.1574855,-1.3976870000000001,0.30017918,-1.0403907,-1.6728283
2.7461683999999997,7.513866999999999,-1.5538082,0.48329914,-0.7114136999999999,-2.111988
2.596531,8.044825,-1.6415893,0.69888216,-0.19505799999999998,-2.3206596
2.1861744,8.618177000000001,-1.5689587999999999,0.8197288,0.2872114,-2.4846158
1.973234,9.14587,-1.4298173,0.6988996,0.50865877,-2.6363373
2.0120106,9.136782,-1.1194329,0.45455354,0.41496947,-2.741214
2.4410515,9.416433,-0.73842925,0.29750884,0.009337512,-2.8221276
3.392421,9.852953999999999,-0.46216709999999994,0.23630013,-0.5847201999999999,-2.9413686
4.4692373,11.061154,-0.5841373000000001,0.21926571,-1.1804011,-2.9988422000000003
5.0662265,12.501717,-0.8717959000000001,0.24001768,-1.7989631999999998,-2.9429567000000003
4.8317385,11.720316,-0.6078399,0.37044615,-2.192884,-2.7970996
4.0630370000000005,9.635896,0.1033529,0.6962293,-2.0454211,-2.5889516
3.281196,8.844909,0.53654057,1.0464994,-0.74761176,-2.380821
3.3163812000000004,10.313521000000001,-0.054559067,1.4643836000000001,1.9395494,-2.2557158
3.3619190000000003,12.025443,-0.87651724,1.9461293000000002,4.3344727,-2.1077293999999998
3.0744423999999997,12.864227,-1.036584,2.4241576,5.3421736,-1.9171569
2.9188957,13.046877,-0.78516406,2.6466696,5.2058983,-1.6605761000000003
2.8686461,12.879063,-0.27426058,2.4672673,4.1220837,-1.2645258999999998
2.3334367,12.271567,0.5960604,1.9812628,2.3382525000000003,-1.0420139000000002
2.1082382,11.081505,1.5313218000000002,1.361636,0.49214795,-0.9781349
2.5004467999999997,9.822269,2.7933536,0.62170374,-0.9674709,-0.9637708
3.4462616,8.884153999999999,3.7366211000000003,-0.09107128,-1.7819288,-0.98666954
5.337164,8.4470215,4.0700283,-0.78096503,-2.0624557,-1.0116801
7.000445,7.856515400000001,3.7149197999999997,-1.4367725,-2.0555441,-1.056919
6.1863779999999995,7.447375,2.0255330000000002,-2.0042489,-2.2280176,-1.0399021000000002
4.701848,7.6061296,0.8189223000000001,-2.3986932999999997,-2.7454379,-0.9398074000000001
2.5827117000000004,8.143848,-0.043737277000000005,-2.5445504,-3.7653732000000004,-0.594337
1.0455862,8.56293,-0.5482722,-2.2746701000000003,-4.6607447,0.064664446
1.3022542,8.464192,-0.6326151,-1.5815649999999999,-4.581943,0.86847585
2.1552985000000002,8.211929,-0.84138954,-0.75808376,-3.6770072,1.6797397
3.5229146,8.0449295,-1.0455,-0.20870647,-2.4308248,2.4367064999999997
4.888730000000001,7.6492059999999995,-0.6983695,0.14474015,-0.78326887,3.0920078999999996
5.953278500000001,7.875630999999999,-0.5037305000000001,0.426349,1.0329906,3.5151977999999997
6.540164,9.094682,-0.5494885,0.6147922,2.670441,3.8250113
5.8638883,10.745312,-0.7271861,0.54452527,3.6099864999999998,4.064575
4.8232245,13.590313,-0.95151323,0.29592058,3.700482,4.241289599999999
3.3518633999999996,16.055058,-0.71098214,0.009005899,3.2245831000000003,4.268447
2.0283678,13.085309,1.2126249,-0.19060741,2.4713514,4.256736
1.8211830000000002,10.157726,3.321093,-0.25501007,1.7511063000000002,4.1944623
2.2937505000000002,10.593155,4.2713227,-0.30665433,1.1075336,4.0102606
3.3325275999999997,13.435877,3.8838263,-0.37905059999999996,0.72211254,3.7696492999999993
4.5939654999999995,14.683504999999998,2.8609464,-0.47753954,0.51291734,3.4577067
5.285229,14.951320999999998,1.7581486000000002,-0.58559287,0.40006438,3.103719
4.608503,14.961003,0.63411874,-0.68301713,0.34203216,2.7193801
3.1923423,14.426147,-0.02003468,-0.76764816,0.25792477,2.3068192
2.1769805,13.246726,-0.35326925,-0.81342816,0.040212385,1.8995990000000003
1.3759190000000001,11.331996,-0.45848963,-0.7900058000000001,-0.29832911,1.4891671999999998
1.3000898,9.630207,-0.25362256,-0.6276553,-0.67895055,1.0595894
1.3811288000000002,8.356424,-0.4595335,-0.34498179999999995,-0.97066486,0.5980545
1.8381819,7.764722,-0.73450273,-0.01972222,-1.0515783,0.11044443400000001
2.3692446,7.7197394,-0.95022035,0.21661282,-0.93338466,-0.5033006
2.757287,7.3861413,-1.1426854,0.31986648,-0.7188661999999999,-1.2959418
2.8461215,7.072682400000001,-1.3570431,0.4093146,-0.6437996,-2.0710077
2.903094,7.1757193,-1.5155488000000001,0.5956285,-0.5596922,-2.6480484
2.6957467,7.389454400000001,-1.6581762999999998,0.79204786,-0.23390903,-2.9961894
2.3438373,7.774729700000001,-1.607668,0.8458040000000001,0.11047934,-3.3177137
2.0270174,8.225635,-1.4994118,0.7159166,0.32606240000000003,-3.6445615
1.9821501,8.525379,-1.0648547,0.48809877,0.33937928,-3.9325410000000005
2.174864,8.905712,-0.6419142,0.30763173,0.04766494,-4.1087494
2.854597,9.0057125,-0.366265,0.19690804,-0.49103093,-4.1481414
4.1369987,10.206818,-0.7769376,0.17188002,-1.1016169,-4.0949086999999995
5.248732,12.163685000000001,-1.4949683,0.22778292,-1.9900593,-3.8920841
5.0098386,11.501612,-1.4228836,0.38960984,-2.8460386000000004,-3.5524607000000006
3.986729,9.155274,-0.46882299999999993,0.6642898,-3.1404232999999997,-3.1340527999999996
3.351193,8.701285,-0.11835976,0.86976737,-2.0028349999999997,-2.7465374
3.8523183,10.195037,-0.5956295,1.0944088,0.8078255999999999,-2.5122967000000003
4.29628,11.911642,-1.3743100000000001,1.3738708,3.2762097999999997,-2.2823322
3.9411433,12.955944,-1.5482824,1.5931889,3.9426812999999994,-2.006064
3.2929180000000002,13.745629000000001,-1.2034311000000002,1.661344,3.3970566,-1.7015563999999999
2.52323,14.070244,-0.5965872,1.5639198,2.1817662999999996,-1.4753268
1.9145283,13.708768,0.44865423,1.2951041,0.52729887,-1.490773
1.0206673000000002,12.4821415,1.70471,0.86976737,-0.8934690000000001,-1.4684153
1.2430024,11.066757,3.0341241,0.28633872,-1.7733941000000002,-1.4029305
2.565004,10.06645,3.7458053,-0.34765214,-1.9735658999999999,-1.2533558999999999
5.369313200000001,9.899977,4.004542,-0.8709193000000001,-1.6573471999999998,-1.0835353
7.286446000000001,8.851689,3.4353057999999996,-1.2483293,-1.3017538,-0.84346527
6.1570725,7.7322273,1.8527482,-1.4570008999999997,-1.3885316,-0.499042
4.1834655,7.647607000000001,0.7401627,-1.5203563,-2.3067842,0.05349434
2.5522093999999997,8.095619000000001,0.4086902,-1.4761819999999999,-3.2676404,0.85837036
2.5043159,8.066248,0.45374912,-1.0769205,-3.2708342,1.6871923
2.798276,8.1894245,0.5695614,-0.4456,-2.8550967999999997,2.4351182000000002
3.5656172999999995,8.637638,0.74953836,0.043598324,-2.4015381000000002,3.1489754
4.8322650000000005,8.53916,0.6934661999999999,0.3448945,-1.4880677,3.6711779000000004
5.799657,8.661369,0.6003987,0.53066736,-0.07262315,3.9277587
6.485586,9.439486,0.50319415,0.6360678000000001,1.4647152,4.0193186
5.6590214,10.913594999999999,0.47676218,0.61533326,3.0984306,3.9820559999999996
4.856906400000001,13.201101000000001,0.74245155,0.38481018,3.221389,4.0831976
2.1379932999999998,16.318255999999998,0.8832689,0.13144074,3.276751,4.058187
1.7677732,14.927923999999999,1.9238465,0.10321877,3.1580336,3.8809142
1.3344227,11.109958,3.1933768,0.09204867,2.578881,3.808518
0.6696774000000001,9.74917,2.9674118,0.021781709,1.6600873,3.7765784
1.9605926,11.541239,2.2298255,-0.051120695,0.98775166,3.5514133
4.040321,14.306964,1.298232,-0.13098696,0.7077485,3.2192423
5.260636,15.684242999999999,0.63969237,-0.2353053,0.5815961,2.8466146
5.160865,15.52385,0.013800179,-0.36308083,0.59117794,2.4771633
3.6013677000000004,14.832213000000001,-0.06651092,-0.49775046,0.6848672,2.0742016
1.8970314,14.354560999999999,-1.1651334999999998,-0.5967804,0.6587745,1.667505
2.1564,12.413696,-1.2630466999999999,-0.63084924,0.44423866,1.2480326000000002
1.6281912,9.7324295,-0.7493755,-0.60369194,0.07588691,0.83440703
0.6202611,8.595355999999999,-1.0470035,-0.5131792000000001,-0.38882446,0.41654027
0.5679238,7.800348,-1.0954046999999998,-0.34924040000000006,-0.9014450999999999,-0.01675516
1.9143078000000002,7.355955000000001,-1.2431461000000001,-0.14480996,-1.2783315,-0.49743629
2.76424,7.0467296,-1.5104731000000002,0.040421825,-1.3965077,-1.0877940000000001
2.7119985,6.724058,-1.6104741000000002,0.14901622,-1.3203938999999998,-1.8213383
2.7799747000000004,6.453772,-1.6220142,0.20755455,-1.1558966999999998,-2.5942748
2.7878084,6.5235389999999995,-1.6449986,0.26504570000000005,-0.8668527,-3.191544
2.5504665,6.770438700000001,-1.550916,0.3949331,-0.40479422,-3.4635534
2.1715312,7.217666,-1.3877655,0.48064622,0.09079203,-3.5780122000000003
