accx,accy,accz,gyrx,gyry,gyrz
4.815736,8.166622,0.45585603,0.55360097,0.16894788,-0.31120965
4.911743,7.852771000000001,0.8289396000000001,0.4726875,0.47237337,-0.14405948
4.986672,7.793145699999999,1.1415362,0.3380179,0.727907,0.058747783
5.3143425,7.764722,1.3535955,0.20598376,0.8849343000000001,0.28550094
5.5994725,7.672018,1.6340044,0.101124376,0.80773836,0.5058837
5.5083685,7.586727000000001,1.8580921000000001,0.009564404,0.58948493,0.6677105999999999
5.1520157,7.4324546,2.1387691,-0.08890707,0.41329396,0.7699170999999999
4.7002873,7.5053529999999995,2.0903490000000002,-0.21186551,0.43298128,0.84018403
5.152686,7.6638399999999995,2.1824584,-0.37901568,0.657099,0.9450609000000001
5.672065,7.820266999999999,2.178283,-0.5552066999999999,1.0520843999999998,1.1771548
5.843432,8.650078,2.1504912,-0.6371848000000001,1.4529343000000001,1.4651341
5.949764,9.460017,1.817812,-0.6478488,1.8910293999999999,1.5992801
5.778454,10.207564,1.4551575,-0.6829648,2.4648762000000004,1.6610298
5.2488465,10.500931,1.0202556,-0.78836524,2.8753078,1.7808118000000002
4.7211742,10.782221,0.5385038000000001,-0.94540995,2.8795664,1.9825543999999997
4.7508335,10.92795,0.26949134,-1.1551461,2.3754454,2.2609694
5.2065077,11.04226,0.30533734,-1.2951391,1.5572700000000002,2.5505543
5.9354177,11.199338000000001,0.34166217,-1.2993976,0.8684409,2.7725253
6.144833599999999,11.242108,0.32655954,-1.2233013000000001,0.40849432,2.8965485
5.570071700000001,11.201511,0.4334367,-1.1242713,0.14713125,2.9354169999999997
5.14898,11.625928,0.29239908,-0.9869313,0.12957324,2.9354169999999997
5.7338834,12.777328500000001,-0.04853525400000001,-0.8607789,0.30415854,2.8678203
6.4371943,13.619657,-0.2677388,-0.73780304,0.54637533,2.7113166
5.225403,13.577202,-0.77428484,-0.5701293000000001,0.7955036,2.5537484
4.0923705,13.623226999999998,-1.0158311,-0.38166859999999997,1.1218278,2.3855336
2.3433394,12.74922,-1.2676531999999998,-0.23635249,1.4587811000000002,2.1379932999999998
1.4082024,11.5668,-1.0078247999999999,-0.15437438,1.6839633999999999,1.7685596000000001
1.7949330000000001,10.266021,-0.49604028,-0.11499974,1.6610473000000001,1.34057
2.003104,9.341821000000001,-0.39309920000000004,-0.058555797,1.405025,0.9163153
2.8050754,8.733626,-0.25151566,-0.019687313999999997,1.0398498,0.46596800000000005
3.4332182,8.382981,0.1293635,0.021799162,0.6485818,-0.024818582000000002
4.224014,8.313559,0.19116265,0.09473647,0.25998425,-0.52307516
4.423163,8.138811,0.20911916,0.21450096,-0.12594296,-0.98832756
4.2025037,7.37598,0.7221199,0.34386477,-0.5012236,-1.503095
4.340745,6.9921417,0.5787456,0.44926520000000003,-0.8030434000000001,-2.0332737
4.592902,7.128314,0.10315178,0.5546656,-0.9984156,-2.4804444
4.7020493,7.071859,-0.36056677,0.64144343,-1.1107274999999999,-2.7950401
4.462352,6.8214254,-0.65217096,0.75961965,-1.2486086,-2.9467616000000003
4.250436,6.8366622999999995,-0.68442565,0.9203819,-1.3252633999999999,-2.9589963
4.377884,7.010739999999999,-0.7278756,1.0337584999999998,-1.3353863000000001,-2.8727596
4.7086287,7.365455,-0.66863346,1.0561162,-1.4317285,-2.6800752
4.821587,7.749590400000001,-0.44601104,1.0002308000000002,-1.6680808999999996,-2.3729147999999998
4.9927053,8.432857499999999,-0.19295351,0.9081296999999998,-1.9661832,-2.1546437999999997
5.575205,9.394599000000001,-0.0587154,0.8511796,-2.0721073,-2.0891767
5.863696599999999,10.034472000000001,0.18232325,0.8325395000000001,-2.0343207999999997,-2.0572371
5.789515,10.602426,0.5089115,0.82295763,-1.8011624,-2.0668189999999997
5.2127323,10.963356,0.6489531999999999,0.76813686,-1.6590227,-1.9949636000000002
4.2359943,10.636959,1.1366041,0.61589175,-1.8911166000000001,-1.8826343
3.5883625,10.46088,1.5610387,0.48333403,-1.9321144000000001,-1.8634706
3.1569464,10.6806,1.5872600000000001,0.38592719999999997,-1.7740049999999998,-1.8592118999999998
2.5736517999999995,10.730352,1.3852563,0.3380179,-1.6829861000000002,-1.8331368000000001
2.2169828,10.375943,1.1484411,0.3034255,-1.7399362,-1.7942683000000001
3.0438445,10.57584,0.88551944,0.29489082,-1.6989558999999999,-1.7671284999999999
3.7803202000000007,10.340145,0.8029099000000001,0.29543188,-1.4583448,-1.7208073
4.5718236,10.046271,0.7938311,0.30340803,-1.1650247999999999,-1.5813382
4.9640994,9.585732,0.73215646,0.3262893,-0.82913613,-1.3854423999999999
4.7840169999999995,9.286964,0.56842184,0.37369245,-0.40646973,-1.1932641000000002
4.4283056,9.207678999999999,0.29603824,0.41840777,0.017243853,-1.0042974
5.37346,8.851536,0.6330365,0.42586035,0.36166713,-0.79295546
5.328947,8.559166000000001,0.78358394,0.36569884,0.6406056,-0.5422389
5.2625227,8.515543,0.83736724,0.24219935,0.8471479,-0.24040166
5.3473253,8.563292500000001,1.0225923000000001,0.08834857,0.90090406,0.12580334
5.799733,8.582571000000002,1.5090175,-0.040439277999999995,0.8455421999999999,0.5090951
5.9381084,8.477638,1.8785098000000002,-0.15170401,0.7699520000000001,0.8721409999999999
5.6779833,8.17028,2.2191088,-0.27094492,0.7800749,1.206965
5.6363816,7.921542,2.4249625,-0.45352380000000003,0.9035744000000001,1.5018733
5.834544999999999,8.017653999999999,2.458807,-0.6254736,1.1042523000000002,1.8580077000000002
5.877813,8.222914,2.342784,-0.70158744,1.3443398000000002,2.2274415000000003
5.894467400000001,8.693901,2.148911,-0.7436499,1.5631169,2.4355721000000004
5.918553,9.356751,1.8538495,-0.8298866,1.7733941000000002,2.4770935
5.6532946,10.089971,1.4747708000000002,-0.9693559000000002,1.9250982,2.4861343
4.987620400000001,10.716016,1.1550586999999999,-1.1146895,2.047533,2.5132916
4.562563,11.013797,1.0531231,-1.2956626,1.9735485000000001,2.527132
4.3341084,11.142538,0.984716,-1.4825176000000002,1.5939918,2.5707827
4.72308,11.871763,0.85854155,-1.560237,1.2980188,2.6447847
4.9716845,12.057955999999999,0.74749845,-1.5203214,1.090953,2.728351
4.3671584,11.2248125,0.9490711,-1.4064038,0.8918632,2.7991416
4.19626,11.322295,0.8358061999999999,-1.2482944,0.75558794,2.7938359
4.8664445999999995,12.238518,0.386156,-1.1125426,0.7507883000000001,2.7842537999999997
5.5017895999999995,12.94427,-0.07198885,-0.9848020000000001,0.89025754,2.7464502
5.402171599999999,12.8587885,-0.26235664,-0.85011494,1.1825128999999999,2.6213623999999998
5.341186,12.856682000000001,-0.43633848,-0.74632025,1.3203764999999998,2.4866752999999995
4.643755400000001,12.830699000000001,-0.88221544,-0.64303166,1.4380292,2.226918
4.096125,12.5154505,-0.9004018,-0.5392369,1.2804608,1.9751193999999999
3.5204055,11.572614,-0.6278555,-0.4551295,0.88599896,1.7808118000000002
2.9390166,10.745541000000001,-0.36304718,-0.33163002,0.56979764,1.5742695
2.8635132000000003,10.1923275,-0.26884009999999997,-0.21610667,0.20516345,1.3373933999999998
3.0677001,9.875871,-0.11270944,-0.05534439,-0.046617742999999996,1.0046813
3.192007,9.484715,-0.040739734,0.1277581,-0.26698299999999997,0.60330796
3.5075724000000004,9.077481,0.08338525,0.34014723,-0.4980297000000001,0.07897615
3.8156202000000006,8.662892,0.057183113,0.5509480999999999,-0.69605476,-0.6156998
3.5978722999999997,8.685963000000001,-0.43525627,0.68563515,-0.72480035,-1.4381338
3.733365,8.699792,-0.65223795,0.8602379000000001,-0.6779381999999999,-2.163161
3.4277594,8.754542,-0.7837467,1.090185,-0.69870764,-2.6726053
2.8738847,8.233037,-0.72034824,1.3249493,-0.7029663,-3.0750432
2.8415343999999996,7.69212,-0.47921383,1.4873172,-0.59596014,-3.3097901
3.002061,7.424544,-0.22774605,1.5724718999999998,-0.44160320000000003,-3.3012903
3.5233742999999995,7.4345326,0.064432755,1.5671661,-0.40379938,-3.0734375
4.2505125999999995,7.663447,0.44790727,1.4984874,-0.5283635,-2.8221974
5.2607794000000005,8.463704,0.786591,1.4026687,-0.5464626,-2.5938209999999997
6.624507400000001,9.627535,1.0071736999999998,1.3254902,-0.67209136,-2.4878795
7.5936894,10.042968,1.1068778000000001,1.2232664,-0.9111142,-2.39899
7.170797,9.68445,1.4374021000000001,1.0992433000000001,-1.3721079999999999,-2.377697
6.2162194,9.335816000000001,1.7820426,0.9741380999999999,-1.9124096999999998,-2.3824792
5.7141933,9.145458,1.9637433999999998,0.75110245,-2.4293063,-2.3872788
4.7869763,9.022357000000001,2.2434247000000003,0.45567057,-2.820033,-2.4053779
3.5393772000000006,9.20696,2.4235547000000004,0.27361527,-2.7673242,-2.3383048
2.4973536,8.9964905,2.176818,0.14851007,-2.5347068,-2.2456803
2.3226342,9.366577000000001,1.8057165000000002,0.08782497,-2.3393345,-2.042332
2.6921458,9.300104,1.2864621,0.09953613,-2.1333333999999997,-1.8357897
3.0195765,9.3215275,0.3906571,0.16235052,-1.8309726000000002,-1.5967841999999999
3.1402826,9.517919000000001,-0.010323798,0.22994713,-1.5302,-1.3412507
3.6387556000000005,9.463819500000001,-0.20724210000000004,0.32843605,-1.2699015,-1.0458186999999999
3.8328106,10.073958,-0.32173282,0.43064255,-1.0042624,-0.8105309
4.5146604,10.233996000000001,-0.12880805,0.49080405,-0.6657035,-0.6769085
5.1393455999999995,9.961066,0.19180429,0.45884705,-0.22228514,-0.5896070999999999
5.5726867,9.763909,0.86270744,0.35185838,0.25785494,-0.44748497
5.420693,9.168892999999999,1.1293448999999998,0.19376646,0.62250656,-0.17386970000000002
5.080083999999999,8.889192999999999,1.4300662,0.06707300000000001,0.7742106,0.22003366
5.1460495,8.871245,1.8597298,-0.0010646508,0.7481354,0.5734977
5.0976386,8.583721,2.2254202000000003,-0.056409042,0.731642,0.87266463
4.7758,8.083295,2.4350563999999997,-0.13838716,0.8386306999999998,1.1771548
4.5936494,7.8698559999999995,2.5503419999999997,-0.2688156,1.0744421,1.5215781000000002
5.127317,8.136589,2.433735,-0.43064255,1.383732,1.8516198
6.1652512999999995,8.798959,2.2316162999999998,-0.5727647,1.6999332999999999,2.1236292999999997
7.016255999999999,9.389303,2.008946,-0.71649253,1.9112751000000001,2.3466825
7.1100035,9.805587,1.6494134999999999,-0.85384995,2.0784078,2.5734529999999998
6.1724434,9.872836,1.2941905,-0.9533860999999999,2.2567456000000004,2.7821245
5.0277085,10.146139,0.9981331,-0.96509725,2.5559125,2.9056242
4.4354309999999995,10.274830999999999,0.822868,-1.0449461,2.5048093999999996,3.1201425
4.395122,10.19115,0.93746406,-1.1673809,1.7212261999999998,3.377788
4.590183000000001,10.150793,1.1149893,-1.1908033000000002,0.92273813,3.4933114
5.017203299999999,11.039434,0.9984011999999999,-1.1333121000000002,0.49953067,3.493835
5.562717,12.425121,0.5424686,-1.0523987,0.32014576,3.372465
5.952838,13.87164,0.08049306,-0.9288991,0.38721874,3.2564178
5.797186,14.870961,-0.40081808,-0.7963588,0.5660801,3.0711687000000003
5.280143700000001,14.913885,-0.38433638,-0.68881166,0.8870809999999999,2.792771
4.69661,14.477498,-0.31520146,-0.6153506999999999,1.2410687,2.4504771
4.37956,13.481902999999999,-0.019862298,-0.56744146,1.5035139,2.131623
2.5705776,12.682613,-0.46148714,-0.5099503,1.6259313,1.856402
1.7972506000000001,11.566399,-0.7001507,-0.44183009999999995,1.6211491000000002,1.567358
2.1214352,10.139234,-0.22102311,-0.39179152,1.4811386999999998,1.225064
3.1100776000000003,9.327484,-0.039533056000000004,-0.32044244,1.2224461000000002,0.85777694
3.7777057000000003,8.997686999999999,-0.11348516,-0.24272294,0.9216735,0.47396162
4.221955,8.808717999999999,0.05164772,-0.11711159,0.63952357,0.10238101
4.7083793,8.615592,-0.0728412,0.096342176,0.27382470000000003,-0.34047884
5.069913400000001,8.521366,-0.37122577,0.29543188,-0.10995574,-0.8169188000000001
5.00415,8.132749,-0.5177892,0.5237907999999999,-0.5294281999999999,-1.3790544
4.544865,7.680685,-0.62819064,0.74419093,-0.8903448,-2.004528
4.0825543,7.522055,-0.6124559,0.9411513000000001,-1.1240268999999998,-2.6087086
3.9326391000000003,7.7542543,-0.66774285,1.1008489,-1.0968871,-3.0250046000000004
3.8110902,8.078573,-0.6939738,1.2270013000000002,-0.8919504999999999,-3.1820319
3.9626434,8.899985000000001,-0.6531765,1.3526301,-0.69870764,-3.1250818
4.1543326,9.381785,-0.6287653,1.4761296999999998,-0.588525,-2.9015052000000003
4.2056837,9.068796,-0.15927188,1.5884416000000001,-0.62472314,-2.6662173
4.4548144,9.175011999999999,0.18568471,1.6549909999999999,-0.49961796,-2.5757220000000003
4.697108,9.133018,0.4060566,1.6044288,-0.32021555,-2.4942675
5.1751723,9.466482000000001,0.74615777,1.5213860000000001,-0.30532790000000004,-2.5129075000000003
5.9104695,10.245307,0.82191026,1.4032098,-0.6140591999999999,-2.4990497000000005
6.2285347,10.737612,1.0371394,1.2174194999999999,-1.2677723,-2.41016
5.527282700000001,10.349339,1.4522845,0.9938603000000001,-1.9863941999999999,-2.3074126
4.2986555,9.396609,1.8911321,0.7436499,-2.6182907,-2.2036352000000003
2.9179478,8.777182,2.059387,0.47642252,-3.128782,-2.0950234
1.8683487,8.4906435,1.6888698,0.26722735,-3.3134902000000004,-1.9880172999999999
1.9129479999999999,8.93336,1.4125311000000003,0.16395622,-3.2810094,-1.8948691000000002
2.5007148,9.483576,1.0119429,0.14639822,-3.1271763,-1.7591173999999998
3.2041793,9.8067465,0.44561842,0.16980308,-2.7971343999999996,-1.5674976
3.77104,9.719539,0.009471462,0.23581143,-2.2972722,-1.3497678
3.3467492999999995,9.571185,-0.4527723,0.32365385,-1.6600873,-1.1522838
3.1690514,9.618216499999999,-0.34961090000000006,0.444483,-1.0910403,-0.9654289
3.1967478,9.425924,-0.06343677,0.52859044,-0.6891258000000001,-0.7950847
3.50944,9.541574,0.16497007,0.5530774,-0.2446428,-0.63858104
3.7000281999999998,9.581000999999999,0.3452343,0.519026,0.28714156,-0.43097416
4.601119000000001,9.720459,0.8408245000000001,0.46258205,0.7635816,-0.13554227
5.150962,9.534189999999999,1.3658823999999998,0.38114499999999996,1.0499726999999999,0.20301670000000002
5.396138,9.454482,1.8232805,0.28106782,1.2267046999999998,0.5389053
5.57985,9.171478,2.3424772999999997,0.15650368,1.4784858,0.8465894
5.9437785000000005,8.985697,2.7032356,0.004782202,1.867607,1.1249869
6.3071985,9.032844,2.8808279999999997,-0.20120156,2.3062606,1.4140483
6.392547,9.343152,2.8710406,-0.40828487,2.6400200000000003,1.7196031000000003
6.657508999999999,9.769693,2.6953347,-0.63824946,2.7459439999999997,1.9783131999999999
7.053146000000001,10.040218,2.684848,-0.8996125,2.7741659,2.1598275
7.075766000000001,10.268827,2.6408906,-1.1950618,2.6847353,2.2854562
6.4347615,10.311808000000001,2.3556838,-1.4601598999999998,2.5745351000000003,2.4004385
5.730263,10.293583,1.9291903000000001,-1.7241933,2.244511,2.551619
5.3982544,10.134483,1.6480631000000001,-1.8822851999999999,1.8425964,2.6873708
5.5209813,10.135824000000001,1.4450347,-2.0499763,1.0084338,2.9929254000000003
5.7997146,10.495185000000001,1.0845926000000001,-2.0201662000000002,0.3840248,3.1441060000000003
5.68801,11.252346000000001,0.5894812,-1.9222183000000002,-0.09611528,3.2527003
5.2104917,11.869945,0.19524236,-1.7870077000000002,-0.39847612,3.2564178
4.844054,12.764802,-0.32890585,-1.5969763000000001,-0.44479716,3.1590111000000003
4.82289,13.427268,-0.5967404000000001,-1.3515655,-0.2574186,3.0509402999999997
4.637387,13.749335,-0.90493166,-1.0843382,0.09550442,2.8736846000000003
4.2516620000000005,13.849154,-1.1173452,-0.84585637,0.5458516999999999,2.6176274
3.6360934,13.304032999999999,-1.0646726999999998,-0.65793675,0.93286103,2.3094196
2.4727411,12.565077,-0.9891405000000001,-0.48228684,1.2362691000000001,1.9570028000000002
1.8119797999999998,11.556524000000001,-0.86866426,-0.33747685,1.4539989,1.584916
2.0021942,10.536622999999999,-0.4483382000000001,-0.20067796,1.5253305,1.2048357
2.7805014,9.982538,-0.26761428,-0.06544985,1.4348352,0.8061326999999999
3.6316017999999994,9.746555,-0.38115692,0.08995427,1.2437391000000002,0.40369466
4.1340966,9.372696000000001,-0.0486406,0.27094492,0.9946108,-0.015760323
4.4997489999999996,8.9691105,0.20480002,0.46577603,0.64912283,-0.5118876
4.8446,8.756217999999999,0.15761508,0.6558248999999999,0.24029693,-1.0420837
4.9563613,8.745521,-0.080023795,0.8511796,-0.1195376,-1.4908253
4.85954,8.684421,-0.20661962,1.0231295,-0.3431143,-1.8272723999999998
4.7514944,8.626002,-0.27798596,1.0965904,-0.45383796,-2.1461267000000004
4.529954,8.412238,-0.3438744,1.122683,-0.52995175,-2.5304656000000003
4.294594999999999,8.39932,-0.35833538,1.1572753999999998,-0.5496565,-2.8168566000000004
4.116131,8.623723,-0.34426707,1.191868,-0.5789432,-2.8567897999999996
4.0149326,8.860883,-0.17912460000000002,1.2025143999999999,-0.902056,-2.7886522
3.9538995999999997,8.771042999999999,0.15202223,1.1908033000000002,-1.5594866000000003,-2.716256
4.148893,8.978936000000001,0.33184594,1.188674,-2.2376692000000005,-2.7205145
4.1883974,8.809552,0.58136964,1.1482172,-2.5613055,-2.7593656
3.8346205,8.337529,0.9719979999999999,1.079556,-2.527778,-2.7886522
3.6219482000000003,8.493766,1.1445147,0.9608386999999999,-2.4308946,-2.7524366000000002
3.8694322,9.228518,0.95423305,0.78304195,-2.3553045,-2.6864457
4.1551943,10.040602,0.8939758,0.59620446,-2.2243524,-2.6747172000000004
3.7963326,10.303984,0.9175155999999999,0.44928265,-2.045491,-2.6954865000000003
2.7176297000000003,9.896375,0.9637332000000001,0.38807395,-1.7979508999999998,-2.6284134
1.8334317,9.877153999999999,0.9850511999999999,0.41840777,-1.5169005,-2.4772332
1.4661613000000002,10.52309,1.0166643,0.45992917,-1.3742372999999999,-2.2563267000000002
2.0813083999999997,10.807523,1.0233200999999998,0.43544218,-1.5302,-1.9842998
3.408893,10.418330000000001,1.3701633,0.41310197,-1.5552106,-1.7250485
3.8928857000000003,9.891587,1.4585093999999998,0.38594466,-1.4492865,-1.400871
4.1318274,10.101549,1.239124,0.36782813,-1.2954357,-1.0761526000000001
4.441244,10.085594,1.160958,0.36198127,-1.0159736,-0.7562337
4.918504,9.954832000000001,1.1400422,0.35079372,-0.6582509,-0.47621309999999994
5.2817235,9.696363,1.3183911,0.3263242,-0.316498,-0.21272072
5.3291097,9.208262,1.648427,0.28426176,-0.10569714,0.05503023
5.028848,9.032078,1.8672282999999998,0.22357668,-0.030089477000000003,0.3286455
4.494846,9.262735000000001,2.0768263,0.15065682,0.0018151425,0.58522636
4.4232974,9.458025,2.3719832999999997,0.07826056,0.083269656,0.83808964
4.5158,9.456147999999999,2.6014437999999998,0.010646508,0.2498788,1.0781597
4.6435637000000005,9.385711,2.875781,-0.07716101,0.5006128,1.3123828000000002
4.8595014,9.252737,2.9409606,-0.16447982,0.86364126,1.5678816
5.23067,9.205466,2.9051435000000003,-0.24326399,1.3214586000000001,1.8079691000000002
5.6120377,9.306645,2.6642102999999997,-0.3385415,1.8037453999999997,1.9799189999999998
5.708744,9.781732,2.1686296,-0.47640508,2.2152243,2.1034184
5.5289683,10.191331,1.6630125,-0.5914048000000001,2.600628,2.2716157000000003
5.256441000000001,10.382417,1.3541508999999998,-0.6403788,2.950898,2.4366367
5.049592,10.100399000000001,1.295876,-0.74736744,2.9689970000000003,2.6458492000000002
4.990952500000001,9.754878,1.40056,-0.85863215,2.6363025,2.8374865000000002
5.1770015,9.584708000000001,1.4038353000000001,-0.97679096,2.0576558,3.0658630000000002
5.3152905,9.500374,1.362703,-1.0635687,1.3709561000000001,3.2218254
5.509834,9.936454,1.2248448,-1.0907086000000001,1.0095159,3.204791
5.975372,11.098828999999999,0.8252620999999999,-1.1189306,0.5815263,3.2149137999999997
6.504232,12.794977000000001,0.19595104,-1.0236356,0.56236255,3.0828972
6.3497105000000005,13.715645,-0.3246825,-0.88416636,0.5804616,2.9934666
5.432951,13.863414,-0.40237913,-0.76705474,0.5985607,2.7959652000000004
4.5108967,13.210332999999999,-0.39259163,-0.6967878000000001,0.75080574,2.5425782000000003
3.3702218999999998,12.60324,-0.6124655,-0.6062925,1.0089748,2.2157304
2.3411846,11.836388000000001,-0.54930645,-0.56531215,1.2208403,1.8218095
1.7485046000000002,10.978392,-0.63202137,-0.5126032,1.2522563,1.4124601
2.464486,10.629710000000001,-0.4702691,-0.42903683,1.1409916000000002,1.0068281
3.0660818,9.906604,-0.5537118000000001,-0.3262893,0.96692985,0.5500929
3.3042089999999997,9.599255,-0.5010680999999999,-0.14796901,0.7774220000000001,0.090687305
3.890999,8.896566,-0.23967874,0.080389865,0.5261644,-0.37667695
4.0529237,8.891404,-0.15493357,0.3119427,0.26158994,-0.8839744
4.318192,8.9938,-0.4591121,0.5429719,-0.005078908,-1.3832957000000001
4.6052375,8.703095,-0.37551618,0.73406804,-0.21003293,-1.8187377
4.9916615,8.843136999999999,-0.34954387,0.90868825,-0.30637509999999996,-2.1376095
4.8542440000000004,8.859571,-0.5960126,1.0630625,-0.31595695,-2.3484104
4.492671499999999,9.140708,-0.52297026,1.1631398000000002,-0.27762952,-2.4570048
4.2849507000000004,9.689794000000001,-0.5803545,1.171657,-0.33672637,-2.4809506000000003
4.1716857,9.902859,-0.33649070000000003,1.1301181,-0.57360244,-2.422936
4.0242605000000005,9.73762,0.10077674,1.0779676,-0.85892886,-2.3324406000000004
4.073102,10.040505,0.48149312,1.0183299000000001,-1.1618308000000002,-2.2797492000000004
4.2310333,10.241006,0.77190024,0.9241169,-1.4338403999999998,-2.3090181
4.231262999999999,10.1983795,0.9899065999999999,0.7926413,-1.9230561000000002,-2.2829256
4.019462600000001,9.998148,1.0502788,0.68882906,-2.2962074,-2.342546
3.7172949999999996,9.778332,1.0797659,0.5775818,-2.609756,-2.385673
3.2220304,9.2594795,1.1817875,0.42798963,-2.9525735,-2.314865
2.7215272999999995,8.904793,1.1618582,0.28693214,-3.1165297,-2.2525918
2.2955894,8.814981,0.91601205,0.19589576,-2.938733,-2.1828659
1.7879610000000001,8.765842,0.95678043,0.16130333,-2.7199385,-2.0811830000000002
1.8998661000000001,9.039299,0.8683291,0.20708331,-2.3324056,-1.9624656000000003
2.3206422000000004,9.292174000000001,0.75420225,0.32313025,-1.7117141,-1.8400308
2.809002,9.287425,0.63157123,0.44821802,-1.124568,-1.6531933999999997
2.9045305,9.429161,0.5133743,0.53393114,-0.61512387,-1.4423925
3.6449803999999997,9.634881,0.67296225,0.59620446,-0.18819885,-1.2145572
4.018083,9.582285,0.85896295,0.6345319,0.13969615,-1.0010860000000001
3.9421489999999997,9.515065,0.9384121999999999,0.6212325,0.37391934,-0.8115781
4.648123,9.32215,1.383092,0.51848495,0.41757002,-0.54169786
4.9775167,9.096405,1.7497593,0.39659116,0.31536356,-0.21165608
5.112051999999999,8.942563,2.1909914,0.25871015,0.14660765,0.14126694
5.51536,8.615658999999999,2.7166240000000004,0.12882276,0.005550146999999999,0.4670501
5.8863654,8.280414,3.1893162999999998,0.042062435,0.077422805,0.7071376
5.825361,8.693356,3.0447447,-0.040421825,0.30471703,0.93443185
5.884392299999999,9.085230000000001,3.039439,-0.122940995,0.6182479999999999,1.1654611000000001
5.838175,9.447395,2.8675064999999997,-0.18469074,0.94190186,1.3858438
5.9666476,9.956241,2.6306531000000004,-0.22036527,1.3800143999999999,1.5141255
6.007981,10.32852,2.2670887000000004,-0.31244883,1.7915107,1.6477479
5.384962000000001,10.409367,1.861377,-0.43807763,2.0576735,1.9080637999999999
4.6870613,10.277427000000001,1.6439356,-0.5338961999999999,2.3403294,2.1332287999999995
4.4385724,10.074494,1.4278061000000002,-0.6281091,2.4324305,2.321672
4.392709,9.83157,1.2471205,-0.7313977,2.3552346,2.5532247999999997
4.8451653,9.7175,1.1811267,-0.8511622,1.948538,2.8161932999999997
5.233303500000001,9.740541,1.0123068000000002,-0.9586919,1.2235107,3.116425
5.354287,9.873516,0.868942,-0.9304874,0.9711709999999999,3.237795
5.5819472999999995,10.67385,0.57968414,-0.909718,0.93125534,3.236207
6.353732599999999,11.842823,0.35880464,-0.8873603000000001,1.0270914,3.0903497000000004
5.6729746,12.605856,0.006291962,-0.8612851,1.1441854999999999,2.9258525
5.370501,13.020636,0.16568834,-0.8107054,1.1303625,2.8327042999999996
4.691514499999999,13.078632,0.041304767,-0.789936,1.0574251000000001,2.7086810000000003
3.9443227999999997,12.83884,-0.10216537,-0.7638608,1.0031279,2.5047917
3.2328807999999998,11.983238,-0.050192043,-0.73724455,0.9813114,2.1987134999999998
2.0056705000000004,11.151137,-0.3534512,-0.68507665,0.88601637,1.8063808999999997
1.7199083999999998,10.168577,-0.46469540000000004,-0.61001,0.70450217,1.4321648
3.1079035,9.669317999999999,-0.0024133553,-0.51153857,0.4404513,1.0313151
3.79503,9.664224,-0.40342298,-0.39016834,0.14023721,0.5815088
4.1227865,9.271355,-0.48883852,-0.22247712,-0.118996546,0.09548696
4.082726999999999,8.784307,-0.37242284,0.005323254,-0.32660347,-0.41659263
3.7632349,8.480952,-0.30192798,0.20601867,-0.43732715,-0.9398773000000001
3.804779,8.167302000000001,-0.3359065,0.35346407,-0.40484658,-1.4753966
4.059714,8.322972,-0.43152133,0.49719194,-0.30052823,-1.9001922999999998
4.3926419999999995,8.338678,-0.546376,0.6212325,-0.17915805,-2.182325
4.386254,8.329609,-0.6391369,0.7319562,-0.092903875,-2.368621
4.2028775000000005,8.399578,-0.65902793,0.82725114,-0.08492772,-2.5208664
4.2507234,8.676519,-0.65226674,0.8836601999999999,-0.15680037,-2.632131
4.4375668,8.852341000000001,-0.47405195,0.91507614,-0.41444588,-2.6156377999999996
4.6584845,8.759101,0.0037062243,0.9124232,-0.8615818000000001,-2.522472
5.120374,9.313808,0.5929097,0.84641486,-1.2672136999999999,-2.4660456
5.6355677,10.39889,0.7877594,0.74099696,-1.6254773999999999,-2.4192009999999997
5.448695,10.460075999999999,1.0662721000000002,0.5605474,-2.2190115,-2.3622334
4.703208,9.78358,1.2833974,0.36997488,-2.6917167,-2.3393521
4.042514,9.470016000000001,1.2222973999999998,0.23050563,-2.7854058999999998,-2.3856556
3.7441006000000003,9.605595,1.127918,0.104335785,-2.7593307,-2.4341058999999996
3.6814777999999997,9.989625,1.0418226000000002,-0.002094395,-2.6496716,-2.44847
3.1036994,9.758583999999999,1.1277264,-0.08354891,-2.4319592,-2.4160068
2.404966,9.595932000000001,1.1419864,-0.093654364,-2.047603,-2.3409402000000004
2.1708229,9.605441,1.1047517,-0.0643852,-1.6728456999999999,-2.2046650000000003
2.4586346000000003,9.537265,1.0026821,0.017575465,-1.3353513000000001,-2.0359266
2.7804916,9.596698,0.9594716,0.10115928,-1.032467,-1.8331019
2.8927991000000004,9.372419,0.51977164,0.19271925,-0.7125307,-1.6063312
3.8359900000000002,9.368952,0.7081474,0.2608569,-0.42720425,-1.3838191999999998
4.489827,9.262813000000001,0.75097483,0.28586748,-0.24410175,-1.1453548999999998
5.0965370000000005,9.2835655,0.8236437,0.26403340000000003,-0.07695156,-0.8930326
5.4823103,9.230835,0.9142020000000001,0.21347122,0.027907815,-0.59332466
5.739687,8.945628,1.2148658,0.16662659,-0.009337512,-0.25902432
5.929202,8.814886,1.6734895,0.18046704,-0.16955873,0.08484045400000001
5.5660787,8.32824,2.0399175,0.1948311,-0.30583405,0.35578537
5.546264,8.083505,2.3517284,0.16823229,-0.23078490000000002,0.5878966999999999
5.3520845999999995,8.03065,2.4872978,0.13257521,0.009808751,0.8498008
5.4210763,8.221172,2.5653584,0.090512775,0.35529667,1.171849
5.5102553,8.841433,2.3740330000000003,0.06761405599999999,0.7758163,1.4992204
5.674028400000001,9.459375999999999,2.070113,0.11606439,1.299642,1.8425790000000002
5.7564845,9.772979,1.8855392,0.1815317,1.8665599,2.169427
5.370060400000001,9.768563,1.6371360000000001,0.16502088,2.2982669999999996,2.4462361
4.687617299999999,9.500796000000001,1.332967,0.1251052,2.7422438,2.6974936
4.3214865,9.5960655,1.0365745000000002,0.055361845,2.9753849999999997,2.8870014999999998
4.881222,10.126449000000001,0.87917954,-0.06332055,3.113807,3.0520224999999996
5.5055914,10.276402000000001,0.94423485,-0.18682005,3.0972962,3.1813862
5.679831500000001,10.324353,1.1091858,-0.37152824,2.7236037,3.3176615
5.7512074,10.676598,1.0107937,-0.5605125,2.1902137,3.3527949999999995
5.62036,10.89403,0.9775716999999998,-0.6893352,1.7915107,3.2452652000000004
5.4750795,11.172102,1.1405882,-0.8048411,1.5460999,3.0307293
5.4514629999999995,11.918028999999999,0.855975,-0.8479681999999998,1.3539392,2.8870014999999998
5.312733000000001,12.525861,0.42411846,-0.8154876,1.1489851,2.711334
5.035456,12.525572,0.30271327,-0.7782249,1.0366732,2.4866927000000003
4.293005,12.494449000000001,-0.3084785,-0.7494793000000001,1.0116452,2.2194655
4.304842,11.713047999999999,-0.06601293400000001,-0.733527,1.0228328000000002,1.8585488000000001
3.4845786,11.026649,-0.32900159999999995,-0.71115184,1.0116452,1.4475936000000003
2.5631939999999998,10.673687,-0.65108883,-0.69251174,0.85090035,1.0584723999999999
3.4175217000000004,10.257192,-0.42766190000000004,-0.6174626,0.5820673000000001,0.7172430999999999
3.6815638999999996,10.059766,-0.7124378,-0.48757517,0.25628415,0.38028979999999996
3.9150370000000003,9.692332,-0.72106653,-0.32201326,-0.06148795,-0.012007865
3.8896870000000003,9.262466,-0.5960988,-0.12559389,-0.35374334,-0.53422785
4.035158999999999,9.11465,-0.49705540000000004,0.06283186,-0.60287166,-1.1416198
4.187238,9.079713,-0.5015374,0.19324285,-0.76043993,-1.6404
4.330287,9.204221,-0.59045804,0.32686526,-0.8786162000000001,-1.9672478
4.6286716,9.282693,-0.6403436,0.44930010000000004,-0.96858793,-2.2440572
4.546809,9.259518,-0.72549105,0.56321776,-1.0218204,-2.515543
3.9771042000000003,9.088303999999999,-0.77448595,0.6856526,-0.99359846,-2.6896222
3.5390322,8.7471485,-0.50308883,0.8134107,-0.88393945,-2.7763824
3.3897489999999997,8.785053,-0.24569298,0.9060353000000001,-0.7844033,-2.7540247000000004
3.7012922999999995,8.990821,0.102462254,0.9416924000000001,-0.7263710999999999,-2.6161613
4.442556400000001,9.7374,0.6655880999999999,0.92200506,-0.71413636,-2.4915972
5.165519000000001,10.541841999999999,0.84208864,0.8554556999999999,-0.7705628999999999,-2.3925846
4.9203434,10.126918,0.9672288,0.80595815,-0.8477413,-2.3899142999999996
4.362609,9.554637,1.1274008999999998,0.7383441,-1.1006046999999999,-2.3207119
4.266496,9.415275,1.0416694,0.66435957,-1.4854671999999998,-2.232887
4.2650595000000004,9.683464,1.0835487,0.5744053000000001,-1.879388,-2.1743312
4.0165796,9.524125,1.3248746,0.47059312,-2.2983367,-2.0907473999999997
3.6517034,8.863172,1.59948,0.31621876,-2.7193975,-1.9773706999999998
3.0671449,8.329628999999999,1.6727330000000002,0.19324285,-2.8780305,-1.8778172
2.8515997000000004,8.385156,1.4496796,0.15332717,-2.6730937999999997,-1.7814751
3.1796912999999996,8.578894,1.0668372,0.18952529999999998,-2.2136883999999997,-1.6893740000000002
3.2268380000000003,8.585989999999999,0.5036442,0.2629862,-1.727684,-1.5472518
3.7335181000000004,8.674557,0.4055203,0.35826373,-1.1517079,-1.4125648000000002
3.3537116,8.765460000000001,-0.052203175,0.48336893,-0.5203699,-1.2566022
3.5948076,9.088667,0.04102704,0.5616295,-0.09077457,-1.0383487
3.7169023,9.224371000000001,0.15095920000000002,0.5972866,0.22115067,-0.80677843
3.9609097999999996,9.38572,0.49693093,0.5797111,0.41704643,-0.5629734000000001
4.3033767,9.426059,0.7168526999999999,0.5227609999999999,0.50008917,-0.29094640000000005
5.131214599999999,9.356761,1.1231296,0.43545964,0.46441466,0.015114551
5.6702547,9.094413000000001,1.6574292000000002,0.32686526,0.48996627,0.27328366
5.97565,8.974186999999999,2.0791342,0.20336576,0.69544387,0.5117654
6.028868,9.004075,2.2285612,0.08093092,1.0292207,0.77366954
6.3506584,8.929214,2.4894142,-0.08248426,1.4061071000000003,1.0499551
6.329398,9.0540085,2.5967033,-0.24429373,1.7995043000000002,1.3666975000000001
5.987476999999999,9.387406,2.4372113,-0.37472218,2.1673324000000003,1.6791638
6.007636,9.766045,2.3762548,-0.47692868,2.5506067000000003,1.9245571
5.829373400000001,10.009784,2.1392,-0.61001,2.8710666000000002,2.1375048
5.4519515,9.925785000000001,1.9045109,-0.79473567,2.8550967999999997,2.3280597000000003
5.261947599999999,10.130939999999999,1.5680298000000001,-0.96080375,2.6890112999999998,2.5053330000000003
5.5194206,10.160504,1.3467672,-1.1460705,2.3073254,2.6682243
5.7946386,9.997812,1.2597907,-1.3834701999999999,1.4316586000000002,2.9285228
5.9423129999999995,10.275819,1.0392463,-1.4276619,0.94724256,3.0845029999999998
5.984661599999999,10.757856,0.6996049,-1.4207504,0.6102718,3.190427
5.630569,11.229265,0.5171284,-1.3797526000000002,0.39043015,3.1499877
5.5047483,12.200766,0.25424507,-1.3249143,0.37765434,3.0003955
5.423729,13.097757000000001,-0.0043957545,-1.2152553,0.5597095999999999,2.8396332
5.001535,13.67138,-0.3720877,-1.0874972,0.8461006999999999,2.7113516
4.080687,13.445875,-0.6596121,-1.0092715,1.0659424,2.4930806
3.7211928,13.058703999999999,-0.65547496,-0.9597391,1.2203342,2.2306529999999998
2.5404682000000003,12.053695,-0.8685589,-0.8820196,1.2458858,1.9405444
1.9888921000000002,10.950380000000001,-0.81573325,-0.7920653,1.1511145,1.6434891999999999
2.6189406,9.895628,-0.21281579,-0.68825316,0.9456543,1.331023
3.0180540000000002,9.356024,-0.4113813,-0.5876524000000001,0.64807564,0.97649425
3.6696982000000005,9.184262,-0.52704996,-0.44765950000000004,0.329204,0.64432317
4.3340316,9.078161999999999,-0.59029526,-0.24802874,0.028448867000000003,0.29085913
4.3433980000000005,8.731989,-0.32716286,0.0053407075,-0.23502603,-0.18715166
4.587098999999999,8.754044,-0.2621555,0.23849924,-0.39632937,-0.7487636999999999
4.704731,8.974388000000001,-0.5746755,0.44875905,-0.45275587,-1.2289212
4.604337,8.925162,-0.65957385,0.6398726,-0.47671923,-1.598355
4.361776,8.946653,-0.64737296,0.8267101,-0.5097234,-1.9140153000000002
4.0391330000000005,9.111882000000001,-0.6492213000000001,0.97949624,-0.517176,-2.2222404
3.9775162,9.592274,-0.6283535,1.0838493999999999,-0.46711993,-2.44847
3.8975017,9.818506,-0.62192744,1.1429288,-0.44795619999999997,-2.5352304
3.6514642,9.507499000000001,-0.29591376,1.1764741,-0.5661324000000001,-2.5213900000000002
3.7307982,9.083447999999999,0.20350714,1.1679393999999998,-0.8285776,-2.5213900000000002
4.4163440000000005,9.565458,0.64246964,1.1173773,-1.1128393,-2.5474825
4.762258999999999,9.488010000000001,0.92958236,1.0103711,-1.495049,-2.5261896
4.472819,8.831377,1.2271146000000002,0.8629256999999999,-1.7931513,-2.5240602
4.0451856,8.41832,1.2721639,0.69310516,-2.0625079,-2.5107434
3.9910576,8.733502,1.1959517,0.5222374,-2.5123317000000003,-2.4852092
4.2666205999999995,9.399234,0.9662232,0.36360446,-3.0084589,-2.438888
4.0742035,9.385482000000001,0.96607953,0.18900171,-3.4747586000000004,-2.4042783
3.3271744,8.880228,1.0661668,0.03621558,-3.6594841000000002,-2.38405
2.7812867000000003,8.755462,1.0534393,-0.09950122,-3.5439608,-2.3547807
2.8354914,9.07051,0.73900384,-0.12878785,-3.0121765,-2.286102
3.0602782000000004,9.273605,0.48392564,-0.064908795,-2.3068366,-2.1775076
3.08128,9.2722645,0.27461493,0.07508406,-1.6371711000000002,-2.0465555
3.8228028,9.744938000000001,0.25309587,0.26246262,-1.0026567,-1.9023042000000001
3.6721404000000004,9.652042,-0.030569167999999997,0.44610617,-0.40643483,-1.7612292
3.9112349,9.679977000000001,0.14102806,0.5419246999999999,0.07796386,-1.6446587
3.8698056000000003,9.578281,0.24784777,0.52117276,0.43621013,-1.4551508
4.7148533,10.013586,0.5506472,0.41790164,0.60655427,-1.1325616000000003
5.6603427,10.130144999999999,0.84270155,0.28321457,0.50328314,-0.6907314999999999
6.401913599999999,9.94899,1.1851871999999999,0.16612044,0.21530381,-0.22867304
6.682197599999999,9.498486999999999,1.7321858,0.099571034,0.00076794485,0.1982345
6.628366499999999,9.036934,2.0883472,0.08147197,0.0028972465,0.56660366
6.3958416,8.963585,2.2951486,0.04314454,0.23605578,0.9035744000000001
6.457008999999999,8.931436,2.5326345,-0.018046705,0.6022957,1.2980188
6.737427,9.242557000000001,2.4459548,-0.04201007599999999,0.96375334,1.7435839
7.214123,9.961699000000001,2.152531,-0.008464847,1.3124177,2.1417634
7.0061045,10.506485000000001,1.9216917000000002,0.014922565,1.769153,2.4281544999999998
6.251653,10.763066,1.6981210999999998,-0.0063529983,2.424978,2.6032808
5.0427155,10.507337,1.4015848999999998,-0.10749483,2.928034,2.8098229999999997
4.309774,10.003366999999999,1.2229676999999999,-0.23045327,3.4481075,2.8572087
4.226101,9.687256,1.1479431,-0.433278,3.7696318999999994,2.8944714
4.721548,9.872596000000001,1.0597694,-0.6957057,3.4422605,2.9503744
5.2748,10.114372,0.9423865,-0.97092664,2.7885475,3.0158243
5.184519,10.17574,0.98349017,-1.2062145,1.9496200000000001,3.0664039
4.8337975,10.138831,1.0333086999999999,-1.3190501000000001,1.3299931999999999,2.9631502999999997
4.84075,10.6236,1.0362585,-1.3989162,0.93818426,2.7800127999999997
5.436332,11.629959,0.99006945,-1.4297737,0.7007846,2.6293732999999997
5.873312,12.138334,0.91329217,-1.4234033000000001,0.5602507,2.5292962
5.29652,12.798771,0.34540668,-1.3797526000000002,0.49104840000000005,2.4441242
5.716157,13.074150999999999,0.25917712,-1.3126795,0.4388805,2.2982669999999996
4.3438573,12.680429,-0.36647567,-1.2141906,0.40639990000000004,2.0837312
3.6146412000000003,12.430753,-0.91590667,-1.0843033000000002,0.35903168,1.7760470000000002
2.8826093999999998,11.667223,-0.9331927999999999,-0.96666807,0.28609437,1.3970313
2.6674376,10.755846,-0.99951214,-0.8436921999999999,0.21263346,1.0148216
3.5230296,10.269736,-0.8868792999999999,-0.677083,0.0667763,0.69542646
3.6766699999999997,9.713171,-1.0724108,-0.4205022,-0.13229595,0.42554617
3.7183676,9.23773,-0.90133077,-0.11014773,-0.2611187,0.026825711000000002
3.4221091,8.483528,-0.64994913,0.18954276,-0.18498744,-0.5230403
3.3359659,8.077749,-0.48214436,0.41364303,0.08594001,-1.0740058000000001
3.4798381000000003,8.163912,-0.5254794,0.5706878000000001,0.29302332,-1.5546868999999999
3.8533527999999997,8.585914,-0.45255200000000007,0.7378205,0.24350834,-1.9251854
4.376447,9.402842999999999,-0.55081004,0.9161582,0.020996312000000003,-2.1780486
4.840616000000001,10.213827,-0.6095541999999999,1.0503042,-0.25206044,-2.3244295
4.67331,10.355966,-0.48577395,1.0998192,-0.58051395,-2.4080133
3.9889507000000006,9.747313,-0.15912822,1.083832,-1.1176215,-2.4356942000000004
3.6196883,8.892275999999999,0.45232219,1.023688,-1.5472169,-2.554394
4.435747,9.421749,0.719812,0.92041683,-1.8607478,-2.6267902999999997
5.342258999999999,9.956603,0.8803288,0.79957026,-1.9757301999999999,-2.7316673
5.554653,10.170072,0.89636993,0.6531895000000001,-2.1854663,-2.8008695
4.9883766,10.152489,0.7451043,0.49029788,-2.4122369999999997,-2.8791125
4.0741076000000005,9.676644,0.5991729,0.33060026,-2.792841,-2.87166
3.1864717000000002,8.908987,0.5635568,0.15227997,-3.1393936,-2.8519728
2.6315246,8.620917,0.60746646,-0.018064158,-3.3320953999999996,-2.7651950000000003
2.0483162,8.344816999999999,0.6121399000000001,-0.12398819,-3.2570462000000004,-2.700775
2.3682485,8.436832,0.81639403,-0.10801843,-2.6821346,-2.631049
2.4575138,8.616348,0.5882075,-0.016458455,-2.0076697,-2.4761509999999998
3.157339,8.994585,0.51130575,0.08785988,-1.4806675,-2.2520332
3.8597019999999995,9.162092999999999,0.5272511,0.27097982,-0.85412925,-1.9821528999999998
4.2206903,9.360084,0.15272135,0.43971825,-0.34309682,-1.7191842000000002
4.331714,9.757137,0.12274593,0.550983,-0.04712389,-1.4918725
4.5614905,10.213732,0.12330139,0.59037507,0.1359786,-1.2938473999999998
4.682474,10.326497999999999,0.43455720000000003,0.54086006,0.29302332,-1.1102040000000002
5.2213902,10.273203,0.87736,0.42535418,0.42610470000000006,-0.8727868000000001
5.969176,10.097124,1.4643129,0.30079004,0.4867898,-0.54539794
6.4873004000000005,9.599973,2.1132277999999998,0.19113101,0.39629444,-0.15041247
6.1783714000000005,9.573339,2.2867403,0.09370673,0.20411626,0.25413739999999996
6.0034323,9.027002,2.6720634,0.040474183999999996,0.14503686,0.6203773
5.8125467,8.848548,2.8558803,0.0074700094,0.2679953,0.9605245000000001
5.6363435,8.974530999999999,2.5807387999999998,-0.03562217,0.5432163000000001,1.2895014999999999
5.7301483,9.301971,2.2952542,-0.10695378,0.93020815,1.6216726000000001
6.158404,9.866649,2.0430298,-0.18360864,1.4210121999999998,1.9394797
6.523472,10.225923,1.8261918000000001,-0.26026350000000004,1.9634604,2.2349113999999997
6.311489,10.280118,1.6427193,-0.33585370000000003,2.4569175,2.498945
5.6220264,9.996319,1.4867418,-0.43645447,2.730009,2.7427676
4.6661363,9.802791000000001,1.2279764,-0.5163032999999999,3.0887964,2.8710492000000003
4.284232599999999,9.52041,1.1765012,-0.66908944,3.1771624,3.020624
4.3073315999999995,9.053357,1.2456074,-0.8756316999999999,2.8737369,3.158505
4.6577663000000005,8.885457,1.2657858,-1.1077256000000002,1.9735835,3.374629
5.0536137000000005,9.211604,1.1635437,-1.2205786,1.0702184,3.5444496
5.549558599999999,10.10175,0.9429610999999999,-1.1880979999999999,0.81044364,3.4720533
5.930811,11.274708,0.7229723000000001,-1.1774514999999999,0.7029139,3.335778
6.080956,12.621963000000001,0.41897570000000006,-1.121566,0.7747691,3.1606343
5.6809907,13.618870000000001,0.070810914,-1.0060427,0.9366135,3.0307467
5.350178700000001,14.344457,-0.23005405,-0.9224763000000001,1.0962937,2.862532
5.0034122000000005,14.533379,-0.39902723,-0.88308424,1.2107523999999998,2.5889168
4.134633,13.848417000000001,-0.48984408,-0.87989026,1.3331872,2.2679331
2.9014182,12.978747,-0.71655583,-0.8452804,1.3613917,1.9719602999999999
2.016952,11.779539,-0.90347594,-0.76384336,1.2123406,1.691416
2.2675482999999996,10.602272,-0.52279794,-0.6775892,0.83440703,1.3342344
4.030447000000001,10.101434,-0.2245857,-0.59508747,0.35583773,0.92593205
4.091949,9.49685,-0.6803651,-0.4678704000000001,-0.033283427000000004,0.5591510999999999
4.054485,8.755701,-0.2665034,-0.25333455,-0.27335346,0.2647839
4.1613617,8.454194000000001,-0.14750199,-0.006876597,-0.5107706,-0.21855013
4.208049,8.149461,-0.27798596,0.22574088,-0.66142744,-0.93664837
4.453636599999999,8.484294,-0.6455917,0.46687558,-0.6113714,-1.6744515
4.4324236,8.61609,-0.78605473,0.7032455,-0.42559853,-2.1876132
3.8958449999999996,8.381027,-0.7680504,0.9220225000000001,-0.29623473,-2.508073
3.5394347,8.106767,-0.77938926,1.1248298,-0.22757348,-2.8072574
3.5317922,8.462257000000001,-0.9721417,1.2797452,-0.14985397,-3.1186416
3.7820725,8.926226,-0.97942007,1.3564001,-0.05403539,-3.3273306000000002
3.8175833,8.974282,-0.32619563,1.3979214,-0.11046189,-3.3305244
4.045569,8.61157,0.41497263,1.4293200000000001,-0.41442844,-3.2038312
4.737043,8.695922999999999,0.92956316,1.3643762,-0.9419542,-3.0249697999999996
5.6469835999999995,8.508724,1.3146178,1.2568465,-1.5535873,-2.8418498
5.9432325,8.290958,1.6364752,1.1658276,-1.8431723999999998,-2.7705182999999995
5.423019999999999,8.257342,1.5491153999999998,1.0476513,-2.1295636000000004,-2.681611
4.8624225,8.560794,1.3390483999999998,0.890083,-2.576717,-2.5373422999999997
4.831011,9.131025,1.1061786,0.72984433,-2.9083642999999997,-2.369145
4.819346400000001,9.681807000000001,0.8696794,0.61273277,-2.9003706,-2.2520332
4.2440195,9.748711,0.76882607,0.5339486,-2.690652,-2.1663200000000002
3.225181,9.503964999999999,0.82870024,0.4982915,-2.32333,-2.0731718999999997
2.70744,10.011364,0.6925659000000001,0.54354787,-1.8176207999999998,-1.961366
2.3211305,10.230673,0.33585859999999995,0.60582125,-1.2741252,-1.8192438999999998
2.9978467999999996,10.518753,0.58903104,0.6771528,-0.77000433,-1.6308007
3.2792232000000006,10.406877,0.6236225000000001,0.73890257,-0.32871532,-1.4359696000000002
3.680769,10.587819999999999,0.6700891999999999,0.7378378999999999,-0.0071907565,-1.2358327
3.48092,10.53535,0.61080873,0.64947194,0.1918815,-1.0239497
4.151383,10.266250999999999,0.9862386999999999,0.48338640000000005,0.22701497,-0.73597044
5.122337,10.296092,1.2933382,0.2773677,0.064664446,-0.39154717
5.5531690000000005,9.957772,1.4722807,0.07934267,-0.26483625,-0.03330088
5.9558926,9.583176,1.786764,-0.051591933,-0.5203525,0.29565877
6.135736,9.251004,2.0989583,-0.11547098,-0.5496390999999999,0.5155004
5.985169,8.733723,2.3577237,-0.16496852,-0.34042647,0.68746775
5.8016005,8.24746,2.556969,-0.2836858,0.03324852,0.97544706
5.667411,8.136972,2.5007915,-0.42367867,0.42132250000000004,1.4284472
5.7200065,8.688558,2.228341,-0.5131093,0.6927909999999999,1.9011523000000001
5.668062,9.180289,2.0093386000000004,-0.5519778000000001,0.92010266,2.2897499
5.310655000000001,9.603133999999999,1.8396279999999998,-0.56262434,1.2192695,2.5931752
4.658752400000001,9.744209,1.6480631000000001,-0.6206391,1.727108,2.817293
4.065919399999999,9.48984,1.3982137,-0.76223767,2.3366293999999996,3.0589687999999997
4.2438183,9.544446,1.1971486999999998,-0.9789028000000001,2.3046900000000003,3.3251314
5.061141,9.897688,1.0112724,-1.0550166,2.0294688,3.4747062000000004
5.731747599999999,10.200764999999999,0.9606302999999999,-1.078439,1.5785805,3.5912943
5.637435,10.508266,1.066502,-1.082174,0.93235487,3.6599555
4.7851377,10.530197,1.2902448,-1.0427644,0.5772851,3.6061992999999997
4.305004599999999,11.003339,1.2410967,-0.98900825,0.5618564,3.399657
4.3143991999999995,11.614205,1.1436336,-0.95706874,0.5033006,3.1633046
4.8679194,12.392062,1.0283096,-0.88413143,0.5208586,2.9040534
5.3790817,13.781524,0.7618444999999999,-0.7638259,0.67416835,2.5740116000000004
4.772764700000001,14.681982000000001,0.22129127,-0.63713247,0.9110619000000001,2.2828383
3.3992782,14.586147,-0.28642312,-0.50830966,1.2347157,2.029975
3.325728,13.283347000000001,-0.1286261,-0.41355577,1.5764686,1.755295
2.3054056,11.80444,-0.20765389999999997,-0.37044615,1.8207973000000002,1.4124775
2.6778283,10.626694,0.049234364,-0.34756488,1.8692476999999998,1.0446494
4.193559,10.077108,0.38160703,-0.30284953,1.6525824,0.6587046999999999
4.335698000000001,9.407105,0.34793496,-0.21446607,1.2065113,0.29674090000000003
4.6847444000000005,8.923496,0.088413075,-0.09204867,0.62200046,-0.037559487
4.651216000000001,8.262812,-0.04491522,0.06604326,0.012496557,-0.38515925
4.789591000000001,7.7332907,-0.060037002,0.21882938,-0.50384164,-0.8429591000000001
4.422991000000001,7.299883,0.070399106,0.32262412,-0.87168723,-1.4263878
4.275546599999999,7.383967,0.21980686,0.39502037,-1.0750356,-1.9906526999999998
4.46442,7.976694999999999,0.017592594,0.46156980000000003,-1.1628604999999999,-2.4058666
4.4467989999999995,8.535032000000001,-0.20019357,0.5126729999999999,-1.2203517,-2.642219
4.093788,8.730705,-0.47536394,0.5706878000000001,-1.3039355,-2.77263
3.6279912000000003,8.573062,-0.49309063,0.6106209,-1.4386051000000002,-2.8503497
3.2404467999999995,8.395833,-0.39863458,0.58878684,-1.716479,-2.9051877999999998
3.0054990000000004,8.116947,-0.077811554,0.5424831999999999,-2.0257688000000003,-2.9254162
3.4032907,8.163021,0.35119107,0.47167522,-2.3605926,-2.9318042
4.4815817000000004,8.824788,0.5758246,0.36733943,-2.6150444,-2.9376683
5.5860267,9.748299000000001,0.603358,0.24863960000000002,-2.7875178,-2.9349979999999998
5.951564,10.3077755,0.6786890999999999,0.06551966,-3.0366459999999997,-2.8519552000000004
5.409603,10.604819,0.6424409000000001,-0.13515829999999998,-3.2575697999999997,-2.7513544999999997
4.6187887000000005,10.521137,0.6732591,-0.29270917,-3.2862977999999994,-2.6981043999999996
4.0183325,10.5631695,0.75075465,-0.40929717,-3.128206,-2.675223
3.6693822999999997,10.626042,0.7673225,-0.49553388,-2.9402863999999997,-2.5895102000000003
3.5657038999999995,10.719013,0.74643546,-0.49661598,-2.5288076,-2.5304307999999995
3.4331989999999997,10.492953,0.77737814,-0.4438896,-2.0246866000000003,-2.4207716
3.6910737,10.65369,0.5492969,-0.32998940000000004,-1.6068198999999999,-2.2504275000000002
4.386982,10.59393,0.566267,-0.1463284,-1.2528323000000001,-2.0949886
4.2877374,10.585253999999999,0.26785370000000003,0.07670722,-0.8674111999999999,-1.9278383000000001
4.1906767,10.195152,0.24742638,0.24755749999999999,-0.6502399,-1.7181021
4.515426000000001,9.879559,0.3473795,0.36573374,-0.52302283,-1.5264649
5.14014,9.754964,0.43232578,0.4269599,-0.4000469,-1.3071469
5.467361,9.483212,0.5236502000000001,0.42750093,-0.25897196,-1.0377902
5.589657,9.341073,0.7332769,0.39184386,-0.12322024,-0.72211254
6.147659,8.826903999999999,1.1207258999999998,0.34445820000000005,-0.058817595,-0.3840946
5.8959517,8.726272,1.4064786,0.32210052,-0.07852236,-0.01733112
5.565025,8.603572999999999,1.6931986,0.31890655,-0.10459758,0.332939
5.508359,8.411078999999999,1.9485831999999998,0.33007666,-0.030613074,0.667763
5.4592013,8.581278,2.1248446,0.35138714,0.18284069,0.9834407
5.146413,8.928505,2.0212426,0.32316515,0.5363048,1.27142
5.381466400000001,9.089433999999999,2.06995,0.25450389999999995,1.0068804,1.5727162000000001
5.5262485,9.131169,2.0810018,0.19966567,1.5429235000000001,1.8639069
5.5677257,9.193227,1.9954234,0.13843952,2.048109,2.1316577999999997
5.473805400000001,9.456963,1.7533602,0.032515485,2.4292540000000002,2.4377362999999996
5.051296,9.507107000000001,1.6302694,-0.03508112,2.8082697,2.781636
4.5463305,9.293899,1.5157787,-0.08777261,3.2591581,3.0584452
4.415023000000001,8.95443,1.4401698,-0.19956094,3.4002156,3.3490775
4.51964,8.558524,1.5217546,-0.35393533,3.152693,3.5668073
5.062463,9.085785000000001,1.4371914,-0.5466371,2.6778412,3.7169230000000004
5.7249574999999995,9.859888,1.2747591999999999,-0.71111697,2.2184532000000003,3.7893193
6.003327,10.511341,1.2262621999999999,-0.89956015,1.5711454,3.7014942000000004
6.3854604,11.836052,1.0468695,-1.0284003000000002,1.1357032,3.5231564
6.456961,13.065216,0.5444223000000001,-1.0603399,1.0494665,3.2740283
5.477129,13.223904999999998,0.42089108,-1.029465,1.0228502,3.057904
4.9433755999999995,12.990383,0.59316826,-0.9692860000000001,0.8690169,2.767272
4.1602607,12.826983,0.41843942,-0.9139417,0.7593404,2.4238958
3.3085379999999995,12.567432,0.052796938,-0.821317,0.7284655,2.0752313
2.779649,12.363667,-0.38704666,-0.65151393,0.7252715999999999,1.7829933999999998
2.9410757999999997,11.817167,-0.33416352,-0.3395538,0.7529699000000001,1.51896
3.1465461,11.479469,-0.47671428,-0.084578656,0.93076664,1.1798600000000001
3.7369275,11.160494,-0.9107447,0.056478854,1.282625,0.74282956
4.3968844,10.743837,-0.8558984000000001,0.1746551,1.6137313999999998,0.2812947
4.5372900000000005,10.050158999999999,-0.8977681999999999,0.28218484,1.7335133999999999,-0.10035643
4.600736,9.994767,-0.94119895,0.45092326,1.6116021,-0.44584435
4.5569415,10.266442,-0.9994164000000001,0.7064395,1.3369222,-0.88502157
4.2900453,9.868278,-0.8932671,0.94118625,1.1351621,-1.4088123
4.032899,9.275061,-0.56919754,1.0210525,0.9994279,-1.8362783
3.4185847999999996,8.048903,0.34215057,0.97368425,0.5852786999999999,-2.1029646
3.2720978,7.085563700000001,1.4688331000000001,0.8954236999999999,-0.20361010000000002,-2.321218
4.0106997,6.9468336,1.5716211000000002,0.79321724,-1.1101515,-2.4048017999999995
4.9040337,7.732132000000001,1.498502,0.6734353,-1.9070513999999998,-2.339317
5.129491000000001,8.562566,1.2006921999999998,0.53398347,-2.6970224,-2.2621212
4.5982847,8.404568,0.9361136999999998,0.38013270000000005,-3.5114803,-2.2259405
4.5069985,8.37783,0.7118824,0.23055799999999999,-4.1837983,-2.2291172
5.002693700000001,8.592042999999999,0.54944056,0.14590952,-4.511711,-2.2030418
5.2569675,8.858039,-0.04009809,0.12248721,-4.374371,-2.1732316000000003
4.489626,9.145649,-0.8354519,0.057543505,-4.0368767,-2.1780312000000004
3.4975169000000004,9.667356,-1.2797678999999997,-0.048380528,-3.7712550000000005,-2.2152941000000004
3.035685,10.565794,-1.3975052,-0.09044296,-3.0755146,-2.4117134
2.4715822,10.758078,-1.0689343999999998,-0.196367,-2.7124509999999997,-2.4968855
2.2075593,10.431613,-0.4278726,-0.24321163,-2.422866,-2.5581117
2.1130842999999997,10.253245,-0.21938549,-0.17188002,-1.8160151000000002,-2.5937686
2.2261384,10.1381235,-0.070494875,-0.05529203,-1.3012651000000002,-2.5676935000000003
2.8305592999999996,9.612835,0.16519034,0.0522028,-0.97654665,-2.4857153999999997
3.3793870000000004,8.9909935,0.8727056999999999,0.16346754,-0.8407949,-2.2919487999999997
4.39901,8.45745,1.2842593999999998,0.26675612,-0.81630796,-2.0555790000000003
5.010777,8.736557000000001,1.1794412,0.33274699999999996,-0.8424005999999999,-1.8006039
6.0518236,9.186053,0.8282693000000001,0.36255723,-0.87221086,-1.5110188
7.303493,9.289742,1.0577007999999999,0.33648202,-0.8285601999999999,-1.2187808999999998
6.8027215,9.553276,0.4478785,0.30560714,-0.658216,-0.9004503
6.596801299999999,9.475743,0.9257898999999999,0.27844983,-0.52461106,-0.61138886
7.2244844,9.231554,1.5811212,0.24970426,-0.45647340000000003,-0.29785788
6.520302,9.200974,1.5743313,0.20872392,-0.41547564,0.022584561
5.8335776,9.456609,1.769248,0.14165092,-0.37234855,0.35636133
5.325758,9.488939,1.8271397,0.051679197999999996,-0.21158627,0.7034375
4.9190309999999995,9.46697,1.9265566000000003,-0.043057274000000006,0.083828166,1.1032051999999999
4.890281,9.360505,1.9405483000000001,-0.044662975,0.39896482,1.564199
4.9426760000000005,9.489055,1.7330477,0.03783874,0.68268555,1.9969883000000002
5.234807,9.635292,1.6903926,0.11344639999999999,1.0611776000000002,2.3392823
5.434129,9.971811,1.4993927,0.13472196,1.5817919,2.6001043
5.259486,10.061613000000001,1.2676436000000002,0.09267698,2.1508564999999997,2.8055818
5.1630197,10.17779,1.0085431,0.009634216999999999,2.5165553,2.975926
5.152207,10.318588,0.8328374,-0.087231554,2.889183,3.0856025000000002
5.244662,10.616236,0.72633374,-0.18092082,3.1324646,3.1084838
5.5179553,11.077885,0.7416949,-0.3565882,2.9088879,3.1941792999999996
5.0847,10.788464999999999,0.98775184,-0.51576227,2.3611164000000002,3.1814036
4.302754,10.180424,1.2399858,-0.6456497,1.9081161,3.0147946
4.178380000000001,10.197173,1.1959708,-0.81651735,1.2107698,2.86042
4.6211634,10.575726,1.1084005,-0.9203121,0.7865151999999999,2.6799705
5.132785299999999,11.209833999999999,0.91766876,-0.9027540999999999,0.7566875,2.424978
5.3461566,11.780324,0.5695423000000001,-0.8718792,0.74178237,2.2056598999999997
4.8044353,11.893857,0.12227667,-0.84365726,0.7833211999999999,1.9693073
4.9411535,11.592993,0.16407944,-0.8207760000000001,0.8977625,1.7292372999999999
4.1565447,11.253427499999999,-0.11277647,-0.79096574,0.9568418,1.4689214
3.0235798,10.909736,-0.5039316,-0.7233691999999999,0.80566144,1.1968944
3.1513917,10.404013,-0.35356614,-0.6365914,0.46177920000000006,0.8263959000000001
3.5439355000000003,10.260676,-0.6528414,-0.5849646,0.17167059,0.40746456
3.4510887,10.008567999999999,-0.9706667999999999,-0.48912853,-0.04283038,0.021013765
4.2676167000000005,9.368646,-0.6022854000000001,-0.35232959999999997,-0.18177605,-0.32073915
4.1609025,8.514097,-0.24321258,-0.19315559,-0.33030355,-0.76735145
4.3360043,8.358646,-0.083212875,-0.063268185,-0.45593235,-1.3465215
4.100396,7.9955997000000005,-0.18464084,0.04209734,-0.5315226,-1.8841702
3.9107656000000004,7.642713499999999,-0.32914525,0.16400859,-0.6140243000000001,-2.2307227000000003
3.645402,7.181494,-0.45748407,0.35405749999999997,-0.79768527,-2.4170368
3.5161822,7.117291499999999,-0.45559743,0.5882632,-0.96483546,-2.4708102000000003
4.1186686,7.685253599999999,-0.61143124,0.7756592,-0.9802642,-2.4101076
4.665399,8.636173,-0.48243165,0.8629606,-0.88498664,-2.3041837000000003
4.6745253,9.217514,-0.09213846,0.8815833000000001,-0.82908374,-2.2253995
4.6097,9.326814,0.27794766,0.87893033,-0.9163851000000001,-2.1700377
5.1672235,10.208138,0.2975514,0.82993895,-1.0297792,-2.242975
5.884306,11.619032,0.14924496,0.7394611,-1.2032998,-2.3079011
5.9660725999999995,12.241889,0.008082825,0.6063623,-1.5466583999999999,-2.3473108
4.979786,11.687363000000001,0.16568834,0.45039967,-1.8085625,-2.3180242
3.9946299,10.801211,0.33452743,0.30560714,-2.0289452,-2.3366467999999996
3.204007,9.988245,0.70709395,0.14165092,-2.335041,-2.3073776
2.7036569999999998,9.637734,1.0536115,0.016022123,-2.5841694,-2.257339
2.411871,9.162562,1.2360688,-0.031346112,-2.4532173,-2.2174234
2.3210827999999997,8.800549,1.1453574,-0.016441,-2.0433269,-2.0859303
2.9892950000000003,9.125221,0.77124894,0.048502699999999996,-1.6435417,-1.8666121999999998
3.6185292999999996,9.427284,0.3386455,0.11876965,-1.3544976999999998,-1.6616581999999998
4.035953500000001,9.197307,0.2332527,0.1836959,-1.0979168,-1.4386226
3.9125662000000005,8.695395,0.22331198,0.27314404,-0.8567646999999999,-1.1932118
4.094133,8.557594,0.46038583,0.3663097,-0.6028366999999999,-1.0074215
4.3139973,8.669039999999999,0.40906373,0.42964769999999997,-0.3127281,-0.89884454
4.212464,8.889173,0.45348096,0.41474259999999996,-0.024731316,-0.8136725
4.77988,9.023430000000001,0.8767184000000001,0.32742378,0.15037757,-0.66994464
5.435728500000001,8.791241000000001,1.5796944,0.24865706,0.22010347,-0.4458269
5.5089239999999995,8.551408,2.1098470000000002,0.17784905,0.1892286,-0.20256291
5.2952943,8.813439,2.2716856,0.13899802,0.27813566,0.0013089969
5.293666,8.872489999999999,2.3176544,0.10864674,0.499042,0.24031438
4.9725842,8.304193,2.4475922999999997,0.021345377000000002,0.8184372,0.56236255
4.8394575,7.9876413,2.4134029999999997,-0.06806784,1.1931943999999999,1.0419965
5.3258634,8.169198,2.2320375,-0.089360856,1.5408115,1.5823154
6.0238879999999995,8.877509,1.8837867,-0.10904817,1.9799712999999999,2.0097642
6.4791503,9.648738,1.5039802,-0.13194689,2.673059,2.3467347999999997
6.2306414000000006,9.922222999999999,1.1732354,-0.20114920000000003,3.4380193,2.6320438
5.6931725,10.282100999999999,0.9346964,-0.4007625,3.5503487999999996,2.9179112999999997
5.561041,10.907783,0.62802786,-0.6115634,3.4673059999999998,3.0706973
5.6854916,10.916400999999999,0.68432987,-0.90329516,2.9567971,3.265511
5.751370400000001,10.958941000000001,0.7379886999999999,-1.1838218999999999,1.9155687,3.4763292999999997
5.5024120000000005,10.544496,0.8717863000000001,-1.3025216999999998,1.1240094999999999,3.6152575
4.676843,9.973412,1.1229093,-1.3381963,0.5336519000000001,3.5646953999999997
4.5705404000000005,10.813689,0.94524044,-1.3695948,0.11259119,3.3767757000000005
5.3087206,12.109144,0.6304699,-1.3350023000000002,0.011431906,3.2282658
5.8715496,13.190538,0.52794063,-1.2285371999999999,0.08915142,3.0387578
5.402382,13.831610000000001,-0.029525295,-1.1204665,0.31965706,2.8098577999999996
4.38635,14.084543,-0.8833837999999999,-1.0070899,0.64756954,2.5436777999999998
3.7993202000000004,13.632862,-0.8894171999999999,-0.8899783000000001,0.9621651,2.2556984
2.4242826,12.579442,-1.3990662,-0.7733903,1.0878113999999999,1.9288506999999997
1.7465509999999997,11.431279,-1.2214258999999998,-0.6307444999999999,1.0153976999999998,1.5562228
2.3563827999999996,10.442665,-0.72634333,-0.51468015,0.8014203000000001,1.1537848
3.1889715,9.869953,-0.8033887,-0.39065704,0.47296676,0.73111844
3.9018589999999995,9.407938,-0.9054009,-0.24479988,0.15037757,0.33773866
4.227729,8.646218,-0.4765036,5.2359880000000005e-05,-0.07956956,-0.044453535
4.5959387000000005,8.46154,-0.47506708,0.28963740000000004,-0.22116812,-0.55709165
4.671614,7.990265400000001,-0.4357926,0.5414359999999999,-0.24565509,-1.1687248
4.742942299999999,7.901555,-0.46938804,0.77831215,-0.1328021,-1.7920866000000002
4.4699845,7.814464,-0.58272,1.0034945,0.019425515,-2.3052482999999997
4.171341,7.706274499999999,-0.6535213000000001,1.1860734,0.10405653,-2.7321732000000005
4.019347,7.8984426999999995,-0.74155134,1.325019,0.17325884,-3.0563507000000003
4.1560946,8.321,-0.8702923,1.419773,0.28824112,-3.2139192000000003
4.297688,8.8064,-0.90928906,1.4596886999999998,0.28878218,-3.2043371
4.3190919999999995,8.731002,-0.60096383,1.4857813,0.042847835,-3.0430338
4.66855,8.8480215,0.068761475,1.4873695,-0.45272094,-2.8338387000000003
5.372397,9.369086,0.4061332,1.4064561000000002,-1.0303028,-2.6682942
5.9699516,9.536669999999999,0.5749436,1.2632693000000002,-1.5945677,-2.5714111
5.9644547,9.467842,0.7857483000000001,1.0450158999999999,-2.2072656000000004,-2.4569522999999998
5.697003,9.808603,0.6483211,0.8310211,-2.683182,-2.3872263
5.4606953,10.092288,0.38078340000000005,0.6148795,-3.0254583,-2.3201535
4.885857,9.908988,0.37226963,0.39664352,-3.318761,-2.211018
4.0359826000000005,9.754763,0.4683633,0.19753636,-3.3730757000000007,-2.1093526000000002
2.790356,9.389762,0.46184152,0.17039649,-2.9189932,-2.0241804
1.688075,9.131926,0.57926273,0.25237462,-2.3057543999999996,-1.8687415
1.3213981000000001,9.3443775,0.28848216,0.3700098,-1.7824872999999999,-1.6877508
1.6798389999999999,9.535876,0.2891238,0.4967207,-1.4146417,-1.494508
2.1473402999999998,9.475082,0.20733786,0.6106383000000001,-1.1101515,-1.3044765
2.5182405,9.342089,0.15095920000000002,0.695793,-0.80300856,-1.1314795
3.1540062,9.352307000000001,0.20898508,0.7687303000000001,-0.49638909999999997,-0.99253386
3.8693937999999997,9.514223,0.34903628,0.79056436,-0.1328021,-0.90575606
4.315319000000001,9.699475999999999,0.3253337,0.71764445,0.28719392,-0.7854505
5.299968,10.000686,0.70492005,0.5936039000000001,0.6550220999999999,-0.5826433000000001
5.83783,9.734958,1.3890584,0.41208968,0.74658203,-0.27068309999999995
5.7169894999999995,9.314566000000001,1.8338339,0.23801056,0.75084066,0.06305875
5.5629754,9.024128999999999,2.0824192,0.056478854,0.7306123000000001,0.40374702
5.39156,8.774739,2.2389905,-0.12023573,0.81632537,0.759864
5.452880400000001,8.60319,2.425451,-0.28845057,1.0548072,1.1292978999999999
5.5309696,8.5269785,2.3424772999999997,-0.43963100000000005,1.3342693,1.5455763
5.9067445,8.771416,2.2695787,-0.55567795,1.5189948999999998,1.9347148999999997
6.7141649999999995,9.362525,2.0233781000000004,-0.65573764,1.6478177,2.2732740000000002
6.943702,9.662366,1.7206074,-0.774996,1.9198272,2.4675639
6.510035500000001,9.799783,1.3586328,-0.9080599,2.3605926,2.6097035
5.6587629999999995,10.17053,0.9327139000000001,-1.0720161,2.5623527000000004,2.7358735
5.2858806,10.661581,0.7933044,-1.2391663,2.454282,2.8795838
4.967691,10.89674,0.72306806,-1.4324092,1.7941985,3.1020958
4.967681,10.98408,0.7959954,-1.5569733000000001,0.77745694,3.3017266000000003
4.830809599999999,10.978765,0.8274553,-1.5463268000000001,0.07850491,3.4145796
4.540603599999999,11.231459,0.6281140000000001,-1.4611546999999998,-0.09286897,3.332078
4.515244,11.902830999999999,0.24091415,-1.3978168,-0.07637561,3.1223242
4.793757,13.121843,-0.06680781,-1.2641944,0.19083429999999998,2.9455922
5.5057926,14.285992000000002,-0.2635537,-1.1332598,0.50010663,2.7118926
5.274962400000001,14.226049,-0.51302,-1.0518053,0.76361644,2.4079435
4.312149,13.49894,-0.56301093,-1.0140014000000002,0.9520596,2.1194232000000004
2.962384,12.553192,-0.563394,-1.0097426999999999,0.98347557,1.8404846000000001
2.1413453,11.493471000000001,-0.59817696,-1.0321004,0.8291011999999999,1.5982851999999999
1.5223867,10.092412,-0.64200044,-0.98632044,0.53312826,1.3518099
2.9142987999999996,9.426891,-0.09652463,-0.8106531,0.20308651,1.0601129999999999
3.8002207,9.138573,-0.2524638,-0.552484,-0.070511304,0.6922674
4.679276,8.932105,-0.45161346,-0.2575757,-0.18816395,0.28609437
4.6384974,8.608746,-0.39435375,0.04478515,-0.13386676,-0.16528268
4.930408,8.578424,-0.7413693,0.33702308,-0.025795966,-0.73275906
4.741218,8.314794000000001,-1.0780995,0.63245493,0.11630874,-1.3907132
4.3640075,8.17164,-1.2335023,0.855508,0.40269983,-1.9815770000000001
3.8301578000000003,8.113566,-1.2228816,1.1003777,0.68643796,-2.3989377
3.3170037000000003,7.9582690000000005,-1.0213568000000002,1.3803809,0.81152576,-2.729503
3.2131145,7.7459416,-0.69681805,1.5736063,0.8706226,-3.0180233
3.4984074,7.640233,-0.12679692,1.669966,0.88976884,-3.1271589
4.183082,8.011142999999999,0.22375251,1.7306336,0.767334,-2.986625
4.806743,8.404405,0.61888194,1.7428858,0.38034216,-2.6587124
5.5115576,8.682025999999999,0.99445564,1.694994,-0.15887733,-2.323871
6.2909665,9.366778,1.1767788000000001,1.6018282,-0.767334,-2.1774902000000003
7.017137,10.344264,1.1909908,1.4974926000000002,-1.2964655,-2.1029646
6.7501936,10.577823,1.0703614,1.3974153,-1.5503759,-2.101359
5.8180537,10.37985,1.1892383,1.2254655,-1.8160151000000002,-2.0305684
5.459881299999999,10.666753,0.9794392,1.0524684,-2.081113,-2.0092754
5.088387,10.7515745,0.64994913,0.79534656,-2.3754804,-1.9938293000000002
3.6669497000000004,9.919915,0.75516,0.49830896,-2.7081926,-1.9629543999999999
1.8897817,9.084875,1.045318,0.25769785,-2.905694,-1.9853294999999997
0.6002264,8.879548,1.1109383,0.11079349999999999,-2.8338213,-2.006064
0.5885235,9.098646,1.0597694,0.03520329,-2.6256732999999994,-1.9549607
1.298117,9.262353,0.8737591,0.037315138,-2.4627817000000003,-1.8458427
2.1267407000000005,8.94604,0.8947419,0.050631999999999996,-2.337694,-1.6520764
2.4706627999999995,8.666023,0.76221806,0.06447246,-2.019346,-1.426894
3.0217986,8.803298,0.60262054,0.13632767,-1.4545748,-1.2310157
3.504843,8.937315,0.5236980999999999,0.21989404,-0.7455174,-1.0942167
4.0582867,9.366778,0.45071325,0.24865706,-0.09712757,-0.90256214
4.62103,9.774433,0.5458301,0.22788765,0.41282272,-0.6135181
5.3320594,9.893013999999999,0.91028506,0.14751522,0.7380648,-0.28558823
5.889401,9.722394,1.3136123,0.027209682000000002,0.89936817,0.052935835
5.8535265999999995,9.433471,1.7471831000000002,-0.22509511,1.1330503,0.40215877
5.5799265,9.063336999999999,2.197906,-0.5870764,1.5253828999999999,0.8557
5.4203005,8.7537565,2.5576298,-0.78457785,1.713285,1.4593396
5.7231190000000005,8.407096000000001,2.9015522000000002,-0.7632674,1.4721503,2.0603437
6.35764,8.450526,3.2196841,-0.70366436,1.0877940000000001,2.5234667999999996
6.9408,8.882517,3.030887,-0.6435029000000001,0.86529934,2.9397453999999996
6.754349700000001,9.107419,2.6513677,-0.6078284,0.81259036,3.2862977999999994
6.411528,9.63262,2.135944,-0.6520201,0.8104610999999999,3.5396848
5.876549,10.081619,1.6381798,-0.70047045,0.8828573000000001,3.7259812000000005
5.8462863,11.08208,1.1549916,-0.69886476,1.0851411,3.8175411
6.3395779999999995,12.409502,0.68513435,-0.72548103,1.1388972,3.8106296000000004
6.0011529999999995,13.1946945,0.351555,-0.6791774,1.2794485,3.6780720000000002
3.9611970999999997,12.729051,0.27130136,-0.63817966,1.4439284,3.4507778
2.6887078,13.103418,-0.22822489,-0.60465187,1.673893,3.1952615
2.4992688,13.163523000000001,-0.28789797,-0.60730475,1.9198272,2.9078057
2.6050158,12.45412,0.2928396,-0.6301859999999999,2.0875185000000003,2.602251
3.1839626,12.490903999999999,0.3544855,-0.63765603,2.1215699,2.3344827
3.8163671000000003,12.040536,0.2901006,-0.6365914,2.0640962,2.110906
4.4165363,11.562012,0.3604614,-0.6536258,1.8623362,1.8495429
4.861101000000001,11.081122,0.22201912,-0.6488261,1.4923787,1.6099964
5.1146564,10.475131,0.05073792,-0.55833083,1.0468136000000001,1.4300704
5.1728835,9.760451,-0.04720408,-0.4300317,0.59168404,1.2773018
5.329895,9.491324,-0.33679715,-0.29003882,0.16582373,1.0510547
5.2460116999999995,9.381047,-0.5044582999999999,-0.16866861,-0.116291285,0.6869441
5.213049,9.149011,-0.7582437,-0.044087015,-0.1918815,0.2568252
4.7321587,8.970499,-0.87044555,0.14805628,-0.21530381,-0.1988279
3.9952714,8.602003,-0.8696315,0.36098644,-0.28557077,-0.74766415
3.6549977999999994,8.635473,-1.0094337,0.5297248999999999,-0.30579913,-1.3694028
3.4089985,8.785064,-1.3212163000000001,0.72296774,-0.3175103,-1.9208918999999998
2.9439392000000004,8.758401,-1.3049453000000002,0.97581357,-0.43994513,-2.3680627
2.4872406000000002,8.264344,-0.8442626,1.2302651000000002,-0.6337116,-2.7332206
2.4205477,8.058308,-0.655044,1.4123378999999998,-0.78702134,-3.0009716
3.1190029999999997,8.4011,-0.4709682,1.5182619,-0.9334195,-3.1617512999999997
4.11592,8.8177395,-0.37716338,1.5821235,-1.0441432,-3.1825206
4.7660317,8.808622,-0.20294210000000001,1.578406,-1.1543258,-3.1207535
5.0245485,9.150553,0.15713625,1.4879106000000002,-1.1420912,-3.044116
5.6273026,10.270292,0.13109691,1.4043268,-0.87112874,-2.949362
5.7820735,10.2512245,0.36295143,1.2707218999999998,-0.97387624,-2.7939055
5.172558,9.688922999999999,0.76979333,1.0939898000000001,-1.3874844,-2.680529
4.702375,10.144434,0.9570485999999999,0.8869065,-1.9533551,-2.595898
4.356978,10.598891,1.0687143,0.6409895999999999,-2.4414887000000003,-2.5602236
4.014942,10.489975,1.3032501,0.4237834,-2.6932874,-2.4457822
3.1454735,9.892783999999999,1.6681264999999998,0.28379053,-2.6469662,-2.3488815
2.6451523,9.848395,1.8687798,0.20074777,-2.4297776,-2.2189941
2.8639919999999996,10.398372,1.5529749,0.16348499,-2.1630912,-2.0412150000000002
3.3651269999999998,10.237347999999999,1.5348268999999999,0.15763813,-1.9224627,-1.7686468000000002
3.6242085,9.853146,1.4842997,0.15336208,-1.6669638999999998,-1.476409
3.068926,9.838934,0.7652156,0.17041394,-1.3443748,-1.2182224
3.1674425999999998,10.031953999999999,0.6841096,0.21458822,-1.0042101,-1.0127448000000001
3.2672234,10.049997,0.62607414,0.25930357,-0.70984286,-0.85039425
3.7862191,10.235758,0.7791115,0.23055799999999999,-0.46123815,-0.6869616
4.585049,10.169669,0.98736876,0.16189674,-0.32974505,-0.44902086
5.241846,9.698259,1.2421309999999999,0.09641199,-0.27492425,-0.15837118
5.379264,9.498172,1.5695045,0.07246607,-0.20413370000000003,0.15568337
5.3616905,9.016248,2.0538707,0.07831292599999999,-0.12906710000000002,0.4756022
5.1286197,8.624929,2.2266169999999996,0.06127851,0.016772615,0.767334
5.1499467,8.194825999999999,2.464486,0.027750734,0.28825858,1.0659598
5.320644000000001,8.0684595,2.4576,-0.047298424000000006,0.67153287,1.4077127
5.562774,8.278412,2.3250189999999997,-0.15430456,1.1218801999999999,1.7803406000000002
6.0168870000000005,8.881713000000001,2.0177853,-0.16547467,1.643018,2.1811728
6.142151999999999,9.378442999999999,1.6547093000000002,-0.14844026,2.0577083,2.5495419999999998
5.72716,9.532886999999999,1.4033468999999998,-0.18570304,2.5564885,2.8503146
5.319667,9.579508,1.3043132,-0.22722441,3.0664563,3.1079602000000004
4.866521400000001,9.459137,1.197934,-0.34592426,3.309214,3.2873626000000002
4.7196803,9.590933,1.1197298999999998,-0.53490853,3.0653915,3.4667475
5.1486925999999995,9.915347,1.0024523,-0.7244164000000001,2.4910212000000005,3.6078050000000004
5.535337,10.39096,1.0564846,-0.8878315,1.8735237,3.7595264999999998
5.9498690000000005,11.521205,0.80962324,-0.94479907,1.4833205,3.7126818
5.881261,12.316224,0.64366674,-1.0406176999999999,1.0260617,3.5849237
5.421871,12.769351,0.67362297,-1.0555228,0.75031704,3.3847693999999997
5.268326,13.796510999999999,0.24430433,-0.98471475,0.6789854000000001,3.2793688999999997
5.1531262,14.005304,0.36314294,-0.92881185,0.73914695,3.0031008999999997
4.7999144,14.140088,0.058466405,-0.9133831,0.8248426,2.4744928
4.2168503,13.9949045,-0.25623703,-0.8830493,0.9164026,1.9086223000000002
3.3763704,13.450941,-0.68751895,-0.8260818000000001,0.9706998,1.5179129
2.5950656000000003,12.562864,-0.8528242,-0.7403860999999999,0.9153379,1.2192695
2.8094234,11.503373,-0.5869434,-0.6493671999999999,0.77852154,0.82374305
3.4517207,10.69082,-0.50359637,-0.55887187,0.6151064,0.35796702
3.5858247000000003,9.762692,-0.84684825,-0.41299725,0.40430552,-0.12269664599999999
3.8259248999999995,8.815786,-0.4485872,-0.227748,0.20786871,-0.5134234999999999
3.7312962999999995,7.874031,-0.24133553,0.011239921000000002,0.09236282,-0.87701046
4.337747599999999,7.910883,-0.43992978,0.2279051,0.070005156,-1.3646206
4.6350975,7.53348,-0.4236109,0.39664352,0.10992084,-1.8671358
4.391493,7.540528999999999,-0.52195513,0.60159755,0.10620329,-2.2626447999999995
3.9585252,7.816244999999999,-0.49626055,0.8102691,0.03487168,-2.5586178
3.7202349999999997,8.228335000000001,-0.5838309,0.9800722,-0.13226105,-2.780065
3.7144125,8.605795,-0.646626,1.0886666,-0.41067597,-2.9546678
3.6667389999999997,8.726138,-0.5581649999999999,1.1360523,-0.7508232,-3.0100298
3.620646,9.126619999999999,-0.36823779999999995,1.1163476,-1.18733,-2.9120994
3.5934765,9.188438,0.10337205,1.0572681000000002,-1.7409484,-2.7859293999999997
4.086901999999999,9.813469,0.583534,0.9694257,-2.110906,-2.7236385
4.586218,10.575467,0.62740535,0.84273225,-2.379739,-2.6911755
4.4214964000000005,10.334169000000001,0.70032316,0.7069979999999999,-2.5224022999999995,-2.6453955000000002
4.1254296,10.435769,0.6911486,0.59041,-2.5772405,-2.5761933
4.0985955999999995,11.294226,0.37520012,0.46903977,-2.6278026000000003,-2.5085967
3.8157062999999996,11.551888,0.18154754,0.35672784,-2.6831644,-2.4654696
3.2124825,11.108531,0.32857066,0.25399777,-2.6506839,-2.4207542
2.3774903,10.448947,0.48172295,0.20554742,-2.3877325000000003,-2.3813622000000003
1.9017143,10.112553,0.5798278,0.21886429,-1.9698484,-2.3446229
2.1998403,10.149337,0.5125986,0.27101472,-1.6531061000000002,-2.2269878
2.662065,10.284945,0.5554452,0.32105333,-1.413036,-2.066749
3.1481357000000005,9.790666,0.53284395,0.3796091,-1.1538023000000002,-1.8208147000000001
3.4729714,9.537245,0.74534374,0.44083527,-0.9584301,-1.5328354
4.046086,9.454425,0.7799159999999999,0.5079083,-0.784892,-1.2789073999999998
4.2816753,9.684106,0.5879393,0.5648584,-0.56079173,-1.0766238000000001
4.694244,9.607567999999999,0.6614126,0.5419771,-0.30845204,-0.90575606
5.21007,9.718716,0.9324458000000001,0.45039967,-0.007173303000000001,-0.6757915
5.725111,9.385788,1.3868461,0.33169982,0.20893337,-0.326586
5.9085735999999995,9.332426,1.620683,0.23961625,0.28932324,0.087545715
5.8128157,9.221536,1.867937,0.15924384,0.34522614,0.46710247
5.6159163,9.275722,2.1345074,0.05490806,0.52141714,0.8178962
5.2732964,9.211328,2.4138627,-0.08030259599999999,0.7966206,1.1958473
5.031434,9.088992999999999,2.4546602,-0.19793779,1.0383139000000001,1.6286365
5.1851416,8.911277,2.4539802,-0.26342255,1.1793714,2.0544968
5.8013325,9.214794,2.3259478,-0.29962066,1.2964829,2.3957088
6.3025345999999995,9.688539500000001,2.052683,-0.34220672,1.6052316,2.6384492
6.393476000000001,9.897467,1.9656205000000002,-0.42685518,2.0465207,2.8673491
5.6281075,9.594419,1.7807113999999997,-0.54661965,2.3797565,3.095708
4.9512377,9.631654,1.5289754999999998,-0.6568023000000001,2.6331434,3.1952615
4.915545,10.01326,1.2755636000000001,-0.71855205,2.8961296,3.2224188
5.1922474,10.544437,1.092503,-0.8713207000000001,2.7646365,3.3038733000000002
5.1303434,10.914897999999999,0.96949846,-1.0177189,2.1524622000000004,3.4193792000000003
4.664326,11.182713,0.8083781999999999,-1.0863976,1.3587563,3.4986870000000003
4.4090657,11.584594000000001,0.56529015,-1.1044793,0.7551167,3.435349
4.696073,12.207469999999999,0.41299020000000003,-1.0906388,0.6800501,3.1659923
5.346319,12.947478,0.43476787,-1.0571110000000001,0.71198964,2.9567797000000002
5.1432242,13.724626999999998,0.23431574,-0.9793915000000001,0.870099,2.7848473
5.098337,14.1937475,-0.039906554,-0.89209014,1.0580011999999999,2.5495596000000003
4.9775934,13.578695000000002,-0.066386424,-0.8367283000000001,1.2224983999999999,2.279138
4.6325216,13.0034075,-0.039619252,-0.7968126,1.3103234,1.9544197
3.3215718,11.831617999999999,-0.44554177,-0.7361101,1.2310157,1.6057552
2.4030986,10.79626,-0.48758397,-0.6525437,0.9941221,1.2874072
2.3988657000000004,10.052467,-0.56513697,-0.5269149000000001,0.658216,1.0169859
3.7129185,9.719626,-0.6828455,-0.37147588,0.29038787,0.71623075
4.565149,9.464442,-0.65924823,-0.19741419,0.0039968040000000005,0.38138935
4.55901,9.045725,-0.7031579000000001,0.029338984,-0.23020893,-0.002391101
4.2968545,8.598153,-0.6870784000000001,0.29071948,-0.4473977,-0.50384164
4.416363700000001,8.608831,-0.7896076999999999,0.56965804,-0.5075417,-1.0968521999999998
4.429666,8.738023,-1.0127378,0.83901465,-0.36383134,-1.6909273999999999
4.249239,8.744793,-1.0901087999999999,1.1296643,-0.16580628,-2.1721494
3.9820553999999997,8.806295,-1.0327628,1.4197904,-0.011955505,-2.5681996
3.4320498,8.454798,-0.8425388,1.6305913,0.21905628,-2.8753599999999997
3.1780536,8.299211999999999,-0.67922544,1.7578082999999998,0.5155702999999999,-2.9887366
3.413212,8.3756075,-0.6413396,1.8105172999999999,0.69495517,-2.9434977000000004
3.815151,8.151461999999999,-0.36194584,1.8046528999999998,0.61404175,-2.8279742999999997
4.3823657,8.551696000000002,0.07827124,1.7402328,0.20467477,-2.7752828999999997
5.1182,9.716599,0.41751048,1.6385674,-0.3744604,-2.7491903
5.854992,10.518111,0.9039357,1.504945,-0.9919753000000001,-2.6752057000000002
5.7894382,10.290030499999999,1.3690236999999998,1.3346008999999999,-1.6648346,-2.5745876
5.1673098,9.639717,1.7434481,1.0727142,-2.4750166,-2.4159546
4.748066000000001,9.499924,1.8676496999999999,0.7894996999999999,-3.1202123,-2.2738322999999996
4.189096,9.496514,1.9877331999999999,0.53558916,-3.5077279000000003,-2.2211235
3.3210832999999997,9.484514,1.9481523,0.3604454,-3.5205212,-2.1780138
2.3755462000000005,9.334609,1.7966856,0.25877997,-3.173445,-2.0965593
1.9457486000000002,9.777258999999999,1.1481633,0.24013986,-2.6272616,-1.9432496
2.2010472,10.26853,0.50548303,0.28593728,-1.9980529999999999,-1.7367073
2.293473,10.449761,0.18649873,0.375909,-1.3725618,-1.5205832000000001
2.2765793999999997,10.136657000000001,0.15823758,0.4818156,-0.95736545,-1.3465215
2.1441033,10.012112,0.18778203,0.54304177,-0.72579515,-1.2693256000000002
2.0320451,9.9761305,0.31303707,0.5201604999999999,-0.48785442,-1.2267395
2.9825242000000003,10.165934,0.7510898,0.3625747,-0.3217689,-1.1027163999999998
3.9561596,10.099194,0.8998368,0.13634512,-0.24830799,-0.7987499
5.345792299999999,10.043436,1.2142146,-0.00842994,-0.10723303,-0.41921064
5.8133040000000005,9.521788,1.6163638999999999,-0.05475098,-0.10725048,-0.031677727
5.8088794,8.670285,2.1865572999999996,-0.052604225,-0.17058848,0.30899309999999997
5.5223413,8.0201645,2.4023993,-0.05794493,-0.1397136,0.65393996
5.321544599999999,7.840714,2.571545,-0.0813498,0.057229348,1.0436021999999998
5.293283,8.094767,2.2976387000000003,-0.11276572,0.36491343,1.4364583
6.2859383,9.029866,2.180773,-0.14576989999999998,0.7364765999999999,1.7925928
6.8582196,9.646372999999999,2.0387201,-0.17451547,1.152755,2.090154
6.7014759999999995,10.109986,1.8205701,-0.21551326,1.5818093999999998,2.3536637000000002
6.0267324,10.190996,1.6414455000000001,-0.28949776,2.1545916000000003,2.5484948
5.3342433,10.212611,1.5053782,-0.37838740000000004,2.9184873,2.6570892
4.5679455,10.408256,1.2416904,-0.55833083,3.2570287999999996,2.852985
4.416449500000001,10.398477999999999,1.1240586000000001,-0.7595324000000001,3.0952191000000004,2.9924543
4.4172926,9.909342,1.2721926000000001,-0.93254685,2.6746821,3.1553459999999998
4.548504400000001,9.57018,1.4404092,-1.1215137,1.8650064,3.3448536
4.8121824,9.693864,1.3282744,-1.2226555000000001,1.1341324,3.5029457
5.221667299999999,10.415419,1.0437570999999999,-1.1955156,0.7481876999999999,3.4773940000000003
5.611500700000001,11.333538,0.76837593,-1.2045739,0.43411574,3.3193019999999995
5.954341400000001,12.698003,0.44562796,-1.1518648999999999,0.33990288,3.163322
6.5470405,13.862322,0.25755864,-1.0251715000000001,0.39420006,3.021741
6.220979,14.521331,0.12538913,-0.8324697,0.49586549999999996,2.85672
4.8596260000000004,14.599132999999998,-0.66761833,-0.6110223000000001,0.73062974,2.6198266
3.8912961000000004,14.090432,-0.72076005,-0.43483132,1.0324495,2.3509933999999997
3.039152,13.070311,-0.78842974,-0.34112459999999994,1.3380044,2.0039346
1.8367548999999999,11.992001,-1.0194224,-0.2666165,1.4774736000000002,1.5950913
2.636964,10.921189,-0.52817047,-0.18622664,1.4269114,1.1564552
3.1012285,10.241763,-0.5975256999999999,-0.08988445,1.2437915000000002,0.6943967
3.8624315,9.781711999999999,-0.79272974,0.0021991148,0.99838066,0.20254546
4.1031346,8.815066999999999,-0.563394,0.118246056,0.7210479000000001,-0.21319197
3.934679,7.986635000000001,-0.34796370000000004,0.29497808,0.35213763,-0.59486055
4.126608,7.4037814,-0.13752295,0.48500955,-0.07689921,-1.1144277
4.2677026,7.2023716,-0.17369455,0.6383367,-0.42343432,-1.7399012999999999
4.3010782999999995,7.3792076,-0.3013917,0.76342446,-0.6816209,-2.3009722000000004
4.403751000000001,7.436428500000001,-0.5958306,0.8656309000000001,-0.87804025,-2.7220504
4.3001776,7.8108053,-0.7652730999999999,0.9534559000000001,-1.0627658000000002,-2.9903424
4.2080965,7.9724617,-0.78426385,1.0088351999999998,-1.2070173,-3.1500225
4.352869,8.4570675,-0.86147213,1.0311929,-1.2714374,-3.2304125
4.405876999999999,8.912808,-0.7191033,1.0508802,-1.2597263,-3.2607636
3.9462,8.590702,-0.30478188,1.0897312,-1.1543258,-3.2485116
3.8602769999999995,8.504472999999999,0.25951230000000003,1.1280761000000001,-1.0670245,-3.1489580000000004
4.486322400000001,8.958039999999999,0.56862295,1.1440284,-0.9621651,-3.0004478
5.2083273000000005,9.489591,0.79955804,1.0902723,-1.0712831,-2.7172508
5.4208364,10.046644,0.8111938,0.9854129,-1.391202,-2.4968681
5.2089977,10.55458,0.7687495,0.8890707,-1.6940863999999998,-2.3297179
4.484196,10.276833,1.0059478000000002,0.7597069000000001,-1.9304389,-2.2621037999999998
3.9786174,9.956114999999999,1.1949077,0.64898324,-2.0917423,-2.2237937000000003
3.7796687999999996,10.470936,1.1641183000000002,0.55955255,-2.1321988,-2.2094123
3.8096154,10.894116,1.2781398000000002,0.46692795,-2.2434638,-2.131693
3.9511222999999998,11.140191,1.3666198,0.3657861,-2.3280947,-2.027357
3.902271,10.804371000000002,1.1967944,0.26783824,-2.2935022999999997,-1.893211
3.3972285,9.966908,1.2257163999999998,0.19277161,-2.1678734,-1.7143496
2.7238162,9.248495,0.96246904,0.14540339,-1.98793,-1.4763913999999998
2.7555346000000003,9.119304,0.76909417,0.13049826,-1.8037453999999997,-1.219287
3.0880509999999997,9.018105499999999,0.6290717,0.16137314,-1.5583521,-0.9403485
3.8304449999999997,9.117934,0.492516,0.20022418,-1.1569787,-0.7061253000000001
4.350188,9.137845,0.3921511,0.22312289999999999,-0.65339893,-0.48574257
4.7227926,9.105167999999999,0.52317137,0.25026277,-0.088610366,-0.16741198
4.729918,9.188410000000001,0.7072759,0.28326693,0.3201981,0.22542672
4.884784,9.190564,1.1345643,0.28806659999999995,0.51769954,0.5490805999999999
5.103193,9.284303,1.5565854,0.24226916,0.67153287,0.8067261
5.2134027000000005,9.277101,1.9172767,0.14327408,0.8796809000000001,1.0526605
5.1924777,9.474948,2.164914,0.017104227,1.1085808000000001,1.3182821000000002
5.124875,9.584162,2.4095150000000003,-0.115959674,1.3699438999999998,1.550917
5.3892617,9.670478,2.667543,-0.22347195,1.7825048,1.7494831000000002
5.981635,9.752933500000001,2.7530252999999996,-0.33367205,2.1902661,1.9922235000000001
6.2408795,9.605527,2.7258942000000004,-0.4880464,2.4393942,2.283938
5.7176504,9.29455,2.4129722,-0.62220985,2.6704235,2.5341134
5.0090055,9.536133999999999,1.9216055,-0.75527376,2.7172682,2.76516
4.877401,9.850483,1.3894414,-0.8867669,2.6294258,2.975961
5.079537999999999,10.04902,1.113074,-0.9282883,2.60548,3.14257
5.275307700000001,10.203292999999999,0.9599312,-1.0597638999999999,2.1668437000000003,3.3751873999999997
5.3576393,10.552147999999999,0.75998664,-1.1444124,1.4508573,3.5327559
5.7373023000000005,11.369902,0.47317088,-1.1555825000000002,1.0196737,3.4891226000000004
5.88151,12.032942,0.38651034,-1.1790048,0.6773971999999999,3.3682760999999997
5.534054,13.064939,0.05490383,-1.1800694,0.460732,3.1787682
5.06275,13.599381,-0.14143987,-1.1183372,0.42401028,2.9913895
4.8089747,14.095842999999999,-0.34088644,-1.0528524,0.41441098,2.7294855
3.8430386,13.748895000000001,-0.67176515,-0.96501,0.45701447,2.4313834
3.717879,12.721160000000001,-0.393013,-0.8697325,0.58316684,2.115182
2.6355755000000003,11.911536,-0.5022173,-0.7808254,0.73008865,1.7329723000000001
2.15255,11.118452,-0.7325778000000001,-0.6717074000000001,0.8349655,1.2698492000000001
1.9700258000000002,10.32962,-0.76709265,-0.492305,0.87755156,0.84292424
3.2446412999999996,9.797687,-0.5421526,-0.28682742,0.92279047,0.44155085
3.7693162000000004,9.532608999999999,-0.81279314,-0.060597833,0.91746724,0.052412238
4.1086415999999994,8.886319,-0.7569412,0.21619393,0.82164866,-0.40748203
4.366832700000001,8.401618,-0.6499874,0.49035025,0.75457567,-0.96802944
4.6825895,8.495882,-0.7579180999999999,0.71286225,0.7354294,-1.4886436
4.6699475999999995,8.383078,-0.61535776,0.90661126,0.64437556,-1.8713944
4.6105237,8.439973,-0.59734374,1.0711086,0.43198645,-2.115182
4.693544999999999,8.734316999999999,-0.6492309,1.2281532,0.13069025,-2.2818085999999997
4.6826754,9.135392,-0.36303759999999996,1.3591053,-0.15194836,-2.347817
4.437681700000001,9.550519,0.115094066,1.4384131000000002,-0.39896482,-2.3579397
4.1470065,9.678714,0.36016455,1.4261783000000001,-0.6358409,-2.3456876
4.0191273999999995,9.865164,0.626055,1.3963506,-0.93767816,-2.3813622000000003
4.551789299999999,10.135987,0.881229,1.3383359,-1.2240517,-2.4393768
5.206565,10.46134,0.9231466999999999,1.2595518,-1.5093782,-2.4521527
5.0278044,10.273069,0.8873869000000001,1.1440458,-1.8484782,-2.4473531000000004
4.169167,9.987144,0.811711,0.996583,-2.2062008,-2.3169419999999996
3.3252203000000002,9.825842,0.6660189999999999,0.85924304,-2.5575356,-2.2967136000000004
2.720723,9.544984,0.58689547,0.7405432,-2.735856,-2.3116187999999998
2.370882,9.370742,0.5647634,0.66388834,-2.7140392999999996,-2.3265238
2.3091502,9.867664,0.44724646,0.55581754,-2.7033927,-2.3637867000000004
2.3397862999999997,10.070079,0.38464287,0.5079083,-2.440424,-2.3893383
2.5834297999999998,10.264775,0.3111313,0.45467573,-2.1487098,-2.3382351000000003
2.9597792999999997,10.18885,0.21875341,0.4238183,-1.8894585,-2.2567806
3.1554906000000003,9.658009,0.29903579999999996,0.43444735,-1.6366127000000001,-2.1056175
2.8485252999999995,9.170042,0.41095036,0.51536083,-1.3837494,-1.8825644
2.5433795,8.940218,0.61902565,0.6170437,-1.0680891000000001,-1.6728283
3.3407730000000004,8.909448,0.64417434,0.66442937,-0.78648025,-1.4002776000000001
3.880436,8.891827000000001,0.8071524,0.70434505,-0.42662829999999996,-1.0532013999999998
4.4353924000000005,9.033907000000001,0.82260936,0.67879343,-0.1248085,-0.64756954
4.989258,8.932326,0.9262879,0.6394014,0.24195500000000003,-0.29995229999999995
5.383467700000001,9.031255,1.3368169,0.5882807,0.60765386,0.025272367999999996
5.5223413,9.102688,1.5300768999999999,0.49673817,0.7939676999999999,0.33827972
5.650756400000001,9.139511,1.8209436,0.36898005,0.85412925,0.633188
5.417006,9.066421,2.1711674,0.19277161,0.9286548000000001,0.92383766
5.2969127,9.321307000000001,2.4968266,-0.07389724,1.1905589,1.2080995
5.626135,9.623838000000001,2.6778092,-0.36613518,1.6520938000000003,1.547723
5.3429866,9.4645,2.8346009999999997,-0.59079397,2.0534496,1.8767002000000002
5.319131,9.344024000000001,2.9707830000000004,-0.79093087,2.2733088,2.1162467
5.2817044,9.322131,2.6491458,-0.93413514,2.5027322999999995,2.2897847000000002
5.4709325,9.31356,2.241289,-1.0650872,2.592704,2.545842
5.2501206,9.317658,1.5969421999999998,-1.1795459,2.5538355999999998,2.7784595000000003
5.046067,9.742647999999999,1.0121726999999998,-1.3088923000000001,2.500603,2.9418921
5.0136785999999995,9.826360000000001,0.7364948,-1.4989411,1.9656247,3.2213542
5.392346,10.461627,0.69810134,-1.6527744999999998,1.0936756,3.4587712
6.015431400000001,11.368216,0.6217741999999999,-1.7262354,0.38620645,3.6291153
5.844993,11.929492999999999,0.5640739,-1.6751322,0.02316052,3.6461498999999997
5.6278486,12.892192999999999,-0.0014077906,-1.5921068,-0.012496557,3.4758058
5.2694273,13.710367000000002,-0.53934664,-1.4733721000000002,0.1221905,3.2942915
4.854051999999999,13.785985,-0.528362,-1.2423601999999998,0.29305825,3.0882728
4.0471487,13.944051000000002,-0.49818549999999995,-0.90699524,0.6571688,2.8503146
3.351193,13.975558,-0.48863742,-0.56789523,1.1410438999999999,2.5437126
3.2359838,13.15519,-0.09649590400000001,-0.40819759999999994,1.7116967,2.1742613
1.7088470000000002,12.520037,-0.41835323,-0.32302552,2.1130877,1.7159379000000001
1.7290542000000002,11.770719,-0.476494,-0.24691173,2.2104943,1.310306
2.6423366,10.8741865,-0.39517736,-0.12552407,2.0066226,0.99996895
4.0566206,10.61139,-0.43198103,0.061295964,1.6611346000000002,0.7481703000000001
4.5225800000000005,10.438882000000001,-0.7606379,0.26782078,1.292748,0.4410098
4.7733774,9.835859,-0.6128486,0.4536285,0.92493725,0.022078415
4.605706700000001,9.093255000000001,-0.5458014,0.6990218,0.4996005,-0.44528586
4.789045,8.436544,0.10204088,0.9369799999999999,0.10355038,-0.93289596
5.117281,8.532351,-0.018914195,1.137658,-0.22753857,-1.4550983999999998
5.082699,8.798642999999998,-0.46436977,1.2920323999999999,-0.5410695,-1.9709130000000001
4.6347246,8.512661,-0.5802683000000001,1.4102086,-0.8620705,-2.4319243
3.664766,8.369966499999999,-0.9256175999999999,1.5108268,-1.158567,-2.7454553
2.9174113,8.035678,-1.0293919,1.5810763,-1.3991956,-2.8593729
2.580595,7.727056,-0.87552124,1.5496778,-1.5567639,-2.8577847000000003
2.9192502,7.9909835000000005,-0.7693336,1.4282901000000001,-1.6557764,-2.8694959
3.257503,8.289819,-0.45286804,1.2739333000000002,-1.7569182,-2.899306
3.6550937000000006,8.680035,-0.07941088,1.113171,-1.9363031000000002,-2.907282
4.2808514,9.201367,0.021375433,0.97049034,-2.0491561999999997,-2.912082
4.7563405,9.76184,0.13253343,0.81239843,-2.2737974999999997,-2.848744
4.9130645,10.428617,0.071155675,0.6516360999999999,-2.7374616,-2.6714706
4.496464,10.685561,0.06455725400000001,0.5031260999999999,-3.2506057999999998,-2.4670403
3.5532730000000003,10.10652,0.40604702,0.3530103,-3.6163222999999998,-2.2897847000000002
2.8323598,10.082759,0.6874998000000001,0.16989034,-3.8846142,-2.1141174
2.7707617,10.55027,0.67533726,0.06716027,-3.7717612000000003,-1.9916824
3.0171633,10.892919000000001,0.5847024000000001,0.08045968,-3.3065087999999996,-1.8767002000000002
3.3454275,11.62111,0.09828676,0.15392059,-2.641643,-1.7814226000000002
3.8355207,11.816008,-0.1924172,0.26464427,-1.9176805000000001,-1.6754812
4.251307,11.912025,-0.37995023,0.37536797,-1.2815428999999998,-1.5349473
3.9393620000000005,11.357116,-0.43625230000000004,0.43818235,-0.83599526,-1.4029305
3.1905514999999998,10.788349,-0.27406907,0.4440292,-0.55758035,-1.2730431999999998
3.2063916,10.279075,0.16017209,0.4307298,-0.45750317,-1.10324
3.7027,9.835572,0.48984408,0.36791540000000006,-0.4516563,-0.8945685
4.1661696,9.418080999999999,0.5064407,0.280073,-0.3909712,-0.6007249
5.013276599999999,9.049325999999999,0.93044424,0.20980603,-0.24989624,-0.23396139
5.6428075,8.294367,1.3251045,0.20237093,-0.03429572,0.14186037
5.8910290000000005,7.910767999999999,1.5059624,0.22151719,0.2664245,0.47242573
5.971196,7.877757000000001,1.7279146,0.21354103,0.62894684,0.7502996
5.9124235999999994,8.167857000000001,1.7472404,0.15072663,1.0292555,1.0782120000000002
6.0930995999999995,8.879683,1.5928624,0.0458498,1.4173295,1.4321997
6.1999383,9.574929,1.5929198,-0.09731956,1.8139032,1.7729055
6.0428120000000005,10.151483,1.6800496999999999,-0.24317673,2.2099533,2.059279
5.923868,10.272036,1.7956609000000001,-0.4087212,2.5825987,2.2583861
5.6537924,10.048283,2.0032284,-0.6504144000000001,2.8253214,2.3579223
5.3343387,9.803825,2.0243838,-0.92402965,3.0116355,2.4148897999999996
5.1615157,9.712539,1.8920131000000002,-1.2072268,3.0015125,2.4643874
5.3648887,9.823524,1.6193708999999998,-1.5015941000000002,2.555965,2.631014
5.4946833,9.680762,1.3846818,-1.6416043000000002,2.2951255,2.699134
5.3442125,9.442454,1.248289,-1.8492112,1.375267,2.9424157
5.2180285,9.785581,1.1104116000000002,-1.8540109,0.66247463,3.1015723
5.216821700000001,10.548948,0.8871665999999999,-1.7682977999999998,0.17114699,3.2969443999999997
5.4295707,11.844671,0.6028121,-1.6623738000000001,-0.24884905,3.3027914
5.859119000000001,13.463907999999998,0.1467071,-1.5202341000000001,-0.42397538,3.2809746
5.977067,14.580898999999999,-0.5272031999999999,-1.3184916000000002,-0.31538099999999997,3.2229424
5.917461,14.878326000000001,-0.82420874,-1.1428066000000001,-0.01993166,3.0717795
4.6095657,14.783267000000002,-1.4999098999999998,-1.0294302,0.31381020000000004,2.769401
4.1111507000000005,14.040326,-1.318506,-0.8766613999999999,0.5586799,2.343541
3.0815577999999997,13.133823999999999,-1.2459713,-0.675425,0.73008865,1.9278034
1.4682777,12.035086999999999,-1.6607811000000001,-0.46144759999999996,0.8945685,1.6254426000000002
2.2268374,10.516789,-0.5960795999999999,-0.2628815,1.0430960999999999,1.3486334
2.0153143,9.8301325,-0.80993927,-0.10051351,1.1389146,0.96375334
3.006064,9.447214,-0.71679527,0.07405432,1.0835527,0.53895766
3.6198894999999998,8.969302,-0.34882563,0.31894147,0.92333156,0.17805849
4.2446423,8.637313,0.083653405,0.6095911,0.774804,-0.23022638
4.7359324,9.090382,-0.33768776,0.8347561,0.67685616,-0.8019439
4.9697304,9.057619,-0.67255044,1.0381044,0.5576151999999999,-1.4151827
5.0317883000000005,8.778446,-0.6910815,1.2531638,0.39737657,-1.9672129
4.7232330000000005,8.666023,-0.48803409999999997,1.4416069999999999,0.21266837,-2.3573987
4.240428400000001,8.126208,-0.109319255,1.5848113000000001,0.027419122,-2.5724583
4.038893700000001,7.787217599999999,0.03994486,1.6529490000000002,-0.15727162,-2.651766
4.1465273,8.133018,0.010448296999999999,1.6497549999999999,-0.34784412,-2.7332206
3.860564,8.364277000000001,0.14818193,1.6162097,-0.55918604,-2.8253214
3.9148455,8.541352,0.37441483,1.5975697,-0.7944739000000001,-2.8620431
4.700440400000001,9.128689,0.67663974,1.5581776000000003,-1.1223863,-2.8343623
5.461787,9.442636,0.6343581,1.4650294,-1.4449755,-2.73535
5.5589437,8.911946,0.86318636,1.3207779,-1.6110611000000001,-2.6437897999999995
5.224694,8.955186,0.9308943999999999,1.1270114,-2.0241456,-2.4351182000000002
4.5293794,8.869042,0.8001901,0.9066287000000001,-2.5277255000000003,-2.3142717
3.6887274,8.812712,0.825061,0.73626715,-2.948786,-2.1913133
3.250397,9.264804,0.6937631,0.56114084,-3.205367,-2.183337
3.2307742000000004,9.933724,0.4749905,0.39079666,-3.3171554,-2.1460743
3.1551366,10.223711,0.41121850000000004,0.31042427,-3.1462877000000002,-2.0651433
2.9947152000000004,10.579183,0.46886130000000004,0.25132743,-2.8737369,-1.9741243999999998
2.802193,10.511436,0.57297075,0.23057544,-2.4020967,-1.9043811999999998
3.0711286,10.244636,0.8145745,0.23270474,-1.8889349999999998,-1.7665175
2.8964572,9.72745,0.93227345,0.28274333,-1.4902145,-1.5605163999999998
2.6354318,9.454108,0.68032676,0.34236377,-1.208623,-1.3459803999999997
2.8643942000000004,8.977366,0.7603698,0.41263074,-0.8828398999999999,-1.152755
3.593122,8.993273,0.75561005,0.4535936,-0.4426155,-0.9706998
4.127623000000001,9.128057,0.45689988,0.45413467,0.0055850535,-0.7598989
4.7545013,9.137433,0.75250715,0.40837213,0.35800195,-0.53312826
5.256316,9.0083275,1.1059583,0.31627113,0.5091649,-0.27335346
5.556243,9.026542999999998,1.3707668,0.21512929,0.64385194,-0.040718533
6.3911394999999995,9.430109,1.6923463,0.051714107,0.79290307,0.24033184
6.1959257,10.018613,2.1017930000000002,-0.119153626,0.9132085999999999,0.59273124
5.934709,10.464127000000001,2.3293378,-0.25595254,1.0659947,0.94726
5.932055999999999,10.634144000000001,2.6564433999999997,-0.39118063,1.2970065,1.2751725
6.2512417000000005,10.813354499999999,2.9190776,-0.54127896,1.5748978999999999,1.5706043
6.523625,10.920606,2.907145,-0.71642274,1.8958813,1.8516896
6.512363,10.762052,2.5976706000000003,-0.87345004,2.3249357,2.1279578
6.123075,10.130183,2.1047714,-1.0470055,2.5586352000000003,2.4090257
5.645949400000001,9.51246,1.6223972,-1.1662464,2.7188562999999997,2.6565483
5.6592894,9.387836,1.1390079,-1.2620475,2.702363,2.8716252
5.221735,9.450288,0.960209,-1.4222863000000001,2.1588502,3.1729038
4.6833363,9.000455,1.0129291999999999,-1.5356802999999999,1.2448561000000002,3.5780122000000003
4.639656,9.211317,0.9683588,-1.5015941000000002,0.6369405,3.8606858
4.9867004999999995,10.219516,0.71814555,-1.4600726000000002,0.15252432,4.022512399999999
5.4648995000000005,11.491957000000001,0.4093223,-1.3477607,-0.110426985,3.9187005
5.8183026,13.01375,0.0062249246999999995,-1.1880629999999999,-0.037507123999999996,3.706835
5.797856299999999,14.113331,-0.18728402,-0.96980965,0.29942867,3.4507778
4.807375,14.885959,-0.7821857,-0.71481705,0.72370076,3.1244709999999998
4.525625700000001,14.804086999999999,-0.678421,-0.53063244,1.1266798999999998,2.681035
3.2267422999999997,13.758251000000001,-0.59879947,-0.4683590999999999,1.6270483,2.1827786
1.3679318,11.961671,-0.7680408000000001,-0.4098032999999999,2.189725,1.7143322
0.70577234,10.676195,-0.3256593,-0.30387926,2.4952798,1.2677199
1.8740948,9.81931,0.11112926,-0.105836764,2.4713337,0.87008154
2.7010617000000003,9.690302,-0.44267829999999997,0.115052104,2.2301817,0.5139471
4.345054599999999,9.596477499999999,-0.33804209999999996,0.36843899999999996,1.8596833,0.14079571
5.041201999999999,9.4740095,-0.57760596,0.62662554,1.3864546999999998,-0.28824112
5.0887895,8.434408,-0.26114994,0.8076161999999999,0.90416783,-0.7242244000000001
5.404651599999999,8.44977,-0.04720408,0.9444151,0.36065483,-1.1522139999999998
5.889382,9.366595,-0.1343243,1.0652617,-0.21956243,-1.5503935
6.1537685,10.26244,-0.25720432,1.1562806,-0.7076960999999999,-1.896405
5.388534,10.596861,-0.33748665,1.2238947,-1.0600955,-2.1827959999999997
4.112032,10.128354,-0.5333611,1.286168,-1.3236053,-2.4058490000000003
3.0381652999999997,9.27416,-0.46578714,1.3090667999999999,-1.4827618999999999,-2.560206
2.5553122000000004,8.571252000000001,-0.2695105,1.2941617,-1.546641,-2.6533717999999995
2.5428433,8.238889,0.3810324,1.2526402,-1.6525824,-2.7444081000000002
2.996018,8.812932,0.46832502,1.1855499,-1.7212611,-2.7853885
3.2703453999999996,9.037278,0.2511805,1.1573453000000002,-1.8367671000000003,-2.734285
3.3186986000000003,9.051853999999999,0.027016172,1.0998541000000002,-2.1710675,-2.6842465
3.1771824,8.94107,-0.08390239999999999,0.9838072,-2.5628588,-2.563941
3.137477,9.052515,-0.058198255,0.85978407,-2.8833189999999997,-2.5532944
3.1874967,9.582965,0.08562623,0.7048687,-3.3054442,-2.472381
3.3902087,10.41677,0.23807943,0.54942966,-3.5087924,-2.4122369999999997
3.461403,10.904869999999999,0.38531324,0.41901866,-3.3411186,-2.4175603
3.3900268,11.16898,0.4966532,0.34766957,-2.8604376,-2.439918
3.3492393,11.335684,0.4364438,0.34182274,-2.303625,-2.3914676
3.496176,11.15088,0.616957,0.38706166,-1.7542653000000001,-2.3435582999999998
3.0581902999999997,10.316097000000001,0.55366397,0.45254642,-1.1857243999999998,-2.2179296
2.5506675,9.821302000000001,0.3825647,0.49195597,-0.9259495000000001,-1.9432496
2.9309912000000002,9.448122999999999,0.54062986,0.50099677,-0.851424,-1.6121432
3.2937224,9.175796499999999,0.68850535,0.45041713,-0.7135604,-1.3103234
3.3602622,8.767529,0.8403265,0.32639402,-0.5102121000000001,-0.96802944
4.0396504,8.600413,1.2151243999999999,0.19968311,-0.3755425,-0.510247
5.1196269999999995,8.532179,1.5059528,0.14433873,-0.24350834,-0.017296214
5.7011113,8.685646,1.7456412000000001,0.12889257,-0.18921115,0.40215877
5.8227367,9.288115,1.8391970000000002,0.12037536,-0.07476991,0.67790335
6.5858836,9.83562,2.0143185000000003,0.05969026,0.22331488,0.8924392
6.351051,10.141589999999999,2.4250773999999997,-0.06485643,0.6358758000000001,1.1852007
5.3544025,10.366242,2.576611,-0.17079791,1.0521543,1.568475
5.5002379999999995,10.789106,2.8025568,-0.22722441,1.4141181999999999,1.9118336
5.846583,11.118079,2.7504396,-0.28150415,1.7553474999999998,2.1923778
5.683356,10.730314,2.8454990000000002,-0.33527774,2.3084424,2.3935795
4.866607,9.884309,2.7042317000000002,-0.42151445,3.0143058,2.566594
4.3768687,9.508562,2.3102036,-0.5828003,3.4816875,2.7885823
4.493342,9.681261,1.7292648999999998,-0.7664613,3.5146742,2.937616
5.38185,10.356828,1.2420256,-0.97354466,3.3028087999999998,3.0536630000000002
6.107369,10.786033,1.0017340000000001,-1.2050973999999999,2.8748364,3.1771624
5.954179,10.482208,1.0945236999999999,-1.4318681,2.1460743,3.2995973
5.5201864,10.665958,1.1384428999999998,-1.5995419,1.2778603000000002,3.3842459000000003
5.443476,11.499083,0.97021675,-1.6123177,0.82698935,3.2996147000000002
5.5231166,12.333594999999999,0.7455831,-1.6048652,0.6108478,3.1516109
5.9269896,13.015666,0.80142546,-1.5841132,0.48096037,2.9631677000000005
5.6257515,13.5235815,0.63515294,-1.5122405,0.47883108,2.8375387
4.927449,13.807303,0.07728483,-1.4329326999999998,0.5666734999999999,2.6922227999999997
3.9870355,13.955103,-0.43934557,-1.3445667,0.6358758000000001,2.4329715
3.6224847000000002,13.012064,-0.48121540000000007,-1.2572653,0.6401344,2.0284216
2.5493843999999997,12.154595,-0.79646474,-1.1433303,0.49108329999999994,1.5780743
2.3231417999999997,11.336651,-0.9437751,-0.9756565,0.26644197,1.2097051
2.3874693,10.238861,-1.0807043,-0.7712435000000001,0.01144936,0.8940275
3.9258873,9.842554,-0.8050743,-0.5503372,-0.17165314,0.5586624
3.6919355000000005,9.523665,-1.2446401000000002,-0.27406904,-0.2765125,0.20093976
3.914175,9.080211,-1.1661485,0.013910273999999999,-0.37606609999999996,-0.27122417
3.8305218,8.585243,-0.84290266,0.28274333,-0.40587629999999997,-0.8445299000000001
3.856264,8.799151,-0.71837544,0.5094965,-0.29621729999999996,-1.4870553999999998
4.1818566,9.095639,-0.77590334,0.75225437,-0.16952384,-2.0103226000000003
4.400811,9.407345,-0.8655613999999999,1.0546151000000001,-0.14875442,-2.3227889999999998
4.0780916,9.493048,-0.9438901,1.31439,-0.18442895,-2.481963
3.5938212999999997,9.273767,-0.7605708999999999,1.4511889,-0.26267204,-2.5777813999999997
3.4314656,9.33234,-0.66395044,1.4836695,-0.32283354,-2.7215095000000002
3.3658934,8.77496,-0.29282042,1.4847342,-0.4516563,-2.804552
3.7072108,8.403504,0.24713908,1.4400013999999999,-0.59964275,-2.8785540000000003
4.488381400000001,9.266566000000001,0.52795976,1.3787926000000001,-0.813114,-2.9541442000000004
5.379196599999999,10.084924,0.8350496999999999,1.2952263000000002,-1.1415501000000001,-2.9562562000000003
5.777285,10.400135,1.1323712,1.1557571000000002,-1.5972207,-2.8977177000000003
5.0729112999999995,9.518178,1.6507063000000002,0.91992813,-2.1795845000000003,-2.814675
3.9882708,8.757779,2.091843,0.6377957,-2.92217,-2.6847875
3.1048294999999997,8.837094,2.2689657000000003,0.38547343,-3.2458236,-2.709798
3.401768,9.724309,2.1854177000000004,0.19544198,-3.2639227,-2.6948931000000003
2.9409799999999997,9.974530999999999,1.8909883,0.05969026,-3.1244535,-2.704475
2.978157,10.441631,1.5158553,-0.055274576,-2.8662843999999996,-2.5809755
3.2198853,10.49324,1.0661476,-0.0813498,-2.419131,-2.3898792
3.2708242000000003,10.175941,0.69541025,-0.024923302,-1.8990403000000002,-2.2152765
2.9634185,9.704360000000001,0.6513186,0.059166662,-1.4039778,-2.0268333
2.841812,9.409117,0.686092,0.13955653,-0.9951518,-1.808039
2.5033581000000003,9.095343,0.68879265,0.22364649,-0.62145936,-1.5615809999999999
3.3822696000000003,9.265905,0.7673225,0.27953193,-0.29941124,-1.3060646999999999
4.377089499999999,9.377436999999999,0.97817504,0.28593728,-0.013002703000000001,-1.017527
5.5296769999999995,9.7906275,1.0039941,0.23216370000000003,0.17540559,-0.67418575
5.883741400000001,9.742628999999999,1.1210035,0.17200220000000002,0.21319197,-0.26270697
5.994736,9.38936,1.8195168000000002,0.14114478,0.14240141,0.16367698
6.0322676,8.914925,2.3637283,0.11876965,0.05510004599999999,0.53895766
6.0835230000000005,8.80936,2.5983791000000003,0.09801769,0.09608038,0.8759283999999999
6.121935400000001,9.066459,2.7630236,0.09749409,0.27495918,1.2128816999999998
6.128419,9.339369,2.8684165,0.08363618,0.57464963,1.5274773000000001
6.1406198,9.697925,2.8320147999999996,0.029356438999999998,1.0430960999999999,1.8149505000000001
6.148377,9.9815035,2.6324916000000003,-0.023876105,1.6281128999999999,2.1135762000000002
6.0092072,10.221575,2.3143982999999997,-0.07283259,2.2136883999999997,2.3786917
5.592568,10.202632000000001,1.9357982,-0.18676768,2.6720118999999998,2.5857577000000003
4.757719,9.800511,1.569045,-0.27726302,3.0414457,2.806664
4.273918,9.720889999999999,1.2002803999999998,-0.37573448,3.1447167,3.0057537999999995
4.237746700000001,9.515792999999999,1.013523,-0.5029515,3.0872257000000003,3.2149662999999995
4.4329886,9.124245,1.0786933,-0.6631902,2.7193975,3.4018037000000003
4.72965,9.201588000000001,1.1425034,-0.83618724,2.2493455,3.5567193
5.3650517,10.041608,1.0030077,-0.9682214,1.9586957999999999,3.5987642
6.0274887,11.166241000000001,0.8441093000000001,-1.0778803999999997,1.7766403999999998,3.4832582000000003
6.2854977,12.434459,0.6243695,-1.1529295,1.6089492,3.3443127
6.506903599999999,14.169863000000001,0.11180922,-1.163035,1.4955726999999999,3.1846325
5.9840292999999996,14.529491,-0.20326772,-1.1577293,1.3805903,3.0339756
5.1591406,14.134170000000001,-0.14264654,-1.1662464,1.283166,2.8018818
4.342967,13.579826,-0.31762436,-1.1577293,1.1825653,2.5761757000000003
3.5114417,12.761517,-0.27415523,-1.1108671,1.021803,2.3669631
2.5703478,12.222466,-0.6497576,-1.0693632,0.7630929,2.0465033
3.3715532,11.826179,-0.42904097,-1.0012081,0.41495204,1.5530462999999999
3.5524782999999998,11.245201,-0.72968566,-0.8495040999999999,0.04925319,0.99836326
4.179682700000001,10.737612,-0.76307994,-0.6365739,-0.21849777,0.5139471
4.1475043,9.962771,-0.9501533000000001,-0.358159,-0.29621729999999996,0.17271778
3.9727468,9.571377,-0.80064976,-0.12128293,-0.22807963,-0.19083429999999998
4.011581,9.460180000000001,-1.0218452,0.021886429,-0.12906710000000002,-0.6555631
4.0658525999999995,9.293333,-1.0302441,0.18106046,-0.030595621,-1.0830117
3.799943,9.097325,-0.9687802,0.32852334,0.12110839999999998,-1.3875018
3.6874347000000003,9.284483999999999,-0.92963976,0.50364965,0.16901769,-1.5897854999999999
3.7237976,9.36696,-1.1757158,0.78738785,-0.04602433400000001,-1.8511486000000001
3.7452687999999994,9.42216,-1.0267389999999998,1.0918605,-0.38299504,-2.1886604
3.783921,9.542407,-0.800487,1.3032024,-0.63690555,-2.5043206000000002
3.7059178,9.281851,-0.41741469999999997,1.3787752,-0.8620879000000001,-2.7225914
3.6581487999999998,8.458323,0.54811895,1.3260836999999999,-1.1947826000000001,-2.8977177000000003
4.115526999999999,8.379266000000001,1.1419864,1.1866143999999998,-1.5290829,-3.0632622000000005
4.225354,8.597626,1.6204053,1.0466216,-1.6861103,-3.1899557
3.9605745999999997,8.741442,1.9309715,0.9161931000000001,-1.8043039,-3.2251067000000004
3.3469217,8.647722,2.0527024,0.78311175,-1.9427085,-3.1942317000000005
2.7939184,8.696746000000001,2.0575384999999997,0.6330135,-2.2131124,-3.1138244
2.6121602000000004,8.833034,1.9269779999999999,0.5047143,-2.4154136000000004,-3.1133007999999998
3.2035377,9.436507,1.697489,0.40037853,-2.5154908,-3.1239474
3.5279233,9.824022,1.7121415,0.2891138,-2.5745702,-3.0872257000000003
3.4866949999999997,10.1884,1.6516927,0.19383627,-2.6506839,-2.9371099999999997
3.7109360000000002,10.592494,1.3634499,0.12198106,-2.641102,-2.793382
4.055299,10.359394,1.1142039,0.08363618,-2.4697106,-2.6395487999999996
4.1089005,9.885591499999999,0.9722279,0.08098327,-2.1199641,-2.4659932
4.080466700000001,9.371450999999999,0.8594993000000001,0.121963605,-1.7074207,-2.253604
3.6780972000000003,8.901824000000001,0.76121247,0.19542451,-1.3629973999999998,-1.9741243999999998
3.6668443999999996,9.007677000000001,0.6290526,0.25504497,-0.9850464,-1.6589878
4.1763883,9.124025,0.7125623000000001,0.31094787,-0.5597095999999999,-1.290095
4.749243700000001,9.620602,0.7166994999999999,0.37163296,-0.12852605,-0.87646943
5.00255,9.510698,0.8784613000000001,0.43605307,0.18446384,-0.4314454000000001
5.11231,9.514241,1.1881465,0.4834213,0.33936182,0.031660274
5.5545,9.703986,1.4743973,0.45361108,0.41388738,0.4426155
6.062243,10.199405,1.8894273999999998,0.36950365,0.552292,0.83599526
6.5193443,10.623217,2.198605,0.29708993,0.7513816999999999,1.2299161
6.5393023,10.99881,2.5104162999999997,0.25665066,1.0047686,1.5668868
6.531325,11.223797,2.7671992999999997,0.19383627,1.3678145,1.7755584
6.536477,11.215437,2.9166548,0.086306535,1.9230387,1.9176978999999998
6.331715,10.879108,3.0689642000000004,-0.08402015,2.5517062999999998,2.0672726999999997
5.951544999999999,10.498842999999999,2.9962668,-0.29907963,3.0685856,2.2951078
5.2815900000000005,9.925978,2.7674673,-0.5247856,3.3464593999999996,2.557012
4.8488617,9.728197,2.3973047999999997,-0.73506284,3.3395479,2.806664
4.8762803,9.345441000000001,2.0515628,-0.94160515,3.054745,3.0073418999999997
4.7734733,8.621827,1.9497995,-1.1513239,2.5788636,3.2415826
4.6206083,8.200342,1.8156477,-1.3062394,1.9954348999999998,3.5269089
4.990991,8.801507,1.4518822,-1.416963,1.3912368999999998,3.7738905
6.0106915999999995,10.037825,1.0455191,-1.4749777,0.8562584999999999,3.9240236000000004
6.820046400000001,11.505125999999999,0.7448074,-1.4616958,0.4484798,3.9053836000000004
6.9728923,12.855657,0.31104509999999996,-1.4042046000000001,0.23821999,3.7685672999999995
6.0394309999999995,13.392159,0.04163038,-1.2689766000000002,0.20521581,3.6243157
5.053566,13.878651999999999,-0.31245290000000003,-1.1225958,0.22916172,3.4683356
3.980571,13.910676,-0.5175402,-1.0416824,0.28932324,3.1899382999999997
3.4106742999999997,13.883582999999998,-0.73376536,-0.961816,0.42772785,2.8354096
2.431781,13.085125999999999,-0.7182605,-0.83992225,0.5634621,2.3898444
1.953544,12.301064,-0.58559304,-0.62060416,0.62734115,1.9336503
2.067307,11.647101,-0.6403819000000001,-0.38425168,0.69441414,1.3752496
2.604949,11.2561865,-0.8392252,-0.33634240000000004,1.00051,0.7726573
3.6550076000000002,10.873047,-0.8131858000000001,-0.25490534,1.2581555,0.27227136
4.147303,10.220407000000002,-0.9189904000000001,-0.12554154,1.1884122,-0.12643164
4.181444,9.588002000000001,-0.48308286,0.038938295,0.97869337,-0.4362276
4.4941654,9.252028,-0.23444982,0.28113765,0.79077375,-0.77373934
4.8011117,9.284474000000001,-0.56389195,0.47755697,0.6496988,-1.1618133999999998
4.833836,8.74508,-0.28631777,0.6596123,0.4655142,-1.5498698
4.739437000000001,8.399941,-0.17990989999999998,0.86402524,0.14240141,-1.8650064
4.446329599999999,7.775141199999999,0.77621937,1.0572681000000002,-0.30740485,-2.0758073
5.367858,7.146826299999999,1.0641557,1.1951491,-0.74124134,-2.2189941
5.9670687000000004,7.709501700000001,0.8225232,1.21536,-1.0617012,-2.3866853999999997
5.4495190000000004,7.940397999999999,0.95061296,1.1850088,-1.3443748,-2.5799282000000003
4.5934004999999996,6.977048399999999,0.75651985,1.1599982,-1.6685522000000002,-2.7172508
4.275565599999999,6.811944500000001,1.1438825000000001,1.1104832,-2.101865,-2.817869
4.520885,7.255676299999999,1.308211,1.06685,-2.312666,-2.9291337000000004
4.564584,7.764769599999999,1.1768842,0.99817127,-2.2072656000000004,-2.9914072
4.1708813,8.39296,1.1351676000000002,0.9273806999999998,-2.0225573,-3.019629
3.4617379999999995,8.5541,1.1625285,0.85231405,-1.9373852999999999,-2.986625
2.9128432,8.173163,1.2132857,0.7857647,-2.1024062999999997,-2.8711016
2.9528074,8.304096000000001,1.2442571000000002,0.68196994,-2.4196720000000003,-2.7944467
3.5824344,9.126907000000001,0.97938174,0.59520966,-2.5623353,-2.747061
3.8237123,9.622076,0.8850885000000001,0.48235664,-2.6629362000000003,-2.7688951
3.8470989999999996,10.217122,0.6709894000000001,0.43444735,-2.4084845,-2.7710242000000003
4.023446,10.752044,0.661403,0.44296455,-1.9347148999999997,-2.6320786
4.489118599999999,10.805205,0.82072276,0.45839328,-1.4550983999999998,-2.4553466
4.4749355,10.319516,1.0695857,0.49300316,-0.93340206,-2.3009722000000004
4.421564,9.85782,1.1715594999999999,0.49300316,-0.583673,-2.1508564999999997
3.9969377999999995,9.636365,1.1352826,0.4445528,-0.36276668,-1.9065279
3.798717,9.523521,0.878605,0.40357247,-0.22701497,-1.5743568000000001
4.2401599999999995,9.510784,0.8196023000000001,0.35246924,-0.17006488,-1.2357979
5.016533,9.728513000000001,0.8911505999999999,0.26782078,-0.11522663400000001,-0.89936817
5.5271583,9.587438,0.9080345,0.19170697,-0.08487536,-0.50438267
6.2024956,9.222762,1.7009558999999999,0.16667895,-0.082763515,-0.06839945
5.863036,9.060645,1.9728508999999999,0.16348499,-0.030595621,0.30579913
6.0862045,9.326967,2.0723636,0.13421582,0.22757348,0.5985781
6.485011,9.845236,2.0812986,0.041591197,0.77426296,0.9062621999999999
6.5054483,10.289455,1.9121819,-0.119153626,1.4657624,1.2650496
6.2725596,10.516195,2.1147792,-0.26768115,2.1045529999999997,1.6722872
5.935073,10.673735,2.1298529999999998,-0.3736052,2.5634174,2.0795074000000002
5.833645,11.041915,1.9922631000000002,-0.47581166,2.8428970000000002,2.4399004
5.653764,10.749113000000001,1.8609748,-0.63817966,3.0015125,2.7417202
4.8815284000000005,9.837344,1.8100932,-0.80639446,3.2096605,2.9908485000000002
4.4128394,9.190096,1.6790537,-0.9687450000000001,3.2948324999999996,3.191544
4.7892747,9.013959,1.4826813,-1.1497531,3.1771797999999998,3.3341897000000005
5.654692,9.142717999999999,1.4139485,-1.3972757,2.6677532000000004,3.4997516
6.416221,9.810414,1.3457233,-1.6394925,1.7303194,3.639221
6.6925693,10.960636000000001,1.0411042,-1.7182592,1.0132858,3.7025763999999994
6.243867400000001,12.185731,0.6828934,-1.7001776000000002,0.5677207,3.608346
5.538239,13.124679,0.35970485,-1.7124124,0.19244,3.44706
4.8656497000000005,13.750025,0.08827901,-1.6378694,0.012514011,3.2612697999999996
4.4381123,14.115283999999999,-0.1996477,-1.5101286,0.029548422999999997,3.0440812000000004
4.1480885,13.838111999999999,0.01810974,-1.4153748,0.06414085,2.7167096
3.4393663,13.720806,-0.27903944,-1.3136919,0.10248573,2.3728275
3.1130272999999997,13.210956,-0.6348274,-1.107167,0.1865757,2.0720549
2.1009886000000004,12.525735000000001,-1.0162045,-0.9032777,0.27974138,1.7473363999999998
2.0737233,11.549601,-1.1529038999999999,-0.6946061,0.3398854,1.3656503
2.9953952,10.518715,-0.63072854,-0.4699648,0.4266632000000001,0.9504365
3.4264187999999995,9.902389999999999,-0.77748346,-0.25970498,0.55281556,0.56983256
4.081185,9.282119,-0.98017657,-0.05368633,0.6789854000000001,0.22382103
4.2436748,8.715823,-0.74202055,0.20552997,0.75564027,-0.1817935
4.474782,8.741412,-0.8317169,0.48713884,0.8099375,-0.72528905
4.6826277,8.848989,-1.2725468999999998,0.7368081999999999,0.80087924,-1.2171577
4.542059,8.509174,-1.1349281999999998,1.0269169,0.67631507,-1.649947
4.372444000000001,8.423357000000001,-0.6049094,1.3058553999999998,0.46924922,-2.0188572
4.36191,8.660976,-0.6816484,1.5177208,0.18072884,-2.3771036
4.448216400000001,8.910932,-0.39376956,1.6641191000000002,-0.06944665,-2.6799880000000003
4.4678005999999995,9.128181,0.015466543000000001,1.7157459,-0.35583773,-2.8578022
4.029269,8.879232,0.5393083000000001,1.6853946,-0.697067,-2.8407676
3.7159254999999995,8.320474,1.0072598,1.5842702,-1.1149337,-2.7955112
3.8267293,8.394436,1.4694268999999998,1.5070743999999998,-1.3012651000000002,-2.8386383
4.269982,8.795817999999999,1.3819332,1.3825101999999998,-1.5370766000000002,-2.9211402
4.4027357,8.953002,1.3615058999999998,1.2797801000000002,-1.61799,-2.8971941
4.340189499999999,9.285289,1.2938361999999999,1.1647978,-1.8708359,-2.7758064
4.2163330000000006,9.976523,1.0393709,1.0061649,-2.2503927000000004,-2.6783997999999998
3.6394165000000003,10.059286,1.1045505,0.8320857,-2.624085,-2.57087
3.237028,10.1909485,1.3021201,0.6612005,-2.874819,-2.543189
2.6120837000000003,10.500116,1.0950791000000002,0.48661524,-2.8274333,-2.4670577000000002
2.4113919999999998,10.873641000000001,1.0312018,0.37535050000000003,-2.2839202999999997,-2.3009722000000004
2.4699543,11.169583,0.74299735,0.33595842,-1.6286365,-2.0188572
3.1722023,10.882652,0.7814483,0.34341097,-1.2102288,-1.7441773
3.5038855000000004,10.160427,0.5996996,0.39344957,-1.0372143,-1.4998312
3.23064,9.800072,0.5382260999999999,0.44720572,-0.96429443,-1.2278216999999998
3.0811555,9.220511,0.4901218,0.473822,-0.9382017,-0.92759013
3.24037,9.056738000000001,0.63381225,0.46743408,-0.91319114,-0.6252293000000001
3.7095857000000003,8.831396,1.0037835,0.40674898,-0.739112,-0.41175807
4.7266045,8.351933500000001,1.4283712,0.31412435,-0.42291072,-0.21746802
5.655803700000001,8.339205999999999,1.8399248,0.21884683,-0.29302332,0.059864793
6.117425,9.079914,2.553416,0.15816173,-0.27227136,0.29515263
5.872182,9.703861999999999,2.7416196,0.101211645,-0.2626895,0.41652283
5.2102427,9.917674,2.5463006,0.02295108,-0.05560619,0.46816713
4.8434415,9.472448,2.5555038,-0.06485643,0.44689155,0.5517335
4.621844,9.091751,2.5330942000000003,-0.14578736,1.1266624,0.74337065
4.5837183,9.498124,2.4870105,-0.21818360000000003,1.8335905,1.0185741
5.104677,10.561781,2.402658,-0.2575757,2.4633403,1.32467
5.9289819999999995,11.040555,2.2882056,-0.3294309,2.8721487999999997,1.6408713
5.717324700000001,10.517278999999998,2.0169043999999996,-0.42099085,3.1436522,1.9831478999999999
5.143205,9.575103,1.8749377,-0.5290442,3.2511818,2.2482634
4.98603,9.23957,1.3986063999999998,-0.7121816,3.099984,2.5149322
5.6059947,9.546342999999998,1.0961901,-0.9309586,2.6815937,2.7481081
6.456176,9.85599,1.1226795,-1.1007791999999998,2.221647,2.9546504000000002
6.773397999999999,9.921973,1.3482516000000002,-1.2684528999999998,1.5498698,3.0861259999999997
6.587990799999999,10.417479,1.2221633,-1.3728062,1.011139,3.0701563
6.130458999999999,11.240566000000001,0.93281925,-1.45639,0.626259,2.9849842
5.689131,12.230943,0.51876605,-1.5250337999999999,0.34255576,2.8295453
4.987936,12.806547,0.065534085,-1.5724195,0.15889478,2.6943345
4.3809485,13.001358,-0.09386228,-1.5569733000000001,0.08330456,2.55593
3.8892083,13.029792,-0.3448704,-1.5064111,0.14398967,2.4074025000000003
3.0091283,12.437562,-0.57281756,-1.4318856000000002,0.23661429,2.1955369
2.4287642999999997,11.677527,-0.70465183,-1.3147739,0.2563016,1.9575962
2.2643116,10.9463,-0.6598899,-1.139124,0.2131745,1.7212436999999998
2.4101374,10.488337,-1.0138007,-0.9224589,0.17645279,1.4822209
3.2674819999999998,10.109392,-0.98446697,-0.73933893,0.11789699,1.1867889999999999
3.9551922999999993,9.875717999999999,-0.99603575,-0.53705525,0.01569051,0.9121091
4.392412,9.637514999999999,-1.0003262,-0.27728045,-0.093951076,0.6065368
4.469256400000001,9.491755,-0.9387186,0.020280726000000002,-0.05401794,0.23179717
4.375011,9.06597,-0.6093818,0.3135833,0.15357152,-0.32925636
4.361268,8.946194,-0.6132125,0.56004125,0.47774896,-0.95209455
4.2503304,8.667575,-0.68090135,0.7985405,0.72315973,-1.5046309
4.089995399999999,8.454922,-0.6152907,1.0141235999999998,0.79021525,-1.9155861
3.8656015,8.052256,-0.17183664,1.2339826999999999,0.7125132,-2.1551325
4.0904169999999995,8.126016,0.056867078,1.412303,0.55653316,-2.2796967
4.3020744,8.806486,0.022831108,1.5017337,0.41386992,-2.3478342999999997
4.204496,8.972271000000001,0.3662458,1.5097098,0.17751744,-2.4207716
4.21663,8.58487,0.80815804,1.4729881,-0.16580628,-2.4697456
4.9513144,8.654053,1.2348143,1.3957921,-0.59859556,-2.458558
5.9469,9.218855,1.3997175,1.2738983999999998,-1.0702358,-2.4026725
6.0058169999999995,9.255265,1.6270419,1.1280411,-1.4827968,-2.3510458
5.5780683,9.331985000000001,1.5620346999999999,0.94331557,-1.9485728999999998,-2.2701322999999998
4.751149,8.981895,1.3488166000000001,0.7357260999999999,-2.4239306000000003,-2.130122
3.6941288,8.350123,1.4236209999999998,0.54513615,-2.7704833,-2.0614607
3.0088892000000005,8.302363,1.3968825,0.38330922,-2.9775665,-2.0428207
2.8482667999999998,8.941271,1.1697781999999999,0.23797564,-3.2064664,-1.9741593999999998
2.6911402,9.559214,0.91241115,0.16985545,-3.155887,-1.9347497999999999
2.4170808999999998,9.843233,0.77533823,0.18634881,-2.6980869999999997,-1.9038924
2.2956276,10.041492,0.56160307,0.24755749999999999,-2.0385447,-1.8783408
2.4634132,9.933783,0.40413168,0.31197759999999997,-1.38539,-1.8272376000000001
2.6044414000000002,9.555403,0.43357077,0.40406117,-0.7902326999999999,-1.7117141
2.5696297,9.122531,0.48673162,0.48975685,-0.3851418,-1.5169005
2.5452375,8.83267,0.548866,0.5642999,-0.18444639999999998,-1.273619
3.3525050000000003,8.634669,0.79733616,0.6010215999999999,-0.08864527,-1.060689
3.7542424,8.495327,0.9185211,0.58559287,-0.034348078,-0.8701164
4.0369209999999995,8.649245,1.0210504999999999,0.52490777,0.0055676005,-0.6529276999999999
4.938271,8.619634,1.4400643999999998,0.4471708,-0.017313666999999998,-0.37985346
5.8651333,8.57082,1.869048,0.35561085,-0.08545132,-0.049811699999999993
6.2869915999999995,8.807177000000001,1.9888251000000001,0.26991516,-0.065222956,0.22591542
6.490728400000001,9.227043,2.151104,0.17357299,0.10829768,0.46600290000000005
6.235325,9.7019,2.3629432,0.094788834,0.4388805,0.7092669
5.6087523,9.904775,2.392861,0.027157322999999997,0.7992561,0.9653067
5.2812543,10.384208000000001,2.3659885,-0.05532694,1.1713428,1.1766486
5.473107,10.982281,2.2060556,-0.17296213,1.6520414,1.3400638
5.619546,11.374594,2.0457687,-0.31881928,2.2195002999999995,1.5162722
5.56672,11.325149,1.8642116999999998,-0.48064622,2.7784419999999996,1.7270731
5.005001999999999,10.808748,1.6424990000000002,-0.62011546,3.1760979,1.9219042000000002
4.793421700000001,10.534737,1.4616219,-0.8000415,3.3198256,2.1023712000000003
4.970813,10.153025,1.3282361,-0.97998494,3.2218603999999997,2.224265
5.2050614,9.687688,1.2813002,-1.156717,2.8641376,2.418555
5.226495,9.156289,1.276234,-1.3254553999999998,2.0747077000000003,2.6650305
5.2574277,9.286505,1.0577104,-1.4292675,1.2517327,2.8534737
