accx,accy,accz,gyrx,gyry,gyrz
1.9875703999999998,7.7083144,-0.47340070000000006,-0.64156556,-1.7526945,-1.4489549
2.1284165,7.256193,-0.33184594,-0.4552517,-1.8879052,-2.0451593
2.2581441000000004,6.9624440000000005,-0.20928195,-0.17791887,-1.7085203000000002,-2.5716379000000003
2.3545346,7.2118435,-0.17940232,0.102607906,-1.2613668,-2.9501126
2.5425751,8.115041999999999,-0.30662063,0.38526398,-0.57573175,-3.1598662999999996
2.9372737,9.03815,-0.6868486,0.6317394000000001,0.23818508,-3.2034996
3.3091123,9.496582,-1.1390557,0.8260294,1.0201623,-3.1172628
3.4616325,9.174227,-1.1047901000000002,0.9287595,1.6168904,-2.9783343999999996
3.6628604,9.232531,-0.75165486,0.9053546,1.8713595,-2.8159666000000003
4.0159574000000005,10.123623,-0.65197945,0.7919606,1.7451897,-2.6434932
4.352141400000001,10.554628,-0.6635003,0.74405134,1.1968944,-2.5056295
4.7487555,9.969466,0.10398497,0.8020835,0.47399652,-2.3581667
4.919874,9.644639999999999,0.9808087,0.92825335,-0.23237313,-2.168659
4.849369,9.209556,1.4602427,1.0836748999999999,-0.8216661,-1.9658514999999999
4.555524299999999,9.267897999999999,1.7436397000000001,1.1699116000000003,-1.2890478,-1.8088069
4.193846700000001,10.070654,1.6922505,1.1523362,-1.7133199000000001,-1.7284343999999998
3.7833462,10.97616,1.2618208999999998,1.0219252,-2.028439,-1.6874367
3.3592184,11.657272,0.28627947,0.84679884,-2.1774902000000003,-1.6608203999999998
2.8946376,11.987060000000001,-0.8071524,0.62906903,-2.1966537999999995,-1.6283573
2.3133063,11.685131,-1.1471098999999998,0.41667992,-2.1157405,-1.5841656000000002
1.96767,10.819733,-0.5596398,0.32618457,-1.946461,-1.5266743999999999
1.5040183,9.79669,0.19059761,0.36822957,-1.657417,-1.4399141000000002
1.2237531000000001,8.7494755,0.8927116,0.5018520000000001,-1.209199,-1.3265201000000002
1.2993716,8.112149,1.3194255,0.6599439,-0.5895722,-1.1758806999999998
1.7811806000000001,7.980525500000001,1.1457978000000002,0.7871784000000001,0.12266174,-0.98796105
2.2562382000000003,8.469201,0.7907761,0.8329584000000001,0.8290663,-0.793671
2.6874337,8.900781,0.31765312,0.74033374,1.4699861,-0.56157714
3.1326692000000005,9.3469925,-0.033269826,0.39325759999999993,1.8931761000000003,-0.23472933
3.6139517,9.815652,-0.19495507,0.008395034000000001,1.9810185000000002,0.20603612
4.180257,9.865442,0.29131690000000005,-0.28119,1.7611593999999997,0.66116565
4.650641,9.472064999999999,1.4993353,-0.5297947,1.2820665,1.048681
5.011035400000001,9.046165,2.5807292,-0.6665936,0.738571,1.412268
5.3995953000000005,9.199997999999999,3.4219174,-0.6862984000000001,0.346762,1.7524153000000002
5.797847,9.966574000000001,3.73167,-0.63304836,0.18282324,2.019119
6.200302,10.822155,3.3765712,-0.6932099,0.12000884,2.2331138
6.433306,11.796318,2.283197,-0.87259483,0.057194438,2.4545612
6.053672,12.885928999999999,0.66954327,-1.0503916000000002,0.036966074,2.5924423
4.8468695,13.224441,-0.8223221,-1.2425523,0.2594781,2.6382222
3.3986172999999997,12.937758,-0.66685224,-1.3735218,0.9711885,2.7138124
2.583813,12.40997,-0.0972812,-1.4656053999999998,1.3629799999999999,2.4785247000000004
2.1539197,11.341046,0.35355654,-1.4682757,1.1553731000000003,2.6131942
1.7622665000000002,10.085325,0.9167110999999999,-1.4086553,1.0020632999999999,2.8900034
1.7911596999999997,9.493478999999999,1.2935201,-1.2579985,0.6746919,2.96507
2.2268279,10.326805,1.2517653,-1.1723027,0.36433747,3.024673
2.617552,11.926582000000002,0.57795066,-1.1126648000000001,0.06997025,3.0151086
2.8667693,13.423063,0.06919243,-1.0940421999999999,-0.13390166,2.940042
3.5360443999999998,14.304522500000001,-0.36570954,-1.0897835,-0.2398257,2.8511523999999997
3.7542614999999997,14.629176000000001,-0.6261507,-1.0684905,-0.287735,2.71753
3.4612784,14.086485999999999,-0.39306090000000005,-1.0221870000000002,-0.25846579999999997,2.5365393
3.6526227,13.669666000000001,-0.63511467,-0.9630901,-0.17807594,2.318827
1.2504053999999998,12.366348,0.2407322,-0.8938878,-0.052447144,2.093121
0.8422323,10.502272,0.53195333,-0.82362086,0.064647,1.8205703000000002
1.5127332,9.857522,0.6116898000000001,-0.7725175999999999,0.10084512,1.4591126
1.4930816999999998,9.074628,0.26836127,-0.7762526,-0.02104867,1.0050304
1.8954895,8.655977,-0.13579912,-0.8023279000000001,-0.28932324,0.45197046
2.0959606,8.523176,-0.49182647,-0.796481,-0.6060656,-0.16817993
2.2227384999999997,8.248695,-0.61079913,-0.70438,-0.8967153,-0.8154876
2.4099746,7.8841443,-0.5545737,-0.5819451,-1.142126,-1.4984698
2.6213922999999997,7.4963603,-0.46097958,-0.45738098,-1.385931,-2.159077
2.6926723,7.014742999999999,-0.42908883,-0.28490755,-1.547758,-2.7606046
2.6336696,6.619594,-0.36977968,-0.050684362999999996,-1.4892021,-3.2615316
2.7584844,6.885705000000001,-0.38525578,0.23940681,-1.1703305,-3.6027436
2.9623935,7.770056200000001,-0.6319352,0.55454344,-0.5885076,-3.7847989
3.1355326,8.393477,-1.0305027,0.8457341999999999,0.18334684,-3.8071566
3.3998718,8.3577175,-1.3092451999999999,1.0959271000000002,1.0222917,-3.7017559999999996
3.5400956,7.9064584,-1.1132463,1.2172973,1.7404075,-3.5042546000000003
3.8968122000000003,8.29227,-0.7288140999999999,1.1880282,2.1210112999999997,-3.2806954
4.32956,9.246799000000001,-0.66878676,1.0618583000000001,2.103977,-3.0257027
4.509211,9.6714735,-0.5342134,1.013408,1.7137911,-2.7499583
4.682666,9.441055,-0.044369347,1.1305370000000001,1.1367503,-2.4135284
4.7272553,9.164563000000001,0.63901246,1.3647601999999999,0.52831113,-2.0781636000000003
4.662593,8.994555,1.3899682,1.5665028,-0.077998765,-1.8327528000000002
4.554566400000001,9.762539,1.8778012,1.6069596000000002,-0.78492695,-1.7002125
4.378612,11.159777,2.079843,1.4951712,-1.4375579,-1.6453743000000003
4.1902356,12.407874000000001,1.617197,1.2902347,-1.8783233,-1.6299455
3.7866120000000003,12.962007,0.2104216,1.0954036,-2.0300274,-1.5852302
3.369408,12.78951,-1.1794603000000001,0.8728741,-2.0273745,-1.5261508
2.7127453999999998,12.163914,-1.6812947,0.6253515000000001,-1.9832002,-1.4819591
1.903036,11.406322,-0.7844937,0.43319073,-1.8687415,-1.4297912
1.0496466999999998,10.317611999999999,0.5891939,0.37515852,-1.5482816000000001,-1.3142679
0.99145806,9.146214500000001,1.8488313000000003,0.49333477,-0.93823665,-1.1146545
1.4463085,8.612029,2.0226023,0.6791251,-0.1221905,-0.8900132
1.9184067,8.807798,1.4019966,0.7738615,0.6336941999999999,-0.68294734
2.3725486,9.079464,0.64375293,0.60938174,1.1969119,-0.4609589
2.7934299,9.411367,0.30709946,0.18406242,1.5445117,-0.19160224
3.140273,9.890448,0.54123324,-0.21676989,1.6461946,0.17941985
3.7995405,10.214267999999999,0.8306348,-0.5063549,1.5200247,0.6079331
4.559910299999999,9.973124,1.3517567,-0.7602654000000001,1.1665606000000002,0.9928130999999999
5.1103277,9.339445,2.1270375,-0.95511395,0.7055668,1.3478655000000002
5.262159,8.759819,3.2310805,-1.0104584,0.33080970000000004,1.6848361
5.3978043,8.91935,4.1198177000000005,-0.95136154,0.13704325,1.9547164000000001
5.7845635,9.961373,4.2460309999999994,-0.9103812,0.056129787,2.1442242
6.146021,11.310725,3.0876296,-1.0093937,-0.00720821,2.2991222999999996
6.012377,12.504877,0.89369804,-1.1339579,-0.05831145,2.343314
5.119368,13.131776,-0.5600611999999999,-1.234035,0.0028972465,2.2198145
3.6834123,13.141926999999999,-0.36129463,-1.2750329,0.3185575,2.0728927
2.8338919999999996,12.951472,0.098736875,-1.2361643,0.8913571,2.0558581
2.4625707,12.348622,0.22104228,-1.1275699,1.4071717,2.182028
2.1489203,11.020511,0.43924025,-0.9609608000000001,1.8239738,2.3592837
2.0200646,9.975479,0.73931986,-0.81136864,1.9027754000000001,2.4875830000000003
2.2559892999999995,9.935133,0.9060713,-0.7230025999999999,1.7207026,2.6036124
2.6664896000000002,10.974264,0.44998540000000004,-0.7203497,1.3629973999999998,2.7164829
3.0967944,12.215725,-0.41035659999999996,-0.76612973,0.95736545,2.809631
4.1005683,13.155659,-1.0984981000000003,-0.83692026,0.5389401999999999,2.9070377
5.157388,13.673506,-1.5541625,-0.8699245000000001,0.22062707,2.9826455000000003
5.1995263,13.902926999999998,-1.6236422,-0.85076076,-0.012514011,3.0507832
4.4185567,13.439009,-1.3214556999999998,-0.79168135,-0.15145968,3.0736644
3.3398826,12.446487,-1.0379535,-0.7049036,-0.22704989,3.0401366000000003
2.7867357999999998,11.372975,-0.7331907,-0.61227894,-0.23076743,2.9512296
2.3651075,10.527621,-0.8741901,-0.5239129,-0.17114699,2.7601335
1.9615694,10.120415,-1.1245372999999999,-0.46801004,-0.15943582,2.4465852000000003
1.7890337,10.107878999999999,-1.4361283999999999,-0.46057492,-0.2962522,1.9962378
1.6406028000000001,9.874713,-1.6435142,-0.48397979999999996,-0.60287166,1.4032272
1.5125704,9.477725999999999,-1.6724648000000002,-0.49303806,-0.99359846,0.69205797
1.5679818,9.167408,-1.4181143999999999,-0.45097563,-1.3156466,-0.12452924
1.6687299,8.756486,-1.0623934,-0.38550833,-1.52273,-0.95228654
1.8794388,8.286945,-0.88283795,-0.28064895,-1.5940616,-1.7364106
2.0609002,7.726635000000001,-0.71866274,-0.10283479999999999,-1.4301053,-2.4129875
2.2675965,7.3918777,-0.5824231,0.12604767,-1.0510896,-2.9602180000000002
2.462829,7.565189,-0.48621450000000005,0.36611772,-0.50757664,-3.3781023
2.3894517000000004,7.98245,-0.6207782,0.6045995,0.15568337,-3.6623466000000002
2.3687944,8.118326,-0.8416289,0.8127300000000001,0.84077746,-3.8348373999999996
2.5623226000000003,8.199547,-1.0785973999999998,0.9495464,1.3810965,-3.9375675
3.1377162999999997,8.225012,-0.84624493,0.9335766,1.6115846999999999,-3.966854
3.80476,8.606562,-0.5397009,0.7807904999999999,1.4902145,-3.8928519999999995
4.323708,8.954554,-0.32436645,0.62643355,1.0483844,-3.7022796000000002
4.7660704,8.949344,0.07662403,0.62643355,0.37765434,-3.3924663
4.9155736,8.463867,0.89452165,0.77707297,-0.26803023,-2.9687352000000002
4.991834,8.305936,1.5320784,1.0405653,-0.65610415,-2.537028
4.999917,8.184683999999999,1.9361334,1.2716119,-0.8487885000000001,-2.215486
4.8102865,8.893089999999999,2.1675475,1.378077,-1.0718416000000002,-2.006291
4.7376847,10.426116,1.94911,1.3322971000000001,-1.2879658,-1.9104723000000001
4.5028234000000005,12.065675,0.9473855999999999,1.1800344999999999,-1.4284996,-1.8902438999999998
3.9830514999999997,13.235051,-0.61444795,0.95860463,-1.5046133999999998,-1.9397415
3.2556355,13.764572,-1.6278081,0.71586424,-1.5189948999999998,-2.0275838
2.5138736,13.416284,-1.461708,0.56946605,-1.4721503,-2.1255317000000002
1.6817351999999999,12.427094,-0.42505699999999996,0.5439144,-1.3960365,-2.1644002999999996
1.1135049,10.960531,0.8282789,0.59608227,-1.2624141000000002,-2.0994391
1.3788878,9.475197,1.6645161,0.65198517,-1.0212795000000001,-1.9589226000000002
2.0175939,8.76547,1.3619177,0.6935066,-0.5586799,-1.6932836
2.5140936000000003,9.186906,0.7221104,0.7084117,0.15355407,-1.3238497
3.0587267999999996,9.923717,0.018368315,0.6248453,0.9909107,-0.8756316999999999
3.6050644,10.395537,-0.6327875,0.46567129999999995,1.8176033,-0.34171802
4.1469584,10.624117,-0.96911544,0.30436796,2.3754804,0.18952529999999998
4.7149589999999995,10.565842,-0.69321716,-0.029373892000000002,2.4915272999999996,0.80756384
5.1410503,10.053205499999999,0.32529542,-0.5058139,2.1338046000000004,1.4005743
5.2026,9.422228,1.6023625,-0.92848027,1.5184364,1.8003421000000002
5.4728959999999995,9.2992325,2.5714014,-1.1935784,1.0233738000000001,2.1202784
6.0239453,9.862387,3.2019765,-1.2079598,0.6901381,2.3630188
6.627159599999999,10.62021,3.5477184999999998,-1.141934,0.5064945,2.4987705
7.4721117,11.207526,2.9416695,-1.17335,0.33932692,2.6222525
7.6752076,11.543337,1.6370882,-1.1653738,0.25521950000000004,2.6318342999999995
6.619316599999999,11.851461,0.24529076,-1.1972958999999999,0.40268236,2.4689603
4.7935843,12.353669,-0.32557312,-1.2521341000000001,0.9850464,2.374189
2.8607167999999996,12.331479,-1.1255238,-1.2936555,2.0390508,2.3284264
2.121598,11.990698,-1.3524558999999998,-1.3405001,2.3509933999999997,2.3635597
2.2081625,11.191322,-0.95111096,-1.3367652,2.4686286,2.5136580000000004
2.2563245,10.269076,-0.20078734,-1.3026963,2.2562394,2.761198
2.6533884999999997,10.335788,0.9082068999999999,-1.2995024,1.7675648000000002,2.8900208
3.2619658,11.605960000000001,0.7203195,-1.3250539,1.1947826000000001,3.0726173
3.6140377999999997,13.284918,0.12632766,-1.3404827,0.6821619000000001,3.2301855
4.822248,14.496039000000001,-0.46961790000000003,-1.3452823,0.28504717,3.3414328
5.761742,15.115112,-1.4541328000000002,-1.3351594,-0.07585201,3.3888184999999997
5.214638,15.057795,-1.9202455000000003,-1.2760799999999999,-0.32499775,3.3472797999999995
4.5785279999999995,14.448931,-1.6611929,-1.1717618,-0.45275587,3.2466787999999998
3.2422087000000004,13.673926999999999,-2.2611895,-1.0226932,-0.39685297,3.0976279
2.1990263,12.222917,-1.361391,-0.84170246,-0.17540559,2.883633
1.6144101999999998,11.198764,-1.2121556,-0.69158673,0.031660274,2.590854
1.3497264,10.602857,-1.5871164,-0.6032206999999999,0.045500733,2.1868277000000003
1.0225539000000001,9.9257765,-1.7637414,-0.5542468,-0.14824827,1.6789893
1.2151243999999999,9.943043,-1.718625,-0.48078585,-0.46605527,1.0843731
1.4348451,9.960004,-1.8449335,-0.32482323,-0.76948076,0.37318629999999997
1.712084,9.497013,-1.8791993999999999,-0.16406095,-1.0015745999999999,-0.3209486
2.1201517999999995,8.933571,-1.7185005000000002,0.016388642,-1.2022526000000002,-1.0496933000000002
2.4148207000000004,8.47919,-1.4553394,0.19896753,-1.308194,-1.7662034
2.7246685,7.9038343,-1.0576338,0.37144098,-1.3401337,-2.4225693
2.7626503,7.609348,-0.6997007,0.51412165,-1.3422629,-2.94636
2.690652,7.8522253,-0.7244758000000001,0.66582566,-1.1703305,-3.3046238
2.5797331000000003,8.194758,-1.0619816999999998,0.78984874,-0.8732929,-3.5228946000000003
2.5605125,8.023342999999999,-1.3191572,0.8430813,-0.5235464,-3.6229544000000002
2.8250333999999997,7.6565330000000005,-1.0250632,0.74993306,-0.1865757,-3.6181722
3.3515089,8.005329,-0.55220824,0.47205920000000007,-0.043912485,-3.542582
3.7569144,8.457221,-0.26785370000000003,0.12124802,-0.19244,-3.5053193999999994
4.101536,8.401235,-0.0044149079999999995,-0.066636674,-0.52461106,-3.5447114
4.4596029999999995,8.139078999999999,0.34560782,-0.05333726,-0.9004328000000001,-3.532459
4.6880956,8.043368,0.6849715999999999,0.10262536,-1.2336686000000001,-3.4121535000000005
4.7230415,7.723617999999999,1.3559992,0.33098423,-1.4577688,-3.2210574
4.750881,8.112561,2.040492,0.5039987,-1.6361065000000001,-3.0150387000000003
4.7015705,9.331775,2.099868,0.57320106,-1.9012046000000002,-2.8691816
4.4788904,10.976399,1.6465212,0.5183802,-2.036939,-2.7605872000000002
4.1845284,12.632325,0.38355112,0.39592794,-2.0390856,-2.6546632999999997
4.095895,13.586214000000002,-0.9360754000000001,0.27029914,-1.8245498,-2.5167822999999996
4.490565,13.675220499999998,-1.3017563,0.14362314,-1.5498698,-2.3783777
4.5715556,12.86624,-0.31747112,0.05258677,-1.3135173,-2.2202857000000003
4.1046677,11.626579,0.5283142,0.044069562,-1.1410438999999999,-2.0153317
3.4559631,10.137845,1.1606802999999999,0.10901327,-0.9691115,-1.7933607
3.223218,9.096366999999999,1.7260758000000003,0.16756906,-0.7343473,-1.5532907
3.3495746,8.892975,1.3554628999999998,0.16011651,-0.46764353,-1.2418716
3.7504787000000004,9.3561,0.6854408000000001,0.11433652,-0.14666001,-0.93364644
4.330057599999999,9.943685,0.25899518,0.12391838,0.34147367,-0.53600806
4.9185333,10.139042,0.3862326,0.20322613,0.8152433000000001,0.0016231562
5.376793,10.072080999999999,0.4180276,0.2750988,1.0521194,0.5557826
5.664748,9.899094999999999,0.08647857,0.3027797,1.0521194,1.066815
5.703582,9.721521000000001,0.28978459999999995,0.26497588,0.9685530000000001,1.4873521
5.870611,9.708459,1.0002208000000001,0.23092452,0.96907663,1.8647620999999999
6.340478,10.518226,1.6067774,0.20696114,1.1282506,2.14583
6.728032000000001,11.678696,1.4197233,0.11220722,1.3896137,2.3236267999999995
7.172511,12.361386999999999,0.6136722,-0.10442304599999999,1.5812508,2.45032
7.913775,12.692162,0.03068409,-0.37058577,1.6472592000000001,2.4977057
7.124579,12.730172,0.27502674,-0.6074793,1.7004918000000002,2.429027
6.237556,12.665308,0.841198,-0.72192055,1.8458253,2.4285035
5.3137965,11.884281,1.1488625,-0.6857224000000001,2.5490183999999996,2.3630188
4.640853400000001,10.345412,0.8688174999999999,-0.63568383,2.5580766,2.5716902999999998
4.088568700000001,9.108242,0.64752626,-0.5467941999999999,2.4473531000000004,2.7143536
3.6011379,8.50724,0.8249556999999998,-0.52497756,2.0741842,2.9225016
3.8377328,9.345842,0.792883,-0.5419946,1.6062789,3.000221
4.129778,10.927136,0.20891805,-0.6314251999999999,1.102158,3.0976279
4.199918,12.608737,-0.7969819,-0.7527954000000001,0.5858023,3.1370199
4.502153,13.874533999999999,-1.538131,-0.8890707,0.16474162,3.1535306
4.737368599999999,14.271932000000001,-1.9510733,-0.97317815,-0.12217305,3.1343669999999997
3.9003080000000003,13.666257,-1.5205575,-0.9875596999999999,-0.29623473,3.033225
3.3804212,12.753921499999999,-0.6902292,-0.9433679,-0.38940042,2.8751159
2.0109953999999997,11.519242,-0.91058195,-0.8576722999999999,-0.39311796,2.6440866
1.1013902,10.01757,-1.1093677,-0.7597244000000001,-0.34627333,2.3172387999999997
1.4963378,9.784528,-1.095625,-0.69317496,-0.29890507,1.8094177
1.4784386999999999,9.591689,-1.4950258,-0.66284114,-0.29729939,1.1967025
1.431838,9.552385000000001,-1.6911396,-0.62236696,-0.36650170000000004,0.5653645
1.6600437,9.603182,-2.0003938999999997,-0.5164429,-0.49371874,-0.0771261
1.6224643,9.373884,-2.1232357000000004,-0.36100390000000004,-0.65341634,-0.7787310000000001
1.8241996999999999,9.016917999999999,-1.8443302,-0.19811232,-0.8865923000000001,-1.4398966
1.9739236,8.429946000000001,-1.3799508,0.06749188,-1.0212619,-2.0456830000000004
1.9261258,7.775936,-1.1029897,0.4113741,-0.91905546,-2.516241
1.8473852,7.668839,-0.77657366,0.6945711999999999,-0.53258723,-2.8212724
2.4739478,8.612853,-0.6328258000000001,0.8723679,0.068382,-2.9996102000000002
3.2054627,9.436803999999999,-0.86219037,0.9314648000000001,0.68268555,-3.0464547000000004
3.3175112999999996,9.578809,-1.1234073999999998,0.7664439000000001,1.020721,-3.0097156000000003
3.0247674,9.1884,-1.1210514,0.44437829999999995,0.9334195,-2.913897
3.4456296,9.692456,-0.7829614,0.23890066,0.44474480000000005,-2.8234017000000002
4.0696544999999995,10.923172000000001,-0.815647,0.24209462,-0.20628047,-2.7110898
4.325844,10.901758000000001,-0.64608014,0.45504224,-0.8360127,-2.5093296
4.495199700000001,9.779346,0.47446373,0.6306921999999999,-1.4072067,-2.292141
4.316803500000001,8.475666,1.5920771,0.27883379999999997,-2.1141348,-2.0265020000000002
4.3406205,8.212352000000001,1.9923397,0.42095596,-2.8338387000000003,-2.1308377
4.289289,9.572678999999999,1.938451,0.45450118,-3.0201526000000003,-2.2069688
3.926807,11.881072,0.764957,0.45928338,-2.5362601000000002,-2.2101629000000003
3.7356730000000002,13.467547,-0.9232233,0.32887238,-2.0214927,-2.18407
3.0578935,13.075444000000001,-1.7552657999999999,0.07229154,-1.3864372,-2.0435362
2.9666552999999998,12.2715,-1.2002133,-0.19333012,-0.91214395,-1.9019376000000001
2.4278545,11.439582000000001,-0.00869574,-0.23965116,-0.42879248,-1.791755
1.9782043999999999,10.225732,1.355281,-0.13583897,-0.1274963,-1.6490918
2.1365952,9.1672735,1.3401976,-0.046931904,0.0007853982,-1.4335088
1.8290073,9.364393,0.1890366,0.03769911,0.13493139999999998,-1.1055788
5.234271,8.01142,2.1652012000000003,0.07176794,0.28611183,-0.8096059
4.1052613,7.6697583,1.6216981000000001,0.081873395,0.46444955,-0.54717815
5.049687400000001,8.393707000000001,0.9906153,0.06962118,0.63851124,-0.2565285
5.259764,8.949765,0.13683341,0.03396411,0.67045075,0.12566371
5.580616,9.281678999999999,-0.2603359,0.097843155,0.8152433000000001,0.5105437
6.067721400000001,8.6952715,-0.056551042999999995,0.098907806,0.75084066,0.9018116
6.1111517,7.903892,0.96839714,0.072815135,0.5176647,1.1924438
5.9015923,7.883215400000001,1.4504457,0.07442084,0.40268236,1.4256024
5.3814564,8.580465,1.4922292,0.071750484,0.5064945,1.6555668999999997
5.2736792999999995,9.816246000000001,1.1965646,0.031834807,0.73113585,1.838687
5.797186,10.87386,0.63869643,-0.06981317,0.9493893,1.9616628
6.2646775,11.702159,0.057575762,-0.20982349,1.1010933,2.0244772
5.9112077,12.3421,-0.47742298,-0.36580357,1.2347157,2.0090310000000002
5.264773,12.888093,-0.3893355,-0.44031167,1.7084854,1.8839433
4.6652265,12.911365,0.017812861,-0.43127087,1.8782883999999997,1.9286586
4.15733,11.946684,-0.23408589,-0.32002357,2.2440047,1.9148008
3.9816053,10.223930000000001,-0.09257899,-0.21408209,2.1306279999999997,2.1602116000000002
3.6913517,9.087193,0.0034668040000000004,-0.09962339999999999,1.8617951000000001,2.350784
3.5813427000000004,9.433796000000001,-0.032580293999999996,-0.09005899,1.5956323000000001,2.4647017000000004
3.7127461000000004,10.694612,-0.37324646,-0.153397,1.3374458999999999,2.5509383999999997
3.9361155,11.855866,-0.8398572,-0.28487265,1.1239921,2.5935245
4.142773600000001,12.90761,-1.2816448999999999,-0.43127087,0.9563008,2.631328
4.672773,13.634749,-1.6406411,-0.5579643,0.8237605,2.6100178
4.9620885999999995,13.293144,-1.2503766,-0.6314251999999999,0.6661922,2.5339037999999996
3.5343014999999998,12.319728999999999,-1.0860865,-0.64100707,0.5070356,2.4109453999999997
3.0501077000000003,10.963375,-0.47532564,-0.6197140999999999,0.34733796,2.2437953999999998
1.4937136999999998,9.582131,-0.36826655,-0.5776690999999999,0.17645279,2.018072
1.7574014999999998,8.84149,-0.16112977,-0.5563585999999999,-0.022619467,1.7253102999999999
1.8901935,8.354969,-0.5384464,-0.57180476,-0.29143506,1.3494886000000001
1.9641456999999998,8.249375,-0.72724354,-0.6143908,-0.6225415,0.8943416
1.9561776999999998,8.187461,-1.1626147,-0.6367484999999999,-0.9744173,0.37798595
1.923923,8.159832000000002,-1.2420064,-0.59416246,-1.2586792,-0.19743164
2.089305,8.153032000000001,-1.2168386,-0.5116607,-1.4641567,-0.81227624
2.1413069,8.034941,-0.94303775,-0.42861795,-1.628654,-1.3962459999999999
2.2208997999999998,7.638787,-0.73117965,-0.28860766,-1.6605761000000003,-1.9535818999999999
2.3169744,7.2385716,-0.6686718,-0.08951793599999999,-1.4567041,-2.4332159
2.5149076,7.579841,-0.70689285,0.17078047,-1.0042275,-2.743553
2.8033805,8.478578,-0.8787869,0.44598398,-0.31913346,-2.907509
3.106448,9.243265,-1.2098093,0.697259,0.46125559999999993,-2.9330432
3.3756232,9.442003999999999,-1.446998,0.8691914000000001,1.1809596000000002,-2.8888689999999997
3.6455073,9.227789999999999,-1.388455,0.8872905000000001,1.6009556,-2.8297896000000002
4.1333976,9.759408,-1.028434,0.7424805,1.6137313999999998,-2.7600462
4.547317,10.821677000000001,-0.8943492000000001,0.5875825,1.261332,-2.6951025
4.690519,10.956489999999999,-0.6462333,0.40552726,0.5730265,-2.560433
5.010001,10.129159,-0.066577956,0.29480356,-0.11630874,-2.2596602000000003
4.861799700000001,9.043905,0.63126475,0.73185146,-1.0201973,-2.2202682
4.654146,8.48731,1.361391,0.87025607,-1.6164018,-2.1175382000000003
4.522197,9.140927,1.7990796999999998,0.9516931000000001,-1.9485728999999998,-1.9951033999999999
4.260367400000001,10.185585000000001,1.7203680000000001,0.92190033,-2.083766,-2.0052087
4.056879,11.380301,0.86995715,0.76220274,-1.8596658,-1.8747803
3.6574782999999997,12.303687,-0.6279608,0.5391322,-1.5546520000000001,-1.7965547
3.2545054,12.319058,-1.8215661,0.3416482,-1.1048284,-1.7092358
2.800718,11.675142,-1.7352311999999999,0.21121974,-0.7731983,-1.7305288
1.7906138999999999,10.764427,-1.3708718999999998,0.26392868,-0.56026816,-1.6650616000000003
1.3431662,9.845542,0.5103289000000001,0.37306413,-0.48839548,-1.5207926
2.7186255,7.853115600000001,2.172786,0.48963466,-0.45593235,-1.3531189
1.7368401000000002,7.262236,1.3293374,0.5599016,-0.24726079999999998,-1.1173073999999998
2.7353084,7.7099804999999995,0.9867942,0.5625720000000001,0.07424631,-0.8681617
3.3228166,7.999382499999999,0.25248295,0.51731557,0.46923175,-0.6083869000000001
3.6831155,8.713763,-0.25742456,0.26925194,0.65341634,-0.17933258
4.229463,9.27892,-0.538772,-0.03361504,0.71783644,0.25980970000000003
4.585068700000001,9.454452999999999,-0.43682688,-0.287543,0.5331108,0.7782946999999999
5.1809855,8.809369,0.25494418,-0.39240238,0.22329742,1.20789
4.7740860000000005,8.5844965,1.3920176000000002,-0.39720201,0.072658055,1.5283499
4.653265,9.1105795,2.1015537,-0.36845645,0.12908456,1.7966419999999999
4.9660720000000005,9.935018,2.4346924,-0.34396950000000004,0.32550392,2.0015786
5.4792547,10.935622,2.183895,-0.43872342,0.5197939,2.1410477
5.9026265,12.123222,1.5383608,-0.5648758,0.6938731,2.1953622999999998
5.832601,13.1932,0.5702606,-0.6623001000000001,1.0713005,2.0931385
4.9261465,14.080701999999999,-0.86095494,-0.7719590999999999,1.5951087,1.9494106
3.8333945,13.830499,-0.79234666,-0.7964460999999999,2.7736772999999997,1.8450923
2.9537362999999996,12.06218,-0.31583354,-0.7815409999999999,3.2351947,1.4852228
2.8990240000000003,10.488624,0.48032475,-0.86510736,2.8364916,1.6183041
3.0996099999999998,9.48235,0.6954007,-0.83316785,2.545842,1.7769370999999998
3.1654793999999997,9.233248,0.69639665,-0.81719804,2.0209691999999997,2.1415887000000002
3.4532626000000004,10.202805,0.24719654,-0.83636177,1.3837669,2.3380082000000004
3.7011867,11.526377,-0.4825753,-0.9737017,0.65341634,2.5094345000000002
4.288571,12.752485,-0.78967476,-1.0998716,0.08063421400000001,2.6483626
5.151058,13.884981,-0.83030915,-1.2116599,-0.33882076,2.760151
5.1217337,14.203717000000001,-1.0052679,-1.2494463,-0.6129595999999999,2.835741
4.653992700000001,13.426156,-0.317021,-1.2063366000000002,-0.80300856,2.8250947
3.6069797999999995,12.624118,-1.7396174999999998,-1.1184943,-0.94141316,2.7495043
1.9414198,11.137874,-1.1243075,-0.9939300999999999,-1.0191325999999998,2.6079058999999996
0.8813823000000001,9.586383999999999,-1.1576252,-0.85978407,-1.0643716,2.383788
0.5041327,8.9431095,-0.55350107,-0.75173074,-1.1224037,2.07291
0.8645367,8.665746,-0.94083506,-0.6974336,-1.2203517,1.6768599999999998
0.9429803,8.4023075,-1.4305451,-0.6750759,-1.359821,1.1988318
1.1601248,8.262333,-1.5507245,-0.6335545,-1.5211068,0.5999744
1.3230454,8.128382,-1.5644002000000001,-0.559029,-1.6366302,-0.08032005
1.6225121999999998,8.039365,-1.2707369,-0.4946263,-1.7207376,-0.8016297
2.0075285,7.8151913,-1.0383365,-0.41688934,-1.7271254,-1.5037582
2.2423134,7.487847,-0.88708043,-0.26199138,-1.5306886,-2.154801
2.5240153999999997,7.2756724,-0.7997974,-0.021903882000000003,-1.0840763999999998,-2.6306998999999998
2.8516858,7.7424173,-0.84978837,0.2852217,-0.38247144,-2.9293256000000003
3.1946887999999998,8.857541000000001,-1.0127665000000001,0.5987701,0.5586624,-3.0821118
3.5605415999999996,9.62154,-1.3763117,0.8542863000000002,1.4146417,-3.108187
3.9067912000000002,9.501964,-1.6509075,1.004402,2.0768544999999996,-3.1060576
4.2697715999999994,9.332215,-1.5303928,0.958081,2.3243945,-3.1097753
4.704242,9.946845,-1.3313006,0.7557974000000001,2.0843072,-3.1039282999999998
5.0656233,10.505556,-1.2080758999999999,0.6158045,1.462551,-3.0847647
5.259745,9.965529,-0.8055723000000001,0.5774771,0.5927486999999999,-2.998528
5.416479,8.837736,-0.0047500962,0.6179338000000001,-0.11098549,-2.6961672
5.0271916,7.765699000000001,0.9430569,1.0805159,-0.64383453,-2.7222424
4.9213963,7.768026,1.7442718000000001,1.2205262,-1.1026989999999999,-2.5678853999999998
4.723808,8.698087,2.0136385,1.2290434,-1.6515353,-2.4385216
4.469515,9.955426,1.5220132,1.0996796,-1.7819463,-2.3262098
4.204103,11.248323,0.060812727000000004,0.85800385,-1.6653756999999998,-2.2447553
3.816846,11.934281,-1.5648693999999999,0.7025823,-1.2091641000000002,-2.0094674
3.1391146,11.851863,-2.5376525,0.5029515,-0.8626290000000001,-1.8071837
2.6521242000000003,11.161289,-1.8759241000000002,0.3975511,-0.6539574,-1.5708312
1.7520958999999998,10.189052,-0.8986396000000001,0.45717153,-0.4867898,-1.3286145
1.4677606,9.383183,1.1495137,0.6642374,-0.20519836,-1.047023
2.6887939999999997,8.008068,1.7105231,0.742498,0.14451326,-0.76701987
2.3306596,7.9606633,1.5792346000000002,0.6322979000000001,0.37660715,-0.5312084
3.0821228,8.54505,1.1172781999999999,0.39381608,0.5389751,-0.3044378
3.3978415,9.052313999999999,0.07135679,0.051015973,0.59007835,-0.10533062
4.067451999999999,9.504328999999998,-0.41279867,-0.33971090000000004,0.48467794,0.23266985
4.4886208,10.179197,-0.1800344,-0.6665587,0.27600637,0.65479517
5.251854,10.259882000000001,0.40298244,-0.74747217,0.049759335999999994,1.0854552
5.1079335,9.589151,1.6027552999999999,-0.6207786999999999,-0.09553932400000001,1.4458482
5.2098116999999995,8.914848,2.6869361,-0.51111966,-0.14611897,1.762032
4.9300733,9.590233999999999,3.5702527,-0.43340015,-0.09234537,2.0345826000000002
5.336953,10.789833999999999,2.6985812,-0.43444735,0.02528982,2.2400777
5.431457,11.58333,1.2754104,-0.5366713000000001,0.16048302,2.3683593
5.5808935,12.449428,-0.13085748,-0.65484756,0.5709145999999999,2.4024282
5.4117002,13.444056,-1.0852916000000001,-0.8166745,1.7159379000000001,2.2603061
4.330747,13.760185,-1.4492486,-0.802834,3.3416598,1.6454616000000002
3.5394535000000005,12.783869000000001,-0.87613416,-0.9742428,2.9956481,1.1189829
3.180448,11.267315,0.25579652,-1.0125527,2.7444081000000002,1.0237054
3.109254,10.1597185,0.97825164,-0.9465619000000001,2.3664396,1.2888035
3.021837,9.609214999999999,0.66513795,-0.85446084,1.8298729999999999,2.09155
3.1071183999999996,10.046932,0.24967693,-0.7916464,1.0931171,2.3795469
3.2725098,11.0479,-0.4025994,-0.8555254999999999,0.3755425,2.5637317000000004
3.6172845000000002,12.243478999999999,-0.9939959,-0.9162106,-0.13760176,2.7361875
3.982649,13.074582000000001,-1.0388825000000002,-0.9646435,-0.46444955,2.8320236
4.6138372,13.550989999999999,-0.81962144,-0.97422534,-0.66141,2.891644
5.179568,13.527000000000001,0.24070346,-0.93804467,-0.7811745,2.8708746
3.770111,13.280426,-3.2236967,-0.8789478000000001,-0.8594350000000001,2.7649505000000003
2.948469,11.969524,-0.99786496,-0.78899354,-0.8977625,2.5999122000000003
-0.9715,9.347586,-1.2353603000000002,-0.6926339,-0.90893257,2.3561246
-1.4905725,8.282855,-0.50638324,-0.6244963000000001,-0.9477836,2.0053134
0.7082144,8.000924000000001,-0.9475771000000001,-0.5957507,-1.0835353,1.5421904
0.8202918,7.6261644,-1.5978136,-0.60267967,-1.3023298,0.9678200000000001
1.2567643999999998,7.7642812999999995,-1.5173492,-0.5888217,-1.5088546,0.27207938
1.540209,7.845061299999999,-1.5777023000000001,-0.555294,-1.6302248,-0.44975388
1.7469723999999998,7.7888074000000005,-1.4655292,-0.5451885000000001,-1.6839983,-1.2088499
2.1022336,7.634458,-1.3780259,-0.48556805,-1.6648346,-1.9344008000000001
2.3940197999999997,7.361538,-1.2428876,-0.30616567,-1.4178357,-2.5529804
2.5274343,7.104592299999999,-1.1395538,0.00043633230000000004,-0.8972214,-2.9719117
2.7904706000000004,7.4336224,-1.1229381999999999,0.35868259999999996,-0.046565384,-3.196012
3.1989693999999997,8.347844,-1.2396601,0.714276,1.0084861999999999,-3.2290337000000005
3.6217952000000007,9.245344000000001,-1.4909364,1.0033374,2.1135938,-3.0954113
4.149707,9.435271,-1.642135,1.123102,2.9573207000000004,-2.8819401
4.65225,9.349636,-1.4644278,1.013984,3.2639403,-2.6312234
5.172931,10.267582,-1.4083940000000001,0.7595324000000001,2.9296398,-2.4092523999999997
5.5595665,11.101817,-1.4213132,0.59344685,2.1189169999999997,-2.223986
5.6433153,10.509722,-0.80466247,0.566307,1.0526779,-1.9056551
5.554021,9.309939,0.26586172,0.34857717,-0.41919318,-1.5239866000000002
5.321697,8.317304,1.5120533999999999,0.7409097,-2.5229432999999997,-1.3562953000000002
5.2211313,8.649025,2.3207476000000002,0.7153406999999999,-3.9905732000000005,-1.3749354999999999
5.0150676,9.942095,2.4624650000000003,0.86439174,-4.1939216,-1.5404799
4.5760283,11.3351755,1.3871909,0.61845744,-4.543650599999999,-1.6107643999999999
3.8587443999999995,11.815442,-0.677358,0.46994734,-3.8649445,-1.2929573
2.8052957000000003,11.400288,-2.6034741,0.08189085,-2.5788286,-1.3461899
2.1438639999999998,11.002276,-3.3595057,-0.280073,-1.3065708999999999,-1.7922786
1.3429077,10.418224,-1.973416,-0.45095816,-0.23181464,-1.9817865000000001
0.07513005,9.575543,-0.13428599,-0.43444735,0.5421691,-1.9530408
-0.12634681,8.964417999999998,2.4157112,-0.3279997,1.1149513,-1.7880200000000002
0.5521795,7.74915,2.7738742999999997,-0.12304571,1.4279586000000002,-1.4872475
2.0527503,7.063460000000001,2.7880862,0.11009537,1.465745,-1.1055788
3.7382011,7.132364999999999,1.3421319999999999,0.24691173,1.3571681,-0.66374874
3.1926584,8.587494,1.1075289,0.30014428,1.1538197000000001,-0.17826793
3.8052676,8.937803,0.61410314,0.16598082,0.77052796,0.32742378
7.5352902,9.610975999999999,-0.36550844,-0.02136283,0.34946728,0.80864596
9.050686,9.378461999999999,-0.3927736,-0.10016444,0.044436082,1.2052372
7.705642699999999,8.540979,0.019756952,-0.12889257,-0.087545715,1.5155741000000003
6.831701299999999,8.47761,0.6437338,-0.103340946,-0.062535144,1.7859953999999998
6.0528293,9.490434,1.507332,-0.11185815,0.051888637,1.970721
5.374207,10.303131,2.177105,-0.20715313,0.12908456,2.078251
4.850442,10.951088,1.6653588,-0.3152239,0.17273523,2.0606754
4.5394735,12.11037,0.53644484,-0.417954,0.54429835,1.9669861000000002
4.190801,13.460834,-0.35768414,-0.4243419,1.4721328000000002,1.680595
3.7925972999999997,14.153505,-1.1484315,-0.46799257,2.3845387000000002,1.4069797
3.3451687999999993,12.869638,-0.8392825999999999,-0.43605307,3.502963,1.2531464
3.3628379999999995,10.962427,-0.38843527,-0.38547343,3.7962830000000003,1.1818148000000002
3.1657286,9.909342,-0.15435898,-0.43657666,3.4715644999999995,1.7114699
3.1758416,10.035843,0.068474166,-0.40837213,2.5692642000000006,2.2395367999999998
3.4764576000000003,10.921899,-0.283665,-0.5547529,1.543482,2.4013636000000003
3.778146,11.601937,-0.7438689,-0.7692888000000001,0.6800501,2.5866130000000003
4.481658,12.03931,-1.121607,-0.9289864,-0.047106437,2.728735
5.1490083,12.258696,-1.0274094,-1.0530095,-0.60337776,2.7942197
5.039929,12.114833,-0.44425848,-1.0998541000000002,-1.0223266,2.800084
4.8992934,12.040909,-0.6539139,-1.06685,-1.3060473,2.7345994
4.915986,11.352012,-0.13482228,-0.9832835999999999,-1.4630921000000001,2.6031237000000003
1.8070095000000002,9.630074,-0.8972606,-0.8677777,-1.512066,2.4093397000000003
-1.4730086000000002,8.439877000000001,-0.48941314,-0.7900581999999999,-1.5253653999999999,2.1117785
-0.1982399,8.075787,-0.6788519000000001,-0.7921875,-1.5881798,1.7258339
0.54821473,8.1372595,-1.4957343,-0.82198024,-1.7074207,1.2201422
0.42272982,8.216508000000001,-1.5988863000000002,-0.8225213,-1.8479546000000002,0.5696230999999999
0.8365149,8.129646000000001,-1.5365603,-0.7187091,-1.8490193,-0.11013027
1.2506542999999999,7.9856300000000005,-1.5128865,-0.59416246,-1.7207376,-0.78457785
1.6094398,7.687005999999999,-1.3061136,-0.48555058,-1.5487877,-1.388776
2.0524533,7.1697625999999985,-1.0962093000000002,-0.28806659999999995,-1.2017115,-1.943459
2.3774040000000003,6.846871000000001,-0.93358546,-0.033073988,-0.68429124,-2.3565435000000003
2.7196789,7.3340144,-0.9795446,0.25808182,-0.002391101,-2.6770034
3.1111596,8.769923,-1.250367,0.5300914000000001,0.7843684,-2.8878043
3.550649,9.852323,-1.6913023999999997,0.7616616999999999,1.6169428999999997,-2.9820173
4.0116,9.967924,-2.0312982,0.8164825,2.2599744999999998,-3.0491076
4.839993499999999,9.373222,-1.7366293999999998,0.7041705,2.5229432999999997,-3.044308
5.035446599999999,9.680178999999999,-1.0552491000000002,0.52797955,2.3291942999999997,-2.9756292999999996
5.145407700000001,10.675889,-0.8968009,-0.20076522,0.905215,-2.6312234
5.0946026,10.3571825,-0.6472197,-0.9140813,-0.36808994,-1.6783609
5.2471323,9.141426,0.09624691,-0.011798426,-1.7058325,-1.7704445
5.0675864,8.52921,0.9210110999999999,0.6770307,-1.9804949,-2.1776822
5.149842,9.314747,1.4824514,0.8878315,-2.2376167999999996,-2.114868
5.165864,10.976399,1.8386128000000002,1.049641,-2.2408109,-2.1420252
5.0673084,12.613219,1.1558535,0.9059306,-1.8644479999999999,-2.1377490000000003
4.8571362,13.058465,-0.58950996,0.6732956999999999,-1.303377,-2.1185853
3.9086301,12.284275,-1.9659746999999999,0.35177112,-0.67790335,-2.224527
3.0940747,11.314202,-2.4814944,-0.057560957999999995,-0.3063402,-2.3671901
-0.51890975,11.016153,-4.550324400000001,-0.28646088,-0.059864793,-2.4353278
-0.587336,9.511808,1.3307069999999999,-0.12304571,0.16102408,-2.3560026
3.929699,6.5231657,7.543784599999999,0.17078047,0.43889794,-2.1175208
3.2573402000000002,5.0953116,1.5189677,0.4694063,0.6747094,-1.7656623
2.3174915,6.6466966,1.416764,0.67381924,0.9360898999999999,-1.3451252
3.1674137000000004,7.8509899999999995,0.05995081,0.80265945,1.1974704,-0.87613785
3.57416,8.730830000000001,-0.41135257,0.79946554,1.4311526,-0.39491564
4.372099400000001,9.4345045,-0.8520005999999999,0.5657833999999999,1.3561034,0.21245892
5.571288,9.624021,-1.9542432,0.08241445,0.84398884,0.8256804
5.685444,9.269753999999999,-2.2206892999999996,-0.30403635,0.26429522,1.2494113000000002
5.5201387,8.723945,-0.581044,-0.4243419,-0.04923574,1.5613540000000001
5.1462407,9.092575,1.5685947,-0.45734608,-0.12322024,1.8158057
5.275824500000001,10.221996,2.923301,-0.51057863,-0.0699877,2.0021195
5.6414475,10.918671,3.1720107000000004,-0.6702762,-0.0023736479,2.1527762000000004
6.0286956,11.568811,2.1256009999999996,-0.8470083,0.057752945,2.1974742000000003
5.572093,12.527546000000001,0.9361806999999999,-0.90556407,0.22170918,2.1053908
4.593429,13.459378,-0.028347347000000002,-0.9209928,0.76893973,2.0569577000000003
3.0555567999999997,13.564885999999998,-0.91227704,-0.85871947,1.886823,2.2267609
2.4880834,12.396564,-1.4553204,-0.71125656,2.8902652,2.0665395
2.6359012,10.540004,-0.6182978,-0.80229294,2.546383,2.2411423
2.6484468,9.262094,0.37150347,-0.80388117,2.2881966,2.3401549999999998
2.7635312,9.606542999999999,0.516822,-0.8299738999999999,1.6829337,2.6281342999999997
3.2237062,10.833342,0.3765696,-0.8640426999999999,1.0212619,2.7404637000000003
3.8733013,11.981352000000001,-0.24512795,-1.0040356,0.33190927,2.8634222
4.8039083,12.623045,-0.46951255,-1.109977,-0.19242255,2.943812
5.5107245,12.946147999999999,-0.54335934,-1.1557571000000002,-0.5033006,2.9704282
4.681919000000001,12.809956,-0.5201834,-1.1445695,-0.69120276,2.9810748
3.2623873,12.052938000000001,0.20925324,-1.0689793,-0.77956873,2.9464647999999998
3.2581446,11.421539,-0.38580167,-0.9582556000000001,-0.77318084,2.873545
1.887895,10.667538,-0.83452296,-0.816657,-0.73326516,2.7420517999999996
0.8107054,9.575782,-0.7073716999999999,-0.70061004,-0.7290066,2.4934647
0.9803394,9.53553,-0.69503677,-0.6441836,-0.7966032,2.1202958
1.1631989999999999,9.461636,-1.1180729999999999,-0.6234316,-0.9871931,1.6060694
1.0543873,9.148437,-1.6554276,-0.59042746,-1.2219399,0.943333
1.582347,8.97028,-1.5430247,-0.5111022,-1.3810965,0.19966567
1.8388618000000003,8.753267999999998,-1.3256502000000001,-0.44722316,-1.4465812,-0.55354863
2.0055077,8.4379425,-1.0262698000000001,-0.36472145,-1.3869607,-1.2498302
2.1943433,7.8312902,-0.8513110999999999,-0.18586011,-1.0473371999999999,-1.7970608000000001
2.27928,7.3060410000000005,-0.7189405,0.056339227,-0.5384340999999999,-2.18407
2.4751163,7.636976700000001,-0.6697348000000001,0.31185544,0.045518185999999995,-2.496013
2.9396869999999997,8.863766,-0.8896279,0.51572734,0.6214943,-2.7653694
3.3766,9.793865,-1.2101732,0.6445501,1.0910053,-2.9915990000000003
3.8867947999999997,9.907906,-1.4641979999999999,0.650938,1.3773963,-3.1933591
4.428689,9.520964999999999,-1.3522451000000002,0.54927254,1.4215707,-3.3243112999999997
4.927544999999999,10.028871,-1.0222093,0.46090654,1.226216,-3.3716793
5.2663918,10.618457000000001,-0.95819783,0.4641005,0.91692615,-3.2769256
5.2165346,9.498583,-0.43340796,0.5828178,0.5166175000000001,-3.0969994
4.8153143,8.359220500000001,0.41339245,0.7659203,0.11791444599999999,-2.8798107999999996
4.510561,7.9897094,1.1941513000000001,0.91603607,-0.32337459999999996,-2.7025552000000004
4.611577,8.83584,1.5238136,0.9644864,-0.90306824,-2.6290941
4.7467637,10.304079,1.2879847,0.89847803,-1.5322944,-2.6221652
4.785329,11.65644,0.61464906,0.73823935,-1.9980703999999998,-2.6200360000000003
4.5323577,12.1805105,-0.46412078,0.6381621999999999,-2.0960183,-2.6019368
3.9690692000000003,11.488769,-1.2074246000000002,0.60517544,-1.7617179,-2.4204051
3.2026757999999997,10.455402000000001,-1.1069543,0.5556605,-1.1990412,-2.2181215
2.2761674,9.362613,-0.5543918000000001,0.5987701,-0.54056334,-1.9753985
1.6962535,8.279293,0.20967461,0.79414225,0.23076743,-1.7113651
1.4233049999999998,7.624498,0.77490735,1.0225011,1.063848,-1.4467907
1.7663271,7.625034299999999,0.48968127,1.1348305,1.6664404,-1.1364536
2.3570054,8.536852,-0.19141163,1.0400766,1.9155687,-0.8122588000000001
3.0875049999999997,9.579211,-0.6639121,0.7834956999999999,1.9198272,-0.51309186
3.7036862,10.081581,-0.32773748,0.44493678,1.6834748,-0.18996164
4.3171096,9.990889,0.47748044,-0.048502699999999996,1.1522139999999998,0.22575834
4.9076633,9.853759,0.9881445,-0.5590115,0.46657887,0.6984633000000001
5.6932774,9.434103,1.3047538,-0.770877,-0.0029146996999999996,1.1094184999999999
5.946172,9.123306,2.1411632999999997,-0.753319,-0.14824827,1.4362663
6.2225204000000005,9.532332,2.9140117,-0.7692888000000001,-0.061994094000000007,1.7242456999999998
6.324102,10.510297,3.082592,-0.95560265,0.018901916,1.9893438
6.098664,11.362307000000001,2.3441246,-1.2356058,-0.035377822999999996,2.2092028
5.814663400000001,12.301466,0.96613705,-1.3936977,0.03913028,2.2624353999999998
5.243100599999999,13.26245,0.05442499,-1.3505707,0.28187066,2.1064727000000003
4.1345277000000005,14.157221,-0.49391425,-1.296291,0.90467393,2.0101131999999997
2.9040422,14.057642000000001,-0.8804821,-1.1568216999999998,1.8314612000000001,2.0303416000000003
2.2421699,12.024332000000001,-0.15252979999999997,-1.1403108999999998,1.6978563000000002,1.9206824
2.3753834,10.058741,1.0080738,-1.0705850000000001,1.5780743,2.1777868
2.5986857000000003,9.901145,1.2429832,-1.0114881,1.3172348999999999,2.4588723
2.7523932,11.245028999999999,0.54842544,-1.035434,0.89884454,2.6015353
2.92446,12.395242,-0.29438147,-1.1195414,0.45593235,2.7511099999999997
3.3280456,12.974888,-0.7388698,-1.2451702,-0.01675516,2.834694
4.486724400000001,12.952536,-0.23651839999999996,-1.3612347,-0.41067597,2.894838
5.307313,12.647715,0.22409728,-1.4192493999999998,-0.742847,2.9299715
4.2151356,12.096915,0.23723666,-1.3857042,-0.9866521,2.9246483
3.6470491999999997,11.076219,0.39178717,-1.2856444,-1.1410265,2.870351
2.6107428,10.076064,-0.6877966999999999,-1.1419165,-1.2043643999999998,2.7606919999999997
0.71086717,8.709091,0.14903428,-0.98647755,-1.1979766,2.513152
1.0683023999999999,8.095131,-0.51715714,-0.9028937,-1.1548669,2.1549056
1.2625008999999998,8.593115,-0.5397105,-0.85498446,-1.1064166000000002,1.6609076
1.3185347,8.63803,-1.0956441000000001,-0.7793941999999999,-1.0798002,1.0481924
1.5133749,8.695395,-1.4435408,-0.6362074000000001,-1.0798002,0.35351643
1.5173014,8.624882000000001,-1.6480345,-0.4940678,-1.1458087,-0.39969784
1.6920111,8.476671000000001,-1.4012975,-0.34768704,-1.2666552,-1.1092963
1.9572694,8.225567999999999,-1.0898981,-0.055955257,-1.1692308999999999,-1.7225352999999999
2.1480396,7.76725,-0.8882680000000001,0.30653217,-0.81896085,-2.1515896
2.5462527,7.9937320000000005,-0.72223485,0.64456755,-0.28131217,-2.4592736
3.163411,9.349950999999999,-0.80215335,0.8968898000000001,0.3122045,-2.7110548
3.635739,10.416089999999999,-1.1201895,1.0491348999999999,0.8312305,-2.909621
3.9492357000000005,10.225214,-1.2999558,1.0363591,1.1692658999999999,-3.0714478
4.0908093,9.22348,-1.1283299,0.8825083,1.2852953999999999,-3.1917534
4.382614599999999,9.57267,-0.7826261999999999,0.7382568,1.1969292999999999,-3.2401862
4.7081404000000004,10.587677000000001,-0.83424526,0.6860889,0.9286373,-3.1981412999999996
4.730981,9.875325,-0.5040752000000001,0.7398451,0.5538801999999999,-3.097523
4.5606956,8.321,0.7616243,0.8537627,0.02316052,-2.9926636
4.2138333,7.329896499999999,1.7024019,0.9740681999999999,-0.5522745,-2.9378428
4.305473999999999,7.7592053,2.0021942,1.0682812,-1.1154747999999999,-2.9117502999999996
4.334319,9.404108,1.7096803,1.0289065,-1.8026983,-2.9037566000000004
4.275594,11.1434,0.92998457,0.78562504,-2.355252,-2.891522
4.1796727,11.915261,-0.26394638,0.6456321999999999,-2.245593,-2.7898389999999997
3.7927413,11.561974000000001,-1.1336354,0.39648643,-1.8218619999999999,-2.39433
3.2294812000000004,10.829692999999999,-1.0176505999999998,0.10850712,-1.2107523999999998,-2.0185082
2.5312936,10.099586,-0.41888952,0.17770943,-0.52246433,-1.8327353
2.0679772,9.295899,0.21535365,0.5487314999999999,0.22490312,-1.2721879999999999
1.9479991,8.688328,0.5431581999999999,0.7073645000000001,0.52619934,-0.9868615
2.3611617000000003,8.667613000000001,0.7971925999999999,0.54342574,0.43837434,-0.6786364
2.802691,9.058836,1.2862129999999998,0.13564698,0.13653710000000002,-0.40716785
3.162338,9.876723,1.1607857,-0.19277161,0.048171088,-0.1404641
4.686621,10.321900999999999,0.20208020000000002,-0.30403635,0.34149113,0.17252579999999998
5.381792,11.001567999999999,0.8663274999999999,-0.31946507,0.6129770999999999,0.54354787
5.395506,10.705587,0.8483519,-0.32745868,0.6555631,0.98059577
6.6413720000000005,9.117972,1.1839518999999998,-0.23535764,0.6321408000000001,1.2983854
5.8991504,8.228949,3.2010092999999995,-0.08257153,0.71198964,1.5209148000000001
5.135103,8.653392,3.4010017,-0.06447246,0.8461356,1.7152048
5.354967,10.241063,2.3262446,-0.12091641,1.0691712,1.8999131
5.134327,11.688444,0.38838738,-0.33065262,1.2560261000000001,2.044182
5.7057176,12.775105,-0.9586575,-0.64205426,1.3417219,2.096891
6.096576,13.137089999999999,-0.47187799999999996,-0.93909186,1.3869783000000002,2.0452466
5.958785,13.187598000000001,0.034045547,-1.0641797,1.6478177,1.9430401000000002
4.887590400000001,13.04523,0.7894831999999999,-1.0354515,1.5605163999999998,1.9334582999999999
3.9532866,11.409406,1.0877048999999999,-1.0130938,1.3965601,2.111255
3.8590605000000004,9.242241,1.5563556,-0.81772166,1.1857592,2.369965
3.6541360000000003,8.63486,1.1989013000000002,-0.7240324,0.82803655,2.5578673
3.560944,9.5572605,0.5369045,-0.6676059,0.4271867999999999,2.706395
3.5129642,11.212641,-0.13830824,-0.6766641999999999,0.11470304,2.7936962000000003
3.7726967000000005,12.7313595,-1.172431,-0.70273936,-0.021013765,2.8362822999999997
4.239662,13.863529000000002,-1.9703515,-0.7357435,-0.048153635,2.8352174999999997
4.6239886,13.975616,-2.0640986,-0.7538425999999999,-0.039636426,2.7734678
4.4927387,13.382360999999998,-1.2655368,-0.73839647,-0.019408062,2.651574
2.8161845000000003,12.391555,-1.1197681000000002,-0.68943995,0.006126106,2.4886649
1.9387478999999999,11.054958000000001,-0.4417781,-0.6223495,0.03965388,2.300763
1.2033832,9.588471,0.0034859576000000002,-0.551559,0.07213446,2.0420526999999997
1.3571198,8.768993,-0.29981149999999995,-0.5302659000000001,0.05030039,1.7077523000000001
1.5254893999999999,8.297153999999999,-0.5457821999999999,-0.5717873,-0.09073967,1.3063790000000002
1.8564448,8.047506,-0.84810287,-0.6244963000000001,-0.3696782,0.81663954
2.1089756,7.945359,-0.91160667,-0.6244963000000001,-0.7220776,0.24863960000000002
2.3035092,8.008835000000001,-1.0071832,-0.55103534,-1.0297617000000001,-0.38161623
2.5130882000000003,7.916964500000001,-0.93873775,-0.46745154,-1.3342519,-0.9783443000000002
2.6221585,7.601389,-0.75482476,-0.31414179999999997,-1.5306886,-1.5213163
2.6365526000000004,7.182624000000001,-0.6053308000000001,-0.054890607,-1.438064,-1.9801807
2.696417,7.076427499999999,-0.53544885,0.20219639,-1.1325091999999999,-2.288406
2.9741156,7.933484599999999,-0.6061831999999999,0.43163738,-0.6885498000000001,-2.525282
3.1140997,9.35947,-1.021673,0.58175313,-0.24404939,-2.7126606
3.2396421,10.306723,-1.4010103,0.6397679000000001,0.10992084,-2.8878043
3.285611,10.307373,-1.5805083999999998,0.59239966,0.35533157,-3.055478
3.5232498999999997,10.197604,-1.2944108,0.49445176,0.44954446,-3.184301
3.8871589,11.137635000000001,-0.9879913,0.43483132,0.39737657,-3.223693
4.026098999999999,11.381844000000001,-0.87242794,0.47368234,0.22703242,-3.196012
4.249871,9.78175,0.15677233,0.6200631,0.03487168,-3.0964758
4.1589775,8.470331,1.0341228,0.82767004,-0.07902851,-2.9607240000000004
3.9540910000000005,7.855328,1.4957535,1.0028138,-0.13386676,-2.8185843999999998
3.9802358,8.609358,1.3727778,1.0485938,-0.36808994,-2.6817856
3.9892285000000003,10.217878,0.9993780999999999,0.99003804,-0.61987114,-2.5843613
4.169866000000001,11.642342,0.43126276,0.8580213,-0.7252715999999999,-2.5018597000000002
4.2524085,12.180233,-0.31869699999999995,0.6871536,-0.6400995,-2.3155457999999998
3.9768263999999998,11.811967,-0.74045956,0.5412964,-0.5363048,-2.0483184
3.5042782,11.111433,-0.63210756,0.44547784,-0.40959388,-1.801843
3.103891,10.185366,-0.2006341,0.4657062,-0.31644565,-1.5942361
2.8013307999999997,9.108808,0.45640188,0.6083694000000001,-0.10190977,-1.3445842
2.8006318,8.323682000000002,1.1010646000000002,0.6993883000000001,0.15995942,-1.024648
3.068524,8.197996,1.2526273,0.5322380999999999,0.33032100000000003,-0.7233516999999999
3.4336205,8.55408,0.79374486,0.34060100000000004,0.6433109,-0.4438896
3.9880695,9.249089,0.5053297999999999,0.17823303,0.96483546,-0.14526375
4.299603,9.86506,0.21000022,-0.05169665,1.1410438999999999,0.23746950000000003
4.5435915,9.89672,0.40900627,-0.34608135,0.96802944,0.70539224
4.7773037,9.497186,0.9360466999999999,-0.52600735,0.6379876999999999,1.186597
5.2105875,8.776311,1.5490389,-0.50204396,0.36384878,1.5437961
5.2003207,8.423480999999999,2.0927333999999997,-0.47116908,0.25897196,1.8083706000000002
4.939899,9.157064,2.794924,-0.46851617,0.3143338,2.0223653
5.124827400000001,10.380522000000001,2.0886728999999997,-0.59946823,0.41441098,2.2017502999999996
5.703362,11.317515,0.99583465,-0.87627745,0.4351804,2.3492131
6.154918,12.356914999999999,0.49284163,-1.0641797,0.64756954,2.3353727
5.848872,13.38964,0.02635537,-1.1594746,1.2309982,2.2193258
4.8329835,14.202461999999999,-0.44793597,-1.1381816,2.4191484,1.8876783
3.4921154999999997,13.829129,-0.19815372,-1.1722503999999998,2.1072059,1.5374081
2.7763259999999996,11.607511,0.6789956,-1.2079073999999999,1.6653756999999998,1.7535323
2.8473284,9.912416,1.2856767,-1.1009188,1.3986893999999999,2.0580225
2.9044157999999998,9.656582,0.93191904,-0.9955183000000001,0.9350252,2.4141395
3.0562080000000003,10.822548,0.512522,-1.0066885,0.44902086,2.6228285
3.1947365000000003,12.21289,-0.46049118,-1.0844079,-0.10831513,2.7585627999999995
3.4883232000000004,13.313158999999999,-0.94221413,-1.1392461999999999,-0.46497315,2.8203125
4.393552,13.651844,-0.63951045,-1.1658624,-0.73326516,2.8618338
4.522082,13.535734,-0.21323718,-1.1461576999999998,-0.8977450000000001,2.870351
4.842263,13.191946,0.42553583,-1.1195414,-1.0095333,2.8075366
3.4638257000000006,12.1910925,-1.8859797999999999,-1.0695028,-1.1048284,2.6882957999999997
1.6790631999999999,10.8268385,-0.46839200000000003,-0.9694257,-1.1239921,2.5211456
0.08935161,9.0547085,-0.15567099,-0.8422086,-1.0734124,2.2858577
0.61915016,8.717174,-0.2793746,-0.74000216,-1.0047337,1.956357
0.9555163000000001,8.284609,-0.9914389000000001,-0.703263,-1.0388199,1.5416667
1.4474864,8.1676855,-1.4374021000000001,-0.6931575,-1.1702956,1.0040181000000001
1.754835,8.017301,-1.4482144,-0.6340607,-1.2847543,0.35351643
1.7516171000000003,7.762739,-1.1602013999999998,-0.5600762,-1.3534156000000002,-0.36349973
2.0040426,7.651476,-1.0450690999999999,-0.51855475,-1.4524281,-1.0826801000000001
2.2849112000000003,7.4075646,-1.140818,-0.41901866,-1.4705271999999998,-1.7512808000000002
2.4673684,7.0595818,-1.0473866,-0.19275416,-1.2400215,-2.2921236
2.7430081000000004,7.130689599999999,-0.8027088000000001,0.089867,-0.77850413,-2.6796563
3.1130942999999998,8.167618,-0.6000061,0.36775833,-0.15781267,-2.9649653
3.5265440000000003,9.670822,-0.81810826,0.60037583,0.4873483,-3.1555552000000002
3.8251586000000004,10.342195,-1.2884539,0.74729764,1.0212619,-3.30513
4.1770487,9.770909,-1.3401496000000002,0.746233,1.3550388,-3.4414053
4.518127,9.736777,-0.9350411,0.63709754,1.4300879,-3.5122132000000006
4.820744,10.502616,-0.93616164,0.55618405,1.2948772,-3.4951790000000003
4.9425807,10.269977,-1.0038121,0.58866465,0.996775,-3.3951017999999995
4.980533,8.668438,-0.21187727,0.7616791,0.65449846,-3.2093115
4.764289,7.337960000000001,0.9695655000000001,0.9889734,0.33456215,-2.9841466
4.6194489999999995,6.888223599999999,1.7343693,1.148671,-0.008761553,-2.7797334
4.5426910000000005,7.8589287,1.8737308999999998,1.1353716,-0.6294529999999999,-2.6269473999999997
4.4616427000000005,9.729069,1.6340139,0.9384111999999999,-1.3065708999999999,-2.5337992000000003
4.555122,11.451917,0.78559506,0.67650706,-1.7819463,-2.4033706
4.531314,12.127666,-0.5353051999999999,0.40341540000000004,-2.0459796999999997,-2.079717
3.9998682,12.05901,-1.3956663999999999,0.17025687,-2.107712,-1.7762914
3.4192648,11.672097,-1.3550799,0.15109316,-1.913963,-1.5420682
2.8590887,10.882844,-0.57740486,0.2107136,-1.5764686,-1.3850409
2.3500624,9.825431,0.4989612,0.30068532,-1.1250392,-1.2130911
2.299468,8.940505,1.2924284,0.21551326,-0.6800151999999999,-1.0321004
2.6564817,8.609712,1.4431194,-0.04691445,-0.2046573,-0.81386447
3.0066001,8.923266,0.79193485,-0.23055799999999999,0.40111157,-0.5476843000000001
3.5913312000000004,9.634258,-0.09149681,-0.297631,0.9675058000000001,-0.19050269
3.417608,10.031131,0.067018494,-0.33117622,1.3225756000000002,0.19435987
3.3908887,9.658985000000001,0.16821662,-0.34766957,1.3097823999999998,0.6984633000000001
4.03015,8.848299,1.3169162,-0.2987131,0.9941221,1.1993728000000001
5.1374683,8.312525,2.3377368,-0.22204079,0.64437556,1.5741473
5.7412863,8.550317,2.6802132000000003,-0.16029103,0.4271867999999999,1.8823550999999998
6.2004943,9.903539,2.4433403,-0.14805628,0.32925636,2.1352184
6.7707543,11.240959,0.95364887,-0.21087068,0.34735543,2.350278
7.232634,12.177811,-0.13635457,-0.34927529999999996,0.40695843,2.5216866000000002
7.353896000000001,12.881801,-0.30929255,-0.49885002,0.5373869000000001,2.5791779
6.941155,13.533503,-0.19422722,-0.60159755,0.84826493,2.5088932999999995
5.642913,13.838351000000001,-0.17738162,-0.5951922,1.5142127,2.3944520000000002
4.0890379999999995,12.910474,0.27349445,-0.46745154,1.9193037,2.5062404
3.3578968000000002,10.975653,0.5756140000000001,-0.39344957,2.066749,2.5408504
3.175449,9.481402000000001,0.5242823,-0.25026277,1.8889699,2.7750735
2.9348986,9.065567999999999,0.20520224,-0.1629614,1.6408886999999999,2.8847325
3.04734,9.889403,-0.17696981,-0.17200220000000002,1.3406572,3.004497
3.2402456,11.07008,-0.65174955,-0.2449395,1.0510721,3.0657232000000003
3.6811519999999995,12.363495,-1.1596076000000002,-0.37109190000000003,0.7614871,3.0694407999999997
4.5475183,13.373273999999999,-1.4897776000000003,-0.48822096,0.49106583,3.0311133999999997
5.2163334,13.423024,-1.5417031,-0.5680523000000001,0.26803023,2.9533937000000003
4.5862274,12.864994,-0.79962504,-0.59786254,0.11737339,2.8511872000000005
3.492374,12.158656,-0.35319263,-0.59253925,0.03913028,2.7213
2.1112645,10.687908,-0.740268,-0.57072264,-0.037507123999999996,2.520622
1.7167959,9.590703,-0.37206852,-0.5281366,-0.10510372,2.2038796
1.7480639999999998,8.974003999999999,-0.67667806,-0.5009793,-0.19294615,1.7572674
1.6438494,8.931378,-0.9552003000000001,-0.51056117,-0.37021923,1.1732976000000002
1.8783758000000002,9.030412,-1.3223271,-0.5259899,-0.6379701999999999,0.4919385
1.9143078000000002,9.006432,-1.5323466000000001,-0.49139744,-0.9190379999999999,-0.24000022
2.104618,8.917176,-1.5108466,-0.42858306,-1.1692308999999999,-0.99057907
2.1677103,8.707443,-1.2678161000000001,-0.34608135,-1.4050424,-1.6783435000000002
2.1964982,8.175624000000001,-0.9873209000000001,-0.1783901,-1.5024667,-2.3000996
2.2541697,7.3950762999999995,-0.96972835,0.068050385,-1.3518273,-2.8010266
2.4417698,7.089174000000001,-0.9108118000000001,0.3384717,-0.9067858,-3.1619432
2.8432007,7.876693700000001,-0.7289194999999999,0.5503372,-0.2845061,-3.4227827000000004
3.2980032,8.866611,-0.8354423000000001,0.6961944,0.40376446,-3.5979089999999996
3.6856246,9.144816,-1.1651622,0.72228706,1.0207384,-3.6346480000000003
3.978761,8.820431,-1.232851,0.62220985,1.4960963,-3.5196660000000004
4.304794,9.084052,-1.0298036,0.51255083,1.6307833,-3.317906
4.575118,9.906116,-0.9717585999999999,0.5050983,1.4173120000000001,-3.0879412
4.568874,9.5602,-0.64696115,0.35072392,0.7641574999999999,-2.6610162
4.679697,8.506464999999999,0.1797854,0.2713987,-0.027384216,-2.1893759
4.561452,7.6046834,1.1289523000000001,0.8324697,-1.0313674000000002,-2.1750119
4.6347337,8.008604,1.6634147000000001,0.8015948,-1.7585065,-2.098357
4.8268924,9.855291000000001,1.6150421999999998,0.87505573,-2.3030841,-2.1090035
4.9780335,12.169957,1.3031639,0.7025823,-2.4420123,-2.1994990000000003
4.800259,13.590725,0.30766448,0.37414622,-2.3744156000000003,-2.1467897999999996
4.003373000000001,13.283423,-0.8269380999999999,-0.0043284167,-2.1226344,-2.0866458
3.3834187999999994,12.332207,-1.1517546,-0.31946507,-1.6791987000000002,-2.0238313999999997
2.6928928,11.327581,-0.7663552,-0.41846013,-1.1883947,-1.9540881
0.7515590999999999,10.551831,-0.87632567,-0.22310543,-0.5096885,-1.717212
1.3525037,9.487196,2.43565,0.04462807,0.21745057,-1.399405
2.6802227000000003,7.154008999999999,2.4538363999999997,0.24106488,0.8967153,-1.0283829
2.2160347000000002,7.733109,1.4660846,0.38531634,1.3284223999999998,-0.6152984
3.5495669999999997,8.846814,1.1876485,0.4044975,1.5275121999999999,-0.26129323
4.2827578,9.4883175,0.23153844,0.34700635,1.5067602,0.09588839
4.7523565,9.836798,-0.26829425,0.13140585,1.1815007,0.4865978
5.46557,9.5838175,-0.7789295999999999,-0.053825952,0.8136725,0.9188459999999999
6.3930644999999995,8.991050999999999,-0.27480647,-0.08895943,0.50118876,1.30692
6.7430587,8.136235000000001,0.8732228000000001,-0.1113171,0.32552135,1.6167334
6.366383,7.8304860000000005,2.3003109,-0.11397,0.3351032,1.8882193999999999
6.3436675000000005,8.825018,2.4143417,-0.16828464,0.439439,2.086768
6.0220304,10.261635,1.7777043999999997,-0.29443705,0.5235464,2.2187848
5.7642894,11.573944000000001,0.6986664,-0.43444735,0.5996602,2.2693644
5.819930599999999,12.910578999999998,-0.057939682,-0.5653994000000001,0.9014975000000001,2.2171965
5.254018,14.119249,-0.54721874,-0.58669245,1.8586186000000002,2.1203132
4.2537684,14.231067999999999,-0.9581308000000001,-0.516408,3.2229773999999995,1.6997761999999998
3.3065171,12.429068,-0.30152577,-0.57550484,3.0457044,1.373993
3.0354838,10.683388,0.24874799,-0.51536083,2.9413686,1.5246323
2.9608326000000003,9.862003999999999,0.44792643,-0.6074444,2.4835687,1.6348325000000001
3.0222871,10.072532,0.40183324,-0.5856278,1.7596060000000002,1.9201415000000002
3.3042569999999998,11.056596,0.022668302,-0.6713234,1.0276673,1.9877555
3.5232785000000004,11.999538000000001,-0.35769373,-0.8672191999999999,0.35320228,2.1134017000000003
4.019156,12.734836,-0.58858097,-1.0088178,-0.12693779,2.2097439999999997
4.4827213,12.767665,-0.517138,-1.1328409,-0.47986080000000003,2.2943922999999997
4.1984434,12.347004,0.33273658,-1.1866143999999998,-0.7699869,2.3604007
4.956055,11.833907,0.6825678000000001,-1.1530693,-0.97227055,2.369965
2.7859602000000003,10.974437,-1.2082578000000002,-1.0620503000000001,-1.1090695,2.3268554
2.5196004000000003,9.679116,-0.38728607,-0.9374861999999999,-1.1868063999999998,2.2129377999999997
-0.0867946,7.941002,-0.9802915000000001,-0.8299564,-1.2735667,1.9808439999999998
0.7481689,8.163452000000001,-0.39984125,-0.79004073,-1.4119713,1.6555845
1.1457117,8.051298,-1.2392676,-0.770336,-1.6201018999999999,1.2031078000000002
1.0194511,8.033714999999999,-1.481781,-0.69581044,-1.7909869999999999,0.66067696
1.412081,8.109428999999999,-1.3869897,-0.54569465,-1.8341142,0.04796165
1.4093516000000001,7.9329,-1.4512693,-0.42538909999999996,-1.8112153999999998,-0.56525975
1.6057048,7.7799296,-1.1193468999999998,-0.30934215,-1.7436013,-1.1545353
1.9106879,7.552098,-0.8572390999999999,-0.14060372,-1.4316761,-1.7251881000000002
2.05796,7.346311,-0.6939546,0.10266027,-0.8748463,-2.1531777
2.4304883,7.890532,-0.6334387,0.35976472,-0.07422885,-2.415623
2.988768,9.367956,-0.86594445,0.5785591999999999,0.84346527,-2.5502925
3.5309782,10.552933,-1.3519291000000002,0.7132288,1.5876736999999999,-2.6152363
3.8666646,10.467497999999999,-1.53521,0.6962118,2.0055403999999997,-2.7318242
4.2408019999999995,9.899861,-1.0634183000000001,0.5929406999999999,2.060902,-2.8510478
4.6435830000000005,10.512528,-0.6201460999999999,0.4949754,1.7510888999999998,-2.8430715
4.6518574,10.870088,-0.76266813,0.45505969999999996,0.92279047,-2.7696106
4.9788957,9.910252,-0.42247126,0.09466666,-0.18390535,-2.4534267999999995
5.2292814000000005,8.794621000000001,0.2688497,0.12555899,-1.5445117,-2.2202507999999996
4.93466,7.883053,1.1253706,0.74251544,-2.4489412,-2.2452787999999995
4.7561774,8.145045,1.4093612,0.8761204,-2.9535859,-2.193111
4.436513,9.441448,1.2293266999999999,1.0768158,-2.6224794,-2.3064876
4.3668613,11.303678,0.41330624,0.9469284,-2.3802626,-2.30277
4.6447897000000005,12.427047,-0.5949208,0.62966245,-1.5966796,-2.0706759999999997
3.828501,12.244455,-1.437316,0.2666165,-0.71089005,-2.0366073
2.7930182999999995,11.51905,-1.4658068000000002,-0.055431657,0.08864527,-2.0169023999999998
1.8303002,10.663641,-1.4589787,-0.06499606,0.7024078,-1.8556166
0.75751585,10.555117,-1.2415564,0.17772688,1.1623370000000002,-1.5591027
1.929152,8.716782,2.7214506000000003,0.34594172,1.4503337,-1.2833581
2.3466337000000004,6.678683299999999,2.2173371,0.38212240000000003,1.4173120000000001,-0.9267
2.750411,6.901391499999999,2.38745,0.3331659,1.09207,-0.5311735
4.48298,7.679038,1.8475288,0.27141616,0.7870562,-0.19634955
4.446396400000001,8.957742999999999,1.0521176,0.19154988,0.6332055,0.11929326
5.400448,9.803719500000001,0.16124469,-0.09054768,0.46818456,0.50843185
6.720447500000001,9.481038999999999,-0.86237234,-0.43816492,0.1839228,0.9348158000000001
6.441772,8.4489565,-0.42907926,-0.48394490000000007,0.084910266,1.2701982
5.759233,7.745195,1.6790057,-0.40835467,0.21053907,1.4990808
5.3467793,7.8825259999999995,2.6751566,-0.37747982,0.39526471,1.727457
5.0519,9.264497,2.5244079,-0.45626396,0.5411219,1.9270878
4.2814264,10.581230999999999,2.009578,-0.63193136,0.59381336,2.0851797999999997
4.093548999999999,11.316214,1.2433951,-0.8278271,0.5629385,2.1490588
4.481026,12.541642,0.63568926,-0.968361,0.66355675,2.1133842
4.494587,14.206636999999999,0.09288545,-0.97049034,0.74605846,2.0181066999999997
3.8991010000000004,14.639395,-0.96842587,-0.8751953000000001,0.8221896999999999,2.0750568
3.2658633999999997,12.337321000000001,-0.36682042,-0.6846228,0.90097386,2.1724810000000003
3.4969997000000004,9.903194000000001,0.65689236,-0.47862163,0.81313145,2.4306502
3.3857458,9.154622999999999,0.9256654000000001,-0.32957053,0.7918384,2.6143112
3.2134400000000003,10.330205,0.33560959999999995,-0.29656634,0.7311533,2.7170587000000004
3.2932148,11.876246,-0.53365797,-0.33543482,0.6970845,2.7772028
3.4416075,13.270792000000002,-1.2484517,-0.43231806,0.6965609,2.8064720000000003
3.9905595999999997,14.122696,-1.6416179,-0.5584704,0.68165576,2.8112717000000003
4.1470637,13.648817000000001,-1.4260727,-0.6601533,0.6347937,2.7729442000000004
3.9623272000000003,12.401639999999999,-0.8571049999999999,-0.7256206000000001,0.5192878,2.6733906000000003
2.9718077000000003,11.273261999999999,-0.43575427,-0.76660097,0.3281917,2.5147576000000003
2.1045897,10.008356,0.13817416,-0.7762003000000001,0.10194468,2.3124740000000004
1.4781897,8.862625999999999,0.4491331,-0.770877,-0.17484708,2.0484407
1.8453453999999998,8.095476,0.17571525,-0.7660948000000001,-0.5016949,1.6907179
2.0620303,7.820851299999999,-0.23446897,-0.78470004,-0.88603383,1.2292005
2.2028284,7.8213973,-0.59777474,-0.83899724,-1.3310579,0.6771703
2.1767795,7.935859,-0.94197476,-0.88479465,-1.7840581000000002,0.031991884
2.1444099999999997,8.244845,-1.0212706,-0.8954412,-2.1795845000000003,-0.70047045
2.1713492999999997,8.35248,-0.93237877,-0.92045176,-2.5016327,-1.4366678
2.2148569,8.053807,-0.86713195,-0.9342921999999999,-2.7651427,-2.1968284
2.2081242000000003,7.5763940000000005,-0.87824106,-0.8485790999999999,-2.7683365,-2.8159142000000004
2.2416146,7.222003999999999,-0.8852609,-0.63193136,-2.4111373,-3.3376105000000003
2.3940102999999997,7.3824344,-0.9476825000000001,-0.32796479999999995,-1.6610996999999998,-3.7065034
2.721623,8.168136,-1.0532476999999998,0.027593656,-0.58793163,-3.9077224999999998
3.1000602,8.933341,-1.3595905000000001,0.38426915,0.71305424,-3.8465137
3.4625519999999996,8.995944,-1.6879122,0.67437774,2.0566437,-3.5675752
4.0074053,8.760614,-1.7278571,0.78936005,3.076579,-3.1704428
4.6862664,9.396906,-1.6831238000000002,0.7904247,3.5029805,-2.7504467999999997
5.1814933,10.252402,-1.7610407,0.66957814,3.3044144999999996,-2.3213925
5.377377,9.942469000000001,-1.4542093,0.56365407,2.6571066,-1.784285
5.6406817,9.083839999999999,-0.57091177,0.90807736,1.6536819999999999,-1.55165
5.7313165999999995,8.701744999999999,0.568077,0.99110264,0.43624505,-1.4797949
5.9391812999999996,9.464749000000001,1.4464521000000001,0.9873851,-1.1191924,-1.4749953000000002
5.948576,11.215954,2.0393616999999997,0.77818996,-2.468105,-1.6767553
5.709099,13.215955,2.1116955,0.5498311,-2.9562387,-1.7874615000000003
5.247008,13.789874,0.75962275,0.27300440000000004,-2.7944117000000004,-1.7608627000000001
4.190734,12.287091,-1.1615613,-0.057543505,-2.4042258,-1.7310349999999999
2.8105247,10.808633,-2.5084531,-0.27633798,-1.6988860000000001,-1.6724967
1.2734088,9.887804,-2.581208,-0.23216370000000003,-0.8450535,-1.6368221
0.16610014,9.018583999999999,-0.5030122,0.05953318,0.22012092,-1.4861828000000001
1.3499755,7.626892,1.9198624,0.29110345,1.1122983999999998,-1.1880805
0.94424444,7.373921000000001,1.5602247,0.3289073,1.6669815,-0.88943726
1.9274089,8.205877000000001,1.3394887,0.36562902,1.9193037,-0.55513686
2.794972,9.110272,0.75011295,0.34168312,1.897487,-0.2628815
3.6439557000000002,8.947399,0.2829659,0.2793923,1.720214,0.076183625
4.7212510000000005,9.155466,-0.055018757,0.11756538,1.3151231,0.46903977
5.571374400000001,8.855214,0.010026917,-0.16402604,0.66355675,0.9050056000000001
6.470809,8.139625,0.6971341,-0.2832495,0.21959732,1.2009959
7.009264999999999,7.4653789999999995,1.9321206999999998,-0.28431413,0.129102,1.4064735000000002
6.45517,7.986406,2.8595867000000004,-0.28431413,0.3281917,1.5885288999999998
6.112799,9.692160000000001,1.9759538,-0.37959164,0.6742031999999999,1.7716488000000001
5.8343153,10.856689,1.1683226,-0.5536882,0.98986346,1.9148356
5.548888,11.567853999999999,0.6701465999999999,-0.774071,1.2810367,1.9664625
5.1948333,12.209959,0.11870452,-0.94865626,1.7042441000000002,1.9451869
4.261516,13.262297,-0.16103402,-0.94813263,2.6044152,1.7524849999999998
3.2729983,13.935260000000001,-0.51437986,-1.038628,2.2211235,1.614063
2.6493279999999997,12.796069000000001,-0.393262,-1.0343693,2.0236394,1.8067822
3.2439137000000002,10.440069,0.5615648,-0.99017763,1.589803,2.203897
3.5747156,9.364097000000001,0.68831384,-0.9460033999999999,1.0085036,2.566402
3.65925,10.250334,0.35712868,-0.9768781999999999,0.35213763,2.7990369999999998
3.734495,11.561264999999999,-0.34457353,-1.0556624,-0.26373670000000005,2.9709692000000003
4.0070796,12.888313,-0.80967116,-1.1073066999999999,-0.6842738,3.0673115
4.528144,13.947335999999998,-1.1311454,-1.1200651000000001,-0.9344667,3.1146972
4.2992682,13.891618,-0.82391185,-1.0844079,-1.0670245,3.1019213
4.5576696,12.968164999999999,-0.31492370000000003,-1.0072296,-1.105893,3.0151436
2.7128603,11.948541,-1.8070381000000002,-0.91671675,-1.1122633999999998,2.8661098
1.6542784,10.6655655,-0.56881446,-0.8070576999999999,-1.0760653,2.6734080000000002
-0.033269826,9.25812,-0.43611819999999996,-0.6814289000000001,-0.99941045,2.4242797
0.43077436,8.834652,-0.45604753,-0.5728345,-0.93872535,2.0979555
0.72348946,8.473674,-0.98586524,-0.51375514,-0.9323374,1.6806124
1.1476749,8.287165,-1.2425237,-0.5031085999999999,-1.0047337,1.1594746
1.6065188999999997,8.208836999999999,-1.306152,-0.52014303,-1.1420736,0.52811915
1.906771,8.169773,-1.2056242,-0.52333695,-1.303377,-0.20219639
2.268104,8.11667,-1.092503,-0.5414359999999999,-1.4635983,-1.0443352
2.5479667,7.920823599999999,-1.008409,-0.5723109000000001,-1.5870976,-1.8806272000000002
2.703887,7.5782229999999995,-0.94770163,-0.5158844,-1.5306712,-2.6477168
2.7959776,7.193714,-0.84676206,-0.37533304,-1.1910475,-3.2524211
2.9150937000000003,7.153357499999999,-0.7589428,-0.16187929,-0.5245761999999999,-3.6814754
3.1207175,7.738461999999999,-0.8065204,0.09787806,0.36013123,-3.939662
3.3917887,8.411521,-0.9814406999999999,0.36562902,1.3433275,-4.01047
3.715753,8.6248045,-1.2758604,0.58283526,2.264268,-3.9156985
4.0648084,8.429103999999999,-1.4143507,0.6930179,2.803505,-3.7123501000000005
4.5525459999999995,8.969733,-1.3708338,0.707923,2.7742183,-3.4563105000000003
5.401290400000001,10.2124,-1.4562013999999999,0.7190930999999999,2.135969,-3.1475616
5.6889970000000005,10.35949,-1.1984895,0.24267058,0.9962514000000001,-2.4832196
5.8943905999999995,9.533615,-0.37963417,0.112242125,-0.65339893,-1.7949315
5.839496,8.873745,0.5167454,0.90221304,-1.5338652,-1.6336281000000001
5.6466675,8.932153999999999,1.2710816999999999,0.9442754999999999,-2.223759,-1.4771245000000002
5.6645184,9.95376,1.7479396,1.1055614,-2.4292363999999997,-1.579872
5.4129357,11.521311,1.6221003999999999,0.92457074,-2.4691696,-1.5521911
4.9244995000000005,12.623275999999999,0.5554835,0.53810245,-2.2312114,-1.4749953000000002
4.1436253,12.563085000000001,-0.8404222,0.111177474,-1.7590474999999999,-1.5489798000000001
3.239652,11.637966,-1.8022209999999999,-0.18210766,-1.2208579,-1.600624
1.9139153000000002,10.868468,-1.8619516,-0.32902947,-0.79873246,-1.7012247999999999
-0.9145946,10.937288,-1.8078139,-0.34341097,-0.45485026,-1.5899775
0.71097255,8.857321,3.6431036,-0.25556856,-0.06731735,-1.4127219
1.7410443,6.4599676,3.0401382000000003,0.02867576,0.45115015,-1.1822162
2.0636294,7.1082410000000005,2.0714056,0.25225243,0.9872105999999999,-0.8271639000000001
3.8962665000000003,7.9027804999999995,1.601041,0.38001055,1.3646381,-0.44652504
3.8958258999999997,9.191532,0.34892140000000005,0.36936402,1.4827968,-0.040910516
4.863093,9.512853,-0.36758658,0.2873859,1.4120063,0.33276448
5.524505,9.067598,-1.0848031999999999,0.12503539,1.1437143,0.7149741
5.8521566,8.651457,-0.62203276,-0.040509094,0.71678925,1.0828197
6.2389545,8.547539,0.32419407,-0.11770499999999999,0.38568285,1.3676051000000002
6.009274,8.732659,1.3031545,-0.15018559,0.25631905,1.6129984
6.1719837,9.001346,2.2564394,-0.16826719,0.29571113,1.8328575
6.05598,9.76116,2.6103406000000002,-0.2369459,0.40591124,1.9808439999999998
5.723014,10.800723,1.7047291,-0.3694862,0.5240875,2.0926323
5.3784785,11.878085,0.68453103,-0.52811915,0.59222513,2.1410828
4.9384146,12.843465,-0.24720612,-0.653748,0.9265254999999999,2.1288304
4.442288,13.509886999999999,-0.6122835999999999,-0.6622651999999999,1.7633411,1.9787147
3.568596,13.170293,-0.72104734,-0.6457718000000001,2.1524622000000004,1.5502014
3.0849957000000003,11.895304,-0.2566201,-0.60264474,2.1902661,1.5906582
3.1451192000000003,10.4094715,0.27156952,-0.6074444,2.0140576,1.5933111
3.0124322999999995,9.431307,0.56926453,-0.5212077,1.6116196000000003,1.9201589
3.085111,9.752972,0.3992954,-0.46317548,1.2448561000000002,2.0319471
3.3087869,10.906709,-0.20246327,-0.54408896,0.8865923000000001,2.1559877
3.4279892,11.922636,-0.68960667,-0.6372545999999999,0.62468827,2.2432716
3.7162318,12.812054,-0.8879424000000001,-0.76660097,0.42346925,2.2826812000000003
4.1302853,13.102508,-0.5910805,-0.86828387,0.23821999,2.2911808
4.675378,12.763728,0.07817548,-0.91991067,0.068940505,2.2454009999999998
4.2285814,12.427161,-0.9436889999999999,-0.925775,-0.09658652,2.1517117000000003
2.9157164,11.394494,-0.20030849,-0.897553,-0.25150195,2.038335
0.91115654,9.4470215,-0.47424346,-0.8358033000000001,-0.3829776,1.8866311000000002
1.0826771000000002,8.786817,0.17694108,-0.7724478,-0.5357463000000001,1.6726363000000002
1.5032618,8.250391,-0.3429263,-0.74265504,-0.7524114000000001,1.373993
1.3893169,7.925621499999999,-0.8042889,-0.72933817,-1.0404083,0.98487186
1.7291499,8.107255,-0.9196224000000001,-0.72082096,-1.3789498,0.5025850000000001
1.7925102,8.17211,-1.2121269,-0.65589476,-1.66377,-0.07072074
1.9151889,8.189922,-1.0658507,-0.54834753,-1.8644479999999999,-0.7185695
2.1042256,8.069761999999999,-0.9271115,-0.45200536,-2.0172167,-1.374377
2.1479247000000004,7.6141744000000005,-0.8098435,-0.30295426,-2.0321217000000003,-2.0105145
2.1726327000000003,7.1382647,-0.71004367,-0.08843583599999999,-1.7462717,-2.5849025
2.2848728,7.071428,-0.6661148,0.16441001,-1.1287743000000001,-2.9788232000000003
2.5178287,7.821282400000001,-0.8025843,0.42312017,-0.23181464,-3.1539495
2.8292184,8.741403,-1.0571071,0.6514965,0.73223543,-3.1241392999999995
3.1978872000000003,9.288995,-1.308163,0.7978947,1.6510291000000001,-2.9628360000000002
3.604825,9.199701,-1.3948236,0.7670024000000001,2.1817488999999997,-2.7163779999999997
4.1800847,9.398496000000002,-1.1409615,0.59932864,2.1694965,-2.4555385
4.6798887,10.341639500000001,-1.0700836,0.41195005,1.6526173,-2.2133220000000002
5.0168962,10.820882000000001,-0.9578435,0.37681657,0.8408124,-1.9540881
5.4183845999999996,10.3174,-0.24802014,0.38213983,0.020507618999999998,-1.6645031000000003
5.658332,9.412708,0.6703861,0.7180284,-0.83918923,-1.5532558
5.5066066,8.814349,1.5256237,0.8431335999999999,-1.3858787000000001,-1.4936178999999998
5.2278833,9.417765,2.0539281000000003,0.9543809000000001,-1.8042865000000001,-1.4861828000000001
4.8204093,10.688425,1.8849646,0.8580388000000001,-2.0140226,-1.6149881000000001
4.215624,11.652828999999999,0.49705540000000004,0.697259,-1.8442196,-1.6953779999999998
3.2301037,11.696537,-1.1392953000000001,0.48808134,-1.2016941,-1.5889128000000001
2.4071496,11.367708,-2.3692347999999996,0.19795524,-0.7066314,-1.6400161
1.8570002,11.076899000000001,-1.8929900000000002,-0.0059166662,-0.19453439,-1.6054237
1.2211386999999998,10.162658,-0.21350533,0.06380924,0.24940754,-1.4882946000000001
0.91548526,9.203407,0.78101736,0.26129323,0.65823346,-1.3211619
2.246671,7.7093105,2.2321142999999997,0.4486718,0.9116204,-1.1300483000000001
2.3523223,7.2681837,2.0781002,0.49766317,1.0393785,-0.88570225
3.4158843,7.5329630000000005,1.8424053,0.35871753,0.9653765,-0.5540722
4.2099257,8.221487,1.3497552,0.052098077,0.7567049,-0.20751965
4.4092193,8.724758,0.87101054,-0.14112732,0.5900958000000001,0.13419837
5.134825,9.253915,0.11682746599999999,-0.26993263,0.42455134,0.48661524
5.8437386,9.190458999999999,0.12428779999999999,-0.38280305,0.11365584,0.8709541999999999
5.803229,8.499799000000001,1.2151628,-0.43549454,-0.2706482,1.2137718000000002
5.466604,7.6959887,2.7844088,-0.35405749999999997,-0.48146653,1.444801
5.128198,7.6497910000000005,3.0781677000000003,-0.24225170000000001,-0.42076397,1.6534725
4.779066,9.039309,2.6211624,-0.23108159,-0.21635102,1.8062413
4.565963,10.863421,1.429032,-0.27792624,0.11313224,1.935605
4.315855,12.352395,0.051120992999999997,-0.43123594,0.38035959999999996,2.0378115
4.36281,13.019046000000001,-0.79843754,-0.58561033,0.80196136,1.9526395
4.1510286,13.467107,-0.6223679,-0.59093356,1.5110188,1.7492912
3.5649757000000006,13.560576000000001,-0.5015278000000001,-0.5898689,1.8948166000000002,1.3388596000000001
3.0050678,12.972197,-0.12729491,-0.54408896,1.9933057,1.2558167
2.9469175,11.0313225,0.52673393,-0.45413467,1.9916999,1.3186312
3.1830049,9.215206,1.0775152,-0.37535050000000003,1.7138261000000001,1.5917228
3.0824675999999998,9.024291999999999,1.0238947,-0.39132026,1.268802,1.8882193999999999
3.3173866000000003,10.004612,0.27204835,-0.46584582,0.8876569999999999,1.9984194
3.3737366,11.247423,-0.41113234,-0.5770930999999999,0.55922097,2.0835915000000003
3.5332766,12.456754,-1.0126324,-0.7352025,0.2526015,2.1682224
4.513654,12.871985,-0.5078484999999999,-0.8459087,0.027960173999999997,2.2044206
4.8833575,12.651594000000001,0.0606978,-0.90074694,-0.15248941,2.1820629
3.9225357000000005,12.208074,-0.19480184,-0.91139346,-0.35849062,2.1043434
3.7724671,11.353361999999999,-0.253862,-0.89275336,-0.5618389,1.9664799
1.4498711000000002,9.585464,-0.02809835,-0.8459087,-0.7407003000000001,1.7705841
0.44534066,8.443593,0.1684273,-0.77085954,-0.8918806999999999,1.4958868
1.0432303,7.606724000000001,-0.28092605,-0.7378554,-1.0638305000000001,1.1339229
1.4947671999999999,7.443554,-0.35123897,-0.7735125,-1.3278465,0.6846403
1.4576666,7.282222999999999,-0.7701475999999999,-0.8411264999999999,-1.6733343999999997,0.15657349
1.4711603000000002,7.235258,-0.9816035,-0.84060293,-1.9272624,-0.46622979999999997
1.7187782999999999,7.3986095999999995,-0.8361606,-0.77140063,-2.0331864,-1.0975678
1.9333946,7.5155330000000005,-0.73295134,-0.689405,-2.0331864,-1.6171174
2.082333,7.448438,-0.6848757,-0.48500955,-1.8553897000000001,-2.0855637
2.2547922000000002,7.123507000000001,-0.72786605,-0.1741315,-1.3805553999999998,-2.4528856
2.4596305,6.9209957,-0.70429754,0.18889698,-0.6278473000000001,-2.6578223999999997
2.8007657999999998,7.647156699999999,-0.695257,0.52640873,0.33032100000000003,-2.6918912
3.2449667,9.152775,-1.0450402,0.821317,1.3523858999999998,-2.5412342999999997
3.6941763999999995,10.236132000000001,-1.5745514999999999,0.9996373,2.2280523999999997,-2.2857182000000003
4.202418,10.141705,-1.8222748,0.9522690999999999,2.6448720000000003,-2.0179671999999997
4.928895,10.45363,-1.4283233,0.74251544,2.4750514,-1.7640392
5.1948047,11.782307000000001,-1.1838178999999998,0.5162684000000001,1.8495778000000003,-1.5681608999999999
5.026282,11.859582000000001,-0.83856434,0.30387926,1.0127621999999998,-1.2727115
5.209323400000001,10.581088000000001,0.18828002,0.063268185,-0.17804104,-0.9666157
5.1789646,9.3215275,1.2950141000000002,0.42366123,-1.3475511999999998,-0.9751329
5.109810400000001,8.897017,2.0649703,0.5050983,-1.9756953000000002,-0.9522516
4.811225,9.6297865,2.2487972000000003,0.66586053,-2.4100728,-1.0959795
4.3154525999999995,10.968949,1.8909308999999996,0.5322555999999999,-2.6597247000000004,-1.3152976
3.7938426,12.150725999999999,0.5369906999999999,0.33049554,-2.5633826,-1.4318681
3.1649048,12.144435000000001,-1.0879348999999998,0.09894271,-2.140716,-1.4968119
2.3060472,11.23098,-1.7793708,-0.17252579999999998,-1.6350069999999999,-1.63574
1.4792334999999999,10.159153,-1.3403795,-0.31998867,-1.1138691,-1.8092955000000002
0.586024,9.245363000000001,-0.22199996,-0.26195645,-0.50541246,-1.8758276000000003
0.20208020000000002,7.981367999999999,2.287286,-0.080965824,0.12058479999999999,-1.8311121
1.4146284,6.1302004,2.3650596,0.1383348,0.79822636,-1.6400161
2.150309,6.2445188,2.45172,0.3390302,1.4290406999999998,-1.3600128999999999
3.2335417,6.917778,1.3032981000000001,0.48808134,1.9901117,-1.0187836
3.5716126000000004,7.688328,0.39048472,0.5631305,2.3233473,-0.61686915
3.867632,8.172588000000001,0.21514297,0.49073422,2.263727,-0.17983873
4.705928,8.626155,-0.13624924,0.28473303,1.8863168999999997,0.27422613
5.5327797,8.57175,-0.24286781,0.012705997,1.1820416,0.71284485
5.939545,8.270368,0.67125756,-0.18688986,0.5081177,1.0482098
5.9474554,8.293572,1.482145,-0.25556856,0.14346607,1.3399242
5.943787599999999,9.263904,2.0242305,-0.2875081,0.041800637,1.5986344
5.93785,10.561819,2.072603,-0.43816492,0.016249016,1.8136938000000002
5.9487385999999995,11.464606,1.6540582,-0.64683646,-0.018867008,1.9882965
5.705919000000001,12.052717999999999,0.85626227,-0.8097106,0.04979424,2.0766625
4.9883003,12.855293,0.06703765,-0.8448614999999999,0.4000469,2.0170421999999997
3.9954437999999994,13.7971525,-0.6230766,-0.77937675,0.89404494,1.7460971999999997
2.9953952,13.859670000000001,-0.71107787,-0.7437196999999999,1.0377728000000002,1.6939293000000002
2.4949114,12.381086999999999,-0.38344577,-0.60742694,1.2310157,1.6449554
2.5581758,10.394791,0.47849557,-0.48766243,1.2166341999999999,1.8887604
2.5298187999999997,9.224639,0.94058603,-0.4046197,1.0947403,2.0984967
2.61036,9.700549,0.4847205,-0.45146433,0.91800827,2.2081556
2.7648625,10.916784,-0.43684605,-0.5329014,0.72904146,2.2885456000000004
3.0334057999999997,12.018107,-0.8769003000000001,-0.6643945,0.5837079000000001,2.3694415
3.6591065,12.525544,-0.70929664,-0.7772475000000001,0.45862016,2.4391849999999997
4.291108599999999,12.369375,0.052825662999999995,-0.8890358,0.2675066,2.4711244
4.836709,11.82025,0.14612292,-0.94174474,0.042865288,2.4423787999999997
3.4308622000000004,10.906288,0.35654452,-0.93322754,-0.17217673,2.34389
2.61194,9.594236,-0.019287689,-0.8720014000000001,-0.36966074,2.1634402
1.2966422,8.482628,0.5455428000000001,-0.76447165,-0.5815437,1.9036654999999998
1.6776553,8.062436,0.028558037999999997,-0.6744998999999999,-0.7955211,1.557654
1.8556308999999997,7.994335700000001,-0.34533966,-0.64470714,-1.0217681,1.1062421
1.9499816000000003,8.331334,-0.50010085,-0.66919416,-1.2703726999999998,0.5467593000000001
1.8113285,8.512709,-0.7119494000000001,-0.71284485,-1.51896,-0.09414306
1.7184047999999998,8.55817,-0.8649005999999999,-0.72774994,-1.6994271,-0.7941597
1.7182418999999998,8.226592,-0.97441137,-0.74956656,-1.8096098000000003,-1.4845771
1.8206849999999999,7.7405686000000005,-0.8439656999999999,-0.7165623999999999,-1.854325,-2.0919516
2.0163773999999997,7.1663437000000005,-0.661403,-0.5595351,-1.6350069999999999,-2.6322706
2.2539685,6.8656993,-0.41127598,-0.2944196,-1.1537848,-3.0027692000000004
2.4952083,6.9255059999999995,-0.32802477,0.036651913,-0.4346219,-3.1912124
2.9098744,7.6888547,-0.54920113,0.36936402,0.40271726,-3.185348
3.4668137999999997,8.897055,-0.9487838,0.66320765,1.2645434,-3.0080923999999998
4.043414,9.598527,-1.3514598999999998,0.8085238,1.9475256,-2.7073197
4.528708999999999,9.770747,-1.4467012,0.78618354,2.242975,-2.3666315
5.1248364,10.823458,-1.354649,0.63765603,2.0784776000000003,-2.0142322
5.3050914,11.839299,-1.3215516,0.5024454,1.5610573,-1.6751496
5.437404,11.391152,-0.6946728,0.5407728,0.87381655,-1.4148337
5.568539599999999,10.312124,0.28103140000000004,0.70898765,0.12110839999999998,-1.2679118999999999
5.3083954,9.3973465,1.2686778,0.86868525,-0.5772851,-1.2258669
5.05845,9.486056,1.9201881,0.9139242,-1.3347753999999998,-1.2940046
4.5977864,10.297213000000001,2.161849,0.8495216,-2.1502979,-1.3621421999999999
4.122892,11.44777,1.6944339,0.65203756,-2.3946266,-1.5713373
3.4166693999999995,11.864275,0.25527936,0.5593955,-2.2349465,-1.6570505000000002
2.495773,11.238823,-1.2475132,0.33742452,-1.9256567,-1.6293696000000002
1.5459266,10.558803,-2.1534982000000005,0.15484561,-1.4231415,-1.7108066000000002
0.9565219000000001,10.0071125,-1.4084992,0.11810643,-0.8839045,-1.8460172
0.9446658000000001,9.008183500000001,0.1955967,0.1968906,-0.23764403,-1.7975843999999996
1.3207183,7.846737400000001,1.2580668,0.35925856,0.45436156,-1.6149881000000001
1.8741619999999999,7.01842,1.5028883,0.56525975,1.2256924,-1.3381789
2.5534928,6.849667500000001,1.0056318000000002,0.72549844,1.8389311999999998,-1.0837272
2.1894689,7.971705,0.62451315,0.79470074,2.3297353,-0.78136647
4.0559216000000005,7.790244,0.19755995,0.6589491,2.4931679,-0.4183205
3.8187900000000004,8.293525,0.515893,0.351806,2.3425112,-0.039845865
4.3267055,8.559855,0.20924366,0.014311700000000002,1.8927048,0.36950365
5.769307599999999,8.563934,0.5418556999999999,-0.2832495,1.2033346999999999,0.7469311
6.0141387,8.392549,1.3355527,-0.45039967,0.56347954,1.0588563999999998
5.6615779999999996,8.350593,2.0062165000000003,-0.52173126,0.24141394,1.3537647
5.500592,8.907963,2.4417315,-0.6031683000000001,0.17968164,1.6263152
5.612727,10.055054,2.3988464,-0.82196283,0.28399998,1.8765082
5.69594,11.372717,1.9528831999999998,-1.0455395,0.49905944,2.102214
5.4344544,12.815913,0.9551716,-1.1972610000000001,0.70401347,2.1788689999999997
4.6369557,13.970694,-0.5249814,-1.2403706,1.5557341999999998,1.9031244999999999
3.6364474,14.699757,-1.1793933,-1.1567868000000001,2.4319417000000003,1.3718636999999998
2.7025557,14.343241,-0.8541361999999999,-1.0439337,2.5506592,0.94335043
2.2736009999999998,12.481786999999999,0.14291468,-1.1610628,1.4572452,0.81239843
2.1895740000000004,10.579172999999999,1.0297079,-1.0881254999999999,0.9664586,1.2616811
2.1499452999999997,9.635991,0.9289790000000001,-0.97581357,0.7348883,1.7253276999999998
2.2780254,10.4285965,0.15449305,-0.95130914,0.40432298,1.9941609
2.3588443,11.7367115,-0.59527516,-1.0333047,0.024766222,2.1921859
2.4238226000000003,12.558200999999999,-0.5704041999999999,-1.1456167,-0.3324154,2.245942
3.1474368999999998,13.116672,-0.30700370000000005,-1.2371767,-0.5235115,2.285875
4.596982499999999,13.162315,0.53685665,-1.2989263999999998,-0.6241123000000001,2.3290021
3.828501,12.563181,0.55329996,-1.317549,-0.70450217,2.3385665
3.7387471,11.665212,-0.74352413,-1.2872152000000001,-0.7992561,2.2869398999999997
1.5179622,10.1296,-1.3938277000000001,-1.2211893999999999,-0.9073094,2.1916623
-0.5657403,8.197909,-0.21303608,-1.1094184999999999,-0.99462825,2.0457876
0.12174037,7.3653207,-0.11894394,-1.0056063,-1.1069402,1.8264697
0.71847117,7.2849330000000005,-0.56051135,-0.9422684000000001,-1.3007066,1.5321023
1.4650503000000001,7.252075,-1.1318636,-0.8783893,-1.5737983,1.1429638
1.9781278000000002,7.488814,-1.2394303,-0.76286596,-1.8292971000000002,0.6324724
2.0272088,7.892925999999999,-1.3362038999999999,-0.586675,-2.0086994,0.016039576
1.9721805000000001,8.113211999999999,-1.2996492,-0.43123594,-2.1305932999999997,-0.61262804
2.1337794999999997,8.076849000000001,-1.2445731000000002,-0.22895229,-2.107712,-1.2498128000000002
2.2702299999999997,7.901277499999999,-1.1570122999999999,0.015358897,-1.7430778000000002,-1.8135542000000002
2.3373442000000004,7.735407400000001,-1.0135901,0.28899163,-1.0728713,-2.1909642000000003
2.539348,8.230642,-0.87586606,0.5615422,-0.15992452,-2.4156055
2.8398297,9.301148,-1.0767491000000002,0.82023495,0.83655375,-2.5045125
3.1389994999999997,10.152114,-1.4433014,1.0097603000000002,1.6760397,-2.524741
3.5082047,10.016036999999999,-1.5925176,1.0182773999999999,2.1652555,-2.5167472
4.0450325,9.955100999999999,-1.2494476,0.8149291,2.1742964,-2.4432864
4.664087,11.088783,-0.9480847,0.5546133000000001,1.6909448,-2.3730195
4.820936,11.258044,-0.72603685,0.40929717,0.9201376,-2.3075347
5.405054,9.870115,0.08823112,0.41940263,0.072151914,-2.1701946
5.3596883,8.7274685,0.96528465,0.55089575,-0.70876074,-2.0584064
5.1588626,8.175125999999999,1.8924057,0.6557550999999999,-1.3651093,-1.9902687
5.0320377,8.801680000000001,2.4349797000000004,0.69514716,-1.8958465,-1.9439651999999998
4.8654394,9.999336,2.4678185,0.66374874,-2.4095318,-1.9769694
4.6040883,11.217199,1.6460615,0.5610012,-2.71191,-2.008909
4.0319886,11.784414,-0.011501745,0.464659,-2.6666536,-2.0642707
2.8851376,11.477553,-1.3879476,0.34168312,-2.2626274,-2.0844991000000004
2.2458186,10.756725999999999,-1.4305164,0.1362055,-1.6568236,-2.0536242
1.6499977,9.801556,-0.35732025,-0.041573743999999996,-1.0366732,-1.9971976999999999
1.0054882,8.6412,0.62309575,0.004729842299999999,-0.26319566,-1.9003145000000001
1.3294811000000002,7.6590896,1.3833601,0.28419197,0.6087359,-1.6980308000000002
1.6306142,7.067435000000001,1.2822962,0.49712214,1.4338403999999998,-1.3802413
2.1243942000000002,7.2095637,1.1148744,0.53544956,1.9789416000000002,-0.97246253
2.8271883,7.6456914000000005,0.9188276,0.5546133000000001,2.2440395,-0.55140185
3.4374318,8.416376,0.44020748,0.50296897,2.260533,-0.1500285
4.1925726,9.236715,0.7901153000000001,0.24375269,1.981612,0.29338986
5.1900067000000005,9.56475,0.55762875,-0.17837265,1.2571083,0.81346303
6.062349,9.547013,0.29587546,-0.4051433,0.5256932,1.2276122999999999
6.6346490000000005,9.28028,0.76501447,-0.40249038,0.23556710000000003,1.4762169
6.7302539999999995,9.175328,1.8661461,-0.41846013,0.14348352,1.7003172999999998
6.5256457,9.995045,2.5928247000000004,-0.4802099,0.15145968,1.9084651000000001
6.2292438,10.914284,2.0051533999999998,-0.66067696,0.17114699,2.0585635
5.7280893,11.583235,1.0539085,-0.8714778000000001,0.18126989999999998,2.1267009999999997
5.1976585,12.3896675,0.41631335,-0.9561088,0.35374334,2.0782683
4.3994126,13.652964,-0.46485820000000005,-0.89914125,0.9866870000000001,1.942534
3.11455,14.378858,-1.1239245,-0.77937675,1.5679864,1.6529490000000002
1.9690682000000002,12.808826,-1.0865941000000001,-0.74743724,1.565316,1.814776
2.2634877999999996,10.760079,0.11044931,-0.6132738,1.6824275000000002,1.8573619
2.7357776,9.728264,0.6251835,-0.53183675,1.5365704,2.119266
2.7275512,10.167246,0.3072048,-0.54195964,1.3236402,2.2757697
2.9382122,11.376499,-0.26904124,-0.6058387,1.1117747,2.3928637999999998
3.3494022000000006,12.477115,-1.119002,-0.70856875,0.9345190999999999,2.464213
3.867373,13.191285,-1.3173376,-0.8581609,0.7567049,2.5264862
4.4305277,13.06129,-0.8217761999999998,-0.96834356,0.5752082,2.5408678
4.5188165,12.5852165,0.0320823,-1.0466042,0.36173695,2.4924173
4.381954,11.959545,-0.27258465,-1.0721383,0.10835004,2.3912756
2.4759207,10.6138315,-0.25140077,-1.059921,-0.1359786,2.2539356
1.901044,9.221210000000001,-0.18722658,-1.0061474,-0.3419798,2.0787918999999997
1.4561248,8.507107000000001,-0.14033853,-0.9417273000000002,-0.5495866999999999,1.8365926
1.5864556,8.071964999999999,-0.45416093,-0.9156521000000001,-0.8162905,1.5129386
1.7543369999999998,7.9828625,-0.6907272,-0.9071349,-1.1644313,1.1003777
1.7185484,7.9369035000000006,-1.0945811,-0.872525,-1.5258715,0.58456314
1.6728288,8.117942999999999,-1.2549065000000001,-0.7602131,-1.790446,-0.0063006384
1.8207330000000002,8.301808,-1.175103,-0.6340432,-1.9602491000000002,-0.658408
1.96767,8.297604,-1.1197393999999998,-0.52173126,-2.083766,-1.286011
2.0883950000000002,8.031761,-1.0594246,-0.3332706,-1.9874063999999998,-1.9098964
2.1607957000000004,7.748355,-0.9874071,-0.06551966,-1.5844274,-2.4182758
2.27385,7.877986999999999,-0.9478549000000001,0.25811675,-0.8737815999999999,-2.7408650000000003
2.5595833999999997,8.793557,-1.0604876,0.5924170999999999,0.10567968,-2.8968277000000002
2.895739,9.597377999999999,-1.4052336,0.91181237,1.1623544,-2.9106681
3.2482326,9.614119,-1.706223,1.1279365,2.0470793,-2.8781877000000002
3.6699949999999997,9.146051,-1.5612686000000002,1.1572231000000002,2.5373422999999997,-2.8127202999999996
4.1999755,9.720697999999999,-1.1519558,0.94001687,2.4851744,-2.6934793
4.723520300000001,10.930881,-1.1355316999999998,0.69568825,1.9363556,-2.6290592999999998
4.982133,10.909524000000001,-0.85224,0.32039008,1.0409841999999998,-2.4400926
5.461624,10.201243,-0.015428236000000001,0.15910421,0.1828756,-2.0371134
5.334846,9.168307,1.0406636999999999,0.60465187,-1.0930997,-2.1776473999999997
5.203471700000001,8.901392999999999,1.9939200000000001,0.85432124,-1.9299153000000002,-2.1403844
5.0962787,9.408514,2.6604083,0.95172805,-2.6496193,-2.1627421
4.8769029999999995,10.301464999999999,2.5561166,0.8670969999999999,-2.9077883,-2.3538558
4.5774455000000005,11.115694,1.3330819999999999,0.6866474,-2.8045173,-2.2841125
3.7544434,11.477496,-0.5707298000000001,0.40130356,-2.4095318,-2.1515720000000003
2.7601795,11.375063,-2.0458453000000003,0.010053096,-1.7223084,-1.9902862000000001
2.3655958,10.892728,-1.8746599,-0.25556856,-0.80510294,-1.8518641
0.6769845,10.236945,-1.5229613000000002,-0.110758595,0.15732397,-1.5990183
0.6115556999999999,9.126793,2.45262,0.29592058,1.1213566000000001,-1.2152028999999998
2.3886662,6.998127,3.570904,0.55674255,1.7585589,-0.8825083
1.2239636999999999,7.014962700000001,3.1541214,0.59400535,1.9209093999999998,-0.5338264
3.0170388,8.270052,1.9001246999999999,0.43910740000000004,1.6472939999999998,-0.29588565
3.9212236000000003,8.768256,1.3783994,0.15482816,1.2161104999999999,-0.04782202
4.2127705,9.251827,1.2856097,-0.09480628,0.7790800999999999,0.27368507
5.3093433,9.628923,0.5077527000000001,-0.18582520000000002,0.4538205,0.6766466999999999
6.497921,9.4678135,0.17538007,-0.2981546,0.13868386,1.0231993000000001
7.368950999999999,8.540998,1.2200181,-0.39184386,-0.24457298,1.3516527
6.6352715,7.682322999999999,2.9240003,-0.33967596,-0.43301618,1.5943931
5.6734347000000005,7.6947054999999995,3.3997949999999997,-0.21937044,-0.3185575,1.7998706999999998
5.000922,8.860289,2.4531565,-0.120881505,-0.009285152,2.0016133999999997
4.658197400000001,10.387235,1.2768183000000002,-0.13685127,0.3170216,2.1559877
4.9234843,11.982424,0.13396996,-0.28164378,0.61245346,2.2699053
4.3799334000000005,13.071643,-0.7565390000000001,-0.46317548,0.9430363000000002,2.359877
3.653475,13.650264000000002,-0.42248082,-0.57602847,1.6382533000000001,2.2097439999999997
3.3101752,14.058551000000001,-0.07670064,-0.7218856,1.794757,1.8664026999999999
3.3256133,13.503594,-0.16680883,-0.68514645,1.9565839,2.0106716000000002
3.2164474,11.649714999999999,0.22257458,-0.7181506,1.8171146,2.0798740000000002
3.381015,9.788022999999999,0.8231360999999999,-0.6164852,1.4306464,2.2832222
3.2457712000000005,9.057725,1.0552013,-0.5558001,1.0223441,2.5030639999999997
3.2831879999999996,9.830822,0.76759064,-0.54674184,0.6316172,2.658503
3.4609716,11.165780999999999,0.061032987999999996,-0.562188,0.34416148,2.7394164
3.679074,12.451276,-0.67272276,-0.61116195,0.12644911,2.7734852
3.7195647000000003,13.235166,-0.8515888,-0.6425604,-0.03642502,2.7420692000000004
4.5906425,13.345682,-0.44399992,-0.65320694,-0.18654078,2.6217813
4.336522,13.1443205,-1.3621284,-0.6340432,-0.32388076,2.4312088
2.3166392000000005,12.345452,-0.024612395,-0.6084916,-0.43408084,2.1820805
1.6648896,10.879444,-0.4752299,-0.5728345,-0.48996627,1.8871721000000001
1.0611006,9.8792515,0.13340493,-0.5291664,-0.526688,1.5411606000000002
0.8489073,8.689689,-0.25041434,-0.5217138,-0.5868495,1.0801668
1.1717415,8.121908,-0.39716935,-0.57016414,-0.7295126999999999,0.5808456
1.512264,8.084175,-0.6863889,-0.63084924,-0.93872535,-0.029722957
1.664133,8.032316999999999,-0.88303906,-0.6388429,-1.1101341,-0.66264915
1.9451740000000002,7.825582499999999,-0.9241235000000001,-0.57016414,-1.1782544,-1.3200623
2.1888556,7.5899925,-0.87488914,-0.4993736,-1.246933,-1.9769694
2.4253647000000003,7.2663546000000006,-0.8271871,-0.42910665,-1.3714972,-2.5907492999999997
2.5724454,6.745328,-0.7874338000000001,-0.33381167,-1.4098246,-3.1385033
2.6962062999999996,6.244701,-0.73911875,-0.18421949999999998,-1.2421507999999999,-3.5228424
2.8561389999999998,6.4870324,-0.7114323,0.02443461,-0.8599412000000001,-3.6740227
3.1637173,7.527590299999999,-0.9458821,0.24747023,-0.2536138,-3.5643637000000004
3.5210855000000003,8.165386999999999,-1.3257653,0.42579052,0.47298422,-3.2108996
3.8723147000000004,8.1621685,-1.4176068000000002,0.46891759999999993,1.036202,-2.7461708
4.1777096,8.131341,-1.012958,0.36831683,1.1708716000000001,-2.2111926
4.6410737,9.095869,-0.5955146,0.21978931,0.82911867,-1.7470047
4.874269,10.109316,-0.58486515,0.21713641,0.14400712,-1.3541486
5.0704308,10.557509,-0.4216764,0.34063590000000005,-0.48677233,-0.98150337
5.350619999999999,10.523216,-0.046610318,0.61158085,-1.07713,-1.0507231000000001
5.287863,10.032231,0.7495479,0.66055477,-1.5359943999999999,-1.0523114
4.9725366,10.443911,1.5223867,0.6579019,-1.860713,-1.1433476999999999
4.4353256,11.908252000000001,1.8624591000000001,0.52054447,-2.016152,-1.2854873
3.5995864999999996,13.445588,1.1458840000000001,0.30602604,-1.875077,-1.4701955
2.7386699,13.488004,-0.41074923,0.09309586,-1.5977442,-1.6229643
1.7646416,12.668286,-1.8717103,-0.13632767,-1.338493,-1.7651038000000001
1.6342533000000001,12.126228999999999,-1.7717572,-0.25928609999999996,-1.1857243999999998,-1.9466181
1.2866535,11.256846000000001,-0.21168573,-0.25076889999999996,-0.99248147,-2.0035856
1.6219184,9.714033,1.7412071,-0.14856243,-0.69224995,-1.904032
2.7550939999999997,7.995762299999999,1.1665891000000002,0.047315877,-0.17802358,-1.6644856
2.6830192000000004,7.3820806,1.0389303,0.28792697,0.55443877,-1.3190151
3.5822525,7.571289500000001,0.5296357,0.48382273,1.2682784,-0.9272235999999999
3.9645107000000004,8.124072,0.06672161,0.57644737,1.8235025000000002,-0.5162684000000001
4.6193347000000005,8.253455,-0.09328768,0.48968703,1.9438081000000003,-0.07176794
4.845528599999999,8.227041999999999,-0.47988420000000004,0.26450464,1.6377122,0.34927529999999996
5.2347593,8.202266999999999,-0.52769166,0.021240657000000003,1.1101865,0.7362846
5.683806,8.118182000000001,0.4352084,-0.1251401,0.43359214,1.109436
5.606779599999999,7.7603545,1.2530006,-0.15227997,-0.10775663,1.374534
5.7238655,7.5240755,1.8361419999999997,-0.13843952,-0.27968899999999997,1.5736238
5.8029704,7.8693867,2.134431,-0.13365729999999998,-0.17802358,1.7673903000000002
5.8703145999999995,9.045926,1.8990425,-0.181043,0.11313224,1.9063358
5.64276,10.494906,1.1703528,-0.30773646,0.43306854,2.0064130000000002
5.3015574999999995,11.848559,0.1435276,-0.45944047,1.1059278000000001,2.0388759999999997
4.5582824,13.183921,-0.9241427,-0.54408896,1.8378665,1.9020773000000002
3.8008718,14.081391,-1.4269729,-0.558453,3.2570636000000004,1.5518072
3.076396,13.475389999999999,-0.96128154,-0.6452133000000001,3.3896038999999996,0.96411985
2.7495012,11.903166,-0.13317508,-0.64627796,3.1958375,1.0370398
3.151277,10.574174000000001,0.5311296999999999,-0.6005154,2.9328687,1.1536278
3.2732183999999998,9.695856,0.57809436,-0.56855845,2.325494,1.6476256999999999
3.4557907999999995,9.934567,0.28339687,-0.5595176,1.5568162,1.8323512999999998
3.7751004999999997,10.967934,-0.28211358,-0.7282561,0.7354294,2.0250532999999997
4.034229799999999,12.091944999999999,-0.80945086,-0.8901005,0.12644911,2.1980503
4.5369067,12.923478999999999,-0.5156057,-1.0402162,-0.30845204,2.3124914
4.614958000000001,13.384171499999999,-0.49506345,-1.1349702,-0.6241123000000001,2.4040513
5.4858823,13.232455999999999,0.57389975,-1.1200476000000001,-0.8359778,2.4179093999999997
4.390812400000001,12.629951,-2.4135659,-1.0577742,-0.9828995999999999,2.36253
2.3456187,11.191302,-0.6436284999999999,-0.9576971,-1.0797828,2.2581942
0.59872276,9.030632,-1.1775451000000001,-0.8405855,-1.1388797,2.0825270000000002
0.07319553,8.227185,-0.3968629,-0.738379,-1.2048706,1.8169051
0.85285294,7.977690700000001,-0.93506026,-0.69844586,-1.3108121000000001,1.4879280000000001
0.7530339,7.5837392999999995,-1.6053792,-0.6952519,-1.476374,1.0716496000000002
1.0259633,7.5766234,-1.613826,-0.6909933000000001,-1.6509768,0.55794686
1.3102701,7.427733,-1.7987638,-0.6233966999999999,-1.7238966,-0.016947147
1.5198584,7.372389,-1.4864833,-0.51480234,-1.7121855,-0.65147907
1.9971665,7.383306,-1.1928391,-0.41153118,-1.6286191,-1.2466188999999999
2.2214553,7.306528999999999,-1.0550864,-0.24171065,-1.4119538999999999,-1.8199246
2.4145715,7.143646700000001,-0.9645185,-0.020786871999999998,-0.9733003,-2.2888947
2.7189127999999996,7.4516463,-1.0160034,0.25492278,-0.3233397,-2.5651803
3.0948792000000003,8.573818,-1.1327733999999998,0.5344024,0.5256932,-2.676445
3.402333,9.67403,-1.5037118999999999,0.78353065,1.4221291999999999,-2.6455526000000003
3.76425,9.95306,-1.817496,0.9059655000000001,2.1737726000000004,-2.507689
4.1698084,9.742946,-1.7467042000000002,0.7840543000000001,2.4042609,-2.3000822
4.697835400000001,10.270752,-1.327106,0.45933574,1.9278383000000001,-2.1435785
5.134241,11.351398,-1.0820355,0.32625440000000006,1.1932292,-2.0333958
5.247975,11.291103,-0.7543842,0.32625440000000006,0.24036674,-1.9301072
5.530606,10.153561,0.00089064304,0.27728045,-0.7768984,-1.7315585999999998
5.3060875,9.12233,0.786026,0.70581114,-1.2511916,-1.7289057
5.043003,8.424468,1.7694203999999998,0.8048236999999999,-1.7494482,-1.7767974999999998
4.885838,8.807099000000001,2.3513455000000003,0.8670969999999999,-2.0714965,-1.7352761000000003
4.414812,9.893933,1.8852136000000002,0.69036496,-2.5788112,-1.8028901999999998
3.5076203,11.140842,0.34431493,0.43484880000000004,-2.5069385,-1.7592396000000001
2.7697659,11.798712,-1.5629253,0.30017918,-1.6781166,-1.6490569
2.3678272000000002,11.769206,-1.9932592,0.12610003,-1.0414554,-1.7118539000000002
2.1574247000000004,11.147547,-0.78033733,-0.02984513,-0.46122070000000004,-1.7405993999999998
1.6796857,10.145143,0.0627185,0.0095294975,0.0045553090000000004,-1.7262354
0.9142210999999999,9.146646,0.3600113,0.18891443,0.54592156,-1.572402
3.3687949999999995,7.751850599999999,2.3109121,0.36884043,0.9563357,-1.3568015
2.3377847999999997,7.286436999999999,1.5042003000000002,0.48755774,1.1895117,-1.0730634
3.3523992999999996,7.8301024,1.0820546999999998,0.47637016,1.2938473999999998,-0.7781725
3.327586,8.299625,0.58438635,0.29272664,1.1160508,-0.41671482
3.736257,8.302747,0.35397795,-0.05274385,0.8200603999999999,-0.043563418
5.01274,8.727124,0.19813456,-0.35988688,0.41870448,0.36311576
5.830561,8.818802999999999,0.13486059,-0.5680348000000001,-0.04972443,0.7692888000000001
6.1401315,8.496131,0.61417025,-0.58719856,-0.49155453,1.0940073000000001
5.8867292,8.096692,2.2057302000000005,-0.43654174,-0.7146076,1.2803211
5.5630903,7.980554,2.9283384999999997,-0.26460937,-0.6347588000000001,1.4181848
5.364372,8.791222,2.7348103999999998,-0.124599054,-0.30417597,1.5507425
4.705736,10.138793,1.9419369999999998,-0.08946557,0.18341665,1.6731773999999997
4.5540012999999995,11.587773,0.6986760000000001,-0.14749777,0.6704857,1.7418561000000001
4.1139565000000005,13.101225,-0.76312786,-0.27632052,1.1378675,1.7098991000000001
3.6814394,14.025827,-1.5660568000000001,-0.41578978,1.7186256999999998,1.6481493999999999
3.0001453999999996,13.981132500000001,-1.4558950000000002,-0.4998972,2.1370335,1.529973
2.6838236,12.827366,-0.74801564,-0.54674184,2.2392573,1.5949342
3.0416896,10.950552,0.42741287,-0.54354787,2.3127183999999996,1.7178925999999999
3.5921836000000003,9.392778999999999,1.1106797,-0.49616220000000005,2.053467,2.0532577
3.7503542999999997,8.687638,1.0249194,-0.4583758,1.6105723,2.2800283
3.7647769999999996,9.314029,0.56801957,-0.48445103,1.113904,2.4439845
3.9567727999999995,10.564098,-0.10942459,-0.54513615,0.6050009,2.560555
4.3028975,11.808098,-0.5992017,-0.6297845999999999,0.19458675,2.6297748
4.8131113,12.760836999999999,-1.1448498,-0.6819525,-0.08487536,2.6638262000000004
4.9370356,13.078211999999999,-1.1970625,-0.7027045,-0.28023008,2.6260397
4.0750269999999995,12.701891999999999,-1.1006433,-0.7005752,-0.44205698,2.5110576
3.2676258,12.090882,-0.9559951999999999,-0.6787411,-0.572468,2.3449721
2.1815007,10.708592999999999,-0.8412649999999999,-0.6260496,-0.63634706,2.1336473999999996
0.7995772,9.44299,-0.34336683,-0.579746,-0.6672219,1.8775903000000003
1.1710806999999999,8.773772,-0.45236048,-0.533425,-0.689056,1.5491368
1.2259749,8.210857,-0.7031291999999999,-0.53981286,-0.76091117,1.1397873
1.327805,8.036713,-1.015199,-0.56855845,-0.8966629,0.6516536
1.5484452,7.9243383000000005,-1.1434706000000001,-0.6249849000000001,-1.0755242,0.08152433
1.7511095,7.9157863,-1.0524433000000002,-0.66172415,-1.2730082,-0.5753478
2.0976557999999996,7.9093313,-0.9595865,-0.63084924,-1.3874669,-1.2343667
2.3444118,7.559088,-0.97049445,-0.6191380999999999,-1.4859558000000002,-1.8699631999999997
2.489577,7.0797024,-0.87964886,-0.5243842,-1.5264126,-2.4278402000000003
2.666614,6.8147697,-0.84876364,-0.34285247,-1.3124003,-2.9101272000000002
2.8511686000000003,6.988636,-0.84933823,-0.018151425,-0.8205491,-3.2114232000000005
3.095128,7.702214,-0.9112235999999999,0.34063590000000005,-0.054524086,-3.351957
3.3964434,8.570179,-1.2451379999999999,0.72071624,0.9185493,-3.275826
3.7188177000000002,9.129168,-1.4611334999999999,1.0459584000000002,1.9347497999999999,-3.053855
4.154141,9.081724000000001,-1.717064,1.2317486999999998,2.7114213,-2.7914271
4.63053,9.48509,-1.4382735,1.2360072,3.0153877999999996,-2.4933076
4.9225650000000005,10.566561,-1.4290128,0.90755373,2.7034452,-2.1377141
5.0044947,11.329257,-1.4654334,0.43804273,2.0657194,-1.6746085
5.1070720000000005,10.642131,-0.7269084,0.7606319,0.9914866,-1.4584669
5.266152,9.691595,-0.10031705,0.8452804,-0.016720254,-1.187522
5.098481700000001,9.498583,0.9849266999999999,1.0220125,-1.0238974,-1.1188607
5.0561233,10.011584,1.6949319999999999,0.90224797,-2.3115838,-1.4813657
4.8092809999999995,11.054527,2.0705056,0.79524183,-2.917894,-1.0842508999999998
4.6029290000000005,11.894039999999999,1.3833792,0.5711241,-2.5266433,-1.0145249
4.201307,11.872769,-0.063092,0.41462043,-2.1305932999999997,-1.3935407
3.0164645,11.235489999999999,-1.8526044999999998,0.31508428,-1.6818516,-1.5979537
1.5754901000000001,10.943158,-3.4449400000000003,0.048921578,-1.1319507,-1.6368047
0.26019228,10.757655999999999,-2.1277174999999997,-0.07297221599999999,-0.5389401999999999,-1.593695
1.2591586000000001,8.874702000000001,1.2220388999999998,0.016441,0.14241886,-1.5101111999999999
0.39820359999999994,7.930965400000001,1.5767636999999999,0.22991222,0.7657632,-1.4052518999999999
2.0443418,7.514834,1.7864767,0.45507714,1.3582501,-1.1279016000000002
2.5991168,7.547175,0.55501425,0.47106436,1.6888328999999997,-0.8606742000000001
0.8612709999999999,8.340661,0.48164633,0.25865778,1.8059446,-0.44652504
4.4272523,8.817654,-0.02671929,-0.08468337,1.7606881999999997,0.040002946
6.088828599999999,8.655565,0.8232031999999999,-0.39236748,1.463127,0.5686108
5.3931309999999995,8.644427,1.08533,-0.6654416999999999,0.91109675,1.0407746999999998
5.827286,8.348475,0.94445515,-0.83472115,0.2499486,1.3846569
6.0833597,8.143446,2.1639369999999998,-0.81342816,-0.21422172,1.6226151000000002
6.1758239999999995,7.871703999999999,3.128264,-0.7192153,-0.46015605,1.7647372
6.214735,8.659358000000001,3.6688553999999995,-0.63723713,-0.48518407,1.8908898
5.868265,10.321011,2.7911029999999997,-0.6350904,-0.32866296,2.0250532999999997
5.3874617,11.849661,0.87881565,-0.730909,-0.02417281,2.0910616
4.339117,13.254118,-0.73253953,-0.8341976000000001,0.30105186,2.0607102
3.5152437999999995,14.127428,-1.8637903000000002,-0.9412037,0.9637882999999999,1.9004716
2.340993,14.013004,-1.4972379,-0.9401216,1.1341324,1.7365153000000002
2.1031337000000003,12.806776,-1.1795465,-0.8304626,1.4514158000000001,1.8296810000000001
2.3557985,11.121373,-0.25139117,-0.6739589,1.4407693000000001,2.0335703
2.8722374,9.85982,0.46054864,-0.48870963,1.2310331,2.3231554
3.236549,9.292433,0.44850102,-0.38650316,0.92706656,2.5110576
3.296442,9.993523,0.07031291,-0.33487633,0.6071477,2.6239103999999998
3.4983406,11.328874,-0.68405217,-0.35510468,0.36173695,2.7037593999999996
4.163833,12.555997999999999,-1.4183538,-0.41472512,0.23984315,2.7548625
4.4265532,13.533666,-1.6968378,-0.4935093,0.20577432,2.7463452999999998
5.561625,13.944022,-1.4672339,-0.5738816999999999,0.17170548,2.6563911
4.141634,13.1088,-1.6675711,-0.621791,0.10835004,2.4961523999999997
3.2478592,11.760394999999999,-0.6832477,-0.62711424,0.023177972,2.2885456000000004
1.6402581000000003,10.313627,-0.48040137,-0.55525905,-0.030037116000000003,2.0537813000000003
1.2666188,9.099557,-0.23534046,-0.46902233,-0.071017444,1.7817718
1.5668135,8.249385,-0.37890637,-0.41577232,-0.15406021,1.4645058000000002
1.711021,7.76385,-0.5800576,-0.41046652,-0.33718017,1.0503566
1.7921749,7.6808004,-0.9071151,-0.43441245,-0.60281926,0.5451885000000001
1.9645095000000001,7.868592,-1.0701603000000002,-0.463158,-0.9238028,-0.039828412
2.2145216,7.9936169999999995,-1.2345653,-0.47326347,-1.2783315,-0.73823935
2.4533865,7.887439,-1.2736386999999998,-0.46689302,-1.5881448999999999,-1.5138463
2.5476987,7.6010065,-1.1426758999999997,-0.4269599,-1.8335381999999998,-2.1866882000000003
2.5869732000000005,7.115423700000001,-0.8494531999999999,-0.37533304,-1.9346975,-2.876582
2.6151195,6.616999000000001,-0.5771654,-0.26248008,-1.7249613000000001,-3.4094483999999996
2.6848674,6.6360087,-0.5860144,-0.05326745,-1.1963534,-3.717656
2.8776772,7.424755,-0.80794734,0.17880899,-0.3020467,-3.7799468000000003
3.101219,8.250477,-1.1294024,0.39599776,0.7029663,-3.624508
3.4068627,8.761064999999999,-1.4137665000000001,0.559954,1.5578809,-3.3035242999999994
3.7617218,8.907915,-1.4680383,0.55676,1.8714118000000002,-2.9617715000000002
4.476736,9.557375,-1.3185826999999999,0.47478190000000003,1.6244128999999998,-2.5657039
4.9658422,10.525236,-1.2050114,0.24108233,0.785468,-2.0717058
5.2293005,10.90013,-0.9803011,0.21554816,-0.028972466000000002,-1.5681260000000001
5.6518483,10.660212,-0.49614564,0.65203756,-0.8258549000000001,-1.4898828000000002
5.568473,10.026553,0.25325865,0.79470074,-1.4375055,-1.4845597
5.290209,9.735227,1.4205469,0.88467246,-1.7638122999999999,-1.4100341
5.265846,10.343085,1.7015974999999999,0.7489382,-1.8660188000000002,-1.5697317
4.7460356,11.42651,1.8451921999999998,0.5093918,-1.6051792999999999,-1.6431924999999998
4.1975050000000005,12.375935,0.7723215999999999,0.26185176,-1.1984826000000002,-1.7118712999999999
3.3791474999999997,12.321683,-0.7203195,-0.07881907,-0.8508829,-1.7858558
2.2036138,11.820682000000001,-1.2425045,-0.32581806,-0.64486426,-1.8284418999999998
0.3387987,11.497425999999999,-1.7470776999999997,-0.33007666,-0.48357838,-1.7273
1.5562023999999999,10.786501,1.3240318000000002,-0.17463765,-0.29619983,-1.5319278
3.1251227999999998,8.823160000000001,3.2306592,0.06328564,0.0034906585,-1.2545950000000001
2.0369773,7.678779,1.3919313999999998,0.31614894,0.44477970000000006,-0.88674945
3.3925837999999997,7.7405786999999995,1.761711,0.44923028,0.8344419,-0.53754395
4.3684416,7.910778,1.0027395000000001,0.38908625,0.9632821,-0.24528857
4.6914864000000005,8.1619005,0.6689016999999999,0.19638444,0.91802573,0.037350047000000004
5.1040454,8.367103,-0.21444386,0.019634955,0.8748986999999999,0.3641804
5.4735949999999995,8.632812,-0.7785369000000001,-0.09053023,0.73755866,0.72404987
5.532866,8.657596,0.40738779999999997,-0.14535102,0.4612905,1.0807079
5.4782114,8.245516,1.7047291,-0.07614872,0.23771384,1.3612347
5.415704,7.8598384999999995,2.4992592,-0.01706932,0.20416862,1.5773587
5.1480125999999995,7.7088985,2.7494628,-0.01706932,0.32820916,1.7913536
4.987486,8.595701,2.3847876,-0.07136651,0.5480508000000001,1.9499866000000001
5.240505000000001,10.058875,1.4004451999999998,-0.19538961,0.8168839,2.0729625
5.369141,11.306426,-0.13628754,-0.3689277,1.0000038,2.2134964
5.0844226,12.52698,-0.7493276999999999,-0.49670324,1.5163594,2.1352358
4.522685500000001,13.117132000000002,-0.7456885,-0.5893104,2.2073177999999998,2.0580573
3.8769595999999997,13.439171,-0.42209774,-0.6420194,2.5235193,1.6534901000000002
3.4941553999999995,12.52812,0.15237658,-0.7601956,2.4612284,1.7530261000000003
3.6012242,10.724214,0.66934216,-0.66437703,2.3403993,1.6524254
3.5807393,9.602674,0.5197238000000001,-0.6739589,1.5647924,2.1661108
3.4530517999999994,9.473444,0.20563320000000004,-0.6404310999999999,0.7471405,2.4008574
3.6876547,10.60891,-0.31656134,-0.6718121,0.16266468,2.5025578
3.6682332000000004,12.027741,-0.6557335,-0.7431612,-0.35262632,2.582389
3.6939851999999997,13.308342999999999,-0.79166675,-0.7846826,-0.6565754,2.6361627999999997
4.203375299999999,14.142913,-0.37901172,-0.7894648,-0.77422804,2.6249752
4.36756,14.152941,-0.32678938,-0.7623249,-0.81201446,2.5573785
3.6161160000000003,13.348374,-1.2897756,-0.7053574,-0.8003033,2.4253619
2.898373,12.250622,-0.5341751,-0.6398901,-0.7199309,2.2331836
1.6197445,10.628322,-0.5497853,-0.5717524,-0.60547215,1.9978957999999998
-1.0228604,9.264526,-0.17881814,-0.5147849,-0.50913,1.713634
0.90311205,8.480089999999999,-0.52306604,-0.49457395,-0.47240826,1.3468531000000001
1.1842871000000001,8.018019,-0.81720805,-0.5291664,-0.5612979,0.8880061
1.386827,7.7159758,-1.0930393,-0.59356904,-0.7731634000000001,0.35568064
1.7127162,7.545221300000001,-0.9520591,-0.65798914,-1.0622073,-0.29267427
2.068322,7.375463000000001,-0.82180494,-0.6707649,-1.334758,-1.0358006
2.3120517999999994,7.1318483,-0.66754174,-0.66650635,-1.5162897,-1.7869203999999999
2.5833054,6.9127979999999996,-0.5547748,-0.6420194,-1.6818342,-2.4698849999999997
2.805535,6.642817999999999,-0.46483904,-0.5467244000000001,-1.6605412,-3.0836651
2.8685794,6.425003,-0.51364243,-0.35297540000000005,-1.3475338,-3.5489175000000004
2.9578447,6.747300599999999,-0.59862703,-0.101717785,-0.7481354,-3.827315
3.1537669999999998,7.7902154999999995,-0.8332301,0.13995795,0.046076692999999995,-3.9215453
3.4506671000000004,8.982336,-1.1771045,0.34969416,0.9190904000000001,-3.7873992999999997
3.87129,9.437159,-1.4346153,0.44177774,1.6073959,-3.5430534
4.3262362,9.241628,-1.4026766000000002,0.3315951,1.7968863000000002,-3.263591
4.9428577,9.8664665,-1.1892575,0.093636915,1.3582675,-2.8813815
5.220308,10.862216,-1.1502416000000002,-0.085730575,0.66676813,-2.1978757
5.319380000000001,10.845513,-0.8241417,0.39386845,0.18394025,-1.6389340000000001
5.5096517,10.123643,-0.13719733,0.70102894,-0.39892990000000006,-1.2514011
5.4032054,9.181055,0.8668159,0.93525213,-1.1505733999999999,-0.9495638000000001
5.28905,9.27665,1.5087110000000001,0.9682563,-1.9708956000000002,-0.91230106
4.9672503,10.520361,1.6788621,0.87456703,-2.1646445,-1.0480353
4.514248,12.305344999999999,1.3113424999999999,0.6626841,-2.0289104,-1.1348305
4.333869,13.439179999999999,-0.28566656,0.36992255,-1.6924807000000002,-1.2519246000000002
3.7606397000000005,12.910015,-2.2593699000000003,0.064908795,-1.2596914,-1.5702553
2.4436276,11.886513,-3.174434,-0.15334463,-0.91263264,-1.7996961999999999
0.8193341000000001,10.852284,-0.86297566,-0.24916321,-0.55223966,-1.8476056
1.4962993999999998,9.179857,2.284662,-0.10649999,-0.038013272,-1.7507223000000003
0.6326439,8.00372,1.184086,0.18839084,0.739688,-1.5532209
1.7609544999999998,7.730455999999999,1.1477708,0.48331657,1.6526348999999998,-1.183246
2.6565773,8.17822,0.48855119999999996,0.6206391,2.4053430000000002,-0.7286575
4.0209565000000005,8.111709,0.5669757,0.68825316,2.8301387000000005,-0.25912905
4.3901997,8.299778,0.13302185,0.4944867,2.7705182999999995,0.14646803
5.1897388,8.369104,-0.56896764,0.09311332,2.1146932,0.5521
6.145877400000001,8.407976,-0.7011467,-0.3859621,1.2395502,0.9934065000000001
6.154506,8.35719,0.014796166999999999,-0.6430666,0.41072834,1.3862627
6.250389,8.02703,1.5744844999999998,-0.6617066999999999,-0.08592256,1.6300677
6.560065,7.6807814,2.7870421000000003,-0.6468016,-0.33079225,1.8738728
6.7496758,8.295622,3.2910793,-0.6505366,-0.39947096,2.0974493
6.509126,9.752618,2.9859430000000002,-0.7351850000000001,-0.38882446,2.2624702
5.9951,10.554943,1.7223504,-0.89753556,-0.37604862,2.3465776000000003
5.0010757,11.680266,0.5712182,-1.0577742,-0.10295697,2.3194203
4.190092,13.027196,-1.3279486999999999,-1.1179183000000001,0.44477970000000006,2.1315183999999996
2.9198534,14.573927,-1.6596990000000003,-1.0162354,0.849347,1.8387393
2.2087849999999998,13.988411,-1.2659581,-0.94118625,1.2528496999999998,1.9819261000000001
2.297524,11.5625,-0.017946936,-0.6824760999999999,1.2933065000000001,1.9766028000000002
2.6351923999999998,10.088544,0.43897212,-0.4514294,1.1235033,2.2502356
2.4793298,10.052228999999999,0.31561324,-0.27152088,0.873834,2.3316727000000004
2.8420804,11.234188,-0.09073067,-0.19964822,0.6869965,2.3817112000000003
3.2378802,12.711352999999999,-0.79775757,-0.19167206,0.5571090999999999,2.4024632
3.880072,13.641692,-1.650122,-0.2432989,0.5448569000000001,2.4200387
4.441455,13.626972,-1.8173523,-0.325277,0.5448569000000001,2.404069
4.656406400000001,12.906213000000001,-1.6385916,-0.41203734,0.48684213,2.3322136
3.9353876000000003,12.199846,-1.5412242,-0.48338640000000005,0.37931240000000005,2.2007205
2.7645655,10.654906,-0.38046739,-0.5286253000000001,0.23451988,2.0277061
1.5397207,8.934558,-0.58112067,-0.5467244000000001,0.020001473,1.8036058000000001
1.1907322,7.832679,-0.20817105,-0.5637588000000001,-0.2642603,1.5081563999999998
1.8597679,7.319841,-0.7617295999999999,-0.5839871999999999,-0.6102718,1.1424576000000002
1.9744884999999999,7.2494226,-1.0840273999999999,-0.5956983,-0.95467764,0.710733
2.089257,7.437032,-1.3086132,-0.55152404,-1.2314869,0.21141173
2.1301308,7.5808563,-1.5049378,-0.43654174,-1.3778851,-0.35016540000000007
2.1629887,7.588518,-1.6528706999999998,-0.35456362,-1.4390938,-0.9171007
2.2442767999999997,7.568637,-1.6545178,-0.2731091,-1.51149,-1.3919176000000002
2.3181427,7.495891,-1.6286892,-0.14641567,-1.4417641,-1.8790040000000001
2.3234482000000005,7.389359,-1.5073032,0.042533673,-1.2032648000000001,-2.209046
2.4009917,7.744227400000001,-1.500743,0.25759315,-0.8758935,-2.410806
2.677474,8.604934,-1.5282763000000001,0.44125414,-0.47345546,-2.519924
3.0536606,9.505163,-1.5971624,0.5301611999999999,-0.043860123,-2.5747447
3.5184517,9.71636,-1.6091908000000001,0.47958156,0.3143687,-2.614154
3.9069064,9.50727,-1.2498690000000001,0.3315951,0.55552083,-2.6279945
4.4863124,10.697283,-0.8022587,0.18041469,0.72745323,-2.5247235
4.6957765,12.158647,-0.7533978,0.16922712,0.7806858,-2.3314805
4.9330897,10.358332,-0.2522531,0.31030208,0.7114835,-2.1116214
4.9627013,8.5265665,0.37560236,0.47691122,0.49907690000000005,-1.9732343
4.6468678,8.507614,1.1682268,0.53600806,0.13285446,-1.9668290000000002
4.5764017,9.843588,1.467071,0.48329914,-0.2733011,-2.0147557000000003
4.638593,11.512413,1.4197329,0.3124314,-0.60547215,-2.0546713
4.871932,12.6364155,0.8880764999999999,0.133029,-0.7497235999999999,-2.0653179
5.1919703,12.596067,-0.032925062000000005,-0.021310471,-0.74387676,-2.0626476
4.808399700000001,11.641164,-0.82981116,-0.13046336,-0.6203773,-1.9934627
3.9547614999999996,10.372917,-0.74196315,-0.12779301,-0.33292156,-1.8406765
3.0971777,8.986914,0.3378889,-0.0005585053599999999,0.23239058,-1.6080416000000002
2.7102554,7.678559299999999,1.5819545,0.16550957,1.0670768,-1.2737588
2.935665,6.944861,1.6051111,0.25068164,1.7974273,-0.8734325999999999
3.4370682,7.1836777000000005,1.0298227,0.24483478,2.2168999,-0.5013458
3.8333755,7.9911656,0.4751916,0.25068164,2.4686985,-0.16172221
4.19196,8.440548,0.18915151,0.27462757,2.4921207,0.21781708
4.6092787,8.606159,0.25647646,0.29487340000000006,2.1876307,0.60428536
5.1151542999999995,8.563944000000001,0.47225150000000005,0.22354177,1.5238120000000002,0.9082344000000001
5.5008984000000005,8.059898,1.0198629000000001,0.16924457,0.89460343,1.1073241000000003
5.8704004,7.4573350000000005,1.6811126,0.08618436,0.55550337,1.2872502000000001
6.087526,7.5419173,1.9973866999999998,-0.005899213,0.52143455,1.4687643999999997
6.0899105,8.755423,1.5817341999999999,-0.12725195,0.64653975,1.586417
6.166276,10.19248,0.77125853,-0.24862215,0.8121017,1.6369966
6.3075339999999995,10.888092,0.11482591,-0.36625734,0.98935735,1.6487078999999998
5.8459125,11.560623,-0.043651085,-0.46739918,1.145861,1.6396495
4.6948,12.246457000000001,-0.027849354,-0.50626767,1.3295219999999999,1.6502961
3.978081,13.446985999999999,-0.2561796,-0.48178068,1.4684502000000001,1.7466383
3.6694684,12.795888,-0.39241925,-0.41629595,1.5472344,1.8914483
3.6305769999999997,10.874292,-0.1989773,-0.34657001,1.5238120000000002,2.0468872
3.485383,10.031619000000001,-0.22518905,-0.31782445,1.4098945,2.1937916
3.6298779999999997,10.390835000000001,-0.432479,-0.3455054,1.2422206,2.2821577
4.0532875,11.593931,-0.8110789,-0.41364303,1.0559068,2.3295434
4.3677135,12.883227999999999,-0.9282895,-0.4988151,0.8908684000000001,2.3284786
4.532042,13.567184,-1.1765682,-0.5781403,0.73277646,2.2954745
4.381676000000001,13.106933,-1.2956174999999999,-0.64573693,0.5571090999999999,2.239048
3.8268921000000002,12.007918,-1.1618868999999998,-0.69949305,0.35217252,2.1602638
